,sbj_ID,task,trialn,target,confound,expected,observed,correct,rt
0,5d97c38dce449e001244dc15,familiarity,1,kcOY,alJY,0,0,True,2850.0
0,5d97c38dce449e001244dc15,familiarity,2,DMRP,JmNk,1,1,True,1905.0
0,5d97c38dce449e001244dc15,familiarity,3,YOaAb,KAERM,0,1,False,2761.0
0,5d97c38dce449e001244dc15,familiarity,4,JZr,Akd,1,0,False,1685.0
0,5d97c38dce449e001244dc15,familiarity,5,TdmA,ORbk,0,0,True,2020.0
0,5d97c38dce449e001244dc15,familiarity,6,dGLAl,rbYbu,0,0,True,1680.0
0,5d97c38dce449e001244dc15,familiarity,7,BOckP,Blmcl,1,1,True,1476.0
0,5d97c38dce449e001244dc15,familiarity,8,Amacl,KTDTB,1,1,True,1776.0
0,5d97c38dce449e001244dc15,familiarity,9,OJGQ,NYZu,1,1,True,1712.0
0,5d97c38dce449e001244dc15,familiarity,10,PYkC,khmh,0,0,True,1416.0
0,5d97c38dce449e001244dc15,familiarity,11,OdlNm,MkmEd,1,1,True,2793.0
0,5d97c38dce449e001244dc15,familiarity,12,bNdmG,kcdOt,1,0,False,2158.0
0,5d97c38dce449e001244dc15,familiarity,13,RCdc,cYUv,0,0,True,1218.0
0,5d97c38dce449e001244dc15,familiarity,14,UAcdu,Ldrbv,0,0,True,2449.0
0,5d97c38dce449e001244dc15,familiarity,15,mARM,mbZl,1,1,True,2340.0
0,5d97c38dce449e001244dc15,familiarity,16,rkJu,PlEK,0,1,False,1609.0
0,5d97c38dce449e001244dc15,familiarity,17,mLdkZ,BOCRM,0,0,True,2158.0
0,5d97c38dce449e001244dc15,familiarity,18,YlYc,YArG,0,0,True,2469.0
0,5d97c38dce449e001244dc15,familiarity,19,DlDT,aYaN,1,1,True,1365.0
0,5d97c38dce449e001244dc15,familiarity,20,Dmh,aQr,0,0,True,2906.0
0,5d97c38dce449e001244dc15,familiarity,21,RYtkc,JZOAk,0,0,True,2318.0
0,5d97c38dce449e001244dc15,familiarity,22,NUZ,Ymb,0,1,False,1376.0
0,5d97c38dce449e001244dc15,familiarity,23,UvOG,OJNk,1,0,False,2165.0
0,5d97c38dce449e001244dc15,familiarity,24,TmTm,KEdl,0,0,True,1746.0
0,5d97c38dce449e001244dc15,familiarity,25,EPERd,OAmGr,0,0,True,1480.0
0,5d97c38dce449e001244dc15,familiarity,26,kdrO,YJkb,0,0,True,3274.0
0,5d97c38dce449e001244dc15,familiarity,27,BRDh,LuaU,1,1,True,2048.0
0,5d97c38dce449e001244dc15,familiarity,28,DlDd,JAaG,1,1,True,1245.0
0,5d97c38dce449e001244dc15,familiarity,29,JcUk,APEM,0,1,False,2271.0
0,5d97c38dce449e001244dc15,familiarity,30,ark,Tbk,1,0,False,1653.0
0,60d87fdab51e54fe4863f97f,familiarity,1,vuJZu,LAclA,1,1,True,1947.0
0,60d87fdab51e54fe4863f97f,familiarity,2,EPERd,LNUrJ,0,1,False,5162.0
0,60d87fdab51e54fe4863f97f,familiarity,3,mdkK,dJNr,0,1,False,5076.0
0,60d87fdab51e54fe4863f97f,familiarity,4,CkBOP,ALOrl,0,0,True,3990.0
0,60d87fdab51e54fe4863f97f,familiarity,5,LdQv,QvlZ,1,0,False,3899.0
0,60d87fdab51e54fe4863f97f,familiarity,6,AZbl,bvuZ,1,1,True,3709.0
0,60d87fdab51e54fe4863f97f,familiarity,7,OJNk,YArG,1,1,True,1574.0
0,60d87fdab51e54fe4863f97f,familiarity,8,MBmE,mdla,0,1,False,1071.0
0,60d87fdab51e54fe4863f97f,familiarity,9,tmtEM,tDPRk,0,0,True,3286.0
0,60d87fdab51e54fe4863f97f,familiarity,10,ABb,Akd,0,0,True,3518.0
0,60d87fdab51e54fe4863f97f,familiarity,11,kJdr,kZUb,1,0,False,1716.0
0,60d87fdab51e54fe4863f97f,familiarity,12,NLQGm,ABPRB,1,1,True,4291.0
0,60d87fdab51e54fe4863f97f,familiarity,13,kGua,EhRm,1,1,True,3403.0
0,60d87fdab51e54fe4863f97f,familiarity,14,vJab,kdrO,0,0,True,2217.0
0,60d87fdab51e54fe4863f97f,familiarity,15,YLQmG,MBKRE,0,0,True,977.0
0,60d87fdab51e54fe4863f97f,familiarity,16,DBlh,RtRh,0,0,True,2262.0
0,60d87fdab51e54fe4863f97f,familiarity,17,tAY,rAm,0,1,False,2521.0
0,60d87fdab51e54fe4863f97f,familiarity,18,QGb,mhc,1,1,True,1373.0
0,60d87fdab51e54fe4863f97f,familiarity,19,DOchl,ECtbD,0,1,False,1202.0
0,60d87fdab51e54fe4863f97f,familiarity,20,YZJm,NmAG,0,0,True,2425.0
0,60d87fdab51e54fe4863f97f,familiarity,21,mKcD,NvYJ,1,0,False,1103.0
0,60d87fdab51e54fe4863f97f,familiarity,22,kdaAJ,lAOKM,0,1,False,2559.0
0,60d87fdab51e54fe4863f97f,familiarity,23,CmYA,uUmb,1,1,True,1626.0
0,60d87fdab51e54fe4863f97f,familiarity,24,NQZv,TklD,1,1,True,984.0
0,60d87fdab51e54fe4863f97f,familiarity,25,CmcO,PcBT,1,0,False,2303.0
0,60d87fdab51e54fe4863f97f,familiarity,26,BbOD,BPAl,0,0,True,954.0
0,60d87fdab51e54fe4863f97f,familiarity,27,rGUAY,aLNlk,0,0,True,1358.0
0,60d87fdab51e54fe4863f97f,familiarity,28,AlNU,EPBT,0,1,False,2912.0
0,60d87fdab51e54fe4863f97f,familiarity,29,COTK,UrOQ,1,1,True,1350.0
0,60d87fdab51e54fe4863f97f,familiarity,30,BRDh,kKRC,1,0,False,2979.0
0,60b55a6d44e17d6f0b810cdd,familiarity,1,Udumd,BATOc,1,1,True,1872.0
0,60b55a6d44e17d6f0b810cdd,familiarity,2,DOBhY,bNdmG,1,1,True,969.0
0,60b55a6d44e17d6f0b810cdd,familiarity,3,uQkrd,ALOrl,0,0,True,921.0
0,60b55a6d44e17d6f0b810cdd,familiarity,4,cUN,YcM,1,0,False,1245.0
0,60b55a6d44e17d6f0b810cdd,familiarity,5,uZc,kKE,0,1,False,1211.0
0,60b55a6d44e17d6f0b810cdd,familiarity,6,BYhT,OZkb,1,0,False,803.0
0,60b55a6d44e17d6f0b810cdd,familiarity,7,NmAG,kPOt,0,1,False,1067.0
0,60b55a6d44e17d6f0b810cdd,familiarity,8,kZUb,bdtK,1,0,False,739.0
0,60b55a6d44e17d6f0b810cdd,familiarity,9,JAdLm,DcPTc,0,0,True,792.0
0,60b55a6d44e17d6f0b810cdd,familiarity,10,NQZv,GQrc,1,0,False,950.0
0,60b55a6d44e17d6f0b810cdd,familiarity,11,PMYm,EMYK,0,1,False,303.0
0,60b55a6d44e17d6f0b810cdd,familiarity,12,TbKME,ZcGdN,1,0,False,494.0
0,60b55a6d44e17d6f0b810cdd,familiarity,13,vkYGl,dKDth,1,0,False,795.0
0,60b55a6d44e17d6f0b810cdd,familiarity,14,AlUY,GZJY,0,1,False,772.0
0,60b55a6d44e17d6f0b810cdd,familiarity,15,DOchl,PMPtk,0,0,True,1746.0
0,60b55a6d44e17d6f0b810cdd,familiarity,16,DhMt,mdla,0,0,True,594.0
0,60b55a6d44e17d6f0b810cdd,familiarity,17,cRElD,aNYmb,0,1,False,1072.0
0,60b55a6d44e17d6f0b810cdd,familiarity,18,rGUAY,hlctE,1,1,True,1084.0
0,60b55a6d44e17d6f0b810cdd,familiarity,19,DBlh,MDKP,0,1,False,619.0
0,60b55a6d44e17d6f0b810cdd,familiarity,20,OYK,ABb,0,0,True,364.0
0,60b55a6d44e17d6f0b810cdd,familiarity,21,KOYC,JdGm,1,0,False,626.0
0,60b55a6d44e17d6f0b810cdd,familiarity,22,dRbDb,lCbcm,0,0,True,1512.0
0,60b55a6d44e17d6f0b810cdd,familiarity,23,kmU,JcL,0,1,False,831.0
0,60b55a6d44e17d6f0b810cdd,familiarity,24,dRA,Jud,1,0,False,641.0
0,60b55a6d44e17d6f0b810cdd,familiarity,25,YJkb,LQur,1,1,True,1478.0
0,60b55a6d44e17d6f0b810cdd,familiarity,26,YObA,LuNZ,1,1,True,707.0
0,60b55a6d44e17d6f0b810cdd,familiarity,27,rba,Cdt,1,1,True,1036.0
0,60b55a6d44e17d6f0b810cdd,familiarity,28,KRARm,vmuLl,1,0,False,649.0
0,60b55a6d44e17d6f0b810cdd,familiarity,29,GJGcZ,kbmZO,1,0,False,403.0
0,60b55a6d44e17d6f0b810cdd,familiarity,30,PEkhA,kGamN,1,0,False,259.0
0,6175a0a52e748285b3476b27,familiarity,1,RYlD,NQZv,0,0,True,996.0
0,6175a0a52e748285b3476b27,familiarity,2,Ehbt,UrOQ,0,0,True,916.0
0,6175a0a52e748285b3476b27,familiarity,3,BRDh,dKRD,0,1,False,951.0
0,6175a0a52e748285b3476b27,familiarity,4,Glu,PMd,1,0,False,698.0
0,6175a0a52e748285b3476b27,familiarity,5,CKOb,YlYc,0,1,False,1049.0
0,6175a0a52e748285b3476b27,familiarity,6,OCmk,mtKP,0,0,True,716.0
0,6175a0a52e748285b3476b27,familiarity,7,ctkt,YDTk,1,0,False,913.0
0,6175a0a52e748285b3476b27,familiarity,8,bTE,uUY,1,1,True,819.0
0,6175a0a52e748285b3476b27,familiarity,9,QGb,JcL,1,0,False,1249.0
0,6175a0a52e748285b3476b27,familiarity,10,adYrc,vAuNl,1,1,True,1043.0
0,6175a0a52e748285b3476b27,familiarity,11,AZlLN,RdPtD,0,0,True,938.0
0,6175a0a52e748285b3476b27,familiarity,12,Avdk,vJab,0,0,True,682.0
0,6175a0a52e748285b3476b27,familiarity,13,AZbl,lTmO,1,1,True,783.0
0,6175a0a52e748285b3476b27,familiarity,14,Ymb,cbm,1,0,False,945.0
0,6175a0a52e748285b3476b27,familiarity,15,OdlNm,RlAKc,1,1,True,646.0
0,6175a0a52e748285b3476b27,familiarity,16,advYO,ZkGmY,0,0,True,564.0
0,6175a0a52e748285b3476b27,familiarity,17,cAZu,dkLl,1,1,True,593.0
0,6175a0a52e748285b3476b27,familiarity,18,lBKt,ALGZ,1,1,True,636.0
0,6175a0a52e748285b3476b27,familiarity,19,dPc,OcN,0,1,False,852.0
0,6175a0a52e748285b3476b27,familiarity,20,kNua,dYdA,1,0,False,765.0
0,6175a0a52e748285b3476b27,familiarity,21,vkYGl,dMThk,1,0,False,811.0
0,6175a0a52e748285b3476b27,familiarity,22,dmZvm,PEkhA,1,1,True,586.0
0,6175a0a52e748285b3476b27,familiarity,23,DkTCP,LckGN,0,0,True,500.0
0,6175a0a52e748285b3476b27,familiarity,24,Phktk,YuaNd,1,1,True,772.0
0,6175a0a52e748285b3476b27,familiarity,25,AlNU,ArQu,1,0,False,1379.0
0,6175a0a52e748285b3476b27,familiarity,26,bRABt,hmKPM,1,1,True,406.0
0,6175a0a52e748285b3476b27,familiarity,27,adkr,ktBd,0,0,True,336.0
0,6175a0a52e748285b3476b27,familiarity,28,cdKBY,lbBDE,1,0,False,357.0
0,6175a0a52e748285b3476b27,familiarity,29,EtMDM,GumLl,1,1,True,266.0
0,6175a0a52e748285b3476b27,familiarity,30,AbKD,kdrO,0,0,True,371.0
0,614060a52d7c64c27ef9887c,familiarity,1,RKYk,YQbc,1,1,True,3694.0
0,614060a52d7c64c27ef9887c,familiarity,2,bdtK,lrZG,1,0,False,1810.0
0,614060a52d7c64c27ef9887c,familiarity,3,BMEMA,BdtAC,0,0,True,1890.0
0,614060a52d7c64c27ef9887c,familiarity,4,lhCTC,kLvdN,0,0,True,2299.0
0,614060a52d7c64c27ef9887c,familiarity,5,hlkT,adkr,0,1,False,1759.0
0,614060a52d7c64c27ef9887c,familiarity,6,YDE,tRb,0,0,True,1524.0
0,614060a52d7c64c27ef9887c,familiarity,7,aUZA,BECk,1,0,False,2111.0
0,614060a52d7c64c27ef9887c,familiarity,8,kGlU,bvkr,0,1,False,2067.0
0,614060a52d7c64c27ef9887c,familiarity,9,uauO,UJkG,0,1,False,2722.0
0,614060a52d7c64c27ef9887c,familiarity,10,KABA,MDKP,1,1,True,1371.0
0,614060a52d7c64c27ef9887c,familiarity,11,DhMt,JrGv,0,0,True,2193.0
0,614060a52d7c64c27ef9887c,familiarity,12,dUr,bTE,0,1,False,1773.0
0,614060a52d7c64c27ef9887c,familiarity,13,kGamN,EltMB,0,1,False,3109.0
0,614060a52d7c64c27ef9887c,familiarity,14,UmNJ,alJY,0,1,False,3175.0
0,614060a52d7c64c27ef9887c,familiarity,15,uAkr,CmcO,0,0,True,1894.0
0,614060a52d7c64c27ef9887c,familiarity,16,lbBDE,ZJLmr,0,0,True,2331.0
0,614060a52d7c64c27ef9887c,familiarity,17,kbu,EcR,0,0,True,3240.0
0,614060a52d7c64c27ef9887c,familiarity,18,MAB,kam,1,1,True,1032.0
0,614060a52d7c64c27ef9887c,familiarity,19,KOYC,bAMO,0,0,True,1381.0
0,614060a52d7c64c27ef9887c,familiarity,20,dkLl,tmAK,0,0,True,2265.0
0,614060a52d7c64c27ef9887c,familiarity,21,YZUZ,bcbM,0,0,True,1746.0
0,614060a52d7c64c27ef9887c,familiarity,22,YKRk,rULv,0,1,False,2332.0
0,614060a52d7c64c27ef9887c,familiarity,23,BbM,UbG,1,1,True,2886.0
0,614060a52d7c64c27ef9887c,familiarity,24,JvaA,hChY,0,1,False,2053.0
0,614060a52d7c64c27ef9887c,familiarity,25,Ymb,Cdt,0,0,True,3820.0
0,614060a52d7c64c27ef9887c,familiarity,26,bGuO,UvOG,0,1,False,2618.0
0,614060a52d7c64c27ef9887c,familiarity,27,GLYrA,dMYBP,0,0,True,1402.0
0,614060a52d7c64c27ef9887c,familiarity,28,Grub,ZvkL,0,1,False,2533.0
0,614060a52d7c64c27ef9887c,familiarity,29,kRCkO,NvuGr,0,0,True,2321.0
0,614060a52d7c64c27ef9887c,familiarity,30,DcPTc,UdYUQ,1,1,True,1761.0
0,60ba2011cd8052508d401296,familiarity,1,kCRm,khMD,1,1,True,2588.0
0,60ba2011cd8052508d401296,familiarity,2,damYb,bdUNu,0,1,False,2293.0
0,60ba2011cd8052508d401296,familiarity,3,ABPRB,hmKPM,1,1,True,1822.0
0,60ba2011cd8052508d401296,familiarity,4,UAcdu,CkBOP,0,0,True,2316.0
0,60ba2011cd8052508d401296,familiarity,5,DOAK,MCkm,1,0,False,2296.0
0,60ba2011cd8052508d401296,familiarity,6,aUZA,udkm,1,1,True,1416.0
0,60ba2011cd8052508d401296,familiarity,7,YNu,Dmh,0,0,True,2295.0
0,60ba2011cd8052508d401296,familiarity,8,ckduA,kRCkO,1,1,True,2114.0
0,60ba2011cd8052508d401296,familiarity,9,JUNa,CmcO,0,1,False,2430.0
0,60ba2011cd8052508d401296,familiarity,10,YArG,mhtc,1,0,False,2879.0
0,60ba2011cd8052508d401296,familiarity,11,RCcE,OdYP,1,1,True,1327.0
0,60ba2011cd8052508d401296,familiarity,12,rZYd,Gabk,0,0,True,2046.0
0,60ba2011cd8052508d401296,familiarity,13,Ehbt,YZJm,1,1,True,1439.0
0,60ba2011cd8052508d401296,familiarity,14,DBkl,ctkt,1,1,True,2588.0
0,60ba2011cd8052508d401296,familiarity,15,PMPtk,PDPhl,1,0,False,2408.0
0,60ba2011cd8052508d401296,familiarity,16,vYLU,AlNU,1,1,True,3172.0
0,60ba2011cd8052508d401296,familiarity,17,hTtBb,DBPhc,0,0,True,1755.0
0,60ba2011cd8052508d401296,familiarity,18,AdDb,Ddck,1,1,True,1057.0
0,60ba2011cd8052508d401296,familiarity,19,BOckP,kLvdN,1,0,False,1867.0
0,60ba2011cd8052508d401296,familiarity,20,NaAQd,NbacA,1,0,False,1710.0
0,60ba2011cd8052508d401296,familiarity,21,kNua,MBmE,0,0,True,2497.0
0,60ba2011cd8052508d401296,familiarity,22,rLkm,uvaU,0,1,False,2677.0
0,60ba2011cd8052508d401296,familiarity,23,dTAh,KABA,0,0,True,2451.0
0,60ba2011cd8052508d401296,familiarity,24,OBT,EAO,0,1,False,1011.0
0,60ba2011cd8052508d401296,familiarity,25,TmTm,GAcY,0,1,False,1215.0
0,60ba2011cd8052508d401296,familiarity,26,KmE,PTl,0,1,False,1350.0
0,60ba2011cd8052508d401296,familiarity,27,JmvmO,cuOJb,1,0,False,2430.0
0,60ba2011cd8052508d401296,familiarity,28,dvNvA,dMYBP,1,0,False,1.0
0,60ba2011cd8052508d401296,familiarity,29,kam,UbG,0,0,True,2833.0
0,60ba2011cd8052508d401296,familiarity,30,lRckA,rGUAY,1,0,False,1573.0
0,5ee7b7c9eef92207297a0ad4,familiarity,1,bYGOZ,chEDO,0,0,True,3013.0
0,5ee7b7c9eef92207297a0ad4,familiarity,2,DcPTc,tKDmh,0,0,True,1930.0
0,5ee7b7c9eef92207297a0ad4,familiarity,3,bRC,tcB,1,0,False,1855.0
0,5ee7b7c9eef92207297a0ad4,familiarity,4,tmtEM,LOLkU,0,0,True,1151.0
0,5ee7b7c9eef92207297a0ad4,familiarity,5,uvJ,Nac,0,0,True,1691.0
0,5ee7b7c9eef92207297a0ad4,familiarity,6,vAvb,crdY,1,1,True,1219.0
0,5ee7b7c9eef92207297a0ad4,familiarity,7,Ddck,NkUA,0,1,False,2615.0
0,5ee7b7c9eef92207297a0ad4,familiarity,8,BbM,lRE,1,0,False,1237.0
0,5ee7b7c9eef92207297a0ad4,familiarity,9,vYLU,EKBO,0,0,True,902.0
0,5ee7b7c9eef92207297a0ad4,familiarity,10,DBlh,OcZJ,1,0,False,1875.0
0,5ee7b7c9eef92207297a0ad4,familiarity,11,uda,YBO,1,1,True,1289.0
0,5ee7b7c9eef92207297a0ad4,familiarity,12,tRb,YNu,1,1,True,1384.0
0,5ee7b7c9eef92207297a0ad4,familiarity,13,QbkAc,DBPhc,1,1,True,1488.0
0,5ee7b7c9eef92207297a0ad4,familiarity,14,AlQaQ,RkmdC,1,0,False,1733.0
0,5ee7b7c9eef92207297a0ad4,familiarity,15,kCRm,rAJu,0,0,True,1258.0
0,5ee7b7c9eef92207297a0ad4,familiarity,16,ALGZ,cMRl,0,0,True,1717.0
0,5ee7b7c9eef92207297a0ad4,familiarity,17,YQbc,rLaZ,0,0,True,1373.0
0,5ee7b7c9eef92207297a0ad4,familiarity,18,bcbM,kNua,1,1,True,1360.0
0,5ee7b7c9eef92207297a0ad4,familiarity,19,lGc,rAm,1,1,True,1546.0
0,5ee7b7c9eef92207297a0ad4,familiarity,20,kbmZO,cRElD,1,1,True,1174.0
0,5ee7b7c9eef92207297a0ad4,familiarity,21,BATOc,hAROK,1,1,True,1607.0
0,5ee7b7c9eef92207297a0ad4,familiarity,22,Glu,JQA,0,1,False,1668.0
0,5ee7b7c9eef92207297a0ad4,familiarity,23,BKDRY,cdKBY,1,0,False,1375.0
0,5ee7b7c9eef92207297a0ad4,familiarity,24,TEBK,tdDd,0,1,False,1090.0
0,5ee7b7c9eef92207297a0ad4,familiarity,25,OtM,mvG,0,0,True,1272.0
0,5ee7b7c9eef92207297a0ad4,familiarity,26,lkAk,YTOM,1,1,True,1380.0
0,5ee7b7c9eef92207297a0ad4,familiarity,27,AlKD,DlDd,0,1,False,1595.0
0,5ee7b7c9eef92207297a0ad4,familiarity,28,JdOAY,dOYml,0,1,False,1246.0
0,5ee7b7c9eef92207297a0ad4,familiarity,29,DkTCP,LAclA,1,0,False,1305.0
0,5ee7b7c9eef92207297a0ad4,familiarity,30,YJLcA,adYrc,1,1,True,1301.0
0,5f4cc4ea00dba58ecd5a98a4,familiarity,1,ubALm,Cchtd,0,1,False,2615.0
0,5f4cc4ea00dba58ecd5a98a4,familiarity,2,YaOk,vJab,1,0,False,2248.0
0,5f4cc4ea00dba58ecd5a98a4,familiarity,3,tRPD,RdCc,1,1,True,1592.0
0,5f4cc4ea00dba58ecd5a98a4,familiarity,4,vAar,rvAJ,0,1,False,2152.0
0,5f4cc4ea00dba58ecd5a98a4,familiarity,5,DBkl,OEPk,1,1,True,1975.0
0,5f4cc4ea00dba58ecd5a98a4,familiarity,6,EYtYR,kRCkO,0,0,True,1280.0
0,5f4cc4ea00dba58ecd5a98a4,familiarity,7,LQur,JvaA,0,0,True,2320.0
0,5f4cc4ea00dba58ecd5a98a4,familiarity,8,bAMO,BYhT,1,1,True,1928.0
0,5f4cc4ea00dba58ecd5a98a4,familiarity,9,mBbK,YbBT,0,1,False,1832.0
0,5f4cc4ea00dba58ecd5a98a4,familiarity,10,UaZma,ODBDA,0,0,True,2200.0
0,5f4cc4ea00dba58ecd5a98a4,familiarity,11,OmtlD,UAcdu,1,1,True,2128.0
0,5f4cc4ea00dba58ecd5a98a4,familiarity,12,JZr,cbm,0,0,True,1671.0
0,5f4cc4ea00dba58ecd5a98a4,familiarity,13,YJkb,UrOQ,1,0,False,2465.0
0,5f4cc4ea00dba58ecd5a98a4,familiarity,14,uvJ,Tbk,1,1,True,2072.0
0,5f4cc4ea00dba58ecd5a98a4,familiarity,15,Cdt,uda,1,1,True,1848.0
0,5f4cc4ea00dba58ecd5a98a4,familiarity,16,JcL,ark,0,0,True,1528.0
0,5f4cc4ea00dba58ecd5a98a4,familiarity,17,Udumd,thbOM,0,0,True,2016.0
0,5f4cc4ea00dba58ecd5a98a4,familiarity,18,amJm,GQYQ,1,1,True,2040.0
0,5f4cc4ea00dba58ecd5a98a4,familiarity,19,OMC,Arv,0,0,True,1448.0
0,5f4cc4ea00dba58ecd5a98a4,familiarity,20,hlkT,mtKP,1,1,True,2096.0
0,5f4cc4ea00dba58ecd5a98a4,familiarity,21,EMYK,kGlU,0,0,True,2104.0
0,5f4cc4ea00dba58ecd5a98a4,familiarity,22,bTE,JUG,0,0,True,2256.0
0,5f4cc4ea00dba58ecd5a98a4,familiarity,23,ZdlO,chAh,1,1,True,1688.0
0,5f4cc4ea00dba58ecd5a98a4,familiarity,24,uOAO,GUOA,1,1,True,2392.0
0,5f4cc4ea00dba58ecd5a98a4,familiarity,25,YOaAb,ckLAL,1,0,False,2520.0
0,5f4cc4ea00dba58ecd5a98a4,familiarity,26,dYdA,AZbl,0,1,False,2464.0
0,5f4cc4ea00dba58ecd5a98a4,familiarity,27,ECtbD,CkBOP,1,1,True,1856.0
0,5f4cc4ea00dba58ecd5a98a4,familiarity,28,OdYP,RhPm,0,0,True,1800.0
0,5f4cc4ea00dba58ecd5a98a4,familiarity,29,dkLl,Grbk,1,1,True,2463.0
0,5f4cc4ea00dba58ecd5a98a4,familiarity,30,EPBT,AdYl,1,1,True,1992.0
0,5fb7b8880045d6396a86c803,familiarity,1,YLQmG,KBKBE,1,1,True,2287.0
0,5fb7b8880045d6396a86c803,familiarity,2,lCbcm,cdKBY,0,1,False,1425.0
0,5fb7b8880045d6396a86c803,familiarity,3,TPCb,dmRb,0,0,True,1050.0
0,5fb7b8880045d6396a86c803,familiarity,4,vAar,DlDd,0,0,True,1118.0
0,5fb7b8880045d6396a86c803,familiarity,5,uQkrd,YNrAm,0,1,False,1174.0
0,5fb7b8880045d6396a86c803,familiarity,6,tcYbd,vkYGl,0,1,False,1072.0
0,5fb7b8880045d6396a86c803,familiarity,7,COTK,YDTk,0,0,True,1256.0
0,5fb7b8880045d6396a86c803,familiarity,8,CMdP,BbOD,0,1,False,1028.0
0,5fb7b8880045d6396a86c803,familiarity,9,OcYM,lBlE,1,1,True,1054.0
0,5fb7b8880045d6396a86c803,familiarity,10,BCD,Dmh,0,1,False,1501.0
0,5fb7b8880045d6396a86c803,familiarity,11,YcdO,mcOJ,1,0,False,1141.0
0,5fb7b8880045d6396a86c803,familiarity,12,NUZ,mCd,0,0,True,1298.0
0,5fb7b8880045d6396a86c803,familiarity,13,QONk,ktBd,1,1,True,1188.0
0,5fb7b8880045d6396a86c803,familiarity,14,OtlR,APEM,1,1,True,1172.0
0,5fb7b8880045d6396a86c803,familiarity,15,JmvmO,YuaNd,1,0,False,1170.0
0,5fb7b8880045d6396a86c803,familiarity,16,Qru,uZc,1,1,True,1234.0
0,5fb7b8880045d6396a86c803,familiarity,17,DKP,YbN,0,1,False,1454.0
0,5fb7b8880045d6396a86c803,familiarity,18,cbm,YBO,1,0,False,1266.0
0,5fb7b8880045d6396a86c803,familiarity,19,Cdt,Akd,1,1,True,1402.0
0,5fb7b8880045d6396a86c803,familiarity,20,EYtYR,htmhC,1,1,True,1362.0
0,5fb7b8880045d6396a86c803,familiarity,21,lAOKM,Udumd,1,0,False,1123.0
0,5fb7b8880045d6396a86c803,familiarity,22,UAcdu,QbkAc,0,1,False,1336.0
0,5fb7b8880045d6396a86c803,familiarity,23,YJLcA,kDRKc,0,1,False,1442.0
0,5fb7b8880045d6396a86c803,familiarity,24,APT,Ymb,0,1,False,1424.0
0,5fb7b8880045d6396a86c803,familiarity,25,vuJZu,kGamN,0,0,True,1094.0
0,5fb7b8880045d6396a86c803,familiarity,26,vAvb,LQur,0,0,True,1160.0
0,5fb7b8880045d6396a86c803,familiarity,27,YJkb,ctkt,0,1,False,1119.0
0,5fb7b8880045d6396a86c803,familiarity,28,ldAa,ACcO,0,0,True,1137.0
0,5fb7b8880045d6396a86c803,familiarity,29,KMOc,AMkC,1,1,True,1182.0
0,5fb7b8880045d6396a86c803,familiarity,30,DCmh,rLkm,0,0,True,1260.0
0,615c43b800752a4f3d0fd1f0,familiarity,1,Akd,OYK,0,1,False,2936.0
0,615c43b800752a4f3d0fd1f0,familiarity,2,ZkGmY,vkYGl,0,1,False,4945.0
0,615c43b800752a4f3d0fd1f0,familiarity,3,kdaAJ,EtMDM,1,1,True,2185.0
0,615c43b800752a4f3d0fd1f0,familiarity,4,TCbDC,dMThk,1,1,True,967.0
0,615c43b800752a4f3d0fd1f0,familiarity,5,dmZvm,CRdBd,0,0,True,1071.0
0,615c43b800752a4f3d0fd1f0,familiarity,6,rAm,Glu,1,0,False,1111.0
0,615c43b800752a4f3d0fd1f0,familiarity,7,badk,tmYh,0,1,False,1137.0
0,615c43b800752a4f3d0fd1f0,familiarity,8,tDPRk,mLdkZ,1,1,True,1712.0
0,615c43b800752a4f3d0fd1f0,familiarity,9,cMRl,Yadr,0,1,False,1184.0
0,615c43b800752a4f3d0fd1f0,familiarity,10,kcCRt,Qclad,1,0,False,945.0
0,615c43b800752a4f3d0fd1f0,familiarity,11,kLvdN,DOBhY,1,1,True,1074.0
0,615c43b800752a4f3d0fd1f0,familiarity,12,RtRh,GQrc,1,1,True,1115.0
0,615c43b800752a4f3d0fd1f0,familiarity,13,kGua,bGuO,0,0,True,1348.0
0,615c43b800752a4f3d0fd1f0,familiarity,14,ATc,BCD,1,0,False,71.0
0,615c43b800752a4f3d0fd1f0,familiarity,15,uZc,cbm,1,0,False,1328.0
0,615c43b800752a4f3d0fd1f0,familiarity,16,NvYJ,Nulk,1,1,True,932.0
0,615c43b800752a4f3d0fd1f0,familiarity,17,mbZl,UdvY,1,0,False,1179.0
0,615c43b800752a4f3d0fd1f0,familiarity,18,Tmc,dRA,1,1,True,829.0
0,615c43b800752a4f3d0fd1f0,familiarity,19,tdDd,YlYc,0,1,False,833.0
0,615c43b800752a4f3d0fd1f0,familiarity,20,blMk,ktBd,1,0,False,918.0
0,615c43b800752a4f3d0fd1f0,familiarity,21,YmBd,QvlZ,1,1,True,558.0
0,615c43b800752a4f3d0fd1f0,familiarity,22,dRht,OJNk,0,1,False,888.0
0,615c43b800752a4f3d0fd1f0,familiarity,23,hlctE,YLQmG,0,1,False,876.0
0,615c43b800752a4f3d0fd1f0,familiarity,24,PDPhl,damYb,1,0,False,786.0
0,615c43b800752a4f3d0fd1f0,familiarity,25,mcOJ,Abka,1,0,False,1006.0
0,615c43b800752a4f3d0fd1f0,familiarity,26,OAblc,Cchtd,0,0,True,1104.0
0,615c43b800752a4f3d0fd1f0,familiarity,27,DbMR,Ckbd,0,1,False,990.0
0,615c43b800752a4f3d0fd1f0,familiarity,28,kNua,muYN,1,1,True,1054.0
0,615c43b800752a4f3d0fd1f0,familiarity,29,mkmJN,LcNUJ,0,0,True,953.0
0,615c43b800752a4f3d0fd1f0,familiarity,30,rkra,cYUv,0,1,False,873.0
0,5feb64b3341f42bb63200e36,familiarity,1,kKRC,crdY,0,1,False,1391.0
0,5feb64b3341f42bb63200e36,familiarity,2,mCd,mZb,1,1,True,1255.0
0,5feb64b3341f42bb63200e36,familiarity,3,GLYrA,aOLZU,0,0,True,3104.0
0,5feb64b3341f42bb63200e36,familiarity,4,mLdkZ,ZcGdN,0,0,True,2688.0
0,5feb64b3341f42bb63200e36,familiarity,5,MhKd,bdtK,1,1,True,1968.0
0,5feb64b3341f42bb63200e36,familiarity,6,EYtYR,DRPkY,1,1,True,1439.0
0,5feb64b3341f42bb63200e36,familiarity,7,ldAa,LdQv,1,1,True,2088.0
0,5feb64b3341f42bb63200e36,familiarity,8,DOBhY,cuOJb,0,1,False,1704.0
0,5feb64b3341f42bb63200e36,familiarity,9,tAY,OPE,0,0,True,1248.0
0,5feb64b3341f42bb63200e36,familiarity,10,Tbk,OMC,0,0,True,1552.0
0,5feb64b3341f42bb63200e36,familiarity,11,lhCTC,LcNUJ,1,1,True,1551.0
0,5feb64b3341f42bb63200e36,familiarity,12,CYPc,DMRP,1,1,True,1304.0
0,5feb64b3341f42bb63200e36,familiarity,13,Qru,OtM,0,0,True,1096.0
0,5feb64b3341f42bb63200e36,familiarity,14,dMYBP,UdYUQ,1,0,False,1119.0
0,5feb64b3341f42bb63200e36,familiarity,15,kGua,EhRm,0,0,True,1552.0
0,5feb64b3341f42bb63200e36,familiarity,16,NJZl,krUQ,0,1,False,1408.0
0,5feb64b3341f42bb63200e36,familiarity,17,mhc,dPc,0,0,True,1719.0
0,5feb64b3341f42bb63200e36,familiarity,18,lRCB,BPAl,0,0,True,2024.0
0,5feb64b3341f42bb63200e36,familiarity,19,BECk,Udbd,0,1,False,1216.0
0,5feb64b3341f42bb63200e36,familiarity,20,YZUZ,ukbY,0,1,False,815.0
0,5feb64b3341f42bb63200e36,familiarity,21,kNua,blMk,0,0,True,1016.0
0,5feb64b3341f42bb63200e36,familiarity,22,uQuZc,YLQmG,1,0,False,472.0
0,5feb64b3341f42bb63200e36,familiarity,23,GJGcZ,BMEMA,0,0,True,776.0
0,5feb64b3341f42bb63200e36,familiarity,24,YbN,KmE,1,0,False,879.0
0,5feb64b3341f42bb63200e36,familiarity,25,vYLU,TklD,1,1,True,848.0
0,5feb64b3341f42bb63200e36,familiarity,26,kbmZO,EltMB,1,1,True,688.0
0,5feb64b3341f42bb63200e36,familiarity,27,uda,kam,1,0,False,352.0
0,5feb64b3341f42bb63200e36,familiarity,28,JmvmO,JdOAY,0,0,True,407.0
0,5feb64b3341f42bb63200e36,familiarity,29,TCbDC,kcdOt,0,0,True,480.0
0,5feb64b3341f42bb63200e36,familiarity,30,TPOM,rLaZ,1,1,True,448.0
0,60c9c6e1728092717b93abde,familiarity,1,mdkK,Yaum,0,0,True,678.0
0,60c9c6e1728092717b93abde,familiarity,2,kKE,TRK,1,1,True,250.0
0,60c9c6e1728092717b93abde,familiarity,3,JcL,YbN,1,0,False,361.0
0,60c9c6e1728092717b93abde,familiarity,4,ukcY,vAvb,0,0,True,150.0
0,60c9c6e1728092717b93abde,familiarity,5,RCcE,tRPD,1,1,True,124.0
0,60c9c6e1728092717b93abde,familiarity,6,LvuOG,EltMB,0,1,False,236.0
0,60c9c6e1728092717b93abde,familiarity,7,YQbc,lZcu,0,0,True,138.0
0,60c9c6e1728092717b93abde,familiarity,8,CPMl,bmbN,0,1,False,271.0
0,60c9c6e1728092717b93abde,familiarity,9,PCPDh,ZkGmY,1,0,False,407.0
0,60c9c6e1728092717b93abde,familiarity,10,OLJbl,dRbDb,1,1,True,254.0
0,60c9c6e1728092717b93abde,familiarity,11,LkNc,GZJY,1,1,True,192.0
0,60c9c6e1728092717b93abde,familiarity,12,adYrc,ZdNmU,0,0,True,262.0
0,60c9c6e1728092717b93abde,familiarity,13,TklD,bGuO,1,0,False,120.0
0,60c9c6e1728092717b93abde,familiarity,14,kmU,LcO,0,1,False,279.0
0,60c9c6e1728092717b93abde,familiarity,15,vmuLl,dClOC,0,0,True,245.0
0,60c9c6e1728092717b93abde,familiarity,16,dmkv,TmTm,0,1,False,156.0
0,60c9c6e1728092717b93abde,familiarity,17,TPOM,UvOG,0,0,True,117.0
0,60c9c6e1728092717b93abde,familiarity,18,Juaml,kcdOt,0,1,False,124.0
0,60c9c6e1728092717b93abde,familiarity,19,PEdK,NmAG,1,0,False,272.0
0,60c9c6e1728092717b93abde,familiarity,20,Zckv,OCmk,0,0,True,126.0
0,60c9c6e1728092717b93abde,familiarity,21,bdUNu,bNdmG,0,1,False,333.0
0,60c9c6e1728092717b93abde,familiarity,22,rvOvU,Qclad,0,1,False,161.0
0,60c9c6e1728092717b93abde,familiarity,23,KMDYt,BOCRM,1,1,True,194.0
0,60c9c6e1728092717b93abde,familiarity,24,thbOM,dMThk,1,0,False,290.0
0,60c9c6e1728092717b93abde,familiarity,25,lrZG,hCkt,1,1,True,197.0
0,60c9c6e1728092717b93abde,familiarity,26,BPAl,muYN,1,0,False,145.0
0,60c9c6e1728092717b93abde,familiarity,27,mBmlA,mUOcO,1,1,True,113.0
0,60c9c6e1728092717b93abde,familiarity,28,dCKc,JauQ,1,0,False,121.0
0,60c9c6e1728092717b93abde,familiarity,29,PEtE,YTOM,1,1,True,67.0
0,60c9c6e1728092717b93abde,familiarity,30,kPkRA,ECtbD,1,0,False,110.0
0,5f3161410f87706425490ae1,familiarity,1,mvG,vcb,0,1,False,4797.0
0,5f3161410f87706425490ae1,familiarity,2,DBlh,PEdK,1,1,True,4645.0
0,5f3161410f87706425490ae1,familiarity,3,kcCRt,kGamN,1,0,False,3216.0
0,5f3161410f87706425490ae1,familiarity,4,AYkEh,MBKRE,1,0,False,3694.0
0,5f3161410f87706425490ae1,familiarity,5,mAM,OBT,1,0,False,1913.0
0,5f3161410f87706425490ae1,familiarity,6,NbmQU,EtMDM,1,1,True,1897.0
0,5f3161410f87706425490ae1,familiarity,7,bAMO,NkUA,1,0,False,1085.0
0,5f3161410f87706425490ae1,familiarity,8,kLvdN,EPMDk,0,0,True,1679.0
0,5f3161410f87706425490ae1,familiarity,9,vblr,ctkt,1,1,True,2711.0
0,5f3161410f87706425490ae1,familiarity,10,bLd,lvk,1,1,True,1865.0
0,5f3161410f87706425490ae1,familiarity,11,KTDTB,AZlLN,0,0,True,2821.0
0,5f3161410f87706425490ae1,familiarity,12,KBKBE,ckLAL,0,0,True,1941.0
0,5f3161410f87706425490ae1,familiarity,13,DhCP,LGkA,1,1,True,2762.0
0,5f3161410f87706425490ae1,familiarity,14,rvOvU,tKDmh,1,0,False,1061.0
0,5f3161410f87706425490ae1,familiarity,15,kJdr,KMOc,1,1,True,989.0
0,5f3161410f87706425490ae1,familiarity,16,aONd,NYZu,1,0,False,1348.0
0,5f3161410f87706425490ae1,familiarity,17,MDKP,YaOk,1,1,True,2194.0
0,5f3161410f87706425490ae1,familiarity,18,OdOP,YbBT,1,1,True,748.0
0,5f3161410f87706425490ae1,familiarity,19,KABA,AOUl,1,0,False,1267.0
0,5f3161410f87706425490ae1,familiarity,20,krUQ,vclY,1,0,False,451.0
0,5f3161410f87706425490ae1,familiarity,21,mkc,vJQ,0,1,False,760.0
0,5f3161410f87706425490ae1,familiarity,22,OQAr,Ddck,1,0,False,977.0
0,5f3161410f87706425490ae1,familiarity,23,DcPTc,kdEdY,1,0,False,2017.0
0,5f3161410f87706425490ae1,familiarity,24,GAcY,UaYL,0,0,True,2214.0
0,5f3161410f87706425490ae1,familiarity,25,dRA,mLJ,0,0,True,1954.0
0,5f3161410f87706425490ae1,familiarity,26,hbmA,kGlU,1,0,False,1225.0
0,5f3161410f87706425490ae1,familiarity,27,uQuZc,QcQAJ,1,1,True,1343.0
0,5f3161410f87706425490ae1,familiarity,28,kDOm,rLaZ,1,0,False,493.0
0,5f3161410f87706425490ae1,familiarity,29,vmuLl,NLQGm,0,1,False,436.0
0,5f3161410f87706425490ae1,familiarity,30,NvYJ,adkr,0,0,True,446.0
0,5cb4adc019ee7300189e8547,familiarity,1,kRCkO,laYmr,1,0,False,1936.0
0,5cb4adc019ee7300189e8547,familiarity,2,rab,EcR,1,1,True,1497.0
0,5cb4adc019ee7300189e8547,familiarity,3,bRC,PMd,1,1,True,1523.0
0,5cb4adc019ee7300189e8547,familiarity,4,kGua,PlEK,1,0,False,1211.0
0,5cb4adc019ee7300189e8547,familiarity,5,KElB,mKcD,0,0,True,715.0
0,5cb4adc019ee7300189e8547,familiarity,6,JdGm,YbBT,0,0,True,1275.0
0,5cb4adc019ee7300189e8547,familiarity,7,dvNvA,LNUrJ,1,1,True,1222.0
0,5cb4adc019ee7300189e8547,familiarity,8,lGZv,BbOD,1,1,True,1007.0
0,5cb4adc019ee7300189e8547,familiarity,9,ukYZ,BRDh,1,0,False,1065.0
0,5cb4adc019ee7300189e8547,familiarity,10,kPkRA,NbmQU,0,0,True,1142.0
0,5cb4adc019ee7300189e8547,familiarity,11,kCRm,OdYP,0,1,False,908.0
0,5cb4adc019ee7300189e8547,familiarity,12,dEPD,kuvb,1,1,True,1002.0
0,5cb4adc019ee7300189e8547,familiarity,13,LcNUJ,OdlNm,0,1,False,1056.0
0,5cb4adc019ee7300189e8547,familiarity,14,COtBD,GLYrA,0,0,True,1128.0
0,5cb4adc019ee7300189e8547,familiarity,15,Zvalv,KTDTB,1,1,True,829.0
0,5cb4adc019ee7300189e8547,familiarity,16,RDM,TAm,1,1,True,955.0
0,5cb4adc019ee7300189e8547,familiarity,17,TRkY,tdDd,1,0,False,955.0
0,5cb4adc019ee7300189e8547,familiarity,18,lBlE,kJdr,0,0,True,699.0
0,5cb4adc019ee7300189e8547,familiarity,19,mBmlA,ckduA,0,0,True,995.0
0,5cb4adc019ee7300189e8547,familiarity,20,kbu,aQr,0,1,False,1026.0
0,5cb4adc019ee7300189e8547,familiarity,21,kmU,kBD,0,0,True,780.0
0,5cb4adc019ee7300189e8547,familiarity,22,kcdOt,OQarQ,0,1,False,847.0
0,5cb4adc019ee7300189e8547,familiarity,23,lYrua,lKdbc,0,0,True,883.0
0,5cb4adc019ee7300189e8547,familiarity,24,YcdO,RCcE,0,0,True,683.0
0,5cb4adc019ee7300189e8547,familiarity,25,QONk,NJZl,1,1,True,887.0
0,5cb4adc019ee7300189e8547,familiarity,26,bmbN,MCkm,1,0,False,855.0
0,5cb4adc019ee7300189e8547,familiarity,27,OcYM,rvUb,0,0,True,688.0
0,5cb4adc019ee7300189e8547,familiarity,28,KEdl,EhRm,1,1,True,1275.0
0,5cb4adc019ee7300189e8547,familiarity,29,DhCP,mrOd,0,1,False,1017.0
0,5cb4adc019ee7300189e8547,familiarity,30,JrGv,bvkr,0,0,True,759.0
0,5cf14e1eb4397d0001f94e20,familiarity,1,mCd,tAY,1,1,True,2449.0
0,5cf14e1eb4397d0001f94e20,familiarity,2,Tbk,aQr,1,1,True,1063.0
0,5cf14e1eb4397d0001f94e20,familiarity,3,kJdr,YTOM,1,0,False,1071.0
0,5cf14e1eb4397d0001f94e20,familiarity,4,bNdmG,hAROK,0,1,False,962.0
0,5cf14e1eb4397d0001f94e20,familiarity,5,hkRK,JNka,1,0,False,1291.0
0,5cf14e1eb4397d0001f94e20,familiarity,6,lLG,TAm,1,0,False,1488.0
0,5cf14e1eb4397d0001f94e20,familiarity,7,TbKME,dGLAl,1,1,True,1508.0
0,5cf14e1eb4397d0001f94e20,familiarity,8,BEPO,rkra,0,0,True,1316.0
0,5cf14e1eb4397d0001f94e20,familiarity,9,DCmh,MKmY,1,1,True,1195.0
0,5cf14e1eb4397d0001f94e20,familiarity,10,hTtBb,NLQGm,0,0,True,1137.0
0,5cf14e1eb4397d0001f94e20,familiarity,11,uAkr,YZJO,1,0,False,1578.0
0,5cf14e1eb4397d0001f94e20,familiarity,12,UYZlZ,Blmcl,0,0,True,1585.0
0,5cf14e1eb4397d0001f94e20,familiarity,13,BATOc,tmtEM,0,1,False,1448.0
0,5cf14e1eb4397d0001f94e20,familiarity,14,ZcGdN,NAacQ,1,1,True,1985.0
0,5cf14e1eb4397d0001f94e20,familiarity,15,bYuQ,Zckv,1,1,True,1317.0
0,5cf14e1eb4397d0001f94e20,familiarity,16,CMdP,aONd,0,1,False,1202.0
0,5cf14e1eb4397d0001f94e20,familiarity,17,Ald,PED,0,1,False,1531.0
0,5cf14e1eb4397d0001f94e20,familiarity,18,YBO,dRA,1,0,False,1673.0
0,5cf14e1eb4397d0001f94e20,familiarity,19,vcb,bLd,1,1,True,1352.0
0,5cf14e1eb4397d0001f94e20,familiarity,20,rGUAY,AZaJc,0,0,True,1259.0
0,5cf14e1eb4397d0001f94e20,familiarity,21,adYrc,hmKPM,0,1,False,1268.0
0,5cf14e1eb4397d0001f94e20,familiarity,22,lrZG,badk,1,0,False,1046.0
0,5cf14e1eb4397d0001f94e20,familiarity,23,Dmh,Jud,0,0,True,1740.0
0,5cf14e1eb4397d0001f94e20,familiarity,24,UvOG,NaJb,1,1,True,1523.0
0,5cf14e1eb4397d0001f94e20,familiarity,25,uOAO,bAdk,1,1,True,1636.0
0,5cf14e1eb4397d0001f94e20,familiarity,26,MhKd,BYhT,0,0,True,2476.0
0,5cf14e1eb4397d0001f94e20,familiarity,27,aNYmb,EltMB,0,1,False,1460.0
0,5cf14e1eb4397d0001f94e20,familiarity,28,OEPk,YJkb,1,0,False,1245.0
0,5cf14e1eb4397d0001f94e20,familiarity,29,thbOM,Udumd,1,0,False,1159.0
0,5cf14e1eb4397d0001f94e20,familiarity,30,YObA,OJGQ,0,0,True,1022.0
0,5caca6b4a9acb200011a6547,familiarity,1,bNdmG,mBmlA,0,0,True,1663.0
0,5caca6b4a9acb200011a6547,familiarity,2,YcdO,bdtK,0,1,False,1333.0
0,5caca6b4a9acb200011a6547,familiarity,3,lbBDE,RlAKc,1,1,True,1153.0
0,5caca6b4a9acb200011a6547,familiarity,4,aYQm,hbkd,0,0,True,1390.0
0,5caca6b4a9acb200011a6547,familiarity,5,cAZu,kZUb,1,1,True,934.0
0,5caca6b4a9acb200011a6547,familiarity,6,OmtlD,BMEMA,1,1,True,999.0
0,5caca6b4a9acb200011a6547,familiarity,7,OkGY,KDPA,1,1,True,1259.0
0,5caca6b4a9acb200011a6547,familiarity,8,hBK,cUN,1,0,False,1328.0
0,5caca6b4a9acb200011a6547,familiarity,9,EYtYR,GNAca,1,1,True,1591.0
0,5caca6b4a9acb200011a6547,familiarity,10,OYK,QGb,1,1,True,1326.0
0,5caca6b4a9acb200011a6547,familiarity,11,NYZu,RKYk,1,1,True,1260.0
0,5caca6b4a9acb200011a6547,familiarity,12,kam,dUr,0,1,False,1428.0
0,5caca6b4a9acb200011a6547,familiarity,13,MKmY,OdOP,0,1,False,1216.0
0,5caca6b4a9acb200011a6547,familiarity,14,lGc,KmE,0,0,True,900.0
0,5caca6b4a9acb200011a6547,familiarity,15,UvOG,QvlZ,0,0,True,1257.0
0,5caca6b4a9acb200011a6547,familiarity,16,kMbTR,lAOKM,0,1,False,1232.0
0,5caca6b4a9acb200011a6547,familiarity,17,Qclad,hBmMC,1,1,True,1268.0
0,5caca6b4a9acb200011a6547,familiarity,18,kmU,Jud,0,0,True,1017.0
0,5caca6b4a9acb200011a6547,familiarity,19,PMYm,rkJu,1,1,True,1202.0
0,5caca6b4a9acb200011a6547,familiarity,20,MhKd,Ddck,0,1,False,1654.0
0,5caca6b4a9acb200011a6547,familiarity,21,Cchtd,dTmED,1,0,False,1262.0
0,5caca6b4a9acb200011a6547,familiarity,22,lGZv,TklD,0,0,True,728.0
0,5caca6b4a9acb200011a6547,familiarity,23,PcBT,Udbd,1,1,True,1044.0
0,5caca6b4a9acb200011a6547,familiarity,24,AmQOY,tcYbd,1,1,True,1622.0
0,5caca6b4a9acb200011a6547,familiarity,25,ZAUu,PdDT,1,0,False,1188.0
0,5caca6b4a9acb200011a6547,familiarity,26,UrOQ,hChY,1,1,True,1163.0
0,5caca6b4a9acb200011a6547,familiarity,27,ctkt,mcOJ,1,1,True,1608.0
0,5caca6b4a9acb200011a6547,familiarity,28,TEBK,ldAa,1,1,True,1201.0
0,5caca6b4a9acb200011a6547,familiarity,29,tmAK,bAdk,0,1,False,948.0
0,5caca6b4a9acb200011a6547,familiarity,30,CmYA,CPMl,0,1,False,1882.0
0,5e823b35726b2a9508db127c,familiarity,1,tmtEM,ckduA,1,1,True,1456.0
0,5e823b35726b2a9508db127c,familiarity,2,KTDTB,ckLAL,1,0,False,1422.0
0,5e823b35726b2a9508db127c,familiarity,3,crdY,Abka,0,0,True,1590.0
0,5e823b35726b2a9508db127c,familiarity,4,NJZl,tmAK,1,1,True,1702.0
0,5e823b35726b2a9508db127c,familiarity,5,krGu,TklD,0,0,True,1460.0
0,5e823b35726b2a9508db127c,familiarity,6,kGlU,ZdlO,0,1,False,1411.0
0,5e823b35726b2a9508db127c,familiarity,7,EdBb,hRKm,1,1,True,1590.0
0,5e823b35726b2a9508db127c,familiarity,8,kDOm,rkra,1,0,False,1308.0
0,5e823b35726b2a9508db127c,familiarity,9,YcM,dUr,0,1,False,1560.0
0,5e823b35726b2a9508db127c,familiarity,10,LOLkU,OLJbl,1,0,False,1486.0
0,5e823b35726b2a9508db127c,familiarity,11,mkmJN,ZNLOv,1,0,False,1528.0
0,5e823b35726b2a9508db127c,familiarity,12,kam,MAB,1,1,True,1237.0
0,5e823b35726b2a9508db127c,familiarity,13,YBO,dPc,1,0,False,1809.0
0,5e823b35726b2a9508db127c,familiarity,14,kmU,tRb,0,0,True,1113.0
0,5e823b35726b2a9508db127c,familiarity,15,RtRh,dEPD,1,0,False,1113.0
0,5e823b35726b2a9508db127c,familiarity,16,kPOt,ArQu,0,0,True,1261.0
0,5e823b35726b2a9508db127c,familiarity,17,ZYcQU,RYtkc,0,1,False,1231.0
0,5e823b35726b2a9508db127c,familiarity,18,khmh,Grub,0,1,False,1812.0
0,5e823b35726b2a9508db127c,familiarity,19,CPMl,ctkt,1,1,True,1538.0
0,5e823b35726b2a9508db127c,familiarity,20,kabJb,DBPhc,1,0,False,850.0
0,5e823b35726b2a9508db127c,familiarity,21,kRCkO,PctRC,1,0,False,1263.0
0,5e823b35726b2a9508db127c,familiarity,22,JcUk,LuNZ,0,1,False,1059.0
0,5e823b35726b2a9508db127c,familiarity,23,ECtbD,UaZma,0,0,True,835.0
0,5e823b35726b2a9508db127c,familiarity,24,ZkGmY,mBmlA,1,0,False,1012.0
0,5e823b35726b2a9508db127c,familiarity,25,CMdP,dCKc,1,0,False,1436.0
0,5e823b35726b2a9508db127c,familiarity,26,vQdO,BbOD,1,0,False,1104.0
0,5e823b35726b2a9508db127c,familiarity,27,dTmED,dMThk,0,1,False,1349.0
0,5e823b35726b2a9508db127c,familiarity,28,dOYml,OmtlD,0,0,True,1075.0
0,5e823b35726b2a9508db127c,familiarity,29,kJdr,Yaum,0,0,True,943.0
0,5e823b35726b2a9508db127c,familiarity,30,LckGN,mUOcO,0,0,True,835.0
0,61158a5c1d8390415ff117a8,familiarity,1,PDPhl,NaAQd,1,1,True,939.0
0,61158a5c1d8390415ff117a8,familiarity,2,vblr,dEPD,1,0,False,1849.0
0,61158a5c1d8390415ff117a8,familiarity,3,EMYK,UmNJ,1,0,False,2080.0
0,61158a5c1d8390415ff117a8,familiarity,4,YJLcA,LvuOG,0,0,True,1191.0
0,61158a5c1d8390415ff117a8,familiarity,5,cUN,Dmh,0,1,False,1216.0
0,61158a5c1d8390415ff117a8,familiarity,6,dOYml,tKDmh,1,1,True,1312.0
0,61158a5c1d8390415ff117a8,familiarity,7,uvJ,Akd,0,0,True,1817.0
0,61158a5c1d8390415ff117a8,familiarity,8,hYDmt,PCMPK,1,1,True,1299.0
0,61158a5c1d8390415ff117a8,familiarity,9,badk,LGkA,0,0,True,1353.0
0,61158a5c1d8390415ff117a8,familiarity,10,dTAh,UrOQ,0,0,True,1392.0
0,61158a5c1d8390415ff117a8,familiarity,11,EYtYR,OQarQ,1,1,True,832.0
0,61158a5c1d8390415ff117a8,familiarity,12,AlQaQ,Blmcl,1,1,True,1176.0
0,61158a5c1d8390415ff117a8,familiarity,13,udkm,MTdY,0,0,True,1417.0
0,61158a5c1d8390415ff117a8,familiarity,14,hEct,OJlN,0,0,True,1241.0
0,61158a5c1d8390415ff117a8,familiarity,15,ObZbA,GLluA,1,1,True,1114.0
0,61158a5c1d8390415ff117a8,familiarity,16,ukYZ,kulZ,0,0,True,1330.0
0,61158a5c1d8390415ff117a8,familiarity,17,KdAR,Grub,0,0,True,1412.0
0,61158a5c1d8390415ff117a8,familiarity,18,amJm,CmYA,1,1,True,4177.0
0,61158a5c1d8390415ff117a8,familiarity,19,uQkrd,CkBOP,1,1,True,971.0
0,61158a5c1d8390415ff117a8,familiarity,20,dNZA,OcYM,0,1,False,1356.0
0,61158a5c1d8390415ff117a8,familiarity,21,mhc,dRA,1,1,True,1610.0
0,61158a5c1d8390415ff117a8,familiarity,22,LcO,UbG,0,1,False,2347.0
0,61158a5c1d8390415ff117a8,familiarity,23,Ymb,EAO,1,0,False,1213.0
0,61158a5c1d8390415ff117a8,familiarity,24,BECk,RhPm,1,0,False,1429.0
0,61158a5c1d8390415ff117a8,familiarity,25,OBT,lRE,1,1,True,1010.0
0,61158a5c1d8390415ff117a8,familiarity,26,lBlE,CmcO,1,1,True,870.0
0,61158a5c1d8390415ff117a8,familiarity,27,LuNZ,Zckv,1,0,False,1996.0
0,61158a5c1d8390415ff117a8,familiarity,28,OtM,Qru,1,1,True,1863.0
0,61158a5c1d8390415ff117a8,familiarity,29,btlck,htmhC,0,1,False,825.0
0,61158a5c1d8390415ff117a8,familiarity,30,lRCB,GQYQ,1,0,False,777.0
0,5ed54d02957bee0c0de36cac,familiarity,1,BECk,mbZl,0,0,True,1946.0
0,5ed54d02957bee0c0de36cac,familiarity,2,bGuO,hCkt,1,1,True,1758.0
0,5ed54d02957bee0c0de36cac,familiarity,3,kKRC,KdAR,1,1,True,1708.0
0,5ed54d02957bee0c0de36cac,familiarity,4,bAMO,UJmr,1,0,False,2050.0
0,5ed54d02957bee0c0de36cac,familiarity,5,PYkC,Ehbt,0,0,True,1846.0
0,5ed54d02957bee0c0de36cac,familiarity,6,bvkr,LuNZ,1,1,True,1941.0
0,5ed54d02957bee0c0de36cac,familiarity,7,KRARm,AZaJc,0,0,True,1469.0
0,5ed54d02957bee0c0de36cac,familiarity,8,krUQ,Ckbd,1,0,False,1897.0
0,5ed54d02957bee0c0de36cac,familiarity,9,KlkD,EKBO,0,1,False,1643.0
0,5ed54d02957bee0c0de36cac,familiarity,10,htmhC,QOLmu,0,0,True,2138.0
0,5ed54d02957bee0c0de36cac,familiarity,11,uZc,Ymb,0,1,False,1524.0
0,5ed54d02957bee0c0de36cac,familiarity,12,Udbd,tdDd,1,1,True,1431.0
0,5ed54d02957bee0c0de36cac,familiarity,13,ZdNmU,ZNLOv,1,0,False,1463.0
0,5ed54d02957bee0c0de36cac,familiarity,14,PEtE,RKYk,1,1,True,1796.0
0,5ed54d02957bee0c0de36cac,familiarity,15,OYuvb,GJGcZ,1,1,True,1538.0
0,5ed54d02957bee0c0de36cac,familiarity,16,hTDd,dYdA,1,1,True,1650.0
0,5ed54d02957bee0c0de36cac,familiarity,17,ECtbD,kRCkO,0,1,False,1833.0
0,5ed54d02957bee0c0de36cac,familiarity,18,ObOQl,JZOAk,1,0,False,1530.0
0,5ed54d02957bee0c0de36cac,familiarity,19,ZJLmr,hlctE,1,0,False,1958.0
0,5ed54d02957bee0c0de36cac,familiarity,20,vUdm,kdrO,0,1,False,1651.0
0,5ed54d02957bee0c0de36cac,familiarity,21,ukbY,dTAh,0,1,False,1570.0
0,5ed54d02957bee0c0de36cac,familiarity,22,OAmAd,dClOC,1,1,True,1414.0
0,5ed54d02957bee0c0de36cac,familiarity,23,YQbc,YaOk,0,1,False,1659.0
0,5ed54d02957bee0c0de36cac,familiarity,24,bAdk,bcOR,1,0,False,1885.0
0,5ed54d02957bee0c0de36cac,familiarity,25,cDR,YcM,0,1,False,1531.0
0,5ed54d02957bee0c0de36cac,familiarity,26,uvJ,cPK,1,0,False,1318.0
0,5ed54d02957bee0c0de36cac,familiarity,27,GZJY,BCAd,1,1,True,1377.0
0,5ed54d02957bee0c0de36cac,familiarity,28,TmTm,bmbN,1,0,False,1523.0
0,5ed54d02957bee0c0de36cac,familiarity,29,ark,lGc,0,0,True,1724.0
0,5ed54d02957bee0c0de36cac,familiarity,30,APT,mhc,1,0,False,1811.0
0,5e8783b0fde5153fbd9dca43,familiarity,1,COtBD,LNUrJ,0,0,True,3700.0
0,5e8783b0fde5153fbd9dca43,familiarity,2,YLQmG,ALOrl,0,0,True,4590.0
0,5e8783b0fde5153fbd9dca43,familiarity,3,KBKBE,kcCRt,1,0,False,3747.0
0,5e8783b0fde5153fbd9dca43,familiarity,4,dKRD,hEct,0,1,False,2056.0
0,5e8783b0fde5153fbd9dca43,familiarity,5,mKcD,KDPA,0,0,True,3241.0
0,5e8783b0fde5153fbd9dca43,familiarity,6,blMk,krUQ,1,0,False,3961.0
0,5e8783b0fde5153fbd9dca43,familiarity,7,hAROK,ZJLmr,0,0,True,2410.0
0,5e8783b0fde5153fbd9dca43,familiarity,8,ATc,cUN,0,1,False,2111.0
0,5e8783b0fde5153fbd9dca43,familiarity,9,kMbTR,ckLAL,1,1,True,3904.0
0,5e8783b0fde5153fbd9dca43,familiarity,10,ZkGmY,rcmuv,0,0,True,3080.0
0,5e8783b0fde5153fbd9dca43,familiarity,11,ravu,kcOY,0,1,False,3675.0
0,5e8783b0fde5153fbd9dca43,familiarity,12,aONd,DBkl,0,1,False,3149.0
0,5e8783b0fde5153fbd9dca43,familiarity,13,OCmk,TPCb,0,0,True,3170.0
0,5e8783b0fde5153fbd9dca43,familiarity,14,vUdm,JrGv,0,0,True,1939.0
0,5e8783b0fde5153fbd9dca43,familiarity,15,MAB,bLd,0,1,False,3050.0
0,5e8783b0fde5153fbd9dca43,familiarity,16,uOAO,lZcu,1,1,True,2769.0
0,5e8783b0fde5153fbd9dca43,familiarity,17,uvJ,PTl,0,1,False,5767.0
0,5e8783b0fde5153fbd9dca43,familiarity,18,MTdY,YQbc,1,1,True,4057.0
0,5e8783b0fde5153fbd9dca43,familiarity,19,ukYZ,crdY,0,0,True,5257.0
0,5e8783b0fde5153fbd9dca43,familiarity,20,Qclad,LOLkU,1,0,False,2646.0
0,5e8783b0fde5153fbd9dca43,familiarity,21,CMdP,CPMl,1,0,False,5352.0
0,5e8783b0fde5153fbd9dca43,familiarity,22,TEBK,hbkd,1,1,True,2467.0
0,5e8783b0fde5153fbd9dca43,familiarity,23,ZYcQU,hTtBb,1,1,True,1534.0
0,5e8783b0fde5153fbd9dca43,familiarity,24,TbKME,Juaml,1,1,True,2834.0
0,5e8783b0fde5153fbd9dca43,familiarity,25,NJZl,UJkG,0,0,True,3735.0
0,5e8783b0fde5153fbd9dca43,familiarity,26,bYuQ,TmTm,1,1,True,2816.0
0,5e8783b0fde5153fbd9dca43,familiarity,27,NYZu,OQAr,1,0,False,1800.0
0,5e8783b0fde5153fbd9dca43,familiarity,28,Abka,kJdr,0,0,True,3887.0
0,5e8783b0fde5153fbd9dca43,familiarity,29,bRC,lLG,1,1,True,3950.0
0,5e8783b0fde5153fbd9dca43,familiarity,30,OJGQ,BRDh,1,1,True,2735.0
0,612d5712d75b6c46b4cefc63,familiarity,1,lkAk,CMdP,0,1,False,4069.0
0,612d5712d75b6c46b4cefc63,familiarity,2,JdOAY,cuOJb,1,1,True,2322.0
0,612d5712d75b6c46b4cefc63,familiarity,3,KTDTB,cROMt,0,0,True,2079.0
0,612d5712d75b6c46b4cefc63,familiarity,4,Tbk,kPM,1,0,False,2266.0
0,612d5712d75b6c46b4cefc63,familiarity,5,KABA,uOAO,1,0,False,1516.0
0,612d5712d75b6c46b4cefc63,familiarity,6,KdAR,lrZG,1,0,False,2699.0
0,612d5712d75b6c46b4cefc63,familiarity,8,PctRC,btlck,0,1,False,2767.0
0,612d5712d75b6c46b4cefc63,familiarity,10,RkmdC,CkBOP,1,0,False,1032.0
0,612d5712d75b6c46b4cefc63,familiarity,11,NbmQU,aLNlk,0,0,True,2605.0
0,612d5712d75b6c46b4cefc63,familiarity,12,DOchl,BOckP,0,0,True,3330.0
0,612d5712d75b6c46b4cefc63,familiarity,13,ldAa,khmh,1,1,True,1357.0
0,612d5712d75b6c46b4cefc63,familiarity,14,Glu,aQr,1,1,True,2523.0
0,612d5712d75b6c46b4cefc63,familiarity,15,ZcGdN,EtMDM,0,0,True,1360.0
0,612d5712d75b6c46b4cefc63,familiarity,16,KAERM,rdLJa,1,1,True,1420.0
0,612d5712d75b6c46b4cefc63,familiarity,17,mtKP,JdGm,0,1,False,1778.0
0,612d5712d75b6c46b4cefc63,familiarity,18,NaAQd,dMYBP,1,1,True,1477.0
0,612d5712d75b6c46b4cefc63,familiarity,19,kZUb,dKRD,1,1,True,2201.0
0,612d5712d75b6c46b4cefc63,familiarity,20,lcOc,Udbd,0,1,False,1742.0
0,612d5712d75b6c46b4cefc63,familiarity,21,YBO,NUZ,0,1,False,2751.0
0,612d5712d75b6c46b4cefc63,familiarity,22,LkNc,mKcD,0,0,True,1499.0
0,612d5712d75b6c46b4cefc63,familiarity,23,rkra,UJkG,1,0,False,1454.0
0,612d5712d75b6c46b4cefc63,familiarity,24,hEct,ArQu,0,0,True,1635.0
0,612d5712d75b6c46b4cefc63,familiarity,25,tAY,Tmc,1,1,True,1343.0
0,612d5712d75b6c46b4cefc63,familiarity,26,NbacA,tKDmh,0,0,True,1753.0
0,612d5712d75b6c46b4cefc63,familiarity,27,mZb,BCD,0,0,True,1847.0
0,612d5712d75b6c46b4cefc63,familiarity,28,lBlE,kulZ,1,0,False,2528.0
0,612d5712d75b6c46b4cefc63,familiarity,29,hAROK,EPERd,0,0,True,1242.0
0,612d5712d75b6c46b4cefc63,familiarity,30,kKEdM,OAmAd,1,1,True,1973.0
0,5fb3f38909fc360164f7c98d,familiarity,1,vuJZu,YOaAb,0,1,False,2235.0
0,5fb3f38909fc360164f7c98d,familiarity,3,ukYZ,mcOJ,1,0,False,1374.0
0,5fb3f38909fc360164f7c98d,familiarity,4,LNUrJ,aOLZU,0,1,False,1732.0
0,5fb3f38909fc360164f7c98d,familiarity,5,hTDd,LuNZ,1,0,False,1537.0
0,5fb3f38909fc360164f7c98d,familiarity,6,EhRm,rULv,0,1,False,1824.0
0,5fb3f38909fc360164f7c98d,familiarity,7,bYuQ,BRDh,1,1,True,1533.0
0,5fb3f38909fc360164f7c98d,familiarity,8,PED,KmE,0,0,True,1374.0
0,5fb3f38909fc360164f7c98d,familiarity,9,MBmE,Avdk,1,1,True,1702.0
0,5fb3f38909fc360164f7c98d,familiarity,11,kBD,RDM,0,1,False,1461.0
0,5fb3f38909fc360164f7c98d,familiarity,12,rAJu,kMEC,0,0,True,1844.0
0,5fb3f38909fc360164f7c98d,familiarity,13,kKE,JQA,1,0,False,1343.0
0,5fb3f38909fc360164f7c98d,familiarity,14,hYDmt,Amacl,0,0,True,2710.0
0,5fb3f38909fc360164f7c98d,familiarity,15,NmAG,aONd,1,1,True,3083.0
0,5fb3f38909fc360164f7c98d,familiarity,16,OYK,Tmc,1,0,False,1744.0
0,5fb3f38909fc360164f7c98d,familiarity,17,LYGA,lcOc,0,1,False,3339.0
0,5fb3f38909fc360164f7c98d,familiarity,18,Qclad,thbOM,1,0,False,1515.0
0,5fb3f38909fc360164f7c98d,familiarity,19,mBYl,DhCP,1,0,False,1511.0
0,5fb3f38909fc360164f7c98d,familiarity,20,DmAME,ZdNmU,1,0,False,1749.0
0,5fb3f38909fc360164f7c98d,familiarity,21,OcN,PTl,1,1,True,2127.0
0,5fb3f38909fc360164f7c98d,familiarity,22,mARM,TKDk,0,1,False,1547.0
0,5fb3f38909fc360164f7c98d,familiarity,23,TPCb,NQZv,0,0,True,1672.0
0,5fb3f38909fc360164f7c98d,familiarity,24,Grub,vAvb,1,1,True,1525.0
0,5fb3f38909fc360164f7c98d,familiarity,25,OLJbl,hmKPM,1,0,False,1754.0
0,5fb3f38909fc360164f7c98d,familiarity,26,lYrua,mBmlA,0,1,False,2328.0
0,5fb3f38909fc360164f7c98d,familiarity,27,adYrc,chEDO,0,0,True,1316.0
0,5fb3f38909fc360164f7c98d,familiarity,28,EPERd,dRbDb,0,0,True,1654.0
0,5fb3f38909fc360164f7c98d,familiarity,29,mbZl,AlTd,0,1,False,1613.0
0,5fb3f38909fc360164f7c98d,familiarity,30,lkAk,aYaN,1,0,False,1651.0
0,608edc13472b2dbc27b369fa,familiarity,1,RDM,LcO,0,1,False,7007.0
0,608edc13472b2dbc27b369fa,familiarity,2,GQrc,hlkT,1,1,True,4302.0
0,608edc13472b2dbc27b369fa,familiarity,3,kdaAJ,ZNLOv,1,0,False,190.0
0,608edc13472b2dbc27b369fa,familiarity,4,mAM,PED,0,1,False,126.0
0,608edc13472b2dbc27b369fa,familiarity,5,dPc,JUG,0,0,True,235.0
0,608edc13472b2dbc27b369fa,familiarity,6,uvaU,ACcO,1,1,True,413.0
0,608edc13472b2dbc27b369fa,familiarity,8,mcOJ,vclY,0,0,True,317.0
0,608edc13472b2dbc27b369fa,familiarity,9,ravu,dKRD,1,0,False,198.0
0,608edc13472b2dbc27b369fa,familiarity,10,EltMB,kRCkO,1,1,True,137.0
0,608edc13472b2dbc27b369fa,familiarity,11,OMlT,rkYL,0,1,False,265.0
0,608edc13472b2dbc27b369fa,familiarity,12,RlAKc,hlbtb,1,0,False,316.0
0,608edc13472b2dbc27b369fa,familiarity,13,AZbl,JauQ,0,1,False,261.0
0,608edc13472b2dbc27b369fa,familiarity,14,Gabk,AlNU,1,0,False,261.0
0,608edc13472b2dbc27b369fa,familiarity,15,KmE,lvk,0,1,False,261.0
0,608edc13472b2dbc27b369fa,familiarity,16,RKYk,Grbk,1,1,True,228.0
0,608edc13472b2dbc27b369fa,familiarity,17,rLaZ,hbkd,1,1,True,122.0
0,608edc13472b2dbc27b369fa,familiarity,18,KlkD,ZdlO,0,0,True,306.0
0,608edc13472b2dbc27b369fa,familiarity,19,Arv,DOk,1,0,False,268.0
0,608edc13472b2dbc27b369fa,familiarity,20,kPkRA,bYGOZ,1,1,True,186.0
0,608edc13472b2dbc27b369fa,familiarity,21,OLJbl,GNAca,0,0,True,393.0
0,608edc13472b2dbc27b369fa,familiarity,22,damYb,kGamN,1,1,True,137.0
0,608edc13472b2dbc27b369fa,familiarity,23,ArQu,ukYZ,0,0,True,255.0
0,608edc13472b2dbc27b369fa,familiarity,24,McMD,MCkm,1,1,True,135.0
0,608edc13472b2dbc27b369fa,familiarity,25,PcBT,OkGY,1,1,True,198.0
0,608edc13472b2dbc27b369fa,familiarity,26,YArG,DbMR,1,0,False,320.0
0,608edc13472b2dbc27b369fa,familiarity,27,kdEdY,NbacA,0,1,False,241.0
0,608edc13472b2dbc27b369fa,familiarity,29,DOBhY,laYmr,0,0,True,224.0
0,608edc13472b2dbc27b369fa,familiarity,30,Blmcl,lCbcm,0,1,False,111.0
0,60a45e33f404ba8cb7a19cfe,familiarity,1,udkm,vJab,0,0,True,2143.0
0,60a45e33f404ba8cb7a19cfe,familiarity,2,CDEmY,uQuZc,1,1,True,3112.0
0,60a45e33f404ba8cb7a19cfe,familiarity,3,OtM,rba,1,1,True,1680.0
0,60a45e33f404ba8cb7a19cfe,familiarity,4,lRE,BCD,1,0,False,1763.0
0,60a45e33f404ba8cb7a19cfe,familiarity,5,rLkm,aONd,0,0,True,1106.0
0,60a45e33f404ba8cb7a19cfe,familiarity,6,GQYQ,mtKP,1,1,True,1854.0
0,60a45e33f404ba8cb7a19cfe,familiarity,7,CPMl,rLaZ,1,0,False,1091.0
0,60a45e33f404ba8cb7a19cfe,familiarity,8,kbmZO,QcQAJ,0,0,True,1358.0
0,60a45e33f404ba8cb7a19cfe,familiarity,9,OmtlD,Zvalv,0,0,True,1350.0
0,60a45e33f404ba8cb7a19cfe,familiarity,10,cDOEB,LckGN,1,0,False,2036.0
0,60a45e33f404ba8cb7a19cfe,familiarity,11,bTE,Ymb,0,0,True,1391.0
0,60a45e33f404ba8cb7a19cfe,familiarity,12,BMEMA,dGLAl,1,1,True,1842.0
0,60a45e33f404ba8cb7a19cfe,familiarity,13,kLvdN,QLrOJ,1,0,False,2809.0
0,60a45e33f404ba8cb7a19cfe,familiarity,15,NvuGr,dmZvm,1,0,False,1262.0
0,60a45e33f404ba8cb7a19cfe,familiarity,16,JNka,Ctmb,1,1,True,1929.0
0,60a45e33f404ba8cb7a19cfe,familiarity,17,hBK,ABb,0,0,True,2191.0
0,60a45e33f404ba8cb7a19cfe,familiarity,18,Glu,GUa,0,1,False,3012.0
0,60a45e33f404ba8cb7a19cfe,familiarity,19,tRdM,GUOA,1,1,True,1397.0
0,60a45e33f404ba8cb7a19cfe,familiarity,20,kGamN,AmQOY,1,1,True,1220.0
0,60a45e33f404ba8cb7a19cfe,familiarity,21,YQbc,NaJb,1,1,True,1305.0
0,60a45e33f404ba8cb7a19cfe,familiarity,22,BECk,Abka,0,0,True,1334.0
0,60a45e33f404ba8cb7a19cfe,familiarity,23,DhMt,YJkb,1,0,False,1083.0
0,60a45e33f404ba8cb7a19cfe,familiarity,24,JcUk,Udbd,1,0,False,1632.0
0,60a45e33f404ba8cb7a19cfe,familiarity,25,btlck,QOLmu,1,0,False,1299.0
0,60a45e33f404ba8cb7a19cfe,familiarity,27,TdmA,EdBb,0,1,False,1378.0
0,60a45e33f404ba8cb7a19cfe,familiarity,28,ukYZ,lZcu,1,0,False,1860.0
0,60a45e33f404ba8cb7a19cfe,familiarity,29,KBKBE,CRdBd,0,0,True,1334.0
0,60a45e33f404ba8cb7a19cfe,familiarity,30,kbu,YNu,1,0,False,1032.0
0,60ddf71e95896d2595f0e1a5,familiarity,1,ZcGdN,hBmMC,1,1,True,1716.0
0,60ddf71e95896d2595f0e1a5,familiarity,2,advYO,LNUrJ,1,0,False,2131.0
0,60ddf71e95896d2595f0e1a5,familiarity,3,hlkT,bmbN,1,1,True,2350.0
0,60ddf71e95896d2595f0e1a5,familiarity,4,OLJbl,CRdBd,1,1,True,2785.0
0,60ddf71e95896d2595f0e1a5,familiarity,5,dmZvm,kMbTR,0,0,True,1380.0
0,60ddf71e95896d2595f0e1a5,familiarity,6,YZUZ,lMck,1,1,True,1985.0
0,60ddf71e95896d2595f0e1a5,familiarity,7,kGlU,mdla,1,0,False,1474.0
0,60ddf71e95896d2595f0e1a5,familiarity,8,BOckP,Udumd,0,0,True,1744.0
0,60ddf71e95896d2595f0e1a5,familiarity,9,EAO,UbG,0,0,True,2774.0
0,60ddf71e95896d2595f0e1a5,familiarity,10,YJkb,JrGv,0,1,False,1938.0
0,60ddf71e95896d2595f0e1a5,familiarity,12,hTtBb,BdtAC,0,1,False,1876.0
0,60ddf71e95896d2595f0e1a5,familiarity,13,cuOJb,bmdAB,1,0,False,1663.0
0,60ddf71e95896d2595f0e1a5,familiarity,14,tRdM,rckO,0,0,True,1510.0
0,60ddf71e95896d2595f0e1a5,familiarity,15,rGl,MAB,0,0,True,2684.0
0,60ddf71e95896d2595f0e1a5,familiarity,16,NLQGm,NbacA,1,1,True,2575.0
0,60ddf71e95896d2595f0e1a5,familiarity,18,APEM,GUOA,0,1,False,2417.0
0,60ddf71e95896d2595f0e1a5,familiarity,19,Cdt,uda,1,1,True,1186.0
0,60ddf71e95896d2595f0e1a5,familiarity,20,UaYL,DlDT,0,1,False,2278.0
0,60ddf71e95896d2595f0e1a5,familiarity,21,uUmb,RYlD,1,1,True,1643.0
0,60ddf71e95896d2595f0e1a5,familiarity,22,rkra,khMD,0,0,True,2381.0
0,60ddf71e95896d2595f0e1a5,familiarity,23,vmuLl,CDEmY,1,1,True,2155.0
0,60ddf71e95896d2595f0e1a5,familiarity,24,RtRh,hTDd,1,1,True,1490.0
0,60ddf71e95896d2595f0e1a5,familiarity,25,MTdY,DBlh,0,0,True,2871.0
0,60ddf71e95896d2595f0e1a5,familiarity,26,EKBO,Yadr,1,0,False,1602.0
0,60ddf71e95896d2595f0e1a5,familiarity,27,ECtbD,DmAME,1,1,True,2543.0
0,60ddf71e95896d2595f0e1a5,familiarity,28,TObCO,btlck,0,0,True,2756.0
0,60ddf71e95896d2595f0e1a5,familiarity,29,Blmcl,TAdhM,1,0,False,2245.0
0,60ddf71e95896d2595f0e1a5,familiarity,30,kbu,DOk,0,0,True,1305.0
0,608abc6251feb3ddc3b2e01d,familiarity,1,lvk,uda,1,1,True,8395.0
0,608abc6251feb3ddc3b2e01d,familiarity,2,MCkm,dmRb,0,1,False,6235.0
0,608abc6251feb3ddc3b2e01d,familiarity,3,CMdP,TklD,1,0,False,3200.0
0,608abc6251feb3ddc3b2e01d,familiarity,4,rcmuv,dvNvA,1,1,True,2347.0
0,608abc6251feb3ddc3b2e01d,familiarity,5,OQAr,Ctmb,0,1,False,1678.0
0,608abc6251feb3ddc3b2e01d,familiarity,6,JauQ,UdvY,1,0,False,1169.0
0,608abc6251feb3ddc3b2e01d,familiarity,7,NaJb,ukbY,0,1,False,2020.0
0,608abc6251feb3ddc3b2e01d,familiarity,8,DOBhY,LOLkU,1,1,True,1490.0
0,608abc6251feb3ddc3b2e01d,familiarity,10,hCkt,NvYJ,1,0,False,1960.0
0,608abc6251feb3ddc3b2e01d,familiarity,11,Gabk,ukcY,1,0,False,1267.0
0,608abc6251feb3ddc3b2e01d,familiarity,12,YkZ,GUa,1,0,False,1231.0
0,608abc6251feb3ddc3b2e01d,familiarity,13,EKBO,OJlN,1,1,True,452.0
0,608abc6251feb3ddc3b2e01d,familiarity,14,dKRD,NkUA,0,0,True,1085.0
0,608abc6251feb3ddc3b2e01d,familiarity,15,LdQv,dYAJ,1,1,True,1294.0
0,608abc6251feb3ddc3b2e01d,familiarity,16,OJGQ,rkJu,0,0,True,1329.0
0,608abc6251feb3ddc3b2e01d,familiarity,17,KTDTB,mZUrQ,1,1,True,548.0
0,608abc6251feb3ddc3b2e01d,familiarity,18,TdTD,RCdc,0,0,True,1189.0
0,608abc6251feb3ddc3b2e01d,familiarity,19,auYAk,hlctE,1,1,True,1181.0
0,608abc6251feb3ddc3b2e01d,familiarity,20,dBC,cbm,1,0,False,697.0
0,608abc6251feb3ddc3b2e01d,familiarity,22,EMbDP,Phktk,1,0,False,1209.0
0,608abc6251feb3ddc3b2e01d,familiarity,23,UdlGQ,EPERd,0,0,True,1217.0
0,608abc6251feb3ddc3b2e01d,familiarity,24,bRC,bLd,0,1,False,1083.0
0,608abc6251feb3ddc3b2e01d,familiarity,25,cUN,Qru,1,1,True,1356.0
0,608abc6251feb3ddc3b2e01d,familiarity,26,OtlR,JvaA,0,1,False,1505.0
0,608abc6251feb3ddc3b2e01d,familiarity,27,chAh,Grub,0,1,False,2181.0
0,608abc6251feb3ddc3b2e01d,familiarity,28,COtBD,OmtlD,0,0,True,2711.0
0,608abc6251feb3ddc3b2e01d,familiarity,29,tKDmh,ECtbD,1,1,True,1241.0
0,608abc6251feb3ddc3b2e01d,familiarity,30,JmNk,KOYC,0,1,False,1380.0
0,5f11ccbc1a1a2c08b4a99efb,familiarity,1,lBlE,AlUY,0,0,True,2157.0
0,5f11ccbc1a1a2c08b4a99efb,familiarity,2,dPc,lvk,1,0,False,2922.0
0,5f11ccbc1a1a2c08b4a99efb,familiarity,3,GJZm,RtRh,0,0,True,1882.0
0,5f11ccbc1a1a2c08b4a99efb,familiarity,4,YOaAb,hYDmt,0,0,True,1480.0
0,5f11ccbc1a1a2c08b4a99efb,familiarity,5,PMPtk,RkmdC,0,1,False,1281.0
0,5f11ccbc1a1a2c08b4a99efb,familiarity,6,CKOb,CMdP,1,0,False,2488.0
0,5f11ccbc1a1a2c08b4a99efb,familiarity,7,Amacl,UAcdu,1,1,True,1028.0
0,5f11ccbc1a1a2c08b4a99efb,familiarity,9,vYLU,uAkr,0,0,True,1150.0
0,5f11ccbc1a1a2c08b4a99efb,familiarity,10,btlck,kcCRt,0,0,True,1079.0
0,5f11ccbc1a1a2c08b4a99efb,familiarity,11,NYZu,JNka,0,1,False,1068.0
0,5f11ccbc1a1a2c08b4a99efb,familiarity,12,ctkt,KlkD,0,1,False,1205.0
0,5f11ccbc1a1a2c08b4a99efb,familiarity,13,KdAR,OJGQ,0,0,True,1931.0
0,5f11ccbc1a1a2c08b4a99efb,familiarity,14,KDPA,vblr,1,0,False,1637.0
0,5f11ccbc1a1a2c08b4a99efb,familiarity,15,DlDT,OdYP,1,1,True,851.0
0,5f11ccbc1a1a2c08b4a99efb,familiarity,17,Yht,kbu,1,1,True,970.0
0,5f11ccbc1a1a2c08b4a99efb,familiarity,18,BMEMA,Phktk,0,0,True,1707.0
0,5f11ccbc1a1a2c08b4a99efb,familiarity,19,rGl,BCD,1,0,False,1431.0
0,5f11ccbc1a1a2c08b4a99efb,familiarity,20,UdlGQ,kKEdM,0,1,False,1444.0
0,5f11ccbc1a1a2c08b4a99efb,familiarity,21,RKYk,NvYJ,0,1,False,1131.0
0,5f11ccbc1a1a2c08b4a99efb,familiarity,22,NAacQ,OdlNm,1,0,False,1204.0
0,5f11ccbc1a1a2c08b4a99efb,familiarity,23,ravu,rkJu,1,0,False,1707.0
0,5f11ccbc1a1a2c08b4a99efb,familiarity,24,kRCkO,bRABt,1,1,True,1027.0
0,5f11ccbc1a1a2c08b4a99efb,familiarity,25,dkLl,kCRm,1,1,True,844.0
0,5f11ccbc1a1a2c08b4a99efb,familiarity,26,BCAd,vAar,1,0,False,1236.0
0,5f11ccbc1a1a2c08b4a99efb,familiarity,27,DmAME,dGLAl,1,1,True,938.0
0,5f11ccbc1a1a2c08b4a99efb,familiarity,28,vuJZu,YlCPB,0,1,False,1077.0
0,5f11ccbc1a1a2c08b4a99efb,familiarity,29,rZYd,BYhT,1,1,True,2039.0
0,5f11ccbc1a1a2c08b4a99efb,familiarity,30,Gabk,TEBK,0,0,True,617.0
0,60fd703ecd62eb39eb07c328,familiarity,1,YZJm,PEdK,1,0,False,3814.0
0,60fd703ecd62eb39eb07c328,familiarity,3,GJZm,YQbc,0,0,True,1127.0
0,60fd703ecd62eb39eb07c328,familiarity,4,UaZma,TCbDC,0,0,True,1462.0
0,60fd703ecd62eb39eb07c328,familiarity,5,Amacl,dOYml,1,0,False,1226.0
0,60fd703ecd62eb39eb07c328,familiarity,6,MAB,kKE,1,0,False,1485.0
0,60fd703ecd62eb39eb07c328,familiarity,7,JrGv,OQAr,0,0,True,1230.0
0,60fd703ecd62eb39eb07c328,familiarity,8,kLvdN,NbacA,1,1,True,1317.0
0,60fd703ecd62eb39eb07c328,familiarity,9,kcCRt,bRABt,1,1,True,1539.0
0,60fd703ecd62eb39eb07c328,familiarity,10,rab,RDM,1,1,True,1649.0
0,60fd703ecd62eb39eb07c328,familiarity,11,damYb,ALOrl,1,1,True,1363.0
0,60fd703ecd62eb39eb07c328,familiarity,12,GumLl,PctRC,1,1,True,1755.0
0,60fd703ecd62eb39eb07c328,familiarity,13,bmdAB,YNrAm,1,0,False,1514.0
0,60fd703ecd62eb39eb07c328,familiarity,15,hTDd,AlNU,1,1,True,1074.0
0,60fd703ecd62eb39eb07c328,familiarity,16,KDPA,BPAl,1,0,False,2420.0
0,60fd703ecd62eb39eb07c328,familiarity,17,uZc,Yht,1,0,False,967.0
0,60fd703ecd62eb39eb07c328,familiarity,18,CYPc,MCkm,1,1,True,1280.0
0,60fd703ecd62eb39eb07c328,familiarity,19,PED,mLJ,0,0,True,1446.0
0,60fd703ecd62eb39eb07c328,familiarity,20,lRE,rGl,0,1,False,2115.0
0,60fd703ecd62eb39eb07c328,familiarity,21,cuOJb,laYmr,1,0,False,1841.0
0,60fd703ecd62eb39eb07c328,familiarity,22,rAm,dRA,1,1,True,990.0
0,60fd703ecd62eb39eb07c328,familiarity,23,TKDk,kcOY,1,1,True,1266.0
0,60fd703ecd62eb39eb07c328,familiarity,24,Cchtd,NbmQU,1,1,True,1395.0
0,60fd703ecd62eb39eb07c328,familiarity,25,tKDmh,Ldrbv,0,0,True,1350.0
0,60fd703ecd62eb39eb07c328,familiarity,26,OYuvb,rvOvU,0,0,True,755.0
0,60fd703ecd62eb39eb07c328,familiarity,27,EPBT,ukbY,0,0,True,1094.0
0,60fd703ecd62eb39eb07c328,familiarity,28,OcN,YNu,0,1,False,1330.0
0,60fd703ecd62eb39eb07c328,familiarity,29,uUY,BbM,0,1,False,1242.0
0,60fd703ecd62eb39eb07c328,familiarity,30,DOBhY,OmtlD,0,0,True,1229.0
0,60f1846c851ee5a978a0e015,familiarity,1,BCD,bTE,0,0,True,1145.0
0,60f1846c851ee5a978a0e015,familiarity,2,UJmr,tRdM,0,0,True,3138.0
0,60f1846c851ee5a978a0e015,familiarity,3,AdDb,BCAd,0,1,False,1072.0
0,60f1846c851ee5a978a0e015,familiarity,4,vYLU,LQur,1,1,True,1350.0
0,60f1846c851ee5a978a0e015,familiarity,5,lRE,bLd,1,0,False,1743.0
0,60f1846c851ee5a978a0e015,familiarity,6,aYQm,dTAh,0,0,True,1238.0
0,60f1846c851ee5a978a0e015,familiarity,7,OJGQ,rkra,1,1,True,1129.0
0,60f1846c851ee5a978a0e015,familiarity,8,rLaZ,dEPD,1,1,True,1080.0
0,60f1846c851ee5a978a0e015,familiarity,9,JNka,KdAR,0,0,True,889.0
0,60f1846c851ee5a978a0e015,familiarity,10,kPkRA,Amacl,1,1,True,1022.0
0,60f1846c851ee5a978a0e015,familiarity,12,aNYmb,UAcdu,1,1,True,1743.0
0,60f1846c851ee5a978a0e015,familiarity,13,JUNa,mbZl,1,1,True,891.0
0,60f1846c851ee5a978a0e015,familiarity,14,tdDd,KOYC,0,1,False,1177.0
0,60f1846c851ee5a978a0e015,familiarity,15,mBmlA,tcYbd,0,1,False,919.0
0,60f1846c851ee5a978a0e015,familiarity,17,Yht,LcO,1,1,True,982.0
0,60f1846c851ee5a978a0e015,familiarity,18,Ehbt,QvlZ,1,1,True,1502.0
0,60f1846c851ee5a978a0e015,familiarity,19,OMC,lGc,0,0,True,1274.0
0,60f1846c851ee5a978a0e015,familiarity,20,KMDYt,JAdLm,1,1,True,948.0
0,60f1846c851ee5a978a0e015,familiarity,21,vAvb,KMOc,0,1,False,1137.0
0,60f1846c851ee5a978a0e015,familiarity,22,TDKh,LGkA,1,1,True,1085.0
0,60f1846c851ee5a978a0e015,familiarity,23,AOUl,JcUk,1,1,True,1566.0
0,60f1846c851ee5a978a0e015,familiarity,24,YaOk,TmTm,0,0,True,990.0
0,60f1846c851ee5a978a0e015,familiarity,25,dJNr,TEBK,0,1,False,2303.0
0,60f1846c851ee5a978a0e015,familiarity,26,AbKD,uAkr,1,1,True,1357.0
0,60f1846c851ee5a978a0e015,familiarity,27,bvkr,UvOG,0,1,False,777.0
0,60f1846c851ee5a978a0e015,familiarity,28,dUr,BbM,0,0,True,1019.0
0,60f1846c851ee5a978a0e015,familiarity,29,NJZl,YObA,1,1,True,812.0
0,60f1846c851ee5a978a0e015,familiarity,30,dKRD,tmYh,1,1,True,1056.0
0,605c9355001a5eb6d51e657d,familiarity,2,GLYrA,UYZlZ,1,0,False,1960.0
0,605c9355001a5eb6d51e657d,familiarity,3,DlDd,RCdc,1,1,True,1511.0
0,605c9355001a5eb6d51e657d,familiarity,4,TAdhM,Juaml,0,0,True,1680.0
0,605c9355001a5eb6d51e657d,familiarity,5,rckO,kGlU,1,1,True,1992.0
0,605c9355001a5eb6d51e657d,familiarity,6,cthB,GAcY,0,0,True,1968.0
0,605c9355001a5eb6d51e657d,familiarity,7,JUNa,JrGv,0,0,True,1967.0
0,605c9355001a5eb6d51e657d,familiarity,8,hbkd,kDOm,1,1,True,1616.0
0,605c9355001a5eb6d51e657d,familiarity,9,Grub,GJZm,0,1,False,2072.0
0,605c9355001a5eb6d51e657d,familiarity,10,YBO,mkc,0,0,True,1383.0
0,605c9355001a5eb6d51e657d,familiarity,11,kam,uZc,1,1,True,2120.0
0,605c9355001a5eb6d51e657d,familiarity,13,lBKt,AbKD,1,1,True,1727.0
0,605c9355001a5eb6d51e657d,familiarity,14,Udumd,cROMt,0,0,True,2832.0
0,605c9355001a5eb6d51e657d,familiarity,15,bAdk,cAZu,1,1,True,3135.0
0,605c9355001a5eb6d51e657d,familiarity,16,GQYQ,dYAJ,1,0,False,2296.0
0,605c9355001a5eb6d51e657d,familiarity,17,ZkGmY,kMbTR,0,0,True,1983.0
0,605c9355001a5eb6d51e657d,familiarity,18,RDM,Yht,1,0,False,1192.0
0,605c9355001a5eb6d51e657d,familiarity,19,UaYL,KMOc,0,1,False,391.0
0,605c9355001a5eb6d51e657d,familiarity,20,rdLJa,tcYbd,0,0,True,168.0
0,605c9355001a5eb6d51e657d,familiarity,21,UaZma,DBPhc,0,1,False,207.0
0,605c9355001a5eb6d51e657d,familiarity,22,bmbN,RtRh,0,0,True,168.0
0,605c9355001a5eb6d51e657d,familiarity,23,TPCb,OkGY,1,0,False,352.0
0,605c9355001a5eb6d51e657d,familiarity,24,dYdA,McMD,0,0,True,456.0
0,605c9355001a5eb6d51e657d,familiarity,25,rkra,dmRb,1,0,False,703.0
0,605c9355001a5eb6d51e657d,familiarity,26,JauQ,lBlE,1,1,True,544.0
0,605c9355001a5eb6d51e657d,familiarity,27,PED,LaA,0,0,True,528.0
0,605c9355001a5eb6d51e657d,familiarity,28,dMThk,JmvmO,1,0,False,575.0
0,605c9355001a5eb6d51e657d,familiarity,29,kNua,AdYl,1,1,True,272.0
0,605c9355001a5eb6d51e657d,familiarity,30,OAmAd,AZlLN,0,0,True,1807.0
0,5c5e04ca6539fe00016e1afa,familiarity,1,KlkD,DBlh,1,0,False,1881.0
0,5c5e04ca6539fe00016e1afa,familiarity,3,cMRl,YTOM,0,1,False,1007.0
0,5c5e04ca6539fe00016e1afa,familiarity,4,dGLAl,tcYbd,1,1,True,1031.0
0,5c5e04ca6539fe00016e1afa,familiarity,6,hmKPM,Amacl,1,0,False,1134.0
0,5c5e04ca6539fe00016e1afa,familiarity,7,kRCkO,CDEmY,0,1,False,121.0
0,5c5e04ca6539fe00016e1afa,familiarity,8,rkYL,bdtK,1,1,True,1077.0
0,5c5e04ca6539fe00016e1afa,familiarity,9,AMkC,JAaG,1,0,False,941.0
0,5c5e04ca6539fe00016e1afa,familiarity,10,rULv,kCRm,1,1,True,790.0
0,5c5e04ca6539fe00016e1afa,familiarity,11,bmbN,bvkr,1,0,False,849.0
0,5c5e04ca6539fe00016e1afa,familiarity,12,TDKh,lkAk,1,1,True,828.0
0,5c5e04ca6539fe00016e1afa,familiarity,13,rvOvU,uQkrd,1,1,True,1045.0
0,5c5e04ca6539fe00016e1afa,familiarity,14,rbYbu,JmvmO,0,1,False,926.0
0,5c5e04ca6539fe00016e1afa,familiarity,15,hlbtb,JAdLm,0,1,False,969.0
0,5c5e04ca6539fe00016e1afa,familiarity,16,kPM,kKE,0,0,True,1096.0
0,5c5e04ca6539fe00016e1afa,familiarity,17,OcYM,DOAK,1,1,True,838.0
0,5c5e04ca6539fe00016e1afa,familiarity,18,rdLJa,Udumd,0,0,True,845.0
0,5c5e04ca6539fe00016e1afa,familiarity,19,kZUb,OCmk,1,0,False,946.0
0,5c5e04ca6539fe00016e1afa,familiarity,20,RCdc,vYLU,1,0,False,910.0
0,5c5e04ca6539fe00016e1afa,familiarity,21,MTdY,UrOQ,1,0,False,838.0
0,5c5e04ca6539fe00016e1afa,familiarity,22,kKEdM,damYb,0,0,True,820.0
0,5c5e04ca6539fe00016e1afa,familiarity,23,TAm,rba,0,1,False,891.0
0,5c5e04ca6539fe00016e1afa,familiarity,24,RhPm,UJmr,1,1,True,832.0
0,5c5e04ca6539fe00016e1afa,familiarity,25,lCbcm,thbOM,1,0,False,688.0
0,5c5e04ca6539fe00016e1afa,familiarity,26,GUa,dRA,1,1,True,739.0
0,5c5e04ca6539fe00016e1afa,familiarity,27,kbmZO,dMYBP,0,0,True,645.0
0,5c5e04ca6539fe00016e1afa,familiarity,28,rNlZ,dEPD,1,0,False,516.0
0,5c5e04ca6539fe00016e1afa,familiarity,29,JZOAk,ObOQl,1,1,True,446.0
0,5c5e04ca6539fe00016e1afa,familiarity,30,AOUl,dKRD,1,0,False,493.0
0,6161f43ddd46e845e7b3fab8,familiarity,1,Qclad,AZlLN,0,0,True,3488.0
0,6161f43ddd46e845e7b3fab8,familiarity,2,TRkY,DhCP,0,0,True,2687.0
0,6161f43ddd46e845e7b3fab8,familiarity,3,ZAUu,MKmY,0,1,False,3080.0
0,6161f43ddd46e845e7b3fab8,familiarity,4,RhPm,dkLl,0,0,True,2984.0
0,6161f43ddd46e845e7b3fab8,familiarity,5,krGu,TKDk,0,0,True,2528.0
0,6161f43ddd46e845e7b3fab8,familiarity,6,CMdP,DbMR,1,0,False,3696.0
0,6161f43ddd46e845e7b3fab8,familiarity,8,EKBO,EdBb,0,0,True,4184.0
0,6161f43ddd46e845e7b3fab8,familiarity,9,OYuvb,rdLJa,0,0,True,4048.0
0,6161f43ddd46e845e7b3fab8,familiarity,10,QbkAc,kMbTR,0,1,False,5416.0
0,6161f43ddd46e845e7b3fab8,familiarity,11,amJm,Grbk,0,0,True,2232.0
0,6161f43ddd46e845e7b3fab8,familiarity,12,rkra,alJY,1,0,False,4608.0
0,6161f43ddd46e845e7b3fab8,familiarity,13,ukcY,OJlN,1,1,True,3120.0
0,6161f43ddd46e845e7b3fab8,familiarity,14,LckGN,tDPRk,0,1,False,3376.0
0,6161f43ddd46e845e7b3fab8,familiarity,15,JQA,Tbk,1,1,True,3312.0
0,6161f43ddd46e845e7b3fab8,familiarity,16,KElB,OZkb,0,0,True,3135.0
0,6161f43ddd46e845e7b3fab8,familiarity,17,kPOt,kCRm,1,0,False,2736.0
0,6161f43ddd46e845e7b3fab8,familiarity,18,DlDd,vAvb,0,0,True,1176.0
0,6161f43ddd46e845e7b3fab8,familiarity,19,TDKh,RtRh,0,0,True,3776.0
0,6161f43ddd46e845e7b3fab8,familiarity,20,dCtMA,GJGcZ,1,1,True,2408.0
0,6161f43ddd46e845e7b3fab8,familiarity,22,Jud,kam,1,1,True,1376.0
0,6161f43ddd46e845e7b3fab8,familiarity,23,ark,Cdt,0,1,False,1288.0
0,6161f43ddd46e845e7b3fab8,familiarity,24,ODBDA,hBmMC,1,0,False,1215.0
0,6161f43ddd46e845e7b3fab8,familiarity,25,LdQv,dYdA,1,0,False,2928.0
0,6161f43ddd46e845e7b3fab8,familiarity,26,DMRP,Udbd,0,0,True,1264.0
0,6161f43ddd46e845e7b3fab8,familiarity,27,JrGv,ktBd,0,0,True,1744.0
0,6161f43ddd46e845e7b3fab8,familiarity,28,YQbc,OcZJ,0,0,True,1440.0
0,6161f43ddd46e845e7b3fab8,familiarity,29,OPE,dBC,1,0,False,1600.0
0,6161f43ddd46e845e7b3fab8,familiarity,30,bcOR,hbkd,1,1,True,5480.0
0,6048158f62550615002408af,familiarity,1,BCD,ark,0,0,True,1182.0
0,6048158f62550615002408af,familiarity,2,dClOC,COtBD,1,0,False,1396.0
0,6048158f62550615002408af,familiarity,3,Juaml,ckdAm,1,1,True,1390.0
0,6048158f62550615002408af,familiarity,4,hBmMC,bdUNu,1,1,True,1573.0
0,6048158f62550615002408af,familiarity,5,cdKBY,CDEmY,1,1,True,1676.0
0,6048158f62550615002408af,familiarity,6,ObOQl,QcQAJ,0,0,True,2233.0
0,6048158f62550615002408af,familiarity,8,kmU,PMd,1,0,False,1221.0
0,6048158f62550615002408af,familiarity,9,vUdm,rkJu,1,1,True,1900.0
0,6048158f62550615002408af,familiarity,10,tdDd,dKRD,1,0,False,1303.0
0,6048158f62550615002408af,familiarity,11,YQbc,bmbN,0,1,False,1202.0
0,6048158f62550615002408af,familiarity,12,JcL,mvG,0,1,False,1091.0
0,6048158f62550615002408af,familiarity,13,JQA,uvJ,0,0,True,1823.0
0,6048158f62550615002408af,familiarity,14,DBPhc,bmdAB,0,0,True,2685.0
0,6048158f62550615002408af,familiarity,15,adYrc,ABPRB,1,1,True,2560.0
0,6048158f62550615002408af,familiarity,17,lcOc,dTAh,0,0,True,1166.0
0,6048158f62550615002408af,familiarity,18,CkBOP,GLYrA,1,1,True,1994.0
0,6048158f62550615002408af,familiarity,19,hbkd,KdAR,0,1,False,2897.0
0,6048158f62550615002408af,familiarity,20,rkYL,MKmY,0,0,True,1738.0
0,6048158f62550615002408af,familiarity,21,RYtkc,tKDmh,0,0,True,3299.0
0,6048158f62550615002408af,familiarity,22,hEct,RYlD,0,1,False,1679.0
0,6048158f62550615002408af,familiarity,23,YOaAb,UaZma,0,0,True,3441.0
0,6048158f62550615002408af,familiarity,24,YZJO,AlNU,0,0,True,2699.0
0,6048158f62550615002408af,familiarity,25,bYGOZ,dMYBP,0,1,False,3272.0
0,6048158f62550615002408af,familiarity,26,bdtK,KOYC,0,1,False,3290.0
0,6048158f62550615002408af,familiarity,27,TRK,mCd,1,1,True,2308.0
0,6048158f62550615002408af,familiarity,28,JauQ,rkra,1,1,True,3448.0
0,6048158f62550615002408af,familiarity,29,LOLkU,EPERd,1,0,False,1798.0
0,6048158f62550615002408af,familiarity,30,KABA,NaJb,1,1,True,1332.0
0,5e80c7d61a07dd7b0d8f0111,familiarity,1,GUOA,OcYM,1,0,False,1612.0
0,5e80c7d61a07dd7b0d8f0111,familiarity,2,COTK,hRKm,1,0,False,1254.0
0,5e80c7d61a07dd7b0d8f0111,familiarity,3,rAm,Jud,1,1,True,2082.0
0,5e80c7d61a07dd7b0d8f0111,familiarity,4,tAY,mvG,1,1,True,1641.0
0,5e80c7d61a07dd7b0d8f0111,familiarity,5,dTAh,kCRm,1,1,True,1101.0
0,5e80c7d61a07dd7b0d8f0111,familiarity,6,NbmQU,AZaJc,1,0,False,1797.0
0,5e80c7d61a07dd7b0d8f0111,familiarity,7,DmAME,aNYmb,0,0,True,1055.0
0,5e80c7d61a07dd7b0d8f0111,familiarity,8,YZJm,EdBb,1,0,False,1279.0
0,5e80c7d61a07dd7b0d8f0111,familiarity,9,MDKP,udkm,0,0,True,1222.0
0,5e80c7d61a07dd7b0d8f0111,familiarity,10,YTOM,QONk,1,1,True,1293.0
0,5e80c7d61a07dd7b0d8f0111,familiarity,11,cuOJb,aOLZU,0,0,True,776.0
0,5e80c7d61a07dd7b0d8f0111,familiarity,12,BATOc,AmQOY,0,0,True,1260.0
0,5e80c7d61a07dd7b0d8f0111,familiarity,13,rba,Cdt,1,0,False,1285.0
0,5e80c7d61a07dd7b0d8f0111,familiarity,14,KBKBE,btlck,1,1,True,1154.0
0,5e80c7d61a07dd7b0d8f0111,familiarity,15,ldAa,DBkl,0,1,False,729.0
0,5e80c7d61a07dd7b0d8f0111,familiarity,16,aUZA,khmh,1,1,True,1532.0
0,5e80c7d61a07dd7b0d8f0111,familiarity,17,PcBT,uauO,1,1,True,1248.0
0,5e80c7d61a07dd7b0d8f0111,familiarity,19,uQuZc,NLQGm,1,1,True,1810.0
0,5e80c7d61a07dd7b0d8f0111,familiarity,20,tmYh,AZbl,0,1,False,1439.0
0,5e80c7d61a07dd7b0d8f0111,familiarity,21,Nac,uZc,0,1,False,1419.0
0,5e80c7d61a07dd7b0d8f0111,familiarity,22,mZUrQ,dTmED,0,1,False,921.0
0,5e80c7d61a07dd7b0d8f0111,familiarity,23,bAdk,KEdl,1,0,False,1515.0
0,5e80c7d61a07dd7b0d8f0111,familiarity,24,kdaAJ,kcCRt,0,1,False,1359.0
0,5e80c7d61a07dd7b0d8f0111,familiarity,25,mAM,LcO,1,0,False,3472.0
0,5e80c7d61a07dd7b0d8f0111,familiarity,26,ZNLOv,Phktk,1,1,True,3511.0
0,5e80c7d61a07dd7b0d8f0111,familiarity,27,MBKRE,JAdLm,1,1,True,1326.0
0,5e80c7d61a07dd7b0d8f0111,familiarity,28,OAblc,lCbcm,1,0,False,782.0
0,5e80c7d61a07dd7b0d8f0111,familiarity,29,OcZJ,JNka,1,1,True,1122.0
0,5ec806f532fe7d2afa2e315b,familiarity,1,kCRm,LkNc,0,1,False,6349.0
0,5ec806f532fe7d2afa2e315b,familiarity,2,rvOvU,YlCPB,0,0,True,2251.0
0,5ec806f532fe7d2afa2e315b,familiarity,3,Yadr,ctkt,0,0,True,1952.0
0,5ec806f532fe7d2afa2e315b,familiarity,4,aONd,cAZu,1,1,True,4057.0
0,5ec806f532fe7d2afa2e315b,familiarity,5,JUG,QGb,0,0,True,1239.0
0,5ec806f532fe7d2afa2e315b,familiarity,6,lBKt,krGu,0,0,True,2679.0
0,5ec806f532fe7d2afa2e315b,familiarity,7,vAuNl,rbYbu,1,0,False,2069.0
0,5ec806f532fe7d2afa2e315b,familiarity,8,vmuLl,adYrc,0,1,False,1475.0
0,5ec806f532fe7d2afa2e315b,familiarity,9,tcYbd,ZkGmY,0,0,True,1303.0
0,5ec806f532fe7d2afa2e315b,familiarity,10,cdKBY,ckdAm,1,0,False,2817.0
0,5ec806f532fe7d2afa2e315b,familiarity,11,PcBT,rkJu,1,1,True,1431.0
0,5ec806f532fe7d2afa2e315b,familiarity,12,NLQGm,dTmED,0,0,True,1295.0
0,5ec806f532fe7d2afa2e315b,familiarity,13,cPK,dUr,0,0,True,1681.0
0,5ec806f532fe7d2afa2e315b,familiarity,14,hlbtb,ckduA,1,0,False,2358.0
0,5ec806f532fe7d2afa2e315b,familiarity,15,DOk,mvG,0,1,False,2165.0
0,5ec806f532fe7d2afa2e315b,familiarity,16,lMck,BEPO,1,0,False,2147.0
0,5ec806f532fe7d2afa2e315b,familiarity,17,mdkK,aYaN,1,1,True,1455.0
0,5ec806f532fe7d2afa2e315b,familiarity,18,RYlD,JrGv,0,0,True,1310.0
0,5ec806f532fe7d2afa2e315b,familiarity,19,OJlN,UJkG,0,1,False,1118.0
0,5ec806f532fe7d2afa2e315b,familiarity,20,YNrAm,CRdBd,0,0,True,1749.0
0,5ec806f532fe7d2afa2e315b,familiarity,21,OdOP,MhKd,0,1,False,2225.0
0,5ec806f532fe7d2afa2e315b,familiarity,22,dRbDb,aNYmb,1,1,True,1109.0
0,5ec806f532fe7d2afa2e315b,familiarity,24,KBKBE,mUOcO,0,0,True,1762.0
0,5ec806f532fe7d2afa2e315b,familiarity,25,BMEMA,EPERd,0,0,True,1586.0
0,5ec806f532fe7d2afa2e315b,familiarity,26,ZYcQU,AmQOY,0,1,False,2577.0
0,5ec806f532fe7d2afa2e315b,familiarity,27,kuvb,bvkr,1,1,True,1961.0
0,5ec806f532fe7d2afa2e315b,familiarity,29,muYN,LUOk,1,0,False,1389.0
0,5ec806f532fe7d2afa2e315b,familiarity,30,uUY,DKP,0,0,True,1089.0
0,5e99d95e0f50aa04266ad4ad,familiarity,1,JmvmO,EltMB,0,0,True,1047.0
0,5e99d95e0f50aa04266ad4ad,familiarity,2,kBD,kbu,1,0,False,1870.0
0,5e99d95e0f50aa04266ad4ad,familiarity,3,LkNc,YOZN,1,1,True,1727.0
0,5e99d95e0f50aa04266ad4ad,familiarity,4,alJY,LuaU,0,0,True,2023.0
0,5e99d95e0f50aa04266ad4ad,familiarity,5,mBbK,kNua,0,0,True,1168.0
0,5e99d95e0f50aa04266ad4ad,familiarity,6,MTdY,kPOt,0,0,True,2143.0
0,5e99d95e0f50aa04266ad4ad,familiarity,7,vAuNl,BOckP,0,1,False,1359.0
0,5e99d95e0f50aa04266ad4ad,familiarity,9,QbkAc,ZkGmY,0,0,True,1478.0
0,5e99d95e0f50aa04266ad4ad,familiarity,10,kKE,Jud,0,0,True,1632.0
0,5e99d95e0f50aa04266ad4ad,familiarity,11,vcb,dBC,0,0,True,1974.0
0,5e99d95e0f50aa04266ad4ad,familiarity,12,thbOM,cDOEB,1,0,False,1568.0
0,5e99d95e0f50aa04266ad4ad,familiarity,13,advYO,ZYcQU,1,1,True,2055.0
0,5e99d95e0f50aa04266ad4ad,familiarity,14,cdKBY,rdLJa,0,0,True,1592.0
0,5e99d95e0f50aa04266ad4ad,familiarity,15,NLQGm,Ldrbv,1,0,False,1791.0
0,5e99d95e0f50aa04266ad4ad,familiarity,16,GUOA,EhRm,0,0,True,1134.0
0,5e99d95e0f50aa04266ad4ad,familiarity,18,mhc,YLU,0,0,True,2183.0
0,5e99d95e0f50aa04266ad4ad,familiarity,19,aUZA,BECk,1,0,False,1694.0
0,5e99d95e0f50aa04266ad4ad,familiarity,20,RCdc,rULv,0,0,True,1785.0
0,5e99d95e0f50aa04266ad4ad,familiarity,21,YlYc,OZkb,0,0,True,2295.0
0,5e99d95e0f50aa04266ad4ad,familiarity,22,RYtkc,dTmED,0,1,False,1543.0
0,5e99d95e0f50aa04266ad4ad,familiarity,23,bGuO,cMRl,1,1,True,2207.0
0,5e99d95e0f50aa04266ad4ad,familiarity,24,UdlGQ,AmQOY,1,0,False,1247.0
0,5e99d95e0f50aa04266ad4ad,familiarity,25,TCbDC,ODBDA,1,0,False,1616.0
0,5e99d95e0f50aa04266ad4ad,familiarity,26,bmbN,dkLl,1,0,False,1143.0
0,5e99d95e0f50aa04266ad4ad,familiarity,27,GQYQ,UJkG,0,1,False,1215.0
0,5e99d95e0f50aa04266ad4ad,familiarity,28,JZr,mCd,1,0,False,1007.0
0,5e99d95e0f50aa04266ad4ad,familiarity,29,KTDTB,ALOrl,0,0,True,1455.0
0,5e99d95e0f50aa04266ad4ad,familiarity,30,TAdhM,damYb,1,0,False,1423.0
0,609568823ff056b77e565445,familiarity,2,lBKt,YOZN,0,1,False,1115.0
0,609568823ff056b77e565445,familiarity,3,BKDRY,cROMt,1,1,True,1907.0
0,609568823ff056b77e565445,familiarity,4,UaZma,advYO,0,0,True,1054.0
0,609568823ff056b77e565445,familiarity,5,NkUA,LUOk,1,1,True,683.0
0,609568823ff056b77e565445,familiarity,6,mhc,Glu,1,0,False,1649.0
0,609568823ff056b77e565445,familiarity,7,CPMl,lMck,1,1,True,1637.0
0,609568823ff056b77e565445,familiarity,8,Zvalv,vAuNl,1,0,False,2873.0
0,609568823ff056b77e565445,familiarity,9,mBbK,bROC,0,1,False,1455.0
0,609568823ff056b77e565445,familiarity,10,rZYd,TdTD,0,1,False,1574.0
0,609568823ff056b77e565445,familiarity,11,bdtK,BCAd,0,1,False,1858.0
0,609568823ff056b77e565445,familiarity,12,RdPtD,lbBDE,0,0,True,747.0
0,609568823ff056b77e565445,familiarity,13,mdkK,YObA,1,0,False,1357.0
0,609568823ff056b77e565445,familiarity,14,OMC,tAY,1,1,True,1784.0
0,609568823ff056b77e565445,familiarity,15,kulZ,bcOR,0,1,False,1093.0
0,609568823ff056b77e565445,familiarity,16,QONk,lGZv,0,0,True,2635.0
0,609568823ff056b77e565445,familiarity,17,QLrOJ,OAblc,0,0,True,3273.0
0,609568823ff056b77e565445,familiarity,18,Nulk,GAcY,1,0,False,1232.0
0,609568823ff056b77e565445,familiarity,19,YUYa,NJZl,0,0,True,1468.0
0,609568823ff056b77e565445,familiarity,20,QvlZ,dmRb,0,1,False,680.0
0,609568823ff056b77e565445,familiarity,21,JmNk,PYkC,1,0,False,547.0
0,609568823ff056b77e565445,familiarity,22,PCPDh,rcmuv,0,0,True,1282.0
0,609568823ff056b77e565445,familiarity,23,KABA,Abka,1,1,True,555.0
0,609568823ff056b77e565445,familiarity,24,ZdlO,JauQ,1,0,False,824.0
0,609568823ff056b77e565445,familiarity,25,tmtEM,tDPRk,0,0,True,775.0
0,609568823ff056b77e565445,familiarity,26,EAO,lvk,1,0,False,1023.0
0,609568823ff056b77e565445,familiarity,27,EMbDP,hlbtb,1,0,False,834.0
0,609568823ff056b77e565445,familiarity,29,TKDk,tmYh,1,1,True,730.0
0,609568823ff056b77e565445,familiarity,30,JNka,RYlD,0,1,False,1021.0
0,613d091096ca434d703f77c5,familiarity,1,RKYk,YArG,1,1,True,3222.0
0,613d091096ca434d703f77c5,familiarity,2,lMck,MTdY,0,0,True,1535.0
0,613d091096ca434d703f77c5,familiarity,3,tDPRk,AZaJc,0,0,True,1310.0
0,613d091096ca434d703f77c5,familiarity,4,KOYC,DhCP,0,1,False,1064.0
0,613d091096ca434d703f77c5,familiarity,5,YlCPB,NaAQd,1,1,True,1190.0
0,613d091096ca434d703f77c5,familiarity,6,mZb,JUG,1,1,True,1575.0
0,613d091096ca434d703f77c5,familiarity,7,UdYUQ,btlck,1,0,False,2311.0
0,613d091096ca434d703f77c5,familiarity,8,AdDb,GQYQ,1,0,False,1495.0
0,613d091096ca434d703f77c5,familiarity,9,PMYm,OMlT,0,0,True,831.0
0,613d091096ca434d703f77c5,familiarity,10,DKP,KmE,0,0,True,2030.0
0,613d091096ca434d703f77c5,familiarity,11,dvNvA,ObOQl,0,1,False,1767.0
0,613d091096ca434d703f77c5,familiarity,12,PEtE,aONd,1,1,True,1015.0
0,613d091096ca434d703f77c5,familiarity,13,LuNZ,kZUb,1,1,True,1695.0
0,613d091096ca434d703f77c5,familiarity,14,cbm,cUN,0,1,False,1975.0
0,613d091096ca434d703f77c5,familiarity,15,lRckA,bNdmG,0,0,True,1615.0
0,613d091096ca434d703f77c5,familiarity,17,YkZ,YLU,1,1,True,1831.0
0,613d091096ca434d703f77c5,familiarity,18,LdQv,JAaG,0,1,False,1199.0
0,613d091096ca434d703f77c5,familiarity,19,hYDmt,LOLkU,1,1,True,1215.0
0,613d091096ca434d703f77c5,familiarity,20,bvkr,dYAJ,0,0,True,1319.0
0,613d091096ca434d703f77c5,familiarity,21,OAmGr,UdlGQ,1,0,False,1135.0
0,613d091096ca434d703f77c5,familiarity,22,YOaAb,ECtbD,0,1,False,951.0
0,613d091096ca434d703f77c5,familiarity,23,DOAK,JUNa,0,0,True,1295.0
0,613d091096ca434d703f77c5,familiarity,24,blMk,Ehbt,0,1,False,1087.0
0,613d091096ca434d703f77c5,familiarity,25,mLJ,bRC,1,1,True,1502.0
0,613d091096ca434d703f77c5,familiarity,26,hlctE,ubALm,0,0,True,393.0
0,613d091096ca434d703f77c5,familiarity,27,uvaU,OQAr,0,1,False,1366.0
0,613d091096ca434d703f77c5,familiarity,29,laYmr,DRPkY,0,0,True,1567.0
0,613d091096ca434d703f77c5,familiarity,30,ODBDA,kdaAJ,1,1,True,1375.0
0,5e82e99b37d333a1474dda93,familiarity,1,DbMR,KOYC,1,1,True,1821.0
0,5e82e99b37d333a1474dda93,familiarity,2,KdAR,YmBd,0,1,False,1887.0
0,5e82e99b37d333a1474dda93,familiarity,3,UJmr,mBbK,1,1,True,3532.0
0,5e82e99b37d333a1474dda93,familiarity,4,bLd,mkc,1,0,False,3384.0
0,5e82e99b37d333a1474dda93,familiarity,6,vblr,CmYA,1,1,True,1355.0
0,5e82e99b37d333a1474dda93,familiarity,7,DBlh,hChY,1,1,True,2565.0
0,5e82e99b37d333a1474dda93,familiarity,8,ark,UbG,0,1,False,2411.0
0,5e82e99b37d333a1474dda93,familiarity,9,YKRk,EdBb,1,1,True,2990.0
0,5e82e99b37d333a1474dda93,familiarity,10,rvOvU,hlbtb,1,0,False,2285.0
0,5e82e99b37d333a1474dda93,familiarity,12,bYuQ,ALGZ,1,1,True,2287.0
0,5e82e99b37d333a1474dda93,familiarity,13,dNZA,GUOA,1,1,True,1463.0
0,5e82e99b37d333a1474dda93,familiarity,14,lvk,Arv,1,1,True,1492.0
0,5e82e99b37d333a1474dda93,familiarity,15,bAMO,JauQ,0,0,True,2519.0
0,5e82e99b37d333a1474dda93,familiarity,16,khmh,KMOc,0,0,True,1228.0
0,5e82e99b37d333a1474dda93,familiarity,17,MBmE,DlDT,0,1,False,1628.0
0,5e82e99b37d333a1474dda93,familiarity,18,PED,uZc,0,1,False,1837.0
0,5e82e99b37d333a1474dda93,familiarity,19,TmTm,lBlE,1,0,False,1804.0
0,5e82e99b37d333a1474dda93,familiarity,20,lRCB,AMkC,0,1,False,2511.0
0,5e82e99b37d333a1474dda93,familiarity,21,dKDth,KMDYt,1,1,True,3520.0
0,5e82e99b37d333a1474dda93,familiarity,22,alJY,BYhT,0,0,True,2252.0
0,5e82e99b37d333a1474dda93,familiarity,23,YuaNd,AZaJc,0,0,True,1388.0
0,5e82e99b37d333a1474dda93,familiarity,24,htmhC,BOckP,1,1,True,1405.0
0,5e82e99b37d333a1474dda93,familiarity,25,Akd,kKE,0,1,False,1734.0
0,5e82e99b37d333a1474dda93,familiarity,26,JcUk,NJZl,1,0,False,2233.0
0,5e82e99b37d333a1474dda93,familiarity,27,PCMPK,dvNvA,0,1,False,1552.0
0,5e82e99b37d333a1474dda93,familiarity,28,ZdNmU,OYuvb,1,1,True,2157.0
0,5e82e99b37d333a1474dda93,familiarity,29,ukcY,ravu,0,1,False,1189.0
0,5e82e99b37d333a1474dda93,familiarity,30,Phktk,DBPhc,1,1,True,1424.0
0,59aaf4b1321f870001d16f6c,familiarity,1,bmbN,aUZA,1,1,True,2067.0
0,59aaf4b1321f870001d16f6c,familiarity,2,htmhC,lbBDE,0,0,True,1306.0
0,59aaf4b1321f870001d16f6c,familiarity,3,kPOt,PYkC,0,1,False,1336.0
0,59aaf4b1321f870001d16f6c,familiarity,4,ZYcQU,ZdNmU,1,1,True,1990.0
0,59aaf4b1321f870001d16f6c,familiarity,5,bGuO,RKYk,0,0,True,1367.0
0,59aaf4b1321f870001d16f6c,familiarity,6,cDR,JZr,0,1,False,1559.0
0,59aaf4b1321f870001d16f6c,familiarity,7,OdOP,YbBT,1,0,False,1205.0
0,59aaf4b1321f870001d16f6c,familiarity,8,AdDb,YZUZ,1,0,False,855.0
0,59aaf4b1321f870001d16f6c,familiarity,10,kJdr,Udbd,0,0,True,353.0
0,59aaf4b1321f870001d16f6c,familiarity,11,LQur,UaYL,1,0,False,350.0
0,59aaf4b1321f870001d16f6c,familiarity,12,crdY,vAvb,0,0,True,167.0
0,59aaf4b1321f870001d16f6c,familiarity,13,PEkhA,BOCRM,0,1,False,244.0
0,59aaf4b1321f870001d16f6c,familiarity,14,MhKd,AdYl,0,1,False,370.0
0,59aaf4b1321f870001d16f6c,familiarity,15,LAclA,PDPhl,0,0,True,314.0
0,59aaf4b1321f870001d16f6c,familiarity,16,Ctmb,RCcE,1,1,True,264.0
0,59aaf4b1321f870001d16f6c,familiarity,17,tKDmh,AlQaQ,1,0,False,92.0
0,59aaf4b1321f870001d16f6c,familiarity,18,JdOAY,ZJLmr,1,1,True,122.0
0,59aaf4b1321f870001d16f6c,familiarity,19,QGb,PED,1,0,False,71.0
0,59aaf4b1321f870001d16f6c,familiarity,20,YDE,EAO,1,1,True,79.0
0,59aaf4b1321f870001d16f6c,familiarity,21,OtM,OBT,0,0,True,94.0
0,59aaf4b1321f870001d16f6c,familiarity,22,MkmEd,ODBDA,0,1,False,60.0
0,59aaf4b1321f870001d16f6c,familiarity,23,vYLU,YZJO,1,0,False,114.0
0,59aaf4b1321f870001d16f6c,familiarity,24,COTK,YlYc,1,1,True,41.0
0,59aaf4b1321f870001d16f6c,familiarity,25,vQdO,adkr,0,0,True,377.0
0,59aaf4b1321f870001d16f6c,familiarity,26,YcM,lRE,1,1,True,204.0
0,59aaf4b1321f870001d16f6c,familiarity,27,ZcGdN,dClOC,0,0,True,131.0
0,59aaf4b1321f870001d16f6c,familiarity,28,JUNa,tdDd,0,1,False,932.0
0,59aaf4b1321f870001d16f6c,familiarity,29,EYtYR,DOchl,0,0,True,333.0
0,648b962b8fdb1fa686213ac1,familiarity,1,uZc,lRE,1,0,False,11693.0
0,648b962b8fdb1fa686213ac1,familiarity,2,ZvkL,bAMO,1,1,True,6228.0
0,648b962b8fdb1fa686213ac1,familiarity,3,Jud,APT,0,1,False,6878.0
0,648b962b8fdb1fa686213ac1,familiarity,5,OYuvb,EMbDP,0,0,True,11395.0
0,648b962b8fdb1fa686213ac1,familiarity,7,AlUY,YJkb,1,0,False,10939.0
0,648b962b8fdb1fa686213ac1,familiarity,8,AmQOY,Cchtd,1,1,True,7959.0
0,648b962b8fdb1fa686213ac1,familiarity,9,MAB,tRb,1,1,True,11492.0
0,648b962b8fdb1fa686213ac1,familiarity,10,AlTd,dkLl,1,1,True,13061.0
0,648b962b8fdb1fa686213ac1,familiarity,11,ZcGdN,aOLZU,1,0,False,21958.0
0,648b962b8fdb1fa686213ac1,familiarity,12,BCD,JQA,0,0,True,5121.0
0,648b962b8fdb1fa686213ac1,familiarity,13,hlkT,YKPB,0,1,False,11999.0
0,648b962b8fdb1fa686213ac1,familiarity,14,KBKBE,MBKRE,1,0,False,12210.0
0,648b962b8fdb1fa686213ac1,familiarity,15,ZAUu,CYPc,0,1,False,2942.0
0,648b962b8fdb1fa686213ac1,familiarity,16,lKdbc,kabJb,0,0,True,4370.0
0,648b962b8fdb1fa686213ac1,familiarity,17,uvaU,OMlT,0,0,True,8360.0
0,648b962b8fdb1fa686213ac1,familiarity,18,aYQm,lmbY,1,1,True,8307.0
0,648b962b8fdb1fa686213ac1,familiarity,19,rvOvU,KRARm,1,1,True,2776.0
0,648b962b8fdb1fa686213ac1,familiarity,20,BRDh,AdDb,0,0,True,3509.0
0,648b962b8fdb1fa686213ac1,familiarity,21,htmhC,YNrAm,1,1,True,7075.0
0,648b962b8fdb1fa686213ac1,familiarity,22,lBKt,TPOM,0,0,True,4187.0
0,648b962b8fdb1fa686213ac1,familiarity,23,JNka,lGZv,0,1,False,9613.0
0,648b962b8fdb1fa686213ac1,familiarity,24,ckLAL,tDPRk,0,0,True,4132.0
0,648b962b8fdb1fa686213ac1,familiarity,25,dmZvm,BATOc,1,0,False,6251.0
0,648b962b8fdb1fa686213ac1,familiarity,26,dYAJ,ctkt,0,0,True,2506.0
0,648b962b8fdb1fa686213ac1,familiarity,27,BCAd,dTAh,0,1,False,9243.0
0,648b962b8fdb1fa686213ac1,familiarity,28,TbKME,bmdAB,1,1,True,12477.0
0,648b962b8fdb1fa686213ac1,familiarity,29,hkRK,COTK,0,1,False,4579.0
0,648b962b8fdb1fa686213ac1,familiarity,30,OCmk,hRKm,0,1,False,3516.0
0,611d33d7cc16fdd812b1a4c4,familiarity,1,QOLmu,CkBOP,1,1,True,3929.0
0,611d33d7cc16fdd812b1a4c4,familiarity,2,bYuQ,PEdK,0,1,False,3032.0
0,611d33d7cc16fdd812b1a4c4,familiarity,3,JrGv,OJGQ,0,0,True,2507.0
0,611d33d7cc16fdd812b1a4c4,familiarity,4,Cchtd,DRPkY,0,0,True,2261.0
0,611d33d7cc16fdd812b1a4c4,familiarity,5,AlKD,YDTk,1,0,False,1730.0
0,611d33d7cc16fdd812b1a4c4,familiarity,6,OQarQ,rdLJa,1,0,False,2381.0
0,611d33d7cc16fdd812b1a4c4,familiarity,7,JauQ,bAMO,0,1,False,1688.0
0,611d33d7cc16fdd812b1a4c4,familiarity,8,EhRm,OkGY,0,0,True,1984.0
0,611d33d7cc16fdd812b1a4c4,familiarity,9,JUNa,LdQv,0,1,False,2802.0
0,611d33d7cc16fdd812b1a4c4,familiarity,10,dKRD,NQZv,1,1,True,1728.0
0,611d33d7cc16fdd812b1a4c4,familiarity,11,Ldrbv,PctRC,1,0,False,1451.0
0,611d33d7cc16fdd812b1a4c4,familiarity,12,Tmc,rba,1,1,True,2520.0
0,611d33d7cc16fdd812b1a4c4,familiarity,13,Glu,cbm,1,1,True,3073.0
0,611d33d7cc16fdd812b1a4c4,familiarity,14,ABb,mZb,1,1,True,2002.0
0,611d33d7cc16fdd812b1a4c4,familiarity,15,hChY,OJlN,1,1,True,1274.0
0,611d33d7cc16fdd812b1a4c4,familiarity,16,EMYK,Zckv,0,0,True,3010.0
0,611d33d7cc16fdd812b1a4c4,familiarity,18,LcO,OcN,1,1,True,1786.0
0,611d33d7cc16fdd812b1a4c4,familiarity,19,kbu,YBO,1,1,True,2013.0
0,611d33d7cc16fdd812b1a4c4,familiarity,21,McMD,alJY,0,0,True,5039.0
0,611d33d7cc16fdd812b1a4c4,familiarity,22,TPCb,OZkb,1,1,True,3636.0
0,611d33d7cc16fdd812b1a4c4,familiarity,23,aOLZU,NbmQU,0,1,False,3031.0
0,611d33d7cc16fdd812b1a4c4,familiarity,24,NbacA,OmtlD,0,0,True,1480.0
0,611d33d7cc16fdd812b1a4c4,familiarity,25,mBbK,AlNU,0,1,False,5495.0
0,611d33d7cc16fdd812b1a4c4,familiarity,26,Amacl,TCbDC,0,1,False,2249.0
0,611d33d7cc16fdd812b1a4c4,familiarity,27,hTtBb,kPkRA,0,1,False,3144.0
0,611d33d7cc16fdd812b1a4c4,familiarity,28,hBK,BbM,1,1,True,1767.0
0,611d33d7cc16fdd812b1a4c4,familiarity,29,cYUv,ZdlO,0,0,True,1987.0
0,611d33d7cc16fdd812b1a4c4,familiarity,30,GAcY,hRKm,1,0,False,1680.0
0,5f5282f98bb76c54f2c603a7,familiarity,1,NYZu,YDTk,1,0,False,4605.0
0,5f5282f98bb76c54f2c603a7,familiarity,2,ktBd,YUYa,1,0,False,1165.0
0,5f5282f98bb76c54f2c603a7,familiarity,3,JUNa,UdvY,1,1,True,1338.0
0,5f5282f98bb76c54f2c603a7,familiarity,4,mhtc,kPOt,0,0,True,906.0
0,5f5282f98bb76c54f2c603a7,familiarity,5,RlAKc,tcYbd,0,1,False,1045.0
0,5f5282f98bb76c54f2c603a7,familiarity,6,PEdK,badk,1,0,False,1161.0
0,5f5282f98bb76c54f2c603a7,familiarity,7,mbZl,uAkr,0,0,True,984.0
0,5f5282f98bb76c54f2c603a7,familiarity,8,TCbDC,ZYcQU,1,1,True,1646.0
0,5f5282f98bb76c54f2c603a7,familiarity,9,GNAca,MBKRE,1,1,True,965.0
0,5f5282f98bb76c54f2c603a7,familiarity,10,vJQ,dUr,0,1,False,2137.0
0,5f5282f98bb76c54f2c603a7,familiarity,11,YDE,KmE,0,0,True,822.0
0,5f5282f98bb76c54f2c603a7,familiarity,12,lAOKM,dKDth,1,0,False,999.0
0,5f5282f98bb76c54f2c603a7,familiarity,13,mBmlA,ODBDA,1,0,False,1643.0
0,5f5282f98bb76c54f2c603a7,familiarity,14,DmAME,bdUNu,0,1,False,1510.0
0,5f5282f98bb76c54f2c603a7,familiarity,15,NbacA,ObZbA,0,0,True,1046.0
0,5f5282f98bb76c54f2c603a7,familiarity,16,dmZvm,dMThk,0,0,True,1553.0
0,5f5282f98bb76c54f2c603a7,familiarity,17,YTOM,hChY,0,0,True,907.0
0,5f5282f98bb76c54f2c603a7,familiarity,18,Udbd,kdrO,0,0,True,1321.0
0,5f5282f98bb76c54f2c603a7,familiarity,19,bdtK,AMkC,1,1,True,985.0
0,5f5282f98bb76c54f2c603a7,familiarity,20,ckduA,mUOcO,1,0,False,1036.0
0,5f5282f98bb76c54f2c603a7,familiarity,22,mdla,UrOQ,1,1,True,1124.0
0,5f5282f98bb76c54f2c603a7,familiarity,23,AZaJc,hlbtb,1,0,False,2047.0
0,5f5282f98bb76c54f2c603a7,familiarity,25,vcb,lGc,0,0,True,979.0
0,5f5282f98bb76c54f2c603a7,familiarity,26,aUZA,LdQv,1,1,True,2389.0
0,5f5282f98bb76c54f2c603a7,familiarity,27,LQur,rvUb,0,0,True,1993.0
0,5f5282f98bb76c54f2c603a7,familiarity,28,TdTD,YJkb,0,1,False,929.0
0,5f5282f98bb76c54f2c603a7,familiarity,29,tdDd,OEPk,1,1,True,1035.0
0,5f5282f98bb76c54f2c603a7,familiarity,30,QvlZ,TmTm,1,0,False,849.0
0,5b715800b31d480001eda165,familiarity,2,lBlE,chAh,1,1,True,996.0
0,5b715800b31d480001eda165,familiarity,3,YKPB,kcOY,1,1,True,1073.0
0,5b715800b31d480001eda165,familiarity,4,vmuLl,ZdNmU,1,1,True,1220.0
0,5b715800b31d480001eda165,familiarity,5,LvuOG,hmKPM,1,1,True,1227.0
0,5b715800b31d480001eda165,familiarity,6,mdla,GJZm,1,1,True,1204.0
0,5b715800b31d480001eda165,familiarity,7,ABPRB,vkYGl,1,1,True,1446.0
0,5b715800b31d480001eda165,familiarity,8,kGamN,kPkRA,1,0,False,1090.0
0,5b715800b31d480001eda165,familiarity,9,KABA,dkLl,0,0,True,1121.0
0,5b715800b31d480001eda165,familiarity,10,OEPk,Zckv,1,1,True,1308.0
0,5b715800b31d480001eda165,familiarity,11,hlbtb,ZJLmr,1,0,False,1224.0
0,5b715800b31d480001eda165,familiarity,12,YDE,dUr,1,0,False,1541.0
0,5b715800b31d480001eda165,familiarity,13,DbMR,LkNc,0,0,True,1674.0
0,5b715800b31d480001eda165,familiarity,14,kcdOt,ZYcQU,1,0,False,1658.0
0,5b715800b31d480001eda165,familiarity,15,TRkY,mcOJ,0,1,False,933.0
0,5b715800b31d480001eda165,familiarity,16,EPERd,aLNlk,0,0,True,1089.0
0,5b715800b31d480001eda165,familiarity,17,YmBd,GZJY,0,1,False,1602.0
0,5b715800b31d480001eda165,familiarity,18,JQA,BCD,1,0,False,1285.0
0,5b715800b31d480001eda165,familiarity,19,mLJ,kmU,0,0,True,1439.0
0,5b715800b31d480001eda165,familiarity,20,OAmAd,KBKBE,0,0,True,1111.0
0,5b715800b31d480001eda165,familiarity,22,mkc,tAY,1,1,True,1106.0
0,5b715800b31d480001eda165,familiarity,23,tcYbd,YNrAm,0,1,False,1147.0
0,5b715800b31d480001eda165,familiarity,24,ZAUu,KlkD,1,0,False,1577.0
0,5b715800b31d480001eda165,familiarity,25,kbmZO,DBPhc,0,1,False,988.0
0,5b715800b31d480001eda165,familiarity,26,Abka,OJNk,0,0,True,984.0
0,5b715800b31d480001eda165,familiarity,27,lZcu,ALGZ,1,0,False,946.0
0,5b715800b31d480001eda165,familiarity,28,TAm,UbG,0,0,True,985.0
0,5b715800b31d480001eda165,familiarity,29,OkGY,kKRC,1,1,True,1013.0
0,5b715800b31d480001eda165,familiarity,30,uQkrd,MkmEd,1,1,True,889.0
0,5c5baaec192d350001d5c8e4,familiarity,1,kdaAJ,TCbDC,1,1,True,1840.0
0,5c5baaec192d350001d5c8e4,familiarity,2,OQAr,LdQv,0,0,True,1583.0
0,5c5baaec192d350001d5c8e4,familiarity,3,PEkhA,DOchl,1,1,True,1464.0
0,5c5baaec192d350001d5c8e4,familiarity,4,COTK,GJZm,0,0,True,1168.0
0,5c5baaec192d350001d5c8e4,familiarity,5,QLrOJ,GNAca,0,0,True,904.0
0,5c5baaec192d350001d5c8e4,familiarity,6,dNZA,khMD,1,1,True,2168.0
0,5c5baaec192d350001d5c8e4,familiarity,7,YuaNd,tcYbd,1,0,False,1272.0
0,5c5baaec192d350001d5c8e4,familiarity,8,TPCb,OdOP,0,0,True,1704.0
0,5c5baaec192d350001d5c8e4,familiarity,9,kYL,kam,1,0,False,1312.0
0,5c5baaec192d350001d5c8e4,familiarity,10,Phktk,DBPhc,0,0,True,1224.0
0,5c5baaec192d350001d5c8e4,familiarity,11,EMYK,aONd,0,0,True,1056.0
0,5c5baaec192d350001d5c8e4,familiarity,12,PEtE,BRDh,0,0,True,1272.0
0,5c5baaec192d350001d5c8e4,familiarity,13,bcbM,blMk,0,0,True,1104.0
0,5c5baaec192d350001d5c8e4,familiarity,15,Qclad,uQuZc,0,0,True,1911.0
0,5c5baaec192d350001d5c8e4,familiarity,16,BPAl,KMOc,1,0,False,2263.0
0,5c5baaec192d350001d5c8e4,familiarity,17,OPE,PTl,0,0,True,1584.0
0,5c5baaec192d350001d5c8e4,familiarity,18,ZdNmU,Juaml,1,1,True,1280.0
0,5c5baaec192d350001d5c8e4,familiarity,19,mtKP,lMck,1,1,True,1272.0
0,5c5baaec192d350001d5c8e4,familiarity,20,krGu,YZJm,0,1,False,976.0
0,5c5baaec192d350001d5c8e4,familiarity,21,rULv,lcOc,0,1,False,1624.0
0,5c5baaec192d350001d5c8e4,familiarity,22,KTDTB,BMEMA,0,1,False,2000.0
0,5c5baaec192d350001d5c8e4,familiarity,23,lmbY,OcZJ,0,1,False,1231.0
0,5c5baaec192d350001d5c8e4,familiarity,24,mAM,dUr,0,0,True,1104.0
0,5c5baaec192d350001d5c8e4,familiarity,25,YbBT,CmYA,0,0,True,1776.0
0,5c5baaec192d350001d5c8e4,familiarity,26,mCd,YNu,0,1,False,1736.0
0,5c5baaec192d350001d5c8e4,familiarity,27,cUN,Cdt,1,0,False,928.0
0,5c5baaec192d350001d5c8e4,familiarity,28,lKdbc,YJLcA,1,0,False,1279.0
0,5c5baaec192d350001d5c8e4,familiarity,29,ZNLOv,kdEdY,1,1,True,1640.0
0,5fbbdd11ff4568d9cc3536fb,familiarity,2,OtlR,GUOA,0,0,True,2478.0
0,5fbbdd11ff4568d9cc3536fb,familiarity,3,UdvY,AbKD,0,0,True,1323.0
0,5fbbdd11ff4568d9cc3536fb,familiarity,4,vkYGl,KBKBE,1,1,True,2007.0
0,5fbbdd11ff4568d9cc3536fb,familiarity,5,AlQaQ,MBKRE,1,0,False,1245.0
0,5fbbdd11ff4568d9cc3536fb,familiarity,7,TdTD,lcOc,1,0,False,988.0
0,5fbbdd11ff4568d9cc3536fb,familiarity,8,JAdLm,UaZma,0,0,True,1587.0
0,5fbbdd11ff4568d9cc3536fb,familiarity,9,YbBT,OJNk,1,0,False,1361.0
0,5fbbdd11ff4568d9cc3536fb,familiarity,10,Abka,ALGZ,1,1,True,1395.0
0,5fbbdd11ff4568d9cc3536fb,familiarity,11,PTl,KmE,0,1,False,1199.0
0,5fbbdd11ff4568d9cc3536fb,familiarity,12,UJkG,kdrO,1,0,False,1053.0
0,5fbbdd11ff4568d9cc3536fb,familiarity,13,CYPc,Grbk,1,1,True,708.0
0,5fbbdd11ff4568d9cc3536fb,familiarity,14,Amacl,dTmED,0,1,False,579.0
0,5fbbdd11ff4568d9cc3536fb,familiarity,15,NAacQ,tKDmh,0,0,True,1848.0
0,5fbbdd11ff4568d9cc3536fb,familiarity,16,mdkK,bROC,0,1,False,1205.0
0,5fbbdd11ff4568d9cc3536fb,familiarity,17,Cchtd,kKEdM,1,0,False,838.0
0,5fbbdd11ff4568d9cc3536fb,familiarity,18,JZr,cDR,0,1,False,957.0
0,5fbbdd11ff4568d9cc3536fb,familiarity,19,EcR,mZb,0,0,True,985.0
0,5fbbdd11ff4568d9cc3536fb,familiarity,20,YaOk,CmcO,1,0,False,1902.0
0,5fbbdd11ff4568d9cc3536fb,familiarity,21,PlEK,kCRm,1,1,True,1334.0
0,5fbbdd11ff4568d9cc3536fb,familiarity,22,TRK,mCd,1,0,False,535.0
0,5fbbdd11ff4568d9cc3536fb,familiarity,23,tDPRk,ABPRB,0,0,True,785.0
0,5fbbdd11ff4568d9cc3536fb,familiarity,24,LdQv,ArQu,0,1,False,327.0
0,5fbbdd11ff4568d9cc3536fb,familiarity,25,YUYa,UJmr,0,1,False,808.0
0,5fbbdd11ff4568d9cc3536fb,familiarity,26,kGamN,EltMB,0,1,False,169.0
0,5fbbdd11ff4568d9cc3536fb,familiarity,27,JcL,JUG,1,0,False,1845.0
0,5fbbdd11ff4568d9cc3536fb,familiarity,28,NaJb,MKmY,1,0,False,1318.0
0,5fbbdd11ff4568d9cc3536fb,familiarity,29,hCkt,EPBT,1,1,True,1161.0
0,5fbbdd11ff4568d9cc3536fb,familiarity,30,KMOc,Udbd,0,1,False,966.0
0,5eff6828a958150135ede8a4,familiarity,1,kJdr,vclY,1,1,True,6696.0
0,5eff6828a958150135ede8a4,familiarity,2,NaAQd,RkmdC,0,0,True,2559.0
0,5eff6828a958150135ede8a4,familiarity,3,NmAG,kPOt,0,1,False,1228.0
0,5eff6828a958150135ede8a4,familiarity,4,UYZlZ,Phktk,1,0,False,1054.0
0,5eff6828a958150135ede8a4,familiarity,5,tdDd,YaOk,1,1,True,1706.0
0,5eff6828a958150135ede8a4,familiarity,7,DmAME,lYrua,1,1,True,1337.0
0,5eff6828a958150135ede8a4,familiarity,8,PDPhl,dRbDb,1,1,True,1238.0
0,5eff6828a958150135ede8a4,familiarity,9,bAdk,Yadr,0,0,True,1495.0
0,5eff6828a958150135ede8a4,familiarity,10,MBKRE,DOchl,0,0,True,1589.0
0,5eff6828a958150135ede8a4,familiarity,11,LAclA,hmKPM,1,0,False,2125.0
0,5eff6828a958150135ede8a4,familiarity,12,ukbY,EhRm,1,0,False,1907.0
0,5eff6828a958150135ede8a4,familiarity,13,DKP,Nac,1,1,True,1154.0
0,5eff6828a958150135ede8a4,familiarity,14,YLQmG,hYDmt,1,0,False,1691.0
0,5eff6828a958150135ede8a4,familiarity,15,OLJbl,htmhC,1,1,True,2468.0
0,5eff6828a958150135ede8a4,familiarity,16,vQdO,OdYP,0,1,False,1020.0
0,5eff6828a958150135ede8a4,familiarity,17,ukYZ,mdkK,0,0,True,3051.0
0,5eff6828a958150135ede8a4,familiarity,18,MKmY,OcYM,1,1,True,1918.0
0,5eff6828a958150135ede8a4,familiarity,20,NvuGr,ckdAm,1,0,False,2917.0
0,5eff6828a958150135ede8a4,familiarity,21,lGZv,kDOm,1,0,False,1657.0
0,5eff6828a958150135ede8a4,familiarity,22,KlkD,vYLU,1,1,True,1370.0
0,5eff6828a958150135ede8a4,familiarity,23,KTDTB,OQarQ,1,1,True,1779.0
0,5eff6828a958150135ede8a4,familiarity,24,PctRC,bdUNu,1,0,False,4689.0
0,5eff6828a958150135ede8a4,familiarity,25,DhMt,GUOA,0,0,True,979.0
0,5eff6828a958150135ede8a4,familiarity,26,AMkC,dRht,0,1,False,1991.0
0,5eff6828a958150135ede8a4,familiarity,27,YLU,OBT,1,0,False,1916.0
0,5eff6828a958150135ede8a4,familiarity,28,YZJm,EPBT,1,0,False,833.0
0,5eff6828a958150135ede8a4,familiarity,29,YBO,Tbk,1,0,False,3443.0
0,5eff6828a958150135ede8a4,familiarity,30,uUY,UbG,1,1,True,1203.0
0,58f50400f4ce600001016db5,familiarity,1,lcOc,dmkv,0,0,True,2214.0
0,58f50400f4ce600001016db5,familiarity,2,kbu,BCD,1,0,False,1947.0
0,58f50400f4ce600001016db5,familiarity,3,khMD,LUOk,0,1,False,1385.0
0,58f50400f4ce600001016db5,familiarity,4,QcQAJ,tDPRk,1,1,True,997.0
0,58f50400f4ce600001016db5,familiarity,5,tmAK,blMk,0,0,True,1394.0
0,58f50400f4ce600001016db5,familiarity,6,dKRD,GZJY,1,0,False,2167.0
0,58f50400f4ce600001016db5,familiarity,7,AlNU,LYGA,0,1,False,2024.0
0,58f50400f4ce600001016db5,familiarity,8,Amacl,DcPTc,1,0,False,1827.0
0,58f50400f4ce600001016db5,familiarity,9,OAmAd,YJLcA,0,1,False,1790.0
0,58f50400f4ce600001016db5,familiarity,10,KABA,CmYA,0,1,False,1449.0
0,58f50400f4ce600001016db5,familiarity,11,vmuLl,NbacA,0,1,False,1644.0
0,58f50400f4ce600001016db5,familiarity,12,YcM,lvk,0,0,True,1751.0
0,58f50400f4ce600001016db5,familiarity,13,vclY,hRKm,1,1,True,1576.0
0,58f50400f4ce600001016db5,familiarity,14,UaZma,NvuGr,0,1,False,990.0
0,58f50400f4ce600001016db5,familiarity,15,YQbc,UaYL,0,1,False,909.0
0,58f50400f4ce600001016db5,familiarity,16,EPBT,RdCc,1,0,False,887.0
0,58f50400f4ce600001016db5,familiarity,17,rdLJa,kMbTR,0,0,True,823.0
0,58f50400f4ce600001016db5,familiarity,19,cDOEB,cBROB,1,1,True,1506.0
0,58f50400f4ce600001016db5,familiarity,20,LkNc,uvaU,1,1,True,1776.0
0,58f50400f4ce600001016db5,familiarity,21,QGb,UbG,1,1,True,990.0
0,58f50400f4ce600001016db5,familiarity,22,tcB,bRC,0,0,True,961.0
0,58f50400f4ce600001016db5,familiarity,23,kDRKc,RYtkc,1,1,True,1123.0
0,58f50400f4ce600001016db5,familiarity,24,KDPA,tRPD,1,0,False,864.0
0,58f50400f4ce600001016db5,familiarity,25,BEPO,hTDd,1,0,False,1267.0
0,58f50400f4ce600001016db5,familiarity,26,CYPc,rvAJ,1,0,False,2176.0
0,58f50400f4ce600001016db5,familiarity,27,Avdk,mdkK,1,0,False,1450.0
0,58f50400f4ce600001016db5,familiarity,28,rULv,krUQ,0,1,False,1082.0
0,58f50400f4ce600001016db5,familiarity,30,YOZN,QONk,1,0,False,1164.0
0,61533ead92c280c34cc22482,familiarity,1,CDEmY,BOckP,1,1,True,1393.0
0,61533ead92c280c34cc22482,familiarity,2,KDPA,NYZu,1,1,True,1027.0
0,61533ead92c280c34cc22482,familiarity,3,crdY,Yadr,0,0,True,1224.0
0,61533ead92c280c34cc22482,familiarity,4,dRA,Ald,0,1,False,1071.0
0,61533ead92c280c34cc22482,familiarity,5,AmQOY,OAmAd,1,1,True,1802.0
0,61533ead92c280c34cc22482,familiarity,6,UAcdu,dTmED,0,1,False,1368.0
0,61533ead92c280c34cc22482,familiarity,7,lmbY,ACcO,1,0,False,1565.0
0,61533ead92c280c34cc22482,familiarity,9,JZr,hBK,0,1,False,1597.0
0,61533ead92c280c34cc22482,familiarity,10,MDKP,bAdk,0,1,False,1915.0
0,61533ead92c280c34cc22482,familiarity,11,CkBOP,vuJZu,1,1,True,1553.0
0,61533ead92c280c34cc22482,familiarity,12,DbMR,OcYM,0,0,True,1598.0
0,61533ead92c280c34cc22482,familiarity,13,tmAK,TklD,1,1,True,1099.0
0,61533ead92c280c34cc22482,familiarity,14,vcb,bRC,0,0,True,1417.0
0,61533ead92c280c34cc22482,familiarity,15,JdOAY,dMThk,0,0,True,1487.0
0,61533ead92c280c34cc22482,familiarity,16,EMbDP,EtMDM,0,1,False,2027.0
0,61533ead92c280c34cc22482,familiarity,17,vmuLl,GLYrA,0,1,False,1428.0
0,61533ead92c280c34cc22482,familiarity,18,ukcY,YZJm,1,1,True,1319.0
0,61533ead92c280c34cc22482,familiarity,20,mKcD,lTmO,1,0,False,1183.0
0,61533ead92c280c34cc22482,familiarity,21,DRPkY,laYmr,1,1,True,1315.0
0,61533ead92c280c34cc22482,familiarity,22,NaAQd,ZcGdN,1,0,False,1429.0
0,61533ead92c280c34cc22482,familiarity,23,lrZG,MKmY,1,1,True,1333.0
0,61533ead92c280c34cc22482,familiarity,24,mZb,lvk,0,1,False,1448.0
0,61533ead92c280c34cc22482,familiarity,25,PlEK,tRdM,1,1,True,1605.0
0,61533ead92c280c34cc22482,familiarity,26,EdBb,hkRK,1,1,True,914.0
0,61533ead92c280c34cc22482,familiarity,27,dRbDb,YJLcA,1,1,True,1125.0
0,61533ead92c280c34cc22482,familiarity,28,LuNZ,AZbl,0,1,False,1017.0
0,61533ead92c280c34cc22482,familiarity,29,khMD,MCkm,0,1,False,1173.0
0,61533ead92c280c34cc22482,familiarity,30,kKE,uZc,1,0,False,993.0
0,60fd0845a9a6b47d7adfea22,familiarity,1,aQr,Nac,1,1,True,5806.0
0,60fd0845a9a6b47d7adfea22,familiarity,2,LNUrJ,vuJZu,0,0,True,2680.0
0,60fd0845a9a6b47d7adfea22,familiarity,3,NbmQU,OAmGr,1,0,False,3903.0
0,60fd0845a9a6b47d7adfea22,familiarity,4,hbkd,lkAk,0,1,False,3146.0
0,60fd0845a9a6b47d7adfea22,familiarity,5,MAB,kmU,1,0,False,1500.0
0,60fd0845a9a6b47d7adfea22,familiarity,6,PEtE,mhtc,1,1,True,1370.0
0,60fd0845a9a6b47d7adfea22,familiarity,7,LcNUJ,GumLl,0,0,True,3002.0
0,60fd0845a9a6b47d7adfea22,familiarity,8,rZYd,ktBd,1,0,False,2862.0
0,60fd0845a9a6b47d7adfea22,familiarity,9,PEdK,YKPB,1,1,True,1247.0
0,60fd0845a9a6b47d7adfea22,familiarity,10,aLNlk,Juaml,1,1,True,2000.0
0,60fd0845a9a6b47d7adfea22,familiarity,11,RYlD,cAZu,0,0,True,1360.0
0,60fd0845a9a6b47d7adfea22,familiarity,14,NaJb,tmAK,1,1,True,1864.0
0,60fd0845a9a6b47d7adfea22,familiarity,15,BdtAC,KRARm,0,0,True,2320.0
0,60fd0845a9a6b47d7adfea22,familiarity,16,GZJY,kMEC,1,1,True,2264.0
0,60fd0845a9a6b47d7adfea22,familiarity,17,kPkRA,mBmlA,0,0,True,1061.0
0,60fd0845a9a6b47d7adfea22,familiarity,18,ukbY,YmBd,0,1,False,998.0
0,60fd0845a9a6b47d7adfea22,familiarity,19,QLrOJ,LOLkU,1,0,False,1793.0
0,60fd0845a9a6b47d7adfea22,familiarity,20,cRElD,OAblc,1,0,False,4643.0
0,60fd0845a9a6b47d7adfea22,familiarity,21,TObCO,hAROK,1,0,False,1799.0
0,60fd0845a9a6b47d7adfea22,familiarity,22,ZvkL,BbOD,0,0,True,1412.0
0,60fd0845a9a6b47d7adfea22,familiarity,23,bROC,JdGm,1,1,True,2302.0
0,60fd0845a9a6b47d7adfea22,familiarity,24,lRE,Akd,1,0,False,1086.0
0,60fd0845a9a6b47d7adfea22,familiarity,25,dGLAl,dClOC,1,1,True,2393.0
0,60fd0845a9a6b47d7adfea22,familiarity,26,Ald,tRb,1,0,False,2470.0
0,60fd0845a9a6b47d7adfea22,familiarity,27,DhMt,JcUk,1,1,True,3485.0
0,60fd0845a9a6b47d7adfea22,familiarity,28,mUOcO,dmZvm,0,1,False,2286.0
0,60fd0845a9a6b47d7adfea22,familiarity,29,DRPkY,aNYmb,1,1,True,1340.0
0,60fd0845a9a6b47d7adfea22,familiarity,30,UdYUQ,ckdAm,0,0,True,2985.0
0,612b5ed8c3b1fcb978aad0a8,familiarity,1,UmNJ,CmYA,0,0,True,28267.0
0,612b5ed8c3b1fcb978aad0a8,familiarity,3,Nulk,tRdM,0,1,False,1765.0
0,612b5ed8c3b1fcb978aad0a8,familiarity,4,TDKh,MTdY,0,0,True,1508.0
0,612b5ed8c3b1fcb978aad0a8,familiarity,5,ckLAL,hBmMC,0,1,False,2033.0
0,612b5ed8c3b1fcb978aad0a8,familiarity,6,GUa,mkc,1,1,True,2514.0
0,612b5ed8c3b1fcb978aad0a8,familiarity,7,dCtMA,dmZvm,1,1,True,1685.0
0,612b5ed8c3b1fcb978aad0a8,familiarity,8,YbN,rAm,1,0,False,1717.0
0,612b5ed8c3b1fcb978aad0a8,familiarity,9,chEDO,tmtEM,1,1,True,1852.0
0,612b5ed8c3b1fcb978aad0a8,familiarity,10,JvaA,cMRl,1,0,False,1394.0
0,612b5ed8c3b1fcb978aad0a8,familiarity,11,Yaum,OtlR,0,0,True,1280.0
0,612b5ed8c3b1fcb978aad0a8,familiarity,12,YQbc,kcOY,0,1,False,1688.0
0,612b5ed8c3b1fcb978aad0a8,familiarity,13,hbmA,Grbk,0,1,False,1684.0
0,612b5ed8c3b1fcb978aad0a8,familiarity,14,OEPk,bcOR,0,0,True,1469.0
0,612b5ed8c3b1fcb978aad0a8,familiarity,15,EMbDP,EPMDk,0,1,False,1305.0
0,612b5ed8c3b1fcb978aad0a8,familiarity,16,dMYBP,YlCPB,0,0,True,1080.0
0,612b5ed8c3b1fcb978aad0a8,familiarity,17,YkZ,TAm,1,0,False,940.0
0,612b5ed8c3b1fcb978aad0a8,familiarity,18,mtKP,vAvb,1,1,True,1437.0
0,612b5ed8c3b1fcb978aad0a8,familiarity,19,LOLkU,Amacl,0,1,False,1893.0
0,612b5ed8c3b1fcb978aad0a8,familiarity,20,GumLl,kcCRt,0,1,False,2504.0
0,612b5ed8c3b1fcb978aad0a8,familiarity,21,PcBT,hbkd,0,0,True,859.0
0,612b5ed8c3b1fcb978aad0a8,familiarity,22,ravu,rAJu,0,0,True,939.0
0,612b5ed8c3b1fcb978aad0a8,familiarity,24,aUZA,vYLU,1,0,False,1225.0
0,612b5ed8c3b1fcb978aad0a8,familiarity,25,UAcdu,JZOAk,1,0,False,663.0
0,612b5ed8c3b1fcb978aad0a8,familiarity,26,mdkK,Ydud,1,1,True,709.0
