,sbj_ID,task,testing_condition,trialn,item,expected,observed,correct,rt,strategy
0,5c437f6a4fe4f800016e3d52,testing,0M,1,bmdABtcB,1,1,True,2080.0,Tried to recall overall shape of the words
0,5c437f6a4fe4f800016e3d52,testing,0M,2,DOBhYEAO,1,0,False,869.0,Tried to recall overall shape of the words
0,5c437f6a4fe4f800016e3d52,testing,2M,3,ACcOOcN,1,0,False,1144.0,Tried to recall overall shape of the words
0,5c437f6a4fe4f800016e3d52,testing,0M,4,dkLlkBD,1,1,True,833.0,Tried to recall overall shape of the words
0,5c437f6a4fe4f800016e3d52,testing,2M,5,CDEmYZvkL,1,0,False,859.0,Tried to recall overall shape of the words
0,5c437f6a4fe4f800016e3d52,testing,1M,6,NbmQUTAm,0,0,True,934.0,Tried to recall overall shape of the words
0,5c437f6a4fe4f800016e3d52,testing,0M,7,ABPRBlGc,1,1,True,1106.0,Tried to recall overall shape of the words
0,5c437f6a4fe4f800016e3d52,testing,2M,8,mBbKcPK,0,0,True,1090.0,Tried to recall overall shape of the words
0,5c437f6a4fe4f800016e3d52,testing,0M,9,PlEKPED,1,1,True,1105.0,Tried to recall overall shape of the words
0,5c437f6a4fe4f800016e3d52,testing,0M,10,DBlhmKcD,1,0,False,905.0,Tried to recall overall shape of the words
0,5c437f6a4fe4f800016e3d52,testing,0M,11,rdLJaPMd,1,1,True,1074.0,Tried to recall overall shape of the words
0,5c437f6a4fe4f800016e3d52,testing,2M,12,JuamlrAm,0,1,False,1016.0,Tried to recall overall shape of the words
0,5c437f6a4fe4f800016e3d52,testing,0M,13,lKdbcTdmA,1,0,False,1264.0,Tried to recall overall shape of the words
0,5c437f6a4fe4f800016e3d52,testing,0M,14,hbmAOtM,1,1,True,876.0,Tried to recall overall shape of the words
0,5c437f6a4fe4f800016e3d52,testing,2M,15,mBbKJcUk,1,0,False,921.0,Tried to recall overall shape of the words
0,5c437f6a4fe4f800016e3d52,testing,0M,16,kdEdYQru,1,0,False,1031.0,Tried to recall overall shape of the words
0,5c437f6a4fe4f800016e3d52,testing,2M,17,NbacAcMRl,1,0,False,838.0,Tried to recall overall shape of the words
0,5c437f6a4fe4f800016e3d52,testing,2M,18,bcbMrAm,1,0,False,887.0,Tried to recall overall shape of the words
0,5c437f6a4fe4f800016e3d52,testing,0M,19,MBmEhBK,1,1,True,1170.0,Tried to recall overall shape of the words
0,5c437f6a4fe4f800016e3d52,testing,1M,20,QOLmuCmYA,0,0,True,757.0,Tried to recall overall shape of the words
0,5c437f6a4fe4f800016e3d52,testing,2M,21,NbmQUTbk,1,0,False,756.0,Tried to recall overall shape of the words
0,5c437f6a4fe4f800016e3d52,testing,0M,22,OZkbDmh,1,0,False,946.0,Tried to recall overall shape of the words
0,5c437f6a4fe4f800016e3d52,testing,0M,23,BYhTkGlU,1,1,True,797.0,Tried to recall overall shape of the words
0,5c437f6a4fe4f800016e3d52,testing,2M,24,hAROKZvkL,1,0,False,814.0,Tried to recall overall shape of the words
0,5c437f6a4fe4f800016e3d52,testing,1M,25,ACcOark,0,0,True,751.0,Tried to recall overall shape of the words
0,5c437f6a4fe4f800016e3d52,testing,1M,26,Mlthdmkv,0,0,True,794.0,Tried to recall overall shape of the words
0,5c437f6a4fe4f800016e3d52,testing,0M,27,YJLcAABb,1,1,True,1303.0,Tried to recall overall shape of the words
0,5c437f6a4fe4f800016e3d52,testing,2M,28,MlthGlu,1,0,False,948.0,Tried to recall overall shape of the words
0,5c437f6a4fe4f800016e3d52,testing,2M,29,hkRKOcN,1,0,False,877.0,Tried to recall overall shape of the words
0,5c437f6a4fe4f800016e3d52,testing,2M,30,NbmQUrAm,0,0,True,970.0,Tried to recall overall shape of the words
0,5c437f6a4fe4f800016e3d52,testing,2M,31,ObZbAOcN,0,0,True,1297.0,Tried to recall overall shape of the words
0,5c437f6a4fe4f800016e3d52,testing,2M,32,cBROBTbk,0,0,True,1017.0,Tried to recall overall shape of the words
0,5c437f6a4fe4f800016e3d52,testing,1M,33,rvUbTPOM,0,1,False,979.0,Tried to recall overall shape of the words
0,5c437f6a4fe4f800016e3d52,testing,2M,34,QbkAcJcUk,0,0,True,882.0,Tried to recall overall shape of the words
0,5c437f6a4fe4f800016e3d52,testing,0M,35,GZJYUrOQ,1,0,False,919.0,Tried to recall overall shape of the words
0,5c437f6a4fe4f800016e3d52,testing,2M,36,GAcYZvkL,0,0,True,1076.0,Tried to recall overall shape of the words
0,5c437f6a4fe4f800016e3d52,testing,0M,37,dCtMAmBYl,1,0,False,925.0,Tried to recall overall shape of the words
0,5c437f6a4fe4f800016e3d52,testing,1M,38,JvaAtRb,0,1,False,919.0,Tried to recall overall shape of the words
0,5c437f6a4fe4f800016e3d52,testing,0M,39,mUOcOArQu,1,0,False,762.0,Tried to recall overall shape of the words
0,5c437f6a4fe4f800016e3d52,testing,2M,40,QbkAccPK,1,0,False,964.0,Tried to recall overall shape of the words
0,5c437f6a4fe4f800016e3d52,testing,0M,41,NvuGrmLJ,1,1,True,867.0,Tried to recall overall shape of the words
0,5c437f6a4fe4f800016e3d52,testing,2M,42,KBKBEcPK,0,0,True,858.0,Tried to recall overall shape of the words
0,5c437f6a4fe4f800016e3d52,testing,1M,43,tKDmhDKP,0,0,True,941.0,Tried to recall overall shape of the words
0,5c437f6a4fe4f800016e3d52,testing,0M,44,YaumYJkb,1,1,True,920.0,Tried to recall overall shape of the words
0,5c437f6a4fe4f800016e3d52,testing,1M,45,OJlNcPK,0,0,True,942.0,Tried to recall overall shape of the words
0,5c437f6a4fe4f800016e3d52,testing,0M,46,GJGcZTmTm,1,0,False,1048.0,Tried to recall overall shape of the words
0,5c437f6a4fe4f800016e3d52,testing,1M,47,bYuQdmRb,0,1,False,905.0,Tried to recall overall shape of the words
0,5c437f6a4fe4f800016e3d52,testing,1M,48,kPOtOcN,0,0,True,898.0,Tried to recall overall shape of the words
0,5c437f6a4fe4f800016e3d52,testing,0M,49,OCmkJQA,1,1,True,1080.0,Tried to recall overall shape of the words
0,5c437f6a4fe4f800016e3d52,testing,1M,50,JmvmOZvkL,0,0,True,807.0,Tried to recall overall shape of the words
0,5c437f6a4fe4f800016e3d52,testing,2M,51,hAROKdmRb,0,1,False,934.0,Tried to recall overall shape of the words
0,5c437f6a4fe4f800016e3d52,testing,2M,52,MlthcMRl,0,0,True,749.0,Tried to recall overall shape of the words
0,5c437f6a4fe4f800016e3d52,testing,1M,53,NbacAGUa,0,1,False,1153.0,Tried to recall overall shape of the words
0,5c437f6a4fe4f800016e3d52,testing,1M,54,hkRKATc,0,1,False,1035.0,Tried to recall overall shape of the words
0,5c437f6a4fe4f800016e3d52,testing,2M,55,GAcYdmRb,1,0,False,999.0,Tried to recall overall shape of the words
0,5c437f6a4fe4f800016e3d52,testing,1M,56,ObZbAOMC,0,0,True,997.0,Tried to recall overall shape of the words
0,5c437f6a4fe4f800016e3d52,testing,0M,57,hlctEYbN,1,1,True,876.0,Tried to recall overall shape of the words
0,5c437f6a4fe4f800016e3d52,testing,2M,58,NbacAGlu,0,0,True,994.0,Tried to recall overall shape of the words
0,5c437f6a4fe4f800016e3d52,testing,0M,59,GLYrATRK,1,0,False,1026.0,Tried to recall overall shape of the words
0,5c437f6a4fe4f800016e3d52,testing,1M,60,CkbdGlu,0,1,False,875.0,Tried to recall overall shape of the words
0,5c437f6a4fe4f800016e3d52,testing,1M,61,JUNacMRl,0,1,False,1009.0,Tried to recall overall shape of the words
0,5c437f6a4fe4f800016e3d52,testing,1M,62,lGZvJZr,0,1,False,1032.0,Tried to recall overall shape of the words
0,5c437f6a4fe4f800016e3d52,testing,1M,63,cBROBrba,0,1,False,1340.0,Tried to recall overall shape of the words
0,5c437f6a4fe4f800016e3d52,testing,0M,64,CtmbLuNZ,1,1,True,1186.0,Tried to recall overall shape of the words
0,5c437f6a4fe4f800016e3d52,testing,2M,65,lGZvDKP,1,1,True,1208.0,Tried to recall overall shape of the words
0,5c437f6a4fe4f800016e3d52,testing,0M,66,ZJLmrcUN,1,1,True,1361.0,Tried to recall overall shape of the words
0,5c437f6a4fe4f800016e3d52,testing,2M,67,ObZbADKP,1,0,False,777.0,Tried to recall overall shape of the words
0,5c437f6a4fe4f800016e3d52,testing,0M,68,MkmEddNZA,1,0,False,1083.0,Tried to recall overall shape of the words
0,5c437f6a4fe4f800016e3d52,testing,1M,69,rvOvUdmRb,0,0,True,1061.0,Tried to recall overall shape of the words
0,5c437f6a4fe4f800016e3d52,testing,1M,70,cYUvOcN,0,0,True,1127.0,Tried to recall overall shape of the words
0,5c437f6a4fe4f800016e3d52,testing,1M,71,Juamlvcb,0,0,True,1113.0,Tried to recall overall shape of the words
0,5c437f6a4fe4f800016e3d52,testing,2M,72,cBROBrAm,1,0,False,1551.0,Tried to recall overall shape of the words
0,5c437f6a4fe4f800016e3d52,testing,1M,73,CDEmYAlKD,0,1,False,904.0,Tried to recall overall shape of the words
0,5c437f6a4fe4f800016e3d52,testing,2M,74,JuamlTbk,1,0,False,1269.0,Tried to recall overall shape of the words
0,5c437f6a4fe4f800016e3d52,testing,1M,75,dRbDbcPK,0,0,True,958.0,Tried to recall overall shape of the words
0,5c437f6a4fe4f800016e3d52,testing,1M,76,EltMBkZUb,0,0,True,995.0,Tried to recall overall shape of the words
0,5c437f6a4fe4f800016e3d52,testing,0M,77,muYNTRK,1,1,True,927.0,Tried to recall overall shape of the words
0,5c437f6a4fe4f800016e3d52,testing,0M,78,ckduAlkAk,1,1,True,988.0,Tried to recall overall shape of the words
0,5c437f6a4fe4f800016e3d52,testing,1M,79,mdkKJcUk,0,0,True,1079.0,Tried to recall overall shape of the words
0,5c437f6a4fe4f800016e3d52,testing,0M,80,EYtYRdEPD,1,0,False,842.0,Tried to recall overall shape of the words
0,5c437f6a4fe4f800016e3d52,testing,0M,81,hTDdYDE,1,1,True,874.0,Tried to recall overall shape of the words
0,5c437f6a4fe4f800016e3d52,testing,1M,82,McMDrAm,0,1,False,850.0,Tried to recall overall shape of the words
0,5c437f6a4fe4f800016e3d52,testing,2M,83,CDEmYdmRb,0,0,True,785.0,Tried to recall overall shape of the words
0,5c437f6a4fe4f800016e3d52,testing,0M,84,btlckkYL,1,1,True,857.0,Tried to recall overall shape of the words
0,5c437f6a4fe4f800016e3d52,testing,0M,85,UdYUQAbka,1,1,True,936.0,Tried to recall overall shape of the words
0,5c437f6a4fe4f800016e3d52,testing,2M,86,KBKBEJcUk,1,0,False,1061.0,Tried to recall overall shape of the words
0,5c437f6a4fe4f800016e3d52,testing,2M,87,bcbMTbk,0,0,True,921.0,Tried to recall overall shape of the words
0,5c437f6a4fe4f800016e3d52,testing,2M,88,EltMBGlu,1,0,False,1298.0,Tried to recall overall shape of the words
0,5c437f6a4fe4f800016e3d52,testing,1M,89,OAmAdrAm,0,1,False,1222.0,Tried to recall overall shape of the words
0,5c437f6a4fe4f800016e3d52,testing,1M,90,KBKBEaQr,0,0,True,924.0,Tried to recall overall shape of the words
0,5c437f6a4fe4f800016e3d52,testing,1M,91,QbkAcMDKP,0,0,True,1356.0,Tried to recall overall shape of the words
0,5c437f6a4fe4f800016e3d52,testing,0M,92,GLluAOYK,1,0,False,1323.0,Tried to recall overall shape of the words
0,5c437f6a4fe4f800016e3d52,testing,1M,93,PMPtkZvkL,0,0,True,1149.0,Tried to recall overall shape of the words
0,5c437f6a4fe4f800016e3d52,testing,1M,94,BdtACGlu,0,1,False,1093.0,Tried to recall overall shape of the words
0,5c437f6a4fe4f800016e3d52,testing,2M,95,JvaAcMRl,1,0,False,818.0,Tried to recall overall shape of the words
0,5c437f6a4fe4f800016e3d52,testing,1M,96,bcbMPTl,0,1,False,990.0,Tried to recall overall shape of the words
0,5c437f6a4fe4f800016e3d52,testing,2M,97,QOLmudmRb,1,1,True,1005.0,Tried to recall overall shape of the words
0,5c437f6a4fe4f800016e3d52,testing,1M,98,hAROKLkNc,0,0,True,934.0,Tried to recall overall shape of the words
0,5c437f6a4fe4f800016e3d52,testing,1M,99,dmZvmJcUk,0,1,False,1238.0,Tried to recall overall shape of the words
0,5c437f6a4fe4f800016e3d52,testing,0M,100,OYuvbhbmA,1,0,False,833.0,Tried to recall overall shape of the words
0,5c437f6a4fe4f800016e3d52,testing,2M,101,lGZvOcN,0,0,True,871.0,Tried to recall overall shape of the words
0,5c437f6a4fe4f800016e3d52,testing,2M,102,hkRKDKP,0,0,True,1024.0,Tried to recall overall shape of the words
0,5c437f6a4fe4f800016e3d52,testing,1M,103,adYrccMRl,0,1,False,1145.0,Tried to recall overall shape of the words
0,5c437f6a4fe4f800016e3d52,testing,1M,104,mBbKAkd,0,1,False,790.0,Tried to recall overall shape of the words
0,5c437f6a4fe4f800016e3d52,testing,1M,105,AmQOYTbk,0,1,False,1106.0,Tried to recall overall shape of the words
0,5c437f6a4fe4f800016e3d52,testing,2M,106,ACcODKP,0,0,True,801.0,Tried to recall overall shape of the words
0,5c437f6a4fe4f800016e3d52,testing,2M,107,EltMBcMRl,0,0,True,1182.0,Tried to recall overall shape of the words
0,5c437f6a4fe4f800016e3d52,testing,1M,108,uauODKP,0,1,False,1136.0,Tried to recall overall shape of the words
0,5c437f6a4fe4f800016e3d52,testing,0M,109,YbBTmdla,1,1,True,1114.0,Tried to recall overall shape of the words
0,5c437f6a4fe4f800016e3d52,testing,0M,110,kDOmJcL,1,0,False,1218.0,Tried to recall overall shape of the words
0,5c437f6a4fe4f800016e3d52,testing,2M,111,rvUbcPK,1,0,False,1147.0,Tried to recall overall shape of the words
0,5c437f6a4fe4f800016e3d52,testing,2M,112,QOLmuZvkL,0,1,False,1018.0,Tried to recall overall shape of the words
0,5c437f6a4fe4f800016e3d52,testing,2M,113,JvaAGlu,0,0,True,990.0,Tried to recall overall shape of the words
0,5c437f6a4fe4f800016e3d52,testing,0M,114,uOAOmhc,1,1,True,1084.0,Tried to recall overall shape of the words
0,5c437f6a4fe4f800016e3d52,testing,0M,115,thbOMRdCc,1,0,False,1081.0,Tried to recall overall shape of the words
0,5c437f6a4fe4f800016e3d52,testing,0M,116,NvYJcbm,1,0,False,992.0,Tried to recall overall shape of the words
0,5c437f6a4fe4f800016e3d52,testing,1M,117,GAcYOQAr,0,0,True,1032.0,Tried to recall overall shape of the words
0,5c437f6a4fe4f800016e3d52,testing,0M,118,dRhtdUr,1,0,False,1164.0,Tried to recall overall shape of the words
0,5c437f6a4fe4f800016e3d52,testing,1M,119,YUNkZTbk,0,0,True,1337.0,Tried to recall overall shape of the words
0,5c437f6a4fe4f800016e3d52,testing,2M,120,rvUbJcUk,0,1,False,1114.0,Tried to recall overall shape of the words
0,5c840aedbad8fb000106cb44,testing,1M,1,kCRmdUr,0,1,False,2416.0,Some patrons I remembered that looked like words in earth alphabet and others just the feeling they gave to me.
0,5c840aedbad8fb000106cb44,testing,1M,2,NLQGmYaum,0,1,False,976.0,Some patrons I remembered that looked like words in earth alphabet and others just the feeling they gave to me.
0,5c840aedbad8fb000106cb44,testing,2M,3,UJmrkbu,0,1,False,1026.0,Some patrons I remembered that looked like words in earth alphabet and others just the feeling they gave to me.
0,5c840aedbad8fb000106cb44,testing,0M,4,PlEKDhMt,1,0,False,1080.0,Some patrons I remembered that looked like words in earth alphabet and others just the feeling they gave to me.
0,5c840aedbad8fb000106cb44,testing,0M,5,BKDRYdEPD,1,1,True,1066.0,Some patrons I remembered that looked like words in earth alphabet and others just the feeling they gave to me.
0,5c840aedbad8fb000106cb44,testing,1M,6,JdOAYLcO,0,0,True,988.0,Some patrons I remembered that looked like words in earth alphabet and others just the feeling they gave to me.
0,5c840aedbad8fb000106cb44,testing,0M,7,KRARmNac,1,1,True,1372.0,Some patrons I remembered that looked like words in earth alphabet and others just the feeling they gave to me.
0,5c840aedbad8fb000106cb44,testing,0M,8,aLNlkmCd,1,1,True,1305.0,Some patrons I remembered that looked like words in earth alphabet and others just the feeling they gave to me.
0,5c840aedbad8fb000106cb44,testing,0M,9,ODBDAlLG,1,1,True,655.0,Some patrons I remembered that looked like words in earth alphabet and others just the feeling they gave to me.
0,5c840aedbad8fb000106cb44,testing,0M,10,MlthYDE,1,1,True,655.0,Some patrons I remembered that looked like words in earth alphabet and others just the feeling they gave to me.
0,5c840aedbad8fb000106cb44,testing,1M,11,lcOcuUY,0,1,False,1118.0,Some patrons I remembered that looked like words in earth alphabet and others just the feeling they gave to me.
0,5c840aedbad8fb000106cb44,testing,2M,12,kabJbOcN,0,0,True,1126.0,Some patrons I remembered that looked like words in earth alphabet and others just the feeling they gave to me.
0,5c840aedbad8fb000106cb44,testing,0M,13,AvdkrAm,1,0,False,1212.0,Some patrons I remembered that looked like words in earth alphabet and others just the feeling they gave to me.
0,5c840aedbad8fb000106cb44,testing,2M,14,AlUYdUr,0,0,True,980.0,Some patrons I remembered that looked like words in earth alphabet and others just the feeling they gave to me.
0,5c840aedbad8fb000106cb44,testing,2M,15,lTmOAkd,0,0,True,1050.0,Some patrons I remembered that looked like words in earth alphabet and others just the feeling they gave to me.
0,5c840aedbad8fb000106cb44,testing,0M,16,bRABtkDOm,1,0,False,1025.0,Some patrons I remembered that looked like words in earth alphabet and others just the feeling they gave to me.
0,5c840aedbad8fb000106cb44,testing,1M,17,uvaUQGb,0,1,False,973.0,Some patrons I remembered that looked like words in earth alphabet and others just the feeling they gave to me.
0,5c840aedbad8fb000106cb44,testing,0M,18,OEPkYbN,1,0,False,964.0,Some patrons I remembered that looked like words in earth alphabet and others just the feeling they gave to me.
0,5c840aedbad8fb000106cb44,testing,0M,19,UaYLJcL,1,1,True,810.0,Some patrons I remembered that looked like words in earth alphabet and others just the feeling they gave to me.
0,5c840aedbad8fb000106cb44,testing,2M,20,dMThkdUr,1,0,False,755.0,Some patrons I remembered that looked like words in earth alphabet and others just the feeling they gave to me.
0,5c840aedbad8fb000106cb44,testing,0M,21,YKRkLYGA,1,1,True,857.0,Some patrons I remembered that looked like words in earth alphabet and others just the feeling they gave to me.
0,5c840aedbad8fb000106cb44,testing,0M,22,kGlUrAm,1,0,False,592.0,Some patrons I remembered that looked like words in earth alphabet and others just the feeling they gave to me.
0,5c840aedbad8fb000106cb44,testing,2M,23,Cchtdkbu,1,1,True,648.0,Some patrons I remembered that looked like words in earth alphabet and others just the feeling they gave to me.
0,5c840aedbad8fb000106cb44,testing,0M,24,tKDmhcDR,1,0,False,591.0,Some patrons I remembered that looked like words in earth alphabet and others just the feeling they gave to me.
0,5c840aedbad8fb000106cb44,testing,2M,25,JNkaOcN,0,0,True,1165.0,Some patrons I remembered that looked like words in earth alphabet and others just the feeling they gave to me.
0,5c840aedbad8fb000106cb44,testing,2M,26,cAZuLcO,0,0,True,910.0,Some patrons I remembered that looked like words in earth alphabet and others just the feeling they gave to me.
0,5c840aedbad8fb000106cb44,testing,0M,27,QLrOJMKmY,1,1,True,972.0,Some patrons I remembered that looked like words in earth alphabet and others just the feeling they gave to me.
0,5c840aedbad8fb000106cb44,testing,2M,28,lcOchEct,1,0,False,824.0,Some patrons I remembered that looked like words in earth alphabet and others just the feeling they gave to me.
0,5c840aedbad8fb000106cb44,testing,2M,29,kcCRtRCdc,0,1,False,740.0,Some patrons I remembered that looked like words in earth alphabet and others just the feeling they gave to me.
0,5c840aedbad8fb000106cb44,testing,2M,30,NLQGmAZbl,0,1,False,864.0,Some patrons I remembered that looked like words in earth alphabet and others just the feeling they gave to me.
0,5c840aedbad8fb000106cb44,testing,2M,31,UJmrTbk,1,0,False,778.0,Some patrons I remembered that looked like words in earth alphabet and others just the feeling they gave to me.
0,5c840aedbad8fb000106cb44,testing,1M,32,vJabkam,0,0,True,723.0,Some patrons I remembered that looked like words in earth alphabet and others just the feeling they gave to me.
0,5c840aedbad8fb000106cb44,testing,0M,33,lhCTCtcB,1,1,True,763.0,Some patrons I remembered that looked like words in earth alphabet and others just the feeling they gave to me.
0,5c840aedbad8fb000106cb44,testing,2M,34,TbKMEOcN,1,0,False,735.0,Some patrons I remembered that looked like words in earth alphabet and others just the feeling they gave to me.
0,5c840aedbad8fb000106cb44,testing,2M,35,kcCRtLcO,1,0,False,724.0,Some patrons I remembered that looked like words in earth alphabet and others just the feeling they gave to me.
0,5c840aedbad8fb000106cb44,testing,0M,36,uQuZcvcb,1,1,True,970.0,Some patrons I remembered that looked like words in earth alphabet and others just the feeling they gave to me.
0,5c840aedbad8fb000106cb44,testing,0M,37,OMlTdRA,1,1,True,932.0,Some patrons I remembered that looked like words in earth alphabet and others just the feeling they gave to me.
0,5c840aedbad8fb000106cb44,testing,0M,38,GLluATmc,1,0,False,662.0,Some patrons I remembered that looked like words in earth alphabet and others just the feeling they gave to me.
0,5c840aedbad8fb000106cb44,testing,1M,39,LdQvZvkL,0,0,True,747.0,Some patrons I remembered that looked like words in earth alphabet and others just the feeling they gave to me.
0,5c840aedbad8fb000106cb44,testing,0M,40,OtlRtcB,1,1,True,461.0,Some patrons I remembered that looked like words in earth alphabet and others just the feeling they gave to me.
0,5c840aedbad8fb000106cb44,testing,1M,41,lAOKMbLd,0,0,True,686.0,Some patrons I remembered that looked like words in earth alphabet and others just the feeling they gave to me.
0,5c840aedbad8fb000106cb44,testing,2M,42,lcOcdUr,0,1,False,624.0,Some patrons I remembered that looked like words in earth alphabet and others just the feeling they gave to me.
0,5c840aedbad8fb000106cb44,testing,0M,43,LkNcUvOG,1,1,True,1026.0,Some patrons I remembered that looked like words in earth alphabet and others just the feeling they gave to me.
0,5c840aedbad8fb000106cb44,testing,2M,44,AlUYhEct,1,1,True,771.0,Some patrons I remembered that looked like words in earth alphabet and others just the feeling they gave to me.
0,5c840aedbad8fb000106cb44,testing,0M,45,EPMDkKmE,1,1,True,678.0,Some patrons I remembered that looked like words in earth alphabet and others just the feeling they gave to me.
0,5c840aedbad8fb000106cb44,testing,2M,46,vJabRCdc,1,1,True,655.0,Some patrons I remembered that looked like words in earth alphabet and others just the feeling they gave to me.
0,5c840aedbad8fb000106cb44,testing,2M,47,EtMDMAkd,0,0,True,637.0,Some patrons I remembered that looked like words in earth alphabet and others just the feeling they gave to me.
0,5c840aedbad8fb000106cb44,testing,2M,48,lTmOAZbl,1,1,True,880.0,Some patrons I remembered that looked like words in earth alphabet and others just the feeling they gave to me.
0,5c840aedbad8fb000106cb44,testing,1M,49,rvUbRCdc,0,0,True,30.0,Some patrons I remembered that looked like words in earth alphabet and others just the feeling they gave to me.
0,5c840aedbad8fb000106cb44,testing,2M,50,CDEmYLcO,1,1,True,1208.0,Some patrons I remembered that looked like words in earth alphabet and others just the feeling they gave to me.
0,5c840aedbad8fb000106cb44,testing,1M,51,rAJuRCdc,0,0,True,499.0,Some patrons I remembered that looked like words in earth alphabet and others just the feeling they gave to me.
0,5c840aedbad8fb000106cb44,testing,1M,52,CDEmYuOAO,0,0,True,652.0,Some patrons I remembered that looked like words in earth alphabet and others just the feeling they gave to me.
0,5c840aedbad8fb000106cb44,testing,2M,53,JNkaBCD,1,0,False,538.0,Some patrons I remembered that looked like words in earth alphabet and others just the feeling they gave to me.
0,5c840aedbad8fb000106cb44,testing,2M,54,CDEmYRCdc,0,1,False,554.0,Some patrons I remembered that looked like words in earth alphabet and others just the feeling they gave to me.
0,5c840aedbad8fb000106cb44,testing,2M,55,NLQGmAkd,1,1,True,1049.0,Some patrons I remembered that looked like words in earth alphabet and others just the feeling they gave to me.
0,5c840aedbad8fb000106cb44,testing,0M,56,bdUNuYNu,1,1,True,1214.0,Some patrons I remembered that looked like words in earth alphabet and others just the feeling they gave to me.
0,5c840aedbad8fb000106cb44,testing,0M,57,NvuGrrab,1,1,True,746.0,Some patrons I remembered that looked like words in earth alphabet and others just the feeling they gave to me.
0,5c840aedbad8fb000106cb44,testing,2M,58,hlbtbOcN,1,0,False,986.0,Some patrons I remembered that looked like words in earth alphabet and others just the feeling they gave to me.
0,5c840aedbad8fb000106cb44,testing,0M,59,ckLALPED,1,1,True,903.0,Some patrons I remembered that looked like words in earth alphabet and others just the feeling they gave to me.
0,5c840aedbad8fb000106cb44,testing,1M,60,AlUYMAB,0,1,False,928.0,Some patrons I remembered that looked like words in earth alphabet and others just the feeling they gave to me.
0,5c840aedbad8fb000106cb44,testing,2M,61,TbKMEBCD,0,0,True,707.0,Some patrons I remembered that looked like words in earth alphabet and others just the feeling they gave to me.
0,5c840aedbad8fb000106cb44,testing,1M,62,EPERdAZbl,0,1,False,693.0,Some patrons I remembered that looked like words in earth alphabet and others just the feeling they gave to me.
0,5c840aedbad8fb000106cb44,testing,2M,63,LdQvAkd,1,1,True,701.0,Some patrons I remembered that looked like words in earth alphabet and others just the feeling they gave to me.
0,5c840aedbad8fb000106cb44,testing,2M,64,hlbtbBCD,0,1,False,631.0,Some patrons I remembered that looked like words in earth alphabet and others just the feeling they gave to me.
0,5c840aedbad8fb000106cb44,testing,2M,65,EtMDMAZbl,1,0,False,707.0,Some patrons I remembered that looked like words in earth alphabet and others just the feeling they gave to me.
0,5c840aedbad8fb000106cb44,testing,0M,66,YJLcAYmb,1,1,True,717.0,Some patrons I remembered that looked like words in earth alphabet and others just the feeling they gave to me.
0,5c840aedbad8fb000106cb44,testing,0M,67,EltMBPED,1,0,False,684.0,Some patrons I remembered that looked like words in earth alphabet and others just the feeling they gave to me.
0,5c840aedbad8fb000106cb44,testing,0M,68,hbkdOtM,1,1,True,600.0,Some patrons I remembered that looked like words in earth alphabet and others just the feeling they gave to me.
0,5c840aedbad8fb000106cb44,testing,1M,69,rdLJaBCD,0,1,False,654.0,Some patrons I remembered that looked like words in earth alphabet and others just the feeling they gave to me.
0,5c840aedbad8fb000106cb44,testing,1M,70,cAZukmU,0,0,True,892.0,Some patrons I remembered that looked like words in earth alphabet and others just the feeling they gave to me.
0,5c840aedbad8fb000106cb44,testing,2M,71,LdQvAZbl,0,0,True,724.0,Some patrons I remembered that looked like words in earth alphabet and others just the feeling they gave to me.
0,5c840aedbad8fb000106cb44,testing,1M,72,dkLlTbk,0,0,True,700.0,Some patrons I remembered that looked like words in earth alphabet and others just the feeling they gave to me.
0,5c840aedbad8fb000106cb44,testing,1M,73,hlbtbYkZ,0,1,False,600.0,Some patrons I remembered that looked like words in earth alphabet and others just the feeling they gave to me.
0,5c840aedbad8fb000106cb44,testing,1M,74,mLdkZLcO,0,1,False,537.0,Some patrons I remembered that looked like words in earth alphabet and others just the feeling they gave to me.
0,5c840aedbad8fb000106cb44,testing,0M,75,JZOAkLuaU,1,1,True,560.0,Some patrons I remembered that looked like words in earth alphabet and others just the feeling they gave to me.
0,5c840aedbad8fb000106cb44,testing,0M,76,lKdbcTAm,1,1,True,444.0,Some patrons I remembered that looked like words in earth alphabet and others just the feeling they gave to me.
0,5c840aedbad8fb000106cb44,testing,1M,77,TAdhMAkd,0,1,False,607.0,Some patrons I remembered that looked like words in earth alphabet and others just the feeling they gave to me.
0,5c840aedbad8fb000106cb44,testing,2M,78,tRPDdUr,1,1,True,675.0,Some patrons I remembered that looked like words in earth alphabet and others just the feeling they gave to me.
0,5c840aedbad8fb000106cb44,testing,2M,79,kabJbBCD,1,1,True,583.0,Some patrons I remembered that looked like words in earth alphabet and others just the feeling they gave to me.
0,5c840aedbad8fb000106cb44,testing,2M,80,vJabLcO,0,0,True,637.0,Some patrons I remembered that looked like words in earth alphabet and others just the feeling they gave to me.
0,5c840aedbad8fb000106cb44,testing,1M,81,NaAQdOcN,0,0,True,1025.0,Some patrons I remembered that looked like words in earth alphabet and others just the feeling they gave to me.
0,5c840aedbad8fb000106cb44,testing,1M,82,kabJblRE,0,0,True,1303.0,Some patrons I remembered that looked like words in earth alphabet and others just the feeling they gave to me.
0,5c840aedbad8fb000106cb44,testing,2M,83,cAZuRCdc,1,1,True,995.0,Some patrons I remembered that looked like words in earth alphabet and others just the feeling they gave to me.
0,5c840aedbad8fb000106cb44,testing,2M,84,tRPDhEct,0,0,True,937.0,Some patrons I remembered that looked like words in earth alphabet and others just the feeling they gave to me.
0,5c840aedbad8fb000106cb44,testing,1M,85,ukbYBCD,0,1,False,1111.0,Some patrons I remembered that looked like words in earth alphabet and others just the feeling they gave to me.
0,5c840aedbad8fb000106cb44,testing,0M,86,NaJbABb,1,0,False,706.0,Some patrons I remembered that looked like words in earth alphabet and others just the feeling they gave to me.
0,5c840aedbad8fb000106cb44,testing,1M,87,OZkbhEct,0,1,False,716.0,Some patrons I remembered that looked like words in earth alphabet and others just the feeling they gave to me.
0,5c840aedbad8fb000106cb44,testing,2M,88,uvaUTbk,1,1,True,769.0,Some patrons I remembered that looked like words in earth alphabet and others just the feeling they gave to me.
0,5c840aedbad8fb000106cb44,testing,1M,89,EtMDMEcR,0,0,True,799.0,Some patrons I remembered that looked like words in earth alphabet and others just the feeling they gave to me.
0,5c840aedbad8fb000106cb44,testing,1M,90,YNrAmkbu,0,1,False,646.0,Some patrons I remembered that looked like words in earth alphabet and others just the feeling they gave to me.
0,5c840aedbad8fb000106cb44,testing,1M,91,lTmOdBC,0,0,True,892.0,Some patrons I remembered that looked like words in earth alphabet and others just the feeling they gave to me.
0,5c840aedbad8fb000106cb44,testing,1M,92,UdlGQkbu,0,1,False,1041.0,Some patrons I remembered that looked like words in earth alphabet and others just the feeling they gave to me.
0,5c840aedbad8fb000106cb44,testing,0M,93,rckOrGl,1,1,True,931.0,Some patrons I remembered that looked like words in earth alphabet and others just the feeling they gave to me.
0,5c840aedbad8fb000106cb44,testing,0M,94,AJLrKMOc,1,1,True,487.0,Some patrons I remembered that looked like words in earth alphabet and others just the feeling they gave to me.
0,5c840aedbad8fb000106cb44,testing,1M,95,BCAdAkd,0,1,False,1024.0,Some patrons I remembered that looked like words in earth alphabet and others just the feeling they gave to me.
0,5c840aedbad8fb000106cb44,testing,1M,96,kcCRtAlNU,0,1,False,861.0,Some patrons I remembered that looked like words in earth alphabet and others just the feeling they gave to me.
0,5c840aedbad8fb000106cb44,testing,0M,97,RYlDkrGu,1,1,True,578.0,Some patrons I remembered that looked like words in earth alphabet and others just the feeling they gave to me.
0,5c840aedbad8fb000106cb44,testing,1M,98,UJmrtAY,0,1,False,560.0,Some patrons I remembered that looked like words in earth alphabet and others just the feeling they gave to me.
0,5c840aedbad8fb000106cb44,testing,2M,99,uvaUkbu,0,1,False,700.0,Some patrons I remembered that looked like words in earth alphabet and others just the feeling they gave to me.
0,5c840aedbad8fb000106cb44,testing,2M,100,lAOKMTbk,0,0,True,637.0,Some patrons I remembered that looked like words in earth alphabet and others just the feeling they gave to me.
0,5c840aedbad8fb000106cb44,testing,1M,101,tRPDbROC,0,1,False,576.0,Some patrons I remembered that looked like words in earth alphabet and others just the feeling they gave to me.
0,5c840aedbad8fb000106cb44,testing,0M,102,CYPcGUOA,1,0,False,543.0,Some patrons I remembered that looked like words in earth alphabet and others just the feeling they gave to me.
0,5c840aedbad8fb000106cb44,testing,0M,103,GrubEAO,1,1,True,389.0,Some patrons I remembered that looked like words in earth alphabet and others just the feeling they gave to me.
0,5c840aedbad8fb000106cb44,testing,2M,104,lAOKMkbu,1,1,True,536.0,Some patrons I remembered that looked like words in earth alphabet and others just the feeling they gave to me.
0,5c840aedbad8fb000106cb44,testing,2M,105,dMThkhEct,0,1,False,397.0,Some patrons I remembered that looked like words in earth alphabet and others just the feeling they gave to me.
0,5c840aedbad8fb000106cb44,testing,1M,106,lbBDEdUr,0,1,False,351.0,Some patrons I remembered that looked like words in earth alphabet and others just the feeling they gave to me.
0,5c840aedbad8fb000106cb44,testing,1M,107,CchtdtRb,0,1,False,466.0,Some patrons I remembered that looked like words in earth alphabet and others just the feeling they gave to me.
0,5c840aedbad8fb000106cb44,testing,1M,108,mtKPhEct,0,1,False,421.0,Some patrons I remembered that looked like words in earth alphabet and others just the feeling they gave to me.
0,5c840aedbad8fb000106cb44,testing,0M,109,ZckvlGZv,1,1,True,651.0,Some patrons I remembered that looked like words in earth alphabet and others just the feeling they gave to me.
0,5c840aedbad8fb000106cb44,testing,1M,110,TbKMEGUa,0,1,False,698.0,Some patrons I remembered that looked like words in earth alphabet and others just the feeling they gave to me.
0,5c840aedbad8fb000106cb44,testing,0M,111,ZvalvBbM,1,0,False,496.0,Some patrons I remembered that looked like words in earth alphabet and others just the feeling they gave to me.
0,5c840aedbad8fb000106cb44,testing,1M,112,JNkamkc,0,1,False,413.0,Some patrons I remembered that looked like words in earth alphabet and others just the feeling they gave to me.
0,5c840aedbad8fb000106cb44,testing,1M,113,aONdTbk,0,1,False,651.0,Some patrons I remembered that looked like words in earth alphabet and others just the feeling they gave to me.
0,5c840aedbad8fb000106cb44,testing,1M,114,GabkAZbl,0,0,True,474.0,Some patrons I remembered that looked like words in earth alphabet and others just the feeling they gave to me.
0,5c840aedbad8fb000106cb44,testing,0M,115,KdARLaA,1,0,False,884.0,Some patrons I remembered that looked like words in earth alphabet and others just the feeling they gave to me.
0,5c840aedbad8fb000106cb44,testing,2M,116,CchtdTbk,0,0,True,791.0,Some patrons I remembered that looked like words in earth alphabet and others just the feeling they gave to me.
0,5c840aedbad8fb000106cb44,testing,1M,117,TObCOOcN,0,1,False,1017.0,Some patrons I remembered that looked like words in earth alphabet and others just the feeling they gave to me.
0,5c840aedbad8fb000106cb44,testing,0M,118,UYZlZMKmY,1,0,False,682.0,Some patrons I remembered that looked like words in earth alphabet and others just the feeling they gave to me.
0,5c840aedbad8fb000106cb44,testing,1M,119,dMThkAdDb,0,1,False,1017.0,Some patrons I remembered that looked like words in earth alphabet and others just the feeling they gave to me.
0,5c840aedbad8fb000106cb44,testing,0M,120,tdDdJUG,1,0,False,820.0,Some patrons I remembered that looked like words in earth alphabet and others just the feeling they gave to me.
0,5d696d1c55742f001af29220,testing,2M,1,QLrOJYArG,0,1,False,2539.0,It was a complete guess
0,5d696d1c55742f001af29220,testing,2M,2,EhbtOQAr,1,1,True,1154.0,It was a complete guess
0,5d696d1c55742f001af29220,testing,0M,3,KdARMKmY,1,0,False,1085.0,It was a complete guess
0,5d696d1c55742f001af29220,testing,2M,4,vAarMAB,1,1,True,941.0,It was a complete guess
0,5d696d1c55742f001af29220,testing,0M,5,YZJOTmc,1,0,False,711.0,It was a complete guess
0,5d696d1c55742f001af29220,testing,1M,6,QcQAJYLU,0,0,True,787.0,It was a complete guess
0,5d696d1c55742f001af29220,testing,0M,7,lGZvKlkD,1,1,True,791.0,It was a complete guess
0,5d696d1c55742f001af29220,testing,0M,8,TPOMlTmO,1,1,True,800.0,It was a complete guess
0,5d696d1c55742f001af29220,testing,2M,9,rdLJaOQAr,0,1,False,1067.0,It was a complete guess
0,5d696d1c55742f001af29220,testing,2M,10,Ehbtmhc,0,1,False,1119.0,It was a complete guess
0,5d696d1c55742f001af29220,testing,2M,11,PYkCkam,1,0,False,560.0,It was a complete guess
0,5d696d1c55742f001af29220,testing,1M,12,JuamlYUYa,0,0,True,1570.0,It was a complete guess
0,5d696d1c55742f001af29220,testing,1M,13,ACcOYArG,0,1,False,932.0,It was a complete guess
0,5d696d1c55742f001af29220,testing,0M,14,BMEMANUZ,1,0,False,1114.0,It was a complete guess
0,5d696d1c55742f001af29220,testing,2M,15,COtBDmvG,1,0,False,1197.0,It was a complete guess
0,5d696d1c55742f001af29220,testing,0M,16,BlmcllGc,1,1,True,908.0,It was a complete guess
0,5d696d1c55742f001af29220,testing,1M,17,GJGcZuda,0,0,True,688.0,It was a complete guess
0,5d696d1c55742f001af29220,testing,1M,18,GabkOQAr,0,0,True,881.0,It was a complete guess
0,5d696d1c55742f001af29220,testing,1M,19,tmtEMcMRl,0,0,True,839.0,It was a complete guess
0,5d696d1c55742f001af29220,testing,1M,20,hkRKMAB,0,0,True,848.0,It was a complete guess
0,5d696d1c55742f001af29220,testing,2M,21,LOLkUOMC,1,0,False,1061.0,It was a complete guess
0,5d696d1c55742f001af29220,testing,1M,22,btlckDCmh,0,1,False,1023.0,It was a complete guess
0,5d696d1c55742f001af29220,testing,0M,23,BbODUmNJ,1,1,True,1030.0,It was a complete guess
0,5d696d1c55742f001af29220,testing,1M,24,PYkCUJkG,0,1,False,995.0,It was a complete guess
0,5d696d1c55742f001af29220,testing,2M,25,rdLJamhc,1,0,False,584.0,It was a complete guess
0,5d696d1c55742f001af29220,testing,0M,26,AmaclUbG,1,1,True,1092.0,It was a complete guess
0,5d696d1c55742f001af29220,testing,1M,27,hbkdtcB,0,1,False,1022.0,It was a complete guess
0,5d696d1c55742f001af29220,testing,2M,28,YOZNMAB,1,0,False,880.0,It was a complete guess
0,5d696d1c55742f001af29220,testing,0M,29,CmYAvAvb,1,0,False,930.0,It was a complete guess
0,5d696d1c55742f001af29220,testing,1M,30,JZOAkOMC,0,0,True,1186.0,It was a complete guess
0,5d696d1c55742f001af29220,testing,0M,31,UdumdYKPB,1,1,True,803.0,It was a complete guess
0,5d696d1c55742f001af29220,testing,1M,32,rdLJabGuO,0,0,True,865.0,It was a complete guess
0,5d696d1c55742f001af29220,testing,2M,33,btlckkam,1,1,True,1090.0,It was a complete guess
0,5d696d1c55742f001af29220,testing,0M,34,dMYBPtAY,1,1,True,977.0,It was a complete guess
0,5d696d1c55742f001af29220,testing,0M,35,GrubDOk,1,0,False,689.0,It was a complete guess
0,5d696d1c55742f001af29220,testing,1M,36,DmAMEcMRl,0,1,False,918.0,It was a complete guess
0,5d696d1c55742f001af29220,testing,2M,37,GJGcZkam,0,1,False,1387.0,It was a complete guess
0,5d696d1c55742f001af29220,testing,1M,38,ZYcQUMTdY,0,0,True,44.0,It was a complete guess
0,5d696d1c55742f001af29220,testing,1M,39,mBmlAmhc,0,0,True,941.0,It was a complete guess
0,5d696d1c55742f001af29220,testing,0M,40,hTtBbbAMO,1,1,True,1091.0,It was a complete guess
0,5d696d1c55742f001af29220,testing,1M,41,EhbtJcL,0,0,True,1066.0,It was a complete guess
0,5d696d1c55742f001af29220,testing,1M,42,kMbTRCdt,0,0,True,940.0,It was a complete guess
0,5d696d1c55742f001af29220,testing,1M,43,TdmAOMC,0,0,True,1214.0,It was a complete guess
0,5d696d1c55742f001af29220,testing,0M,44,YUNkZuvJ,1,1,True,997.0,It was a complete guess
0,5d696d1c55742f001af29220,testing,0M,45,MKmYdPc,1,0,False,829.0,It was a complete guess
0,5d696d1c55742f001af29220,testing,2M,46,hbkdOPE,0,1,False,1115.0,It was a complete guess
0,5d696d1c55742f001af29220,testing,0M,47,AYkEhJmNk,1,1,True,803.0,It was a complete guess
0,5d696d1c55742f001af29220,testing,0M,48,NQZvJud,1,1,True,903.0,It was a complete guess
0,5d696d1c55742f001af29220,testing,2M,49,uAkrOMC,1,1,True,1094.0,It was a complete guess
0,5d696d1c55742f001af29220,testing,1M,50,vAarQONk,0,1,False,923.0,It was a complete guess
0,5d696d1c55742f001af29220,testing,0M,51,YaOkkdrO,1,0,False,888.0,It was a complete guess
0,5d696d1c55742f001af29220,testing,2M,52,PhktkmvG,1,1,True,931.0,It was a complete guess
0,5d696d1c55742f001af29220,testing,2M,53,vAarGQYQ,0,1,False,959.0,It was a complete guess
0,5d696d1c55742f001af29220,testing,2M,54,QcQAJcMRl,1,0,False,1012.0,It was a complete guess
0,5d696d1c55742f001af29220,testing,2M,55,JuamlOQAr,0,0,True,1288.0,It was a complete guess
0,5d696d1c55742f001af29220,testing,2M,56,PYkCcMRl,0,0,True,1091.0,It was a complete guess
0,5d696d1c55742f001af29220,testing,0M,57,cuOJbmCd,1,0,False,1430.0,It was a complete guess
0,5d696d1c55742f001af29220,testing,1M,58,kcCRtmvG,0,0,True,847.0,It was a complete guess
0,5d696d1c55742f001af29220,testing,2M,59,QLrOJOPE,1,0,False,835.0,It was a complete guess
0,5d696d1c55742f001af29220,testing,1M,60,aYQmkam,0,0,True,841.0,It was a complete guess
0,5d696d1c55742f001af29220,testing,1M,61,QLrOJLuNZ,0,0,True,1574.0,It was a complete guess
0,5d696d1c55742f001af29220,testing,0M,62,TPCbrab,1,1,True,761.0,It was a complete guess
0,5d696d1c55742f001af29220,testing,0M,63,NaAQdYbN,1,1,True,853.0,It was a complete guess
0,5d696d1c55742f001af29220,testing,0M,64,OAmGrBPAl,1,1,True,756.0,It was a complete guess
0,5d696d1c55742f001af29220,testing,0M,65,krGuUbG,1,1,True,1327.0,It was a complete guess
0,5d696d1c55742f001af29220,testing,0M,66,ObZbAbcbM,1,1,True,1107.0,It was a complete guess
0,5d696d1c55742f001af29220,testing,0M,67,ckdAmDOk,1,0,False,1088.0,It was a complete guess
0,5d696d1c55742f001af29220,testing,1M,68,PlEKGQYQ,0,1,False,1270.0,It was a complete guess
0,5d696d1c55742f001af29220,testing,2M,69,uAkrmvG,0,1,False,796.0,It was a complete guess
0,5d696d1c55742f001af29220,testing,1M,70,PhktkQru,0,0,True,586.0,It was a complete guess
0,5d696d1c55742f001af29220,testing,0M,71,NbmQUUZu,1,1,True,785.0,It was a complete guess
0,5d696d1c55742f001af29220,testing,2M,72,GJGcZcMRl,1,0,False,772.0,It was a complete guess
0,5d696d1c55742f001af29220,testing,2M,73,kMbTRYArG,1,0,False,1252.0,It was a complete guess
0,5d696d1c55742f001af29220,testing,0M,74,NaAQdcrdY,1,1,True,1098.0,It was a complete guess
0,5d696d1c55742f001af29220,testing,2M,75,YKRkGQYQ,1,0,False,688.0,It was a complete guess
0,5d696d1c55742f001af29220,testing,2M,76,lRCBmhc,0,1,False,758.0,It was a complete guess
0,5d696d1c55742f001af29220,testing,1M,77,PCMPKATc,0,0,True,644.0,It was a complete guess
0,5d696d1c55742f001af29220,testing,1M,78,UYZlZGQYQ,0,0,True,829.0,It was a complete guess
0,5d696d1c55742f001af29220,testing,0M,79,mUOcOkNua,1,1,True,778.0,It was a complete guess
0,5d696d1c55742f001af29220,testing,1M,80,DBklMAB,0,1,False,846.0,It was a complete guess
0,5d696d1c55742f001af29220,testing,0M,81,OcYMJUG,1,0,False,630.0,It was a complete guess
0,5d696d1c55742f001af29220,testing,1M,82,JvaAOQAr,0,1,False,791.0,It was a complete guess
0,5d696d1c55742f001af29220,testing,2M,83,YKRkMAB,0,1,False,799.0,It was a complete guess
0,5d696d1c55742f001af29220,testing,0M,84,GLluAYDE,1,0,False,826.0,It was a complete guess
0,5d696d1c55742f001af29220,testing,2M,85,COtBDOMC,0,1,False,735.0,It was a complete guess
0,5d696d1c55742f001af29220,testing,1M,86,YOZNJdGm,0,0,True,1308.0,It was a complete guess
0,5d696d1c55742f001af29220,testing,2M,87,Juamlmhc,1,1,True,649.0,It was a complete guess
0,5d696d1c55742f001af29220,testing,0M,88,TDKhbTE,1,1,True,674.0,It was a complete guess
0,5d696d1c55742f001af29220,testing,0M,89,OmtlDYkZ,1,1,True,862.0,It was a complete guess
0,5d696d1c55742f001af29220,testing,1M,90,EltMBkam,0,0,True,629.0,It was a complete guess
0,5d696d1c55742f001af29220,testing,2M,91,btlckcMRl,0,1,False,765.0,It was a complete guess
0,5d696d1c55742f001af29220,testing,2M,92,PCMPKGQYQ,1,0,False,1367.0,It was a complete guess
0,5d696d1c55742f001af29220,testing,1M,93,COtBDQGb,0,1,False,720.0,It was a complete guess
0,5d696d1c55742f001af29220,testing,2M,94,ZYcQUYArG,0,1,False,1030.0,It was a complete guess
0,5d696d1c55742f001af29220,testing,1M,95,ZkGmYOPE,0,1,False,749.0,It was a complete guess
0,5d696d1c55742f001af29220,testing,1M,96,lRCBNac,0,1,False,897.0,It was a complete guess
0,5d696d1c55742f001af29220,testing,1M,97,bYGOZYArG,0,0,True,761.0,It was a complete guess
0,5d696d1c55742f001af29220,testing,0M,98,PMPtkkbu,1,0,False,1080.0,It was a complete guess
0,5d696d1c55742f001af29220,testing,2M,99,PCMPKMAB,0,0,True,588.0,It was a complete guess
0,5d696d1c55742f001af29220,testing,2M,100,lRCBOQAr,1,1,True,1232.0,It was a complete guess
0,5d696d1c55742f001af29220,testing,2M,101,ZYcQUOPE,1,0,False,1327.0,It was a complete guess
0,5d696d1c55742f001af29220,testing,0M,102,ODBDAkKE,1,0,False,610.0,It was a complete guess
0,5d696d1c55742f001af29220,testing,1M,103,LOLkUJZr,0,0,True,867.0,It was a complete guess
0,5d696d1c55742f001af29220,testing,2M,104,kMbTROPE,0,0,True,1307.0,It was a complete guess
0,5d696d1c55742f001af29220,testing,1M,105,YKRkYht,0,1,False,844.0,It was a complete guess
0,5d696d1c55742f001af29220,testing,2M,106,QcQAJkam,0,0,True,1039.0,It was a complete guess
0,5d696d1c55742f001af29220,testing,0M,107,kGamNOBT,1,0,False,597.0,It was a complete guess
0,5d696d1c55742f001af29220,testing,0M,108,BATOcLkNc,1,1,True,776.0,It was a complete guess
0,5d696d1c55742f001af29220,testing,0M,109,rNlZAld,1,1,True,747.0,It was a complete guess
0,5d696d1c55742f001af29220,testing,0M,110,chEDOOtM,1,1,True,849.0,It was a complete guess
0,5d696d1c55742f001af29220,testing,2M,111,hbkdYArG,1,1,True,579.0,It was a complete guess
0,5d696d1c55742f001af29220,testing,1M,112,KTDTBOPE,0,1,False,833.0,It was a complete guess
0,5d696d1c55742f001af29220,testing,0M,113,RCcEmrOd,1,0,False,1293.0,It was a complete guess
0,5d696d1c55742f001af29220,testing,2M,114,LOLkUmvG,0,0,True,1056.0,It was a complete guess
0,5d696d1c55742f001af29220,testing,1M,115,uAkrark,0,1,False,1420.0,It was a complete guess
0,5d696d1c55742f001af29220,testing,0M,116,RdPtDLuaU,1,1,True,626.0,It was a complete guess
0,5d696d1c55742f001af29220,testing,2M,117,YOZNGQYQ,0,0,True,1639.0,It was a complete guess
0,5d696d1c55742f001af29220,testing,1M,118,YLQmGmhc,0,1,False,929.0,It was a complete guess
0,5d696d1c55742f001af29220,testing,2M,119,PhktkOMC,0,0,True,1147.0,It was a complete guess
0,5d696d1c55742f001af29220,testing,1M,120,GumLlmvG,0,1,False,722.0,It was a complete guess
0,5e248b6f0c0b31718a9d3f31,testing,1M,1,dNZALQur,0,1,False,4208.0,I didn't really use any strategy I was working on intution and memory
0,5e248b6f0c0b31718a9d3f31,testing,1M,2,BCAdAkd,0,0,True,853.0,I didn't really use any strategy I was working on intution and memory
0,5e248b6f0c0b31718a9d3f31,testing,2M,3,BbODkuvb,1,1,True,822.0,I didn't really use any strategy I was working on intution and memory
0,5e248b6f0c0b31718a9d3f31,testing,1M,4,tRdMDhCP,0,0,True,858.0,I didn't really use any strategy I was working on intution and memory
0,5e248b6f0c0b31718a9d3f31,testing,0M,5,muYNtAY,1,0,False,623.0,I didn't really use any strategy I was working on intution and memory
0,5e248b6f0c0b31718a9d3f31,testing,1M,6,LuNZhTDd,0,0,True,635.0,I didn't really use any strategy I was working on intution and memory
0,5e248b6f0c0b31718a9d3f31,testing,0M,7,AdYlTdmA,1,1,True,759.0,I didn't really use any strategy I was working on intution and memory
0,5e248b6f0c0b31718a9d3f31,testing,2M,8,tDPRkkuvb,1,0,False,1070.0,I didn't really use any strategy I was working on intution and memory
0,5e248b6f0c0b31718a9d3f31,testing,2M,9,UrOQdmRb,1,0,False,918.0,I didn't really use any strategy I was working on intution and memory
0,5e248b6f0c0b31718a9d3f31,testing,0M,10,DCmhRYlD,1,1,True,405.0,I didn't really use any strategy I was working on intution and memory
0,5e248b6f0c0b31718a9d3f31,testing,1M,11,YUNkZdTAh,0,0,True,959.0,I didn't really use any strategy I was working on intution and memory
0,5e248b6f0c0b31718a9d3f31,testing,1M,12,BbODTmc,0,1,False,645.0,I didn't really use any strategy I was working on intution and memory
0,5e248b6f0c0b31718a9d3f31,testing,0M,13,aYQmPTl,1,0,False,668.0,I didn't really use any strategy I was working on intution and memory
0,5e248b6f0c0b31718a9d3f31,testing,1M,14,lKdbcKABA,0,0,True,1044.0,I didn't really use any strategy I was working on intution and memory
0,5e248b6f0c0b31718a9d3f31,testing,1M,15,MCkmdmRb,0,0,True,1281.0,I didn't really use any strategy I was working on intution and memory
0,5e248b6f0c0b31718a9d3f31,testing,1M,16,PEdKYArG,0,0,True,978.0,I didn't really use any strategy I was working on intution and memory
0,5e248b6f0c0b31718a9d3f31,testing,1M,17,OtlRTbk,0,1,False,648.0,I didn't really use any strategy I was working on intution and memory
0,5e248b6f0c0b31718a9d3f31,testing,1M,18,Yaumkuvb,0,0,True,652.0,I didn't really use any strategy I was working on intution and memory
0,5e248b6f0c0b31718a9d3f31,testing,1M,19,lkAkrba,0,1,False,993.0,I didn't really use any strategy I was working on intution and memory
0,5e248b6f0c0b31718a9d3f31,testing,0M,20,YKPBbvkr,1,1,True,1015.0,I didn't really use any strategy I was working on intution and memory
0,5e248b6f0c0b31718a9d3f31,testing,2M,21,AbkaKOYC,1,0,False,953.0,I didn't really use any strategy I was working on intution and memory
0,5e248b6f0c0b31718a9d3f31,testing,1M,22,kDOmYArG,0,1,False,598.0,I didn't really use any strategy I was working on intution and memory
0,5e248b6f0c0b31718a9d3f31,testing,0M,23,AZblPED,1,0,False,1046.0,I didn't really use any strategy I was working on intution and memory
0,5e248b6f0c0b31718a9d3f31,testing,0M,24,JauQEPBT,1,0,False,868.0,I didn't really use any strategy I was working on intution and memory
0,5e248b6f0c0b31718a9d3f31,testing,1M,25,aYaNdmRb,0,0,True,1120.0,I didn't really use any strategy I was working on intution and memory
0,5e248b6f0c0b31718a9d3f31,testing,2M,26,lKdbcrba,1,1,True,666.0,I didn't really use any strategy I was working on intution and memory
0,5e248b6f0c0b31718a9d3f31,testing,2M,27,RKYkGrub,1,0,False,516.0,I didn't really use any strategy I was working on intution and memory
0,5e248b6f0c0b31718a9d3f31,testing,0M,28,EltMBcthB,1,0,False,1033.0,I didn't really use any strategy I was working on intution and memory
0,5e248b6f0c0b31718a9d3f31,testing,0M,29,OJlNCdt,1,1,True,687.0,I didn't really use any strategy I was working on intution and memory
0,5e248b6f0c0b31718a9d3f31,testing,1M,30,PDPhlMTdY,0,0,True,763.0,I didn't really use any strategy I was working on intution and memory
0,5e248b6f0c0b31718a9d3f31,testing,0M,31,PCMPKCEM,1,0,False,1100.0,I didn't really use any strategy I was working on intution and memory
0,5e248b6f0c0b31718a9d3f31,testing,2M,32,Abkarba,0,1,False,814.0,I didn't really use any strategy I was working on intution and memory
0,5e248b6f0c0b31718a9d3f31,testing,0M,33,rdLJaNUZ,1,0,False,481.0,I didn't really use any strategy I was working on intution and memory
0,5e248b6f0c0b31718a9d3f31,testing,2M,34,adYrckuvb,0,0,True,1017.0,I didn't really use any strategy I was working on intution and memory
0,5e248b6f0c0b31718a9d3f31,testing,0M,35,kcdOtYht,1,0,False,838.0,I didn't really use any strategy I was working on intution and memory
0,5e248b6f0c0b31718a9d3f31,testing,0M,36,DMRPJQA,1,1,True,782.0,I didn't really use any strategy I was working on intution and memory
0,5e248b6f0c0b31718a9d3f31,testing,0M,37,TDKhDmh,1,0,False,962.0,I didn't really use any strategy I was working on intution and memory
0,5e248b6f0c0b31718a9d3f31,testing,2M,38,BbODAkd,0,1,False,1236.0,I didn't really use any strategy I was working on intution and memory
0,5e248b6f0c0b31718a9d3f31,testing,0M,39,CDEmYlvk,1,0,False,664.0,I didn't really use any strategy I was working on intution and memory
0,5e248b6f0c0b31718a9d3f31,testing,0M,40,Yadrdmkv,1,0,False,817.0,I didn't really use any strategy I was working on intution and memory
0,5e248b6f0c0b31718a9d3f31,testing,0M,41,DMRPkKE,1,0,False,1326.0,I didn't really use any strategy I was working on intution and memory
0,5e248b6f0c0b31718a9d3f31,testing,1M,42,rLaZlGc,0,1,False,699.0,I didn't really use any strategy I was working on intution and memory
0,5e248b6f0c0b31718a9d3f31,testing,0M,43,hChYtdDd,1,0,False,702.0,I didn't really use any strategy I was working on intution and memory
0,5e248b6f0c0b31718a9d3f31,testing,1M,44,TdTDGrub,0,0,True,677.0,I didn't really use any strategy I was working on intution and memory
0,5e248b6f0c0b31718a9d3f31,testing,1M,45,tmAKbTE,0,1,False,564.0,I didn't really use any strategy I was working on intution and memory
0,5e248b6f0c0b31718a9d3f31,testing,0M,46,ktBdkPM,1,0,False,892.0,I didn't really use any strategy I was working on intution and memory
0,5e248b6f0c0b31718a9d3f31,testing,0M,47,bAdkNac,1,0,False,788.0,I didn't really use any strategy I was working on intution and memory
0,5e248b6f0c0b31718a9d3f31,testing,1M,48,AbkaKmE,0,0,True,751.0,I didn't really use any strategy I was working on intution and memory
0,5e248b6f0c0b31718a9d3f31,testing,2M,49,tDPRkAkd,0,1,False,800.0,I didn't really use any strategy I was working on intution and memory
0,5e248b6f0c0b31718a9d3f31,testing,0M,50,UdumdNQZv,1,1,True,903.0,I didn't really use any strategy I was working on intution and memory
0,5e248b6f0c0b31718a9d3f31,testing,2M,51,tRdMdmRb,0,0,True,818.0,I didn't really use any strategy I was working on intution and memory
0,5e248b6f0c0b31718a9d3f31,testing,0M,52,MKmYPTl,1,1,True,908.0,I didn't really use any strategy I was working on intution and memory
0,5e248b6f0c0b31718a9d3f31,testing,2M,53,MDKPGrub,1,0,False,850.0,I didn't really use any strategy I was working on intution and memory
0,5e248b6f0c0b31718a9d3f31,testing,2M,54,GumLlKOYC,1,0,False,823.0,I didn't really use any strategy I was working on intution and memory
0,5e248b6f0c0b31718a9d3f31,testing,1M,55,RKYkuZc,0,0,True,811.0,I didn't really use any strategy I was working on intution and memory
0,5e248b6f0c0b31718a9d3f31,testing,2M,56,YUNkZGrub,0,0,True,898.0,I didn't really use any strategy I was working on intution and memory
0,5e248b6f0c0b31718a9d3f31,testing,2M,57,LuNZbTE,1,1,True,742.0,I didn't really use any strategy I was working on intution and memory
0,5e248b6f0c0b31718a9d3f31,testing,1M,58,BKDRYkuvb,0,0,True,924.0,I didn't really use any strategy I was working on intution and memory
0,5e248b6f0c0b31718a9d3f31,testing,2M,59,dNZAAkd,1,0,False,742.0,I didn't really use any strategy I was working on intution and memory
0,5e248b6f0c0b31718a9d3f31,testing,2M,60,tRdMUZu,1,1,True,867.0,I didn't really use any strategy I was working on intution and memory
0,5e248b6f0c0b31718a9d3f31,testing,0M,61,QvlZkKE,1,0,False,763.0,I didn't really use any strategy I was working on intution and memory
0,5e248b6f0c0b31718a9d3f31,testing,1M,62,OdYPAld,0,0,True,824.0,I didn't really use any strategy I was working on intution and memory
0,5e248b6f0c0b31718a9d3f31,testing,2M,63,rLaZUZu,0,1,False,622.0,I didn't really use any strategy I was working on intution and memory
0,5e248b6f0c0b31718a9d3f31,testing,0M,64,mdlalrZG,1,0,False,517.0,I didn't really use any strategy I was working on intution and memory
0,5e248b6f0c0b31718a9d3f31,testing,2M,65,NkUATbk,1,0,False,868.0,I didn't really use any strategy I was working on intution and memory
0,5e248b6f0c0b31718a9d3f31,testing,0M,66,UJmrkKRC,1,1,True,948.0,I didn't really use any strategy I was working on intution and memory
0,5e248b6f0c0b31718a9d3f31,testing,2M,67,rkJuYArG,0,0,True,711.0,I didn't really use any strategy I was working on intution and memory
0,5e248b6f0c0b31718a9d3f31,testing,1M,68,adYrcOCmk,0,0,True,1092.0,I didn't really use any strategy I was working on intution and memory
0,5e248b6f0c0b31718a9d3f31,testing,1M,69,NaJbGrub,0,1,False,552.0,I didn't really use any strategy I was working on intution and memory
0,5e248b6f0c0b31718a9d3f31,testing,1M,70,tDPRkYNu,0,1,False,460.0,I didn't really use any strategy I was working on intution and memory
0,5e248b6f0c0b31718a9d3f31,testing,0M,71,cAZuCMdP,1,1,True,1163.0,I didn't really use any strategy I was working on intution and memory
0,5e248b6f0c0b31718a9d3f31,testing,1M,72,dmZvmAkd,0,0,True,851.0,I didn't really use any strategy I was working on intution and memory
0,5e248b6f0c0b31718a9d3f31,testing,0M,73,ECtbDTDKh,1,0,False,756.0,I didn't really use any strategy I was working on intution and memory
0,5e248b6f0c0b31718a9d3f31,testing,1M,74,kCRmkmU,0,0,True,978.0,I didn't really use any strategy I was working on intution and memory
0,5e248b6f0c0b31718a9d3f31,testing,2M,75,OdYPTbk,0,0,True,731.0,I didn't really use any strategy I was working on intution and memory
0,5e248b6f0c0b31718a9d3f31,testing,2M,76,UrOQUZu,0,0,True,1018.0,I didn't really use any strategy I was working on intution and memory
0,5e248b6f0c0b31718a9d3f31,testing,0M,77,YTOMdBC,1,1,True,988.0,I didn't really use any strategy I was working on intution and memory
0,5e248b6f0c0b31718a9d3f31,testing,1M,78,AdDbUZu,0,0,True,582.0,I didn't really use any strategy I was working on intution and memory
0,5e248b6f0c0b31718a9d3f31,testing,1M,79,thbOMKOYC,0,1,False,1264.0,I didn't really use any strategy I was working on intution and memory
0,5e248b6f0c0b31718a9d3f31,testing,0M,80,BMEMATPOM,1,1,True,816.0,I didn't really use any strategy I was working on intution and memory
0,5e248b6f0c0b31718a9d3f31,testing,0M,81,RdPtDOJGQ,1,0,False,631.0,I didn't really use any strategy I was working on intution and memory
0,5e248b6f0c0b31718a9d3f31,testing,2M,82,adYrcAkd,1,0,False,898.0,I didn't really use any strategy I was working on intution and memory
0,5e248b6f0c0b31718a9d3f31,testing,1M,83,QcQAJbTE,0,1,False,813.0,I didn't really use any strategy I was working on intution and memory
0,5e248b6f0c0b31718a9d3f31,testing,2M,84,LuNZGrub,0,0,True,635.0,I didn't really use any strategy I was working on intution and memory
0,5e248b6f0c0b31718a9d3f31,testing,0M,85,YJkbBCD,1,0,False,822.0,I didn't really use any strategy I was working on intution and memory
0,5e248b6f0c0b31718a9d3f31,testing,0M,86,lBlErULv,1,1,True,1067.0,I didn't really use any strategy I was working on intution and memory
0,5e248b6f0c0b31718a9d3f31,testing,2M,87,rLaZdmRb,1,1,True,1044.0,I didn't really use any strategy I was working on intution and memory
0,5e248b6f0c0b31718a9d3f31,testing,0M,88,QbkAcvJQ,1,0,False,626.0,I didn't really use any strategy I was working on intution and memory
0,5e248b6f0c0b31718a9d3f31,testing,2M,89,lKdbcKOYC,0,0,True,518.0,I didn't really use any strategy I was working on intution and memory
0,5e248b6f0c0b31718a9d3f31,testing,1M,90,NkUAbYuQ,0,1,False,544.0,I didn't really use any strategy I was working on intution and memory
0,5e248b6f0c0b31718a9d3f31,testing,2M,91,dNZAkuvb,0,0,True,736.0,I didn't really use any strategy I was working on intution and memory
0,5e248b6f0c0b31718a9d3f31,testing,2M,92,PDPhldmRb,0,0,True,827.0,I didn't really use any strategy I was working on intution and memory
0,5e248b6f0c0b31718a9d3f31,testing,1M,93,rkJuamJm,0,0,True,1066.0,I didn't really use any strategy I was working on intution and memory
0,5e248b6f0c0b31718a9d3f31,testing,2M,94,kCRmTbk,0,0,True,1064.0,I didn't really use any strategy I was working on intution and memory
0,5e248b6f0c0b31718a9d3f31,testing,2M,95,NkUAYArG,0,0,True,964.0,I didn't really use any strategy I was working on intution and memory
0,5e248b6f0c0b31718a9d3f31,testing,1M,96,TklDDhMt,0,1,False,948.0,I didn't really use any strategy I was working on intution and memory
0,5e248b6f0c0b31718a9d3f31,testing,2M,97,MDKPbTE,0,1,False,1084.0,I didn't really use any strategy I was working on intution and memory
0,5e248b6f0c0b31718a9d3f31,testing,0M,98,BRDhbvkr,1,0,False,610.0,I didn't really use any strategy I was working on intution and memory
0,5e248b6f0c0b31718a9d3f31,testing,2M,99,PDPhlUZu,1,1,True,892.0,I didn't really use any strategy I was working on intution and memory
0,5e248b6f0c0b31718a9d3f31,testing,2M,100,RKYkbTE,0,0,True,702.0,I didn't really use any strategy I was working on intution and memory
0,5e248b6f0c0b31718a9d3f31,testing,0M,101,MlthlGZv,1,0,False,1064.0,I didn't really use any strategy I was working on intution and memory
0,5e248b6f0c0b31718a9d3f31,testing,2M,102,TklDKOYC,0,0,True,858.0,I didn't really use any strategy I was working on intution and memory
0,5e248b6f0c0b31718a9d3f31,testing,0M,103,rULvYUYa,1,1,True,897.0,I didn't really use any strategy I was working on intution and memory
0,5e248b6f0c0b31718a9d3f31,testing,1M,104,dRbDbUZu,0,1,False,909.0,I didn't really use any strategy I was working on intution and memory
0,5e248b6f0c0b31718a9d3f31,testing,0M,105,kZUbAPT,1,0,False,605.0,I didn't really use any strategy I was working on intution and memory
0,5e248b6f0c0b31718a9d3f31,testing,2M,106,GumLlrba,0,0,True,820.0,I didn't really use any strategy I was working on intution and memory
0,5e248b6f0c0b31718a9d3f31,testing,0M,107,aLNlkEdBb,1,1,True,857.0,I didn't really use any strategy I was working on intution and memory
0,5e248b6f0c0b31718a9d3f31,testing,1M,108,GumLlmAM,0,0,True,581.0,I didn't really use any strategy I was working on intution and memory
0,5e248b6f0c0b31718a9d3f31,testing,2M,109,kCRmYArG,1,0,False,877.0,I didn't really use any strategy I was working on intution and memory
0,5e248b6f0c0b31718a9d3f31,testing,2M,110,YUNkZbTE,1,1,True,732.0,I didn't really use any strategy I was working on intution and memory
0,5e248b6f0c0b31718a9d3f31,testing,1M,111,UrOQOtM,0,0,True,857.0,I didn't really use any strategy I was working on intution and memory
0,5e248b6f0c0b31718a9d3f31,testing,1M,112,YLQmGrba,0,0,True,1193.0,I didn't really use any strategy I was working on intution and memory
0,5e248b6f0c0b31718a9d3f31,testing,2M,113,rkJuTbk,1,0,False,857.0,I didn't really use any strategy I was working on intution and memory
0,5e248b6f0c0b31718a9d3f31,testing,1M,114,MDKPhBK,0,0,True,817.0,I didn't really use any strategy I was working on intution and memory
0,5e248b6f0c0b31718a9d3f31,testing,2M,115,TklDrba,1,0,False,997.0,I didn't really use any strategy I was working on intution and memory
0,5e248b6f0c0b31718a9d3f31,testing,1M,116,GJZmTbk,0,1,False,907.0,I didn't really use any strategy I was working on intution and memory
0,5e248b6f0c0b31718a9d3f31,testing,2M,117,OdYPYArG,1,1,True,864.0,I didn't really use any strategy I was working on intution and memory
0,5e248b6f0c0b31718a9d3f31,testing,1M,118,OJNkKOYC,0,0,True,551.0,I didn't really use any strategy I was working on intution and memory
0,5e248b6f0c0b31718a9d3f31,testing,0M,119,vAuNlYht,1,1,True,937.0,I didn't really use any strategy I was working on intution and memory
0,5e248b6f0c0b31718a9d3f31,testing,0M,120,EMYKUJkG,1,0,False,802.0,I didn't really use any strategy I was working on intution and memory
0,5e2b03f0005f2a02c5a64f7b,testing,0M,1,CYPcUZu,1,1,True,6834.0,I didnt use any strategy.
0,5e2b03f0005f2a02c5a64f7b,testing,2M,2,JNkaKmE,1,0,False,772.0,I didnt use any strategy.
0,5e2b03f0005f2a02c5a64f7b,testing,1M,3,amJmUvOG,0,1,False,869.0,I didnt use any strategy.
0,5e2b03f0005f2a02c5a64f7b,testing,2M,4,PEtEkmU,1,0,False,1484.0,I didnt use any strategy.
0,5e2b03f0005f2a02c5a64f7b,testing,0M,5,mUOcOGQrc,1,1,True,1042.0,I didnt use any strategy.
0,5e2b03f0005f2a02c5a64f7b,testing,0M,6,TEBKQru,1,1,True,908.0,I didnt use any strategy.
0,5e2b03f0005f2a02c5a64f7b,testing,2M,7,amJmmKcD,1,0,False,1018.0,I didnt use any strategy.
0,5e2b03f0005f2a02c5a64f7b,testing,0M,8,lmbYJUG,1,0,False,1121.0,I didnt use any strategy.
0,5e2b03f0005f2a02c5a64f7b,testing,2M,9,ctktGUOA,1,1,True,788.0,I didnt use any strategy.
0,5e2b03f0005f2a02c5a64f7b,testing,0M,10,tdDdJvaA,1,1,True,842.0,I didnt use any strategy.
0,5e2b03f0005f2a02c5a64f7b,testing,0M,11,ukcYABb,1,0,False,879.0,I didnt use any strategy.
0,5e2b03f0005f2a02c5a64f7b,testing,1M,12,mcOJGlu,0,1,False,857.0,I didnt use any strategy.
0,5e2b03f0005f2a02c5a64f7b,testing,0M,13,kMECOMC,1,0,False,759.0,I didnt use any strategy.
0,5e2b03f0005f2a02c5a64f7b,testing,0M,14,kbmZOkbu,1,0,False,657.0,I didnt use any strategy.
0,5e2b03f0005f2a02c5a64f7b,testing,0M,15,bRABtuvJ,1,0,False,1097.0,I didnt use any strategy.
0,5e2b03f0005f2a02c5a64f7b,testing,0M,16,hTDdblMk,1,0,False,1079.0,I didnt use any strategy.
0,5e2b03f0005f2a02c5a64f7b,testing,2M,17,YKRkLkNc,1,0,False,957.0,I didnt use any strategy.
0,5e2b03f0005f2a02c5a64f7b,testing,0M,18,bdUNuvcb,1,1,True,1593.0,I didnt use any strategy.
0,5e2b03f0005f2a02c5a64f7b,testing,1M,19,GumLlYBO,0,1,False,1755.0,I didnt use any strategy.
0,5e2b03f0005f2a02c5a64f7b,testing,0M,20,UdYUQOcN,1,0,False,1905.0,I didnt use any strategy.
0,5e2b03f0005f2a02c5a64f7b,testing,0M,21,dKRDdmkv,1,1,True,1694.0,I didnt use any strategy.
0,5e2b03f0005f2a02c5a64f7b,testing,1M,22,YOZNmKcD,0,0,True,1907.0,I didnt use any strategy.
0,5e2b03f0005f2a02c5a64f7b,testing,0M,23,ZYcQUhCkt,1,1,True,1694.0,I didnt use any strategy.
0,5e2b03f0005f2a02c5a64f7b,testing,1M,24,hbmACEM,0,1,False,2068.0,I didnt use any strategy.
0,5e2b03f0005f2a02c5a64f7b,testing,0M,25,RYlDCOTK,1,0,False,1183.0,I didnt use any strategy.
0,5e2b03f0005f2a02c5a64f7b,testing,1M,26,AZblkmU,0,1,False,1762.0,I didnt use any strategy.
0,5e2b03f0005f2a02c5a64f7b,testing,2M,27,mBYlGUOA,1,0,False,1510.0,I didnt use any strategy.
0,5e2b03f0005f2a02c5a64f7b,testing,2M,28,khmhDOk,0,0,True,1404.0,I didnt use any strategy.
0,5e2b03f0005f2a02c5a64f7b,testing,2M,29,dMThkYNu,1,1,True,1510.0,I didnt use any strategy.
0,5e2b03f0005f2a02c5a64f7b,testing,1M,30,khmhYcM,0,1,False,1731.0,I didnt use any strategy.
0,5e2b03f0005f2a02c5a64f7b,testing,2M,31,UdlGQCkbd,1,1,True,1636.0,I didnt use any strategy.
0,5e2b03f0005f2a02c5a64f7b,testing,0M,32,mhtcmuYN,1,0,False,1408.0,I didnt use any strategy.
0,5e2b03f0005f2a02c5a64f7b,testing,0M,33,cRElDRtRh,1,0,False,1428.0,I didnt use any strategy.
0,5e2b03f0005f2a02c5a64f7b,testing,2M,34,TPCbCEM,0,0,True,1541.0,I didnt use any strategy.
0,5e2b03f0005f2a02c5a64f7b,testing,2M,35,kabJbLkNc,0,0,True,1555.0,I didnt use any strategy.
0,5e2b03f0005f2a02c5a64f7b,testing,1M,36,JNkambZl,0,1,False,1512.0,I didnt use any strategy.
0,5e2b03f0005f2a02c5a64f7b,testing,0M,37,bRABtGQrc,1,1,True,1683.0,I didnt use any strategy.
0,5e2b03f0005f2a02c5a64f7b,testing,0M,38,rvAJKlkD,1,0,False,1714.0,I didnt use any strategy.
0,5e2b03f0005f2a02c5a64f7b,testing,2M,39,dMThkCkbd,0,0,True,1666.0,I didnt use any strategy.
0,5e2b03f0005f2a02c5a64f7b,testing,2M,40,QcladGUOA,0,1,False,1865.0,I didnt use any strategy.
0,5e2b03f0005f2a02c5a64f7b,testing,2M,41,GumLlCEM,1,0,False,1371.0,I didnt use any strategy.
0,5e2b03f0005f2a02c5a64f7b,testing,2M,42,BOckPKmE,0,0,True,1862.0,I didnt use any strategy.
0,5e2b03f0005f2a02c5a64f7b,testing,0M,43,hYDmtJcL,1,1,True,1731.0,I didnt use any strategy.
0,5e2b03f0005f2a02c5a64f7b,testing,2M,44,PEtECEM,0,0,True,1638.0,I didnt use any strategy.
0,5e2b03f0005f2a02c5a64f7b,testing,0M,45,KDPAAdYl,1,1,True,1622.0,I didnt use any strategy.
0,5e2b03f0005f2a02c5a64f7b,testing,1M,46,LYGAGUOA,0,0,True,1577.0,I didnt use any strategy.
0,5e2b03f0005f2a02c5a64f7b,testing,2M,47,ZcGdNCkbd,1,1,True,1443.0,I didnt use any strategy.
0,5e2b03f0005f2a02c5a64f7b,testing,1M,48,YKRkYbN,0,0,True,1689.0,I didnt use any strategy.
0,5e2b03f0005f2a02c5a64f7b,testing,1M,49,kGuaKmE,0,0,True,1350.0,I didnt use any strategy.
0,5e2b03f0005f2a02c5a64f7b,testing,1M,50,vkYGlDOk,0,1,False,1367.0,I didnt use any strategy.
0,5e2b03f0005f2a02c5a64f7b,testing,0M,51,DhMtrba,1,0,False,1190.0,I didnt use any strategy.
0,5e2b03f0005f2a02c5a64f7b,testing,2M,52,ZcGdNYNu,0,1,False,1453.0,I didnt use any strategy.
0,5e2b03f0005f2a02c5a64f7b,testing,1M,53,rdLJaCkbd,0,0,True,1202.0,I didnt use any strategy.
0,5e2b03f0005f2a02c5a64f7b,testing,1M,54,lRckAmKcD,0,0,True,1177.0,I didnt use any strategy.
0,5e2b03f0005f2a02c5a64f7b,testing,2M,55,JrGvYArG,0,1,False,1141.0,I didnt use any strategy.
0,5e2b03f0005f2a02c5a64f7b,testing,1M,56,ZcGdNkBD,0,1,False,1329.0,I didnt use any strategy.
0,5e2b03f0005f2a02c5a64f7b,testing,0M,57,GNAcauAkr,1,0,False,1329.0,I didnt use any strategy.
0,5e2b03f0005f2a02c5a64f7b,testing,1M,58,JAaGKmE,0,0,True,1202.0,I didnt use any strategy.
0,5e2b03f0005f2a02c5a64f7b,testing,0M,59,KAERMuvaU,1,1,True,1219.0,I didnt use any strategy.
0,5e2b03f0005f2a02c5a64f7b,testing,1M,60,AlQaQkNua,0,1,False,1319.0,I didnt use any strategy.
0,5e2b03f0005f2a02c5a64f7b,testing,2M,61,khmhLkNc,1,0,False,1214.0,I didnt use any strategy.
0,5e2b03f0005f2a02c5a64f7b,testing,2M,62,BEPOKmE,0,0,True,1147.0,I didnt use any strategy.
0,5e2b03f0005f2a02c5a64f7b,testing,1M,63,khMDYNu,0,0,True,1337.0,I didnt use any strategy.
0,5e2b03f0005f2a02c5a64f7b,testing,2M,64,JNkaYArG,0,0,True,1217.0,I didnt use any strategy.
0,5e2b03f0005f2a02c5a64f7b,testing,0M,65,mtKPlvk,1,0,False,1111.0,I didnt use any strategy.
0,5e2b03f0005f2a02c5a64f7b,testing,1M,66,JuamlYNu,0,0,True,999.0,I didnt use any strategy.
0,5e2b03f0005f2a02c5a64f7b,testing,1M,67,kulZkmU,0,1,False,1134.0,I didnt use any strategy.
0,5e2b03f0005f2a02c5a64f7b,testing,2M,68,DBklCkbd,0,1,False,1209.0,I didnt use any strategy.
0,5e2b03f0005f2a02c5a64f7b,testing,2M,69,QcladmKcD,1,1,True,1302.0,I didnt use any strategy.
0,5e2b03f0005f2a02c5a64f7b,testing,2M,70,YKRkDOk,0,0,True,1161.0,I didnt use any strategy.
0,5e2b03f0005f2a02c5a64f7b,testing,1M,71,BEPOmZb,0,0,True,1378.0,I didnt use any strategy.
0,5e2b03f0005f2a02c5a64f7b,testing,2M,72,mcOJkmU,0,0,True,1199.0,I didnt use any strategy.
0,5e2b03f0005f2a02c5a64f7b,testing,1M,73,QcladJcUk,0,1,False,906.0,I didnt use any strategy.
0,5e2b03f0005f2a02c5a64f7b,testing,0M,74,lcOclGc,1,0,False,1108.0,I didnt use any strategy.
0,5e2b03f0005f2a02c5a64f7b,testing,1M,75,ctktLQur,0,0,True,973.0,I didnt use any strategy.
0,5e2b03f0005f2a02c5a64f7b,testing,1M,76,kabJbAPEM,0,0,True,985.0,I didnt use any strategy.
0,5e2b03f0005f2a02c5a64f7b,testing,2M,77,mBYlmKcD,0,1,False,1281.0,I didnt use any strategy.
0,5e2b03f0005f2a02c5a64f7b,testing,0M,78,GQYQABb,1,0,False,1146.0,I didnt use any strategy.
0,5e2b03f0005f2a02c5a64f7b,testing,1M,79,CRdBdCkbd,0,0,True,1209.0,I didnt use any strategy.
0,5e2b03f0005f2a02c5a64f7b,testing,1M,80,UdlGQTmc,0,1,False,1033.0,I didnt use any strategy.
0,5e2b03f0005f2a02c5a64f7b,testing,0M,81,YLQmGkPM,1,0,False,1169.0,I didnt use any strategy.
0,5e2b03f0005f2a02c5a64f7b,testing,1M,82,rvOvUYArG,0,1,False,1134.0,I didnt use any strategy.
0,5e2b03f0005f2a02c5a64f7b,testing,0M,83,bcbMMTdY,1,0,False,1224.0,I didnt use any strategy.
0,5e2b03f0005f2a02c5a64f7b,testing,2M,84,JrGvKmE,1,0,False,1159.0,I didnt use any strategy.
0,5e2b03f0005f2a02c5a64f7b,testing,2M,85,GumLlkmU,0,0,True,1188.0,I didnt use any strategy.
0,5e2b03f0005f2a02c5a64f7b,testing,0M,86,hEctbmbN,1,0,False,1168.0,I didnt use any strategy.
0,5e2b03f0005f2a02c5a64f7b,testing,1M,87,YOaAbDOk,0,1,False,1157.0,I didnt use any strategy.
0,5e2b03f0005f2a02c5a64f7b,testing,0M,88,LcNUJPTl,1,0,False,1138.0,I didnt use any strategy.
0,5e2b03f0005f2a02c5a64f7b,testing,0M,89,kZUbTAm,1,1,True,1064.0,I didnt use any strategy.
0,5e2b03f0005f2a02c5a64f7b,testing,0M,90,QOLmuYQbc,1,0,False,1205.0,I didnt use any strategy.
0,5e2b03f0005f2a02c5a64f7b,testing,1M,91,DMRPLkNc,0,0,True,1485.0,I didnt use any strategy.
0,5e2b03f0005f2a02c5a64f7b,testing,2M,92,UdlGQYNu,0,1,False,1147.0,I didnt use any strategy.
0,5e2b03f0005f2a02c5a64f7b,testing,0M,93,DCmhEAO,1,0,False,1083.0,I didnt use any strategy.
0,5e2b03f0005f2a02c5a64f7b,testing,1M,94,KOYCYArG,0,1,False,1024.0,I didnt use any strategy.
0,5e2b03f0005f2a02c5a64f7b,testing,0M,95,RhPmrGl,1,0,False,959.0,I didnt use any strategy.
0,5e2b03f0005f2a02c5a64f7b,testing,2M,96,mcOJCEM,1,1,True,1382.0,I didnt use any strategy.
0,5e2b03f0005f2a02c5a64f7b,testing,1M,97,OdOPLkNc,0,1,False,1120.0,I didnt use any strategy.
0,5e2b03f0005f2a02c5a64f7b,testing,1M,98,DBklrkra,0,0,True,1072.0,I didnt use any strategy.
0,5e2b03f0005f2a02c5a64f7b,testing,0M,99,GNAcaEcR,1,1,True,1068.0,I didnt use any strategy.
0,5e2b03f0005f2a02c5a64f7b,testing,0M,100,cMRlmrOd,1,1,True,1003.0,I didnt use any strategy.
0,5e2b03f0005f2a02c5a64f7b,testing,1M,101,BOckPTbk,0,0,True,1259.0,I didnt use any strategy.
0,5e2b03f0005f2a02c5a64f7b,testing,2M,102,AlQaQLkNc,0,0,True,1399.0,I didnt use any strategy.
0,5e2b03f0005f2a02c5a64f7b,testing,1M,103,JrGvYKPB,0,1,False,1058.0,I didnt use any strategy.
0,5e2b03f0005f2a02c5a64f7b,testing,0M,104,cRElDBECk,1,0,False,1019.0,I didnt use any strategy.
0,5e2b03f0005f2a02c5a64f7b,testing,1M,105,PEtEmAM,0,0,True,1100.0,I didnt use any strategy.
0,5e2b03f0005f2a02c5a64f7b,testing,1M,106,ukYZGUOA,0,0,True,1112.0,I didnt use any strategy.
0,5e2b03f0005f2a02c5a64f7b,testing,1M,107,TPCbAld,0,0,True,1330.0,I didnt use any strategy.
0,5e2b03f0005f2a02c5a64f7b,testing,0M,108,BbODDlDT,1,1,True,1239.0,I didnt use any strategy.
0,5e2b03f0005f2a02c5a64f7b,testing,2M,109,BEPOYArG,1,0,False,993.0,I didnt use any strategy.
0,5e2b03f0005f2a02c5a64f7b,testing,2M,110,DBklYNu,1,0,False,1063.0,I didnt use any strategy.
0,5e2b03f0005f2a02c5a64f7b,testing,1M,111,mBYllZcu,0,0,True,1477.0,I didnt use any strategy.
0,5e2b03f0005f2a02c5a64f7b,testing,2M,112,kabJbDOk,1,1,True,1148.0,I didnt use any strategy.
0,5e2b03f0005f2a02c5a64f7b,testing,2M,113,ctktmKcD,0,0,True,1263.0,I didnt use any strategy.
0,5e2b03f0005f2a02c5a64f7b,testing,1M,114,kMbTRCEM,0,1,False,1097.0,I didnt use any strategy.
0,5e2b03f0005f2a02c5a64f7b,testing,1M,115,dMThkMBmE,0,1,False,1121.0,I didnt use any strategy.
0,5e2b03f0005f2a02c5a64f7b,testing,2M,116,amJmGUOA,0,0,True,1160.0,I didnt use any strategy.
0,5e2b03f0005f2a02c5a64f7b,testing,2M,117,TPCbkmU,1,0,False,1155.0,I didnt use any strategy.
0,5e2b03f0005f2a02c5a64f7b,testing,2M,118,BOckPYArG,1,0,False,1201.0,I didnt use any strategy.
0,5e2b03f0005f2a02c5a64f7b,testing,2M,119,AlQaQDOk,1,0,False,992.0,I didnt use any strategy.
0,5e2b03f0005f2a02c5a64f7b,testing,0M,120,rvUbTPOM,1,1,True,1227.0,I didnt use any strategy.
0,5e9dad3fd8d8010ac6a18620,testing,2M,1,cAZuAPT,1,1,True,6080.0,Remeber patterns
0,5e9dad3fd8d8010ac6a18620,testing,1M,2,YuaNdNulk,0,0,True,1055.0,Remeber patterns
0,5e9dad3fd8d8010ac6a18620,testing,2M,3,EhbtNac,1,1,True,1415.0,Remeber patterns
0,5e9dad3fd8d8010ac6a18620,testing,1M,4,GrbkkGua,0,1,False,1119.0,Remeber patterns
0,5e9dad3fd8d8010ac6a18620,testing,1M,5,bmbNNac,0,0,True,1101.0,Remeber patterns
0,5e9dad3fd8d8010ac6a18620,testing,2M,6,OYuvbYbBT,1,0,False,1474.0,Remeber patterns
0,5e9dad3fd8d8010ac6a18620,testing,0M,7,aUZAmhtc,1,1,True,1654.0,Remeber patterns
0,5e9dad3fd8d8010ac6a18620,testing,1M,8,JauQCEM,0,1,False,1577.0,Remeber patterns
0,5e9dad3fd8d8010ac6a18620,testing,1M,9,EPERdkmU,0,1,False,1764.0,Remeber patterns
0,5e9dad3fd8d8010ac6a18620,testing,1M,10,ORbkYKPB,0,0,True,1656.0,Remeber patterns
0,5e9dad3fd8d8010ac6a18620,testing,1M,11,hBmMCOBT,0,1,False,1632.0,Remeber patterns
0,5e9dad3fd8d8010ac6a18620,testing,2M,12,LQurYKPB,1,0,False,1771.0,Remeber patterns
0,5e9dad3fd8d8010ac6a18620,testing,0M,13,hAROKLcO,1,1,True,1687.0,Remeber patterns
0,5e9dad3fd8d8010ac6a18620,testing,1M,14,GJZmYKPB,0,1,False,1585.0,Remeber patterns
0,5e9dad3fd8d8010ac6a18620,testing,0M,15,kRCkOhCkt,1,0,False,1820.0,Remeber patterns
0,5e9dad3fd8d8010ac6a18620,testing,2M,16,vmuLlkGua,0,0,True,1242.0,Remeber patterns
0,5e9dad3fd8d8010ac6a18620,testing,2M,17,hBmMCNYZu,1,0,False,1496.0,Remeber patterns
0,5e9dad3fd8d8010ac6a18620,testing,2M,18,EhRmAPT,0,1,False,1808.0,Remeber patterns
0,5e9dad3fd8d8010ac6a18620,testing,2M,19,lbBDEkmU,1,0,False,1945.0,Remeber patterns
0,5e9dad3fd8d8010ac6a18620,testing,2M,20,OYuvbNac,0,1,False,1944.0,Remeber patterns
0,5e9dad3fd8d8010ac6a18620,testing,0M,21,OZkbAlNU,1,0,False,1200.0,Remeber patterns
0,5e9dad3fd8d8010ac6a18620,testing,2M,22,mdkKkuvb,1,1,True,2062.0,Remeber patterns
0,5e9dad3fd8d8010ac6a18620,testing,0M,23,hChYTRK,1,0,False,1165.0,Remeber patterns
0,5e9dad3fd8d8010ac6a18620,testing,1M,24,DBklbAMO,0,0,True,1253.0,Remeber patterns
0,5e9dad3fd8d8010ac6a18620,testing,2M,25,kKEdMkuvb,1,1,True,1332.0,Remeber patterns
0,5e9dad3fd8d8010ac6a18620,testing,1M,26,cRElDdEPD,0,1,False,1258.0,Remeber patterns
0,5e9dad3fd8d8010ac6a18620,testing,0M,27,YZJOGlu,1,0,False,1163.0,Remeber patterns
0,5e9dad3fd8d8010ac6a18620,testing,1M,28,mdkKPEdK,0,1,False,1064.0,Remeber patterns
0,5e9dad3fd8d8010ac6a18620,testing,1M,29,lbBDEkhMD,0,1,False,1368.0,Remeber patterns
0,5e9dad3fd8d8010ac6a18620,testing,0M,30,bcbMDdck,1,0,False,1130.0,Remeber patterns
0,5e9dad3fd8d8010ac6a18620,testing,2M,31,cRElDkmU,1,0,False,800.0,Remeber patterns
0,5e9dad3fd8d8010ac6a18620,testing,2M,32,JauQTRkY,1,1,True,1264.0,Remeber patterns
0,5e9dad3fd8d8010ac6a18620,testing,0M,33,YKRkamJm,1,1,True,991.0,Remeber patterns
0,5e9dad3fd8d8010ac6a18620,testing,1M,34,OYuvbkbu,0,0,True,1189.0,Remeber patterns
0,5e9dad3fd8d8010ac6a18620,testing,2M,35,kZUbAPT,1,1,True,1142.0,Remeber patterns
0,5e9dad3fd8d8010ac6a18620,testing,0M,36,mhtcdUr,1,1,True,995.0,Remeber patterns
0,5e9dad3fd8d8010ac6a18620,testing,1M,37,COTKkuvb,0,1,False,848.0,Remeber patterns
0,5e9dad3fd8d8010ac6a18620,testing,0M,38,ZckvOZkb,1,1,True,1289.0,Remeber patterns
0,5e9dad3fd8d8010ac6a18620,testing,0M,39,AZblOtM,1,1,True,1530.0,Remeber patterns
0,5e9dad3fd8d8010ac6a18620,testing,0M,40,lTmOAOUl,1,0,False,1216.0,Remeber patterns
0,5e9dad3fd8d8010ac6a18620,testing,1M,41,kabJbkuvb,0,0,True,1399.0,Remeber patterns
0,5e9dad3fd8d8010ac6a18620,testing,2M,42,kZUbNYZu,0,0,True,1575.0,Remeber patterns
0,5e9dad3fd8d8010ac6a18620,testing,2M,43,YuaNdbRC,1,0,False,1044.0,Remeber patterns
0,5e9dad3fd8d8010ac6a18620,testing,2M,44,EhRmNYZu,1,1,True,1127.0,Remeber patterns
0,5e9dad3fd8d8010ac6a18620,testing,2M,45,hBmMCAPT,0,0,True,1258.0,Remeber patterns
0,5e9dad3fd8d8010ac6a18620,testing,2M,46,DBklYbBT,0,0,True,787.0,Remeber patterns
0,5e9dad3fd8d8010ac6a18620,testing,0M,47,mkmJNdBC,1,1,True,895.0,Remeber patterns
0,5e9dad3fd8d8010ac6a18620,testing,2M,48,DBklNac,1,0,False,574.0,Remeber patterns
0,5e9dad3fd8d8010ac6a18620,testing,1M,49,OtlRkGua,0,0,True,948.0,Remeber patterns
0,5e9dad3fd8d8010ac6a18620,testing,0M,50,YOaAbdPc,1,1,True,1824.0,Remeber patterns
0,5e9dad3fd8d8010ac6a18620,testing,1M,51,hTDdTRkY,0,0,True,925.0,Remeber patterns
0,5e9dad3fd8d8010ac6a18620,testing,0M,52,adkrCtmb,1,0,False,1123.0,Remeber patterns
0,5e9dad3fd8d8010ac6a18620,testing,1M,53,hTtBbbRC,0,1,False,1457.0,Remeber patterns
0,5e9dad3fd8d8010ac6a18620,testing,0M,54,TdmAcMRl,1,0,False,1451.0,Remeber patterns
0,5e9dad3fd8d8010ac6a18620,testing,1M,55,lGZvYdud,0,0,True,1447.0,Remeber patterns
0,5e9dad3fd8d8010ac6a18620,testing,1M,56,krGuYbBT,0,1,False,1366.0,Remeber patterns
0,5e9dad3fd8d8010ac6a18620,testing,0M,57,KEdlYDE,1,0,False,913.0,Remeber patterns
0,5e9dad3fd8d8010ac6a18620,testing,0M,58,kPOtuUY,1,1,True,1301.0,Remeber patterns
0,5e9dad3fd8d8010ac6a18620,testing,2M,59,lRCBbRC,0,0,True,1148.0,Remeber patterns
0,5e9dad3fd8d8010ac6a18620,testing,2M,60,lbBDETRkY,0,1,False,1149.0,Remeber patterns
0,5e9dad3fd8d8010ac6a18620,testing,2M,61,YuaNdkGua,0,1,False,1615.0,Remeber patterns
0,5e9dad3fd8d8010ac6a18620,testing,1M,62,ZcGdNNYZu,0,0,True,687.0,Remeber patterns
0,5e9dad3fd8d8010ac6a18620,testing,2M,63,lGZvkuvb,0,1,False,1302.0,Remeber patterns
0,5e9dad3fd8d8010ac6a18620,testing,1M,64,UdumdbRC,0,1,False,1331.0,Remeber patterns
0,5e9dad3fd8d8010ac6a18620,testing,2M,65,cRElDTRkY,0,0,True,103.0,Remeber patterns
0,5e9dad3fd8d8010ac6a18620,testing,0M,66,hlctEtcB,1,0,False,1666.0,Remeber patterns
0,5e9dad3fd8d8010ac6a18620,testing,1M,67,LQurRtRh,0,0,True,1434.0,Remeber patterns
0,5e9dad3fd8d8010ac6a18620,testing,1M,68,lrZGTRkY,0,0,True,1325.0,Remeber patterns
0,5e9dad3fd8d8010ac6a18620,testing,0M,69,EKBOArQu,1,1,True,980.0,Remeber patterns
0,5e9dad3fd8d8010ac6a18620,testing,2M,70,JNkaYbBT,1,1,True,1361.0,Remeber patterns
0,5e9dad3fd8d8010ac6a18620,testing,0M,71,dmZvmmrOd,1,1,True,1001.0,Remeber patterns
0,5e9dad3fd8d8010ac6a18620,testing,1M,72,JcUkAPT,0,1,False,1334.0,Remeber patterns
0,5e9dad3fd8d8010ac6a18620,testing,2M,73,OcYMkGua,1,1,True,1386.0,Remeber patterns
0,5e9dad3fd8d8010ac6a18620,testing,0M,74,BMEMAUvOG,1,0,False,1487.0,Remeber patterns
0,5e9dad3fd8d8010ac6a18620,testing,2M,75,rvAJTRkY,1,0,False,651.0,Remeber patterns
0,5e9dad3fd8d8010ac6a18620,testing,1M,76,BOCRMYbBT,0,0,True,1105.0,Remeber patterns
0,5e9dad3fd8d8010ac6a18620,testing,0M,77,lkAklLG,1,1,True,1013.0,Remeber patterns
0,5e9dad3fd8d8010ac6a18620,testing,2M,78,JauQkmU,0,1,False,1478.0,Remeber patterns
0,5e9dad3fd8d8010ac6a18620,testing,0M,79,bcORUvOG,1,1,True,1635.0,Remeber patterns
0,5e9dad3fd8d8010ac6a18620,testing,2M,80,JNkaNac,0,0,True,1128.0,Remeber patterns
0,5e9dad3fd8d8010ac6a18620,testing,0M,81,mcOJvJQ,1,0,False,1119.0,Remeber patterns
0,5e9dad3fd8d8010ac6a18620,testing,0M,82,lhCTCEMYK,1,0,False,978.0,Remeber patterns
0,5e9dad3fd8d8010ac6a18620,testing,1M,83,EhbtrkYL,0,0,True,1632.0,Remeber patterns
0,5e9dad3fd8d8010ac6a18620,testing,2M,84,LQurkuvb,0,0,True,1381.0,Remeber patterns
0,5e9dad3fd8d8010ac6a18620,testing,2M,85,vmuLlbRC,1,0,False,820.0,Remeber patterns
0,5e9dad3fd8d8010ac6a18620,testing,1M,86,JNkaPED,0,1,False,862.0,Remeber patterns
0,5e9dad3fd8d8010ac6a18620,testing,0M,87,ObOQlmCd,1,0,False,756.0,Remeber patterns
0,5e9dad3fd8d8010ac6a18620,testing,0M,88,vQdOtmYh,1,1,True,1099.0,Remeber patterns
0,5e9dad3fd8d8010ac6a18620,testing,0M,89,DhCPTKDk,1,1,True,1043.0,Remeber patterns
0,5e9dad3fd8d8010ac6a18620,testing,0M,90,YcdOYUYa,1,1,True,1274.0,Remeber patterns
0,5e9dad3fd8d8010ac6a18620,testing,1M,91,cAZuCPMl,0,0,True,1342.0,Remeber patterns
0,5e9dad3fd8d8010ac6a18620,testing,2M,92,mdkKYKPB,0,1,False,1150.0,Remeber patterns
0,5e9dad3fd8d8010ac6a18620,testing,1M,93,rvAJbTE,0,0,True,497.0,Remeber patterns
0,5e9dad3fd8d8010ac6a18620,testing,0M,94,dClOCYObA,1,0,False,1100.0,Remeber patterns
0,5e9dad3fd8d8010ac6a18620,testing,0M,95,bROCJcL,1,1,True,1130.0,Remeber patterns
0,5e9dad3fd8d8010ac6a18620,testing,1M,96,EhRmKmE,0,1,False,1151.0,Remeber patterns
0,5e9dad3fd8d8010ac6a18620,testing,0M,97,rdLJaAvdk,1,0,False,1128.0,Remeber patterns
0,5e9dad3fd8d8010ac6a18620,testing,1M,98,DcPTckmU,0,0,True,1173.0,Remeber patterns
0,5e9dad3fd8d8010ac6a18620,testing,2M,99,kKEdMYKPB,0,0,True,995.0,Remeber patterns
0,5e9dad3fd8d8010ac6a18620,testing,1M,100,YOZNNac,0,0,True,1099.0,Remeber patterns
0,5e9dad3fd8d8010ac6a18620,testing,1M,101,OcYMmkc,0,1,False,1182.0,Remeber patterns
0,5e9dad3fd8d8010ac6a18620,testing,1M,102,hkRKNYZu,0,0,True,1094.0,Remeber patterns
0,5e9dad3fd8d8010ac6a18620,testing,2M,103,lGZvYKPB,1,1,True,1011.0,Remeber patterns
0,5e9dad3fd8d8010ac6a18620,testing,0M,104,rkraark,1,1,True,1076.0,Remeber patterns
0,5e9dad3fd8d8010ac6a18620,testing,2M,105,EhbtYbBT,0,1,False,1265.0,Remeber patterns
0,5e9dad3fd8d8010ac6a18620,testing,2M,106,OcYMbRC,0,1,False,1192.0,Remeber patterns
0,5e9dad3fd8d8010ac6a18620,testing,0M,107,aYQmUrOQ,1,1,True,1237.0,Remeber patterns
0,5e9dad3fd8d8010ac6a18620,testing,2M,108,rvAJkmU,0,0,True,1484.0,Remeber patterns
0,5e9dad3fd8d8010ac6a18620,testing,1M,109,kZUbYaOk,0,0,True,1459.0,Remeber patterns
0,5e9dad3fd8d8010ac6a18620,testing,0M,110,KMDYtTRK,1,0,False,1235.0,Remeber patterns
0,5e9dad3fd8d8010ac6a18620,testing,1M,111,vmuLlAlTd,0,1,False,941.0,Remeber patterns
0,5e9dad3fd8d8010ac6a18620,testing,0M,112,dClOCJrGv,1,1,True,1424.0,Remeber patterns
0,5e9dad3fd8d8010ac6a18620,testing,0M,113,dTAhkcOY,1,0,False,1210.0,Remeber patterns
0,5e9dad3fd8d8010ac6a18620,testing,0M,114,hlctEmARM,1,0,False,1063.0,Remeber patterns
0,5e9dad3fd8d8010ac6a18620,testing,1M,115,lRCBYkZ,0,0,True,1297.0,Remeber patterns
0,5e9dad3fd8d8010ac6a18620,testing,2M,116,cAZuNYZu,0,0,True,1108.0,Remeber patterns
0,5e9dad3fd8d8010ac6a18620,testing,1M,117,CMdPAPT,0,1,False,1378.0,Remeber patterns
0,5e9dad3fd8d8010ac6a18620,testing,1M,118,kKEdMKdAR,0,1,False,1174.0,Remeber patterns
0,5e9dad3fd8d8010ac6a18620,testing,0M,119,OQArQvlZ,1,0,False,1278.0,Remeber patterns
0,5e9dad3fd8d8010ac6a18620,testing,2M,120,lRCBkGua,1,1,True,966.0,Remeber patterns
0,5ebd8f8679146d0a116bc257,testing,0M,1,TbKMEAlKD,1,0,False,8801.0,didnt
0,5ebd8f8679146d0a116bc257,testing,2M,2,kcCRtrULv,1,0,False,2042.0,didnt
0,5ebd8f8679146d0a116bc257,testing,0M,3,ukYZrLaZ,1,0,False,822.0,didnt
0,5ebd8f8679146d0a116bc257,testing,1M,4,CmYAhRKm,0,0,True,864.0,didnt
0,5ebd8f8679146d0a116bc257,testing,1M,5,alJYctkt,0,0,True,1380.0,didnt
0,5ebd8f8679146d0a116bc257,testing,0M,6,NQZvRtRh,1,0,False,1933.0,didnt
0,5ebd8f8679146d0a116bc257,testing,1M,7,OcZJdUr,0,0,True,1317.0,didnt
0,5ebd8f8679146d0a116bc257,testing,1M,8,GQrcEAO,0,0,True,1949.0,didnt
0,5ebd8f8679146d0a116bc257,testing,0M,9,vAuNlUdbd,1,1,True,966.0,didnt
0,5ebd8f8679146d0a116bc257,testing,0M,10,TmTmrkYL,1,1,True,1141.0,didnt
0,5ebd8f8679146d0a116bc257,testing,2M,11,MhKddUr,1,0,False,973.0,didnt
0,5ebd8f8679146d0a116bc257,testing,1M,12,mBmlAuUmb,0,0,True,680.0,didnt
0,5ebd8f8679146d0a116bc257,testing,2M,13,MhKdPED,0,1,False,464.0,didnt
0,5ebd8f8679146d0a116bc257,testing,1M,14,TCbDCNmAG,0,0,True,144.0,didnt
0,5ebd8f8679146d0a116bc257,testing,2M,15,LNUrJdUr,0,0,True,303.0,didnt
0,5ebd8f8679146d0a116bc257,testing,2M,16,cuOJbPED,1,1,True,262.0,didnt
0,5ebd8f8679146d0a116bc257,testing,2M,17,EPMDkuUmb,1,0,False,217.0,didnt
0,5ebd8f8679146d0a116bc257,testing,2M,18,ODBDAhRKm,0,1,False,246.0,didnt
0,5ebd8f8679146d0a116bc257,testing,1M,19,dmZvmPED,0,0,True,158.0,didnt
0,5ebd8f8679146d0a116bc257,testing,1M,20,dTmEDmdla,0,0,True,227.0,didnt
0,5ebd8f8679146d0a116bc257,testing,0M,21,dJNrkKE,1,0,False,309.0,didnt
0,5ebd8f8679146d0a116bc257,testing,1M,22,LNUrJUZu,0,1,False,303.0,didnt
0,5ebd8f8679146d0a116bc257,testing,1M,23,uQuZctRdM,0,0,True,192.0,didnt
0,5ebd8f8679146d0a116bc257,testing,0M,24,LUOkYkZ,1,0,False,424.0,didnt
0,5ebd8f8679146d0a116bc257,testing,0M,25,YaumkrUQ,1,0,False,2.0,didnt
0,5ebd8f8679146d0a116bc257,testing,1M,26,AdDbOPE,0,0,True,285.0,didnt
0,5ebd8f8679146d0a116bc257,testing,2M,27,kcCRtEKBO,0,0,True,1025.0,didnt
0,5ebd8f8679146d0a116bc257,testing,0M,28,YOZNbAdk,1,0,False,476.0,didnt
0,5ebd8f8679146d0a116bc257,testing,0M,29,LOLkUCEM,1,0,False,509.0,didnt
0,5ebd8f8679146d0a116bc257,testing,0M,30,OYuvbBbOD,1,0,False,510.0,didnt
0,5ebd8f8679146d0a116bc257,testing,0M,31,YNrAmAkd,1,0,False,340.0,didnt
0,5ebd8f8679146d0a116bc257,testing,0M,32,lRckAJQA,1,1,True,241.0,didnt
0,5ebd8f8679146d0a116bc257,testing,2M,33,ODBDANmAG,1,0,False,848.0,didnt
0,5ebd8f8679146d0a116bc257,testing,1M,34,dGLAldRA,0,0,True,348.0,didnt
0,5ebd8f8679146d0a116bc257,testing,2M,35,htmhCdUr,1,0,False,354.0,didnt
0,5ebd8f8679146d0a116bc257,testing,1M,36,GrubOPE,0,1,False,912.0,didnt
0,5ebd8f8679146d0a116bc257,testing,1M,37,YKRkEKBO,0,0,True,281.0,didnt
0,5ebd8f8679146d0a116bc257,testing,0M,38,AJLrJUG,1,0,False,278.0,didnt
0,5ebd8f8679146d0a116bc257,testing,0M,39,ArQurZYd,1,0,False,342.0,didnt
0,5ebd8f8679146d0a116bc257,testing,2M,40,kCRmBRDh,0,1,False,333.0,didnt
0,5ebd8f8679146d0a116bc257,testing,0M,41,GabkOcN,1,0,False,478.0,didnt
0,5ebd8f8679146d0a116bc257,testing,1M,42,ldAaYArG,0,1,False,427.0,didnt
0,5ebd8f8679146d0a116bc257,testing,2M,43,alJYNmAG,0,0,True,317.0,didnt
0,5ebd8f8679146d0a116bc257,testing,1M,44,cuOJbBCD,0,1,False,309.0,didnt
0,5ebd8f8679146d0a116bc257,testing,1M,45,mBbKhRKm,0,0,True,270.0,didnt
0,5ebd8f8679146d0a116bc257,testing,2M,46,GQrcBRDh,1,1,True,298.0,didnt
0,5ebd8f8679146d0a116bc257,testing,0M,47,ckduACOTK,1,0,False,266.0,didnt
0,5ebd8f8679146d0a116bc257,testing,0M,48,hChYYZUZ,1,0,False,247.0,didnt
0,5ebd8f8679146d0a116bc257,testing,2M,49,TklDEKBO,0,1,False,326.0,didnt
0,5ebd8f8679146d0a116bc257,testing,0M,50,crdYcDR,1,0,False,303.0,didnt
0,5ebd8f8679146d0a116bc257,testing,2M,51,htmhCPED,0,1,False,426.0,didnt
0,5ebd8f8679146d0a116bc257,testing,0M,52,kcdOtUdbd,1,0,False,143.0,didnt
0,5ebd8f8679146d0a116bc257,testing,2M,53,uQuZcrULv,0,1,False,344.0,didnt
0,5ebd8f8679146d0a116bc257,testing,1M,54,htmhCvJQ,0,0,True,141.0,didnt
0,5ebd8f8679146d0a116bc257,testing,0M,55,bRABtbdtK,1,0,False,322.0,didnt
0,5ebd8f8679146d0a116bc257,testing,0M,56,vclYYOZN,1,0,False,266.0,didnt
0,5ebd8f8679146d0a116bc257,testing,1M,57,EtMDMEKBO,0,1,False,215.0,didnt
0,5ebd8f8679146d0a116bc257,testing,0M,58,MBmEKlkD,1,0,False,245.0,didnt
0,5ebd8f8679146d0a116bc257,testing,0M,59,DBPhcGUOA,1,1,True,262.0,didnt
0,5ebd8f8679146d0a116bc257,testing,2M,60,cuOJbdUr,0,0,True,102.0,didnt
0,5ebd8f8679146d0a116bc257,testing,0M,61,kGlUark,1,0,False,297.0,didnt
0,5ebd8f8679146d0a116bc257,testing,2M,62,ldAauUmb,0,1,False,262.0,didnt
0,5ebd8f8679146d0a116bc257,testing,0M,63,RCdcKElB,1,0,False,309.0,didnt
0,5ebd8f8679146d0a116bc257,testing,0M,64,lbBDEKEdl,1,1,True,254.0,didnt
0,5ebd8f8679146d0a116bc257,testing,2M,65,lrZGNmAG,0,0,True,429.0,didnt
0,5ebd8f8679146d0a116bc257,testing,2M,66,uauOOPE,1,0,False,278.0,didnt
0,5ebd8f8679146d0a116bc257,testing,0M,67,udkmcrdY,1,1,True,260.0,didnt
0,5ebd8f8679146d0a116bc257,testing,2M,68,AlUYEKBO,1,0,False,194.0,didnt
0,5ebd8f8679146d0a116bc257,testing,0M,69,OAmGrOBT,1,1,True,369.0,didnt
0,5ebd8f8679146d0a116bc257,testing,2M,70,lKdbchRKm,0,0,True,179.0,didnt
0,5ebd8f8679146d0a116bc257,testing,2M,71,GQrcQGb,0,0,True,274.0,didnt
0,5ebd8f8679146d0a116bc257,testing,2M,72,ldAaOPE,1,1,True,164.0,didnt
0,5ebd8f8679146d0a116bc257,testing,2M,73,TklDrULv,1,0,False,180.0,didnt
0,5ebd8f8679146d0a116bc257,testing,0M,74,bGuODBkl,1,1,True,241.0,didnt
0,5ebd8f8679146d0a116bc257,testing,0M,75,UYZlZGUa,1,0,False,195.0,didnt
0,5ebd8f8679146d0a116bc257,testing,2M,76,lKdbcNmAG,1,0,False,244.0,didnt
0,5ebd8f8679146d0a116bc257,testing,1M,77,QcQAJPED,0,1,False,192.0,didnt
0,5ebd8f8679146d0a116bc257,testing,0M,78,LdrbvbROC,1,0,False,193.0,didnt
0,5ebd8f8679146d0a116bc257,testing,2M,79,dTmEDBRDh,0,1,False,270.0,didnt
0,5ebd8f8679146d0a116bc257,testing,0M,80,DBPhcMAB,1,0,False,34.0,didnt
0,5ebd8f8679146d0a116bc257,testing,2M,81,kcOYOPE,0,0,True,248.0,didnt
0,5ebd8f8679146d0a116bc257,testing,2M,82,lrZGhRKm,1,1,True,293.0,didnt
0,5ebd8f8679146d0a116bc257,testing,1M,83,TklDZdlO,0,1,False,158.0,didnt
0,5ebd8f8679146d0a116bc257,testing,1M,84,EPMDkBbM,0,0,True,235.0,didnt
0,5ebd8f8679146d0a116bc257,testing,1M,85,adkrrULv,0,0,True,236.0,didnt
0,5ebd8f8679146d0a116bc257,testing,1M,86,kcCRtkZUb,0,0,True,249.0,didnt
0,5ebd8f8679146d0a116bc257,testing,1M,87,AlUYAbKD,0,0,True,234.0,didnt
0,5ebd8f8679146d0a116bc257,testing,2M,88,uQuZcEKBO,1,1,True,268.0,didnt
0,5ebd8f8679146d0a116bc257,testing,1M,89,kcOYNUZ,0,0,True,81.0,didnt
0,5ebd8f8679146d0a116bc257,testing,0M,90,GumLlJQA,1,1,True,558.0,didnt
0,5ebd8f8679146d0a116bc257,testing,0M,91,KTDTBkPM,1,0,False,1.0,didnt
0,5ebd8f8679146d0a116bc257,testing,2M,92,LNUrJPED,1,0,False,2.0,didnt
0,5ebd8f8679146d0a116bc257,testing,2M,93,EPMDkOPE,0,0,True,475.0,didnt
0,5ebd8f8679146d0a116bc257,testing,1M,94,lYruaBRDh,0,1,False,429.0,didnt
0,5ebd8f8679146d0a116bc257,testing,1M,95,NbmQUdUr,0,0,True,319.0,didnt
0,5ebd8f8679146d0a116bc257,testing,2M,96,alJYhRKm,1,1,True,271.0,didnt
0,5ebd8f8679146d0a116bc257,testing,1M,97,lMckBRDh,0,0,True,279.0,didnt
0,5ebd8f8679146d0a116bc257,testing,1M,98,lrZGRdCc,0,0,True,242.0,didnt
0,5ebd8f8679146d0a116bc257,testing,1M,99,cROMtNmAG,0,1,False,253.0,didnt
0,5ebd8f8679146d0a116bc257,testing,0M,100,ObOQlJUNa,1,0,False,202.0,didnt
0,5ebd8f8679146d0a116bc257,testing,2M,101,dTmEDQGb,1,0,False,158.0,didnt
0,5ebd8f8679146d0a116bc257,testing,1M,102,ODBDAYadr,0,0,True,300.0,didnt
0,5ebd8f8679146d0a116bc257,testing,2M,103,uauOuUmb,0,1,False,1.0,didnt
0,5ebd8f8679146d0a116bc257,testing,1M,104,lKdbcmcOJ,0,1,False,2.0,didnt
0,5ebd8f8679146d0a116bc257,testing,2M,105,kCRmQGb,1,0,False,107.0,didnt
0,5ebd8f8679146d0a116bc257,testing,1M,106,uauOhbmA,0,0,True,482.0,didnt
0,5ebd8f8679146d0a116bc257,testing,1M,107,kCRmuOAO,0,1,False,162.0,didnt
0,5ebd8f8679146d0a116bc257,testing,1M,108,BOckPrULv,0,0,True,239.0,didnt
0,5ebd8f8679146d0a116bc257,testing,2M,109,dGLAlQGb,0,1,False,271.0,didnt
0,5ebd8f8679146d0a116bc257,testing,0M,110,kdEdYMKmY,1,0,False,55.0,didnt
0,5ebd8f8679146d0a116bc257,testing,1M,111,OZkbQGb,0,1,False,241.0,didnt
0,5ebd8f8679146d0a116bc257,testing,2M,112,dGLAlBRDh,1,0,False,174.0,didnt
0,5ebd8f8679146d0a116bc257,testing,2M,113,AlUYrULv,0,0,True,158.0,didnt
0,5ebd8f8679146d0a116bc257,testing,1M,114,rLkmuUmb,0,1,False,246.0,didnt
0,5ebd8f8679146d0a116bc257,testing,0M,115,crdYABb,1,1,True,430.0,didnt
0,5ebd8f8679146d0a116bc257,testing,2M,116,kcOYuUmb,1,0,False,2.0,didnt
0,5ebd8f8679146d0a116bc257,testing,0M,117,CkBOPNac,1,1,True,83.0,didnt
0,5ebd8f8679146d0a116bc257,testing,1M,118,MhKdAld,0,0,True,58.0,didnt
0,5ebd8f8679146d0a116bc257,testing,0M,119,TKDkkhmh,1,1,True,156.0,didnt
0,5ebd8f8679146d0a116bc257,testing,1M,120,QLrOJQGb,0,0,True,16.0,didnt
0,5ecba4b6ef75d53505406d57,testing,2M,1,hCktcUN,1,0,False,1544.0,"I saw, if there are some similarities, length of word, repetition of symbols, etc."
0,5ecba4b6ef75d53505406d57,testing,1M,2,dvNvAbLd,0,1,False,1643.0,"I saw, if there are some similarities, length of word, repetition of symbols, etc."
0,5ecba4b6ef75d53505406d57,testing,2M,3,NvYJhEct,1,1,True,1408.0,"I saw, if there are some similarities, length of word, repetition of symbols, etc."
0,5ecba4b6ef75d53505406d57,testing,0M,4,kDOmOPE,1,0,False,973.0,"I saw, if there are some similarities, length of word, repetition of symbols, etc."
0,5ecba4b6ef75d53505406d57,testing,0M,5,lCbcmhBK,1,1,True,1315.0,"I saw, if there are some similarities, length of word, repetition of symbols, etc."
0,5ecba4b6ef75d53505406d57,testing,2M,6,UrOQvAvb,0,0,True,842.0,"I saw, if there are some similarities, length of word, repetition of symbols, etc."
0,5ecba4b6ef75d53505406d57,testing,0M,7,hRKmRDM,1,0,False,1094.0,"I saw, if there are some similarities, length of word, repetition of symbols, etc."
0,5ecba4b6ef75d53505406d57,testing,1M,8,cdKBYbdtK,0,0,True,3831.0,"I saw, if there are some similarities, length of word, repetition of symbols, etc."
0,5ecba4b6ef75d53505406d57,testing,2M,9,rckOhEct,1,0,False,703.0,"I saw, if there are some similarities, length of word, repetition of symbols, etc."
0,5ecba4b6ef75d53505406d57,testing,2M,10,EPERdbdtK,0,0,True,640.0,"I saw, if there are some similarities, length of word, repetition of symbols, etc."
0,5ecba4b6ef75d53505406d57,testing,2M,11,lRCBGUa,1,1,True,846.0,"I saw, if there are some similarities, length of word, repetition of symbols, etc."
0,5ecba4b6ef75d53505406d57,testing,2M,12,AlTdvAvb,1,0,False,844.0,"I saw, if there are some similarities, length of word, repetition of symbols, etc."
0,5ecba4b6ef75d53505406d57,testing,2M,13,hYDmthEct,0,1,False,695.0,"I saw, if there are some similarities, length of word, repetition of symbols, etc."
0,5ecba4b6ef75d53505406d57,testing,2M,14,QcladGUa,0,0,True,741.0,"I saw, if there are some similarities, length of word, repetition of symbols, etc."
0,5ecba4b6ef75d53505406d57,testing,0M,15,TObCOuUY,1,0,False,1217.0,"I saw, if there are some similarities, length of word, repetition of symbols, etc."
0,5ecba4b6ef75d53505406d57,testing,1M,16,GNAcaAld,0,0,True,790.0,"I saw, if there are some similarities, length of word, repetition of symbols, etc."
0,5ecba4b6ef75d53505406d57,testing,0M,17,dkLltcB,1,1,True,692.0,"I saw, if there are some similarities, length of word, repetition of symbols, etc."
0,5ecba4b6ef75d53505406d57,testing,1M,18,hYDmtmuYN,0,1,False,744.0,"I saw, if there are some similarities, length of word, repetition of symbols, etc."
0,5ecba4b6ef75d53505406d57,testing,0M,19,dOYmlvcb,1,0,False,628.0,"I saw, if there are some similarities, length of word, repetition of symbols, etc."
0,5ecba4b6ef75d53505406d57,testing,0M,20,vblrDhMt,1,1,True,787.0,"I saw, if there are some similarities, length of word, repetition of symbols, etc."
0,5ecba4b6ef75d53505406d57,testing,0M,21,UJmrNac,1,0,False,1262.0,"I saw, if there are some similarities, length of word, repetition of symbols, etc."
0,5ecba4b6ef75d53505406d57,testing,2M,22,lBKtkKE,0,0,True,720.0,"I saw, if there are some similarities, length of word, repetition of symbols, etc."
0,5ecba4b6ef75d53505406d57,testing,1M,23,UrOQkCRm,0,1,False,623.0,"I saw, if there are some similarities, length of word, repetition of symbols, etc."
0,5ecba4b6ef75d53505406d57,testing,1M,24,EPERdYArG,0,0,True,598.0,"I saw, if there are some similarities, length of word, repetition of symbols, etc."
0,5ecba4b6ef75d53505406d57,testing,2M,25,rckOravu,0,1,False,864.0,"I saw, if there are some similarities, length of word, repetition of symbols, etc."
0,5ecba4b6ef75d53505406d57,testing,0M,26,LdQvUbG,1,1,True,1073.0,"I saw, if there are some similarities, length of word, repetition of symbols, etc."
0,5ecba4b6ef75d53505406d57,testing,2M,27,dNZAOMC,1,1,True,842.0,"I saw, if there are some similarities, length of word, repetition of symbols, etc."
0,5ecba4b6ef75d53505406d57,testing,2M,28,mUOcObdtK,1,0,False,604.0,"I saw, if there are some similarities, length of word, repetition of symbols, etc."
0,5ecba4b6ef75d53505406d57,testing,2M,29,QcladkPM,1,0,False,1190.0,"I saw, if there are some similarities, length of word, repetition of symbols, etc."
0,5ecba4b6ef75d53505406d57,testing,1M,30,AlTddRA,0,1,False,915.0,"I saw, if there are some similarities, length of word, repetition of symbols, etc."
0,5ecba4b6ef75d53505406d57,testing,0M,31,vQdOYbBT,1,1,True,1102.0,"I saw, if there are some similarities, length of word, repetition of symbols, etc."
0,5ecba4b6ef75d53505406d57,testing,0M,32,dRbDbNulk,1,0,False,723.0,"I saw, if there are some similarities, length of word, repetition of symbols, etc."
0,5ecba4b6ef75d53505406d57,testing,2M,33,LckGNbdtK,1,1,True,897.0,"I saw, if there are some similarities, length of word, repetition of symbols, etc."
0,5ecba4b6ef75d53505406d57,testing,1M,34,bcbMhEct,0,0,True,638.0,"I saw, if there are some similarities, length of word, repetition of symbols, etc."
0,5ecba4b6ef75d53505406d57,testing,2M,35,GNAcaOMC,1,0,False,969.0,"I saw, if there are some similarities, length of word, repetition of symbols, etc."
0,5ecba4b6ef75d53505406d57,testing,0M,36,rNlZDbMR,1,0,False,903.0,"I saw, if there are some similarities, length of word, repetition of symbols, etc."
0,5ecba4b6ef75d53505406d57,testing,2M,37,NvYJravu,0,1,False,678.0,"I saw, if there are some similarities, length of word, repetition of symbols, etc."
0,5ecba4b6ef75d53505406d57,testing,2M,38,GNAcacUN,0,0,True,601.0,"I saw, if there are some similarities, length of word, repetition of symbols, etc."
0,5ecba4b6ef75d53505406d57,testing,2M,39,dCtMAOMC,0,1,False,735.0,"I saw, if there are some similarities, length of word, repetition of symbols, etc."
0,5ecba4b6ef75d53505406d57,testing,0M,40,lRckAtRb,1,0,False,744.0,"I saw, if there are some similarities, length of word, repetition of symbols, etc."
0,5ecba4b6ef75d53505406d57,testing,0M,41,GQYQcbm,1,0,False,877.0,"I saw, if there are some similarities, length of word, repetition of symbols, etc."
0,5ecba4b6ef75d53505406d57,testing,0M,42,rvUblRE,1,1,True,764.0,"I saw, if there are some similarities, length of word, repetition of symbols, etc."
0,5ecba4b6ef75d53505406d57,testing,0M,43,DCmhRCcE,1,0,False,1252.0,"I saw, if there are some similarities, length of word, repetition of symbols, etc."
0,5ecba4b6ef75d53505406d57,testing,1M,44,AlQaQbdtK,0,0,True,750.0,"I saw, if there are some similarities, length of word, repetition of symbols, etc."
0,5ecba4b6ef75d53505406d57,testing,0M,45,kGuaKmE,1,0,False,1303.0,"I saw, if there are some similarities, length of word, repetition of symbols, etc."
0,5ecba4b6ef75d53505406d57,testing,1M,46,OmtlDkPM,0,1,False,624.0,"I saw, if there are some similarities, length of word, repetition of symbols, etc."
0,5ecba4b6ef75d53505406d57,testing,1M,47,QcladDOk,0,0,True,616.0,"I saw, if there are some similarities, length of word, repetition of symbols, etc."
0,5ecba4b6ef75d53505406d57,testing,1M,48,RtRhkKE,0,0,True,1085.0,"I saw, if there are some similarities, length of word, repetition of symbols, etc."
0,5ecba4b6ef75d53505406d57,testing,0M,49,cBROBcPK,1,1,True,685.0,"I saw, if there are some similarities, length of word, repetition of symbols, etc."
0,5ecba4b6ef75d53505406d57,testing,0M,50,tcYbdBECk,1,1,True,808.0,"I saw, if there are some similarities, length of word, repetition of symbols, etc."
0,5ecba4b6ef75d53505406d57,testing,1M,51,NvYJTklD,0,1,False,1012.0,"I saw, if there are some similarities, length of word, repetition of symbols, etc."
0,5ecba4b6ef75d53505406d57,testing,1M,52,OdOPhEct,0,0,True,513.0,"I saw, if there are some similarities, length of word, repetition of symbols, etc."
0,5ecba4b6ef75d53505406d57,testing,0M,53,kKRCuvJ,1,1,True,734.0,"I saw, if there are some similarities, length of word, repetition of symbols, etc."
0,5ecba4b6ef75d53505406d57,testing,1M,54,dNZAuZc,0,0,True,898.0,"I saw, if there are some similarities, length of word, repetition of symbols, etc."
0,5ecba4b6ef75d53505406d57,testing,0M,55,GumLlark,1,0,False,1813.0,"I saw, if there are some similarities, length of word, repetition of symbols, etc."
0,5ecba4b6ef75d53505406d57,testing,2M,56,EtMDMGUa,1,0,False,1156.0,"I saw, if there are some similarities, length of word, repetition of symbols, etc."
0,5ecba4b6ef75d53505406d57,testing,1M,57,BbODvAvb,0,1,False,921.0,"I saw, if there are some similarities, length of word, repetition of symbols, etc."
0,5ecba4b6ef75d53505406d57,testing,2M,58,lRCBkPM,0,0,True,936.0,"I saw, if there are some similarities, length of word, repetition of symbols, etc."
