,sbj_ID,task,trialn,target,confound,expected,observed,correct,rt
0,5c437f6a4fe4f800016e3d52,familiarity,1,OcN,lvk,1,1,True,2659.0
0,5c437f6a4fe4f800016e3d52,familiarity,2,KBKBE,AZaJc,1,1,True,2287.0
0,5c437f6a4fe4f800016e3d52,familiarity,3,ZvkL,bAdk,1,1,True,2587.0
0,5c437f6a4fe4f800016e3d52,familiarity,4,QbkAc,ZNLOv,1,1,True,2150.0
0,5c437f6a4fe4f800016e3d52,familiarity,5,cBROB,Ldrbv,0,0,True,2008.0
0,5c437f6a4fe4f800016e3d52,familiarity,6,Tbk,APT,1,0,False,1871.0
0,5c437f6a4fe4f800016e3d52,familiarity,7,EltMB,KMDYt,1,1,True,2360.0
0,5c437f6a4fe4f800016e3d52,familiarity,8,rAm,Tmc,0,1,False,2855.0
0,5c437f6a4fe4f800016e3d52,familiarity,9,QOLmu,kRCkO,1,1,True,2183.0
0,5c437f6a4fe4f800016e3d52,familiarity,10,lGZv,Ehbt,1,0,False,1931.0
0,5c437f6a4fe4f800016e3d52,familiarity,11,ACcO,RtRh,0,1,False,2651.0
0,5c437f6a4fe4f800016e3d52,familiarity,12,CDEmY,NAacQ,1,1,True,2184.0
0,5c437f6a4fe4f800016e3d52,familiarity,13,Glu,uda,1,0,False,2031.0
0,5c437f6a4fe4f800016e3d52,familiarity,14,NbmQU,vkYGl,0,1,False,1980.0
0,5c437f6a4fe4f800016e3d52,familiarity,15,rvUb,YArG,0,1,False,2414.0
0,5c437f6a4fe4f800016e3d52,familiarity,16,hkRK,kuvb,1,1,True,1843.0
0,5c437f6a4fe4f800016e3d52,familiarity,17,JvaA,lMck,1,1,True,1645.0
0,5c437f6a4fe4f800016e3d52,familiarity,18,DKP,rab,1,1,True,1681.0
0,5c437f6a4fe4f800016e3d52,familiarity,19,Mlth,krUQ,0,0,True,1579.0
0,5c437f6a4fe4f800016e3d52,familiarity,20,bcbM,UmNJ,0,0,True,2086.0
0,5c437f6a4fe4f800016e3d52,familiarity,21,dmRb,lRCB,1,0,False,1548.0
0,5c437f6a4fe4f800016e3d52,familiarity,22,ObZbA,aNYmb,1,1,True,1632.0
0,5c437f6a4fe4f800016e3d52,familiarity,23,cPK,kmU,1,1,True,1519.0
0,5c437f6a4fe4f800016e3d52,familiarity,24,Juaml,PEkhA,1,0,False,1667.0
0,5c437f6a4fe4f800016e3d52,familiarity,25,hAROK,BMEMA,1,1,True,991.0
0,5c437f6a4fe4f800016e3d52,familiarity,26,GAcY,YaOk,1,0,False,1954.0
0,5c437f6a4fe4f800016e3d52,familiarity,27,JcUk,rAJu,1,1,True,976.0
0,5c437f6a4fe4f800016e3d52,familiarity,28,mBbK,OcZJ,0,1,False,833.0
0,5c437f6a4fe4f800016e3d52,familiarity,29,cMRl,EKBO,0,1,False,2061.0
0,5c437f6a4fe4f800016e3d52,familiarity,30,NbacA,kLvdN,1,1,True,1671.0
0,5c840aedbad8fb000106cb44,familiarity,1,hlbtb,GumLl,0,1,False,4617.0
0,5c840aedbad8fb000106cb44,familiarity,2,lTmO,Ctmb,1,0,False,2216.0
0,5c840aedbad8fb000106cb44,familiarity,3,Tbk,lvk,1,1,True,1944.0
0,5c840aedbad8fb000106cb44,familiarity,4,tRPD,OdOP,0,0,True,1959.0
0,5c840aedbad8fb000106cb44,familiarity,5,EtMDM,NbacA,0,0,True,2253.0
0,5c840aedbad8fb000106cb44,familiarity,6,kbu,APT,1,1,True,1666.0
0,5c840aedbad8fb000106cb44,familiarity,7,JNka,AMkC,1,1,True,1325.0
0,5c840aedbad8fb000106cb44,familiarity,8,cAZu,dmRb,1,1,True,2067.0
0,5c840aedbad8fb000106cb44,familiarity,9,LdQv,aUZA,1,1,True,1513.0
0,5c840aedbad8fb000106cb44,familiarity,10,RCdc,mKcD,0,0,True,913.0
0,5c840aedbad8fb000106cb44,familiarity,11,LcO,Dmh,1,1,True,1155.0
0,5c840aedbad8fb000106cb44,familiarity,12,BCD,cUN,0,1,False,1278.0
0,5c840aedbad8fb000106cb44,familiarity,13,uvaU,dTAh,1,1,True,1162.0
0,5c840aedbad8fb000106cb44,familiarity,14,lcOc,Ckbd,1,0,False,495.0
0,5c840aedbad8fb000106cb44,familiarity,15,vJab,UmNJ,0,0,True,603.0
0,5c840aedbad8fb000106cb44,familiarity,16,UJmr,QONk,0,1,False,554.0
0,5c840aedbad8fb000106cb44,familiarity,17,NLQGm,MBKRE,1,1,True,1162.0
0,5c840aedbad8fb000106cb44,familiarity,18,kcCRt,dGLAl,1,1,True,1209.0
0,5c840aedbad8fb000106cb44,familiarity,19,AlUY,aYaN,1,0,False,1261.0
0,5c840aedbad8fb000106cb44,familiarity,20,TbKME,Ldrbv,0,1,False,1782.0
0,5c840aedbad8fb000106cb44,familiarity,21,kabJb,rGUAY,1,0,False,1518.0
0,5c840aedbad8fb000106cb44,familiarity,22,CDEmY,chEDO,1,0,False,1114.0
0,5c840aedbad8fb000106cb44,familiarity,23,dUr,vJQ,0,1,False,1318.0
0,5c840aedbad8fb000106cb44,familiarity,24,AZbl,rvAJ,1,1,True,1371.0
0,5c840aedbad8fb000106cb44,familiarity,25,OcN,uda,0,0,True,1028.0
0,5c840aedbad8fb000106cb44,familiarity,26,lAOKM,hBmMC,0,1,False,1062.0
0,5c840aedbad8fb000106cb44,familiarity,27,hEct,AlTd,1,1,True,1812.0
0,5c840aedbad8fb000106cb44,familiarity,28,dMThk,DOBhY,0,1,False,1069.0
0,5c840aedbad8fb000106cb44,familiarity,29,Akd,ATc,1,0,False,845.0
0,5c840aedbad8fb000106cb44,familiarity,30,Cchtd,hAROK,1,1,True,1085.0
0,5d696d1c55742f001af29220,familiarity,1,mhc,uZc,1,1,True,4603.0
0,5d696d1c55742f001af29220,familiarity,2,GJGcZ,RlAKc,0,1,False,3310.0
0,5d696d1c55742f001af29220,familiarity,3,PCMPK,auYAk,1,1,True,2929.0
0,5d696d1c55742f001af29220,familiarity,4,QLrOJ,OdlNm,1,0,False,5348.0
0,5d696d1c55742f001af29220,familiarity,5,Juaml,JdOAY,0,1,False,2011.0
0,5d696d1c55742f001af29220,familiarity,6,kMbTR,UdlGQ,0,0,True,2762.0
0,5d696d1c55742f001af29220,familiarity,7,PYkC,YbBT,0,0,True,2761.0
0,5d696d1c55742f001af29220,familiarity,8,YArG,AMkC,0,1,False,2020.0
0,5d696d1c55742f001af29220,familiarity,9,OQAr,rLaZ,1,1,True,1886.0
0,5d696d1c55742f001af29220,familiarity,10,OMC,mkc,0,1,False,3206.0
0,5d696d1c55742f001af29220,familiarity,11,OPE,OYK,0,1,False,3622.0
0,5d696d1c55742f001af29220,familiarity,12,QcQAJ,DkTCP,0,0,True,1469.0
0,5d696d1c55742f001af29220,familiarity,13,MAB,cPK,0,0,True,2353.0
0,5d696d1c55742f001af29220,familiarity,14,COtBD,YlCPB,1,0,False,3113.0
0,5d696d1c55742f001af29220,familiarity,15,hbkd,UvOG,1,1,True,1184.0
0,5d696d1c55742f001af29220,familiarity,16,lRCB,OkGY,1,0,False,3638.0
0,5d696d1c55742f001af29220,familiarity,17,kam,YBO,0,0,True,1706.0
0,5d696d1c55742f001af29220,familiarity,18,vAar,DlDT,1,1,True,3366.0
0,5d696d1c55742f001af29220,familiarity,19,Ehbt,MCkm,1,0,False,6504.0
0,5d696d1c55742f001af29220,familiarity,20,rdLJa,lCbcm,1,0,False,3763.0
0,5d696d1c55742f001af29220,familiarity,21,GQYQ,AOUl,0,0,True,2750.0
0,5d696d1c55742f001af29220,familiarity,22,YKRk,ZvkL,0,0,True,3299.0
0,5d696d1c55742f001af29220,familiarity,23,btlck,AlQaQ,1,1,True,3547.0
0,5d696d1c55742f001af29220,familiarity,24,cMRl,CMdP,0,0,True,2517.0
0,5d696d1c55742f001af29220,familiarity,25,LOLkU,Qclad,0,0,True,1878.0
0,5d696d1c55742f001af29220,familiarity,26,Phktk,KRARm,0,0,True,2285.0
0,5d696d1c55742f001af29220,familiarity,27,mvG,BbM,1,0,False,1498.0
0,5d696d1c55742f001af29220,familiarity,28,YOZN,GQrc,0,1,False,2872.0
0,5d696d1c55742f001af29220,familiarity,29,ZYcQU,EPMDk,0,1,False,4219.0
0,5d696d1c55742f001af29220,familiarity,30,uAkr,tdDd,0,1,False,2238.0
0,5e248b6f0c0b31718a9d3f31,familiarity,1,TklD,ACcO,0,0,True,1411.0
0,5e248b6f0c0b31718a9d3f31,familiarity,2,tDPRk,KAERM,0,1,False,892.0
0,5e248b6f0c0b31718a9d3f31,familiarity,3,dmRb,uauO,1,1,True,1030.0
0,5e248b6f0c0b31718a9d3f31,familiarity,4,Abka,rZYd,0,0,True,766.0
0,5e248b6f0c0b31718a9d3f31,familiarity,5,rLaZ,lcOc,1,1,True,1044.0
0,5e248b6f0c0b31718a9d3f31,familiarity,6,RKYk,Udbd,1,0,False,1511.0
0,5e248b6f0c0b31718a9d3f31,familiarity,7,UrOQ,RhPm,0,0,True,1269.0
0,5e248b6f0c0b31718a9d3f31,familiarity,8,BbOD,mARM,1,0,False,1043.0
0,5e248b6f0c0b31718a9d3f31,familiarity,9,kuvb,McMD,0,1,False,816.0
0,5e248b6f0c0b31718a9d3f31,familiarity,10,PDPhl,ObOQl,1,1,True,1062.0
0,5e248b6f0c0b31718a9d3f31,familiarity,11,rkJu,lZcu,1,0,False,1267.0
0,5e248b6f0c0b31718a9d3f31,familiarity,12,lKdbc,TbKME,0,1,False,958.0
0,5e248b6f0c0b31718a9d3f31,familiarity,13,bTE,DKP,0,0,True,854.0
0,5e248b6f0c0b31718a9d3f31,familiarity,14,YUNkZ,laYmr,0,0,True,945.0
0,5e248b6f0c0b31718a9d3f31,familiarity,15,tRdM,Ctmb,1,0,False,1259.0
0,5e248b6f0c0b31718a9d3f31,familiarity,16,LuNZ,LuaU,0,1,False,1064.0
0,5e248b6f0c0b31718a9d3f31,familiarity,17,Grub,dKRD,0,0,True,741.0
0,5e248b6f0c0b31718a9d3f31,familiarity,18,NkUA,TmTm,0,1,False,780.0
0,5e248b6f0c0b31718a9d3f31,familiarity,19,Tbk,JcL,1,0,False,994.0
0,5e248b6f0c0b31718a9d3f31,familiarity,20,kCRm,hkRK,1,0,False,1095.0
0,5e248b6f0c0b31718a9d3f31,familiarity,21,YArG,vQdO,0,0,True,930.0
0,5e248b6f0c0b31718a9d3f31,familiarity,22,UZu,ABb,0,1,False,471.0
0,5e248b6f0c0b31718a9d3f31,familiarity,23,Akd,uda,1,0,False,1056.0
0,5e248b6f0c0b31718a9d3f31,familiarity,24,KOYC,PcBT,1,0,False,651.0
0,5e248b6f0c0b31718a9d3f31,familiarity,25,dNZA,adkr,1,1,True,474.0
0,5e248b6f0c0b31718a9d3f31,familiarity,26,GumLl,kdaAJ,1,0,False,790.0
0,5e248b6f0c0b31718a9d3f31,familiarity,27,MDKP,PlEK,1,0,False,1072.0
0,5e248b6f0c0b31718a9d3f31,familiarity,28,OdYP,dCKc,1,0,False,961.0
0,5e248b6f0c0b31718a9d3f31,familiarity,29,rba,dRA,1,1,True,944.0
0,5e248b6f0c0b31718a9d3f31,familiarity,30,adYrc,hmKPM,1,1,True,1352.0
0,5e2b03f0005f2a02c5a64f7b,familiarity,1,GUOA,TdmA,1,1,True,4447.0
0,5e2b03f0005f2a02c5a64f7b,familiarity,2,KmE,JQA,1,0,False,1997.0
0,5e2b03f0005f2a02c5a64f7b,familiarity,3,Ckbd,tmAK,0,1,False,1397.0
0,5e2b03f0005f2a02c5a64f7b,familiarity,4,BEPO,mdkK,1,0,False,1024.0
0,5e2b03f0005f2a02c5a64f7b,familiarity,5,dMThk,JAdLm,0,1,False,937.0
0,5e2b03f0005f2a02c5a64f7b,familiarity,6,ZcGdN,YJLcA,1,1,True,969.0
0,5e2b03f0005f2a02c5a64f7b,familiarity,7,TPCb,KdAR,0,0,True,1077.0
0,5e2b03f0005f2a02c5a64f7b,familiarity,8,mcOJ,mBbK,1,1,True,1209.0
0,5e2b03f0005f2a02c5a64f7b,familiarity,9,YKRk,tRdM,0,0,True,921.0
0,5e2b03f0005f2a02c5a64f7b,familiarity,10,Qclad,mBmlA,1,1,True,1101.0
0,5e2b03f0005f2a02c5a64f7b,familiarity,11,GumLl,Cchtd,1,1,True,1062.0
0,5e2b03f0005f2a02c5a64f7b,familiarity,12,khmh,CKOb,0,1,False,1052.0
0,5e2b03f0005f2a02c5a64f7b,familiarity,13,amJm,bvuZ,0,1,False,1173.0
0,5e2b03f0005f2a02c5a64f7b,familiarity,14,CEM,PMd,0,0,True,956.0
0,5e2b03f0005f2a02c5a64f7b,familiarity,15,DOk,Jud,1,0,False,1135.0
0,5e2b03f0005f2a02c5a64f7b,familiarity,16,LkNc,MDKP,0,0,True,955.0
0,5e2b03f0005f2a02c5a64f7b,familiarity,17,AlQaQ,dMYBP,0,1,False,1012.0
0,5e2b03f0005f2a02c5a64f7b,familiarity,18,JrGv,dNZA,0,0,True,910.0
0,5e2b03f0005f2a02c5a64f7b,familiarity,19,JNka,PcBT,0,0,True,877.0
0,5e2b03f0005f2a02c5a64f7b,familiarity,20,ctkt,kPOt,0,0,True,896.0
0,5e2b03f0005f2a02c5a64f7b,familiarity,21,PEtE,ALGZ,1,1,True,859.0
0,5e2b03f0005f2a02c5a64f7b,familiarity,22,kabJb,NvuGr,1,0,False,864.0
0,5e2b03f0005f2a02c5a64f7b,familiarity,23,mKcD,UJkG,1,1,True,883.0
0,5e2b03f0005f2a02c5a64f7b,familiarity,24,kmU,vJQ,1,0,False,1405.0
0,5e2b03f0005f2a02c5a64f7b,familiarity,25,UdlGQ,PEkhA,0,1,False,1166.0
0,5e2b03f0005f2a02c5a64f7b,familiarity,26,DBkl,kJdr,1,0,False,1478.0
0,5e2b03f0005f2a02c5a64f7b,familiarity,27,mBYl,vclY,0,0,True,1255.0
0,5e2b03f0005f2a02c5a64f7b,familiarity,28,YNu,TRK,0,0,True,1115.0
0,5e2b03f0005f2a02c5a64f7b,familiarity,29,YArG,cthB,1,1,True,1059.0
0,5e2b03f0005f2a02c5a64f7b,familiarity,30,BOckP,OQarQ,1,0,False,1442.0
0,5e9dad3fd8d8010ac6a18620,familiarity,1,bRC,lRE,1,0,False,2075.0
0,5e9dad3fd8d8010ac6a18620,familiarity,2,vmuLl,KBKBE,0,0,True,1719.0
0,5e9dad3fd8d8010ac6a18620,familiarity,3,lGZv,KOYC,1,1,True,1604.0
0,5e9dad3fd8d8010ac6a18620,familiarity,4,EhRm,ctkt,0,1,False,1527.0
0,5e9dad3fd8d8010ac6a18620,familiarity,5,YuaNd,Ldrbv,0,0,True,1763.0
0,5e9dad3fd8d8010ac6a18620,familiarity,6,TRkY,TPOM,1,1,True,2254.0
0,5e9dad3fd8d8010ac6a18620,familiarity,7,kuvb,vclY,0,1,False,1363.0
0,5e9dad3fd8d8010ac6a18620,familiarity,8,DBkl,uvaU,0,0,True,1577.0
0,5e9dad3fd8d8010ac6a18620,familiarity,9,lbBDE,NbmQU,1,1,True,1382.0
0,5e9dad3fd8d8010ac6a18620,familiarity,10,kGua,badk,0,0,True,1917.0
0,5e9dad3fd8d8010ac6a18620,familiarity,11,YKPB,DOAK,1,1,True,1719.0
0,5e9dad3fd8d8010ac6a18620,familiarity,12,kmU,PMd,1,1,True,1548.0
0,5e9dad3fd8d8010ac6a18620,familiarity,13,Nac,BbM,1,0,False,1566.0
0,5e9dad3fd8d8010ac6a18620,familiarity,14,kZUb,hbmA,0,1,False,1652.0
0,5e9dad3fd8d8010ac6a18620,familiarity,15,hBmMC,TbKME,0,0,True,2042.0
0,5e9dad3fd8d8010ac6a18620,familiarity,16,JNka,bAdk,1,0,False,1580.0
0,5e9dad3fd8d8010ac6a18620,familiarity,17,NYZu,CmYA,0,0,True,1612.0
0,5e9dad3fd8d8010ac6a18620,familiarity,18,JauQ,rZYd,1,1,True,1780.0
0,5e9dad3fd8d8010ac6a18620,familiarity,19,YbBT,PEtE,0,0,True,1320.0
0,5e9dad3fd8d8010ac6a18620,familiarity,20,APT,Yht,1,0,False,1731.0
0,5e9dad3fd8d8010ac6a18620,familiarity,21,cAZu,mBYl,0,1,False,1175.0
0,5e9dad3fd8d8010ac6a18620,familiarity,22,LQur,bdtK,1,0,False,1828.0
0,5e9dad3fd8d8010ac6a18620,familiarity,23,lRCB,LuaU,0,0,True,1308.0
0,5e9dad3fd8d8010ac6a18620,familiarity,24,cRElD,vkYGl,1,1,True,1627.0
0,5e9dad3fd8d8010ac6a18620,familiarity,25,kKEdM,RYtkc,0,0,True,2908.0
0,5e9dad3fd8d8010ac6a18620,familiarity,26,OYuvb,dKDth,1,0,False,2321.0
0,5e9dad3fd8d8010ac6a18620,familiarity,27,OcYM,OJlN,1,0,False,1301.0
0,5e9dad3fd8d8010ac6a18620,familiarity,28,Ehbt,OMlT,0,1,False,1257.0
0,5e9dad3fd8d8010ac6a18620,familiarity,29,rvAJ,OdOP,0,0,True,1649.0
0,5e9dad3fd8d8010ac6a18620,familiarity,30,mdkK,Mlth,1,0,False,1062.0
0,5ebd8f8679146d0a116bc257,familiarity,1,OPE,cPK,1,1,True,2563.0
0,5ebd8f8679146d0a116bc257,familiarity,2,TklD,JdGm,1,0,False,1919.0
0,5ebd8f8679146d0a116bc257,familiarity,3,htmhC,uQkrd,0,1,False,1721.0
0,5ebd8f8679146d0a116bc257,familiarity,4,ODBDA,ABPRB,1,1,True,1274.0
0,5ebd8f8679146d0a116bc257,familiarity,5,kcOY,YUYa,1,1,True,1883.0
0,5ebd8f8679146d0a116bc257,familiarity,6,PED,YcM,0,0,True,976.0
0,5ebd8f8679146d0a116bc257,familiarity,7,uQuZc,cdKBY,1,0,False,1044.0
0,5ebd8f8679146d0a116bc257,familiarity,8,ldAa,YKPB,0,0,True,1040.0
0,5ebd8f8679146d0a116bc257,familiarity,9,dUr,Cdt,0,0,True,1714.0
0,5ebd8f8679146d0a116bc257,familiarity,10,AlUY,hbkd,0,0,True,1184.0
0,5ebd8f8679146d0a116bc257,familiarity,11,LNUrJ,vuJZu,1,0,False,1565.0
0,5ebd8f8679146d0a116bc257,familiarity,12,BRDh,AdYl,0,0,True,1876.0
0,5ebd8f8679146d0a116bc257,familiarity,13,uUmb,MCkm,1,1,True,1558.0
0,5ebd8f8679146d0a116bc257,familiarity,14,QGb,rab,0,0,True,1170.0
0,5ebd8f8679146d0a116bc257,familiarity,15,kcCRt,hTtBb,0,0,True,1418.0
0,5ebd8f8679146d0a116bc257,familiarity,16,lrZG,lRCB,1,0,False,2068.0
0,5ebd8f8679146d0a116bc257,familiarity,17,MhKd,JAaG,0,1,False,569.0
0,5ebd8f8679146d0a116bc257,familiarity,18,rULv,KMOc,1,1,True,786.0
0,5ebd8f8679146d0a116bc257,familiarity,19,dGLAl,NvuGr,1,0,False,351.0
0,5ebd8f8679146d0a116bc257,familiarity,20,dTmED,ZdNmU,0,1,False,283.0
0,5ebd8f8679146d0a116bc257,familiarity,21,hRKm,blMk,1,0,False,193.0
0,5ebd8f8679146d0a116bc257,familiarity,22,EKBO,EhRm,1,0,False,188.0
0,5ebd8f8679146d0a116bc257,familiarity,23,alJY,BPAl,1,1,True,269.0
0,5ebd8f8679146d0a116bc257,familiarity,24,EPMDk,EltMB,1,0,False,74.0
0,5ebd8f8679146d0a116bc257,familiarity,25,cuOJb,DRPkY,0,1,False,287.0
0,5ebd8f8679146d0a116bc257,familiarity,26,GQrc,PdDT,0,0,True,160.0
0,5ebd8f8679146d0a116bc257,familiarity,27,kCRm,ravu,1,1,True,414.0
0,5ebd8f8679146d0a116bc257,familiarity,28,lKdbc,kdaAJ,0,0,True,293.0
0,5ebd8f8679146d0a116bc257,familiarity,29,uauO,uvaU,1,0,False,187.0
0,5ebd8f8679146d0a116bc257,familiarity,30,NmAG,bvkr,1,1,True,296.0
0,5ecba4b6ef75d53505406d57,familiarity,1,thbOM,LNUrJ,1,1,True,3641.0
0,5ecba4b6ef75d53505406d57,familiarity,2,mbZl,YmBd,0,1,False,1218.0
0,5ecba4b6ef75d53505406d57,familiarity,3,dNZA,OMlT,0,1,False,1762.0
0,5ecba4b6ef75d53505406d57,familiarity,4,cUN,bRC,0,0,True,1102.0
0,5ecba4b6ef75d53505406d57,familiarity,5,vAvb,YZJm,1,1,True,1170.0
0,5ecba4b6ef75d53505406d57,familiarity,6,dCtMA,DOchl,0,1,False,958.0
0,5ecba4b6ef75d53505406d57,familiarity,7,rckO,RdCc,0,1,False,1063.0
0,5ecba4b6ef75d53505406d57,familiarity,8,lBKt,vJab,1,1,True,1363.0
0,5ecba4b6ef75d53505406d57,familiarity,9,LckGN,BKDRY,0,0,True,1146.0
0,5ecba4b6ef75d53505406d57,familiarity,10,kKE,PMd,0,1,False,1107.0
0,5ecba4b6ef75d53505406d57,familiarity,11,dvNvA,bmdAB,1,0,False,1099.0
0,5ecba4b6ef75d53505406d57,familiarity,12,COTK,badk,0,1,False,730.0
0,5ecba4b6ef75d53505406d57,familiarity,13,EPERd,ckdAm,0,0,True,685.0
0,5ecba4b6ef75d53505406d57,familiarity,14,AlTd,NkUA,1,0,False,718.0
0,5ecba4b6ef75d53505406d57,familiarity,15,NvYJ,Grbk,0,0,True,711.0
0,5ecba4b6ef75d53505406d57,familiarity,16,Qclad,JAdLm,1,1,True,740.0
0,5ecba4b6ef75d53505406d57,familiarity,17,bdtK,OcYM,0,1,False,917.0
0,5ecba4b6ef75d53505406d57,familiarity,18,ravu,Udbd,1,0,False,685.0
0,5ecba4b6ef75d53505406d57,familiarity,19,GNAca,YlCPB,0,1,False,1485.0
0,5ecba4b6ef75d53505406d57,familiarity,20,hYDmt,lbBDE,1,1,True,914.0
0,5ecba4b6ef75d53505406d57,familiarity,21,mUOcO,UdlGQ,0,0,True,1161.0
0,5ecba4b6ef75d53505406d57,familiarity,22,UrOQ,GJZm,1,1,True,1107.0
0,5ecba4b6ef75d53505406d57,familiarity,23,GUa,DKP,1,0,False,789.0
0,5ecba4b6ef75d53505406d57,familiarity,24,hEct,LUOk,0,1,False,694.0
0,5ecba4b6ef75d53505406d57,familiarity,25,hCkt,OCmk,1,0,False,1081.0
0,5ecba4b6ef75d53505406d57,familiarity,26,OMC,OYK,1,0,False,1206.0
0,5ecba4b6ef75d53505406d57,familiarity,27,kPM,Qru,0,0,True,854.0
0,5ecba4b6ef75d53505406d57,familiarity,28,lRCB,NaJb,1,0,False,777.0
0,5ecba4b6ef75d53505406d57,familiarity,29,EtMDM,AYkEh,0,0,True,836.0
0,5ecba4b6ef75d53505406d57,familiarity,30,YkZ,Jud,1,1,True,1201.0
0,5ed14691e983f5067842fd20,familiarity,1,bcbM,bAMO,0,1,False,2022.0
0,5ed14691e983f5067842fd20,familiarity,2,ArQu,GUOA,0,1,False,2430.0
0,5ed14691e983f5067842fd20,familiarity,3,vAuNl,CkBOP,1,0,False,2182.0
0,5ed14691e983f5067842fd20,familiarity,4,DMRP,TPOM,0,0,True,1211.0
0,5ed14691e983f5067842fd20,familiarity,5,uQuZc,NLQGm,1,1,True,1053.0
0,5ed14691e983f5067842fd20,familiarity,6,Grub,rkYL,0,0,True,2384.0
0,5ed14691e983f5067842fd20,familiarity,7,OdlNm,YuaNd,1,0,False,1334.0
0,5ed14691e983f5067842fd20,familiarity,8,YObA,rkra,1,1,True,1584.0
0,5ed14691e983f5067842fd20,familiarity,9,Abka,OJlN,1,1,True,1440.0
0,5ed14691e983f5067842fd20,familiarity,10,PCPDh,hmKPM,1,1,True,1451.0
0,5ed14691e983f5067842fd20,familiarity,11,aNYmb,AmQOY,1,1,True,2024.0
0,5ed14691e983f5067842fd20,familiarity,12,ktBd,mhtc,1,1,True,2183.0
0,5ed14691e983f5067842fd20,familiarity,13,cthB,vQdO,0,1,False,1892.0
0,5ed14691e983f5067842fd20,familiarity,14,EPERd,lCbcm,1,1,True,1055.0
0,5ed14691e983f5067842fd20,familiarity,15,thbOM,ckdAm,0,0,True,3032.0
0,5ed14691e983f5067842fd20,familiarity,16,Tbk,OBT,0,0,True,2258.0
0,5ed14691e983f5067842fd20,familiarity,17,Dmh,mvG,1,1,True,1624.0
0,5ed14691e983f5067842fd20,familiarity,18,QGb,ATc,0,0,True,2100.0
0,5ed14691e983f5067842fd20,familiarity,19,kGlU,kcOY,0,0,True,2307.0
0,5ed14691e983f5067842fd20,familiarity,20,kdrO,amJm,0,1,False,1301.0
0,5ed14691e983f5067842fd20,familiarity,21,LGkA,YZJO,1,1,True,1620.0
0,5ed14691e983f5067842fd20,familiarity,22,YDE,CEM,0,1,False,1439.0
0,5ed14691e983f5067842fd20,familiarity,23,rULv,Ydud,0,1,False,1807.0
0,5ed14691e983f5067842fd20,familiarity,24,EtMDM,LAclA,1,1,True,2176.0
0,5ed14691e983f5067842fd20,familiarity,25,GumLl,Udumd,0,0,True,1451.0
0,5ed14691e983f5067842fd20,familiarity,26,Ctmb,Ehbt,1,0,False,1550.0
0,5ed14691e983f5067842fd20,familiarity,27,kJdr,Zckv,1,1,True,1616.0
0,5ed14691e983f5067842fd20,familiarity,28,Phktk,LOLkU,1,0,False,1573.0
0,5ed14691e983f5067842fd20,familiarity,29,mAM,EAO,1,0,False,1567.0
0,5ed14691e983f5067842fd20,familiarity,30,NJZl,YZJm,0,0,True,1752.0
0,5f21c29511084913913af654,familiarity,1,rckO,rZYd,0,0,True,1926.0
0,5f21c29511084913913af654,familiarity,2,mkmJN,dOYml,0,0,True,1961.0
0,5f21c29511084913913af654,familiarity,3,Udbd,bmbN,1,1,True,1647.0
0,5f21c29511084913913af654,familiarity,4,ravu,OcYM,1,0,False,1589.0
0,5f21c29511084913913af654,familiarity,5,BEPO,dCKc,1,0,False,1451.0
0,5f21c29511084913913af654,familiarity,6,hYDmt,laYmr,0,1,False,1522.0
0,5f21c29511084913913af654,familiarity,7,Jud,OtM,0,0,True,1318.0
0,5f21c29511084913913af654,familiarity,8,dKDth,kKEdM,0,1,False,1291.0
0,5f21c29511084913913af654,familiarity,9,LGkA,OdYP,0,1,False,884.0
0,5f21c29511084913913af654,familiarity,10,Mlth,AZbl,1,0,False,874.0
0,5f21c29511084913913af654,familiarity,11,lTmO,APEM,0,1,False,868.0
0,5f21c29511084913913af654,familiarity,12,TRkY,mBbK,0,0,True,628.0
0,5f21c29511084913913af654,familiarity,13,EMYK,dRht,0,0,True,870.0
0,5f21c29511084913913af654,familiarity,14,hkRK,mARM,1,1,True,1029.0
0,5f21c29511084913913af654,familiarity,15,lYrua,UYZlZ,0,1,False,832.0
0,5f21c29511084913913af654,familiarity,16,kLvdN,PEkhA,0,0,True,1619.0
0,5f21c29511084913913af654,familiarity,17,PMYm,dkLl,1,0,False,477.0
0,5f21c29511084913913af654,familiarity,18,bNdmG,LAclA,0,1,False,468.0
0,5f21c29511084913913af654,familiarity,19,crdY,TEBK,1,1,True,136.0
0,5f21c29511084913913af654,familiarity,20,tmtEM,rvOvU,0,1,False,1901.0
0,5f21c29511084913913af654,familiarity,21,cthB,CPMl,0,1,False,791.0
0,5f21c29511084913913af654,familiarity,22,tmYh,kKRC,0,0,True,1173.0
0,5f21c29511084913913af654,familiarity,23,cYUv,JrGv,0,0,True,976.0
0,5f21c29511084913913af654,familiarity,24,UaZma,ABPRB,0,1,False,298.0
0,5f21c29511084913913af654,familiarity,25,AmQOY,NbacA,0,0,True,774.0
0,5f21c29511084913913af654,familiarity,26,kmU,BbM,1,0,False,171.0
0,5f21c29511084913913af654,familiarity,27,aNYmb,bRABt,0,1,False,286.0
0,5f21c29511084913913af654,familiarity,28,dmRb,UvOG,1,1,True,389.0
0,5f21c29511084913913af654,familiarity,29,PTl,KmE,0,0,True,862.0
0,5f21c29511084913913af654,familiarity,30,khmh,vUdm,1,0,False,130.0
0,5f316280965ec564c886f978,familiarity,1,YLQmG,EYtYR,1,1,True,1458.0
0,5f316280965ec564c886f978,familiarity,2,rULv,GZJY,1,1,True,920.0
0,5f316280965ec564c886f978,familiarity,3,ABb,ark,0,0,True,1064.0
0,5f316280965ec564c886f978,familiarity,4,YmBd,kDOm,1,0,False,977.0
0,5f316280965ec564c886f978,familiarity,5,lKdbc,PctRC,0,0,True,1001.0
0,5f316280965ec564c886f978,familiarity,6,dMYBP,mZUrQ,0,0,True,1017.0
0,5f316280965ec564c886f978,familiarity,7,ukYZ,kGua,0,1,False,816.0
0,5f316280965ec564c886f978,familiarity,8,kbu,mCd,0,0,True,889.0
0,5f316280965ec564c886f978,familiarity,9,Udumd,DmAME,0,1,False,882.0
0,5f316280965ec564c886f978,familiarity,10,OYuvb,AZaJc,0,1,False,946.0
0,5f316280965ec564c886f978,familiarity,11,KOYC,mBYl,1,0,False,266.0
0,5f316280965ec564c886f978,familiarity,12,RKYk,mcOJ,1,0,False,320.0
0,5f316280965ec564c886f978,familiarity,13,mAM,Qru,1,0,False,489.0
0,5f316280965ec564c886f978,familiarity,14,hCkt,bcOR,1,1,True,265.0
0,5f316280965ec564c886f978,familiarity,15,ALGZ,Grbk,0,0,True,799.0
0,5f316280965ec564c886f978,familiarity,16,LdQv,DlDT,0,0,True,135.0
0,5f316280965ec564c886f978,familiarity,17,rab,uvJ,0,0,True,128.0
0,5f316280965ec564c886f978,familiarity,18,Udbd,Avdk,0,1,False,168.0
0,5f316280965ec564c886f978,familiarity,19,tmYh,Ehbt,0,0,True,160.0
0,5f316280965ec564c886f978,familiarity,20,GNAca,dRbDb,1,1,True,441.0
0,5f316280965ec564c886f978,familiarity,21,rZYd,DbMR,0,1,False,209.0
0,5f316280965ec564c886f978,familiarity,22,McMD,MCkm,0,1,False,153.0
0,5f316280965ec564c886f978,familiarity,23,OJGQ,Abka,0,0,True,184.0
0,5f316280965ec564c886f978,familiarity,24,EAO,Tmc,0,0,True,209.0
0,5f316280965ec564c886f978,familiarity,25,ABPRB,LNUrJ,0,0,True,138.0
0,5f316280965ec564c886f978,familiarity,26,YZJm,OdYP,1,0,False,86.0
0,5f316280965ec564c886f978,familiarity,27,TmTm,TdTD,0,1,False,224.0
0,5f316280965ec564c886f978,familiarity,28,YUYa,OZkb,1,0,False,113.0
0,5f316280965ec564c886f978,familiarity,29,hmKPM,ZcGdN,1,1,True,177.0
0,5f316280965ec564c886f978,familiarity,30,kDRKc,lCbcm,1,1,True,256.0
0,5f35782429beab53ef93cc2d,familiarity,1,BYhT,DBlh,0,0,True,6457.0
0,5f35782429beab53ef93cc2d,familiarity,2,Mlth,muYN,1,1,True,2319.0
0,5f35782429beab53ef93cc2d,familiarity,3,OmtlD,cROMt,1,1,True,1403.0
0,5f35782429beab53ef93cc2d,familiarity,4,QONk,EKBO,0,1,False,1333.0
0,5f35782429beab53ef93cc2d,familiarity,5,dmZvm,OAmAd,1,0,False,1294.0
0,5f35782429beab53ef93cc2d,familiarity,6,OtlR,khmh,0,0,True,2018.0
0,5f35782429beab53ef93cc2d,familiarity,7,AlNU,uOAO,0,0,True,1236.0
0,5f35782429beab53ef93cc2d,familiarity,8,tcYbd,ZcGdN,0,0,True,1942.0
0,5f35782429beab53ef93cc2d,familiarity,9,JQA,Cdt,1,1,True,1091.0
0,5f35782429beab53ef93cc2d,familiarity,10,AJLr,vclY,1,0,False,777.0
0,5f35782429beab53ef93cc2d,familiarity,11,mKcD,tRdM,1,0,False,633.0
0,5f35782429beab53ef93cc2d,familiarity,12,JZOAk,BOckP,1,0,False,1110.0
0,5f35782429beab53ef93cc2d,familiarity,13,Udumd,laYmr,1,1,True,898.0
0,5f35782429beab53ef93cc2d,familiarity,14,OAblc,JmvmO,1,1,True,576.0
0,5f35782429beab53ef93cc2d,familiarity,15,PMPtk,EPERd,1,1,True,747.0
0,5f35782429beab53ef93cc2d,familiarity,16,mAM,OtM,0,1,False,1321.0
0,5f35782429beab53ef93cc2d,familiarity,17,LUOk,UvOG,1,1,True,662.0
0,5f35782429beab53ef93cc2d,familiarity,18,NLQGm,kdEdY,0,0,True,424.0
0,5f35782429beab53ef93cc2d,familiarity,19,hCkt,cMRl,0,0,True,562.0
0,5f35782429beab53ef93cc2d,familiarity,20,JmNk,JrGv,1,0,False,418.0
0,5f35782429beab53ef93cc2d,familiarity,21,hkRK,alJY,0,0,True,374.0
0,5f35782429beab53ef93cc2d,familiarity,22,AlKD,GQrc,1,1,True,448.0
0,5f35782429beab53ef93cc2d,familiarity,23,Yht,tcB,0,1,False,382.0
0,5f35782429beab53ef93cc2d,familiarity,24,auYAk,Zvalv,0,1,False,391.0
0,5f35782429beab53ef93cc2d,familiarity,25,CRdBd,tmtEM,0,1,False,370.0
0,5f35782429beab53ef93cc2d,familiarity,26,LckGN,KAERM,1,0,False,307.0
0,5f35782429beab53ef93cc2d,familiarity,27,ktBd,TKDk,0,0,True,444.0
0,5f35782429beab53ef93cc2d,familiarity,28,lbBDE,Juaml,1,0,False,459.0
0,5f35782429beab53ef93cc2d,familiarity,29,YZUZ,KABA,0,1,False,254.0
0,5f35782429beab53ef93cc2d,familiarity,30,ukbY,aYQm,1,0,False,270.0
0,5f3d119b77d8ba0009a79558,familiarity,1,RYlD,ukbY,0,0,True,2145.0
0,5f3d119b77d8ba0009a79558,familiarity,2,bdUNu,YJLcA,1,0,False,1882.0
0,5f3d119b77d8ba0009a79558,familiarity,3,ctkt,Ctmb,1,1,True,921.0
0,5f3d119b77d8ba0009a79558,familiarity,4,adYrc,ZJLmr,1,1,True,1545.0
0,5f3d119b77d8ba0009a79558,familiarity,5,ECtbD,BATOc,1,0,False,1521.0
0,5f3d119b77d8ba0009a79558,familiarity,6,aOLZU,BKDRY,1,1,True,1197.0
0,5f3d119b77d8ba0009a79558,familiarity,7,dMThk,PDPhl,1,0,False,1292.0
0,5f3d119b77d8ba0009a79558,familiarity,8,Ckbd,alJY,0,1,False,1215.0
0,5f3d119b77d8ba0009a79558,familiarity,9,OYK,kam,1,0,False,1116.0
0,5f3d119b77d8ba0009a79558,familiarity,10,tmtEM,DBPhc,1,1,True,824.0
0,5f3d119b77d8ba0009a79558,familiarity,11,NLQGm,AZaJc,0,1,False,1555.0
0,5f3d119b77d8ba0009a79558,familiarity,12,aYQm,rkJu,1,1,True,1557.0
0,5f3d119b77d8ba0009a79558,familiarity,13,PEkhA,GumLl,1,1,True,714.0
0,5f3d119b77d8ba0009a79558,familiarity,14,lGZv,vAvb,1,1,True,1216.0
0,5f3d119b77d8ba0009a79558,familiarity,15,tDPRk,EPERd,1,1,True,1093.0
0,5f3d119b77d8ba0009a79558,familiarity,16,YLU,DKP,1,0,False,1129.0
0,5f3d119b77d8ba0009a79558,familiarity,17,kCRm,ukcY,0,1,False,1693.0
0,5f3d119b77d8ba0009a79558,familiarity,18,TmTm,bYuQ,1,1,True,985.0
0,5f3d119b77d8ba0009a79558,familiarity,19,YKRk,vJab,1,0,False,1102.0
0,5f3d119b77d8ba0009a79558,familiarity,20,cRElD,PctRC,0,1,False,991.0
0,5f3d119b77d8ba0009a79558,familiarity,21,Yaum,NJZl,0,0,True,1271.0
0,5f3d119b77d8ba0009a79558,familiarity,22,JmvmO,ABPRB,0,1,False,1573.0
0,5f3d119b77d8ba0009a79558,familiarity,23,cthB,mbZl,0,0,True,1214.0
0,5f3d119b77d8ba0009a79558,familiarity,24,blMk,OtlR,0,1,False,1137.0
0,5f3d119b77d8ba0009a79558,familiarity,25,dYAJ,OcZJ,1,0,False,1638.0
0,5f3d119b77d8ba0009a79558,familiarity,26,rba,Arv,0,0,True,1440.0
0,5f3d119b77d8ba0009a79558,familiarity,27,YZUZ,JUNa,0,0,True,849.0
0,5f3d119b77d8ba0009a79558,familiarity,28,GQrc,NmAG,1,1,True,1805.0
0,5f3d119b77d8ba0009a79558,familiarity,29,vmuLl,OLJbl,0,1,False,1291.0
0,5f3d119b77d8ba0009a79558,familiarity,30,ZdlO,DbMR,0,0,True,853.0
0,5f5a5d4618746310515e2828,familiarity,1,vAvb,OJNk,0,1,False,2131.0
0,5f5a5d4618746310515e2828,familiarity,2,QLrOJ,RlAKc,0,0,True,1726.0
0,5f5a5d4618746310515e2828,familiarity,3,tDPRk,GumLl,0,0,True,1642.0
0,5f5a5d4618746310515e2828,familiarity,4,OMC,mvG,1,1,True,2770.0
0,5f5a5d4618746310515e2828,familiarity,5,DbMR,RCdc,0,0,True,2120.0
0,5f5a5d4618746310515e2828,familiarity,6,uUY,ABb,0,1,False,2030.0
0,5f5a5d4618746310515e2828,familiarity,7,TAdhM,NLQGm,0,1,False,1982.0
0,5f5a5d4618746310515e2828,familiarity,8,kGamN,dvNvA,1,1,True,1448.0
0,5f5a5d4618746310515e2828,familiarity,9,ZdNmU,ckdAm,1,1,True,1456.0
0,5f5a5d4618746310515e2828,familiarity,10,adkr,uvaU,0,0,True,2780.0
0,5f5a5d4618746310515e2828,familiarity,11,TbKME,adYrc,0,1,False,1261.0
0,5f5a5d4618746310515e2828,familiarity,12,KdAR,dRht,0,1,False,1642.0
0,5f5a5d4618746310515e2828,familiarity,13,cuOJb,YUNkZ,1,1,True,2093.0
0,5f5a5d4618746310515e2828,familiarity,14,bAMO,DlDd,0,0,True,1252.0
0,5f5a5d4618746310515e2828,familiarity,15,Dmh,YLU,0,1,False,2160.0
0,5f5a5d4618746310515e2828,familiarity,16,EtMDM,TCbDC,1,1,True,1963.0
0,5f5a5d4618746310515e2828,familiarity,17,YTOM,YcdO,1,0,False,3897.0
0,5f5a5d4618746310515e2828,familiarity,18,BOCRM,Juaml,0,0,True,3621.0
0,5f5a5d4618746310515e2828,familiarity,19,Cchtd,AlQaQ,1,0,False,1796.0
0,5f5a5d4618746310515e2828,familiarity,20,KBKBE,PCPDh,1,1,True,1134.0
0,5f5a5d4618746310515e2828,familiarity,21,aONd,mBYl,0,0,True,4335.0
0,5f5a5d4618746310515e2828,familiarity,22,rLaZ,OJGQ,0,1,False,2580.0
0,5f5a5d4618746310515e2828,familiarity,23,mLdkZ,rbYbu,0,1,False,2285.0
0,5f5a5d4618746310515e2828,familiarity,24,Ehbt,vJab,0,0,True,2126.0
0,5f5a5d4618746310515e2828,familiarity,25,rvOvU,LNUrJ,0,0,True,1900.0
0,5f5a5d4618746310515e2828,familiarity,26,cROMt,dMThk,0,1,False,1838.0
0,5f5a5d4618746310515e2828,familiarity,27,QvlZ,PMYm,0,1,False,1771.0
0,5f5a5d4618746310515e2828,familiarity,28,ALGZ,khMD,1,0,False,1936.0
0,5f5a5d4618746310515e2828,familiarity,29,uUmb,hTDd,1,0,False,2325.0
0,5f5a5d4618746310515e2828,familiarity,30,Grub,CmcO,1,1,True,1635.0
0,5f8af153e27f001bcc23ffc4,familiarity,1,MKmY,LuNZ,0,1,False,4681.0
0,5f8af153e27f001bcc23ffc4,familiarity,2,CRdBd,YuaNd,0,0,True,1597.0
0,5f8af153e27f001bcc23ffc4,familiarity,3,RYlD,YDTk,1,0,False,1620.0
0,5f8af153e27f001bcc23ffc4,familiarity,4,TRK,mAM,1,1,True,1087.0
0,5f8af153e27f001bcc23ffc4,familiarity,5,KlkD,DhCP,0,1,False,1784.0
0,5f8af153e27f001bcc23ffc4,familiarity,6,MhKd,EdBb,1,1,True,1459.0
0,5f8af153e27f001bcc23ffc4,familiarity,7,cBROB,MBKRE,1,0,False,1600.0
0,5f8af153e27f001bcc23ffc4,familiarity,8,lCbcm,lAOKM,0,0,True,3132.0
0,5f8af153e27f001bcc23ffc4,familiarity,9,dvNvA,rdLJa,0,0,True,1248.0
0,5f8af153e27f001bcc23ffc4,familiarity,10,lZcu,OCmk,0,0,True,1583.0
0,5f8af153e27f001bcc23ffc4,familiarity,11,UdvY,chAh,0,0,True,1223.0
0,5f8af153e27f001bcc23ffc4,familiarity,12,lLG,kBD,1,0,False,1977.0
0,5f8af153e27f001bcc23ffc4,familiarity,13,ravu,YOZN,0,1,False,1454.0
0,5f8af153e27f001bcc23ffc4,familiarity,14,DcPTc,kPkRA,0,0,True,1507.0
0,5f8af153e27f001bcc23ffc4,familiarity,15,MCkm,DMRP,1,0,False,960.0
0,5f8af153e27f001bcc23ffc4,familiarity,16,Ddck,MDKP,1,1,True,887.0
0,5f8af153e27f001bcc23ffc4,familiarity,17,vJab,OZkb,1,0,False,1287.0
0,5f8af153e27f001bcc23ffc4,familiarity,18,lRCB,DCmh,0,1,False,1485.0
0,5f8af153e27f001bcc23ffc4,familiarity,19,YUNkZ,YlCPB,0,0,True,1382.0
0,5f8af153e27f001bcc23ffc4,familiarity,20,NQZv,dCKc,1,1,True,1792.0
0,5f8af153e27f001bcc23ffc4,familiarity,21,Abka,lBKt,1,0,False,855.0
0,5f8af153e27f001bcc23ffc4,familiarity,22,Gabk,OdYP,0,1,False,1176.0
0,5f8af153e27f001bcc23ffc4,familiarity,23,TdTD,amJm,0,0,True,1454.0
0,5f8af153e27f001bcc23ffc4,familiarity,24,kcCRt,EPERd,1,1,True,1838.0
0,5f8af153e27f001bcc23ffc4,familiarity,25,UbG,DKP,1,1,True,1924.0
0,5f8af153e27f001bcc23ffc4,familiarity,26,kKRC,Zckv,1,0,False,2391.0
0,5f8af153e27f001bcc23ffc4,familiarity,27,Yaum,Udbd,0,0,True,2388.0
0,5f8af153e27f001bcc23ffc4,familiarity,28,GQrc,ukcY,1,0,False,1162.0
0,5f8af153e27f001bcc23ffc4,familiarity,29,YLQmG,lhCTC,0,0,True,1766.0
0,5f8af153e27f001bcc23ffc4,familiarity,30,kGamN,OdlNm,0,0,True,1695.0
0,5f9c2359530d3e067a300bd6,familiarity,1,RdCc,BEPO,1,1,True,1762.0
0,5f9c2359530d3e067a300bd6,familiarity,2,uvaU,bAMO,0,1,False,1820.0
0,5f9c2359530d3e067a300bd6,familiarity,3,cBROB,DBPhc,0,1,False,1462.0
0,5f9c2359530d3e067a300bd6,familiarity,4,Ald,PMd,0,1,False,1529.0
0,5f9c2359530d3e067a300bd6,familiarity,5,lbBDE,UAcdu,0,0,True,1300.0
0,5f9c2359530d3e067a300bd6,familiarity,6,NLQGm,cuOJb,0,1,False,2105.0
0,5f9c2359530d3e067a300bd6,familiarity,7,OJNk,KlkD,0,0,True,1087.0
0,5f9c2359530d3e067a300bd6,familiarity,8,ALOrl,ckduA,1,0,False,1404.0
0,5f9c2359530d3e067a300bd6,familiarity,9,UaYL,rckO,0,1,False,1402.0
0,5f9c2359530d3e067a300bd6,familiarity,10,adYrc,uQkrd,1,1,True,1797.0
0,5f9c2359530d3e067a300bd6,familiarity,11,lMck,MhKd,1,1,True,1363.0
0,5f9c2359530d3e067a300bd6,familiarity,12,Jud,YkZ,0,1,False,1333.0
0,5f9c2359530d3e067a300bd6,familiarity,13,tRPD,AlNU,1,1,True,1643.0
0,5f9c2359530d3e067a300bd6,familiarity,14,kKRC,BYhT,1,1,True,1429.0
0,5f9c2359530d3e067a300bd6,familiarity,15,COTK,AZbl,1,0,False,1594.0
0,5f9c2359530d3e067a300bd6,familiarity,16,TDKh,NvYJ,1,1,True,1512.0
0,5f9c2359530d3e067a300bd6,familiarity,17,cPK,Arv,1,0,False,1631.0
0,5f9c2359530d3e067a300bd6,familiarity,18,badk,EdBb,0,0,True,2133.0
0,5f9c2359530d3e067a300bd6,familiarity,19,kam,kPM,1,1,True,1792.0
0,5f9c2359530d3e067a300bd6,familiarity,20,KDPA,khmh,0,1,False,1555.0
0,5f9c2359530d3e067a300bd6,familiarity,21,hbmA,AdDb,0,1,False,2127.0
0,5f9c2359530d3e067a300bd6,familiarity,22,OMC,lLG,1,0,False,3495.0
0,5f9c2359530d3e067a300bd6,familiarity,23,dJNr,CPMl,0,1,False,2265.0
0,5f9c2359530d3e067a300bd6,familiarity,24,dGLAl,vmuLl,1,1,True,1322.0
0,5f9c2359530d3e067a300bd6,familiarity,25,dkLl,DOAK,1,1,True,1652.0
0,5f9c2359530d3e067a300bd6,familiarity,26,khMD,MBmE,1,1,True,1846.0
0,5f9c2359530d3e067a300bd6,familiarity,27,bRABt,EMbDP,1,1,True,1002.0
0,5f9c2359530d3e067a300bd6,familiarity,28,krGu,uUmb,0,1,False,1329.0
0,5f9c2359530d3e067a300bd6,familiarity,29,CDEmY,DOBhY,1,0,False,1462.0
0,5f9c2359530d3e067a300bd6,familiarity,30,muYN,aYaN,0,0,True,1225.0
0,5faacca24cd0384c1fa08be1,familiarity,1,YTOM,KEdl,0,0,True,5531.0
0,5faacca24cd0384c1fa08be1,familiarity,2,lcOc,rkJu,1,1,True,3175.0
0,5faacca24cd0384c1fa08be1,familiarity,3,dYAJ,BECk,1,1,True,2502.0
0,5faacca24cd0384c1fa08be1,familiarity,4,dTAh,OEPk,0,0,True,1383.0
0,5faacca24cd0384c1fa08be1,familiarity,5,CmYA,kMEC,1,1,True,1168.0
0,5faacca24cd0384c1fa08be1,familiarity,6,Yht,PMd,1,1,True,1092.0
0,5faacca24cd0384c1fa08be1,familiarity,7,rZYd,ctkt,1,1,True,1929.0
0,5faacca24cd0384c1fa08be1,familiarity,8,dMYBP,aOLZU,0,0,True,1272.0
0,5faacca24cd0384c1fa08be1,familiarity,9,AlNU,YcdO,1,0,False,1136.0
0,5faacca24cd0384c1fa08be1,familiarity,10,YObA,Zckv,0,0,True,997.0
0,5faacca24cd0384c1fa08be1,familiarity,11,vclY,TklD,0,1,False,771.0
0,5faacca24cd0384c1fa08be1,familiarity,12,lBKt,JdGm,1,0,False,1068.0
0,5faacca24cd0384c1fa08be1,familiarity,13,advYO,PCPDh,1,1,True,1083.0
0,5faacca24cd0384c1fa08be1,familiarity,14,Nac,mvG,1,0,False,1140.0
0,5faacca24cd0384c1fa08be1,familiarity,15,KElB,uOAO,1,1,True,1752.0
0,5faacca24cd0384c1fa08be1,familiarity,16,DCmh,mcOJ,1,1,True,767.0
0,5faacca24cd0384c1fa08be1,familiarity,17,Zvalv,BMEMA,0,1,False,415.0
0,5faacca24cd0384c1fa08be1,familiarity,18,NaJb,krGu,1,0,False,1021.0
0,5faacca24cd0384c1fa08be1,familiarity,19,dmZvm,EtMDM,0,0,True,1833.0
0,5faacca24cd0384c1fa08be1,familiarity,20,ORbk,rLaZ,0,0,True,1024.0
0,5faacca24cd0384c1fa08be1,familiarity,21,mCd,JZr,1,1,True,1217.0
0,5faacca24cd0384c1fa08be1,familiarity,22,OJGQ,UmNJ,0,1,False,1897.0
0,5faacca24cd0384c1fa08be1,familiarity,23,YOaAb,kbmZO,1,1,True,1585.0
0,5faacca24cd0384c1fa08be1,familiarity,24,rkra,YUYa,0,1,False,1970.0
0,5faacca24cd0384c1fa08be1,familiarity,25,RYtkc,Ldrbv,1,1,True,223.0
0,5faacca24cd0384c1fa08be1,familiarity,26,hlkT,Ddck,0,1,False,2574.0
0,5faacca24cd0384c1fa08be1,familiarity,27,OcYM,tmYh,0,1,False,1533.0
0,5faacca24cd0384c1fa08be1,familiarity,28,kbu,LcO,1,1,True,1548.0
0,5faacca24cd0384c1fa08be1,familiarity,29,KMDYt,dGLAl,0,0,True,1777.0
0,5faacca24cd0384c1fa08be1,familiarity,30,krUQ,ktBd,0,0,True,1485.0
0,5fade36bdde8092117469a42,familiarity,1,Grub,EMYK,0,0,True,6518.0
0,5fade36bdde8092117469a42,familiarity,2,Arv,cbm,0,0,True,1551.0
0,5fade36bdde8092117469a42,familiarity,3,dCKc,hChY,0,1,False,1562.0
0,5fade36bdde8092117469a42,familiarity,4,tDPRk,bmdAB,1,0,False,2055.0
0,5fade36bdde8092117469a42,familiarity,5,GNAca,NbmQU,1,1,True,1572.0
0,5fade36bdde8092117469a42,familiarity,6,cUN,vJQ,0,0,True,1779.0
0,5fade36bdde8092117469a42,familiarity,7,MCkm,JdGm,0,0,True,1563.0
0,5fade36bdde8092117469a42,familiarity,8,bAdk,CmcO,0,0,True,1907.0
0,5fade36bdde8092117469a42,familiarity,9,LdQv,AMkC,0,1,False,1099.0
0,5fade36bdde8092117469a42,familiarity,10,KEdl,EKBO,0,0,True,1553.0
0,5fade36bdde8092117469a42,familiarity,11,kdEdY,tKDmh,0,0,True,1219.0
0,5fade36bdde8092117469a42,familiarity,12,dCtMA,YUNkZ,0,0,True,1403.0
0,5fade36bdde8092117469a42,familiarity,13,krGu,KlkD,0,1,False,1034.0
0,5fade36bdde8092117469a42,familiarity,14,lKdbc,CRdBd,1,0,False,1387.0
0,5fade36bdde8092117469a42,familiarity,15,QLrOJ,YlCPB,0,1,False,1355.0
0,5fade36bdde8092117469a42,familiarity,16,QONk,bGuO,0,1,False,867.0
0,5fade36bdde8092117469a42,familiarity,17,advYO,Phktk,0,1,False,1370.0
0,5fade36bdde8092117469a42,familiarity,18,TObCO,ZYcQU,0,1,False,1419.0
0,5fade36bdde8092117469a42,familiarity,19,dmZvm,PCPDh,1,0,False,1195.0
0,5fade36bdde8092117469a42,familiarity,20,JrGv,dYdA,1,1,True,1652.0
0,5fade36bdde8092117469a42,familiarity,21,lBlE,tmYh,0,0,True,1182.0
0,5fade36bdde8092117469a42,familiarity,22,LUOk,vclY,1,1,True,1539.0
0,5fade36bdde8092117469a42,familiarity,23,GAcY,ZAUu,0,1,False,1355.0
0,5fade36bdde8092117469a42,familiarity,24,EltMB,rGUAY,0,0,True,1267.0
0,5fade36bdde8092117469a42,familiarity,25,DlDT,cYUv,1,0,False,1650.0
0,5fade36bdde8092117469a42,familiarity,26,dRht,DlDd,0,0,True,844.0
0,5fade36bdde8092117469a42,familiarity,27,lRCB,YcdO,0,1,False,1378.0
0,5fade36bdde8092117469a42,familiarity,28,JNka,CPMl,1,1,True,1739.0
0,5fade36bdde8092117469a42,familiarity,29,RdCc,mtKP,0,0,True,1571.0
0,5fade36bdde8092117469a42,familiarity,30,Nulk,lkAk,0,0,True,1155.0
0,5ffab69a57132749844b8020,familiarity,1,AmQOY,damYb,0,0,True,3045.0
0,5ffab69a57132749844b8020,familiarity,2,JcL,DOk,1,0,False,1855.0
0,5ffab69a57132749844b8020,familiarity,3,TKDk,RCdc,0,0,True,1563.0
0,5ffab69a57132749844b8020,familiarity,4,vuJZu,Phktk,1,0,False,1327.0
0,5ffab69a57132749844b8020,familiarity,5,NkUA,AlKD,0,1,False,1403.0
0,5ffab69a57132749844b8020,familiarity,6,JmNk,OkGY,0,1,False,594.0
0,5ffab69a57132749844b8020,familiarity,7,KABA,dmkv,0,0,True,598.0
0,5ffab69a57132749844b8020,familiarity,8,hRKm,kMEC,0,1,False,745.0
0,5ffab69a57132749844b8020,familiarity,9,PctRC,ALOrl,1,1,True,704.0
0,5ffab69a57132749844b8020,familiarity,10,vblr,rvAJ,1,1,True,1150.0
0,5ffab69a57132749844b8020,familiarity,11,vAvb,CmYA,0,0,True,903.0
0,5ffab69a57132749844b8020,familiarity,12,YJkb,CmcO,1,1,True,883.0
0,5ffab69a57132749844b8020,familiarity,13,YJLcA,JZOAk,1,0,False,729.0
0,5ffab69a57132749844b8020,familiarity,14,OCmk,OJNk,0,1,False,1681.0
0,5ffab69a57132749844b8020,familiarity,15,mtKP,OZkb,1,0,False,778.0
0,5ffab69a57132749844b8020,familiarity,16,PMYm,OQAr,1,0,False,424.0
0,5ffab69a57132749844b8020,familiarity,17,TCbDC,aNYmb,1,1,True,449.0
0,5ffab69a57132749844b8020,familiarity,18,OEPk,vYLU,1,1,True,646.0
0,5ffab69a57132749844b8020,familiarity,19,mkc,EAO,1,0,False,333.0
0,5ffab69a57132749844b8020,familiarity,20,PYkC,BECk,1,1,True,187.0
0,5ffab69a57132749844b8020,familiarity,21,RKYk,ALGZ,0,0,True,262.0
0,5ffab69a57132749844b8020,familiarity,22,ckLAL,tKDmh,0,0,True,546.0
0,5ffab69a57132749844b8020,familiarity,23,kcCRt,aOLZU,0,1,False,623.0
0,5ffab69a57132749844b8020,familiarity,24,dEPD,kKRC,0,1,False,679.0
0,5ffab69a57132749844b8020,familiarity,25,JcUk,RdCc,1,0,False,686.0
0,5ffab69a57132749844b8020,familiarity,26,bYuQ,YDTk,1,1,True,696.0
0,5ffab69a57132749844b8020,familiarity,27,ZcGdN,DRPkY,1,0,False,788.0
0,5ffab69a57132749844b8020,familiarity,28,crdY,Ddck,1,0,False,906.0
0,5ffab69a57132749844b8020,familiarity,29,chEDO,EPERd,1,1,True,401.0
0,5ffab69a57132749844b8020,familiarity,30,dTAh,McMD,0,1,False,541.0
0,5ffd4230d96f6b2649d31f72,familiarity,1,LcNUJ,dMYBP,0,0,True,1771.0
0,5ffd4230d96f6b2649d31f72,familiarity,2,NAacQ,bYGOZ,1,0,False,1502.0
0,5ffd4230d96f6b2649d31f72,familiarity,3,uQuZc,uQkrd,0,1,False,1666.0
0,5ffd4230d96f6b2649d31f72,familiarity,4,MTdY,lcOc,0,0,True,1158.0
0,5ffd4230d96f6b2649d31f72,familiarity,5,hChY,GJZm,0,0,True,1368.0
0,5ffd4230d96f6b2649d31f72,familiarity,6,DhCP,YmBd,1,1,True,1316.0
0,5ffd4230d96f6b2649d31f72,familiarity,7,Blmcl,ABPRB,0,0,True,1241.0
0,5ffd4230d96f6b2649d31f72,familiarity,8,rULv,DBkl,0,0,True,1355.0
0,5ffd4230d96f6b2649d31f72,familiarity,9,muYN,UrOQ,0,0,True,1057.0
0,5ffd4230d96f6b2649d31f72,familiarity,10,YcdO,mcOJ,1,1,True,1104.0
0,5ffd4230d96f6b2649d31f72,familiarity,11,Glu,uUY,0,0,True,1231.0
0,5ffd4230d96f6b2649d31f72,familiarity,12,JdGm,LuaU,0,1,False,1247.0
0,5ffd4230d96f6b2649d31f72,familiarity,13,ktBd,JrGv,0,1,False,1202.0
0,5ffd4230d96f6b2649d31f72,familiarity,14,rAm,dPc,1,0,False,1051.0
0,5ffd4230d96f6b2649d31f72,familiarity,15,ArQu,PMYm,0,1,False,1075.0
0,5ffd4230d96f6b2649d31f72,familiarity,16,YObA,NmAG,1,1,True,1195.0
0,5ffd4230d96f6b2649d31f72,familiarity,17,GQYQ,ldAa,1,1,True,1027.0
0,5ffd4230d96f6b2649d31f72,familiarity,18,rbYbu,advYO,0,1,False,1221.0
0,5ffd4230d96f6b2649d31f72,familiarity,19,tAY,uvJ,0,0,True,1263.0
0,5ffd4230d96f6b2649d31f72,familiarity,20,hbmA,JmNk,0,0,True,1129.0
0,5ffd4230d96f6b2649d31f72,familiarity,21,BOckP,ZkGmY,1,0,False,1259.0
0,5ffd4230d96f6b2649d31f72,familiarity,22,Tbk,Tmc,0,1,False,1145.0
0,5ffd4230d96f6b2649d31f72,familiarity,23,bdtK,bROC,1,0,False,1152.0
0,5ffd4230d96f6b2649d31f72,familiarity,24,rkYL,dEPD,0,1,False,950.0
0,5ffd4230d96f6b2649d31f72,familiarity,25,mtKP,lTmO,0,0,True,1010.0
0,5ffd4230d96f6b2649d31f72,familiarity,26,kMEC,LkNc,1,1,True,978.0
0,5ffd4230d96f6b2649d31f72,familiarity,27,ZvkL,bvkr,0,1,False,1061.0
0,5ffd4230d96f6b2649d31f72,familiarity,28,tdDd,YUYa,0,1,False,1020.0
0,5ffd4230d96f6b2649d31f72,familiarity,29,GNAca,dOYml,1,1,True,1091.0
0,5ffd4230d96f6b2649d31f72,familiarity,30,chEDO,vuJZu,0,1,False,1080.0
0,604d5e61486bd0622d2102c0,familiarity,1,EYtYR,Ldrbv,1,1,True,1890.0
0,604d5e61486bd0622d2102c0,familiarity,2,dCtMA,EtMDM,0,0,True,3464.0
0,604d5e61486bd0622d2102c0,familiarity,3,Ymb,YDE,1,1,True,2395.0
0,604d5e61486bd0622d2102c0,familiarity,4,DcPTc,UAcdu,1,1,True,2309.0
0,604d5e61486bd0622d2102c0,familiarity,5,OAblc,lCbcm,0,1,False,1719.0
0,604d5e61486bd0622d2102c0,familiarity,6,kMbTR,BdtAC,0,0,True,1597.0
0,604d5e61486bd0622d2102c0,familiarity,7,aYQm,lBKt,1,0,False,1481.0
0,604d5e61486bd0622d2102c0,familiarity,8,dPc,kPM,1,0,False,1408.0
0,604d5e61486bd0622d2102c0,familiarity,9,OMlT,CmcO,0,1,False,1358.0
0,604d5e61486bd0622d2102c0,familiarity,10,JcUk,PdDT,0,1,False,1478.0
0,604d5e61486bd0622d2102c0,familiarity,11,KmE,kYL,0,1,False,1375.0
0,604d5e61486bd0622d2102c0,familiarity,12,OAmGr,NvuGr,1,0,False,1601.0
0,604d5e61486bd0622d2102c0,familiarity,13,tDPRk,kDRKc,1,1,True,1564.0
0,604d5e61486bd0622d2102c0,familiarity,14,bRABt,BMEMA,1,0,False,1484.0
0,604d5e61486bd0622d2102c0,familiarity,15,BCAd,YZUZ,0,0,True,1484.0
0,604d5e61486bd0622d2102c0,familiarity,16,YObA,lcOc,0,0,True,1359.0
0,604d5e61486bd0622d2102c0,familiarity,17,dmkv,bvkr,1,0,False,1342.0
0,604d5e61486bd0622d2102c0,familiarity,18,LUOk,bmbN,0,1,False,1583.0
0,604d5e61486bd0622d2102c0,familiarity,19,TPCb,khMD,0,1,False,1454.0
0,604d5e61486bd0622d2102c0,familiarity,20,CPMl,Ydud,0,1,False,1423.0
0,604d5e61486bd0622d2102c0,familiarity,21,lvk,QGb,1,0,False,1450.0
0,604d5e61486bd0622d2102c0,familiarity,22,rLkm,UJmr,1,1,True,1332.0
0,604d5e61486bd0622d2102c0,familiarity,23,dJNr,YbBT,1,0,False,1341.0
0,604d5e61486bd0622d2102c0,familiarity,24,UaZma,ZkGmY,1,0,False,1180.0
0,604d5e61486bd0622d2102c0,familiarity,25,GLluA,auYAk,1,1,True,1261.0
0,604d5e61486bd0622d2102c0,familiarity,26,JNka,OJlN,1,0,False,1398.0
0,604d5e61486bd0622d2102c0,familiarity,27,Dmh,uda,1,1,True,1371.0
0,604d5e61486bd0622d2102c0,familiarity,28,NkUA,MDKP,0,0,True,1447.0
0,604d5e61486bd0622d2102c0,familiarity,29,bcbM,badk,0,1,False,1440.0
0,604d5e61486bd0622d2102c0,familiarity,30,Zvalv,OAmAd,1,0,False,1343.0
0,6057a8fe2d302939fc759940,familiarity,1,Nac,mhc,0,1,False,5183.0
0,6057a8fe2d302939fc759940,familiarity,2,uda,KmE,0,0,True,3292.0
0,6057a8fe2d302939fc759940,familiarity,3,ukYZ,BRDh,0,0,True,3187.0
0,6057a8fe2d302939fc759940,familiarity,4,DBPhc,kcdOt,1,0,False,2129.0
0,6057a8fe2d302939fc759940,familiarity,5,TPOM,dNZA,1,0,False,2606.0
0,6057a8fe2d302939fc759940,familiarity,6,lbBDE,NAacQ,1,1,True,1397.0
0,6057a8fe2d302939fc759940,familiarity,7,vUdm,lBKt,0,1,False,2186.0
0,6057a8fe2d302939fc759940,familiarity,8,NLQGm,kabJb,0,1,False,2062.0
0,6057a8fe2d302939fc759940,familiarity,9,uZc,YkZ,1,1,True,1661.0
0,6057a8fe2d302939fc759940,familiarity,10,JdOAY,bYGOZ,0,0,True,1673.0
0,6057a8fe2d302939fc759940,familiarity,11,lCbcm,LOLkU,0,0,True,1726.0
0,6057a8fe2d302939fc759940,familiarity,12,laYmr,MBKRE,0,0,True,1554.0
0,6057a8fe2d302939fc759940,familiarity,13,kPOt,AOUl,1,1,True,1204.0
0,6057a8fe2d302939fc759940,familiarity,14,AZaJc,lRckA,0,1,False,1962.0
0,6057a8fe2d302939fc759940,familiarity,15,KOYC,udkm,1,0,False,2398.0
0,6057a8fe2d302939fc759940,familiarity,16,AdDb,ALGZ,1,1,True,2193.0
0,6057a8fe2d302939fc759940,familiarity,17,mBYl,ctkt,0,0,True,2024.0
0,6057a8fe2d302939fc759940,familiarity,18,lRCB,AbKD,0,1,False,1820.0
0,6057a8fe2d302939fc759940,familiarity,19,LNUrJ,EPMDk,1,1,True,1491.0
0,6057a8fe2d302939fc759940,familiarity,20,Blmcl,lYrua,1,0,False,2094.0
0,6057a8fe2d302939fc759940,familiarity,21,Glu,CEM,1,1,True,2251.0
0,6057a8fe2d302939fc759940,familiarity,22,GJGcZ,hmKPM,1,1,True,1033.0
0,6057a8fe2d302939fc759940,familiarity,23,kPM,GUa,1,1,True,1298.0
0,6057a8fe2d302939fc759940,familiarity,24,YbBT,ZvkL,0,1,False,2354.0
0,6057a8fe2d302939fc759940,familiarity,25,kNua,NJZl,1,0,False,2050.0
0,6057a8fe2d302939fc759940,familiarity,26,hlbtb,YuaNd,0,1,False,1612.0
0,6057a8fe2d302939fc759940,familiarity,27,Akd,UbG,0,0,True,2348.0
0,6057a8fe2d302939fc759940,familiarity,28,RdPtD,Juaml,1,0,False,1650.0
0,6057a8fe2d302939fc759940,familiarity,29,ckduA,kcCRt,1,1,True,2299.0
0,6057a8fe2d302939fc759940,familiarity,30,YZJm,mbZl,0,1,False,1597.0
0,60a8bd22d03adbe92cbb9a5e,familiarity,1,TRK,YDE,0,0,True,2360.0
0,60a8bd22d03adbe92cbb9a5e,familiarity,2,cuOJb,hlctE,1,1,True,3566.0
0,60a8bd22d03adbe92cbb9a5e,familiarity,3,dmkv,TPOM,1,0,False,2010.0
0,60a8bd22d03adbe92cbb9a5e,familiarity,4,kZUb,UaYL,1,0,False,2179.0
0,60a8bd22d03adbe92cbb9a5e,familiarity,5,lLG,vcb,1,0,False,1698.0
0,60a8bd22d03adbe92cbb9a5e,familiarity,6,EMYK,KlkD,1,1,True,1513.0
0,60a8bd22d03adbe92cbb9a5e,familiarity,7,lAOKM,LNUrJ,0,1,False,2011.0
0,60a8bd22d03adbe92cbb9a5e,familiarity,8,OAmAd,KTDTB,0,1,False,1557.0
0,60a8bd22d03adbe92cbb9a5e,familiarity,9,Blmcl,YUNkZ,1,0,False,1524.0
0,60a8bd22d03adbe92cbb9a5e,familiarity,10,YQbc,AlKD,1,0,False,1902.0
0,60a8bd22d03adbe92cbb9a5e,familiarity,11,Grbk,YcdO,0,1,False,1898.0
0,60a8bd22d03adbe92cbb9a5e,familiarity,12,OdlNm,hlbtb,1,0,False,1737.0
0,60a8bd22d03adbe92cbb9a5e,familiarity,13,YcM,mvG,0,1,False,1888.0
0,60a8bd22d03adbe92cbb9a5e,familiarity,14,LuaU,EdBb,0,0,True,1867.0
0,60a8bd22d03adbe92cbb9a5e,familiarity,15,NUZ,YbN,1,1,True,1089.0
0,60a8bd22d03adbe92cbb9a5e,familiarity,16,ctkt,TEBK,1,1,True,897.0
0,60a8bd22d03adbe92cbb9a5e,familiarity,17,bROC,mARM,0,1,False,1329.0
0,60a8bd22d03adbe92cbb9a5e,familiarity,18,YZJm,TdTD,1,1,True,1894.0
0,60a8bd22d03adbe92cbb9a5e,familiarity,19,OdOP,vAar,0,0,True,1191.0
0,60a8bd22d03adbe92cbb9a5e,familiarity,20,kJdr,DCmh,0,0,True,1720.0
0,60a8bd22d03adbe92cbb9a5e,familiarity,21,COTK,uUmb,1,1,True,1244.0
0,60a8bd22d03adbe92cbb9a5e,familiarity,22,tKDmh,adYrc,0,0,True,1044.0
0,60a8bd22d03adbe92cbb9a5e,familiarity,23,aUZA,TdmA,0,1,False,1171.0
0,60a8bd22d03adbe92cbb9a5e,familiarity,24,UmNJ,dTAh,0,1,False,1807.0
0,60a8bd22d03adbe92cbb9a5e,familiarity,25,YKPB,RhPm,1,1,True,1391.0
0,60a8bd22d03adbe92cbb9a5e,familiarity,26,krUQ,QvlZ,1,1,True,1096.0
0,60a8bd22d03adbe92cbb9a5e,familiarity,27,BCAd,OkGY,0,1,False,1398.0
0,60a8bd22d03adbe92cbb9a5e,familiarity,28,RkmdC,EPERd,0,0,True,1814.0
0,60a8bd22d03adbe92cbb9a5e,familiarity,29,MhKd,lBKt,1,1,True,1480.0
0,60a8bd22d03adbe92cbb9a5e,familiarity,30,dvNvA,JmvmO,0,0,True,1975.0
0,60c4a402716a8f9074fcd92e,familiarity,1,lLG,YcM,1,1,True,4061.0
0,60c4a402716a8f9074fcd92e,familiarity,2,JNka,RtRh,1,0,False,1208.0
0,60c4a402716a8f9074fcd92e,familiarity,3,AJLr,McMD,1,0,False,570.0
0,60c4a402716a8f9074fcd92e,familiarity,4,mARM,MCkm,1,1,True,335.0
0,60c4a402716a8f9074fcd92e,familiarity,5,mBbK,tRPD,0,0,True,503.0
0,60c4a402716a8f9074fcd92e,familiarity,6,rckO,crdY,0,1,False,435.0
0,60c4a402716a8f9074fcd92e,familiarity,7,NbacA,NbmQU,1,1,True,689.0
0,60c4a402716a8f9074fcd92e,familiarity,8,ObZbA,mUOcO,0,0,True,827.0
0,60c4a402716a8f9074fcd92e,familiarity,9,ckdAm,BdtAC,0,1,False,795.0
0,60c4a402716a8f9074fcd92e,familiarity,10,PCMPK,mZUrQ,0,1,False,152.0
0,60c4a402716a8f9074fcd92e,familiarity,11,OtM,mCd,1,1,True,219.0
0,60c4a402716a8f9074fcd92e,familiarity,12,uAkr,dYdA,0,0,True,458.0
0,60c4a402716a8f9074fcd92e,familiarity,13,YlCPB,EltMB,0,1,False,349.0
0,60c4a402716a8f9074fcd92e,familiarity,14,UYZlZ,ALOrl,1,1,True,1508.0
0,60c4a402716a8f9074fcd92e,familiarity,15,LcO,ABb,1,0,False,1555.0
0,60c4a402716a8f9074fcd92e,familiarity,16,JUNa,lGZv,0,1,False,1805.0
0,60c4a402716a8f9074fcd92e,familiarity,17,OMC,TRK,1,0,False,363.0
0,60c4a402716a8f9074fcd92e,familiarity,18,YNrAm,Blmcl,1,1,True,1255.0
0,60c4a402716a8f9074fcd92e,familiarity,19,DcPTc,OQarQ,1,1,True,1187.0
0,60c4a402716a8f9074fcd92e,familiarity,20,damYb,OYuvb,0,1,False,490.0
0,60c4a402716a8f9074fcd92e,familiarity,21,kDOm,YZJO,1,0,False,765.0
0,60c4a402716a8f9074fcd92e,familiarity,22,kcCRt,Juaml,0,0,True,270.0
0,60c4a402716a8f9074fcd92e,familiarity,23,RlAKc,UAcdu,1,1,True,348.0
0,60c4a402716a8f9074fcd92e,familiarity,24,QGb,lRE,0,0,True,637.0
0,60c4a402716a8f9074fcd92e,familiarity,25,DKP,aQr,0,0,True,639.0
0,60c4a402716a8f9074fcd92e,familiarity,26,YmBd,dmkv,1,1,True,502.0
0,60c4a402716a8f9074fcd92e,familiarity,27,OAmGr,Cchtd,0,1,False,422.0
0,60c4a402716a8f9074fcd92e,familiarity,28,Ckbd,bcOR,0,0,True,875.0
0,60c4a402716a8f9074fcd92e,familiarity,29,Mlth,NYZu,1,1,True,2144.0
0,60c4a402716a8f9074fcd92e,familiarity,30,JZr,JUG,0,1,False,2343.0
0,60c715c89bb47f3847a690f0,familiarity,1,AlUY,YbBT,1,1,True,4538.0
0,60c715c89bb47f3847a690f0,familiarity,2,dYAJ,ALGZ,1,1,True,5455.0
0,60c715c89bb47f3847a690f0,familiarity,3,bvkr,kDOm,0,0,True,1417.0
0,60c715c89bb47f3847a690f0,familiarity,4,Tmc,Glu,1,0,False,1228.0
0,60c715c89bb47f3847a690f0,familiarity,5,EYtYR,OdlNm,0,1,False,1012.0
0,60c715c89bb47f3847a690f0,familiarity,6,mUOcO,dMYBP,0,0,True,740.0
0,60c715c89bb47f3847a690f0,familiarity,7,Avdk,rckO,0,1,False,641.0
0,60c715c89bb47f3847a690f0,familiarity,8,KOYC,bROC,0,0,True,475.0
0,60c715c89bb47f3847a690f0,familiarity,9,DCmh,uauO,0,0,True,618.0
0,60c715c89bb47f3847a690f0,familiarity,10,ZcGdN,kPkRA,0,1,False,519.0
0,60c715c89bb47f3847a690f0,familiarity,11,BEPO,aUZA,1,1,True,603.0
0,60c715c89bb47f3847a690f0,familiarity,12,ldAa,rULv,1,0,False,407.0
0,60c715c89bb47f3847a690f0,familiarity,13,Grub,YaOk,1,0,False,617.0
0,60c715c89bb47f3847a690f0,familiarity,14,RCcE,rNlZ,0,1,False,499.0
0,60c715c89bb47f3847a690f0,familiarity,15,YmBd,Yaum,1,1,True,484.0
0,60c715c89bb47f3847a690f0,familiarity,16,RdPtD,ABPRB,0,0,True,378.0
0,60c715c89bb47f3847a690f0,familiarity,17,vYLU,YKPB,1,0,False,488.0
0,60c715c89bb47f3847a690f0,familiarity,18,LNUrJ,LOLkU,0,0,True,491.0
0,60c715c89bb47f3847a690f0,familiarity,19,bGuO,PdDT,0,1,False,434.0
0,60c715c89bb47f3847a690f0,familiarity,20,CKOb,NQZv,1,1,True,486.0
0,60c715c89bb47f3847a690f0,familiarity,21,dOYml,RlAKc,1,0,False,343.0
0,60c715c89bb47f3847a690f0,familiarity,22,vUdm,RdCc,0,0,True,426.0
0,60c715c89bb47f3847a690f0,familiarity,23,rdLJa,rcmuv,1,0,False,394.0
0,60c715c89bb47f3847a690f0,familiarity,24,lCbcm,BOCRM,1,1,True,461.0
0,60c715c89bb47f3847a690f0,familiarity,25,cbm,lvk,0,1,False,516.0
0,60c715c89bb47f3847a690f0,familiarity,26,GJGcZ,tmtEM,0,0,True,513.0
0,60c715c89bb47f3847a690f0,familiarity,27,Tbk,rab,1,0,False,354.0
0,60c715c89bb47f3847a690f0,familiarity,28,khMD,tmYh,0,0,True,408.0
0,60c715c89bb47f3847a690f0,familiarity,29,hbmA,dkLl,0,0,True,612.0
0,60c715c89bb47f3847a690f0,familiarity,30,TdTD,DOAK,1,0,False,422.0
0,60c873a65a9883b52f70db6c,familiarity,1,vblr,mcOJ,0,1,False,1559.0
0,60c873a65a9883b52f70db6c,familiarity,2,OtlR,lBKt,0,0,True,1113.0
0,60c873a65a9883b52f70db6c,familiarity,3,DhMt,tRPD,1,1,True,1045.0
0,60c873a65a9883b52f70db6c,familiarity,4,PMPtk,ZYcQU,1,1,True,1211.0
0,60c873a65a9883b52f70db6c,familiarity,5,cDR,ATc,1,0,False,1460.0
0,60c873a65a9883b52f70db6c,familiarity,6,TPOM,RCcE,0,1,False,1300.0
0,60c873a65a9883b52f70db6c,familiarity,7,TRK,cUN,1,1,True,1338.0
0,60c873a65a9883b52f70db6c,familiarity,8,GLYrA,YJLcA,1,1,True,1222.0
0,60c873a65a9883b52f70db6c,familiarity,9,NvuGr,rGUAY,0,0,True,1335.0
0,60c873a65a9883b52f70db6c,familiarity,10,lAOKM,lbBDE,0,0,True,1140.0
0,60c873a65a9883b52f70db6c,familiarity,11,CDEmY,YNrAm,1,1,True,1298.0
0,60c873a65a9883b52f70db6c,familiarity,12,BRDh,PdDT,0,0,True,1010.0
0,60c873a65a9883b52f70db6c,familiarity,13,TDKh,mARM,0,0,True,1684.0
0,60c873a65a9883b52f70db6c,familiarity,14,LkNc,JmNk,0,0,True,1383.0
0,60c873a65a9883b52f70db6c,familiarity,15,cbm,tAY,0,0,True,1064.0
0,60c873a65a9883b52f70db6c,familiarity,16,TCbDC,hlbtb,1,1,True,1460.0
0,60c873a65a9883b52f70db6c,familiarity,17,Zvalv,vuJZu,1,1,True,1506.0
0,60c873a65a9883b52f70db6c,familiarity,18,uQkrd,htmhC,1,0,False,1050.0
0,60c873a65a9883b52f70db6c,familiarity,19,badk,YmBd,0,0,True,1132.0
0,60c873a65a9883b52f70db6c,familiarity,20,bvuZ,JcUk,1,0,False,1242.0
0,60c873a65a9883b52f70db6c,familiarity,21,LckGN,NbmQU,1,0,False,1216.0
0,60c873a65a9883b52f70db6c,familiarity,22,LcO,bRC,1,0,False,919.0
0,60c873a65a9883b52f70db6c,familiarity,23,rLkm,Zckv,1,0,False,1475.0
0,60c873a65a9883b52f70db6c,familiarity,24,EcR,KmE,1,1,True,1003.0
0,60c873a65a9883b52f70db6c,familiarity,25,dMThk,Qclad,0,1,False,1072.0
0,60c873a65a9883b52f70db6c,familiarity,26,Ldrbv,TObCO,0,0,True,1171.0
0,60c873a65a9883b52f70db6c,familiarity,27,bLd,OPE,1,0,False,1339.0
0,60c873a65a9883b52f70db6c,familiarity,28,BMEMA,aOLZU,1,1,True,981.0
0,60c873a65a9883b52f70db6c,familiarity,29,BEPO,lrZG,0,0,True,1149.0
0,60c873a65a9883b52f70db6c,familiarity,30,JdGm,ravu,0,0,True,1574.0
0,60db9c9850c39eea109ef1d3,familiarity,1,NaJb,hlkT,0,0,True,2144.0
0,60db9c9850c39eea109ef1d3,familiarity,2,kGlU,KlkD,1,0,False,3552.0
0,60db9c9850c39eea109ef1d3,familiarity,3,tmtEM,NbacA,0,0,True,1435.0
0,60db9c9850c39eea109ef1d3,familiarity,4,YDE,rab,0,0,True,2458.0
0,60db9c9850c39eea109ef1d3,familiarity,5,mUOcO,BATOc,1,0,False,3488.0
0,60db9c9850c39eea109ef1d3,familiarity,6,hAROK,laYmr,0,0,True,1860.0
0,60db9c9850c39eea109ef1d3,familiarity,7,mtKP,TEBK,0,1,False,2704.0
0,60db9c9850c39eea109ef1d3,familiarity,8,Zvalv,htmhC,1,1,True,3858.0
0,60db9c9850c39eea109ef1d3,familiarity,9,Yaum,rkJu,1,1,True,3064.0
0,60db9c9850c39eea109ef1d3,familiarity,10,rvUb,hEct,0,1,False,2434.0
0,60db9c9850c39eea109ef1d3,familiarity,11,Grbk,kcOY,1,0,False,1565.0
0,60db9c9850c39eea109ef1d3,familiarity,12,LkNc,KABA,0,1,False,3493.0
0,60db9c9850c39eea109ef1d3,familiarity,13,YcM,OYK,0,1,False,1933.0
0,60db9c9850c39eea109ef1d3,familiarity,14,hkRK,YQbc,1,1,True,1220.0
0,60db9c9850c39eea109ef1d3,familiarity,15,Blmcl,ZNLOv,1,1,True,2445.0
0,60db9c9850c39eea109ef1d3,familiarity,16,ZJLmr,DOchl,0,0,True,1058.0
0,60db9c9850c39eea109ef1d3,familiarity,17,JrGv,GJZm,1,1,True,2219.0
0,60db9c9850c39eea109ef1d3,familiarity,18,hTtBb,ECtbD,1,1,True,1170.0
0,60db9c9850c39eea109ef1d3,familiarity,19,YTOM,badk,0,1,False,3622.0
0,60db9c9850c39eea109ef1d3,familiarity,20,hYDmt,rdLJa,0,0,True,1312.0
0,60db9c9850c39eea109ef1d3,familiarity,21,McMD,krGu,1,1,True,1541.0
0,60db9c9850c39eea109ef1d3,familiarity,22,cROMt,DRPkY,0,0,True,4054.0
0,60db9c9850c39eea109ef1d3,familiarity,23,MBmE,rLkm,0,0,True,1001.0
0,60db9c9850c39eea109ef1d3,familiarity,24,PlEK,BEPO,0,0,True,1114.0
0,60db9c9850c39eea109ef1d3,familiarity,25,AlQaQ,dCtMA,1,1,True,1661.0
0,60db9c9850c39eea109ef1d3,familiarity,26,cDR,UbG,0,1,False,3117.0
0,60db9c9850c39eea109ef1d3,familiarity,27,dJNr,lTmO,0,1,False,1219.0
0,60db9c9850c39eea109ef1d3,familiarity,28,YZJO,mBbK,1,0,False,925.0
0,60db9c9850c39eea109ef1d3,familiarity,29,mLJ,kBD,1,1,True,1035.0
0,60db9c9850c39eea109ef1d3,familiarity,30,lZcu,mdkK,1,0,False,2224.0
0,60e586145b73b702a608bace,familiarity,1,muYN,khmh,0,1,False,3597.0
0,60e586145b73b702a608bace,familiarity,2,Akd,lRE,0,0,True,2073.0
0,60e586145b73b702a608bace,familiarity,3,Cdt,kam,1,0,False,2725.0
0,60e586145b73b702a608bace,familiarity,4,kuvb,EPBT,1,1,True,2075.0
0,60e586145b73b702a608bace,familiarity,5,chEDO,hmKPM,1,1,True,2459.0
0,60e586145b73b702a608bace,familiarity,6,rbYbu,rcmuv,1,1,True,2572.0
0,60e586145b73b702a608bace,familiarity,7,kRCkO,PctRC,1,1,True,2004.0
0,60e586145b73b702a608bace,familiarity,8,DkTCP,CkBOP,1,1,True,1515.0
0,60e586145b73b702a608bace,familiarity,9,hEct,ctkt,0,0,True,1076.0
0,60e586145b73b702a608bace,familiarity,10,AOUl,KlkD,1,1,True,1988.0
0,60e586145b73b702a608bace,familiarity,11,OmtlD,AlQaQ,0,0,True,1586.0
0,60e586145b73b702a608bace,familiarity,12,uauO,Grbk,0,0,True,1163.0
0,60e586145b73b702a608bace,familiarity,13,vAvb,rkYL,1,1,True,1475.0
0,60e586145b73b702a608bace,familiarity,14,dRht,dmRb,0,0,True,1427.0
0,60e586145b73b702a608bace,familiarity,15,Qclad,TObCO,0,0,True,2238.0
0,60e586145b73b702a608bace,familiarity,16,cDOEB,bdUNu,0,0,True,1596.0
0,60e586145b73b702a608bace,familiarity,17,LOLkU,bRABt,0,0,True,2276.0
0,60e586145b73b702a608bace,familiarity,18,OAblc,hAROK,1,0,False,1779.0
0,60e586145b73b702a608bace,familiarity,19,vYLU,NaJb,1,1,True,2554.0
0,60e586145b73b702a608bace,familiarity,20,KBKBE,laYmr,0,0,True,1092.0
0,60e586145b73b702a608bace,familiarity,21,kcCRt,dTmED,0,0,True,1235.0
0,60e586145b73b702a608bace,familiarity,22,ABb,lGc,0,0,True,2204.0
0,60e586145b73b702a608bace,familiarity,23,kdrO,TEBK,0,0,True,1412.0
0,60e586145b73b702a608bace,familiarity,24,dkLl,ZdlO,1,1,True,2443.0
0,60e586145b73b702a608bace,familiarity,25,rNlZ,GQYQ,0,0,True,1731.0
0,60e586145b73b702a608bace,familiarity,26,LckGN,ZJLmr,0,0,True,1963.0
0,60e586145b73b702a608bace,familiarity,27,kGamN,rGUAY,1,0,False,1475.0
0,60e586145b73b702a608bace,familiarity,28,CDEmY,AZlLN,0,1,False,1468.0
0,60e586145b73b702a608bace,familiarity,29,dRA,NUZ,1,1,True,2091.0
0,60e586145b73b702a608bace,familiarity,30,YlYc,JdGm,1,1,True,1075.0
0,60f9739250a5c6f6e4726336,familiarity,1,EAO,lLG,1,1,True,2085.0
0,60f9739250a5c6f6e4726336,familiarity,2,hTtBb,lbBDE,0,0,True,1280.0
0,60f9739250a5c6f6e4726336,familiarity,3,YJLcA,DkTCP,1,1,True,1433.0
0,60f9739250a5c6f6e4726336,familiarity,4,mZUrQ,dTmED,1,1,True,1792.0
0,60f9739250a5c6f6e4726336,familiarity,5,OEPk,TDKh,1,1,True,1033.0
0,60f9739250a5c6f6e4726336,familiarity,6,ktBd,bYuQ,1,0,False,1373.0
0,60f9739250a5c6f6e4726336,familiarity,7,AlKD,udkm,1,0,False,1302.0
0,60f9739250a5c6f6e4726336,familiarity,8,GZJY,chAh,0,1,False,1625.0
0,60f9739250a5c6f6e4726336,familiarity,9,Dmh,YcM,1,0,False,1868.0
0,60f9739250a5c6f6e4726336,familiarity,10,aYaN,TdmA,1,1,True,1162.0
0,60f9739250a5c6f6e4726336,familiarity,11,PctRC,aLNlk,1,1,True,1114.0
0,60f9739250a5c6f6e4726336,familiarity,12,YOZN,KOYC,1,1,True,1794.0
0,60f9739250a5c6f6e4726336,familiarity,13,PED,Jud,1,0,False,1421.0
0,60f9739250a5c6f6e4726336,familiarity,14,uvaU,hRKm,1,0,False,1485.0
0,60f9739250a5c6f6e4726336,familiarity,15,PcBT,KABA,1,1,True,1259.0
0,60f9739250a5c6f6e4726336,familiarity,16,YQbc,ACcO,0,0,True,1539.0
0,60f9739250a5c6f6e4726336,familiarity,17,KMOc,AOUl,1,1,True,1728.0
0,60f9739250a5c6f6e4726336,familiarity,18,kGlU,Yaum,1,0,False,1438.0
0,60f9739250a5c6f6e4726336,familiarity,19,kJdr,mARM,0,1,False,1397.0
0,60f9739250a5c6f6e4726336,familiarity,20,aUZA,Ctmb,1,1,True,1070.0
0,60f9739250a5c6f6e4726336,familiarity,21,PdDT,YUYa,1,1,True,1133.0
0,60f9739250a5c6f6e4726336,familiarity,22,rZYd,mBbK,0,0,True,1045.0
0,60f9739250a5c6f6e4726336,familiarity,23,JUNa,dmRb,0,0,True,997.0
0,60f9739250a5c6f6e4726336,familiarity,24,PMPtk,NAacQ,1,1,True,1008.0
0,60f9739250a5c6f6e4726336,familiarity,25,EMYK,DlDT,1,1,True,1087.0
0,60f9739250a5c6f6e4726336,familiarity,26,kabJb,tKDmh,1,1,True,986.0
0,60f9739250a5c6f6e4726336,familiarity,27,mkc,OcN,0,0,True,1660.0
0,60f9739250a5c6f6e4726336,familiarity,28,RdCc,adkr,1,0,False,1266.0
0,60f9739250a5c6f6e4726336,familiarity,29,cdKBY,ZYcQU,1,1,True,1170.0
0,60f9739250a5c6f6e4726336,familiarity,30,uOAO,OdYP,1,0,False,1054.0
0,6102ee48644f517877d64d2b,familiarity,1,ATc,bTE,0,1,False,3069.0
0,6102ee48644f517877d64d2b,familiarity,2,AdDb,TdmA,0,1,False,1757.0
0,6102ee48644f517877d64d2b,familiarity,3,EtMDM,YUNkZ,0,0,True,2354.0
0,6102ee48644f517877d64d2b,familiarity,4,NAacQ,aOLZU,1,0,False,1688.0
0,6102ee48644f517877d64d2b,familiarity,5,Akd,PMd,0,1,False,1526.0
0,6102ee48644f517877d64d2b,familiarity,6,GJGcZ,dGLAl,0,0,True,1583.0
0,6102ee48644f517877d64d2b,familiarity,7,krGu,TPCb,0,0,True,1770.0
0,6102ee48644f517877d64d2b,familiarity,8,chEDO,OQarQ,1,1,True,1922.0
0,6102ee48644f517877d64d2b,familiarity,9,rZYd,YbBT,1,0,False,1538.0
0,6102ee48644f517877d64d2b,familiarity,10,ckduA,LOLkU,0,1,False,1450.0
0,6102ee48644f517877d64d2b,familiarity,11,LaA,Cdt,0,0,True,1463.0
0,6102ee48644f517877d64d2b,familiarity,12,tDPRk,hmKPM,0,1,False,1251.0
0,6102ee48644f517877d64d2b,familiarity,13,PEtE,DbMR,0,0,True,1212.0
0,6102ee48644f517877d64d2b,familiarity,14,aUZA,dYdA,1,0,False,1104.0
0,6102ee48644f517877d64d2b,familiarity,15,ORbk,OdOP,0,1,False,941.0
0,6102ee48644f517877d64d2b,familiarity,16,GUOA,UJmr,0,1,False,823.0
0,6102ee48644f517877d64d2b,familiarity,17,PMYm,blMk,0,0,True,661.0
0,6102ee48644f517877d64d2b,familiarity,18,uQkrd,PCPDh,0,0,True,750.0
0,6102ee48644f517877d64d2b,familiarity,19,JNka,PlEK,1,0,False,837.0
0,6102ee48644f517877d64d2b,familiarity,20,mCd,rGl,0,0,True,991.0
0,6102ee48644f517877d64d2b,familiarity,21,Cchtd,dClOC,0,1,False,634.0
0,6102ee48644f517877d64d2b,familiarity,22,CDEmY,hTtBb,1,1,True,1015.0
0,6102ee48644f517877d64d2b,familiarity,23,ALGZ,mdla,1,0,False,546.0
0,6102ee48644f517877d64d2b,familiarity,24,bvuZ,ZAUu,1,0,False,907.0
0,6102ee48644f517877d64d2b,familiarity,25,NUZ,uUY,1,1,True,885.0
0,6102ee48644f517877d64d2b,familiarity,26,RCdc,ldAa,1,0,False,683.0
0,6102ee48644f517877d64d2b,familiarity,27,YZUZ,LYGA,1,0,False,831.0
0,6102ee48644f517877d64d2b,familiarity,28,AlTd,YcdO,0,1,False,656.0
0,6102ee48644f517877d64d2b,familiarity,29,hlctE,NbmQU,0,1,False,987.0
0,6102ee48644f517877d64d2b,familiarity,30,QLrOJ,vuJZu,0,0,True,689.0
0,6103cbc5310ffddfafa01661,familiarity,1,OdYP,BPAl,1,1,True,2335.0
0,6103cbc5310ffddfafa01661,familiarity,2,dmZvm,aLNlk,0,0,True,2133.0
0,6103cbc5310ffddfafa01661,familiarity,3,JauQ,ukYZ,0,0,True,2442.0
0,6103cbc5310ffddfafa01661,familiarity,4,GQrc,aONd,0,0,True,2276.0
0,6103cbc5310ffddfafa01661,familiarity,5,mKcD,OZkb,1,1,True,1537.0
0,6103cbc5310ffddfafa01661,familiarity,6,dEPD,bAdk,0,0,True,1883.0
0,6103cbc5310ffddfafa01661,familiarity,7,kmU,Nac,1,1,True,1325.0
0,6103cbc5310ffddfafa01661,familiarity,8,damYb,EMbDP,0,0,True,2553.0
0,6103cbc5310ffddfafa01661,familiarity,9,PCMPK,ZdNmU,1,1,True,1464.0
0,6103cbc5310ffddfafa01661,familiarity,10,UdvY,YArG,1,0,False,1554.0
0,6103cbc5310ffddfafa01661,familiarity,11,hkRK,mdkK,0,1,False,1385.0
0,6103cbc5310ffddfafa01661,familiarity,12,rLkm,mhtc,0,1,False,1597.0
0,6103cbc5310ffddfafa01661,familiarity,13,hYDmt,DOchl,1,1,True,2665.0
0,6103cbc5310ffddfafa01661,familiarity,14,krUQ,JvaA,0,1,False,1116.0
0,6103cbc5310ffddfafa01661,familiarity,15,Ckbd,vYLU,1,1,True,2741.0
0,6103cbc5310ffddfafa01661,familiarity,16,mtKP,hEct,0,0,True,1144.0
0,6103cbc5310ffddfafa01661,familiarity,17,JdGm,Ctmb,0,0,True,1532.0
0,6103cbc5310ffddfafa01661,familiarity,18,MDKP,DBkl,0,0,True,1534.0
0,6103cbc5310ffddfafa01661,familiarity,19,GJZm,cthB,1,1,True,1610.0
0,6103cbc5310ffddfafa01661,familiarity,20,Ddck,YKPB,1,1,True,2849.0
0,6103cbc5310ffddfafa01661,familiarity,21,TdmA,mdla,1,0,False,2499.0
0,6103cbc5310ffddfafa01661,familiarity,22,rvAJ,AlUY,0,0,True,1482.0
0,6103cbc5310ffddfafa01661,familiarity,23,uUmb,NmAG,1,1,True,1221.0
0,6103cbc5310ffddfafa01661,familiarity,24,LaA,Arv,1,1,True,1941.0
0,6103cbc5310ffddfafa01661,familiarity,25,TbKME,adYrc,0,1,False,2078.0
0,6103cbc5310ffddfafa01661,familiarity,26,LYGA,KEdl,0,0,True,1724.0
0,6103cbc5310ffddfafa01661,familiarity,27,hCkt,dJNr,0,1,False,1364.0
0,6103cbc5310ffddfafa01661,familiarity,28,ORbk,kDOm,0,1,False,1282.0
0,6103cbc5310ffddfafa01661,familiarity,29,dCKc,QONk,0,0,True,1238.0
0,6103cbc5310ffddfafa01661,familiarity,30,ldAa,vblr,0,0,True,1287.0
0,610d45e26c9b141264755d3c,familiarity,1,ArQu,McMD,1,1,True,2319.0
0,610d45e26c9b141264755d3c,familiarity,2,GJGcZ,vAuNl,1,0,False,747.0
0,610d45e26c9b141264755d3c,familiarity,3,kabJb,kRCkO,0,0,True,922.0
0,610d45e26c9b141264755d3c,familiarity,4,OQAr,tmYh,1,1,True,971.0
0,610d45e26c9b141264755d3c,familiarity,5,rdLJa,RkmdC,1,0,False,965.0
0,610d45e26c9b141264755d3c,familiarity,6,JQA,CEM,0,0,True,822.0
0,610d45e26c9b141264755d3c,familiarity,7,ckLAL,hAROK,1,0,False,870.0
0,610d45e26c9b141264755d3c,familiarity,8,OBT,cUN,0,1,False,669.0
0,610d45e26c9b141264755d3c,familiarity,9,MBKRE,QcQAJ,1,1,True,983.0
0,610d45e26c9b141264755d3c,familiarity,10,kmU,mLJ,0,0,True,639.0
0,610d45e26c9b141264755d3c,familiarity,11,lMck,AbKD,0,1,False,413.0
0,610d45e26c9b141264755d3c,familiarity,12,Ald,tRb,1,0,False,472.0
0,610d45e26c9b141264755d3c,familiarity,13,JZr,Arv,1,1,True,541.0
0,610d45e26c9b141264755d3c,familiarity,14,Amacl,damYb,0,0,True,591.0
0,610d45e26c9b141264755d3c,familiarity,15,Tmc,OtM,0,1,False,879.0
0,610d45e26c9b141264755d3c,familiarity,16,dMThk,PCPDh,0,0,True,664.0
0,610d45e26c9b141264755d3c,familiarity,17,DRPkY,YlCPB,1,1,True,605.0
0,610d45e26c9b141264755d3c,familiarity,18,MBmE,MDKP,0,0,True,433.0
0,610d45e26c9b141264755d3c,familiarity,19,RdCc,APEM,1,1,True,731.0
0,610d45e26c9b141264755d3c,familiarity,20,OcYM,TPOM,1,0,False,462.0
0,610d45e26c9b141264755d3c,familiarity,21,lmbY,AdYl,0,1,False,536.0
0,610d45e26c9b141264755d3c,familiarity,22,bRABt,dMYBP,0,0,True,377.0
0,610d45e26c9b141264755d3c,familiarity,23,MkmEd,kdaAJ,0,1,False,382.0
0,610d45e26c9b141264755d3c,familiarity,24,hRKm,JrGv,1,0,False,387.0
0,610d45e26c9b141264755d3c,familiarity,25,ORbk,CKOb,1,1,True,387.0
0,610d45e26c9b141264755d3c,familiarity,26,amJm,kNua,1,0,False,308.0
0,610d45e26c9b141264755d3c,familiarity,27,bmbN,PYkC,0,1,False,357.0
0,610d45e26c9b141264755d3c,familiarity,28,hCkt,CPMl,0,0,True,365.0
0,610d45e26c9b141264755d3c,familiarity,29,bAdk,mARM,1,1,True,327.0
0,610d45e26c9b141264755d3c,familiarity,30,Abka,RCcE,0,0,True,338.0
0,61118c6d3c980e8b5b50e2fa,familiarity,1,Amacl,ckLAL,0,1,False,5908.0
0,61118c6d3c980e8b5b50e2fa,familiarity,2,kdrO,DCmh,1,0,False,2872.0
0,61118c6d3c980e8b5b50e2fa,familiarity,3,ldAa,GUOA,0,1,False,2396.0
0,61118c6d3c980e8b5b50e2fa,familiarity,4,vJab,NvYJ,1,1,True,2541.0
0,61118c6d3c980e8b5b50e2fa,familiarity,5,PlEK,bcOR,1,1,True,1787.0
0,61118c6d3c980e8b5b50e2fa,familiarity,6,YTOM,udkm,0,0,True,1110.0
0,61118c6d3c980e8b5b50e2fa,familiarity,7,kGlU,JauQ,0,0,True,1407.0
0,61118c6d3c980e8b5b50e2fa,familiarity,8,rvOvU,vmuLl,0,0,True,1578.0
0,61118c6d3c980e8b5b50e2fa,familiarity,9,cUN,mhc,1,1,True,1047.0
0,61118c6d3c980e8b5b50e2fa,familiarity,10,uvaU,YKRk,1,0,False,3406.0
0,61118c6d3c980e8b5b50e2fa,familiarity,11,GJGcZ,Cchtd,0,0,True,1429.0
0,61118c6d3c980e8b5b50e2fa,familiarity,12,PYkC,BECk,1,0,False,3213.0
0,61118c6d3c980e8b5b50e2fa,familiarity,13,Akd,mZb,1,1,True,1968.0
0,61118c6d3c980e8b5b50e2fa,familiarity,14,tdDd,Abka,1,1,True,1465.0
0,61118c6d3c980e8b5b50e2fa,familiarity,15,krGu,hbkd,0,0,True,992.0
0,61118c6d3c980e8b5b50e2fa,familiarity,16,lbBDE,OLJbl,1,0,False,1683.0
0,61118c6d3c980e8b5b50e2fa,familiarity,17,mtKP,YZJO,1,0,False,1446.0
0,61118c6d3c980e8b5b50e2fa,familiarity,18,AZlLN,JmvmO,1,1,True,1276.0
0,61118c6d3c980e8b5b50e2fa,familiarity,19,YDE,lLG,1,1,True,2291.0
0,61118c6d3c980e8b5b50e2fa,familiarity,20,YkZ,Tmc,1,1,True,1382.0
0,61118c6d3c980e8b5b50e2fa,familiarity,21,RdPtD,QLrOJ,0,0,True,2171.0
0,61118c6d3c980e8b5b50e2fa,familiarity,22,EMYK,Avdk,1,1,True,1945.0
0,61118c6d3c980e8b5b50e2fa,familiarity,23,hAROK,rdLJa,1,0,False,1115.0
0,61118c6d3c980e8b5b50e2fa,familiarity,24,RKYk,mhtc,1,1,True,1572.0
0,61118c6d3c980e8b5b50e2fa,familiarity,25,Tbk,mLJ,0,1,False,1657.0
0,61118c6d3c980e8b5b50e2fa,familiarity,26,rZYd,ukYZ,0,0,True,1899.0
0,61118c6d3c980e8b5b50e2fa,familiarity,27,AZbl,DbMR,1,0,False,1528.0
0,61118c6d3c980e8b5b50e2fa,familiarity,28,COtBD,kMbTR,0,0,True,1526.0
0,61118c6d3c980e8b5b50e2fa,familiarity,29,dGLAl,dmZvm,0,0,True,1193.0
0,61118c6d3c980e8b5b50e2fa,familiarity,30,cDOEB,CRdBd,0,0,True,1257.0
0,6117bb7900c0ba81f079a4ee,familiarity,1,OMC,BCD,1,0,False,1129.0
0,6117bb7900c0ba81f079a4ee,familiarity,2,YaOk,YKRk,0,0,True,1452.0
0,6117bb7900c0ba81f079a4ee,familiarity,3,COtBD,Amacl,1,0,False,2487.0
0,6117bb7900c0ba81f079a4ee,familiarity,4,lhCTC,vmuLl,1,1,True,977.0
0,6117bb7900c0ba81f079a4ee,familiarity,5,tKDmh,mLdkZ,1,0,False,1468.0
0,6117bb7900c0ba81f079a4ee,familiarity,6,NQZv,rAJu,0,1,False,1187.0
0,6117bb7900c0ba81f079a4ee,familiarity,7,damYb,GumLl,0,0,True,1403.0
0,6117bb7900c0ba81f079a4ee,familiarity,8,vQdO,UJkG,1,1,True,1447.0
0,6117bb7900c0ba81f079a4ee,familiarity,9,aONd,bROC,1,1,True,851.0
0,6117bb7900c0ba81f079a4ee,familiarity,10,TAm,dPc,0,0,True,1338.0
0,6117bb7900c0ba81f079a4ee,familiarity,11,kdaAJ,QbkAc,0,1,False,1295.0
0,6117bb7900c0ba81f079a4ee,familiarity,12,mkc,NUZ,0,1,False,1213.0
0,6117bb7900c0ba81f079a4ee,familiarity,13,mBbK,OcZJ,1,1,True,1202.0
0,6117bb7900c0ba81f079a4ee,familiarity,14,mAM,OBT,0,0,True,1403.0
0,6117bb7900c0ba81f079a4ee,familiarity,15,lcOc,hbmA,0,1,False,1127.0
0,6117bb7900c0ba81f079a4ee,familiarity,16,OCmk,TmTm,0,0,True,1229.0
0,6117bb7900c0ba81f079a4ee,familiarity,17,kNua,QvlZ,1,1,True,1373.0
0,6117bb7900c0ba81f079a4ee,familiarity,18,LYGA,ravu,1,0,False,1005.0
0,6117bb7900c0ba81f079a4ee,familiarity,19,Ddck,PcBT,0,1,False,1266.0
0,6117bb7900c0ba81f079a4ee,familiarity,20,Abka,OEPk,0,1,False,1333.0
0,6117bb7900c0ba81f079a4ee,familiarity,21,CYPc,dJNr,0,0,True,1209.0
0,6117bb7900c0ba81f079a4ee,familiarity,22,Nulk,mdkK,1,0,False,1161.0
0,6117bb7900c0ba81f079a4ee,familiarity,23,bRC,Tmc,1,0,False,1228.0
0,6117bb7900c0ba81f079a4ee,familiarity,24,RlAKc,rbYbu,1,0,False,1248.0
0,6117bb7900c0ba81f079a4ee,familiarity,25,Juaml,AYkEh,0,1,False,1400.0
0,6117bb7900c0ba81f079a4ee,familiarity,26,YZUZ,crdY,0,1,False,1195.0
0,6117bb7900c0ba81f079a4ee,familiarity,27,cBROB,NaAQd,1,0,False,967.0
0,6117bb7900c0ba81f079a4ee,familiarity,28,Zckv,EKBO,0,1,False,1089.0
0,6117bb7900c0ba81f079a4ee,familiarity,29,PEkhA,ZYcQU,1,1,True,1051.0
0,6117bb7900c0ba81f079a4ee,familiarity,30,PEdK,rNlZ,0,1,False,1296.0
0,611e00dc377e4fb7a27725e8,familiarity,1,cBROB,TbKME,0,0,True,1604.0
0,611e00dc377e4fb7a27725e8,familiarity,2,uUY,rAm,0,0,True,3566.0
0,611e00dc377e4fb7a27725e8,familiarity,3,Zvalv,bYGOZ,0,1,False,1983.0
0,611e00dc377e4fb7a27725e8,familiarity,4,BPAl,cAZu,0,0,True,1505.0
0,611e00dc377e4fb7a27725e8,familiarity,5,bmbN,tRdM,1,1,True,1759.0
0,611e00dc377e4fb7a27725e8,familiarity,6,UbG,mhc,1,0,False,1350.0
0,611e00dc377e4fb7a27725e8,familiarity,7,YDE,OcN,0,1,False,1252.0
0,611e00dc377e4fb7a27725e8,familiarity,8,uvJ,Qru,1,0,False,2051.0
0,611e00dc377e4fb7a27725e8,familiarity,9,mdkK,EhRm,0,0,True,1409.0
0,611e00dc377e4fb7a27725e8,familiarity,10,YNu,dRA,1,0,False,1480.0
0,611e00dc377e4fb7a27725e8,familiarity,11,aONd,lRCB,1,1,True,1138.0
0,611e00dc377e4fb7a27725e8,familiarity,12,QONk,TmTm,0,1,False,1747.0
0,611e00dc377e4fb7a27725e8,familiarity,13,YlYc,PEtE,1,0,False,1197.0
0,611e00dc377e4fb7a27725e8,familiarity,14,ORbk,Gabk,1,1,True,1207.0
0,611e00dc377e4fb7a27725e8,familiarity,15,DmAME,GNAca,0,0,True,1338.0
0,611e00dc377e4fb7a27725e8,familiarity,16,JNka,NkUA,0,0,True,1966.0
0,611e00dc377e4fb7a27725e8,familiarity,17,uauO,ZAUu,1,1,True,1382.0
0,611e00dc377e4fb7a27725e8,familiarity,18,CmYA,bvkr,0,1,False,2493.0
0,611e00dc377e4fb7a27725e8,familiarity,19,hTDd,dYAJ,0,1,False,986.0
0,611e00dc377e4fb7a27725e8,familiarity,20,OZkb,aYQm,1,0,False,1034.0
0,611e00dc377e4fb7a27725e8,familiarity,21,vJab,TklD,0,0,True,2232.0
0,611e00dc377e4fb7a27725e8,familiarity,22,vAuNl,RkmdC,0,1,False,2424.0
0,611e00dc377e4fb7a27725e8,familiarity,23,dYdA,bYuQ,0,0,True,1500.0
0,611e00dc377e4fb7a27725e8,familiarity,24,MCkm,RtRh,1,0,False,1317.0
0,611e00dc377e4fb7a27725e8,familiarity,25,kcdOt,tKDmh,1,1,True,1638.0
0,611e00dc377e4fb7a27725e8,familiarity,26,LGkA,bcbM,0,0,True,1291.0
0,611e00dc377e4fb7a27725e8,familiarity,27,OdOP,MBmE,1,1,True,1074.0
0,611e00dc377e4fb7a27725e8,familiarity,28,bAMO,YcdO,0,1,False,1515.0
0,611e00dc377e4fb7a27725e8,familiarity,29,rvUb,alJY,1,0,False,1719.0
0,611e00dc377e4fb7a27725e8,familiarity,30,lbBDE,kMbTR,1,1,True,3282.0
0,611e125063d1a52330225838,familiarity,1,YlYc,kGlU,0,1,False,10882.0
0,611e125063d1a52330225838,familiarity,2,TAm,JQA,0,0,True,27257.0
0,611e125063d1a52330225838,familiarity,3,KTDTB,YlCPB,0,0,True,2401.0
0,611e125063d1a52330225838,familiarity,4,NmAG,AdYl,1,1,True,2178.0
0,611e125063d1a52330225838,familiarity,5,NbmQU,vkYGl,1,1,True,2275.0
0,611e125063d1a52330225838,familiarity,6,dGLAl,CRdBd,1,1,True,1717.0
0,611e125063d1a52330225838,familiarity,7,AmQOY,GNAca,1,0,False,1152.0
0,611e125063d1a52330225838,familiarity,8,KDPA,dYdA,1,0,False,1060.0
0,611e125063d1a52330225838,familiarity,9,Ydud,mbZl,0,0,True,1217.0
0,611e125063d1a52330225838,familiarity,10,LaA,cPK,1,1,True,1225.0
0,611e125063d1a52330225838,familiarity,11,DOAK,McMD,1,0,False,871.0
0,611e125063d1a52330225838,familiarity,12,YQbc,cMRl,1,1,True,1430.0
0,611e125063d1a52330225838,familiarity,13,Udumd,AZaJc,1,1,True,1307.0
0,611e125063d1a52330225838,familiarity,14,aOLZU,DOchl,1,1,True,1015.0
0,611e125063d1a52330225838,familiarity,15,bTE,dUr,0,0,True,1360.0
0,611e125063d1a52330225838,familiarity,16,PlEK,EKBO,0,0,True,681.0
0,611e125063d1a52330225838,familiarity,17,Ehbt,rkra,1,0,False,1072.0
0,611e125063d1a52330225838,familiarity,18,NYZu,OEPk,0,1,False,3603.0
0,611e125063d1a52330225838,familiarity,19,TPOM,rZYd,0,0,True,1043.0
0,611e125063d1a52330225838,familiarity,20,kYL,UZu,1,0,False,1666.0
0,611e125063d1a52330225838,familiarity,21,aNYmb,TCbDC,0,0,True,1197.0
0,611e125063d1a52330225838,familiarity,22,KElB,OMlT,1,0,False,1294.0
0,611e125063d1a52330225838,familiarity,23,OCmk,ZdlO,1,0,False,1198.0
0,611e125063d1a52330225838,familiarity,24,tdDd,Abka,0,0,True,647.0
0,611e125063d1a52330225838,familiarity,25,NUZ,OYK,1,1,True,654.0
0,611e125063d1a52330225838,familiarity,26,OcYM,OZkb,1,0,False,974.0
0,611e125063d1a52330225838,familiarity,27,kdaAJ,uQuZc,0,1,False,937.0
0,611e125063d1a52330225838,familiarity,28,EtMDM,CkBOP,1,0,False,599.0
0,611e125063d1a52330225838,familiarity,29,mUOcO,GLYrA,0,0,True,571.0
0,611e125063d1a52330225838,familiarity,30,mAM,ATc,1,0,False,771.0
0,611fd297eb06449f7f0a06b9,familiarity,1,PcBT,YcdO,0,0,True,1922.0
0,611fd297eb06449f7f0a06b9,familiarity,2,ldAa,lmbY,0,0,True,1597.0
0,611fd297eb06449f7f0a06b9,familiarity,3,bRC,Tmc,0,0,True,1578.0
0,611fd297eb06449f7f0a06b9,familiarity,4,LckGN,ZdNmU,1,1,True,1805.0
0,611fd297eb06449f7f0a06b9,familiarity,5,NQZv,ORbk,1,1,True,2363.0
0,611fd297eb06449f7f0a06b9,familiarity,6,alJY,rckO,0,0,True,1256.0
0,611fd297eb06449f7f0a06b9,familiarity,7,OLJbl,advYO,0,0,True,1174.0
0,611fd297eb06449f7f0a06b9,familiarity,8,lKdbc,RdPtD,0,1,False,1760.0
0,611fd297eb06449f7f0a06b9,familiarity,9,LGkA,TEBK,0,1,False,1830.0
0,611fd297eb06449f7f0a06b9,familiarity,10,JUG,aQr,0,1,False,2588.0
0,611fd297eb06449f7f0a06b9,familiarity,11,COtBD,NaAQd,1,1,True,1346.0
0,611fd297eb06449f7f0a06b9,familiarity,12,PMd,UZu,0,0,True,2071.0
0,611fd297eb06449f7f0a06b9,familiarity,13,AdYl,TklD,0,0,True,1381.0
0,611fd297eb06449f7f0a06b9,familiarity,14,BOCRM,mUOcO,0,1,False,1203.0
0,611fd297eb06449f7f0a06b9,familiarity,15,Juaml,Ldrbv,1,1,True,1574.0
0,611fd297eb06449f7f0a06b9,familiarity,16,LaA,QGb,0,0,True,1315.0
0,611fd297eb06449f7f0a06b9,familiarity,17,GJGcZ,mkmJN,0,0,True,1382.0
0,611fd297eb06449f7f0a06b9,familiarity,18,kDOm,chAh,1,0,False,1961.0
0,611fd297eb06449f7f0a06b9,familiarity,19,dGLAl,EPMDk,0,0,True,1202.0
0,611fd297eb06449f7f0a06b9,familiarity,20,BEPO,TdTD,1,1,True,1646.0
0,611fd297eb06449f7f0a06b9,familiarity,21,cDOEB,YOaAb,0,0,True,1148.0
0,611fd297eb06449f7f0a06b9,familiarity,22,mZb,YcM,0,1,False,1953.0
0,611fd297eb06449f7f0a06b9,familiarity,23,tRPD,Ydud,0,0,True,797.0
0,611fd297eb06449f7f0a06b9,familiarity,24,mhc,ATc,0,1,False,1700.0
0,611fd297eb06449f7f0a06b9,familiarity,25,RkmdC,mLdkZ,0,1,False,1342.0
0,611fd297eb06449f7f0a06b9,familiarity,26,OQAr,uvaU,0,1,False,1332.0
0,611fd297eb06449f7f0a06b9,familiarity,27,mkc,Dmh,1,0,False,1973.0
0,611fd297eb06449f7f0a06b9,familiarity,28,KTDTB,dTmED,1,1,True,1983.0
0,611fd297eb06449f7f0a06b9,familiarity,29,NbmQU,AYkEh,0,0,True,1421.0
0,611fd297eb06449f7f0a06b9,familiarity,30,kcCRt,ABPRB,1,1,True,1260.0
0,61242dd5be1a06b174975a1f,familiarity,1,Tmc,Tbk,0,0,True,3121.0
0,61242dd5be1a06b174975a1f,familiarity,2,DmAME,ckLAL,1,1,True,3245.0
0,61242dd5be1a06b174975a1f,familiarity,3,APT,mkc,1,1,True,2293.0
0,61242dd5be1a06b174975a1f,familiarity,4,kGamN,ZYcQU,0,0,True,2531.0
0,61242dd5be1a06b174975a1f,familiarity,5,kcCRt,dGLAl,0,1,False,2452.0
0,61242dd5be1a06b174975a1f,familiarity,6,MhKd,YaOk,1,0,False,1810.0
0,61242dd5be1a06b174975a1f,familiarity,7,ArQu,NaJb,0,1,False,2235.0
0,61242dd5be1a06b174975a1f,familiarity,8,AdYl,cAZu,1,0,False,2254.0
0,61242dd5be1a06b174975a1f,familiarity,9,dRht,MBmE,0,0,True,1852.0
0,61242dd5be1a06b174975a1f,familiarity,10,YQbc,ACcO,1,0,False,2090.0
0,61242dd5be1a06b174975a1f,familiarity,11,YZJO,AbKD,0,1,False,4098.0
0,61242dd5be1a06b174975a1f,familiarity,12,UZu,QGb,0,0,True,1845.0
0,61242dd5be1a06b174975a1f,familiarity,13,rcmuv,BOckP,1,0,False,2145.0
0,61242dd5be1a06b174975a1f,familiarity,14,LckGN,kRCkO,1,1,True,1906.0
0,61242dd5be1a06b174975a1f,familiarity,15,COtBD,QLrOJ,0,1,False,2772.0
0,61242dd5be1a06b174975a1f,familiarity,16,bAdk,ZdlO,0,1,False,2723.0
0,61242dd5be1a06b174975a1f,familiarity,17,NAacQ,YLQmG,0,0,True,3059.0
0,61242dd5be1a06b174975a1f,familiarity,18,BKDRY,mUOcO,1,0,False,1408.0
0,61242dd5be1a06b174975a1f,familiarity,19,bdUNu,OYuvb,1,1,True,2975.0
0,61242dd5be1a06b174975a1f,familiarity,20,hTDd,Yaum,0,1,False,2345.0
0,61242dd5be1a06b174975a1f,familiarity,21,UJkG,chAh,0,0,True,1308.0
0,61242dd5be1a06b174975a1f,familiarity,22,RDM,kYL,1,1,True,1957.0
0,61242dd5be1a06b174975a1f,familiarity,23,PYkC,krGu,1,1,True,1709.0
0,61242dd5be1a06b174975a1f,familiarity,24,rGl,uZc,1,0,False,1546.0
0,61242dd5be1a06b174975a1f,familiarity,25,GumLl,UYZlZ,0,0,True,2830.0
0,61242dd5be1a06b174975a1f,familiarity,26,UrOQ,LkNc,1,0,False,1841.0
0,61242dd5be1a06b174975a1f,familiarity,27,EMbDP,cDOEB,1,1,True,1164.0
0,61242dd5be1a06b174975a1f,familiarity,28,OcN,cDR,0,0,True,1471.0
0,61242dd5be1a06b174975a1f,familiarity,29,dYAJ,mARM,1,1,True,2993.0
0,61242dd5be1a06b174975a1f,familiarity,30,TRkY,MTdY,1,0,False,1279.0
0,61248a51eefb6797024ecb85,familiarity,1,COtBD,kKEdM,1,1,True,3500.0
0,61248a51eefb6797024ecb85,familiarity,2,GZJY,OZkb,1,1,True,2373.0
0,61248a51eefb6797024ecb85,familiarity,3,ECtbD,kdaAJ,0,0,True,1840.0
0,61248a51eefb6797024ecb85,familiarity,4,chAh,Nulk,1,1,True,1974.0
0,61248a51eefb6797024ecb85,familiarity,5,QLrOJ,RdPtD,1,1,True,2027.0
0,61248a51eefb6797024ecb85,familiarity,6,bGuO,dEPD,0,1,False,2081.0
0,61248a51eefb6797024ecb85,familiarity,7,bYuQ,kPOt,0,1,False,2462.0
0,61248a51eefb6797024ecb85,familiarity,8,OcYM,TDKh,1,0,False,2039.0
0,61248a51eefb6797024ecb85,familiarity,9,BbOD,Udbd,0,0,True,1986.0
0,61248a51eefb6797024ecb85,familiarity,10,ZkGmY,kLvdN,0,0,True,1983.0
0,61248a51eefb6797024ecb85,familiarity,11,adYrc,mLdkZ,1,0,False,2706.0
0,61248a51eefb6797024ecb85,familiarity,12,ABPRB,RlAKc,0,1,False,2826.0
0,61248a51eefb6797024ecb85,familiarity,13,badk,OdOP,0,0,True,2955.0
0,61248a51eefb6797024ecb85,familiarity,14,rcmuv,ZcGdN,1,0,False,2660.0
0,61248a51eefb6797024ecb85,familiarity,15,BOckP,EPMDk,1,0,False,1307.0
0,61248a51eefb6797024ecb85,familiarity,16,lAOKM,BMEMA,0,1,False,2218.0
0,61248a51eefb6797024ecb85,familiarity,17,ATc,tRb,1,1,True,2388.0
0,61248a51eefb6797024ecb85,familiarity,18,kMEC,hbkd,0,0,True,2213.0
0,61248a51eefb6797024ecb85,familiarity,19,mKcD,kGua,0,0,True,2115.0
0,61248a51eefb6797024ecb85,familiarity,20,PCPDh,Cchtd,0,1,False,3070.0
0,61248a51eefb6797024ecb85,familiarity,21,kJdr,muYN,1,1,True,1899.0
0,61248a51eefb6797024ecb85,familiarity,22,uvJ,GUa,1,1,True,1620.0
0,61248a51eefb6797024ecb85,familiarity,23,GNAca,LcNUJ,1,0,False,2209.0
0,61248a51eefb6797024ecb85,familiarity,24,ZAUu,kZUb,0,0,True,2599.0
0,61248a51eefb6797024ecb85,familiarity,25,mhc,cDR,1,0,False,2411.0
0,61248a51eefb6797024ecb85,familiarity,26,CmYA,YJkb,1,0,False,1767.0
0,61248a51eefb6797024ecb85,familiarity,27,PEtE,LQur,1,0,False,1982.0
0,61248a51eefb6797024ecb85,familiarity,28,LUOk,rckO,1,0,False,1753.0
0,61248a51eefb6797024ecb85,familiarity,29,Ydud,NkUA,1,0,False,1652.0
0,61248a51eefb6797024ecb85,familiarity,30,JdGm,QONk,1,1,True,1119.0
0,612cc44439ccefbbd5d4b278,familiarity,1,NUZ,dUr,1,0,False,2247.0
0,612cc44439ccefbbd5d4b278,familiarity,2,rckO,MDKP,1,0,False,1490.0
0,612cc44439ccefbbd5d4b278,familiarity,3,mtKP,dCKc,1,0,False,1586.0
0,612cc44439ccefbbd5d4b278,familiarity,4,mCd,lRE,1,1,True,1473.0
0,612cc44439ccefbbd5d4b278,familiarity,5,ctkt,hChY,1,1,True,1421.0
0,612cc44439ccefbbd5d4b278,familiarity,6,RlAKc,AYkEh,1,1,True,1357.0
0,612cc44439ccefbbd5d4b278,familiarity,7,Qclad,NAacQ,1,0,False,1323.0
0,612cc44439ccefbbd5d4b278,familiarity,8,dEPD,DOAK,1,0,False,1441.0
0,612cc44439ccefbbd5d4b278,familiarity,9,GAcY,dTAh,1,1,True,1179.0
0,612cc44439ccefbbd5d4b278,familiarity,10,Grub,dmkv,0,0,True,1204.0
0,612cc44439ccefbbd5d4b278,familiarity,11,DhCP,cthB,0,0,True,1156.0
0,612cc44439ccefbbd5d4b278,familiarity,12,bcbM,mdkK,1,0,False,1395.0
0,612cc44439ccefbbd5d4b278,familiarity,13,LYGA,CPMl,0,1,False,1049.0
0,612cc44439ccefbbd5d4b278,familiarity,14,NaAQd,dKDth,1,1,True,1116.0
0,612cc44439ccefbbd5d4b278,familiarity,15,tRdM,YObA,0,1,False,1291.0
0,612cc44439ccefbbd5d4b278,familiarity,16,LaA,Akd,0,0,True,1267.0
0,612cc44439ccefbbd5d4b278,familiarity,17,NLQGm,UdlGQ,1,1,True,1445.0
0,612cc44439ccefbbd5d4b278,familiarity,18,BCAd,YKRk,0,0,True,1437.0
0,612cc44439ccefbbd5d4b278,familiarity,19,LOLkU,AZaJc,1,1,True,1304.0
0,612cc44439ccefbbd5d4b278,familiarity,20,LkNc,ArQu,0,1,False,1335.0
0,612cc44439ccefbbd5d4b278,familiarity,21,kNua,vblr,1,1,True,1270.0
0,612cc44439ccefbbd5d4b278,familiarity,22,UAcdu,Blmcl,0,0,True,1989.0
0,612cc44439ccefbbd5d4b278,familiarity,23,RtRh,bAdk,0,1,False,1312.0
0,612cc44439ccefbbd5d4b278,familiarity,24,chAh,vYLU,1,1,True,1278.0
0,612cc44439ccefbbd5d4b278,familiarity,25,tmAK,kuvb,1,1,True,1192.0
0,612cc44439ccefbbd5d4b278,familiarity,26,PCMPK,lhCTC,0,0,True,1471.0
0,612cc44439ccefbbd5d4b278,familiarity,27,OCmk,MCkm,0,1,False,1321.0
0,612cc44439ccefbbd5d4b278,familiarity,28,dmRb,adkr,1,1,True,1404.0
0,612cc44439ccefbbd5d4b278,familiarity,29,mdla,OdOP,0,0,True,1344.0
0,612cc44439ccefbbd5d4b278,familiarity,30,JZOAk,aNYmb,1,1,True,1455.0
0,612cd9f34adcee82f65685a1,familiarity,1,OEPk,vUdm,0,0,True,1432.0
0,612cd9f34adcee82f65685a1,familiarity,2,AOUl,dJNr,1,0,False,406.0
0,612cd9f34adcee82f65685a1,familiarity,3,RlAKc,dCtMA,0,1,False,2027.0
0,612cd9f34adcee82f65685a1,familiarity,4,kGlU,rvUb,0,0,True,1187.0
0,612cd9f34adcee82f65685a1,familiarity,5,ukcY,rkYL,0,0,True,1645.0
0,612cd9f34adcee82f65685a1,familiarity,6,YBO,kYL,1,0,False,3574.0
0,612cd9f34adcee82f65685a1,familiarity,7,ALOrl,dMThk,0,0,True,1435.0
0,612cd9f34adcee82f65685a1,familiarity,8,alJY,lZcu,1,1,True,1101.0
0,612cd9f34adcee82f65685a1,familiarity,9,BRDh,BbOD,0,0,True,1223.0
0,612cd9f34adcee82f65685a1,familiarity,10,QGb,Cdt,1,0,False,2616.0
0,612cd9f34adcee82f65685a1,familiarity,11,EPERd,KBKBE,0,0,True,1109.0
0,612cd9f34adcee82f65685a1,familiarity,12,Ckbd,MTdY,1,1,True,2397.0
0,612cd9f34adcee82f65685a1,familiarity,13,LUOk,PcBT,1,1,True,880.0
0,612cd9f34adcee82f65685a1,familiarity,14,McMD,aUZA,1,0,False,1017.0
0,612cd9f34adcee82f65685a1,familiarity,15,vYLU,DCmh,0,0,True,1996.0
0,612cd9f34adcee82f65685a1,familiarity,16,ORbk,YZJm,1,1,True,2339.0
0,612cd9f34adcee82f65685a1,familiarity,17,KABA,vQdO,1,1,True,813.0
0,612cd9f34adcee82f65685a1,familiarity,18,TklD,PEdK,1,0,False,911.0
0,612cd9f34adcee82f65685a1,familiarity,19,CkBOP,kcCRt,0,1,False,1178.0
0,612cd9f34adcee82f65685a1,familiarity,20,MDKP,RdCc,1,1,True,1234.0
0,612cd9f34adcee82f65685a1,familiarity,21,GumLl,UdYUQ,1,0,False,2039.0
0,612cd9f34adcee82f65685a1,familiarity,22,vAar,bvkr,1,0,False,1952.0
0,612cd9f34adcee82f65685a1,familiarity,23,rbYbu,BATOc,1,0,False,936.0
0,612cd9f34adcee82f65685a1,familiarity,24,amJm,DBkl,0,0,True,710.0
0,612cd9f34adcee82f65685a1,familiarity,25,bLd,LcO,1,0,False,1241.0
0,612cd9f34adcee82f65685a1,familiarity,26,NYZu,JUNa,1,0,False,1044.0
0,612cd9f34adcee82f65685a1,familiarity,27,advYO,hlctE,1,1,True,897.0
0,612cd9f34adcee82f65685a1,familiarity,28,OYK,mAM,0,0,True,1574.0
0,612cd9f34adcee82f65685a1,familiarity,29,bdtK,QvlZ,0,1,False,923.0
0,612cd9f34adcee82f65685a1,familiarity,30,RYtkc,TbKME,0,0,True,1044.0
0,6136a1e1159dc808ad660d89,familiarity,1,LcO,BbM,0,0,True,1056.0
0,6136a1e1159dc808ad660d89,familiarity,2,PlEK,rZYd,1,1,True,967.0
0,6136a1e1159dc808ad660d89,familiarity,3,ukbY,dNZA,1,0,False,1222.0
0,6136a1e1159dc808ad660d89,familiarity,4,OJGQ,kZUb,0,0,True,1067.0
0,6136a1e1159dc808ad660d89,familiarity,5,advYO,mLdkZ,1,1,True,1227.0
0,6136a1e1159dc808ad660d89,familiarity,6,EdBb,crdY,0,0,True,1124.0
0,6136a1e1159dc808ad660d89,familiarity,7,Ddck,hlkT,1,0,False,1073.0
0,6136a1e1159dc808ad660d89,familiarity,8,vAuNl,OQarQ,1,1,True,952.0
0,6136a1e1159dc808ad660d89,familiarity,9,PCPDh,CkBOP,1,0,False,958.0
0,6136a1e1159dc808ad660d89,familiarity,10,rdLJa,ZYcQU,0,0,True,1003.0
0,6136a1e1159dc808ad660d89,familiarity,11,mCd,ABb,0,0,True,1236.0
0,6136a1e1159dc808ad660d89,familiarity,12,kNua,kJdr,0,1,False,1303.0
0,6136a1e1159dc808ad660d89,familiarity,13,cdKBY,dmZvm,1,1,True,1158.0
0,6136a1e1159dc808ad660d89,familiarity,14,EcR,lLG,0,1,False,1200.0
0,6136a1e1159dc808ad660d89,familiarity,15,MAB,uda,1,0,False,1279.0
0,6136a1e1159dc808ad660d89,familiarity,16,mBbK,tRdM,1,1,True,1251.0
0,6136a1e1159dc808ad660d89,familiarity,17,cUN,bTE,0,0,True,882.0
0,6136a1e1159dc808ad660d89,familiarity,18,DBPhc,PDPhl,0,0,True,1285.0
0,6136a1e1159dc808ad660d89,familiarity,19,QcQAJ,cBROB,0,0,True,1294.0
0,6136a1e1159dc808ad660d89,familiarity,20,EltMB,JdOAY,1,0,False,1246.0
0,6136a1e1159dc808ad660d89,familiarity,21,Dmh,dUr,1,1,True,1161.0
0,6136a1e1159dc808ad660d89,familiarity,22,GQYQ,vUdm,1,1,True,1005.0
0,6136a1e1159dc808ad660d89,familiarity,23,LGkA,AbKD,1,0,False,1240.0
0,6136a1e1159dc808ad660d89,familiarity,24,alJY,DbMR,0,0,True,1185.0
0,6136a1e1159dc808ad660d89,familiarity,25,ZAUu,AlNU,0,1,False,1517.0
0,6136a1e1159dc808ad660d89,familiarity,26,mbZl,lcOc,0,1,False,953.0
0,6136a1e1159dc808ad660d89,familiarity,27,vQdO,UaYL,1,1,True,1377.0
0,6136a1e1159dc808ad660d89,familiarity,28,kPkRA,damYb,0,0,True,1186.0
0,6136a1e1159dc808ad660d89,familiarity,29,ODBDA,CDEmY,1,1,True,938.0
0,6136a1e1159dc808ad660d89,familiarity,30,MKmY,cMRl,1,0,False,1222.0
0,613758e7a80409ba7f5affb6,familiarity,1,lbBDE,bRABt,1,0,False,1499.0
0,613758e7a80409ba7f5affb6,familiarity,2,bdtK,TEBK,1,0,False,1405.0
0,613758e7a80409ba7f5affb6,familiarity,3,LcO,kYL,1,1,True,1635.0
0,613758e7a80409ba7f5affb6,familiarity,4,JZOAk,EPERd,0,1,False,435.0
0,613758e7a80409ba7f5affb6,familiarity,5,ABPRB,MkmEd,0,1,False,208.0
0,613758e7a80409ba7f5affb6,familiarity,6,AYkEh,Amacl,1,1,True,102.0
0,613758e7a80409ba7f5affb6,familiarity,7,JZr,kmU,1,1,True,116.0
0,613758e7a80409ba7f5affb6,familiarity,8,vJQ,lGc,0,1,False,85.0
0,613758e7a80409ba7f5affb6,familiarity,9,OJGQ,OCmk,0,1,False,3.0
0,613758e7a80409ba7f5affb6,familiarity,10,dNZA,vQdO,0,0,True,307.0
0,613758e7a80409ba7f5affb6,familiarity,11,lMck,mbZl,0,0,True,49.0
0,613758e7a80409ba7f5affb6,familiarity,12,MDKP,dJNr,0,0,True,62.0
0,613758e7a80409ba7f5affb6,familiarity,13,TDKh,JmNk,0,0,True,2.0
0,613758e7a80409ba7f5affb6,familiarity,14,GJGcZ,TAdhM,0,0,True,230.0
0,613758e7a80409ba7f5affb6,familiarity,15,bAdk,YKRk,0,0,True,36.0
0,613758e7a80409ba7f5affb6,familiarity,16,AZlLN,MBKRE,0,0,True,1.0
0,613758e7a80409ba7f5affb6,familiarity,17,RdCc,ukbY,1,0,False,2.0
0,613758e7a80409ba7f5affb6,familiarity,18,bvkr,KdAR,1,0,False,60.0
0,613758e7a80409ba7f5affb6,familiarity,19,JAdLm,lYrua,1,0,False,113.0
0,613758e7a80409ba7f5affb6,familiarity,20,NbacA,BATOc,1,0,False,3.0
0,613758e7a80409ba7f5affb6,familiarity,21,EhRm,tmYh,0,0,True,4.0
0,613758e7a80409ba7f5affb6,familiarity,22,cDR,Nac,1,0,False,3.0
0,613758e7a80409ba7f5affb6,familiarity,23,YNu,OtM,1,0,False,4.0
0,613758e7a80409ba7f5affb6,familiarity,24,uUY,EAO,0,0,True,161.0
0,613758e7a80409ba7f5affb6,familiarity,25,aONd,blMk,0,0,True,2.0
0,613758e7a80409ba7f5affb6,familiarity,26,cBROB,kKEdM,1,0,False,5.0
0,613758e7a80409ba7f5affb6,familiarity,27,MAB,Akd,1,0,False,3.0
0,613758e7a80409ba7f5affb6,familiarity,28,YLQmG,lhCTC,1,0,False,3.0
0,613758e7a80409ba7f5affb6,familiarity,29,CmcO,GZJY,0,0,True,2.0
0,613758e7a80409ba7f5affb6,familiarity,30,hlctE,EPMDk,1,0,False,4.0
0,613ca0a2040055a4e87c5d71,familiarity,1,uQuZc,vAuNl,0,0,True,1462.0
0,613ca0a2040055a4e87c5d71,familiarity,2,JQA,EAO,0,0,True,1448.0
0,613ca0a2040055a4e87c5d71,familiarity,3,JmvmO,htmhC,1,1,True,1291.0
0,613ca0a2040055a4e87c5d71,familiarity,4,Grbk,bvuZ,1,0,False,782.0
0,613ca0a2040055a4e87c5d71,familiarity,5,bvkr,AlUY,0,0,True,1091.0
0,613ca0a2040055a4e87c5d71,familiarity,6,OLJbl,DBPhc,1,1,True,1123.0
0,613ca0a2040055a4e87c5d71,familiarity,7,dCtMA,rvOvU,0,1,False,1478.0
0,613ca0a2040055a4e87c5d71,familiarity,8,AJLr,TEBK,0,0,True,1744.0
0,613ca0a2040055a4e87c5d71,familiarity,9,tcYbd,KAERM,1,1,True,1082.0
0,613ca0a2040055a4e87c5d71,familiarity,10,aUZA,kMEC,1,1,True,1150.0
0,613ca0a2040055a4e87c5d71,familiarity,11,GUOA,hTDd,0,0,True,1446.0
0,613ca0a2040055a4e87c5d71,familiarity,12,kcdOt,dClOC,0,0,True,832.0
0,613ca0a2040055a4e87c5d71,familiarity,13,Qclad,EPERd,1,0,False,919.0
0,613ca0a2040055a4e87c5d71,familiarity,14,OdlNm,ZcGdN,1,0,False,797.0
0,613ca0a2040055a4e87c5d71,familiarity,15,RYlD,adkr,1,1,True,1756.0
0,613ca0a2040055a4e87c5d71,familiarity,16,TbKME,KRARm,1,0,False,1603.0
0,613ca0a2040055a4e87c5d71,familiarity,17,PEtE,kDOm,0,0,True,1278.0
0,613ca0a2040055a4e87c5d71,familiarity,18,MCkm,DBkl,1,1,True,1276.0
0,613ca0a2040055a4e87c5d71,familiarity,19,Ymb,CEM,1,1,True,1160.0
0,613ca0a2040055a4e87c5d71,familiarity,20,DOBhY,CDEmY,1,0,False,1171.0
0,613ca0a2040055a4e87c5d71,familiarity,21,rbYbu,PMPtk,1,0,False,1620.0
0,613ca0a2040055a4e87c5d71,familiarity,22,DMRP,vAar,1,1,True,987.0
0,613ca0a2040055a4e87c5d71,familiarity,23,kBD,JcL,1,0,False,1221.0
0,613ca0a2040055a4e87c5d71,familiarity,24,BCAd,MTdY,1,1,True,1181.0
0,613ca0a2040055a4e87c5d71,familiarity,25,LYGA,mdkK,1,1,True,1058.0
0,613ca0a2040055a4e87c5d71,familiarity,26,mBbK,Yaum,1,1,True,962.0
0,613ca0a2040055a4e87c5d71,familiarity,27,cDR,UbG,0,0,True,1015.0
0,613ca0a2040055a4e87c5d71,familiarity,28,dYdA,khmh,0,1,False,898.0
0,613ca0a2040055a4e87c5d71,familiarity,29,tRPD,dKRD,0,0,True,1319.0
0,613ca0a2040055a4e87c5d71,familiarity,30,LOLkU,kcCRt,0,0,True,651.0
0,6148b49d6ac652cefd310332,familiarity,1,BdtAC,LNUrJ,0,1,False,1535.0
0,6148b49d6ac652cefd310332,familiarity,2,tRdM,BPAl,1,0,False,1838.0
0,6148b49d6ac652cefd310332,familiarity,3,YaOk,YOZN,0,1,False,1537.0
0,6148b49d6ac652cefd310332,familiarity,4,lRCB,lBlE,1,1,True,1281.0
0,6148b49d6ac652cefd310332,familiarity,5,dNZA,DlDd,1,1,True,1237.0
0,6148b49d6ac652cefd310332,familiarity,6,KMOc,Ydud,0,0,True,1495.0
0,6148b49d6ac652cefd310332,familiarity,7,Qru,uvJ,0,1,False,1123.0
0,6148b49d6ac652cefd310332,familiarity,8,laYmr,QbkAc,0,1,False,1172.0
0,6148b49d6ac652cefd310332,familiarity,9,uauO,RtRh,1,1,True,1915.0
0,6148b49d6ac652cefd310332,familiarity,10,Yht,DOk,0,0,True,843.0
0,6148b49d6ac652cefd310332,familiarity,11,AZlLN,RlAKc,1,0,False,1253.0
0,6148b49d6ac652cefd310332,familiarity,12,ALGZ,OcZJ,0,1,False,973.0
0,6148b49d6ac652cefd310332,familiarity,13,GUOA,PlEK,1,0,False,1280.0
0,6148b49d6ac652cefd310332,familiarity,14,EcR,OPE,0,0,True,945.0
0,6148b49d6ac652cefd310332,familiarity,15,bTE,Ymb,0,1,False,1187.0
0,6148b49d6ac652cefd310332,familiarity,16,YLU,kam,0,0,True,919.0
0,6148b49d6ac652cefd310332,familiarity,17,UJmr,UaYL,0,1,False,804.0
0,6148b49d6ac652cefd310332,familiarity,18,COTK,bcbM,1,1,True,594.0
0,6148b49d6ac652cefd310332,familiarity,19,Ldrbv,ECtbD,1,0,False,483.0
0,6148b49d6ac652cefd310332,familiarity,20,dOYml,GLluA,1,1,True,873.0
0,6148b49d6ac652cefd310332,familiarity,21,OBT,TRK,0,1,False,439.0
0,6148b49d6ac652cefd310332,familiarity,22,tmtEM,cBROB,0,0,True,692.0
0,6148b49d6ac652cefd310332,familiarity,23,OmtlD,OQarQ,0,0,True,401.0
0,6148b49d6ac652cefd310332,familiarity,24,GJGcZ,dClOC,0,0,True,271.0
0,6148b49d6ac652cefd310332,familiarity,25,cbm,RDM,0,1,False,319.0
0,6148b49d6ac652cefd310332,familiarity,26,bAMO,AdYl,0,0,True,342.0
0,6148b49d6ac652cefd310332,familiarity,27,NvuGr,aLNlk,1,1,True,394.0
0,6148b49d6ac652cefd310332,familiarity,28,btlck,kLvdN,0,0,True,327.0
0,6148b49d6ac652cefd310332,familiarity,29,YZJm,dYAJ,0,1,False,646.0
0,6148b49d6ac652cefd310332,familiarity,30,TklD,hTDd,1,1,True,764.0
0,615c1372e7e639775817487e,familiarity,1,NJZl,cYUv,1,1,True,1895.0
0,615c1372e7e639775817487e,familiarity,2,YlYc,JAaG,1,1,True,8041.0
0,615c1372e7e639775817487e,familiarity,3,kJdr,RYlD,1,0,False,1758.0
0,615c1372e7e639775817487e,familiarity,4,YcdO,CmcO,0,0,True,2268.0
0,615c1372e7e639775817487e,familiarity,5,LUOk,PMYm,0,0,True,1307.0
0,615c1372e7e639775817487e,familiarity,6,GNAca,kPkRA,1,1,True,957.0
0,615c1372e7e639775817487e,familiarity,7,OmtlD,LcNUJ,0,1,False,603.0
0,615c1372e7e639775817487e,familiarity,8,CEM,YLU,1,0,False,837.0
0,615c1372e7e639775817487e,familiarity,9,LaA,Glu,0,0,True,377.0
0,615c1372e7e639775817487e,familiarity,10,RKYk,Ydud,0,1,False,283.0
0,615c1372e7e639775817487e,familiarity,11,btlck,UYZlZ,0,0,True,401.0
0,615c1372e7e639775817487e,familiarity,12,mtKP,DOAK,1,1,True,873.0
0,615c1372e7e639775817487e,familiarity,13,TRK,OtM,1,0,False,707.0
0,615c1372e7e639775817487e,familiarity,14,krUQ,dCKc,1,1,True,733.0
0,615c1372e7e639775817487e,familiarity,15,tdDd,EhRm,0,0,True,982.0
0,615c1372e7e639775817487e,familiarity,16,kabJb,tcYbd,1,0,False,2428.0
0,615c1372e7e639775817487e,familiarity,17,advYO,NbacA,1,0,False,2263.0
0,615c1372e7e639775817487e,familiarity,18,AlTd,TRkY,1,0,False,1838.0
0,615c1372e7e639775817487e,familiarity,19,EPBT,COTK,0,0,True,1206.0
0,615c1372e7e639775817487e,familiarity,20,KElB,YOZN,0,1,False,916.0
0,615c1372e7e639775817487e,familiarity,21,bNdmG,vuJZu,0,0,True,458.0
0,615c1372e7e639775817487e,familiarity,22,kZUb,CYPc,0,0,True,1089.0
0,615c1372e7e639775817487e,familiarity,23,uUmb,OEPk,0,1,False,1025.0
0,615c1372e7e639775817487e,familiarity,24,dJNr,JauQ,0,0,True,881.0
0,615c1372e7e639775817487e,familiarity,25,OCmk,UrOQ,0,0,True,1410.0
0,615c1372e7e639775817487e,familiarity,26,vUdm,PdDT,1,1,True,853.0
0,615c1372e7e639775817487e,familiarity,27,APEM,mBbK,1,0,False,496.0
0,615c1372e7e639775817487e,familiarity,28,EtMDM,BdtAC,1,0,False,360.0
0,615c1372e7e639775817487e,familiarity,29,BPAl,mrOd,1,0,False,933.0
0,615c1372e7e639775817487e,familiarity,30,JvaA,TPOM,1,1,True,436.0
0,6166ef334de9e433e83bfb79,familiarity,1,DhCP,chAh,0,0,True,1330.0
0,6166ef334de9e433e83bfb79,familiarity,2,rkYL,mbZl,0,1,False,1343.0
0,6166ef334de9e433e83bfb79,familiarity,3,dKRD,UdvY,0,0,True,968.0
0,6166ef334de9e433e83bfb79,familiarity,4,vJQ,uUY,1,1,True,1108.0
0,6166ef334de9e433e83bfb79,familiarity,5,kbu,YLU,1,1,True,1477.0
0,6166ef334de9e433e83bfb79,familiarity,6,TAdhM,hYDmt,0,1,False,1141.0
0,6166ef334de9e433e83bfb79,familiarity,7,bRABt,NvuGr,1,1,True,1186.0
0,6166ef334de9e433e83bfb79,familiarity,8,kMbTR,NaAQd,0,1,False,1606.0
0,6166ef334de9e433e83bfb79,familiarity,9,Abka,BPAl,1,0,False,819.0
0,6166ef334de9e433e83bfb79,familiarity,10,RdPtD,KRARm,1,0,False,1274.0
0,6166ef334de9e433e83bfb79,familiarity,11,mhc,dUr,1,1,True,1105.0
0,6166ef334de9e433e83bfb79,familiarity,12,dJNr,aUZA,0,1,False,1290.0
0,6166ef334de9e433e83bfb79,familiarity,13,tmAK,KlkD,0,0,True,959.0
0,6166ef334de9e433e83bfb79,familiarity,14,aONd,GQrc,0,0,True,1012.0
0,6166ef334de9e433e83bfb79,familiarity,15,kDOm,GZJY,0,1,False,933.0
0,6166ef334de9e433e83bfb79,familiarity,16,LOLkU,hlbtb,1,0,False,878.0
0,6166ef334de9e433e83bfb79,familiarity,17,vblr,EdBb,0,1,False,883.0
0,6166ef334de9e433e83bfb79,familiarity,18,YDTk,mhtc,1,0,False,318.0
0,6166ef334de9e433e83bfb79,familiarity,19,TAm,mCd,0,0,True,97.0
0,6166ef334de9e433e83bfb79,familiarity,20,UJkG,kNua,0,0,True,127.0
0,6166ef334de9e433e83bfb79,familiarity,21,lvk,hBK,0,1,False,1.0
0,6166ef334de9e433e83bfb79,familiarity,22,lKdbc,kDRKc,0,0,True,86.0
0,6166ef334de9e433e83bfb79,familiarity,23,advYO,chEDO,0,0,True,175.0
0,6166ef334de9e433e83bfb79,familiarity,24,JUNa,YOZN,1,1,True,151.0
0,6166ef334de9e433e83bfb79,familiarity,25,Avdk,RCdc,0,0,True,175.0
0,6166ef334de9e433e83bfb79,familiarity,26,Udbd,lRCB,0,1,False,199.0
0,6166ef334de9e433e83bfb79,familiarity,27,mUOcO,hmKPM,1,0,False,77.0
0,6166ef334de9e433e83bfb79,familiarity,28,DMRP,mBYl,1,0,False,129.0
0,6166ef334de9e433e83bfb79,familiarity,29,YKPB,APEM,0,1,False,1.0
0,6166ef334de9e433e83bfb79,familiarity,30,BOckP,DkTCP,1,0,False,123.0
0,616b567b3e605b7245a9aead,familiarity,1,PED,dPc,0,0,True,3323.0
0,616b567b3e605b7245a9aead,familiarity,2,bYuQ,MDKP,1,1,True,1867.0
0,616b567b3e605b7245a9aead,familiarity,3,KEdl,crdY,1,0,False,2204.0
0,616b567b3e605b7245a9aead,familiarity,4,bmdAB,ZNLOv,0,0,True,1150.0
0,616b567b3e605b7245a9aead,familiarity,5,Tbk,PMd,1,1,True,2568.0
0,616b567b3e605b7245a9aead,familiarity,6,mLdkZ,EPERd,1,1,True,2198.0
0,616b567b3e605b7245a9aead,familiarity,7,YNrAm,MBKRE,1,0,False,1627.0
0,616b567b3e605b7245a9aead,familiarity,8,cDOEB,rdLJa,1,0,False,1377.0
0,616b567b3e605b7245a9aead,familiarity,9,OJNk,cMRl,1,1,True,1764.0
0,616b567b3e605b7245a9aead,familiarity,10,tdDd,lRCB,0,0,True,1493.0
0,616b567b3e605b7245a9aead,familiarity,11,Tmc,CEM,0,1,False,1721.0
0,616b567b3e605b7245a9aead,familiarity,12,aQr,OPE,0,1,False,1507.0
0,616b567b3e605b7245a9aead,familiarity,13,EhRm,Yadr,1,0,False,1431.0
0,616b567b3e605b7245a9aead,familiarity,14,muYN,TmTm,0,0,True,1868.0
0,616b567b3e605b7245a9aead,familiarity,15,khmh,mdkK,0,0,True,1190.0
0,616b567b3e605b7245a9aead,familiarity,16,ODBDA,YuaNd,1,0,False,1241.0
0,616b567b3e605b7245a9aead,familiarity,17,AZaJc,kdEdY,1,0,False,1085.0
0,616b567b3e605b7245a9aead,familiarity,18,rvAJ,lTmO,0,1,False,1440.0
0,616b567b3e605b7245a9aead,familiarity,19,OJlN,YTOM,1,1,True,1485.0
0,616b567b3e605b7245a9aead,familiarity,20,GumLl,QLrOJ,0,0,True,1417.0
0,616b567b3e605b7245a9aead,familiarity,21,UJmr,ukcY,0,1,False,1525.0
0,616b567b3e605b7245a9aead,familiarity,22,dCtMA,hTtBb,1,1,True,1876.0
0,616b567b3e605b7245a9aead,familiarity,23,LYGA,JUNa,1,1,True,1861.0
0,616b567b3e605b7245a9aead,familiarity,24,EtMDM,dMYBP,1,0,False,1905.0
0,616b567b3e605b7245a9aead,familiarity,25,hTDd,GUOA,0,0,True,1234.0
0,616b567b3e605b7245a9aead,familiarity,26,RhPm,adkr,1,0,False,1307.0
0,616b567b3e605b7245a9aead,familiarity,27,JmNk,YbBT,1,0,False,1226.0
0,616b567b3e605b7245a9aead,familiarity,28,YDE,JZr,0,0,True,1163.0
0,616b567b3e605b7245a9aead,familiarity,29,YQbc,mdla,0,0,True,1226.0
0,616b567b3e605b7245a9aead,familiarity,30,badk,DhCP,0,1,False,1389.0
0,6171946a19f6673fb215c0c7,familiarity,1,PTl,TAm,0,0,True,9231.0
0,6171946a19f6673fb215c0c7,familiarity,2,rULv,vAvb,0,0,True,1664.0
0,6171946a19f6673fb215c0c7,familiarity,3,krUQ,OtlR,0,0,True,2568.0
0,6171946a19f6673fb215c0c7,familiarity,4,OEPk,ukYZ,0,0,True,1255.0
0,6171946a19f6673fb215c0c7,familiarity,5,kbmZO,LcNUJ,0,1,False,1350.0
0,6171946a19f6673fb215c0c7,familiarity,6,BOCRM,DBPhc,1,1,True,1389.0
0,6171946a19f6673fb215c0c7,familiarity,7,ABb,tcB,1,1,True,2717.0
0,6171946a19f6673fb215c0c7,familiarity,8,dMThk,rGUAY,0,0,True,1623.0
0,6171946a19f6673fb215c0c7,familiarity,9,BbOD,bYuQ,0,1,False,3157.0
0,6171946a19f6673fb215c0c7,familiarity,10,kcdOt,GLluA,1,0,False,1796.0
0,6171946a19f6673fb215c0c7,familiarity,11,vkYGl,DOBhY,0,1,False,2189.0
0,6171946a19f6673fb215c0c7,familiarity,12,TRkY,CKOb,1,0,False,1217.0
0,6171946a19f6673fb215c0c7,familiarity,13,KElB,CYPc,0,0,True,4960.0
0,6171946a19f6673fb215c0c7,familiarity,14,bRC,Qru,1,0,False,2724.0
0,6171946a19f6673fb215c0c7,familiarity,15,lBlE,lZcu,0,0,True,1358.0
0,6171946a19f6673fb215c0c7,familiarity,16,dRA,KmE,1,1,True,1934.0
0,6171946a19f6673fb215c0c7,familiarity,17,aQr,kBD,0,1,False,2420.0
0,6171946a19f6673fb215c0c7,familiarity,18,JdGm,Ckbd,1,1,True,2261.0
0,6171946a19f6673fb215c0c7,familiarity,19,dmkv,uOAO,0,0,True,1329.0
0,6171946a19f6673fb215c0c7,familiarity,20,JrGv,lBKt,0,0,True,2082.0
0,6171946a19f6673fb215c0c7,familiarity,21,LGkA,KOYC,0,1,False,2429.0
0,6171946a19f6673fb215c0c7,familiarity,22,mUOcO,rvOvU,0,1,False,2112.0
0,6171946a19f6673fb215c0c7,familiarity,23,KMOc,PYkC,0,1,False,2284.0
0,6171946a19f6673fb215c0c7,familiarity,24,cRElD,dOYml,0,1,False,2457.0
0,6171946a19f6673fb215c0c7,familiarity,25,GLYrA,ZYcQU,0,0,True,1428.0
