,sbj_ID,task,testing_condition,trialn,item,expected,observed,correct,rt,strategy
0,579e18fc4a84da00014c6f4f,testing,1M,1,QLrOJMAB,0,0,True,1043.0,didnt use a strategy
0,579e18fc4a84da00014c6f4f,testing,1M,2,ktBdDBkl,0,0,True,757.0,didnt use a strategy
0,579e18fc4a84da00014c6f4f,testing,0M,3,KMDYtKMOc,1,0,False,842.0,didnt use a strategy
0,579e18fc4a84da00014c6f4f,testing,0M,4,mUOcOuda,1,0,False,888.0,didnt use a strategy
0,579e18fc4a84da00014c6f4f,testing,1M,5,AbKDbROC,0,0,True,990.0,didnt use a strategy
0,579e18fc4a84da00014c6f4f,testing,0M,6,KAERMbmbN,1,1,True,558.0,didnt use a strategy
0,579e18fc4a84da00014c6f4f,testing,1M,7,dCKcTmTm,0,1,False,665.0,didnt use a strategy
0,579e18fc4a84da00014c6f4f,testing,2M,8,UAcduCKOb,1,0,False,807.0,didnt use a strategy
0,579e18fc4a84da00014c6f4f,testing,1M,9,TbKMEOJlN,0,0,True,960.0,didnt use a strategy
0,579e18fc4a84da00014c6f4f,testing,1M,10,EMbDPdmRb,0,1,False,503.0,didnt use a strategy
0,579e18fc4a84da00014c6f4f,testing,2M,11,CmcOAOUl,1,0,False,370.0,didnt use a strategy
0,579e18fc4a84da00014c6f4f,testing,1M,12,tcYbdmARM,0,1,False,539.0,didnt use a strategy
0,579e18fc4a84da00014c6f4f,testing,2M,13,CmcOCKOb,0,0,True,812.0,didnt use a strategy
0,579e18fc4a84da00014c6f4f,testing,2M,14,tcYbdEKBO,0,0,True,2471.0,didnt use a strategy
0,579e18fc4a84da00014c6f4f,testing,1M,15,thbOMkmU,0,0,True,339.0,didnt use a strategy
0,579e18fc4a84da00014c6f4f,testing,1M,16,cDOEBbAMO,0,0,True,631.0,didnt use a strategy
0,579e18fc4a84da00014c6f4f,testing,2M,17,aYQmlGc,0,1,False,759.0,didnt use a strategy
0,579e18fc4a84da00014c6f4f,testing,0M,18,cRElDAMkC,1,1,True,618.0,didnt use a strategy
0,579e18fc4a84da00014c6f4f,testing,2M,19,cDOEBCKOb,0,0,True,604.0,didnt use a strategy
0,579e18fc4a84da00014c6f4f,testing,2M,20,LckGNcthB,1,0,False,541.0,didnt use a strategy
0,579e18fc4a84da00014c6f4f,testing,1M,21,QcladBCD,0,0,True,519.0,didnt use a strategy
0,579e18fc4a84da00014c6f4f,testing,0M,22,cBROBuda,1,0,False,424.0,didnt use a strategy
0,579e18fc4a84da00014c6f4f,testing,2M,23,ldAaTmTm,1,0,False,468.0,didnt use a strategy
0,579e18fc4a84da00014c6f4f,testing,0M,24,EtMDMtRdM,1,1,True,617.0,didnt use a strategy
0,579e18fc4a84da00014c6f4f,testing,0M,25,rcmuvkCRm,1,1,True,372.0,didnt use a strategy
0,579e18fc4a84da00014c6f4f,testing,0M,26,krGuZckv,1,1,True,524.0,didnt use a strategy
0,579e18fc4a84da00014c6f4f,testing,2M,27,LckGNYArG,0,0,True,373.0,didnt use a strategy
0,579e18fc4a84da00014c6f4f,testing,2M,28,QLrOJEKBO,1,1,True,372.0,didnt use a strategy
0,579e18fc4a84da00014c6f4f,testing,0M,29,BOckPkrGu,1,0,False,419.0,didnt use a strategy
0,579e18fc4a84da00014c6f4f,testing,1M,30,kPOtkhMD,0,0,True,679.0,didnt use a strategy
0,579e18fc4a84da00014c6f4f,testing,0M,31,Udumduda,1,0,False,389.0,didnt use a strategy
0,579e18fc4a84da00014c6f4f,testing,2M,32,laYmrTmTm,1,1,True,502.0,didnt use a strategy
0,579e18fc4a84da00014c6f4f,testing,2M,33,ktBdcthB,0,1,False,510.0,didnt use a strategy
0,579e18fc4a84da00014c6f4f,testing,1M,34,YNrAmDlDT,0,1,False,372.0,didnt use a strategy
0,579e18fc4a84da00014c6f4f,testing,1M,35,kPkRAhbkd,0,0,True,375.0,didnt use a strategy
0,579e18fc4a84da00014c6f4f,testing,2M,36,ZNLOvkKE,1,0,False,542.0,didnt use a strategy
0,579e18fc4a84da00014c6f4f,testing,2M,37,dmZvmcthB,1,1,True,399.0,didnt use a strategy
0,579e18fc4a84da00014c6f4f,testing,0M,38,kLvdNhCkt,1,1,True,419.0,didnt use a strategy
0,579e18fc4a84da00014c6f4f,testing,0M,39,kMbTRadkr,1,0,False,401.0,didnt use a strategy
0,579e18fc4a84da00014c6f4f,testing,0M,40,kuvbdYAJ,1,1,True,477.0,didnt use a strategy
0,579e18fc4a84da00014c6f4f,testing,2M,41,ktBdYArG,1,1,True,450.0,didnt use a strategy
0,579e18fc4a84da00014c6f4f,testing,0M,42,lKdbcbLd,1,1,True,402.0,didnt use a strategy
0,579e18fc4a84da00014c6f4f,testing,2M,43,EMbDPOJlN,1,1,True,388.0,didnt use a strategy
0,579e18fc4a84da00014c6f4f,testing,1M,44,RtRhbTE,0,1,False,608.0,didnt use a strategy
0,579e18fc4a84da00014c6f4f,testing,1M,45,PCPDhEKBO,0,0,True,367.0,didnt use a strategy
0,579e18fc4a84da00014c6f4f,testing,0M,46,dRbDbAJLr,1,0,False,470.0,didnt use a strategy
0,579e18fc4a84da00014c6f4f,testing,1M,47,tRPDkKE,0,1,False,420.0,didnt use a strategy
0,579e18fc4a84da00014c6f4f,testing,2M,48,ZNLOvlGc,0,1,False,482.0,didnt use a strategy
0,579e18fc4a84da00014c6f4f,testing,2M,49,tcYbdlvk,1,1,True,599.0,didnt use a strategy
0,579e18fc4a84da00014c6f4f,testing,1M,50,mrOdYArG,0,0,True,370.0,didnt use a strategy
0,579e18fc4a84da00014c6f4f,testing,2M,51,RtRhkKE,0,0,True,317.0,didnt use a strategy
0,579e18fc4a84da00014c6f4f,testing,0M,52,UdumdJmNk,1,1,True,461.0,didnt use a strategy
0,579e18fc4a84da00014c6f4f,testing,0M,53,aLNlkYZJO,1,0,False,370.0,didnt use a strategy
0,579e18fc4a84da00014c6f4f,testing,0M,54,aUZAAPT,1,0,False,397.0,didnt use a strategy
0,579e18fc4a84da00014c6f4f,testing,1M,55,ZNLOvRDM,0,1,False,310.0,didnt use a strategy
0,579e18fc4a84da00014c6f4f,testing,0M,56,lBlEATc,1,1,True,310.0,didnt use a strategy
0,579e18fc4a84da00014c6f4f,testing,2M,57,aYQmkKE,1,0,False,381.0,didnt use a strategy
0,579e18fc4a84da00014c6f4f,testing,0M,58,EYtYRAPT,1,1,True,478.0,didnt use a strategy
0,579e18fc4a84da00014c6f4f,testing,1M,59,TAdhMCKOb,0,0,True,415.0,didnt use a strategy
0,579e18fc4a84da00014c6f4f,testing,0M,60,DMRPEhRm,1,1,True,333.0,didnt use a strategy
0,579e18fc4a84da00014c6f4f,testing,0M,61,hlkTPMd,1,0,False,354.0,didnt use a strategy
0,579e18fc4a84da00014c6f4f,testing,0M,62,kdrOvUdm,1,1,True,420.0,didnt use a strategy
0,579e18fc4a84da00014c6f4f,testing,0M,63,btlckkdrO,1,1,True,422.0,didnt use a strategy
0,579e18fc4a84da00014c6f4f,testing,0M,64,NvuGrhTDd,1,1,True,343.0,didnt use a strategy
0,579e18fc4a84da00014c6f4f,testing,1M,65,PMPtkYArG,0,1,False,341.0,didnt use a strategy
0,579e18fc4a84da00014c6f4f,testing,2M,66,AbKDlvk,1,1,True,500.0,didnt use a strategy
0,579e18fc4a84da00014c6f4f,testing,2M,67,kPkRActhB,0,1,False,345.0,didnt use a strategy
0,579e18fc4a84da00014c6f4f,testing,1M,68,laYmrRhPm,0,0,True,414.0,didnt use a strategy
0,579e18fc4a84da00014c6f4f,testing,0M,69,uAkrOtlR,1,0,False,536.0,didnt use a strategy
0,579e18fc4a84da00014c6f4f,testing,1M,70,aYQmdBC,0,0,True,371.0,didnt use a strategy
0,579e18fc4a84da00014c6f4f,testing,1M,71,DOAKAOUl,0,0,True,311.0,didnt use a strategy
0,579e18fc4a84da00014c6f4f,testing,1M,72,UAcduPcBT,0,1,False,715.0,didnt use a strategy
0,579e18fc4a84da00014c6f4f,testing,2M,73,laYmrOJlN,0,0,True,430.0,didnt use a strategy
0,579e18fc4a84da00014c6f4f,testing,2M,74,YNrAmCKOb,1,1,True,361.0,didnt use a strategy
0,579e18fc4a84da00014c6f4f,testing,0M,75,uQuZcmhc,1,1,True,342.0,didnt use a strategy
0,579e18fc4a84da00014c6f4f,testing,0M,76,dvNvAMKmY,1,1,True,308.0,didnt use a strategy
0,579e18fc4a84da00014c6f4f,testing,2M,77,dmZvmYArG,0,1,False,245.0,didnt use a strategy
0,579e18fc4a84da00014c6f4f,testing,2M,78,thbOMkKE,0,0,True,324.0,didnt use a strategy
0,579e18fc4a84da00014c6f4f,testing,1M,79,DBPhcAOUl,0,1,False,318.0,didnt use a strategy
0,579e18fc4a84da00014c6f4f,testing,1M,80,PCMPKcthB,0,0,True,329.0,didnt use a strategy
0,579e18fc4a84da00014c6f4f,testing,2M,81,QLrOJlvk,0,0,True,277.0,didnt use a strategy
0,579e18fc4a84da00014c6f4f,testing,2M,82,thbOMlGc,1,1,True,341.0,didnt use a strategy
0,579e18fc4a84da00014c6f4f,testing,2M,83,ldAaOJlN,0,1,False,261.0,didnt use a strategy
0,579e18fc4a84da00014c6f4f,testing,2M,84,QcladEKBO,1,1,True,202.0,didnt use a strategy
0,579e18fc4a84da00014c6f4f,testing,1M,85,ldAarvAJ,0,1,False,202.0,didnt use a strategy
0,579e18fc4a84da00014c6f4f,testing,0M,86,YUNkZGrub,1,0,False,436.0,didnt use a strategy
0,579e18fc4a84da00014c6f4f,testing,2M,87,kPOtOJlN,1,0,False,339.0,didnt use a strategy
0,579e18fc4a84da00014c6f4f,testing,1M,88,dmZvmPMYm,0,0,True,287.0,didnt use a strategy
0,579e18fc4a84da00014c6f4f,testing,1M,89,UdlGQEKBO,0,0,True,242.0,didnt use a strategy
0,579e18fc4a84da00014c6f4f,testing,2M,90,EMbDPTmTm,0,1,False,351.0,didnt use a strategy
0,579e18fc4a84da00014c6f4f,testing,2M,91,YNrAmAOUl,0,1,False,422.0,didnt use a strategy
0,579e18fc4a84da00014c6f4f,testing,2M,92,kPOtTmTm,0,1,False,237.0,didnt use a strategy
0,579e18fc4a84da00014c6f4f,testing,1M,93,COtBDkKE,0,0,True,373.0,didnt use a strategy
0,579e18fc4a84da00014c6f4f,testing,1M,94,DdcklGc,0,1,False,340.0,didnt use a strategy
0,579e18fc4a84da00014c6f4f,testing,2M,95,AbKDEKBO,0,0,True,319.0,didnt use a strategy
0,579e18fc4a84da00014c6f4f,testing,2M,96,RtRhlGc,1,1,True,369.0,didnt use a strategy
0,579e18fc4a84da00014c6f4f,testing,0M,97,kCRmkBD,1,1,True,347.0,didnt use a strategy
0,579e18fc4a84da00014c6f4f,testing,0M,98,adYrcEhbt,1,0,False,372.0,didnt use a strategy
0,579e18fc4a84da00014c6f4f,testing,1M,99,LckGNEPBT,0,0,True,439.0,didnt use a strategy
0,579e18fc4a84da00014c6f4f,testing,1M,100,CmcOuOAO,0,1,False,386.0,didnt use a strategy
0,579e18fc4a84da00014c6f4f,testing,0M,101,kZUbchAh,1,1,True,323.0,didnt use a strategy
0,579e18fc4a84da00014c6f4f,testing,0M,102,KBKBElrZG,1,1,True,181.0,didnt use a strategy
0,579e18fc4a84da00014c6f4f,testing,0M,103,NvYJvJab,1,1,True,378.0,didnt use a strategy
0,579e18fc4a84da00014c6f4f,testing,0M,104,krGuEAO,1,1,True,402.0,didnt use a strategy
0,579e18fc4a84da00014c6f4f,testing,2M,105,Qcladlvk,0,1,False,366.0,didnt use a strategy
0,579e18fc4a84da00014c6f4f,testing,0M,106,hCktRYlD,1,1,True,233.0,didnt use a strategy
0,579e18fc4a84da00014c6f4f,testing,1M,107,GZJYOJlN,0,0,True,392.0,didnt use a strategy
0,579e18fc4a84da00014c6f4f,testing,0M,108,mbZlMhKd,1,0,False,336.0,didnt use a strategy
0,579e18fc4a84da00014c6f4f,testing,0M,109,dCtMAAkd,1,0,False,311.0,didnt use a strategy
0,579e18fc4a84da00014c6f4f,testing,0M,110,hlctEYZJm,1,0,False,302.0,didnt use a strategy
0,579e18fc4a84da00014c6f4f,testing,1M,111,bdUNuTmTm,0,1,False,343.0,didnt use a strategy
0,579e18fc4a84da00014c6f4f,testing,1M,112,TRkYlvk,0,1,False,376.0,didnt use a strategy
0,579e18fc4a84da00014c6f4f,testing,1M,113,ckdAmCKOb,0,0,True,458.0,didnt use a strategy
0,579e18fc4a84da00014c6f4f,testing,0M,114,kdaAJKDPA,1,0,False,381.0,didnt use a strategy
0,579e18fc4a84da00014c6f4f,testing,2M,115,cDOEBAOUl,1,1,True,370.0,didnt use a strategy
0,579e18fc4a84da00014c6f4f,testing,1M,116,hBmMClvk,0,1,False,358.0,didnt use a strategy
0,579e18fc4a84da00014c6f4f,testing,1M,117,NaAQdlGc,0,0,True,382.0,didnt use a strategy
0,579e18fc4a84da00014c6f4f,testing,2M,118,UAcduAOUl,0,0,True,338.0,didnt use a strategy
0,579e18fc4a84da00014c6f4f,testing,2M,119,kPkRAYArG,1,1,True,356.0,didnt use a strategy
0,579e18fc4a84da00014c6f4f,testing,1M,120,RlAKccthB,0,1,False,317.0,didnt use a strategy
0,5b6aa4aa0d748b0001fb5260,testing,1M,1,KlkDJUG,0,0,True,4185.0,"When there was many quite the same symbols i think that they were from different aliens. From what i saw in block of words several time, is they were quite unique in one sentence"
0,5b6aa4aa0d748b0001fb5260,testing,2M,2,AlTdDlDT,0,0,True,984.0,"When there was many quite the same symbols i think that they were from different aliens. From what i saw in block of words several time, is they were quite unique in one sentence"
0,5b6aa4aa0d748b0001fb5260,testing,0M,3,ALOrldUr,1,0,False,880.0,"When there was many quite the same symbols i think that they were from different aliens. From what i saw in block of words several time, is they were quite unique in one sentence"
0,5b6aa4aa0d748b0001fb5260,testing,2M,4,adYrcYaOk,0,0,True,638.0,"When there was many quite the same symbols i think that they were from different aliens. From what i saw in block of words several time, is they were quite unique in one sentence"
0,5b6aa4aa0d748b0001fb5260,testing,1M,5,dGLAlRDM,0,0,True,673.0,"When there was many quite the same symbols i think that they were from different aliens. From what i saw in block of words several time, is they were quite unique in one sentence"
0,5b6aa4aa0d748b0001fb5260,testing,1M,6,tmAKDlDd,0,0,True,758.0,"When there was many quite the same symbols i think that they were from different aliens. From what i saw in block of words several time, is they were quite unique in one sentence"
0,5b6aa4aa0d748b0001fb5260,testing,1M,7,KElBcAZu,0,0,True,511.0,"When there was many quite the same symbols i think that they were from different aliens. From what i saw in block of words several time, is they were quite unique in one sentence"
0,5b6aa4aa0d748b0001fb5260,testing,2M,8,hmKPMYaum,1,0,False,720.0,"When there was many quite the same symbols i think that they were from different aliens. From what i saw in block of words several time, is they were quite unique in one sentence"
0,5b6aa4aa0d748b0001fb5260,testing,0M,9,dkLlRhPm,1,0,False,656.0,"When there was many quite the same symbols i think that they were from different aliens. From what i saw in block of words several time, is they were quite unique in one sentence"
0,5b6aa4aa0d748b0001fb5260,testing,2M,10,laYmrDlDT,1,0,False,592.0,"When there was many quite the same symbols i think that they were from different aliens. From what i saw in block of words several time, is they were quite unique in one sentence"
0,5b6aa4aa0d748b0001fb5260,testing,0M,11,mKcDEAO,1,0,False,1224.0,"When there was many quite the same symbols i think that they were from different aliens. From what i saw in block of words several time, is they were quite unique in one sentence"
0,5b6aa4aa0d748b0001fb5260,testing,1M,12,LUOkDlDT,0,0,True,448.0,"When there was many quite the same symbols i think that they were from different aliens. From what i saw in block of words several time, is they were quite unique in one sentence"
0,5b6aa4aa0d748b0001fb5260,testing,2M,13,KMDYtJUG,1,0,False,816.0,"When there was many quite the same symbols i think that they were from different aliens. From what i saw in block of words several time, is they were quite unique in one sentence"
0,5b6aa4aa0d748b0001fb5260,testing,1M,14,BlmclDlDT,0,0,True,944.0,"When there was many quite the same symbols i think that they were from different aliens. From what i saw in block of words several time, is they were quite unique in one sentence"
0,5b6aa4aa0d748b0001fb5260,testing,0M,15,QOLmumdkK,1,0,False,1119.0,"When there was many quite the same symbols i think that they were from different aliens. From what i saw in block of words several time, is they were quite unique in one sentence"
0,5b6aa4aa0d748b0001fb5260,testing,2M,16,YQbcYaum,0,0,True,1137.0,"When there was many quite the same symbols i think that they were from different aliens. From what i saw in block of words several time, is they were quite unique in one sentence"
0,5b6aa4aa0d748b0001fb5260,testing,0M,17,RdPtDTRkY,1,0,False,985.0,"When there was many quite the same symbols i think that they were from different aliens. From what i saw in block of words several time, is they were quite unique in one sentence"
0,5b6aa4aa0d748b0001fb5260,testing,1M,18,ZkGmYYZJO,0,0,True,1086.0,"When there was many quite the same symbols i think that they were from different aliens. From what i saw in block of words several time, is they were quite unique in one sentence"
0,5b6aa4aa0d748b0001fb5260,testing,0M,19,NaJbOQAr,1,1,True,1257.0,"When there was many quite the same symbols i think that they were from different aliens. From what i saw in block of words several time, is they were quite unique in one sentence"
0,5b6aa4aa0d748b0001fb5260,testing,0M,20,QcladNJZl,1,0,False,640.0,"When there was many quite the same symbols i think that they were from different aliens. From what i saw in block of words several time, is they were quite unique in one sentence"
0,5b6aa4aa0d748b0001fb5260,testing,2M,21,vmuLlYaOk,0,0,True,1238.0,"When there was many quite the same symbols i think that they were from different aliens. From what i saw in block of words several time, is they were quite unique in one sentence"
0,5b6aa4aa0d748b0001fb5260,testing,2M,22,hmKPMbRC,0,0,True,1112.0,"When there was many quite the same symbols i think that they were from different aliens. From what i saw in block of words several time, is they were quite unique in one sentence"
0,5b6aa4aa0d748b0001fb5260,testing,0M,23,KRARmmvG,1,1,True,1008.0,"When there was many quite the same symbols i think that they were from different aliens. From what i saw in block of words several time, is they were quite unique in one sentence"
0,5b6aa4aa0d748b0001fb5260,testing,2M,24,JrGvNmAG,0,0,True,1240.0,"When there was many quite the same symbols i think that they were from different aliens. From what i saw in block of words several time, is they were quite unique in one sentence"
0,5b6aa4aa0d748b0001fb5260,testing,0M,25,cYUvOMlT,1,0,False,832.0,"When there was many quite the same symbols i think that they were from different aliens. From what i saw in block of words several time, is they were quite unique in one sentence"
0,5b6aa4aa0d748b0001fb5260,testing,0M,26,lrZGmtKP,1,0,False,1295.0,"When there was many quite the same symbols i think that they were from different aliens. From what i saw in block of words several time, is they were quite unique in one sentence"
0,5b6aa4aa0d748b0001fb5260,testing,2M,27,laYmrNmAG,0,1,False,1026.0,"When there was many quite the same symbols i think that they were from different aliens. From what i saw in block of words several time, is they were quite unique in one sentence"
0,5b6aa4aa0d748b0001fb5260,testing,1M,28,ckduAkJdr,0,0,True,1462.0,"When there was many quite the same symbols i think that they were from different aliens. From what i saw in block of words several time, is they were quite unique in one sentence"
0,5b6aa4aa0d748b0001fb5260,testing,1M,29,AmaclYmb,0,0,True,872.0,"When there was many quite the same symbols i think that they were from different aliens. From what i saw in block of words several time, is they were quite unique in one sentence"
0,5b6aa4aa0d748b0001fb5260,testing,1M,30,kCRmNmAG,0,1,False,968.0,"When there was many quite the same symbols i think that they were from different aliens. From what i saw in block of words several time, is they were quite unique in one sentence"
0,5b6aa4aa0d748b0001fb5260,testing,1M,31,hmKPMmhc,0,1,False,1144.0,"When there was many quite the same symbols i think that they were from different aliens. From what i saw in block of words several time, is they were quite unique in one sentence"
0,5b6aa4aa0d748b0001fb5260,testing,2M,32,AlTdNmAG,1,0,False,920.0,"When there was many quite the same symbols i think that they were from different aliens. From what i saw in block of words several time, is they were quite unique in one sentence"
0,5b6aa4aa0d748b0001fb5260,testing,1M,33,hTtBbYaum,0,1,False,879.0,"When there was many quite the same symbols i think that they were from different aliens. From what i saw in block of words several time, is they were quite unique in one sentence"
0,5b6aa4aa0d748b0001fb5260,testing,1M,34,YQbcctkt,0,1,False,776.0,"When there was many quite the same symbols i think that they were from different aliens. From what i saw in block of words several time, is they were quite unique in one sentence"
0,5b6aa4aa0d748b0001fb5260,testing,0M,35,bvkrYArG,1,0,False,911.0,"When there was many quite the same symbols i think that they were from different aliens. From what i saw in block of words several time, is they were quite unique in one sentence"
0,5b6aa4aa0d748b0001fb5260,testing,2M,36,hAROKDOk,0,1,False,880.0,"When there was many quite the same symbols i think that they were from different aliens. From what i saw in block of words several time, is they were quite unique in one sentence"
0,5b6aa4aa0d748b0001fb5260,testing,1M,37,BYhTNmAG,0,0,True,1089.0,"When there was many quite the same symbols i think that they were from different aliens. From what i saw in block of words several time, is they were quite unique in one sentence"
0,5b6aa4aa0d748b0001fb5260,testing,2M,38,TEBKbRC,0,0,True,1102.0,"When there was many quite the same symbols i think that they were from different aliens. From what i saw in block of words several time, is they were quite unique in one sentence"
0,5b6aa4aa0d748b0001fb5260,testing,1M,39,kLvdNEcR,0,0,True,728.0,"When there was many quite the same symbols i think that they were from different aliens. From what i saw in block of words several time, is they were quite unique in one sentence"
0,5b6aa4aa0d748b0001fb5260,testing,1M,40,RdCcYaum,0,0,True,1160.0,"When there was many quite the same symbols i think that they were from different aliens. From what i saw in block of words several time, is they were quite unique in one sentence"
0,5b6aa4aa0d748b0001fb5260,testing,1M,41,JZOAkYaOk,0,0,True,1080.0,"When there was many quite the same symbols i think that they were from different aliens. From what i saw in block of words several time, is they were quite unique in one sentence"
0,5b6aa4aa0d748b0001fb5260,testing,2M,42,YQbcbRC,1,1,True,1103.0,"When there was many quite the same symbols i think that they were from different aliens. From what i saw in block of words several time, is they were quite unique in one sentence"
0,5b6aa4aa0d748b0001fb5260,testing,0M,43,OAblckhmh,1,0,False,1265.0,"When there was many quite the same symbols i think that they were from different aliens. From what i saw in block of words several time, is they were quite unique in one sentence"
0,5b6aa4aa0d748b0001fb5260,testing,0M,44,kulZQONk,1,0,False,927.0,"When there was many quite the same symbols i think that they were from different aliens. From what i saw in block of words several time, is they were quite unique in one sentence"
0,5b6aa4aa0d748b0001fb5260,testing,0M,45,MBKRETRkY,1,1,True,848.0,"When there was many quite the same symbols i think that they were from different aliens. From what i saw in block of words several time, is they were quite unique in one sentence"
0,5b6aa4aa0d748b0001fb5260,testing,1M,46,lAOKMhBK,0,1,False,824.0,"When there was many quite the same symbols i think that they were from different aliens. From what i saw in block of words several time, is they were quite unique in one sentence"
0,5b6aa4aa0d748b0001fb5260,testing,0M,47,kdaAJTmc,1,0,False,802.0,"When there was many quite the same symbols i think that they were from different aliens. From what i saw in block of words several time, is they were quite unique in one sentence"
0,5b6aa4aa0d748b0001fb5260,testing,1M,48,JcUkYaOk,0,0,True,1317.0,"When there was many quite the same symbols i think that they were from different aliens. From what i saw in block of words several time, is they were quite unique in one sentence"
0,5b6aa4aa0d748b0001fb5260,testing,0M,49,ORbklvk,1,0,False,55.0,"When there was many quite the same symbols i think that they were from different aliens. From what i saw in block of words several time, is they were quite unique in one sentence"
0,5b6aa4aa0d748b0001fb5260,testing,2M,50,lAOKMYZJO,1,1,True,728.0,"When there was many quite the same symbols i think that they were from different aliens. From what i saw in block of words several time, is they were quite unique in one sentence"
0,5b6aa4aa0d748b0001fb5260,testing,1M,51,CkBOPCdt,0,0,True,688.0,"When there was many quite the same symbols i think that they were from different aliens. From what i saw in block of words several time, is they were quite unique in one sentence"
0,5b6aa4aa0d748b0001fb5260,testing,0M,52,kPkRAlMck,1,0,False,1136.0,"When there was many quite the same symbols i think that they were from different aliens. From what i saw in block of words several time, is they were quite unique in one sentence"
0,5b6aa4aa0d748b0001fb5260,testing,2M,53,tmAKDlDT,0,0,True,728.0,"When there was many quite the same symbols i think that they were from different aliens. From what i saw in block of words several time, is they were quite unique in one sentence"
0,5b6aa4aa0d748b0001fb5260,testing,2M,54,AmaclJUG,0,0,True,1312.0,"When there was many quite the same symbols i think that they were from different aliens. From what i saw in block of words several time, is they were quite unique in one sentence"
0,5b6aa4aa0d748b0001fb5260,testing,2M,55,hAROKYZJO,1,1,True,759.0,"When there was many quite the same symbols i think that they were from different aliens. From what i saw in block of words several time, is they were quite unique in one sentence"
0,5b6aa4aa0d748b0001fb5260,testing,0M,56,ECtbDJcL,1,1,True,1096.0,"When there was many quite the same symbols i think that they were from different aliens. From what i saw in block of words several time, is they were quite unique in one sentence"
0,5b6aa4aa0d748b0001fb5260,testing,2M,57,tmAKNmAG,1,1,True,791.0,"When there was many quite the same symbols i think that they were from different aliens. From what i saw in block of words several time, is they were quite unique in one sentence"
0,5b6aa4aa0d748b0001fb5260,testing,0M,58,rkJuGZJY,1,1,True,751.0,"When there was many quite the same symbols i think that they were from different aliens. From what i saw in block of words several time, is they were quite unique in one sentence"
0,5b6aa4aa0d748b0001fb5260,testing,2M,59,YadrYZJO,0,0,True,865.0,"When there was many quite the same symbols i think that they were from different aliens. From what i saw in block of words several time, is they were quite unique in one sentence"
0,5b6aa4aa0d748b0001fb5260,testing,2M,60,ckduADOk,1,0,False,950.0,"When there was many quite the same symbols i think that they were from different aliens. From what i saw in block of words several time, is they were quite unique in one sentence"
0,5b6aa4aa0d748b0001fb5260,testing,0M,61,tKDmhRKYk,1,1,True,616.0,"When there was many quite the same symbols i think that they were from different aliens. From what i saw in block of words several time, is they were quite unique in one sentence"
0,5b6aa4aa0d748b0001fb5260,testing,0M,62,YObAQONk,1,1,True,599.0,"When there was many quite the same symbols i think that they were from different aliens. From what i saw in block of words several time, is they were quite unique in one sentence"
0,5b6aa4aa0d748b0001fb5260,testing,2M,63,rvOvUbRC,1,0,False,551.0,"When there was many quite the same symbols i think that they were from different aliens. From what i saw in block of words several time, is they were quite unique in one sentence"
0,5b6aa4aa0d748b0001fb5260,testing,1M,64,YlCPBkMEC,0,0,True,584.0,"When there was many quite the same symbols i think that they were from different aliens. From what i saw in block of words several time, is they were quite unique in one sentence"
0,5b6aa4aa0d748b0001fb5260,testing,0M,65,bdtKTRK,1,1,True,1104.0,"When there was many quite the same symbols i think that they were from different aliens. From what i saw in block of words several time, is they were quite unique in one sentence"
0,5b6aa4aa0d748b0001fb5260,testing,1M,66,AlTdtdDd,0,1,False,735.0,"When there was many quite the same symbols i think that they were from different aliens. From what i saw in block of words several time, is they were quite unique in one sentence"
0,5b6aa4aa0d748b0001fb5260,testing,0M,67,rckOATc,1,1,True,671.0,"When there was many quite the same symbols i think that they were from different aliens. From what i saw in block of words several time, is they were quite unique in one sentence"
0,5b6aa4aa0d748b0001fb5260,testing,1M,68,vmuLlrkYL,0,0,True,743.0,"When there was many quite the same symbols i think that they were from different aliens. From what i saw in block of words several time, is they were quite unique in one sentence"
0,5b6aa4aa0d748b0001fb5260,testing,1M,69,adYrcvUdm,0,0,True,608.0,"When there was many quite the same symbols i think that they were from different aliens. From what i saw in block of words several time, is they were quite unique in one sentence"
0,5b6aa4aa0d748b0001fb5260,testing,1M,70,NvuGrYZJO,0,1,False,848.0,"When there was many quite the same symbols i think that they were from different aliens. From what i saw in block of words several time, is they were quite unique in one sentence"
0,5b6aa4aa0d748b0001fb5260,testing,1M,71,rvOvUkcOY,0,1,False,719.0,"When there was many quite the same symbols i think that they were from different aliens. From what i saw in block of words several time, is they were quite unique in one sentence"
0,5b6aa4aa0d748b0001fb5260,testing,0M,72,kPkRAmCd,1,0,False,775.0,"When there was many quite the same symbols i think that they were from different aliens. From what i saw in block of words several time, is they were quite unique in one sentence"
0,5b6aa4aa0d748b0001fb5260,testing,1M,73,lkAkDOk,0,1,False,769.0,"When there was many quite the same symbols i think that they were from different aliens. From what i saw in block of words several time, is they were quite unique in one sentence"
0,5b6aa4aa0d748b0001fb5260,testing,2M,74,KMDYtkMEC,0,0,True,1126.0,"When there was many quite the same symbols i think that they were from different aliens. From what i saw in block of words several time, is they were quite unique in one sentence"
0,5b6aa4aa0d748b0001fb5260,testing,2M,75,rvOvUYaum,0,1,False,872.0,"When there was many quite the same symbols i think that they were from different aliens. From what i saw in block of words several time, is they were quite unique in one sentence"
0,5b6aa4aa0d748b0001fb5260,testing,0M,76,PEkhAtcB,1,1,True,719.0,"When there was many quite the same symbols i think that they were from different aliens. From what i saw in block of words several time, is they were quite unique in one sentence"
0,5b6aa4aa0d748b0001fb5260,testing,2M,77,adYrcEcR,1,0,False,734.0,"When there was many quite the same symbols i think that they were from different aliens. From what i saw in block of words several time, is they were quite unique in one sentence"
0,5b6aa4aa0d748b0001fb5260,testing,0M,78,QcladABb,1,1,True,798.0,"When there was many quite the same symbols i think that they were from different aliens. From what i saw in block of words several time, is they were quite unique in one sentence"
0,5b6aa4aa0d748b0001fb5260,testing,2M,79,JrGvDlDT,1,1,True,679.0,"When there was many quite the same symbols i think that they were from different aliens. From what i saw in block of words several time, is they were quite unique in one sentence"
0,5b6aa4aa0d748b0001fb5260,testing,0M,80,advYOLcO,1,0,False,599.0,"When there was many quite the same symbols i think that they were from different aliens. From what i saw in block of words several time, is they were quite unique in one sentence"
0,5b6aa4aa0d748b0001fb5260,testing,2M,81,TdmAYaOk,1,0,False,735.0,"When there was many quite the same symbols i think that they were from different aliens. From what i saw in block of words several time, is they were quite unique in one sentence"
0,5b6aa4aa0d748b0001fb5260,testing,2M,82,vmuLlEcR,1,0,False,942.0,"When there was many quite the same symbols i think that they were from different aliens. From what i saw in block of words several time, is they were quite unique in one sentence"
0,5b6aa4aa0d748b0001fb5260,testing,0M,83,DRPkYYNu,1,1,True,672.0,"When there was many quite the same symbols i think that they were from different aliens. From what i saw in block of words several time, is they were quite unique in one sentence"
0,5b6aa4aa0d748b0001fb5260,testing,2M,84,CkBOPYaOk,1,1,True,663.0,"When there was many quite the same symbols i think that they were from different aliens. From what i saw in block of words several time, is they were quite unique in one sentence"
0,5b6aa4aa0d748b0001fb5260,testing,0M,85,DBklYObA,1,0,False,959.0,"When there was many quite the same symbols i think that they were from different aliens. From what i saw in block of words several time, is they were quite unique in one sentence"
0,5b6aa4aa0d748b0001fb5260,testing,1M,86,OYuvbbRC,0,1,False,689.0,"When there was many quite the same symbols i think that they were from different aliens. From what i saw in block of words several time, is they were quite unique in one sentence"
0,5b6aa4aa0d748b0001fb5260,testing,2M,87,TEBKYaum,1,1,True,653.0,"When there was many quite the same symbols i think that they were from different aliens. From what i saw in block of words several time, is they were quite unique in one sentence"
0,5b6aa4aa0d748b0001fb5260,testing,0M,88,LckGNOZkb,1,1,True,655.0,"When there was many quite the same symbols i think that they were from different aliens. From what i saw in block of words several time, is they were quite unique in one sentence"
0,5b6aa4aa0d748b0001fb5260,testing,1M,89,hAROKYDE,0,0,True,951.0,"When there was many quite the same symbols i think that they were from different aliens. From what i saw in block of words several time, is they were quite unique in one sentence"
0,5b6aa4aa0d748b0001fb5260,testing,2M,90,CkBOPEcR,0,1,False,607.0,"When there was many quite the same symbols i think that they were from different aliens. From what i saw in block of words several time, is they were quite unique in one sentence"
0,5b6aa4aa0d748b0001fb5260,testing,2M,91,YadrDOk,1,0,False,1015.0,"When there was many quite the same symbols i think that they were from different aliens. From what i saw in block of words several time, is they were quite unique in one sentence"
0,5b6aa4aa0d748b0001fb5260,testing,0M,92,EYtYRBPAl,1,0,False,887.0,"When there was many quite the same symbols i think that they were from different aliens. From what i saw in block of words several time, is they were quite unique in one sentence"
0,5b6aa4aa0d748b0001fb5260,testing,2M,93,lAOKMDOk,0,0,True,703.0,"When there was many quite the same symbols i think that they were from different aliens. From what i saw in block of words several time, is they were quite unique in one sentence"
0,5b6aa4aa0d748b0001fb5260,testing,1M,94,ktBdbRC,0,0,True,1023.0,"When there was many quite the same symbols i think that they were from different aliens. From what i saw in block of words several time, is they were quite unique in one sentence"
0,5b6aa4aa0d748b0001fb5260,testing,0M,95,dRhtJcL,1,1,True,846.0,"When there was many quite the same symbols i think that they were from different aliens. From what i saw in block of words several time, is they were quite unique in one sentence"
0,5b6aa4aa0d748b0001fb5260,testing,1M,96,TCbDCDOk,0,0,True,991.0,"When there was many quite the same symbols i think that they were from different aliens. From what i saw in block of words several time, is they were quite unique in one sentence"
0,5b6aa4aa0d748b0001fb5260,testing,0M,97,bNdmGLcO,1,1,True,638.0,"When there was many quite the same symbols i think that they were from different aliens. From what i saw in block of words several time, is they were quite unique in one sentence"
0,5b6aa4aa0d748b0001fb5260,testing,0M,98,damYbRCdc,1,1,True,1056.0,"When there was many quite the same symbols i think that they were from different aliens. From what i saw in block of words several time, is they were quite unique in one sentence"
0,5b6aa4aa0d748b0001fb5260,testing,1M,99,kbmZOJUG,0,1,False,1189.0,"When there was many quite the same symbols i think that they were from different aliens. From what i saw in block of words several time, is they were quite unique in one sentence"
0,5b6aa4aa0d748b0001fb5260,testing,1M,100,TdmAkam,0,1,False,823.0,"When there was many quite the same symbols i think that they were from different aliens. From what i saw in block of words several time, is they were quite unique in one sentence"
0,5b6aa4aa0d748b0001fb5260,testing,2M,101,KElBJUG,1,1,True,791.0,"When there was many quite the same symbols i think that they were from different aliens. From what i saw in block of words several time, is they were quite unique in one sentence"
0,5b6aa4aa0d748b0001fb5260,testing,0M,102,DRPkYmbZl,1,0,False,815.0,"When there was many quite the same symbols i think that they were from different aliens. From what i saw in block of words several time, is they were quite unique in one sentence"
0,5b6aa4aa0d748b0001fb5260,testing,2M,103,dGLAlJUG,0,0,True,895.0,"When there was many quite the same symbols i think that they were from different aliens. From what i saw in block of words several time, is they were quite unique in one sentence"
0,5b6aa4aa0d748b0001fb5260,testing,2M,104,KElBkMEC,0,1,False,887.0,"When there was many quite the same symbols i think that they were from different aliens. From what i saw in block of words several time, is they were quite unique in one sentence"
0,5b6aa4aa0d748b0001fb5260,testing,0M,105,UdlGQKMOc,1,0,False,855.0,"When there was many quite the same symbols i think that they were from different aliens. From what i saw in block of words several time, is they were quite unique in one sentence"
0,5b6aa4aa0d748b0001fb5260,testing,1M,106,TEBKrba,0,1,False,887.0,"When there was many quite the same symbols i think that they were from different aliens. From what i saw in block of words several time, is they were quite unique in one sentence"
0,5b6aa4aa0d748b0001fb5260,testing,1M,107,laYmrBECk,0,0,True,607.0,"When there was many quite the same symbols i think that they were from different aliens. From what i saw in block of words several time, is they were quite unique in one sentence"
0,5b6aa4aa0d748b0001fb5260,testing,1M,108,KMDYtukcY,0,0,True,862.0,"When there was many quite the same symbols i think that they were from different aliens. From what i saw in block of words several time, is they were quite unique in one sentence"
0,5b6aa4aa0d748b0001fb5260,testing,0M,109,OJNkkuvb,1,0,False,854.0,"When there was many quite the same symbols i think that they were from different aliens. From what i saw in block of words several time, is they were quite unique in one sentence"
0,5b6aa4aa0d748b0001fb5260,testing,2M,110,TdmAEcR,0,1,False,856.0,"When there was many quite the same symbols i think that they were from different aliens. From what i saw in block of words several time, is they were quite unique in one sentence"
0,5b6aa4aa0d748b0001fb5260,testing,2M,111,dGLAlkMEC,1,0,False,374.0,"When there was many quite the same symbols i think that they were from different aliens. From what i saw in block of words several time, is they were quite unique in one sentence"
0,5b6aa4aa0d748b0001fb5260,testing,1M,112,YadruOAO,0,0,True,887.0,"When there was many quite the same symbols i think that they were from different aliens. From what i saw in block of words several time, is they were quite unique in one sentence"
0,5b6aa4aa0d748b0001fb5260,testing,2M,113,ckduAYZJO,0,1,False,959.0,"When there was many quite the same symbols i think that they were from different aliens. From what i saw in block of words several time, is they were quite unique in one sentence"
0,5b6aa4aa0d748b0001fb5260,testing,0M,114,kGuaTKDk,1,0,False,662.0,"When there was many quite the same symbols i think that they were from different aliens. From what i saw in block of words several time, is they were quite unique in one sentence"
0,5b6aa4aa0d748b0001fb5260,testing,1M,115,JrGvUrOQ,0,0,True,622.0,"When there was many quite the same symbols i think that they were from different aliens. From what i saw in block of words several time, is they were quite unique in one sentence"
0,5b6aa4aa0d748b0001fb5260,testing,0M,116,NLQGmLcO,1,1,True,711.0,"When there was many quite the same symbols i think that they were from different aliens. From what i saw in block of words several time, is they were quite unique in one sentence"
0,5b6aa4aa0d748b0001fb5260,testing,1M,117,kMbTRkMEC,0,1,False,655.0,"When there was many quite the same symbols i think that they were from different aliens. From what i saw in block of words several time, is they were quite unique in one sentence"
0,5b6aa4aa0d748b0001fb5260,testing,0M,118,ckLALTklD,1,1,True,606.0,"When there was many quite the same symbols i think that they were from different aliens. From what i saw in block of words several time, is they were quite unique in one sentence"
0,5b6aa4aa0d748b0001fb5260,testing,2M,119,AmaclkMEC,1,1,True,583.0,"When there was many quite the same symbols i think that they were from different aliens. From what i saw in block of words several time, is they were quite unique in one sentence"
0,5b6aa4aa0d748b0001fb5260,testing,1M,120,OmtlDEcR,0,0,True,974.0,"When there was many quite the same symbols i think that they were from different aliens. From what i saw in block of words several time, is they were quite unique in one sentence"
0,5c1a6bd8f9250d0001b7c589,testing,1M,1,GumLlTmTm,0,0,True,1855.0,recognised words with letters used multiple times
0,5c1a6bd8f9250d0001b7c589,testing,2M,2,KDPATRK,0,0,True,828.0,recognised words with letters used multiple times
0,5c1a6bd8f9250d0001b7c589,testing,0M,3,CDEmYPMd,1,1,True,1067.0,recognised words with letters used multiple times
0,5c1a6bd8f9250d0001b7c589,testing,0M,4,lhCTCCYPc,1,1,True,695.0,recognised words with letters used multiple times
0,5c1a6bd8f9250d0001b7c589,testing,2M,5,uQuZcuUY,0,0,True,895.0,recognised words with letters used multiple times
0,5c1a6bd8f9250d0001b7c589,testing,2M,6,KABAOJlN,1,1,True,1046.0,recognised words with letters used multiple times
0,5c1a6bd8f9250d0001b7c589,testing,2M,7,OJGQdRA,1,0,False,822.0,recognised words with letters used multiple times
0,5c1a6bd8f9250d0001b7c589,testing,2M,8,kMbTRDlDT,0,0,True,797.0,recognised words with letters used multiple times
0,5c1a6bd8f9250d0001b7c589,testing,1M,9,dClOCOBT,0,0,True,954.0,recognised words with letters used multiple times
0,5c1a6bd8f9250d0001b7c589,testing,2M,10,TPCbTRK,0,1,False,741.0,recognised words with letters used multiple times
0,5c1a6bd8f9250d0001b7c589,testing,0M,11,mZUrQEcR,1,1,True,674.0,recognised words with letters used multiple times
0,5c1a6bd8f9250d0001b7c589,testing,2M,12,TPCbuUY,1,1,True,627.0,recognised words with letters used multiple times
0,5c1a6bd8f9250d0001b7c589,testing,1M,13,htmhCTRK,0,0,True,784.0,recognised words with letters used multiple times
0,5c1a6bd8f9250d0001b7c589,testing,2M,14,BATOcYLU,1,0,False,589.0,recognised words with letters used multiple times
0,5c1a6bd8f9250d0001b7c589,testing,0M,15,JmvmOOMC,1,0,False,819.0,recognised words with letters used multiple times
0,5c1a6bd8f9250d0001b7c589,testing,1M,16,AmaclkKE,0,1,False,795.0,recognised words with letters used multiple times
0,5c1a6bd8f9250d0001b7c589,testing,0M,17,UdvYJrGv,1,0,False,580.0,recognised words with letters used multiple times
0,5c1a6bd8f9250d0001b7c589,testing,1M,18,kabJbOcN,0,0,True,1345.0,recognised words with letters used multiple times
0,5c1a6bd8f9250d0001b7c589,testing,1M,19,mbZlTmTm,0,0,True,798.0,recognised words with letters used multiple times
0,5c1a6bd8f9250d0001b7c589,testing,1M,20,KBKBEOJlN,0,0,True,866.0,recognised words with letters used multiple times
0,5c1a6bd8f9250d0001b7c589,testing,0M,21,rbYbudEPD,1,1,True,628.0,recognised words with letters used multiple times
0,5c1a6bd8f9250d0001b7c589,testing,0M,22,dGLAlQGb,1,0,False,793.0,recognised words with letters used multiple times
0,5c1a6bd8f9250d0001b7c589,testing,2M,23,kGamNTmTm,1,1,True,607.0,recognised words with letters used multiple times
0,5c1a6bd8f9250d0001b7c589,testing,0M,24,BMEMAJcUk,1,1,True,590.0,recognised words with letters used multiple times
0,5c1a6bd8f9250d0001b7c589,testing,2M,25,GQrcTmTm,1,0,False,2396.0,recognised words with letters used multiple times
0,5c1a6bd8f9250d0001b7c589,testing,2M,26,bYGOZOJlN,0,0,True,639.0,recognised words with letters used multiple times
0,5c1a6bd8f9250d0001b7c589,testing,0M,27,TObCOYdud,1,0,False,678.0,recognised words with letters used multiple times
0,5c1a6bd8f9250d0001b7c589,testing,1M,28,DmAMEGUa,0,0,True,647.0,recognised words with letters used multiple times
0,5c1a6bd8f9250d0001b7c589,testing,1M,29,dJNruUY,0,1,False,610.0,recognised words with letters used multiple times
0,5c1a6bd8f9250d0001b7c589,testing,1M,30,OJGQAZbl,0,1,False,541.0,recognised words with letters used multiple times
0,5c1a6bd8f9250d0001b7c589,testing,1M,31,BdtACOZkb,0,0,True,529.0,recognised words with letters used multiple times
0,5c1a6bd8f9250d0001b7c589,testing,2M,32,DmAMEdRA,0,0,True,465.0,recognised words with letters used multiple times
0,5c1a6bd8f9250d0001b7c589,testing,2M,33,dClOCOcN,1,0,False,727.0,recognised words with letters used multiple times
0,5c1a6bd8f9250d0001b7c589,testing,0M,34,LAclAOQAr,1,0,False,516.0,recognised words with letters used multiple times
0,5c1a6bd8f9250d0001b7c589,testing,0M,35,hBmMCATc,1,1,True,516.0,recognised words with letters used multiple times
0,5c1a6bd8f9250d0001b7c589,testing,1M,36,QbkAcDhCP,0,0,True,724.0,recognised words with letters used multiple times
0,5c1a6bd8f9250d0001b7c589,testing,2M,37,DOBhYOcN,1,0,False,659.0,recognised words with letters used multiple times
0,5c1a6bd8f9250d0001b7c589,testing,2M,38,KDPAuUY,1,0,False,694.0,recognised words with letters used multiple times
0,5c1a6bd8f9250d0001b7c589,testing,1M,39,YuaNddRA,0,0,True,545.0,recognised words with letters used multiple times
0,5c1a6bd8f9250d0001b7c589,testing,0M,40,YUNkZmhtc,1,0,False,765.0,recognised words with letters used multiple times
0,5c1a6bd8f9250d0001b7c589,testing,2M,41,kMbTRkGua,1,0,False,709.0,recognised words with letters used multiple times
0,5c1a6bd8f9250d0001b7c589,testing,2M,42,AmaclOYK,1,1,True,728.0,recognised words with letters used multiple times
0,5c1a6bd8f9250d0001b7c589,testing,0M,43,LckGNOEPk,1,1,True,557.0,recognised words with letters used multiple times
0,5c1a6bd8f9250d0001b7c589,testing,1M,44,kMbTROdYP,0,0,True,680.0,recognised words with letters used multiple times
0,5c1a6bd8f9250d0001b7c589,testing,0M,45,ABPRBZdlO,1,0,False,652.0,recognised words with letters used multiple times
0,5c1a6bd8f9250d0001b7c589,testing,1M,46,rcmuvTRK,0,1,False,686.0,recognised words with letters used multiple times
0,5c1a6bd8f9250d0001b7c589,testing,1M,47,DOBhYvcb,0,0,True,573.0,recognised words with letters used multiple times
0,5c1a6bd8f9250d0001b7c589,testing,0M,48,bmdABLaA,1,1,True,675.0,recognised words with letters used multiple times
0,5c1a6bd8f9250d0001b7c589,testing,1M,49,RkmdCkGua,0,1,False,588.0,recognised words with letters used multiple times
0,5c1a6bd8f9250d0001b7c589,testing,0M,50,ZAUuJUG,1,1,True,689.0,recognised words with letters used multiple times
0,5c1a6bd8f9250d0001b7c589,testing,2M,51,BdtACYLU,1,0,False,922.0,recognised words with letters used multiple times
0,5c1a6bd8f9250d0001b7c589,testing,1M,52,ZvalvGlu,0,0,True,474.0,recognised words with letters used multiple times
0,5c1a6bd8f9250d0001b7c589,testing,0M,53,dmRbkPM,1,1,True,619.0,recognised words with letters used multiple times
0,5c1a6bd8f9250d0001b7c589,testing,1M,54,MlthOJlN,0,0,True,560.0,recognised words with letters used multiple times
0,5c1a6bd8f9250d0001b7c589,testing,2M,55,dClOCOYK,0,0,True,505.0,recognised words with letters used multiple times
0,5c1a6bd8f9250d0001b7c589,testing,0M,56,KlkDYmb,1,1,True,703.0,recognised words with letters used multiple times
0,5c1a6bd8f9250d0001b7c589,testing,2M,57,BdtACTmTm,0,0,True,684.0,recognised words with letters used multiple times
0,5c1a6bd8f9250d0001b7c589,testing,1M,58,mBmlADlDT,0,0,True,679.0,recognised words with letters used multiple times
0,5c1a6bd8f9250d0001b7c589,testing,1M,59,uQuZcvJQ,0,0,True,583.0,recognised words with letters used multiple times
0,5c1a6bd8f9250d0001b7c589,testing,2M,60,BATOcTmTm,0,0,True,600.0,recognised words with letters used multiple times
0,5c1a6bd8f9250d0001b7c589,testing,0M,61,OYuvbUmNJ,1,0,False,503.0,recognised words with letters used multiple times
0,5c1a6bd8f9250d0001b7c589,testing,2M,62,uQuZcTRK,1,0,False,1144.0,recognised words with letters used multiple times
0,5c1a6bd8f9250d0001b7c589,testing,0M,63,dOYmlkYL,1,1,True,890.0,recognised words with letters used multiple times
0,5c1a6bd8f9250d0001b7c589,testing,1M,64,hlctELdQv,0,0,True,583.0,recognised words with letters used multiple times
0,5c1a6bd8f9250d0001b7c589,testing,0M,65,kPkRAOMC,1,0,False,628.0,recognised words with letters used multiple times
0,5c1a6bd8f9250d0001b7c589,testing,1M,66,GQrcQru,0,0,True,719.0,recognised words with letters used multiple times
0,5c1a6bd8f9250d0001b7c589,testing,0M,67,ZdNmUAvdk,1,0,False,823.0,recognised words with letters used multiple times
0,5c1a6bd8f9250d0001b7c589,testing,1M,68,TPCbAPT,0,1,False,524.0,recognised words with letters used multiple times
0,5c1a6bd8f9250d0001b7c589,testing,0M,69,MkmEdEcR,1,1,True,722.0,recognised words with letters used multiple times
0,5c1a6bd8f9250d0001b7c589,testing,2M,70,OAmGrkGua,0,1,False,561.0,recognised words with letters used multiple times
0,5c1a6bd8f9250d0001b7c589,testing,2M,71,DmAMEOJlN,1,0,False,554.0,recognised words with letters used multiple times
0,5c1a6bd8f9250d0001b7c589,testing,1M,72,lBKtdRA,0,0,True,925.0,recognised words with letters used multiple times
0,5c1a6bd8f9250d0001b7c589,testing,0M,73,DOchlNac,1,0,False,451.0,recognised words with letters used multiple times
0,5c1a6bd8f9250d0001b7c589,testing,2M,74,GQrcYLU,0,1,False,485.0,recognised words with letters used multiple times
0,5c1a6bd8f9250d0001b7c589,testing,1M,75,DCmhuUY,0,1,False,527.0,recognised words with letters used multiple times
0,5c1a6bd8f9250d0001b7c589,testing,2M,76,kGamNYLU,0,0,True,613.0,recognised words with letters used multiple times
0,5c1a6bd8f9250d0001b7c589,testing,2M,77,bYGOZdRA,1,0,False,729.0,recognised words with letters used multiple times
0,5c1a6bd8f9250d0001b7c589,testing,2M,78,damYbOYK,1,1,True,419.0,recognised words with letters used multiple times
0,5c1a6bd8f9250d0001b7c589,testing,1M,79,kGamNcbm,0,1,False,487.0,recognised words with letters used multiple times
0,5c1a6bd8f9250d0001b7c589,testing,1M,80,NaAQdOYK,0,0,True,476.0,recognised words with letters used multiple times
0,5c1a6bd8f9250d0001b7c589,testing,1M,81,KABAmvG,0,0,True,488.0,recognised words with letters used multiple times
0,5c1a6bd8f9250d0001b7c589,testing,1M,82,dKDthYLU,0,0,True,466.0,recognised words with letters used multiple times
0,5c1a6bd8f9250d0001b7c589,testing,1M,83,KDPAJZr,0,0,True,648.0,recognised words with letters used multiple times
0,5c1a6bd8f9250d0001b7c589,testing,2M,84,hlctEkGua,1,1,True,576.0,recognised words with letters used multiple times
0,5c1a6bd8f9250d0001b7c589,testing,2M,85,ZvalvuUY,0,1,False,609.0,recognised words with letters used multiple times
0,5c1a6bd8f9250d0001b7c589,testing,1M,86,OdlNmYLU,0,0,True,730.0,recognised words with letters used multiple times
0,5c1a6bd8f9250d0001b7c589,testing,0M,87,COtBDMAB,1,1,True,700.0,recognised words with letters used multiple times
0,5c1a6bd8f9250d0001b7c589,testing,0M,88,cthBYDE,1,0,False,609.0,recognised words with letters used multiple times
0,5c1a6bd8f9250d0001b7c589,testing,1M,89,bYGOZMBmE,0,0,True,524.0,recognised words with letters used multiple times
0,5c1a6bd8f9250d0001b7c589,testing,2M,90,KABAdRA,0,1,False,723.0,recognised words with letters used multiple times
0,5c1a6bd8f9250d0001b7c589,testing,0M,91,TDKhMAB,1,0,False,545.0,recognised words with letters used multiple times
0,5c1a6bd8f9250d0001b7c589,testing,1M,92,BATOcEhbt,0,0,True,636.0,recognised words with letters used multiple times
0,5c1a6bd8f9250d0001b7c589,testing,0M,93,chEDOBbM,1,1,True,483.0,recognised words with letters used multiple times
0,5c1a6bd8f9250d0001b7c589,testing,0M,94,PDPhllTmO,1,1,True,674.0,recognised words with letters used multiple times
0,5c1a6bd8f9250d0001b7c589,testing,0M,95,AlUYkGlU,1,1,True,370.0,recognised words with letters used multiple times
0,5c1a6bd8f9250d0001b7c589,testing,0M,96,UAcduKmE,1,1,True,655.0,recognised words with letters used multiple times
0,5c1a6bd8f9250d0001b7c589,testing,0M,97,PMPtktAY,1,0,False,487.0,recognised words with letters used multiple times
0,5c1a6bd8f9250d0001b7c589,testing,2M,98,AmaclOcN,0,0,True,572.0,recognised words with letters used multiple times
0,5c1a6bd8f9250d0001b7c589,testing,2M,99,OJGQOJlN,0,1,False,539.0,recognised words with letters used multiple times
0,5c1a6bd8f9250d0001b7c589,testing,1M,100,mUOcOOYK,0,1,False,673.0,recognised words with letters used multiple times
0,5c1a6bd8f9250d0001b7c589,testing,0M,101,LOLkUaQr,1,0,False,569.0,recognised words with letters used multiple times
0,5c1a6bd8f9250d0001b7c589,testing,2M,102,OAmGrDlDT,1,0,False,548.0,recognised words with letters used multiple times
0,5c1a6bd8f9250d0001b7c589,testing,1M,103,AZaJckGua,0,1,False,334.0,recognised words with letters used multiple times
0,5c1a6bd8f9250d0001b7c589,testing,0M,104,YKRkkPM,1,1,True,793.0,recognised words with letters used multiple times
0,5c1a6bd8f9250d0001b7c589,testing,0M,105,kJdralJY,1,0,False,401.0,recognised words with letters used multiple times
0,5c1a6bd8f9250d0001b7c589,testing,2M,106,damYbOcN,0,0,True,523.0,recognised words with letters used multiple times
0,5c1a6bd8f9250d0001b7c589,testing,2M,107,ZvalvTRK,1,1,True,378.0,recognised words with letters used multiple times
0,5c1a6bd8f9250d0001b7c589,testing,0M,108,kRCkOPTl,1,0,False,472.0,recognised words with letters used multiple times
0,5c1a6bd8f9250d0001b7c589,testing,0M,109,amJmmAM,1,0,False,466.0,recognised words with letters used multiple times
0,5c1a6bd8f9250d0001b7c589,testing,2M,110,QbkAckGua,0,0,True,553.0,recognised words with letters used multiple times
0,5c1a6bd8f9250d0001b7c589,testing,1M,111,damYbOtM,0,0,True,511.0,recognised words with letters used multiple times
0,5c1a6bd8f9250d0001b7c589,testing,2M,112,hlctEDlDT,0,1,False,438.0,recognised words with letters used multiple times
0,5c1a6bd8f9250d0001b7c589,testing,2M,113,DOBhYOYK,0,1,False,352.0,recognised words with letters used multiple times
0,5c1a6bd8f9250d0001b7c589,testing,2M,114,QbkAcDlDT,1,1,True,502.0,recognised words with letters used multiple times
0,5c1a6bd8f9250d0001b7c589,testing,1M,115,OAmGrMTdY,0,0,True,557.0,recognised words with letters used multiple times
0,5c1a6bd8f9250d0001b7c589,testing,1M,116,hlbtbDlDT,0,0,True,894.0,recognised words with letters used multiple times
0,5c1a6bd8f9250d0001b7c589,testing,0M,117,UYZlZALGZ,1,1,True,414.0,recognised words with letters used multiple times
0,5c1a6bd8f9250d0001b7c589,testing,0M,118,CchtdYaum,1,0,False,584.0,recognised words with letters used multiple times
0,5c1a6bd8f9250d0001b7c589,testing,0M,119,rdLJaPED,1,1,True,611.0,recognised words with letters used multiple times
0,5c1a6bd8f9250d0001b7c589,testing,1M,120,TAdhMOcN,0,0,True,522.0,recognised words with letters used multiple times
0,5c437f6a4fe4f800016e3d52,testing,0M,1,bmdABtcB,1,1,True,2080.0,Tried to recall overall shape of the words
0,5c437f6a4fe4f800016e3d52,testing,0M,2,DOBhYEAO,1,0,False,869.0,Tried to recall overall shape of the words
0,5c437f6a4fe4f800016e3d52,testing,2M,3,ACcOOcN,1,0,False,1144.0,Tried to recall overall shape of the words
0,5c437f6a4fe4f800016e3d52,testing,0M,4,dkLlkBD,1,1,True,833.0,Tried to recall overall shape of the words
0,5c437f6a4fe4f800016e3d52,testing,2M,5,CDEmYZvkL,1,0,False,859.0,Tried to recall overall shape of the words
0,5c437f6a4fe4f800016e3d52,testing,1M,6,NbmQUTAm,0,0,True,934.0,Tried to recall overall shape of the words
0,5c437f6a4fe4f800016e3d52,testing,0M,7,ABPRBlGc,1,1,True,1106.0,Tried to recall overall shape of the words
0,5c437f6a4fe4f800016e3d52,testing,2M,8,mBbKcPK,0,0,True,1090.0,Tried to recall overall shape of the words
0,5c437f6a4fe4f800016e3d52,testing,0M,9,PlEKPED,1,1,True,1105.0,Tried to recall overall shape of the words
0,5c437f6a4fe4f800016e3d52,testing,0M,10,DBlhmKcD,1,0,False,905.0,Tried to recall overall shape of the words
0,5c437f6a4fe4f800016e3d52,testing,0M,11,rdLJaPMd,1,1,True,1074.0,Tried to recall overall shape of the words
0,5c437f6a4fe4f800016e3d52,testing,2M,12,JuamlrAm,0,1,False,1016.0,Tried to recall overall shape of the words
0,5c437f6a4fe4f800016e3d52,testing,0M,13,lKdbcTdmA,1,0,False,1264.0,Tried to recall overall shape of the words
0,5c437f6a4fe4f800016e3d52,testing,0M,14,hbmAOtM,1,1,True,876.0,Tried to recall overall shape of the words
0,5c437f6a4fe4f800016e3d52,testing,2M,15,mBbKJcUk,1,0,False,921.0,Tried to recall overall shape of the words
0,5c437f6a4fe4f800016e3d52,testing,0M,16,kdEdYQru,1,0,False,1031.0,Tried to recall overall shape of the words
0,5c437f6a4fe4f800016e3d52,testing,2M,17,NbacAcMRl,1,0,False,838.0,Tried to recall overall shape of the words
0,5c437f6a4fe4f800016e3d52,testing,2M,18,bcbMrAm,1,0,False,887.0,Tried to recall overall shape of the words
0,5c437f6a4fe4f800016e3d52,testing,0M,19,MBmEhBK,1,1,True,1170.0,Tried to recall overall shape of the words
0,5c437f6a4fe4f800016e3d52,testing,1M,20,QOLmuCmYA,0,0,True,757.0,Tried to recall overall shape of the words
0,5c437f6a4fe4f800016e3d52,testing,2M,21,NbmQUTbk,1,0,False,756.0,Tried to recall overall shape of the words
0,5c437f6a4fe4f800016e3d52,testing,0M,22,OZkbDmh,1,0,False,946.0,Tried to recall overall shape of the words
0,5c437f6a4fe4f800016e3d52,testing,0M,23,BYhTkGlU,1,1,True,797.0,Tried to recall overall shape of the words
0,5c437f6a4fe4f800016e3d52,testing,2M,24,hAROKZvkL,1,0,False,814.0,Tried to recall overall shape of the words
0,5c437f6a4fe4f800016e3d52,testing,1M,25,ACcOark,0,0,True,751.0,Tried to recall overall shape of the words
0,5c437f6a4fe4f800016e3d52,testing,1M,26,Mlthdmkv,0,0,True,794.0,Tried to recall overall shape of the words
0,5c437f6a4fe4f800016e3d52,testing,0M,27,YJLcAABb,1,1,True,1303.0,Tried to recall overall shape of the words
0,5c437f6a4fe4f800016e3d52,testing,2M,28,MlthGlu,1,0,False,948.0,Tried to recall overall shape of the words
0,5c437f6a4fe4f800016e3d52,testing,2M,29,hkRKOcN,1,0,False,877.0,Tried to recall overall shape of the words
0,5c437f6a4fe4f800016e3d52,testing,2M,30,NbmQUrAm,0,0,True,970.0,Tried to recall overall shape of the words
0,5c437f6a4fe4f800016e3d52,testing,2M,31,ObZbAOcN,0,0,True,1297.0,Tried to recall overall shape of the words
0,5c437f6a4fe4f800016e3d52,testing,2M,32,cBROBTbk,0,0,True,1017.0,Tried to recall overall shape of the words
0,5c437f6a4fe4f800016e3d52,testing,1M,33,rvUbTPOM,0,1,False,979.0,Tried to recall overall shape of the words
0,5c437f6a4fe4f800016e3d52,testing,2M,34,QbkAcJcUk,0,0,True,882.0,Tried to recall overall shape of the words
0,5c437f6a4fe4f800016e3d52,testing,0M,35,GZJYUrOQ,1,0,False,919.0,Tried to recall overall shape of the words
0,5c437f6a4fe4f800016e3d52,testing,2M,36,GAcYZvkL,0,0,True,1076.0,Tried to recall overall shape of the words
0,5c437f6a4fe4f800016e3d52,testing,0M,37,dCtMAmBYl,1,0,False,925.0,Tried to recall overall shape of the words
0,5c437f6a4fe4f800016e3d52,testing,1M,38,JvaAtRb,0,1,False,919.0,Tried to recall overall shape of the words
0,5c437f6a4fe4f800016e3d52,testing,0M,39,mUOcOArQu,1,0,False,762.0,Tried to recall overall shape of the words
0,5c437f6a4fe4f800016e3d52,testing,2M,40,QbkAccPK,1,0,False,964.0,Tried to recall overall shape of the words
0,5c437f6a4fe4f800016e3d52,testing,0M,41,NvuGrmLJ,1,1,True,867.0,Tried to recall overall shape of the words
0,5c437f6a4fe4f800016e3d52,testing,2M,42,KBKBEcPK,0,0,True,858.0,Tried to recall overall shape of the words
0,5c437f6a4fe4f800016e3d52,testing,1M,43,tKDmhDKP,0,0,True,941.0,Tried to recall overall shape of the words
0,5c437f6a4fe4f800016e3d52,testing,0M,44,YaumYJkb,1,1,True,920.0,Tried to recall overall shape of the words
0,5c437f6a4fe4f800016e3d52,testing,1M,45,OJlNcPK,0,0,True,942.0,Tried to recall overall shape of the words
0,5c437f6a4fe4f800016e3d52,testing,0M,46,GJGcZTmTm,1,0,False,1048.0,Tried to recall overall shape of the words
0,5c437f6a4fe4f800016e3d52,testing,1M,47,bYuQdmRb,0,1,False,905.0,Tried to recall overall shape of the words
0,5c437f6a4fe4f800016e3d52,testing,1M,48,kPOtOcN,0,0,True,898.0,Tried to recall overall shape of the words
0,5c437f6a4fe4f800016e3d52,testing,0M,49,OCmkJQA,1,1,True,1080.0,Tried to recall overall shape of the words
0,5c437f6a4fe4f800016e3d52,testing,1M,50,JmvmOZvkL,0,0,True,807.0,Tried to recall overall shape of the words
0,5c437f6a4fe4f800016e3d52,testing,2M,51,hAROKdmRb,0,1,False,934.0,Tried to recall overall shape of the words
0,5c437f6a4fe4f800016e3d52,testing,2M,52,MlthcMRl,0,0,True,749.0,Tried to recall overall shape of the words
0,5c437f6a4fe4f800016e3d52,testing,1M,53,NbacAGUa,0,1,False,1153.0,Tried to recall overall shape of the words
0,5c437f6a4fe4f800016e3d52,testing,1M,54,hkRKATc,0,1,False,1035.0,Tried to recall overall shape of the words
0,5c437f6a4fe4f800016e3d52,testing,2M,55,GAcYdmRb,1,0,False,999.0,Tried to recall overall shape of the words
0,5c437f6a4fe4f800016e3d52,testing,1M,56,ObZbAOMC,0,0,True,997.0,Tried to recall overall shape of the words
0,5c437f6a4fe4f800016e3d52,testing,0M,57,hlctEYbN,1,1,True,876.0,Tried to recall overall shape of the words
0,5c437f6a4fe4f800016e3d52,testing,2M,58,NbacAGlu,0,0,True,994.0,Tried to recall overall shape of the words
0,5c437f6a4fe4f800016e3d52,testing,0M,59,GLYrATRK,1,0,False,1026.0,Tried to recall overall shape of the words
0,5c437f6a4fe4f800016e3d52,testing,1M,60,CkbdGlu,0,1,False,875.0,Tried to recall overall shape of the words
0,5c437f6a4fe4f800016e3d52,testing,1M,61,JUNacMRl,0,1,False,1009.0,Tried to recall overall shape of the words
0,5c437f6a4fe4f800016e3d52,testing,1M,62,lGZvJZr,0,1,False,1032.0,Tried to recall overall shape of the words
0,5c437f6a4fe4f800016e3d52,testing,1M,63,cBROBrba,0,1,False,1340.0,Tried to recall overall shape of the words
0,5c437f6a4fe4f800016e3d52,testing,0M,64,CtmbLuNZ,1,1,True,1186.0,Tried to recall overall shape of the words
0,5c437f6a4fe4f800016e3d52,testing,2M,65,lGZvDKP,1,1,True,1208.0,Tried to recall overall shape of the words
0,5c437f6a4fe4f800016e3d52,testing,0M,66,ZJLmrcUN,1,1,True,1361.0,Tried to recall overall shape of the words
0,5c437f6a4fe4f800016e3d52,testing,2M,67,ObZbADKP,1,0,False,777.0,Tried to recall overall shape of the words
0,5c437f6a4fe4f800016e3d52,testing,0M,68,MkmEddNZA,1,0,False,1083.0,Tried to recall overall shape of the words
0,5c437f6a4fe4f800016e3d52,testing,1M,69,rvOvUdmRb,0,0,True,1061.0,Tried to recall overall shape of the words
0,5c437f6a4fe4f800016e3d52,testing,1M,70,cYUvOcN,0,0,True,1127.0,Tried to recall overall shape of the words
0,5c437f6a4fe4f800016e3d52,testing,1M,71,Juamlvcb,0,0,True,1113.0,Tried to recall overall shape of the words
0,5c437f6a4fe4f800016e3d52,testing,2M,72,cBROBrAm,1,0,False,1551.0,Tried to recall overall shape of the words
0,5c437f6a4fe4f800016e3d52,testing,1M,73,CDEmYAlKD,0,1,False,904.0,Tried to recall overall shape of the words
0,5c437f6a4fe4f800016e3d52,testing,2M,74,JuamlTbk,1,0,False,1269.0,Tried to recall overall shape of the words
0,5c437f6a4fe4f800016e3d52,testing,1M,75,dRbDbcPK,0,0,True,958.0,Tried to recall overall shape of the words
0,5c437f6a4fe4f800016e3d52,testing,1M,76,EltMBkZUb,0,0,True,995.0,Tried to recall overall shape of the words
0,5c437f6a4fe4f800016e3d52,testing,0M,77,muYNTRK,1,1,True,927.0,Tried to recall overall shape of the words
0,5c437f6a4fe4f800016e3d52,testing,0M,78,ckduAlkAk,1,1,True,988.0,Tried to recall overall shape of the words
0,5c437f6a4fe4f800016e3d52,testing,1M,79,mdkKJcUk,0,0,True,1079.0,Tried to recall overall shape of the words
0,5c437f6a4fe4f800016e3d52,testing,0M,80,EYtYRdEPD,1,0,False,842.0,Tried to recall overall shape of the words
0,5c437f6a4fe4f800016e3d52,testing,0M,81,hTDdYDE,1,1,True,874.0,Tried to recall overall shape of the words
0,5c437f6a4fe4f800016e3d52,testing,1M,82,McMDrAm,0,1,False,850.0,Tried to recall overall shape of the words
0,5c437f6a4fe4f800016e3d52,testing,2M,83,CDEmYdmRb,0,0,True,785.0,Tried to recall overall shape of the words
0,5c437f6a4fe4f800016e3d52,testing,0M,84,btlckkYL,1,1,True,857.0,Tried to recall overall shape of the words
0,5c437f6a4fe4f800016e3d52,testing,0M,85,UdYUQAbka,1,1,True,936.0,Tried to recall overall shape of the words
0,5c437f6a4fe4f800016e3d52,testing,2M,86,KBKBEJcUk,1,0,False,1061.0,Tried to recall overall shape of the words
0,5c437f6a4fe4f800016e3d52,testing,2M,87,bcbMTbk,0,0,True,921.0,Tried to recall overall shape of the words
0,5c437f6a4fe4f800016e3d52,testing,2M,88,EltMBGlu,1,0,False,1298.0,Tried to recall overall shape of the words
0,5c437f6a4fe4f800016e3d52,testing,1M,89,OAmAdrAm,0,1,False,1222.0,Tried to recall overall shape of the words
0,5c437f6a4fe4f800016e3d52,testing,1M,90,KBKBEaQr,0,0,True,924.0,Tried to recall overall shape of the words
0,5c437f6a4fe4f800016e3d52,testing,1M,91,QbkAcMDKP,0,0,True,1356.0,Tried to recall overall shape of the words
0,5c437f6a4fe4f800016e3d52,testing,0M,92,GLluAOYK,1,0,False,1323.0,Tried to recall overall shape of the words
0,5c437f6a4fe4f800016e3d52,testing,1M,93,PMPtkZvkL,0,0,True,1149.0,Tried to recall overall shape of the words
0,5c437f6a4fe4f800016e3d52,testing,1M,94,BdtACGlu,0,1,False,1093.0,Tried to recall overall shape of the words
0,5c437f6a4fe4f800016e3d52,testing,2M,95,JvaAcMRl,1,0,False,818.0,Tried to recall overall shape of the words
0,5c437f6a4fe4f800016e3d52,testing,1M,96,bcbMPTl,0,1,False,990.0,Tried to recall overall shape of the words
0,5c437f6a4fe4f800016e3d52,testing,2M,97,QOLmudmRb,1,1,True,1005.0,Tried to recall overall shape of the words
0,5c437f6a4fe4f800016e3d52,testing,1M,98,hAROKLkNc,0,0,True,934.0,Tried to recall overall shape of the words
0,5c437f6a4fe4f800016e3d52,testing,1M,99,dmZvmJcUk,0,1,False,1238.0,Tried to recall overall shape of the words
0,5c437f6a4fe4f800016e3d52,testing,0M,100,OYuvbhbmA,1,0,False,833.0,Tried to recall overall shape of the words
0,5c437f6a4fe4f800016e3d52,testing,2M,101,lGZvOcN,0,0,True,871.0,Tried to recall overall shape of the words
0,5c437f6a4fe4f800016e3d52,testing,2M,102,hkRKDKP,0,0,True,1024.0,Tried to recall overall shape of the words
0,5c437f6a4fe4f800016e3d52,testing,1M,103,adYrccMRl,0,1,False,1145.0,Tried to recall overall shape of the words
0,5c437f6a4fe4f800016e3d52,testing,1M,104,mBbKAkd,0,1,False,790.0,Tried to recall overall shape of the words
0,5c437f6a4fe4f800016e3d52,testing,1M,105,AmQOYTbk,0,1,False,1106.0,Tried to recall overall shape of the words
0,5c437f6a4fe4f800016e3d52,testing,2M,106,ACcODKP,0,0,True,801.0,Tried to recall overall shape of the words
0,5c437f6a4fe4f800016e3d52,testing,2M,107,EltMBcMRl,0,0,True,1182.0,Tried to recall overall shape of the words
0,5c437f6a4fe4f800016e3d52,testing,1M,108,uauODKP,0,1,False,1136.0,Tried to recall overall shape of the words
0,5c437f6a4fe4f800016e3d52,testing,0M,109,YbBTmdla,1,1,True,1114.0,Tried to recall overall shape of the words
0,5c437f6a4fe4f800016e3d52,testing,0M,110,kDOmJcL,1,0,False,1218.0,Tried to recall overall shape of the words
0,5c437f6a4fe4f800016e3d52,testing,2M,111,rvUbcPK,1,0,False,1147.0,Tried to recall overall shape of the words
0,5c437f6a4fe4f800016e3d52,testing,2M,112,QOLmuZvkL,0,1,False,1018.0,Tried to recall overall shape of the words
0,5c437f6a4fe4f800016e3d52,testing,2M,113,JvaAGlu,0,0,True,990.0,Tried to recall overall shape of the words
0,5c437f6a4fe4f800016e3d52,testing,0M,114,uOAOmhc,1,1,True,1084.0,Tried to recall overall shape of the words
0,5c437f6a4fe4f800016e3d52,testing,0M,115,thbOMRdCc,1,0,False,1081.0,Tried to recall overall shape of the words
0,5c437f6a4fe4f800016e3d52,testing,0M,116,NvYJcbm,1,0,False,992.0,Tried to recall overall shape of the words
0,5c437f6a4fe4f800016e3d52,testing,1M,117,GAcYOQAr,0,0,True,1032.0,Tried to recall overall shape of the words
0,5c437f6a4fe4f800016e3d52,testing,0M,118,dRhtdUr,1,0,False,1164.0,Tried to recall overall shape of the words
0,5c437f6a4fe4f800016e3d52,testing,1M,119,YUNkZTbk,0,0,True,1337.0,Tried to recall overall shape of the words
0,5c437f6a4fe4f800016e3d52,testing,2M,120,rvUbJcUk,0,1,False,1114.0,Tried to recall overall shape of the words
0,5c840aedbad8fb000106cb44,testing,1M,1,kCRmdUr,0,1,False,2416.0,Some patrons I remembered that looked like words in earth alphabet and others just the feeling they gave to me.
0,5c840aedbad8fb000106cb44,testing,1M,2,NLQGmYaum,0,1,False,976.0,Some patrons I remembered that looked like words in earth alphabet and others just the feeling they gave to me.
0,5c840aedbad8fb000106cb44,testing,2M,3,UJmrkbu,0,1,False,1026.0,Some patrons I remembered that looked like words in earth alphabet and others just the feeling they gave to me.
0,5c840aedbad8fb000106cb44,testing,0M,4,PlEKDhMt,1,0,False,1080.0,Some patrons I remembered that looked like words in earth alphabet and others just the feeling they gave to me.
0,5c840aedbad8fb000106cb44,testing,0M,5,BKDRYdEPD,1,1,True,1066.0,Some patrons I remembered that looked like words in earth alphabet and others just the feeling they gave to me.
0,5c840aedbad8fb000106cb44,testing,1M,6,JdOAYLcO,0,0,True,988.0,Some patrons I remembered that looked like words in earth alphabet and others just the feeling they gave to me.
0,5c840aedbad8fb000106cb44,testing,0M,7,KRARmNac,1,1,True,1372.0,Some patrons I remembered that looked like words in earth alphabet and others just the feeling they gave to me.
0,5c840aedbad8fb000106cb44,testing,0M,8,aLNlkmCd,1,1,True,1305.0,Some patrons I remembered that looked like words in earth alphabet and others just the feeling they gave to me.
0,5c840aedbad8fb000106cb44,testing,0M,9,ODBDAlLG,1,1,True,655.0,Some patrons I remembered that looked like words in earth alphabet and others just the feeling they gave to me.
0,5c840aedbad8fb000106cb44,testing,0M,10,MlthYDE,1,1,True,655.0,Some patrons I remembered that looked like words in earth alphabet and others just the feeling they gave to me.
0,5c840aedbad8fb000106cb44,testing,1M,11,lcOcuUY,0,1,False,1118.0,Some patrons I remembered that looked like words in earth alphabet and others just the feeling they gave to me.
0,5c840aedbad8fb000106cb44,testing,2M,12,kabJbOcN,0,0,True,1126.0,Some patrons I remembered that looked like words in earth alphabet and others just the feeling they gave to me.
0,5c840aedbad8fb000106cb44,testing,0M,13,AvdkrAm,1,0,False,1212.0,Some patrons I remembered that looked like words in earth alphabet and others just the feeling they gave to me.
0,5c840aedbad8fb000106cb44,testing,2M,14,AlUYdUr,0,0,True,980.0,Some patrons I remembered that looked like words in earth alphabet and others just the feeling they gave to me.
0,5c840aedbad8fb000106cb44,testing,2M,15,lTmOAkd,0,0,True,1050.0,Some patrons I remembered that looked like words in earth alphabet and others just the feeling they gave to me.
0,5c840aedbad8fb000106cb44,testing,0M,16,bRABtkDOm,1,0,False,1025.0,Some patrons I remembered that looked like words in earth alphabet and others just the feeling they gave to me.
0,5c840aedbad8fb000106cb44,testing,1M,17,uvaUQGb,0,1,False,973.0,Some patrons I remembered that looked like words in earth alphabet and others just the feeling they gave to me.
0,5c840aedbad8fb000106cb44,testing,0M,18,OEPkYbN,1,0,False,964.0,Some patrons I remembered that looked like words in earth alphabet and others just the feeling they gave to me.
0,5c840aedbad8fb000106cb44,testing,0M,19,UaYLJcL,1,1,True,810.0,Some patrons I remembered that looked like words in earth alphabet and others just the feeling they gave to me.
0,5c840aedbad8fb000106cb44,testing,2M,20,dMThkdUr,1,0,False,755.0,Some patrons I remembered that looked like words in earth alphabet and others just the feeling they gave to me.
0,5c840aedbad8fb000106cb44,testing,0M,21,YKRkLYGA,1,1,True,857.0,Some patrons I remembered that looked like words in earth alphabet and others just the feeling they gave to me.
0,5c840aedbad8fb000106cb44,testing,0M,22,kGlUrAm,1,0,False,592.0,Some patrons I remembered that looked like words in earth alphabet and others just the feeling they gave to me.
0,5c840aedbad8fb000106cb44,testing,2M,23,Cchtdkbu,1,1,True,648.0,Some patrons I remembered that looked like words in earth alphabet and others just the feeling they gave to me.
0,5c840aedbad8fb000106cb44,testing,0M,24,tKDmhcDR,1,0,False,591.0,Some patrons I remembered that looked like words in earth alphabet and others just the feeling they gave to me.
0,5c840aedbad8fb000106cb44,testing,2M,25,JNkaOcN,0,0,True,1165.0,Some patrons I remembered that looked like words in earth alphabet and others just the feeling they gave to me.
0,5c840aedbad8fb000106cb44,testing,2M,26,cAZuLcO,0,0,True,910.0,Some patrons I remembered that looked like words in earth alphabet and others just the feeling they gave to me.
0,5c840aedbad8fb000106cb44,testing,0M,27,QLrOJMKmY,1,1,True,972.0,Some patrons I remembered that looked like words in earth alphabet and others just the feeling they gave to me.
0,5c840aedbad8fb000106cb44,testing,2M,28,lcOchEct,1,0,False,824.0,Some patrons I remembered that looked like words in earth alphabet and others just the feeling they gave to me.
0,5c840aedbad8fb000106cb44,testing,2M,29,kcCRtRCdc,0,1,False,740.0,Some patrons I remembered that looked like words in earth alphabet and others just the feeling they gave to me.
0,5c840aedbad8fb000106cb44,testing,2M,30,NLQGmAZbl,0,1,False,864.0,Some patrons I remembered that looked like words in earth alphabet and others just the feeling they gave to me.
0,5c840aedbad8fb000106cb44,testing,2M,31,UJmrTbk,1,0,False,778.0,Some patrons I remembered that looked like words in earth alphabet and others just the feeling they gave to me.
0,5c840aedbad8fb000106cb44,testing,1M,32,vJabkam,0,0,True,723.0,Some patrons I remembered that looked like words in earth alphabet and others just the feeling they gave to me.
0,5c840aedbad8fb000106cb44,testing,0M,33,lhCTCtcB,1,1,True,763.0,Some patrons I remembered that looked like words in earth alphabet and others just the feeling they gave to me.
0,5c840aedbad8fb000106cb44,testing,2M,34,TbKMEOcN,1,0,False,735.0,Some patrons I remembered that looked like words in earth alphabet and others just the feeling they gave to me.
0,5c840aedbad8fb000106cb44,testing,2M,35,kcCRtLcO,1,0,False,724.0,Some patrons I remembered that looked like words in earth alphabet and others just the feeling they gave to me.
0,5c840aedbad8fb000106cb44,testing,0M,36,uQuZcvcb,1,1,True,970.0,Some patrons I remembered that looked like words in earth alphabet and others just the feeling they gave to me.
0,5c840aedbad8fb000106cb44,testing,0M,37,OMlTdRA,1,1,True,932.0,Some patrons I remembered that looked like words in earth alphabet and others just the feeling they gave to me.
0,5c840aedbad8fb000106cb44,testing,0M,38,GLluATmc,1,0,False,662.0,Some patrons I remembered that looked like words in earth alphabet and others just the feeling they gave to me.
0,5c840aedbad8fb000106cb44,testing,1M,39,LdQvZvkL,0,0,True,747.0,Some patrons I remembered that looked like words in earth alphabet and others just the feeling they gave to me.
0,5c840aedbad8fb000106cb44,testing,0M,40,OtlRtcB,1,1,True,461.0,Some patrons I remembered that looked like words in earth alphabet and others just the feeling they gave to me.
0,5c840aedbad8fb000106cb44,testing,1M,41,lAOKMbLd,0,0,True,686.0,Some patrons I remembered that looked like words in earth alphabet and others just the feeling they gave to me.
0,5c840aedbad8fb000106cb44,testing,2M,42,lcOcdUr,0,1,False,624.0,Some patrons I remembered that looked like words in earth alphabet and others just the feeling they gave to me.
0,5c840aedbad8fb000106cb44,testing,0M,43,LkNcUvOG,1,1,True,1026.0,Some patrons I remembered that looked like words in earth alphabet and others just the feeling they gave to me.
0,5c840aedbad8fb000106cb44,testing,2M,44,AlUYhEct,1,1,True,771.0,Some patrons I remembered that looked like words in earth alphabet and others just the feeling they gave to me.
0,5c840aedbad8fb000106cb44,testing,0M,45,EPMDkKmE,1,1,True,678.0,Some patrons I remembered that looked like words in earth alphabet and others just the feeling they gave to me.
0,5c840aedbad8fb000106cb44,testing,2M,46,vJabRCdc,1,1,True,655.0,Some patrons I remembered that looked like words in earth alphabet and others just the feeling they gave to me.
0,5c840aedbad8fb000106cb44,testing,2M,47,EtMDMAkd,0,0,True,637.0,Some patrons I remembered that looked like words in earth alphabet and others just the feeling they gave to me.
0,5c840aedbad8fb000106cb44,testing,2M,48,lTmOAZbl,1,1,True,880.0,Some patrons I remembered that looked like words in earth alphabet and others just the feeling they gave to me.
0,5c840aedbad8fb000106cb44,testing,1M,49,rvUbRCdc,0,0,True,30.0,Some patrons I remembered that looked like words in earth alphabet and others just the feeling they gave to me.
0,5c840aedbad8fb000106cb44,testing,2M,50,CDEmYLcO,1,1,True,1208.0,Some patrons I remembered that looked like words in earth alphabet and others just the feeling they gave to me.
0,5c840aedbad8fb000106cb44,testing,1M,51,rAJuRCdc,0,0,True,499.0,Some patrons I remembered that looked like words in earth alphabet and others just the feeling they gave to me.
0,5c840aedbad8fb000106cb44,testing,1M,52,CDEmYuOAO,0,0,True,652.0,Some patrons I remembered that looked like words in earth alphabet and others just the feeling they gave to me.
0,5c840aedbad8fb000106cb44,testing,2M,53,JNkaBCD,1,0,False,538.0,Some patrons I remembered that looked like words in earth alphabet and others just the feeling they gave to me.
0,5c840aedbad8fb000106cb44,testing,2M,54,CDEmYRCdc,0,1,False,554.0,Some patrons I remembered that looked like words in earth alphabet and others just the feeling they gave to me.
0,5c840aedbad8fb000106cb44,testing,2M,55,NLQGmAkd,1,1,True,1049.0,Some patrons I remembered that looked like words in earth alphabet and others just the feeling they gave to me.
0,5c840aedbad8fb000106cb44,testing,0M,56,bdUNuYNu,1,1,True,1214.0,Some patrons I remembered that looked like words in earth alphabet and others just the feeling they gave to me.
0,5c840aedbad8fb000106cb44,testing,0M,57,NvuGrrab,1,1,True,746.0,Some patrons I remembered that looked like words in earth alphabet and others just the feeling they gave to me.
0,5c840aedbad8fb000106cb44,testing,2M,58,hlbtbOcN,1,0,False,986.0,Some patrons I remembered that looked like words in earth alphabet and others just the feeling they gave to me.
0,5c840aedbad8fb000106cb44,testing,0M,59,ckLALPED,1,1,True,903.0,Some patrons I remembered that looked like words in earth alphabet and others just the feeling they gave to me.
0,5c840aedbad8fb000106cb44,testing,1M,60,AlUYMAB,0,1,False,928.0,Some patrons I remembered that looked like words in earth alphabet and others just the feeling they gave to me.
0,5c840aedbad8fb000106cb44,testing,2M,61,TbKMEBCD,0,0,True,707.0,Some patrons I remembered that looked like words in earth alphabet and others just the feeling they gave to me.
0,5c840aedbad8fb000106cb44,testing,1M,62,EPERdAZbl,0,1,False,693.0,Some patrons I remembered that looked like words in earth alphabet and others just the feeling they gave to me.
0,5c840aedbad8fb000106cb44,testing,2M,63,LdQvAkd,1,1,True,701.0,Some patrons I remembered that looked like words in earth alphabet and others just the feeling they gave to me.
0,5c840aedbad8fb000106cb44,testing,2M,64,hlbtbBCD,0,1,False,631.0,Some patrons I remembered that looked like words in earth alphabet and others just the feeling they gave to me.
0,5c840aedbad8fb000106cb44,testing,2M,65,EtMDMAZbl,1,0,False,707.0,Some patrons I remembered that looked like words in earth alphabet and others just the feeling they gave to me.
0,5c840aedbad8fb000106cb44,testing,0M,66,YJLcAYmb,1,1,True,717.0,Some patrons I remembered that looked like words in earth alphabet and others just the feeling they gave to me.
0,5c840aedbad8fb000106cb44,testing,0M,67,EltMBPED,1,0,False,684.0,Some patrons I remembered that looked like words in earth alphabet and others just the feeling they gave to me.
0,5c840aedbad8fb000106cb44,testing,0M,68,hbkdOtM,1,1,True,600.0,Some patrons I remembered that looked like words in earth alphabet and others just the feeling they gave to me.
0,5c840aedbad8fb000106cb44,testing,1M,69,rdLJaBCD,0,1,False,654.0,Some patrons I remembered that looked like words in earth alphabet and others just the feeling they gave to me.
0,5c840aedbad8fb000106cb44,testing,1M,70,cAZukmU,0,0,True,892.0,Some patrons I remembered that looked like words in earth alphabet and others just the feeling they gave to me.
0,5c840aedbad8fb000106cb44,testing,2M,71,LdQvAZbl,0,0,True,724.0,Some patrons I remembered that looked like words in earth alphabet and others just the feeling they gave to me.
0,5c840aedbad8fb000106cb44,testing,1M,72,dkLlTbk,0,0,True,700.0,Some patrons I remembered that looked like words in earth alphabet and others just the feeling they gave to me.
0,5c840aedbad8fb000106cb44,testing,1M,73,hlbtbYkZ,0,1,False,600.0,Some patrons I remembered that looked like words in earth alphabet and others just the feeling they gave to me.
0,5c840aedbad8fb000106cb44,testing,1M,74,mLdkZLcO,0,1,False,537.0,Some patrons I remembered that looked like words in earth alphabet and others just the feeling they gave to me.
0,5c840aedbad8fb000106cb44,testing,0M,75,JZOAkLuaU,1,1,True,560.0,Some patrons I remembered that looked like words in earth alphabet and others just the feeling they gave to me.
0,5c840aedbad8fb000106cb44,testing,0M,76,lKdbcTAm,1,1,True,444.0,Some patrons I remembered that looked like words in earth alphabet and others just the feeling they gave to me.
0,5c840aedbad8fb000106cb44,testing,1M,77,TAdhMAkd,0,1,False,607.0,Some patrons I remembered that looked like words in earth alphabet and others just the feeling they gave to me.
0,5c840aedbad8fb000106cb44,testing,2M,78,tRPDdUr,1,1,True,675.0,Some patrons I remembered that looked like words in earth alphabet and others just the feeling they gave to me.
0,5c840aedbad8fb000106cb44,testing,2M,79,kabJbBCD,1,1,True,583.0,Some patrons I remembered that looked like words in earth alphabet and others just the feeling they gave to me.
0,5c840aedbad8fb000106cb44,testing,2M,80,vJabLcO,0,0,True,637.0,Some patrons I remembered that looked like words in earth alphabet and others just the feeling they gave to me.
0,5c840aedbad8fb000106cb44,testing,1M,81,NaAQdOcN,0,0,True,1025.0,Some patrons I remembered that looked like words in earth alphabet and others just the feeling they gave to me.
0,5c840aedbad8fb000106cb44,testing,1M,82,kabJblRE,0,0,True,1303.0,Some patrons I remembered that looked like words in earth alphabet and others just the feeling they gave to me.
0,5c840aedbad8fb000106cb44,testing,2M,83,cAZuRCdc,1,1,True,995.0,Some patrons I remembered that looked like words in earth alphabet and others just the feeling they gave to me.
0,5c840aedbad8fb000106cb44,testing,2M,84,tRPDhEct,0,0,True,937.0,Some patrons I remembered that looked like words in earth alphabet and others just the feeling they gave to me.
0,5c840aedbad8fb000106cb44,testing,1M,85,ukbYBCD,0,1,False,1111.0,Some patrons I remembered that looked like words in earth alphabet and others just the feeling they gave to me.
0,5c840aedbad8fb000106cb44,testing,0M,86,NaJbABb,1,0,False,706.0,Some patrons I remembered that looked like words in earth alphabet and others just the feeling they gave to me.
0,5c840aedbad8fb000106cb44,testing,1M,87,OZkbhEct,0,1,False,716.0,Some patrons I remembered that looked like words in earth alphabet and others just the feeling they gave to me.
0,5c840aedbad8fb000106cb44,testing,2M,88,uvaUTbk,1,1,True,769.0,Some patrons I remembered that looked like words in earth alphabet and others just the feeling they gave to me.
0,5c840aedbad8fb000106cb44,testing,1M,89,EtMDMEcR,0,0,True,799.0,Some patrons I remembered that looked like words in earth alphabet and others just the feeling they gave to me.
0,5c840aedbad8fb000106cb44,testing,1M,90,YNrAmkbu,0,1,False,646.0,Some patrons I remembered that looked like words in earth alphabet and others just the feeling they gave to me.
0,5c840aedbad8fb000106cb44,testing,1M,91,lTmOdBC,0,0,True,892.0,Some patrons I remembered that looked like words in earth alphabet and others just the feeling they gave to me.
0,5c840aedbad8fb000106cb44,testing,1M,92,UdlGQkbu,0,1,False,1041.0,Some patrons I remembered that looked like words in earth alphabet and others just the feeling they gave to me.
0,5c840aedbad8fb000106cb44,testing,0M,93,rckOrGl,1,1,True,931.0,Some patrons I remembered that looked like words in earth alphabet and others just the feeling they gave to me.
0,5c840aedbad8fb000106cb44,testing,0M,94,AJLrKMOc,1,1,True,487.0,Some patrons I remembered that looked like words in earth alphabet and others just the feeling they gave to me.
0,5c840aedbad8fb000106cb44,testing,1M,95,BCAdAkd,0,1,False,1024.0,Some patrons I remembered that looked like words in earth alphabet and others just the feeling they gave to me.
0,5c840aedbad8fb000106cb44,testing,1M,96,kcCRtAlNU,0,1,False,861.0,Some patrons I remembered that looked like words in earth alphabet and others just the feeling they gave to me.
0,5c840aedbad8fb000106cb44,testing,0M,97,RYlDkrGu,1,1,True,578.0,Some patrons I remembered that looked like words in earth alphabet and others just the feeling they gave to me.
0,5c840aedbad8fb000106cb44,testing,1M,98,UJmrtAY,0,1,False,560.0,Some patrons I remembered that looked like words in earth alphabet and others just the feeling they gave to me.
0,5c840aedbad8fb000106cb44,testing,2M,99,uvaUkbu,0,1,False,700.0,Some patrons I remembered that looked like words in earth alphabet and others just the feeling they gave to me.
0,5c840aedbad8fb000106cb44,testing,2M,100,lAOKMTbk,0,0,True,637.0,Some patrons I remembered that looked like words in earth alphabet and others just the feeling they gave to me.
0,5c840aedbad8fb000106cb44,testing,1M,101,tRPDbROC,0,1,False,576.0,Some patrons I remembered that looked like words in earth alphabet and others just the feeling they gave to me.
0,5c840aedbad8fb000106cb44,testing,0M,102,CYPcGUOA,1,0,False,543.0,Some patrons I remembered that looked like words in earth alphabet and others just the feeling they gave to me.
0,5c840aedbad8fb000106cb44,testing,0M,103,GrubEAO,1,1,True,389.0,Some patrons I remembered that looked like words in earth alphabet and others just the feeling they gave to me.
0,5c840aedbad8fb000106cb44,testing,2M,104,lAOKMkbu,1,1,True,536.0,Some patrons I remembered that looked like words in earth alphabet and others just the feeling they gave to me.
0,5c840aedbad8fb000106cb44,testing,2M,105,dMThkhEct,0,1,False,397.0,Some patrons I remembered that looked like words in earth alphabet and others just the feeling they gave to me.
0,5c840aedbad8fb000106cb44,testing,1M,106,lbBDEdUr,0,1,False,351.0,Some patrons I remembered that looked like words in earth alphabet and others just the feeling they gave to me.
0,5c840aedbad8fb000106cb44,testing,1M,107,CchtdtRb,0,1,False,466.0,Some patrons I remembered that looked like words in earth alphabet and others just the feeling they gave to me.
0,5c840aedbad8fb000106cb44,testing,1M,108,mtKPhEct,0,1,False,421.0,Some patrons I remembered that looked like words in earth alphabet and others just the feeling they gave to me.
0,5c840aedbad8fb000106cb44,testing,0M,109,ZckvlGZv,1,1,True,651.0,Some patrons I remembered that looked like words in earth alphabet and others just the feeling they gave to me.
0,5c840aedbad8fb000106cb44,testing,1M,110,TbKMEGUa,0,1,False,698.0,Some patrons I remembered that looked like words in earth alphabet and others just the feeling they gave to me.
0,5c840aedbad8fb000106cb44,testing,0M,111,ZvalvBbM,1,0,False,496.0,Some patrons I remembered that looked like words in earth alphabet and others just the feeling they gave to me.
0,5c840aedbad8fb000106cb44,testing,1M,112,JNkamkc,0,1,False,413.0,Some patrons I remembered that looked like words in earth alphabet and others just the feeling they gave to me.
0,5c840aedbad8fb000106cb44,testing,1M,113,aONdTbk,0,1,False,651.0,Some patrons I remembered that looked like words in earth alphabet and others just the feeling they gave to me.
0,5c840aedbad8fb000106cb44,testing,1M,114,GabkAZbl,0,0,True,474.0,Some patrons I remembered that looked like words in earth alphabet and others just the feeling they gave to me.
0,5c840aedbad8fb000106cb44,testing,0M,115,KdARLaA,1,0,False,884.0,Some patrons I remembered that looked like words in earth alphabet and others just the feeling they gave to me.
0,5c840aedbad8fb000106cb44,testing,2M,116,CchtdTbk,0,0,True,791.0,Some patrons I remembered that looked like words in earth alphabet and others just the feeling they gave to me.
0,5c840aedbad8fb000106cb44,testing,1M,117,TObCOOcN,0,1,False,1017.0,Some patrons I remembered that looked like words in earth alphabet and others just the feeling they gave to me.
0,5c840aedbad8fb000106cb44,testing,0M,118,UYZlZMKmY,1,0,False,682.0,Some patrons I remembered that looked like words in earth alphabet and others just the feeling they gave to me.
0,5c840aedbad8fb000106cb44,testing,1M,119,dMThkAdDb,0,1,False,1017.0,Some patrons I remembered that looked like words in earth alphabet and others just the feeling they gave to me.
0,5c840aedbad8fb000106cb44,testing,0M,120,tdDdJUG,1,0,False,820.0,Some patrons I remembered that looked like words in earth alphabet and others just the feeling they gave to me.
0,5d696d1c55742f001af29220,testing,2M,1,QLrOJYArG,0,1,False,2539.0,It was a complete guess
0,5d696d1c55742f001af29220,testing,2M,2,EhbtOQAr,1,1,True,1154.0,It was a complete guess
0,5d696d1c55742f001af29220,testing,0M,3,KdARMKmY,1,0,False,1085.0,It was a complete guess
0,5d696d1c55742f001af29220,testing,2M,4,vAarMAB,1,1,True,941.0,It was a complete guess
0,5d696d1c55742f001af29220,testing,0M,5,YZJOTmc,1,0,False,711.0,It was a complete guess
0,5d696d1c55742f001af29220,testing,1M,6,QcQAJYLU,0,0,True,787.0,It was a complete guess
0,5d696d1c55742f001af29220,testing,0M,7,lGZvKlkD,1,1,True,791.0,It was a complete guess
0,5d696d1c55742f001af29220,testing,0M,8,TPOMlTmO,1,1,True,800.0,It was a complete guess
0,5d696d1c55742f001af29220,testing,2M,9,rdLJaOQAr,0,1,False,1067.0,It was a complete guess
0,5d696d1c55742f001af29220,testing,2M,10,Ehbtmhc,0,1,False,1119.0,It was a complete guess
0,5d696d1c55742f001af29220,testing,2M,11,PYkCkam,1,0,False,560.0,It was a complete guess
0,5d696d1c55742f001af29220,testing,1M,12,JuamlYUYa,0,0,True,1570.0,It was a complete guess
0,5d696d1c55742f001af29220,testing,1M,13,ACcOYArG,0,1,False,932.0,It was a complete guess
0,5d696d1c55742f001af29220,testing,0M,14,BMEMANUZ,1,0,False,1114.0,It was a complete guess
0,5d696d1c55742f001af29220,testing,2M,15,COtBDmvG,1,0,False,1197.0,It was a complete guess
0,5d696d1c55742f001af29220,testing,0M,16,BlmcllGc,1,1,True,908.0,It was a complete guess
0,5d696d1c55742f001af29220,testing,1M,17,GJGcZuda,0,0,True,688.0,It was a complete guess
0,5d696d1c55742f001af29220,testing,1M,18,GabkOQAr,0,0,True,881.0,It was a complete guess
0,5d696d1c55742f001af29220,testing,1M,19,tmtEMcMRl,0,0,True,839.0,It was a complete guess
0,5d696d1c55742f001af29220,testing,1M,20,hkRKMAB,0,0,True,848.0,It was a complete guess
0,5d696d1c55742f001af29220,testing,2M,21,LOLkUOMC,1,0,False,1061.0,It was a complete guess
0,5d696d1c55742f001af29220,testing,1M,22,btlckDCmh,0,1,False,1023.0,It was a complete guess
0,5d696d1c55742f001af29220,testing,0M,23,BbODUmNJ,1,1,True,1030.0,It was a complete guess
0,5d696d1c55742f001af29220,testing,1M,24,PYkCUJkG,0,1,False,995.0,It was a complete guess
0,5d696d1c55742f001af29220,testing,2M,25,rdLJamhc,1,0,False,584.0,It was a complete guess
0,5d696d1c55742f001af29220,testing,0M,26,AmaclUbG,1,1,True,1092.0,It was a complete guess
0,5d696d1c55742f001af29220,testing,1M,27,hbkdtcB,0,1,False,1022.0,It was a complete guess
0,5d696d1c55742f001af29220,testing,2M,28,YOZNMAB,1,0,False,880.0,It was a complete guess
0,5d696d1c55742f001af29220,testing,0M,29,CmYAvAvb,1,0,False,930.0,It was a complete guess
0,5d696d1c55742f001af29220,testing,1M,30,JZOAkOMC,0,0,True,1186.0,It was a complete guess
0,5d696d1c55742f001af29220,testing,0M,31,UdumdYKPB,1,1,True,803.0,It was a complete guess
0,5d696d1c55742f001af29220,testing,1M,32,rdLJabGuO,0,0,True,865.0,It was a complete guess
0,5d696d1c55742f001af29220,testing,2M,33,btlckkam,1,1,True,1090.0,It was a complete guess
0,5d696d1c55742f001af29220,testing,0M,34,dMYBPtAY,1,1,True,977.0,It was a complete guess
0,5d696d1c55742f001af29220,testing,0M,35,GrubDOk,1,0,False,689.0,It was a complete guess
0,5d696d1c55742f001af29220,testing,1M,36,DmAMEcMRl,0,1,False,918.0,It was a complete guess
0,5d696d1c55742f001af29220,testing,2M,37,GJGcZkam,0,1,False,1387.0,It was a complete guess
0,5d696d1c55742f001af29220,testing,1M,38,ZYcQUMTdY,0,0,True,44.0,It was a complete guess
0,5d696d1c55742f001af29220,testing,1M,39,mBmlAmhc,0,0,True,941.0,It was a complete guess
0,5d696d1c55742f001af29220,testing,0M,40,hTtBbbAMO,1,1,True,1091.0,It was a complete guess
0,5d696d1c55742f001af29220,testing,1M,41,EhbtJcL,0,0,True,1066.0,It was a complete guess
0,5d696d1c55742f001af29220,testing,1M,42,kMbTRCdt,0,0,True,940.0,It was a complete guess
0,5d696d1c55742f001af29220,testing,1M,43,TdmAOMC,0,0,True,1214.0,It was a complete guess
0,5d696d1c55742f001af29220,testing,0M,44,YUNkZuvJ,1,1,True,997.0,It was a complete guess
0,5d696d1c55742f001af29220,testing,0M,45,MKmYdPc,1,0,False,829.0,It was a complete guess
0,5d696d1c55742f001af29220,testing,2M,46,hbkdOPE,0,1,False,1115.0,It was a complete guess
0,5d696d1c55742f001af29220,testing,0M,47,AYkEhJmNk,1,1,True,803.0,It was a complete guess
0,5d696d1c55742f001af29220,testing,0M,48,NQZvJud,1,1,True,903.0,It was a complete guess
0,5d696d1c55742f001af29220,testing,2M,49,uAkrOMC,1,1,True,1094.0,It was a complete guess
0,5d696d1c55742f001af29220,testing,1M,50,vAarQONk,0,1,False,923.0,It was a complete guess
0,5d696d1c55742f001af29220,testing,0M,51,YaOkkdrO,1,0,False,888.0,It was a complete guess
0,5d696d1c55742f001af29220,testing,2M,52,PhktkmvG,1,1,True,931.0,It was a complete guess
0,5d696d1c55742f001af29220,testing,2M,53,vAarGQYQ,0,1,False,959.0,It was a complete guess
0,5d696d1c55742f001af29220,testing,2M,54,QcQAJcMRl,1,0,False,1012.0,It was a complete guess
0,5d696d1c55742f001af29220,testing,2M,55,JuamlOQAr,0,0,True,1288.0,It was a complete guess
0,5d696d1c55742f001af29220,testing,2M,56,PYkCcMRl,0,0,True,1091.0,It was a complete guess
0,5d696d1c55742f001af29220,testing,0M,57,cuOJbmCd,1,0,False,1430.0,It was a complete guess
0,5d696d1c55742f001af29220,testing,1M,58,kcCRtmvG,0,0,True,847.0,It was a complete guess
0,5d696d1c55742f001af29220,testing,2M,59,QLrOJOPE,1,0,False,835.0,It was a complete guess
0,5d696d1c55742f001af29220,testing,1M,60,aYQmkam,0,0,True,841.0,It was a complete guess
0,5d696d1c55742f001af29220,testing,1M,61,QLrOJLuNZ,0,0,True,1574.0,It was a complete guess
0,5d696d1c55742f001af29220,testing,0M,62,TPCbrab,1,1,True,761.0,It was a complete guess
0,5d696d1c55742f001af29220,testing,0M,63,NaAQdYbN,1,1,True,853.0,It was a complete guess
0,5d696d1c55742f001af29220,testing,0M,64,OAmGrBPAl,1,1,True,756.0,It was a complete guess
0,5d696d1c55742f001af29220,testing,0M,65,krGuUbG,1,1,True,1327.0,It was a complete guess
0,5d696d1c55742f001af29220,testing,0M,66,ObZbAbcbM,1,1,True,1107.0,It was a complete guess
0,5d696d1c55742f001af29220,testing,0M,67,ckdAmDOk,1,0,False,1088.0,It was a complete guess
0,5d696d1c55742f001af29220,testing,1M,68,PlEKGQYQ,0,1,False,1270.0,It was a complete guess
0,5d696d1c55742f001af29220,testing,2M,69,uAkrmvG,0,1,False,796.0,It was a complete guess
0,5d696d1c55742f001af29220,testing,1M,70,PhktkQru,0,0,True,586.0,It was a complete guess
0,5d696d1c55742f001af29220,testing,0M,71,NbmQUUZu,1,1,True,785.0,It was a complete guess
0,5d696d1c55742f001af29220,testing,2M,72,GJGcZcMRl,1,0,False,772.0,It was a complete guess
0,5d696d1c55742f001af29220,testing,2M,73,kMbTRYArG,1,0,False,1252.0,It was a complete guess
0,5d696d1c55742f001af29220,testing,0M,74,NaAQdcrdY,1,1,True,1098.0,It was a complete guess
0,5d696d1c55742f001af29220,testing,2M,75,YKRkGQYQ,1,0,False,688.0,It was a complete guess
0,5d696d1c55742f001af29220,testing,2M,76,lRCBmhc,0,1,False,758.0,It was a complete guess
0,5d696d1c55742f001af29220,testing,1M,77,PCMPKATc,0,0,True,644.0,It was a complete guess
0,5d696d1c55742f001af29220,testing,1M,78,UYZlZGQYQ,0,0,True,829.0,It was a complete guess
0,5d696d1c55742f001af29220,testing,0M,79,mUOcOkNua,1,1,True,778.0,It was a complete guess
0,5d696d1c55742f001af29220,testing,1M,80,DBklMAB,0,1,False,846.0,It was a complete guess
0,5d696d1c55742f001af29220,testing,0M,81,OcYMJUG,1,0,False,630.0,It was a complete guess
0,5d696d1c55742f001af29220,testing,1M,82,JvaAOQAr,0,1,False,791.0,It was a complete guess
0,5d696d1c55742f001af29220,testing,2M,83,YKRkMAB,0,1,False,799.0,It was a complete guess
0,5d696d1c55742f001af29220,testing,0M,84,GLluAYDE,1,0,False,826.0,It was a complete guess
0,5d696d1c55742f001af29220,testing,2M,85,COtBDOMC,0,1,False,735.0,It was a complete guess
0,5d696d1c55742f001af29220,testing,1M,86,YOZNJdGm,0,0,True,1308.0,It was a complete guess
0,5d696d1c55742f001af29220,testing,2M,87,Juamlmhc,1,1,True,649.0,It was a complete guess
0,5d696d1c55742f001af29220,testing,0M,88,TDKhbTE,1,1,True,674.0,It was a complete guess
0,5d696d1c55742f001af29220,testing,0M,89,OmtlDYkZ,1,1,True,862.0,It was a complete guess
0,5d696d1c55742f001af29220,testing,1M,90,EltMBkam,0,0,True,629.0,It was a complete guess
0,5d696d1c55742f001af29220,testing,2M,91,btlckcMRl,0,1,False,765.0,It was a complete guess
0,5d696d1c55742f001af29220,testing,2M,92,PCMPKGQYQ,1,0,False,1367.0,It was a complete guess
0,5d696d1c55742f001af29220,testing,1M,93,COtBDQGb,0,1,False,720.0,It was a complete guess
0,5d696d1c55742f001af29220,testing,2M,94,ZYcQUYArG,0,1,False,1030.0,It was a complete guess
0,5d696d1c55742f001af29220,testing,1M,95,ZkGmYOPE,0,1,False,749.0,It was a complete guess
0,5d696d1c55742f001af29220,testing,1M,96,lRCBNac,0,1,False,897.0,It was a complete guess
0,5d696d1c55742f001af29220,testing,1M,97,bYGOZYArG,0,0,True,761.0,It was a complete guess
0,5d696d1c55742f001af29220,testing,0M,98,PMPtkkbu,1,0,False,1080.0,It was a complete guess
0,5d696d1c55742f001af29220,testing,2M,99,PCMPKMAB,0,0,True,588.0,It was a complete guess
0,5d696d1c55742f001af29220,testing,2M,100,lRCBOQAr,1,1,True,1232.0,It was a complete guess
0,5d696d1c55742f001af29220,testing,2M,101,ZYcQUOPE,1,0,False,1327.0,It was a complete guess
0,5d696d1c55742f001af29220,testing,0M,102,ODBDAkKE,1,0,False,610.0,It was a complete guess
0,5d696d1c55742f001af29220,testing,1M,103,LOLkUJZr,0,0,True,867.0,It was a complete guess
0,5d696d1c55742f001af29220,testing,2M,104,kMbTROPE,0,0,True,1307.0,It was a complete guess
0,5d696d1c55742f001af29220,testing,1M,105,YKRkYht,0,1,False,844.0,It was a complete guess
0,5d696d1c55742f001af29220,testing,2M,106,QcQAJkam,0,0,True,1039.0,It was a complete guess
0,5d696d1c55742f001af29220,testing,0M,107,kGamNOBT,1,0,False,597.0,It was a complete guess
0,5d696d1c55742f001af29220,testing,0M,108,BATOcLkNc,1,1,True,776.0,It was a complete guess
0,5d696d1c55742f001af29220,testing,0M,109,rNlZAld,1,1,True,747.0,It was a complete guess
0,5d696d1c55742f001af29220,testing,0M,110,chEDOOtM,1,1,True,849.0,It was a complete guess
0,5d696d1c55742f001af29220,testing,2M,111,hbkdYArG,1,1,True,579.0,It was a complete guess
0,5d696d1c55742f001af29220,testing,1M,112,KTDTBOPE,0,1,False,833.0,It was a complete guess
0,5d696d1c55742f001af29220,testing,0M,113,RCcEmrOd,1,0,False,1293.0,It was a complete guess
0,5d696d1c55742f001af29220,testing,2M,114,LOLkUmvG,0,0,True,1056.0,It was a complete guess
0,5d696d1c55742f001af29220,testing,1M,115,uAkrark,0,1,False,1420.0,It was a complete guess
0,5d696d1c55742f001af29220,testing,0M,116,RdPtDLuaU,1,1,True,626.0,It was a complete guess
0,5d696d1c55742f001af29220,testing,2M,117,YOZNGQYQ,0,0,True,1639.0,It was a complete guess
0,5d696d1c55742f001af29220,testing,1M,118,YLQmGmhc,0,1,False,929.0,It was a complete guess
0,5d696d1c55742f001af29220,testing,2M,119,PhktkOMC,0,0,True,1147.0,It was a complete guess
0,5d696d1c55742f001af29220,testing,1M,120,GumLlmvG,0,1,False,722.0,It was a complete guess
0,5db16ce33990ed0014564873,testing,1M,1,RdCcOcN,0,0,True,24158.0,I thought a lot of words had similiar symbols close together so worked on this
0,5db16ce33990ed0014564873,testing,1M,2,OAmGrEPBT,0,0,True,3119.0,I thought a lot of words had similiar symbols close together so worked on this
0,5db16ce33990ed0014564873,testing,0M,3,ObOQlMKmY,1,0,False,944.0,I thought a lot of words had similiar symbols close together so worked on this
0,5db16ce33990ed0014564873,testing,2M,4,KElBDbMR,0,0,True,2039.0,I thought a lot of words had similiar symbols close together so worked on this
0,5db16ce33990ed0014564873,testing,2M,5,BdtACDOAK,0,0,True,3137.0,I thought a lot of words had similiar symbols close together so worked on this
