,sbj_ID,task,trialn,target,confound,expected,observed,correct,rt
0,579e18fc4a84da00014c6f4f,familiarity,1,CmcO,OCmk,0,1,False,5314.0
0,579e18fc4a84da00014c6f4f,familiarity,2,aYQm,YZUZ,1,1,True,645.0
0,579e18fc4a84da00014c6f4f,familiarity,3,lGc,PED,1,0,False,384.0
0,579e18fc4a84da00014c6f4f,familiarity,4,AbKD,vclY,1,1,True,549.0
0,579e18fc4a84da00014c6f4f,familiarity,5,dmZvm,QbkAc,1,1,True,591.0
0,579e18fc4a84da00014c6f4f,familiarity,6,UAcdu,Cchtd,0,0,True,339.0
0,579e18fc4a84da00014c6f4f,familiarity,7,thbOM,DOBhY,1,0,False,316.0
0,579e18fc4a84da00014c6f4f,familiarity,8,AOUl,uauO,1,1,True,294.0
0,579e18fc4a84da00014c6f4f,familiarity,9,tcYbd,mkmJN,0,1,False,433.0
0,579e18fc4a84da00014c6f4f,familiarity,10,ZNLOv,LNUrJ,1,0,False,443.0
0,579e18fc4a84da00014c6f4f,familiarity,11,ldAa,Ydud,1,0,False,412.0
0,579e18fc4a84da00014c6f4f,familiarity,12,lvk,vcb,1,1,True,449.0
0,579e18fc4a84da00014c6f4f,familiarity,13,cDOEB,YuaNd,0,1,False,382.0
0,579e18fc4a84da00014c6f4f,familiarity,14,Qclad,AZlLN,1,1,True,567.0
0,579e18fc4a84da00014c6f4f,familiarity,15,EKBO,JAaG,1,1,True,510.0
0,579e18fc4a84da00014c6f4f,familiarity,16,laYmr,lAOKM,1,1,True,466.0
0,579e18fc4a84da00014c6f4f,familiarity,17,kPOt,ukYZ,0,0,True,440.0
0,579e18fc4a84da00014c6f4f,familiarity,18,YNrAm,RkmdC,0,0,True,572.0
0,579e18fc4a84da00014c6f4f,familiarity,19,EMbDP,QcQAJ,1,0,False,262.0
0,579e18fc4a84da00014c6f4f,familiarity,20,OJlN,MCkm,1,1,True,395.0
0,579e18fc4a84da00014c6f4f,familiarity,21,kKE,PTl,1,0,False,439.0
0,579e18fc4a84da00014c6f4f,familiarity,22,cthB,dTAh,1,0,False,590.0
0,579e18fc4a84da00014c6f4f,familiarity,23,LckGN,cdKBY,0,0,True,287.0
0,579e18fc4a84da00014c6f4f,familiarity,24,ktBd,KEdl,0,0,True,339.0
0,579e18fc4a84da00014c6f4f,familiarity,25,YArG,uvaU,0,0,True,345.0
0,579e18fc4a84da00014c6f4f,familiarity,26,CKOb,PEtE,0,0,True,307.0
0,579e18fc4a84da00014c6f4f,familiarity,27,kPkRA,ABPRB,1,1,True,338.0
0,579e18fc4a84da00014c6f4f,familiarity,28,RtRh,blMk,1,1,True,326.0
0,579e18fc4a84da00014c6f4f,familiarity,29,QLrOJ,mZUrQ,0,0,True,329.0
0,579e18fc4a84da00014c6f4f,familiarity,30,TmTm,mKcD,0,1,False,301.0
0,5b6aa4aa0d748b0001fb5260,familiarity,1,hmKPM,Phktk,0,0,True,3902.0
0,5b6aa4aa0d748b0001fb5260,familiarity,2,JrGv,AOUl,1,0,False,1698.0
0,5b6aa4aa0d748b0001fb5260,familiarity,3,DlDT,Ckbd,1,1,True,1494.0
0,5b6aa4aa0d748b0001fb5260,familiarity,4,TEBK,dCKc,1,1,True,1918.0
0,5b6aa4aa0d748b0001fb5260,familiarity,5,dGLAl,dmZvm,0,1,False,2137.0
0,5b6aa4aa0d748b0001fb5260,familiarity,6,bRC,dPc,0,0,True,1561.0
0,5b6aa4aa0d748b0001fb5260,familiarity,7,YZJO,hbkd,1,1,True,1446.0
0,5b6aa4aa0d748b0001fb5260,familiarity,8,TdmA,bcOR,0,0,True,838.0
0,5b6aa4aa0d748b0001fb5260,familiarity,9,ckduA,GNAca,1,1,True,1582.0
0,5b6aa4aa0d748b0001fb5260,familiarity,10,laYmr,DOBhY,0,1,False,1502.0
0,5b6aa4aa0d748b0001fb5260,familiarity,11,vmuLl,EtMDM,1,0,False,1697.0
0,5b6aa4aa0d748b0001fb5260,familiarity,12,NmAG,UmNJ,0,0,True,1396.0
0,5b6aa4aa0d748b0001fb5260,familiarity,13,EcR,cUN,1,1,True,1341.0
0,5b6aa4aa0d748b0001fb5260,familiarity,14,tmAK,CMdP,1,0,False,1502.0
0,5b6aa4aa0d748b0001fb5260,familiarity,15,AlTd,badk,1,0,False,1839.0
0,5b6aa4aa0d748b0001fb5260,familiarity,16,KMDYt,JdOAY,0,1,False,1223.0
0,5b6aa4aa0d748b0001fb5260,familiarity,17,YQbc,YlYc,1,0,False,2366.0
0,5b6aa4aa0d748b0001fb5260,familiarity,18,rvOvU,aNYmb,1,1,True,1410.0
0,5b6aa4aa0d748b0001fb5260,familiarity,19,KElB,TDKh,0,1,False,1329.0
0,5b6aa4aa0d748b0001fb5260,familiarity,20,YaOk,bAdk,0,1,False,1404.0
0,5b6aa4aa0d748b0001fb5260,familiarity,21,Yaum,UdvY,1,1,True,2262.0
0,5b6aa4aa0d748b0001fb5260,familiarity,22,hAROK,ZNLOv,1,1,True,0.0
0,5b6aa4aa0d748b0001fb5260,familiarity,23,Amacl,NAacQ,0,0,True,1676.0
0,5b6aa4aa0d748b0001fb5260,familiarity,24,Yadr,ldAa,1,1,True,1718.0
0,5b6aa4aa0d748b0001fb5260,familiarity,25,DOk,PMd,1,0,False,1990.0
0,5b6aa4aa0d748b0001fb5260,familiarity,26,JUG,MAB,0,0,True,1280.0
0,5b6aa4aa0d748b0001fb5260,familiarity,27,CkBOP,BOCRM,0,0,True,2204.0
0,5b6aa4aa0d748b0001fb5260,familiarity,28,kMEC,kPOt,1,0,False,2518.0
0,5b6aa4aa0d748b0001fb5260,familiarity,29,adYrc,PDPhl,1,1,True,2719.0
0,5b6aa4aa0d748b0001fb5260,familiarity,30,lAOKM,htmhC,0,0,True,1326.0
0,5c1a6bd8f9250d0001b7c589,familiarity,1,Amacl,BOckP,1,0,False,2580.0
0,5c1a6bd8f9250d0001b7c589,familiarity,2,uUY,mCd,1,1,True,2622.0
0,5c1a6bd8f9250d0001b7c589,familiarity,3,BATOc,lKdbc,1,1,True,1019.0
0,5c1a6bd8f9250d0001b7c589,familiarity,4,KDPA,hCkt,1,1,True,1066.0
0,5c1a6bd8f9250d0001b7c589,familiarity,5,DlDT,khmh,1,0,False,1214.0
0,5c1a6bd8f9250d0001b7c589,familiarity,6,QbkAc,LvuOG,0,1,False,822.0
0,5c1a6bd8f9250d0001b7c589,familiarity,7,hlctE,GLluA,1,1,True,743.0
0,5c1a6bd8f9250d0001b7c589,familiarity,8,damYb,ECtbD,1,0,False,854.0
0,5c1a6bd8f9250d0001b7c589,familiarity,9,KABA,ktBd,1,0,False,1013.0
0,5c1a6bd8f9250d0001b7c589,familiarity,10,BdtAC,tmtEM,1,1,True,1027.0
0,5c1a6bd8f9250d0001b7c589,familiarity,11,TRK,Tmc,1,1,True,1002.0
0,5c1a6bd8f9250d0001b7c589,familiarity,12,OJlN,GAcY,1,1,True,912.0
0,5c1a6bd8f9250d0001b7c589,familiarity,13,OYK,lRE,1,1,True,971.0
0,5c1a6bd8f9250d0001b7c589,familiarity,14,dRA,rAm,1,1,True,930.0
0,5c1a6bd8f9250d0001b7c589,familiarity,15,bYGOZ,bRABt,1,0,False,693.0
0,5c1a6bd8f9250d0001b7c589,familiarity,16,kMbTR,dmZvm,0,0,True,489.0
0,5c1a6bd8f9250d0001b7c589,familiarity,17,uQuZc,EPMDk,0,0,True,1047.0
0,5c1a6bd8f9250d0001b7c589,familiarity,18,TmTm,QvlZ,0,0,True,728.0
0,5c1a6bd8f9250d0001b7c589,familiarity,19,dClOC,advYO,0,0,True,784.0
0,5c1a6bd8f9250d0001b7c589,familiarity,20,GQrc,NQZv,0,0,True,599.0
0,5c1a6bd8f9250d0001b7c589,familiarity,21,kGua,YlYc,1,1,True,1029.0
0,5c1a6bd8f9250d0001b7c589,familiarity,22,YLU,kbu,1,1,True,1498.0
0,5c1a6bd8f9250d0001b7c589,familiarity,23,DOBhY,NvuGr,0,1,False,498.0
0,5c1a6bd8f9250d0001b7c589,familiarity,24,TPCb,cMRl,0,0,True,404.0
0,5c1a6bd8f9250d0001b7c589,familiarity,25,DmAME,DkTCP,1,0,False,485.0
0,5c1a6bd8f9250d0001b7c589,familiarity,26,kGamN,bdUNu,0,1,False,417.0
0,5c1a6bd8f9250d0001b7c589,familiarity,27,OAmGr,QcQAJ,1,1,True,454.0
0,5c1a6bd8f9250d0001b7c589,familiarity,28,Zvalv,kKEdM,0,0,True,379.0
0,5c1a6bd8f9250d0001b7c589,familiarity,29,OJGQ,kuvb,0,0,True,417.0
0,5c1a6bd8f9250d0001b7c589,familiarity,30,OcN,Arv,1,1,True,338.0
0,5c437f6a4fe4f800016e3d52,familiarity,1,OcN,lvk,1,1,True,2659.0
0,5c437f6a4fe4f800016e3d52,familiarity,2,KBKBE,AZaJc,1,1,True,2287.0
0,5c437f6a4fe4f800016e3d52,familiarity,3,ZvkL,bAdk,1,1,True,2587.0
0,5c437f6a4fe4f800016e3d52,familiarity,4,QbkAc,ZNLOv,1,1,True,2150.0
0,5c437f6a4fe4f800016e3d52,familiarity,5,cBROB,Ldrbv,0,0,True,2008.0
0,5c437f6a4fe4f800016e3d52,familiarity,6,Tbk,APT,1,0,False,1871.0
0,5c437f6a4fe4f800016e3d52,familiarity,7,EltMB,KMDYt,1,1,True,2360.0
0,5c437f6a4fe4f800016e3d52,familiarity,8,rAm,Tmc,0,1,False,2855.0
0,5c437f6a4fe4f800016e3d52,familiarity,9,QOLmu,kRCkO,1,1,True,2183.0
0,5c437f6a4fe4f800016e3d52,familiarity,10,lGZv,Ehbt,1,0,False,1931.0
0,5c437f6a4fe4f800016e3d52,familiarity,11,ACcO,RtRh,0,1,False,2651.0
0,5c437f6a4fe4f800016e3d52,familiarity,12,CDEmY,NAacQ,1,1,True,2184.0
0,5c437f6a4fe4f800016e3d52,familiarity,13,Glu,uda,1,0,False,2031.0
0,5c437f6a4fe4f800016e3d52,familiarity,14,NbmQU,vkYGl,0,1,False,1980.0
0,5c437f6a4fe4f800016e3d52,familiarity,15,rvUb,YArG,0,1,False,2414.0
0,5c437f6a4fe4f800016e3d52,familiarity,16,hkRK,kuvb,1,1,True,1843.0
0,5c437f6a4fe4f800016e3d52,familiarity,17,JvaA,lMck,1,1,True,1645.0
0,5c437f6a4fe4f800016e3d52,familiarity,18,DKP,rab,1,1,True,1681.0
0,5c437f6a4fe4f800016e3d52,familiarity,19,Mlth,krUQ,0,0,True,1579.0
0,5c437f6a4fe4f800016e3d52,familiarity,20,bcbM,UmNJ,0,0,True,2086.0
0,5c437f6a4fe4f800016e3d52,familiarity,21,dmRb,lRCB,1,0,False,1548.0
0,5c437f6a4fe4f800016e3d52,familiarity,22,ObZbA,aNYmb,1,1,True,1632.0
0,5c437f6a4fe4f800016e3d52,familiarity,23,cPK,kmU,1,1,True,1519.0
0,5c437f6a4fe4f800016e3d52,familiarity,24,Juaml,PEkhA,1,0,False,1667.0
0,5c437f6a4fe4f800016e3d52,familiarity,25,hAROK,BMEMA,1,1,True,991.0
0,5c437f6a4fe4f800016e3d52,familiarity,26,GAcY,YaOk,1,0,False,1954.0
0,5c437f6a4fe4f800016e3d52,familiarity,27,JcUk,rAJu,1,1,True,976.0
0,5c437f6a4fe4f800016e3d52,familiarity,28,mBbK,OcZJ,0,1,False,833.0
0,5c437f6a4fe4f800016e3d52,familiarity,29,cMRl,EKBO,0,1,False,2061.0
0,5c437f6a4fe4f800016e3d52,familiarity,30,NbacA,kLvdN,1,1,True,1671.0
0,5c840aedbad8fb000106cb44,familiarity,1,hlbtb,GumLl,0,1,False,4617.0
0,5c840aedbad8fb000106cb44,familiarity,2,lTmO,Ctmb,1,0,False,2216.0
0,5c840aedbad8fb000106cb44,familiarity,3,Tbk,lvk,1,1,True,1944.0
0,5c840aedbad8fb000106cb44,familiarity,4,tRPD,OdOP,0,0,True,1959.0
0,5c840aedbad8fb000106cb44,familiarity,5,EtMDM,NbacA,0,0,True,2253.0
0,5c840aedbad8fb000106cb44,familiarity,6,kbu,APT,1,1,True,1666.0
0,5c840aedbad8fb000106cb44,familiarity,7,JNka,AMkC,1,1,True,1325.0
0,5c840aedbad8fb000106cb44,familiarity,8,cAZu,dmRb,1,1,True,2067.0
0,5c840aedbad8fb000106cb44,familiarity,9,LdQv,aUZA,1,1,True,1513.0
0,5c840aedbad8fb000106cb44,familiarity,10,RCdc,mKcD,0,0,True,913.0
0,5c840aedbad8fb000106cb44,familiarity,11,LcO,Dmh,1,1,True,1155.0
0,5c840aedbad8fb000106cb44,familiarity,12,BCD,cUN,0,1,False,1278.0
0,5c840aedbad8fb000106cb44,familiarity,13,uvaU,dTAh,1,1,True,1162.0
0,5c840aedbad8fb000106cb44,familiarity,14,lcOc,Ckbd,1,0,False,495.0
0,5c840aedbad8fb000106cb44,familiarity,15,vJab,UmNJ,0,0,True,603.0
0,5c840aedbad8fb000106cb44,familiarity,16,UJmr,QONk,0,1,False,554.0
0,5c840aedbad8fb000106cb44,familiarity,17,NLQGm,MBKRE,1,1,True,1162.0
0,5c840aedbad8fb000106cb44,familiarity,18,kcCRt,dGLAl,1,1,True,1209.0
0,5c840aedbad8fb000106cb44,familiarity,19,AlUY,aYaN,1,0,False,1261.0
0,5c840aedbad8fb000106cb44,familiarity,20,TbKME,Ldrbv,0,1,False,1782.0
0,5c840aedbad8fb000106cb44,familiarity,21,kabJb,rGUAY,1,0,False,1518.0
0,5c840aedbad8fb000106cb44,familiarity,22,CDEmY,chEDO,1,0,False,1114.0
0,5c840aedbad8fb000106cb44,familiarity,23,dUr,vJQ,0,1,False,1318.0
0,5c840aedbad8fb000106cb44,familiarity,24,AZbl,rvAJ,1,1,True,1371.0
0,5c840aedbad8fb000106cb44,familiarity,25,OcN,uda,0,0,True,1028.0
0,5c840aedbad8fb000106cb44,familiarity,26,lAOKM,hBmMC,0,1,False,1062.0
0,5c840aedbad8fb000106cb44,familiarity,27,hEct,AlTd,1,1,True,1812.0
0,5c840aedbad8fb000106cb44,familiarity,28,dMThk,DOBhY,0,1,False,1069.0
0,5c840aedbad8fb000106cb44,familiarity,29,Akd,ATc,1,0,False,845.0
0,5c840aedbad8fb000106cb44,familiarity,30,Cchtd,hAROK,1,1,True,1085.0
0,5d696d1c55742f001af29220,familiarity,1,mhc,uZc,1,1,True,4603.0
0,5d696d1c55742f001af29220,familiarity,2,GJGcZ,RlAKc,0,1,False,3310.0
0,5d696d1c55742f001af29220,familiarity,3,PCMPK,auYAk,1,1,True,2929.0
0,5d696d1c55742f001af29220,familiarity,4,QLrOJ,OdlNm,1,0,False,5348.0
0,5d696d1c55742f001af29220,familiarity,5,Juaml,JdOAY,0,1,False,2011.0
0,5d696d1c55742f001af29220,familiarity,6,kMbTR,UdlGQ,0,0,True,2762.0
0,5d696d1c55742f001af29220,familiarity,7,PYkC,YbBT,0,0,True,2761.0
0,5d696d1c55742f001af29220,familiarity,8,YArG,AMkC,0,1,False,2020.0
0,5d696d1c55742f001af29220,familiarity,9,OQAr,rLaZ,1,1,True,1886.0
0,5d696d1c55742f001af29220,familiarity,10,OMC,mkc,0,1,False,3206.0
0,5d696d1c55742f001af29220,familiarity,11,OPE,OYK,0,1,False,3622.0
0,5d696d1c55742f001af29220,familiarity,12,QcQAJ,DkTCP,0,0,True,1469.0
0,5d696d1c55742f001af29220,familiarity,13,MAB,cPK,0,0,True,2353.0
0,5d696d1c55742f001af29220,familiarity,14,COtBD,YlCPB,1,0,False,3113.0
0,5d696d1c55742f001af29220,familiarity,15,hbkd,UvOG,1,1,True,1184.0
0,5d696d1c55742f001af29220,familiarity,16,lRCB,OkGY,1,0,False,3638.0
0,5d696d1c55742f001af29220,familiarity,17,kam,YBO,0,0,True,1706.0
0,5d696d1c55742f001af29220,familiarity,18,vAar,DlDT,1,1,True,3366.0
0,5d696d1c55742f001af29220,familiarity,19,Ehbt,MCkm,1,0,False,6504.0
0,5d696d1c55742f001af29220,familiarity,20,rdLJa,lCbcm,1,0,False,3763.0
0,5d696d1c55742f001af29220,familiarity,21,GQYQ,AOUl,0,0,True,2750.0
0,5d696d1c55742f001af29220,familiarity,22,YKRk,ZvkL,0,0,True,3299.0
0,5d696d1c55742f001af29220,familiarity,23,btlck,AlQaQ,1,1,True,3547.0
0,5d696d1c55742f001af29220,familiarity,24,cMRl,CMdP,0,0,True,2517.0
0,5d696d1c55742f001af29220,familiarity,25,LOLkU,Qclad,0,0,True,1878.0
0,5d696d1c55742f001af29220,familiarity,26,Phktk,KRARm,0,0,True,2285.0
0,5d696d1c55742f001af29220,familiarity,27,mvG,BbM,1,0,False,1498.0
0,5d696d1c55742f001af29220,familiarity,28,YOZN,GQrc,0,1,False,2872.0
0,5d696d1c55742f001af29220,familiarity,29,ZYcQU,EPMDk,0,1,False,4219.0
0,5d696d1c55742f001af29220,familiarity,30,uAkr,tdDd,0,1,False,2238.0
0,5db16ce33990ed0014564873,familiarity,1,NvuGr,ckLAL,1,1,True,3545.0
0,5db16ce33990ed0014564873,familiarity,2,bROC,CPMl,1,0,False,1535.0
0,5db16ce33990ed0014564873,familiarity,3,bcOR,Abka,1,0,False,2326.0
0,5db16ce33990ed0014564873,familiarity,4,EYtYR,kRCkO,0,0,True,2563.0
0,5db16ce33990ed0014564873,familiarity,5,JdGm,AMkC,1,1,True,1086.0
0,5db16ce33990ed0014564873,familiarity,6,TKDk,TdTD,1,1,True,4012.0
0,5db16ce33990ed0014564873,familiarity,7,YQbc,rvAJ,1,0,False,2104.0
0,5db16ce33990ed0014564873,familiarity,8,DOAK,YcdO,1,0,False,1512.0
0,5db16ce33990ed0014564873,familiarity,9,OcN,YNu,0,0,True,3223.0
0,5db16ce33990ed0014564873,familiarity,10,EPBT,lBKt,0,0,True,2734.0
0,5db16ce33990ed0014564873,familiarity,11,YaOk,bdtK,0,0,True,1563.0
0,5db16ce33990ed0014564873,familiarity,12,GLYrA,ubALm,1,1,True,842.0
0,5db16ce33990ed0014564873,familiarity,13,UdvY,rLkm,0,0,True,3155.0
0,5db16ce33990ed0014564873,familiarity,14,ALOrl,thbOM,0,0,True,1354.0
0,5db16ce33990ed0014564873,familiarity,15,EhRm,muYN,0,1,False,1589.0
0,5db16ce33990ed0014564873,familiarity,16,KElB,Yadr,0,0,True,1385.0
0,5db16ce33990ed0014564873,familiarity,17,ArQu,adkr,1,1,True,994.0
0,5db16ce33990ed0014564873,familiarity,18,aLNlk,NbacA,1,0,False,3249.0
0,5db16ce33990ed0014564873,familiarity,19,YkZ,aQr,1,1,True,1801.0
0,5db16ce33990ed0014564873,familiarity,20,JZOAk,OAblc,0,0,True,1889.0
0,5db16ce33990ed0014564873,familiarity,21,KOYC,QONk,1,1,True,1266.0
0,5db16ce33990ed0014564873,familiarity,22,PCPDh,Juaml,1,0,False,1271.0
0,5db16ce33990ed0014564873,familiarity,23,EdBb,dCKc,1,0,False,1858.0
0,5db16ce33990ed0014564873,familiarity,24,BdtAC,OAmAd,1,0,False,1538.0
0,5db16ce33990ed0014564873,familiarity,25,EMbDP,mLdkZ,0,1,False,1761.0
0,5db16ce33990ed0014564873,familiarity,26,vJab,lkAk,0,0,True,1182.0
0,5db16ce33990ed0014564873,familiarity,27,OJlN,OdOP,0,0,True,2185.0
0,5db16ce33990ed0014564873,familiarity,28,DbMR,cAZu,0,0,True,1433.0
0,5db16ce33990ed0014564873,familiarity,29,kdaAJ,rcmuv,1,1,True,2231.0
0,5db16ce33990ed0014564873,familiarity,30,OYK,ark,0,0,True,1112.0
0,5e248b6f0c0b31718a9d3f31,familiarity,1,TklD,ACcO,0,0,True,1411.0
0,5e248b6f0c0b31718a9d3f31,familiarity,2,tDPRk,KAERM,0,1,False,892.0
0,5e248b6f0c0b31718a9d3f31,familiarity,3,dmRb,uauO,1,1,True,1030.0
0,5e248b6f0c0b31718a9d3f31,familiarity,4,Abka,rZYd,0,0,True,766.0
0,5e248b6f0c0b31718a9d3f31,familiarity,5,rLaZ,lcOc,1,1,True,1044.0
0,5e248b6f0c0b31718a9d3f31,familiarity,6,RKYk,Udbd,1,0,False,1511.0
0,5e248b6f0c0b31718a9d3f31,familiarity,7,UrOQ,RhPm,0,0,True,1269.0
0,5e248b6f0c0b31718a9d3f31,familiarity,8,BbOD,mARM,1,0,False,1043.0
0,5e248b6f0c0b31718a9d3f31,familiarity,9,kuvb,McMD,0,1,False,816.0
0,5e248b6f0c0b31718a9d3f31,familiarity,10,PDPhl,ObOQl,1,1,True,1062.0
0,5e248b6f0c0b31718a9d3f31,familiarity,11,rkJu,lZcu,1,0,False,1267.0
0,5e248b6f0c0b31718a9d3f31,familiarity,12,lKdbc,TbKME,0,1,False,958.0
0,5e248b6f0c0b31718a9d3f31,familiarity,13,bTE,DKP,0,0,True,854.0
0,5e248b6f0c0b31718a9d3f31,familiarity,14,YUNkZ,laYmr,0,0,True,945.0
0,5e248b6f0c0b31718a9d3f31,familiarity,15,tRdM,Ctmb,1,0,False,1259.0
0,5e248b6f0c0b31718a9d3f31,familiarity,16,LuNZ,LuaU,0,1,False,1064.0
0,5e248b6f0c0b31718a9d3f31,familiarity,17,Grub,dKRD,0,0,True,741.0
0,5e248b6f0c0b31718a9d3f31,familiarity,18,NkUA,TmTm,0,1,False,780.0
0,5e248b6f0c0b31718a9d3f31,familiarity,19,Tbk,JcL,1,0,False,994.0
0,5e248b6f0c0b31718a9d3f31,familiarity,20,kCRm,hkRK,1,0,False,1095.0
0,5e248b6f0c0b31718a9d3f31,familiarity,21,YArG,vQdO,0,0,True,930.0
0,5e248b6f0c0b31718a9d3f31,familiarity,22,UZu,ABb,0,1,False,471.0
0,5e248b6f0c0b31718a9d3f31,familiarity,23,Akd,uda,1,0,False,1056.0
0,5e248b6f0c0b31718a9d3f31,familiarity,24,KOYC,PcBT,1,0,False,651.0
0,5e248b6f0c0b31718a9d3f31,familiarity,25,dNZA,adkr,1,1,True,474.0
0,5e248b6f0c0b31718a9d3f31,familiarity,26,GumLl,kdaAJ,1,0,False,790.0
0,5e248b6f0c0b31718a9d3f31,familiarity,27,MDKP,PlEK,1,0,False,1072.0
0,5e248b6f0c0b31718a9d3f31,familiarity,28,OdYP,dCKc,1,0,False,961.0
0,5e248b6f0c0b31718a9d3f31,familiarity,29,rba,dRA,1,1,True,944.0
0,5e248b6f0c0b31718a9d3f31,familiarity,30,adYrc,hmKPM,1,1,True,1352.0
0,5e2b03f0005f2a02c5a64f7b,familiarity,1,GUOA,TdmA,1,1,True,4447.0
0,5e2b03f0005f2a02c5a64f7b,familiarity,2,KmE,JQA,1,0,False,1997.0
0,5e2b03f0005f2a02c5a64f7b,familiarity,3,Ckbd,tmAK,0,1,False,1397.0
0,5e2b03f0005f2a02c5a64f7b,familiarity,4,BEPO,mdkK,1,0,False,1024.0
0,5e2b03f0005f2a02c5a64f7b,familiarity,5,dMThk,JAdLm,0,1,False,937.0
0,5e2b03f0005f2a02c5a64f7b,familiarity,6,ZcGdN,YJLcA,1,1,True,969.0
0,5e2b03f0005f2a02c5a64f7b,familiarity,7,TPCb,KdAR,0,0,True,1077.0
0,5e2b03f0005f2a02c5a64f7b,familiarity,8,mcOJ,mBbK,1,1,True,1209.0
0,5e2b03f0005f2a02c5a64f7b,familiarity,9,YKRk,tRdM,0,0,True,921.0
0,5e2b03f0005f2a02c5a64f7b,familiarity,10,Qclad,mBmlA,1,1,True,1101.0
0,5e2b03f0005f2a02c5a64f7b,familiarity,11,GumLl,Cchtd,1,1,True,1062.0
0,5e2b03f0005f2a02c5a64f7b,familiarity,12,khmh,CKOb,0,1,False,1052.0
0,5e2b03f0005f2a02c5a64f7b,familiarity,13,amJm,bvuZ,0,1,False,1173.0
0,5e2b03f0005f2a02c5a64f7b,familiarity,14,CEM,PMd,0,0,True,956.0
0,5e2b03f0005f2a02c5a64f7b,familiarity,15,DOk,Jud,1,0,False,1135.0
0,5e2b03f0005f2a02c5a64f7b,familiarity,16,LkNc,MDKP,0,0,True,955.0
0,5e2b03f0005f2a02c5a64f7b,familiarity,17,AlQaQ,dMYBP,0,1,False,1012.0
0,5e2b03f0005f2a02c5a64f7b,familiarity,18,JrGv,dNZA,0,0,True,910.0
0,5e2b03f0005f2a02c5a64f7b,familiarity,19,JNka,PcBT,0,0,True,877.0
0,5e2b03f0005f2a02c5a64f7b,familiarity,20,ctkt,kPOt,0,0,True,896.0
0,5e2b03f0005f2a02c5a64f7b,familiarity,21,PEtE,ALGZ,1,1,True,859.0
0,5e2b03f0005f2a02c5a64f7b,familiarity,22,kabJb,NvuGr,1,0,False,864.0
0,5e2b03f0005f2a02c5a64f7b,familiarity,23,mKcD,UJkG,1,1,True,883.0
0,5e2b03f0005f2a02c5a64f7b,familiarity,24,kmU,vJQ,1,0,False,1405.0
0,5e2b03f0005f2a02c5a64f7b,familiarity,25,UdlGQ,PEkhA,0,1,False,1166.0
0,5e2b03f0005f2a02c5a64f7b,familiarity,26,DBkl,kJdr,1,0,False,1478.0
0,5e2b03f0005f2a02c5a64f7b,familiarity,27,mBYl,vclY,0,0,True,1255.0
0,5e2b03f0005f2a02c5a64f7b,familiarity,28,YNu,TRK,0,0,True,1115.0
0,5e2b03f0005f2a02c5a64f7b,familiarity,29,YArG,cthB,1,1,True,1059.0
0,5e2b03f0005f2a02c5a64f7b,familiarity,30,BOckP,OQarQ,1,0,False,1442.0
0,5e6449ae5932461d728d2152,familiarity,1,tmYh,EPBT,0,0,True,3274.0
0,5e6449ae5932461d728d2152,familiarity,2,Udbd,rvUb,0,0,True,4426.0
0,5e6449ae5932461d728d2152,familiarity,3,NaJb,KElB,1,1,True,2772.0
0,5e6449ae5932461d728d2152,familiarity,4,JdOAY,kMbTR,1,0,False,3173.0
0,5e6449ae5932461d728d2152,familiarity,5,UdYUQ,hYDmt,1,1,True,4114.0
0,5e6449ae5932461d728d2152,familiarity,6,AlUY,CMdP,0,1,False,3587.0
0,5e6449ae5932461d728d2152,familiarity,7,JQA,mCd,0,0,True,6803.0
0,5e6449ae5932461d728d2152,familiarity,8,OPE,tAY,0,1,False,1709.0
0,5e6449ae5932461d728d2152,familiarity,9,ukbY,Ydud,1,1,True,5116.0
0,5e6449ae5932461d728d2152,familiarity,10,tRdM,Ctmb,0,1,False,4353.0
0,5e6449ae5932461d728d2152,familiarity,11,EtMDM,ABPRB,1,1,True,3221.0
0,5e6449ae5932461d728d2152,familiarity,12,Gabk,vclY,0,1,False,2580.0
0,5e6449ae5932461d728d2152,familiarity,13,TRkY,OkGY,1,0,False,2432.0
0,5e6449ae5932461d728d2152,familiarity,14,bRABt,lYrua,1,0,False,3980.0
0,5e6449ae5932461d728d2152,familiarity,15,OtlR,dmRb,0,0,True,2651.0
0,5e6449ae5932461d728d2152,familiarity,16,ZNLOv,DcPTc,1,0,False,7564.0
0,5e6449ae5932461d728d2152,familiarity,17,AYkEh,kLvdN,0,0,True,2931.0
0,5e6449ae5932461d728d2152,familiarity,18,bcOR,CmcO,0,1,False,2513.0
0,5e6449ae5932461d728d2152,familiarity,19,BYhT,dRht,1,1,True,3304.0
0,5e6449ae5932461d728d2152,familiarity,20,dEPD,MBmE,1,1,True,2535.0
0,5e6449ae5932461d728d2152,familiarity,21,ubALm,kabJb,0,0,True,4107.0
0,5e6449ae5932461d728d2152,familiarity,22,Yadr,RtRh,0,0,True,2204.0
0,5e6449ae5932461d728d2152,familiarity,23,CEM,dRA,1,0,False,1976.0
0,5e6449ae5932461d728d2152,familiarity,24,DkTCP,ECtbD,0,1,False,2257.0
0,5e6449ae5932461d728d2152,familiarity,25,TEBK,YTOM,0,1,False,7098.0
0,5e6449ae5932461d728d2152,familiarity,26,UbG,Ald,0,1,False,2355.0
0,5e6449ae5932461d728d2152,familiarity,27,ckdAm,KTDTB,0,0,True,2315.0
0,5e6449ae5932461d728d2152,familiarity,28,JUNa,PEdK,0,0,True,3422.0
0,5e6449ae5932461d728d2152,familiarity,29,ZcGdN,EltMB,1,1,True,2764.0
0,5e6449ae5932461d728d2152,familiarity,30,cYUv,NYZu,1,1,True,2783.0
0,5e8b85a61e16e9057a996e36,familiarity,1,PCMPK,hBmMC,1,1,True,3534.0
0,5e8b85a61e16e9057a996e36,familiarity,2,kabJb,hAROK,1,1,True,2919.0
0,5e8b85a61e16e9057a996e36,familiarity,3,ldAa,AdYl,0,0,True,922.0
0,5e8b85a61e16e9057a996e36,familiarity,4,hlkT,lmbY,0,1,False,1815.0
0,5e8b85a61e16e9057a996e36,familiarity,5,NYZu,lkAk,0,0,True,1605.0
0,5e8b85a61e16e9057a996e36,familiarity,6,uOAO,NJZl,1,1,True,1198.0
0,5e8b85a61e16e9057a996e36,familiarity,7,bNdmG,hlbtb,1,0,False,910.0
0,5e8b85a61e16e9057a996e36,familiarity,8,bYuQ,ACcO,0,1,False,1077.0
0,5e8b85a61e16e9057a996e36,familiarity,9,NmAG,PYkC,0,1,False,1895.0
0,5e8b85a61e16e9057a996e36,familiarity,10,lcOc,TklD,0,1,False,1473.0
0,5e8b85a61e16e9057a996e36,familiarity,11,OBT,uvJ,1,0,False,1239.0
0,5e8b85a61e16e9057a996e36,familiarity,12,Avdk,lBKt,0,1,False,1135.0
0,5e8b85a61e16e9057a996e36,familiarity,13,bcbM,YOZN,0,1,False,1044.0
0,5e8b85a61e16e9057a996e36,familiarity,14,OAmGr,UaZma,0,1,False,971.0
0,5e8b85a61e16e9057a996e36,familiarity,15,hkRK,JauQ,0,1,False,853.0
0,5e8b85a61e16e9057a996e36,familiarity,16,LuNZ,KdAR,1,0,False,1347.0
0,5e8b85a61e16e9057a996e36,familiarity,17,rLaZ,YKRk,1,1,True,1112.0
0,5e8b85a61e16e9057a996e36,familiarity,18,EltMB,htmhC,0,0,True,2023.0
0,5e8b85a61e16e9057a996e36,familiarity,19,MBKRE,DkTCP,1,0,False,857.0
0,5e8b85a61e16e9057a996e36,familiarity,20,UmNJ,bdtK,0,1,False,1255.0
0,5e8b85a61e16e9057a996e36,familiarity,21,YkZ,LcO,1,1,True,1107.0
0,5e8b85a61e16e9057a996e36,familiarity,22,DOk,mZb,0,0,True,1491.0
0,5e8b85a61e16e9057a996e36,familiarity,23,lRE,UZu,0,0,True,1329.0
0,5e8b85a61e16e9057a996e36,familiarity,24,bcOR,lBlE,0,1,False,1708.0
0,5e8b85a61e16e9057a996e36,familiarity,25,EYtYR,LcNUJ,1,0,False,1213.0
0,5e8b85a61e16e9057a996e36,familiarity,26,hlctE,Cchtd,1,1,True,1010.0
0,5e8b85a61e16e9057a996e36,familiarity,27,NQZv,NaJb,0,0,True,839.0
0,5e8b85a61e16e9057a996e36,familiarity,28,dRht,GZJY,1,1,True,1762.0
0,5e8b85a61e16e9057a996e36,familiarity,29,OMC,JQA,0,1,False,1650.0
0,5e8b85a61e16e9057a996e36,familiarity,30,YTOM,dmRb,1,0,False,1927.0
0,5e9dad3fd8d8010ac6a18620,familiarity,1,bRC,lRE,1,0,False,2075.0
0,5e9dad3fd8d8010ac6a18620,familiarity,2,vmuLl,KBKBE,0,0,True,1719.0
0,5e9dad3fd8d8010ac6a18620,familiarity,3,lGZv,KOYC,1,1,True,1604.0
0,5e9dad3fd8d8010ac6a18620,familiarity,4,EhRm,ctkt,0,1,False,1527.0
0,5e9dad3fd8d8010ac6a18620,familiarity,5,YuaNd,Ldrbv,0,0,True,1763.0
0,5e9dad3fd8d8010ac6a18620,familiarity,6,TRkY,TPOM,1,1,True,2254.0
0,5e9dad3fd8d8010ac6a18620,familiarity,7,kuvb,vclY,0,1,False,1363.0
0,5e9dad3fd8d8010ac6a18620,familiarity,8,DBkl,uvaU,0,0,True,1577.0
0,5e9dad3fd8d8010ac6a18620,familiarity,9,lbBDE,NbmQU,1,1,True,1382.0
0,5e9dad3fd8d8010ac6a18620,familiarity,10,kGua,badk,0,0,True,1917.0
0,5e9dad3fd8d8010ac6a18620,familiarity,11,YKPB,DOAK,1,1,True,1719.0
0,5e9dad3fd8d8010ac6a18620,familiarity,12,kmU,PMd,1,1,True,1548.0
0,5e9dad3fd8d8010ac6a18620,familiarity,13,Nac,BbM,1,0,False,1566.0
0,5e9dad3fd8d8010ac6a18620,familiarity,14,kZUb,hbmA,0,1,False,1652.0
0,5e9dad3fd8d8010ac6a18620,familiarity,15,hBmMC,TbKME,0,0,True,2042.0
0,5e9dad3fd8d8010ac6a18620,familiarity,16,JNka,bAdk,1,0,False,1580.0
0,5e9dad3fd8d8010ac6a18620,familiarity,17,NYZu,CmYA,0,0,True,1612.0
0,5e9dad3fd8d8010ac6a18620,familiarity,18,JauQ,rZYd,1,1,True,1780.0
0,5e9dad3fd8d8010ac6a18620,familiarity,19,YbBT,PEtE,0,0,True,1320.0
0,5e9dad3fd8d8010ac6a18620,familiarity,20,APT,Yht,1,0,False,1731.0
0,5e9dad3fd8d8010ac6a18620,familiarity,21,cAZu,mBYl,0,1,False,1175.0
0,5e9dad3fd8d8010ac6a18620,familiarity,22,LQur,bdtK,1,0,False,1828.0
0,5e9dad3fd8d8010ac6a18620,familiarity,23,lRCB,LuaU,0,0,True,1308.0
0,5e9dad3fd8d8010ac6a18620,familiarity,24,cRElD,vkYGl,1,1,True,1627.0
0,5e9dad3fd8d8010ac6a18620,familiarity,25,kKEdM,RYtkc,0,0,True,2908.0
0,5e9dad3fd8d8010ac6a18620,familiarity,26,OYuvb,dKDth,1,0,False,2321.0
0,5e9dad3fd8d8010ac6a18620,familiarity,27,OcYM,OJlN,1,0,False,1301.0
0,5e9dad3fd8d8010ac6a18620,familiarity,28,Ehbt,OMlT,0,1,False,1257.0
0,5e9dad3fd8d8010ac6a18620,familiarity,29,rvAJ,OdOP,0,0,True,1649.0
0,5e9dad3fd8d8010ac6a18620,familiarity,30,mdkK,Mlth,1,0,False,1062.0
0,5ebd8f8679146d0a116bc257,familiarity,1,OPE,cPK,1,1,True,2563.0
0,5ebd8f8679146d0a116bc257,familiarity,2,TklD,JdGm,1,0,False,1919.0
0,5ebd8f8679146d0a116bc257,familiarity,3,htmhC,uQkrd,0,1,False,1721.0
0,5ebd8f8679146d0a116bc257,familiarity,4,ODBDA,ABPRB,1,1,True,1274.0
0,5ebd8f8679146d0a116bc257,familiarity,5,kcOY,YUYa,1,1,True,1883.0
0,5ebd8f8679146d0a116bc257,familiarity,6,PED,YcM,0,0,True,976.0
0,5ebd8f8679146d0a116bc257,familiarity,7,uQuZc,cdKBY,1,0,False,1044.0
0,5ebd8f8679146d0a116bc257,familiarity,8,ldAa,YKPB,0,0,True,1040.0
0,5ebd8f8679146d0a116bc257,familiarity,9,dUr,Cdt,0,0,True,1714.0
0,5ebd8f8679146d0a116bc257,familiarity,10,AlUY,hbkd,0,0,True,1184.0
0,5ebd8f8679146d0a116bc257,familiarity,11,LNUrJ,vuJZu,1,0,False,1565.0
0,5ebd8f8679146d0a116bc257,familiarity,12,BRDh,AdYl,0,0,True,1876.0
0,5ebd8f8679146d0a116bc257,familiarity,13,uUmb,MCkm,1,1,True,1558.0
0,5ebd8f8679146d0a116bc257,familiarity,14,QGb,rab,0,0,True,1170.0
0,5ebd8f8679146d0a116bc257,familiarity,15,kcCRt,hTtBb,0,0,True,1418.0
0,5ebd8f8679146d0a116bc257,familiarity,16,lrZG,lRCB,1,0,False,2068.0
0,5ebd8f8679146d0a116bc257,familiarity,17,MhKd,JAaG,0,1,False,569.0
0,5ebd8f8679146d0a116bc257,familiarity,18,rULv,KMOc,1,1,True,786.0
0,5ebd8f8679146d0a116bc257,familiarity,19,dGLAl,NvuGr,1,0,False,351.0
0,5ebd8f8679146d0a116bc257,familiarity,20,dTmED,ZdNmU,0,1,False,283.0
0,5ebd8f8679146d0a116bc257,familiarity,21,hRKm,blMk,1,0,False,193.0
0,5ebd8f8679146d0a116bc257,familiarity,22,EKBO,EhRm,1,0,False,188.0
0,5ebd8f8679146d0a116bc257,familiarity,23,alJY,BPAl,1,1,True,269.0
0,5ebd8f8679146d0a116bc257,familiarity,24,EPMDk,EltMB,1,0,False,74.0
0,5ebd8f8679146d0a116bc257,familiarity,25,cuOJb,DRPkY,0,1,False,287.0
0,5ebd8f8679146d0a116bc257,familiarity,26,GQrc,PdDT,0,0,True,160.0
0,5ebd8f8679146d0a116bc257,familiarity,27,kCRm,ravu,1,1,True,414.0
0,5ebd8f8679146d0a116bc257,familiarity,28,lKdbc,kdaAJ,0,0,True,293.0
0,5ebd8f8679146d0a116bc257,familiarity,29,uauO,uvaU,1,0,False,187.0
0,5ebd8f8679146d0a116bc257,familiarity,30,NmAG,bvkr,1,1,True,296.0
0,5ecba4b6ef75d53505406d57,familiarity,1,thbOM,LNUrJ,1,1,True,3641.0
0,5ecba4b6ef75d53505406d57,familiarity,2,mbZl,YmBd,0,1,False,1218.0
0,5ecba4b6ef75d53505406d57,familiarity,3,dNZA,OMlT,0,1,False,1762.0
0,5ecba4b6ef75d53505406d57,familiarity,4,cUN,bRC,0,0,True,1102.0
0,5ecba4b6ef75d53505406d57,familiarity,5,vAvb,YZJm,1,1,True,1170.0
0,5ecba4b6ef75d53505406d57,familiarity,6,dCtMA,DOchl,0,1,False,958.0
0,5ecba4b6ef75d53505406d57,familiarity,7,rckO,RdCc,0,1,False,1063.0
0,5ecba4b6ef75d53505406d57,familiarity,8,lBKt,vJab,1,1,True,1363.0
0,5ecba4b6ef75d53505406d57,familiarity,9,LckGN,BKDRY,0,0,True,1146.0
0,5ecba4b6ef75d53505406d57,familiarity,10,kKE,PMd,0,1,False,1107.0
0,5ecba4b6ef75d53505406d57,familiarity,11,dvNvA,bmdAB,1,0,False,1099.0
0,5ecba4b6ef75d53505406d57,familiarity,12,COTK,badk,0,1,False,730.0
0,5ecba4b6ef75d53505406d57,familiarity,13,EPERd,ckdAm,0,0,True,685.0
0,5ecba4b6ef75d53505406d57,familiarity,14,AlTd,NkUA,1,0,False,718.0
0,5ecba4b6ef75d53505406d57,familiarity,15,NvYJ,Grbk,0,0,True,711.0
0,5ecba4b6ef75d53505406d57,familiarity,16,Qclad,JAdLm,1,1,True,740.0
0,5ecba4b6ef75d53505406d57,familiarity,17,bdtK,OcYM,0,1,False,917.0
0,5ecba4b6ef75d53505406d57,familiarity,18,ravu,Udbd,1,0,False,685.0
0,5ecba4b6ef75d53505406d57,familiarity,19,GNAca,YlCPB,0,1,False,1485.0
0,5ecba4b6ef75d53505406d57,familiarity,20,hYDmt,lbBDE,1,1,True,914.0
0,5ecba4b6ef75d53505406d57,familiarity,21,mUOcO,UdlGQ,0,0,True,1161.0
0,5ecba4b6ef75d53505406d57,familiarity,22,UrOQ,GJZm,1,1,True,1107.0
0,5ecba4b6ef75d53505406d57,familiarity,23,GUa,DKP,1,0,False,789.0
0,5ecba4b6ef75d53505406d57,familiarity,24,hEct,LUOk,0,1,False,694.0
0,5ecba4b6ef75d53505406d57,familiarity,25,hCkt,OCmk,1,0,False,1081.0
0,5ecba4b6ef75d53505406d57,familiarity,26,OMC,OYK,1,0,False,1206.0
0,5ecba4b6ef75d53505406d57,familiarity,27,kPM,Qru,0,0,True,854.0
0,5ecba4b6ef75d53505406d57,familiarity,28,lRCB,NaJb,1,0,False,777.0
0,5ecba4b6ef75d53505406d57,familiarity,29,EtMDM,AYkEh,0,0,True,836.0
0,5ecba4b6ef75d53505406d57,familiarity,30,YkZ,Jud,1,1,True,1201.0
0,5ed14691e983f5067842fd20,familiarity,1,bcbM,bAMO,0,1,False,2022.0
0,5ed14691e983f5067842fd20,familiarity,2,ArQu,GUOA,0,1,False,2430.0
0,5ed14691e983f5067842fd20,familiarity,3,vAuNl,CkBOP,1,0,False,2182.0
0,5ed14691e983f5067842fd20,familiarity,4,DMRP,TPOM,0,0,True,1211.0
0,5ed14691e983f5067842fd20,familiarity,5,uQuZc,NLQGm,1,1,True,1053.0
0,5ed14691e983f5067842fd20,familiarity,6,Grub,rkYL,0,0,True,2384.0
0,5ed14691e983f5067842fd20,familiarity,7,OdlNm,YuaNd,1,0,False,1334.0
0,5ed14691e983f5067842fd20,familiarity,8,YObA,rkra,1,1,True,1584.0
0,5ed14691e983f5067842fd20,familiarity,9,Abka,OJlN,1,1,True,1440.0
0,5ed14691e983f5067842fd20,familiarity,10,PCPDh,hmKPM,1,1,True,1451.0
0,5ed14691e983f5067842fd20,familiarity,11,aNYmb,AmQOY,1,1,True,2024.0
0,5ed14691e983f5067842fd20,familiarity,12,ktBd,mhtc,1,1,True,2183.0
0,5ed14691e983f5067842fd20,familiarity,13,cthB,vQdO,0,1,False,1892.0
0,5ed14691e983f5067842fd20,familiarity,14,EPERd,lCbcm,1,1,True,1055.0
0,5ed14691e983f5067842fd20,familiarity,15,thbOM,ckdAm,0,0,True,3032.0
0,5ed14691e983f5067842fd20,familiarity,16,Tbk,OBT,0,0,True,2258.0
0,5ed14691e983f5067842fd20,familiarity,17,Dmh,mvG,1,1,True,1624.0
0,5ed14691e983f5067842fd20,familiarity,18,QGb,ATc,0,0,True,2100.0
0,5ed14691e983f5067842fd20,familiarity,19,kGlU,kcOY,0,0,True,2307.0
0,5ed14691e983f5067842fd20,familiarity,20,kdrO,amJm,0,1,False,1301.0
0,5ed14691e983f5067842fd20,familiarity,21,LGkA,YZJO,1,1,True,1620.0
0,5ed14691e983f5067842fd20,familiarity,22,YDE,CEM,0,1,False,1439.0
0,5ed14691e983f5067842fd20,familiarity,23,rULv,Ydud,0,1,False,1807.0
0,5ed14691e983f5067842fd20,familiarity,24,EtMDM,LAclA,1,1,True,2176.0
0,5ed14691e983f5067842fd20,familiarity,25,GumLl,Udumd,0,0,True,1451.0
0,5ed14691e983f5067842fd20,familiarity,26,Ctmb,Ehbt,1,0,False,1550.0
0,5ed14691e983f5067842fd20,familiarity,27,kJdr,Zckv,1,1,True,1616.0
0,5ed14691e983f5067842fd20,familiarity,28,Phktk,LOLkU,1,0,False,1573.0
0,5ed14691e983f5067842fd20,familiarity,29,mAM,EAO,1,0,False,1567.0
0,5ed14691e983f5067842fd20,familiarity,30,NJZl,YZJm,0,0,True,1752.0
0,5eee55e93867d30a7771e616,familiarity,1,ZJLmr,AlQaQ,1,1,True,6440.0
0,5eee55e93867d30a7771e616,familiarity,2,MkmEd,tDPRk,1,1,True,2072.0
0,5eee55e93867d30a7771e616,familiarity,3,DlDd,CPMl,1,0,False,2225.0
0,5eee55e93867d30a7771e616,familiarity,4,JmNk,chAh,0,1,False,1384.0
0,5eee55e93867d30a7771e616,familiarity,5,dGLAl,auYAk,0,1,False,1707.0
0,5eee55e93867d30a7771e616,familiarity,6,GUa,DKP,1,0,False,1528.0
0,5eee55e93867d30a7771e616,familiarity,7,Ydud,PlEK,0,1,False,1502.0
0,5eee55e93867d30a7771e616,familiarity,8,lYrua,CkBOP,0,0,True,974.0
0,5eee55e93867d30a7771e616,familiarity,9,YZJm,JUNa,1,1,True,1788.0
0,5eee55e93867d30a7771e616,familiarity,10,rdLJa,OYuvb,1,1,True,1076.0
0,5eee55e93867d30a7771e616,familiarity,11,uUY,cPK,0,1,False,1923.0
0,5eee55e93867d30a7771e616,familiarity,12,GUOA,YTOM,0,1,False,1905.0
0,5eee55e93867d30a7771e616,familiarity,13,bcOR,YArG,0,0,True,2548.0
0,5eee55e93867d30a7771e616,familiarity,14,ATc,rba,1,1,True,1979.0
0,5eee55e93867d30a7771e616,familiarity,15,BdtAC,hlbtb,0,0,True,1439.0
0,5eee55e93867d30a7771e616,familiarity,16,PCPDh,dRbDb,0,1,False,1170.0
0,5eee55e93867d30a7771e616,familiarity,17,chEDO,ckdAm,0,1,False,3252.0
0,5eee55e93867d30a7771e616,familiarity,18,PYkC,aONd,0,0,True,1544.0
0,5eee55e93867d30a7771e616,familiarity,19,uQkrd,ABPRB,0,0,True,1540.0
0,5eee55e93867d30a7771e616,familiarity,20,TAm,QGb,1,1,True,2429.0
0,5eee55e93867d30a7771e616,familiarity,21,YBO,DOk,0,0,True,1644.0
0,5eee55e93867d30a7771e616,familiarity,22,LYGA,Udbd,0,0,True,2634.0
0,5eee55e93867d30a7771e616,familiarity,23,dNZA,YJkb,1,0,False,1660.0
0,5eee55e93867d30a7771e616,familiarity,24,lmbY,lRCB,1,1,True,1959.0
0,5eee55e93867d30a7771e616,familiarity,25,GQYQ,KDPA,1,1,True,1557.0
0,5eee55e93867d30a7771e616,familiarity,26,KmE,cUN,1,0,False,1070.0
0,5eee55e93867d30a7771e616,familiarity,27,MBKRE,kabJb,1,1,True,1228.0
0,5eee55e93867d30a7771e616,familiarity,28,BbOD,YbBT,0,1,False,2375.0
0,5eee55e93867d30a7771e616,familiarity,29,BOckP,NvuGr,0,0,True,1848.0
0,5eee55e93867d30a7771e616,familiarity,30,bAMO,tdDd,0,0,True,3013.0
0,5ef0b54037a90c618ad9e97f,familiarity,1,aYaN,TdTD,1,1,True,2669.0
0,5ef0b54037a90c618ad9e97f,familiarity,2,laYmr,BdtAC,1,1,True,4255.0
0,5ef0b54037a90c618ad9e97f,familiarity,3,DCmh,LUOk,0,0,True,2546.0
0,5ef0b54037a90c618ad9e97f,familiarity,4,CmcO,dRht,0,0,True,3415.0
0,5ef0b54037a90c618ad9e97f,familiarity,5,Jud,kam,0,0,True,2704.0
0,5ef0b54037a90c618ad9e97f,familiarity,6,BECk,dYdA,1,1,True,1943.0
0,5ef0b54037a90c618ad9e97f,familiarity,7,ObOQl,mZUrQ,0,0,True,2685.0
0,5ef0b54037a90c618ad9e97f,familiarity,8,TPOM,mBbK,1,1,True,2042.0
0,5ef0b54037a90c618ad9e97f,familiarity,9,mUOcO,JZOAk,1,1,True,1621.0
0,5ef0b54037a90c618ad9e97f,familiarity,10,AZbl,kDOm,0,0,True,2530.0
0,5ef0b54037a90c618ad9e97f,familiarity,11,LcO,uda,0,0,True,1563.0
0,5ef0b54037a90c618ad9e97f,familiarity,12,ABPRB,YlCPB,1,1,True,2485.0
0,5ef0b54037a90c618ad9e97f,familiarity,13,CEM,hBK,1,1,True,2199.0
0,5ef0b54037a90c618ad9e97f,familiarity,14,uauO,vclY,0,0,True,1250.0
0,5ef0b54037a90c618ad9e97f,familiarity,15,EMYK,dCKc,0,0,True,2701.0
0,5ef0b54037a90c618ad9e97f,familiarity,16,tKDmh,YLQmG,1,1,True,2536.0
0,5ef0b54037a90c618ad9e97f,familiarity,17,dJNr,krGu,0,1,False,3634.0
0,5ef0b54037a90c618ad9e97f,familiarity,18,NQZv,EhRm,0,0,True,979.0
0,5ef0b54037a90c618ad9e97f,familiarity,19,DcPTc,Cchtd,0,1,False,4658.0
0,5ef0b54037a90c618ad9e97f,familiarity,20,AlNU,JcUk,0,0,True,2455.0
0,5ef0b54037a90c618ad9e97f,familiarity,21,bdtK,DBlh,1,1,True,4318.0
0,5ef0b54037a90c618ad9e97f,familiarity,22,TklD,MTdY,1,0,False,3425.0
0,5ef0b54037a90c618ad9e97f,familiarity,23,mLJ,bTE,1,1,True,1239.0
0,5ef0b54037a90c618ad9e97f,familiarity,24,mBmlA,KBKBE,0,1,False,2086.0
0,5ef0b54037a90c618ad9e97f,familiarity,25,chEDO,kKEdM,0,0,True,2276.0
0,5ef0b54037a90c618ad9e97f,familiarity,26,JauQ,mdkK,0,1,False,2240.0
0,5ef0b54037a90c618ad9e97f,familiarity,27,dmRb,Abka,0,1,False,1472.0
0,5ef0b54037a90c618ad9e97f,familiarity,28,EKBO,GQrc,1,1,True,1502.0
0,5ef0b54037a90c618ad9e97f,familiarity,29,mkc,DOk,1,0,False,3199.0
0,5ef0b54037a90c618ad9e97f,familiarity,30,ZNLOv,QcQAJ,1,1,True,1771.0
0,5eff8b9ad19111064484eff7,familiarity,1,TdTD,OEPk,0,0,True,3560.0
0,5eff8b9ad19111064484eff7,familiarity,2,mkmJN,OAmAd,1,1,True,1970.0
0,5eff8b9ad19111064484eff7,familiarity,3,lrZG,CmcO,1,1,True,2534.0
0,5eff8b9ad19111064484eff7,familiarity,4,UdvY,bvkr,0,1,False,1647.0
0,5eff8b9ad19111064484eff7,familiarity,5,LcO,kPM,0,0,True,1481.0
0,5eff8b9ad19111064484eff7,familiarity,6,vAvb,Ydud,0,0,True,2047.0
0,5eff8b9ad19111064484eff7,familiarity,7,dRbDb,NbmQU,0,0,True,2772.0
0,5eff8b9ad19111064484eff7,familiarity,8,TklD,DMRP,1,1,True,1555.0
0,5eff8b9ad19111064484eff7,familiarity,9,PCMPK,Blmcl,1,1,True,2130.0
0,5eff8b9ad19111064484eff7,familiarity,10,LcNUJ,laYmr,1,1,True,2417.0
0,5eff8b9ad19111064484eff7,familiarity,11,DBkl,NJZl,0,0,True,1909.0
0,5eff8b9ad19111064484eff7,familiarity,12,RlAKc,Cchtd,0,0,True,2947.0
0,5eff8b9ad19111064484eff7,familiarity,13,mhc,PTl,0,1,False,1178.0
0,5eff8b9ad19111064484eff7,familiarity,14,ukcY,hkRK,1,1,True,2184.0
0,5eff8b9ad19111064484eff7,familiarity,15,YbBT,lBlE,0,1,False,2054.0
0,5eff8b9ad19111064484eff7,familiarity,16,rLkm,amJm,0,1,False,1379.0
0,5eff8b9ad19111064484eff7,familiarity,17,JvaA,YKPB,1,0,False,1916.0
0,5eff8b9ad19111064484eff7,familiarity,18,Akd,APT,1,0,False,2917.0
0,5eff8b9ad19111064484eff7,familiarity,19,rvAJ,Grub,1,1,True,2256.0
0,5eff8b9ad19111064484eff7,familiarity,20,BbM,lGc,1,1,True,1182.0
0,5eff8b9ad19111064484eff7,familiarity,21,CYPc,LuNZ,0,0,True,2187.0
0,5eff8b9ad19111064484eff7,familiarity,22,rGl,vJQ,0,0,True,1761.0
0,5eff8b9ad19111064484eff7,familiarity,23,cUN,PMd,1,1,True,1772.0
0,5eff8b9ad19111064484eff7,familiarity,24,PdDT,YmBd,0,0,True,1574.0
0,5eff8b9ad19111064484eff7,familiarity,25,kBD,rab,1,1,True,1168.0
0,5eff8b9ad19111064484eff7,familiarity,26,lhCTC,uQuZc,1,0,False,1607.0
0,5eff8b9ad19111064484eff7,familiarity,27,cRElD,AmQOY,1,0,False,2036.0
0,5eff8b9ad19111064484eff7,familiarity,28,YLQmG,TObCO,0,1,False,1617.0
0,5eff8b9ad19111064484eff7,familiarity,29,QLrOJ,kabJb,1,0,False,2216.0
0,5eff8b9ad19111064484eff7,familiarity,30,ObOQl,YNrAm,0,0,True,1075.0
0,5f1165307d03fb0009716b8e,familiarity,1,Grub,GUOA,0,1,False,2191.0
0,5f1165307d03fb0009716b8e,familiarity,2,DOAK,YQbc,0,0,True,3488.0
0,5f1165307d03fb0009716b8e,familiarity,3,PctRC,kdaAJ,0,0,True,1961.0
0,5f1165307d03fb0009716b8e,familiarity,4,kGua,vclY,0,1,False,2428.0
0,5f1165307d03fb0009716b8e,familiarity,5,adkr,blMk,0,1,False,2515.0
0,5f1165307d03fb0009716b8e,familiarity,6,kdEdY,YuaNd,1,0,False,2561.0
0,5f1165307d03fb0009716b8e,familiarity,7,UJmr,OkGY,0,1,False,2618.0
0,5f1165307d03fb0009716b8e,familiarity,8,LUOk,CPMl,1,0,False,2043.0
0,5f1165307d03fb0009716b8e,familiarity,9,Qru,mkc,0,0,True,1667.0
0,5f1165307d03fb0009716b8e,familiarity,10,kDOm,AdDb,0,0,True,1562.0
0,5f1165307d03fb0009716b8e,familiarity,11,JmvmO,EltMB,1,0,False,2319.0
0,5f1165307d03fb0009716b8e,familiarity,12,rvAJ,MhKd,1,0,False,1521.0
0,5f1165307d03fb0009716b8e,familiarity,13,PlEK,OcZJ,1,1,True,1435.0
0,5f1165307d03fb0009716b8e,familiarity,14,hChY,ArQu,0,0,True,1754.0
0,5f1165307d03fb0009716b8e,familiarity,15,KBKBE,dCtMA,0,0,True,2236.0
0,5f1165307d03fb0009716b8e,familiarity,16,CDEmY,bmdAB,0,0,True,1986.0
0,5f1165307d03fb0009716b8e,familiarity,17,kMEC,aUZA,0,1,False,2228.0
0,5f1165307d03fb0009716b8e,familiarity,18,lRE,lGc,1,0,False,1687.0
0,5f1165307d03fb0009716b8e,familiarity,19,bcbM,bvuZ,0,0,True,1036.0
0,5f1165307d03fb0009716b8e,familiarity,20,uOAO,CmYA,1,1,True,2554.0
0,5f1165307d03fb0009716b8e,familiarity,21,LOLkU,BOCRM,1,1,True,1170.0
0,5f1165307d03fb0009716b8e,familiarity,22,DRPkY,kcCRt,1,1,True,1564.0
0,5f1165307d03fb0009716b8e,familiarity,23,YlYc,YKPB,1,1,True,1656.0
0,5f1165307d03fb0009716b8e,familiarity,24,dTAh,NvYJ,1,0,False,1795.0
0,5f1165307d03fb0009716b8e,familiarity,25,EYtYR,COtBD,0,0,True,1582.0
0,5f1165307d03fb0009716b8e,familiarity,26,LuaU,ZdlO,0,0,True,2036.0
0,5f1165307d03fb0009716b8e,familiarity,27,JdOAY,LckGN,1,0,False,1281.0
0,5f1165307d03fb0009716b8e,familiarity,28,YJkb,ldAa,0,1,False,1625.0
0,5f1165307d03fb0009716b8e,familiarity,29,uAkr,hCkt,1,0,False,1219.0
0,5f1165307d03fb0009716b8e,familiarity,30,rdLJa,hBmMC,0,1,False,1362.0
0,5f21c29511084913913af654,familiarity,1,rckO,rZYd,0,0,True,1926.0
0,5f21c29511084913913af654,familiarity,2,mkmJN,dOYml,0,0,True,1961.0
0,5f21c29511084913913af654,familiarity,3,Udbd,bmbN,1,1,True,1647.0
0,5f21c29511084913913af654,familiarity,4,ravu,OcYM,1,0,False,1589.0
0,5f21c29511084913913af654,familiarity,5,BEPO,dCKc,1,0,False,1451.0
0,5f21c29511084913913af654,familiarity,6,hYDmt,laYmr,0,1,False,1522.0
0,5f21c29511084913913af654,familiarity,7,Jud,OtM,0,0,True,1318.0
0,5f21c29511084913913af654,familiarity,8,dKDth,kKEdM,0,1,False,1291.0
0,5f21c29511084913913af654,familiarity,9,LGkA,OdYP,0,1,False,884.0
0,5f21c29511084913913af654,familiarity,10,Mlth,AZbl,1,0,False,874.0
0,5f21c29511084913913af654,familiarity,11,lTmO,APEM,0,1,False,868.0
0,5f21c29511084913913af654,familiarity,12,TRkY,mBbK,0,0,True,628.0
0,5f21c29511084913913af654,familiarity,13,EMYK,dRht,0,0,True,870.0
0,5f21c29511084913913af654,familiarity,14,hkRK,mARM,1,1,True,1029.0
0,5f21c29511084913913af654,familiarity,15,lYrua,UYZlZ,0,1,False,832.0
0,5f21c29511084913913af654,familiarity,16,kLvdN,PEkhA,0,0,True,1619.0
0,5f21c29511084913913af654,familiarity,17,PMYm,dkLl,1,0,False,477.0
0,5f21c29511084913913af654,familiarity,18,bNdmG,LAclA,0,1,False,468.0
0,5f21c29511084913913af654,familiarity,19,crdY,TEBK,1,1,True,136.0
0,5f21c29511084913913af654,familiarity,20,tmtEM,rvOvU,0,1,False,1901.0
0,5f21c29511084913913af654,familiarity,21,cthB,CPMl,0,1,False,791.0
0,5f21c29511084913913af654,familiarity,22,tmYh,kKRC,0,0,True,1173.0
0,5f21c29511084913913af654,familiarity,23,cYUv,JrGv,0,0,True,976.0
0,5f21c29511084913913af654,familiarity,24,UaZma,ABPRB,0,1,False,298.0
0,5f21c29511084913913af654,familiarity,25,AmQOY,NbacA,0,0,True,774.0
0,5f21c29511084913913af654,familiarity,26,kmU,BbM,1,0,False,171.0
0,5f21c29511084913913af654,familiarity,27,aNYmb,bRABt,0,1,False,286.0
0,5f21c29511084913913af654,familiarity,28,dmRb,UvOG,1,1,True,389.0
0,5f21c29511084913913af654,familiarity,29,PTl,KmE,0,0,True,862.0
0,5f21c29511084913913af654,familiarity,30,khmh,vUdm,1,0,False,130.0
0,5f316280965ec564c886f978,familiarity,1,YLQmG,EYtYR,1,1,True,1458.0
0,5f316280965ec564c886f978,familiarity,2,rULv,GZJY,1,1,True,920.0
0,5f316280965ec564c886f978,familiarity,3,ABb,ark,0,0,True,1064.0
0,5f316280965ec564c886f978,familiarity,4,YmBd,kDOm,1,0,False,977.0
0,5f316280965ec564c886f978,familiarity,5,lKdbc,PctRC,0,0,True,1001.0
0,5f316280965ec564c886f978,familiarity,6,dMYBP,mZUrQ,0,0,True,1017.0
0,5f316280965ec564c886f978,familiarity,7,ukYZ,kGua,0,1,False,816.0
0,5f316280965ec564c886f978,familiarity,8,kbu,mCd,0,0,True,889.0
0,5f316280965ec564c886f978,familiarity,9,Udumd,DmAME,0,1,False,882.0
0,5f316280965ec564c886f978,familiarity,10,OYuvb,AZaJc,0,1,False,946.0
0,5f316280965ec564c886f978,familiarity,11,KOYC,mBYl,1,0,False,266.0
0,5f316280965ec564c886f978,familiarity,12,RKYk,mcOJ,1,0,False,320.0
0,5f316280965ec564c886f978,familiarity,13,mAM,Qru,1,0,False,489.0
0,5f316280965ec564c886f978,familiarity,14,hCkt,bcOR,1,1,True,265.0
0,5f316280965ec564c886f978,familiarity,15,ALGZ,Grbk,0,0,True,799.0
0,5f316280965ec564c886f978,familiarity,16,LdQv,DlDT,0,0,True,135.0
0,5f316280965ec564c886f978,familiarity,17,rab,uvJ,0,0,True,128.0
0,5f316280965ec564c886f978,familiarity,18,Udbd,Avdk,0,1,False,168.0
0,5f316280965ec564c886f978,familiarity,19,tmYh,Ehbt,0,0,True,160.0
0,5f316280965ec564c886f978,familiarity,20,GNAca,dRbDb,1,1,True,441.0
0,5f316280965ec564c886f978,familiarity,21,rZYd,DbMR,0,1,False,209.0
0,5f316280965ec564c886f978,familiarity,22,McMD,MCkm,0,1,False,153.0
0,5f316280965ec564c886f978,familiarity,23,OJGQ,Abka,0,0,True,184.0
0,5f316280965ec564c886f978,familiarity,24,EAO,Tmc,0,0,True,209.0
0,5f316280965ec564c886f978,familiarity,25,ABPRB,LNUrJ,0,0,True,138.0
0,5f316280965ec564c886f978,familiarity,26,YZJm,OdYP,1,0,False,86.0
0,5f316280965ec564c886f978,familiarity,27,TmTm,TdTD,0,1,False,224.0
0,5f316280965ec564c886f978,familiarity,28,YUYa,OZkb,1,0,False,113.0
0,5f316280965ec564c886f978,familiarity,29,hmKPM,ZcGdN,1,1,True,177.0
0,5f316280965ec564c886f978,familiarity,30,kDRKc,lCbcm,1,1,True,256.0
0,5f35782429beab53ef93cc2d,familiarity,1,BYhT,DBlh,0,0,True,6457.0
0,5f35782429beab53ef93cc2d,familiarity,2,Mlth,muYN,1,1,True,2319.0
0,5f35782429beab53ef93cc2d,familiarity,3,OmtlD,cROMt,1,1,True,1403.0
0,5f35782429beab53ef93cc2d,familiarity,4,QONk,EKBO,0,1,False,1333.0
0,5f35782429beab53ef93cc2d,familiarity,5,dmZvm,OAmAd,1,0,False,1294.0
0,5f35782429beab53ef93cc2d,familiarity,6,OtlR,khmh,0,0,True,2018.0
0,5f35782429beab53ef93cc2d,familiarity,7,AlNU,uOAO,0,0,True,1236.0
0,5f35782429beab53ef93cc2d,familiarity,8,tcYbd,ZcGdN,0,0,True,1942.0
0,5f35782429beab53ef93cc2d,familiarity,9,JQA,Cdt,1,1,True,1091.0
0,5f35782429beab53ef93cc2d,familiarity,10,AJLr,vclY,1,0,False,777.0
0,5f35782429beab53ef93cc2d,familiarity,11,mKcD,tRdM,1,0,False,633.0
0,5f35782429beab53ef93cc2d,familiarity,12,JZOAk,BOckP,1,0,False,1110.0
0,5f35782429beab53ef93cc2d,familiarity,13,Udumd,laYmr,1,1,True,898.0
0,5f35782429beab53ef93cc2d,familiarity,14,OAblc,JmvmO,1,1,True,576.0
0,5f35782429beab53ef93cc2d,familiarity,15,PMPtk,EPERd,1,1,True,747.0
0,5f35782429beab53ef93cc2d,familiarity,16,mAM,OtM,0,1,False,1321.0
0,5f35782429beab53ef93cc2d,familiarity,17,LUOk,UvOG,1,1,True,662.0
0,5f35782429beab53ef93cc2d,familiarity,18,NLQGm,kdEdY,0,0,True,424.0
0,5f35782429beab53ef93cc2d,familiarity,19,hCkt,cMRl,0,0,True,562.0
0,5f35782429beab53ef93cc2d,familiarity,20,JmNk,JrGv,1,0,False,418.0
0,5f35782429beab53ef93cc2d,familiarity,21,hkRK,alJY,0,0,True,374.0
0,5f35782429beab53ef93cc2d,familiarity,22,AlKD,GQrc,1,1,True,448.0
0,5f35782429beab53ef93cc2d,familiarity,23,Yht,tcB,0,1,False,382.0
0,5f35782429beab53ef93cc2d,familiarity,24,auYAk,Zvalv,0,1,False,391.0
0,5f35782429beab53ef93cc2d,familiarity,25,CRdBd,tmtEM,0,1,False,370.0
0,5f35782429beab53ef93cc2d,familiarity,26,LckGN,KAERM,1,0,False,307.0
0,5f35782429beab53ef93cc2d,familiarity,27,ktBd,TKDk,0,0,True,444.0
0,5f35782429beab53ef93cc2d,familiarity,28,lbBDE,Juaml,1,0,False,459.0
0,5f35782429beab53ef93cc2d,familiarity,29,YZUZ,KABA,0,1,False,254.0
0,5f35782429beab53ef93cc2d,familiarity,30,ukbY,aYQm,1,0,False,270.0
0,5f3d119b77d8ba0009a79558,familiarity,1,RYlD,ukbY,0,0,True,2145.0
0,5f3d119b77d8ba0009a79558,familiarity,2,bdUNu,YJLcA,1,0,False,1882.0
0,5f3d119b77d8ba0009a79558,familiarity,3,ctkt,Ctmb,1,1,True,921.0
0,5f3d119b77d8ba0009a79558,familiarity,4,adYrc,ZJLmr,1,1,True,1545.0
0,5f3d119b77d8ba0009a79558,familiarity,5,ECtbD,BATOc,1,0,False,1521.0
0,5f3d119b77d8ba0009a79558,familiarity,6,aOLZU,BKDRY,1,1,True,1197.0
0,5f3d119b77d8ba0009a79558,familiarity,7,dMThk,PDPhl,1,0,False,1292.0
0,5f3d119b77d8ba0009a79558,familiarity,8,Ckbd,alJY,0,1,False,1215.0
0,5f3d119b77d8ba0009a79558,familiarity,9,OYK,kam,1,0,False,1116.0
0,5f3d119b77d8ba0009a79558,familiarity,10,tmtEM,DBPhc,1,1,True,824.0
0,5f3d119b77d8ba0009a79558,familiarity,11,NLQGm,AZaJc,0,1,False,1555.0
0,5f3d119b77d8ba0009a79558,familiarity,12,aYQm,rkJu,1,1,True,1557.0
0,5f3d119b77d8ba0009a79558,familiarity,13,PEkhA,GumLl,1,1,True,714.0
0,5f3d119b77d8ba0009a79558,familiarity,14,lGZv,vAvb,1,1,True,1216.0
0,5f3d119b77d8ba0009a79558,familiarity,15,tDPRk,EPERd,1,1,True,1093.0
0,5f3d119b77d8ba0009a79558,familiarity,16,YLU,DKP,1,0,False,1129.0
0,5f3d119b77d8ba0009a79558,familiarity,17,kCRm,ukcY,0,1,False,1693.0
0,5f3d119b77d8ba0009a79558,familiarity,18,TmTm,bYuQ,1,1,True,985.0
0,5f3d119b77d8ba0009a79558,familiarity,19,YKRk,vJab,1,0,False,1102.0
0,5f3d119b77d8ba0009a79558,familiarity,20,cRElD,PctRC,0,1,False,991.0
0,5f3d119b77d8ba0009a79558,familiarity,21,Yaum,NJZl,0,0,True,1271.0
0,5f3d119b77d8ba0009a79558,familiarity,22,JmvmO,ABPRB,0,1,False,1573.0
0,5f3d119b77d8ba0009a79558,familiarity,23,cthB,mbZl,0,0,True,1214.0
0,5f3d119b77d8ba0009a79558,familiarity,24,blMk,OtlR,0,1,False,1137.0
0,5f3d119b77d8ba0009a79558,familiarity,25,dYAJ,OcZJ,1,0,False,1638.0
0,5f3d119b77d8ba0009a79558,familiarity,26,rba,Arv,0,0,True,1440.0
0,5f3d119b77d8ba0009a79558,familiarity,27,YZUZ,JUNa,0,0,True,849.0
0,5f3d119b77d8ba0009a79558,familiarity,28,GQrc,NmAG,1,1,True,1805.0
0,5f3d119b77d8ba0009a79558,familiarity,29,vmuLl,OLJbl,0,1,False,1291.0
0,5f3d119b77d8ba0009a79558,familiarity,30,ZdlO,DbMR,0,0,True,853.0
0,5f5a5d4618746310515e2828,familiarity,1,vAvb,OJNk,0,1,False,2131.0
0,5f5a5d4618746310515e2828,familiarity,2,QLrOJ,RlAKc,0,0,True,1726.0
0,5f5a5d4618746310515e2828,familiarity,3,tDPRk,GumLl,0,0,True,1642.0
0,5f5a5d4618746310515e2828,familiarity,4,OMC,mvG,1,1,True,2770.0
0,5f5a5d4618746310515e2828,familiarity,5,DbMR,RCdc,0,0,True,2120.0
0,5f5a5d4618746310515e2828,familiarity,6,uUY,ABb,0,1,False,2030.0
0,5f5a5d4618746310515e2828,familiarity,7,TAdhM,NLQGm,0,1,False,1982.0
0,5f5a5d4618746310515e2828,familiarity,8,kGamN,dvNvA,1,1,True,1448.0
0,5f5a5d4618746310515e2828,familiarity,9,ZdNmU,ckdAm,1,1,True,1456.0
0,5f5a5d4618746310515e2828,familiarity,10,adkr,uvaU,0,0,True,2780.0
0,5f5a5d4618746310515e2828,familiarity,11,TbKME,adYrc,0,1,False,1261.0
0,5f5a5d4618746310515e2828,familiarity,12,KdAR,dRht,0,1,False,1642.0
0,5f5a5d4618746310515e2828,familiarity,13,cuOJb,YUNkZ,1,1,True,2093.0
0,5f5a5d4618746310515e2828,familiarity,14,bAMO,DlDd,0,0,True,1252.0
0,5f5a5d4618746310515e2828,familiarity,15,Dmh,YLU,0,1,False,2160.0
0,5f5a5d4618746310515e2828,familiarity,16,EtMDM,TCbDC,1,1,True,1963.0
0,5f5a5d4618746310515e2828,familiarity,17,YTOM,YcdO,1,0,False,3897.0
0,5f5a5d4618746310515e2828,familiarity,18,BOCRM,Juaml,0,0,True,3621.0
0,5f5a5d4618746310515e2828,familiarity,19,Cchtd,AlQaQ,1,0,False,1796.0
0,5f5a5d4618746310515e2828,familiarity,20,KBKBE,PCPDh,1,1,True,1134.0
0,5f5a5d4618746310515e2828,familiarity,21,aONd,mBYl,0,0,True,4335.0
0,5f5a5d4618746310515e2828,familiarity,22,rLaZ,OJGQ,0,1,False,2580.0
0,5f5a5d4618746310515e2828,familiarity,23,mLdkZ,rbYbu,0,1,False,2285.0
0,5f5a5d4618746310515e2828,familiarity,24,Ehbt,vJab,0,0,True,2126.0
0,5f5a5d4618746310515e2828,familiarity,25,rvOvU,LNUrJ,0,0,True,1900.0
0,5f5a5d4618746310515e2828,familiarity,26,cROMt,dMThk,0,1,False,1838.0
0,5f5a5d4618746310515e2828,familiarity,27,QvlZ,PMYm,0,1,False,1771.0
0,5f5a5d4618746310515e2828,familiarity,28,ALGZ,khMD,1,0,False,1936.0
0,5f5a5d4618746310515e2828,familiarity,29,uUmb,hTDd,1,0,False,2325.0
0,5f5a5d4618746310515e2828,familiarity,30,Grub,CmcO,1,1,True,1635.0
0,5f6f3d061214fe49ec2b9619,familiarity,1,lGZv,AdDb,1,1,True,2206.0
0,5f6f3d061214fe49ec2b9619,familiarity,2,ark,bLd,0,1,False,2274.0
0,5f6f3d061214fe49ec2b9619,familiarity,3,TdTD,UmNJ,0,0,True,1876.0
0,5f6f3d061214fe49ec2b9619,familiarity,4,kGua,PlEK,0,0,True,1998.0
0,5f6f3d061214fe49ec2b9619,familiarity,5,ctkt,adkr,0,0,True,848.0
0,5f6f3d061214fe49ec2b9619,familiarity,6,MkmEd,OdlNm,0,1,False,2496.0
0,5f6f3d061214fe49ec2b9619,familiarity,7,OZkb,Ddck,0,1,False,1432.0
0,5f6f3d061214fe49ec2b9619,familiarity,8,TCbDC,kdaAJ,1,1,True,1157.0
0,5f6f3d061214fe49ec2b9619,familiarity,9,ALGZ,Udbd,1,1,True,2286.0
0,5f6f3d061214fe49ec2b9619,familiarity,10,EcR,NUZ,0,0,True,1343.0
0,5f6f3d061214fe49ec2b9619,familiarity,11,kdrO,Ctmb,0,0,True,1164.0
0,5f6f3d061214fe49ec2b9619,familiarity,12,kGlU,rLaZ,1,0,False,1944.0
0,5f6f3d061214fe49ec2b9619,familiarity,13,EMbDP,aNYmb,1,0,False,1449.0
0,5f6f3d061214fe49ec2b9619,familiarity,14,NvYJ,AbKD,0,0,True,2626.0
0,5f6f3d061214fe49ec2b9619,familiarity,15,vblr,YArG,0,0,True,1351.0
0,5f6f3d061214fe49ec2b9619,familiarity,16,kBD,rab,0,0,True,1220.0
0,5f6f3d061214fe49ec2b9619,familiarity,17,cUN,mAM,1,1,True,2126.0
0,5f6f3d061214fe49ec2b9619,familiarity,18,TPOM,ZAUu,1,1,True,1301.0
0,5f6f3d061214fe49ec2b9619,familiarity,19,LcNUJ,kDRKc,1,0,False,1265.0
0,5f6f3d061214fe49ec2b9619,familiarity,20,OtM,RDM,0,0,True,793.0
0,5f6f3d061214fe49ec2b9619,familiarity,21,YbN,YLU,1,0,False,1606.0
0,5f6f3d061214fe49ec2b9619,familiarity,22,khMD,BECk,1,0,False,1521.0
0,5f6f3d061214fe49ec2b9619,familiarity,23,AZlLN,QOLmu,0,0,True,2006.0
0,5f6f3d061214fe49ec2b9619,familiarity,24,TEBK,AOUl,0,0,True,814.0
0,5f6f3d061214fe49ec2b9619,familiarity,25,mhtc,TKDk,1,0,False,1632.0
0,5f6f3d061214fe49ec2b9619,familiarity,26,McMD,DCmh,0,0,True,1564.0
0,5f6f3d061214fe49ec2b9619,familiarity,27,DkTCP,ZYcQU,0,0,True,2309.0
0,5f6f3d061214fe49ec2b9619,familiarity,28,krUQ,OQAr,1,0,False,1052.0
0,5f6f3d061214fe49ec2b9619,familiarity,29,kdEdY,lKdbc,0,0,True,1495.0
0,5f6f3d061214fe49ec2b9619,familiarity,30,kGamN,ckdAm,0,1,False,1842.0
0,5f8af153e27f001bcc23ffc4,familiarity,1,MKmY,LuNZ,0,1,False,4681.0
0,5f8af153e27f001bcc23ffc4,familiarity,2,CRdBd,YuaNd,0,0,True,1597.0
0,5f8af153e27f001bcc23ffc4,familiarity,3,RYlD,YDTk,1,0,False,1620.0
0,5f8af153e27f001bcc23ffc4,familiarity,4,TRK,mAM,1,1,True,1087.0
0,5f8af153e27f001bcc23ffc4,familiarity,5,KlkD,DhCP,0,1,False,1784.0
0,5f8af153e27f001bcc23ffc4,familiarity,6,MhKd,EdBb,1,1,True,1459.0
0,5f8af153e27f001bcc23ffc4,familiarity,7,cBROB,MBKRE,1,0,False,1600.0
0,5f8af153e27f001bcc23ffc4,familiarity,8,lCbcm,lAOKM,0,0,True,3132.0
0,5f8af153e27f001bcc23ffc4,familiarity,9,dvNvA,rdLJa,0,0,True,1248.0
0,5f8af153e27f001bcc23ffc4,familiarity,10,lZcu,OCmk,0,0,True,1583.0
0,5f8af153e27f001bcc23ffc4,familiarity,11,UdvY,chAh,0,0,True,1223.0
0,5f8af153e27f001bcc23ffc4,familiarity,12,lLG,kBD,1,0,False,1977.0
0,5f8af153e27f001bcc23ffc4,familiarity,13,ravu,YOZN,0,1,False,1454.0
0,5f8af153e27f001bcc23ffc4,familiarity,14,DcPTc,kPkRA,0,0,True,1507.0
0,5f8af153e27f001bcc23ffc4,familiarity,15,MCkm,DMRP,1,0,False,960.0
0,5f8af153e27f001bcc23ffc4,familiarity,16,Ddck,MDKP,1,1,True,887.0
0,5f8af153e27f001bcc23ffc4,familiarity,17,vJab,OZkb,1,0,False,1287.0
0,5f8af153e27f001bcc23ffc4,familiarity,18,lRCB,DCmh,0,1,False,1485.0
0,5f8af153e27f001bcc23ffc4,familiarity,19,YUNkZ,YlCPB,0,0,True,1382.0
0,5f8af153e27f001bcc23ffc4,familiarity,20,NQZv,dCKc,1,1,True,1792.0
0,5f8af153e27f001bcc23ffc4,familiarity,21,Abka,lBKt,1,0,False,855.0
0,5f8af153e27f001bcc23ffc4,familiarity,22,Gabk,OdYP,0,1,False,1176.0
0,5f8af153e27f001bcc23ffc4,familiarity,23,TdTD,amJm,0,0,True,1454.0
0,5f8af153e27f001bcc23ffc4,familiarity,24,kcCRt,EPERd,1,1,True,1838.0
0,5f8af153e27f001bcc23ffc4,familiarity,25,UbG,DKP,1,1,True,1924.0
0,5f8af153e27f001bcc23ffc4,familiarity,26,kKRC,Zckv,1,0,False,2391.0
0,5f8af153e27f001bcc23ffc4,familiarity,27,Yaum,Udbd,0,0,True,2388.0
0,5f8af153e27f001bcc23ffc4,familiarity,28,GQrc,ukcY,1,0,False,1162.0
0,5f8af153e27f001bcc23ffc4,familiarity,29,YLQmG,lhCTC,0,0,True,1766.0
0,5f8af153e27f001bcc23ffc4,familiarity,30,kGamN,OdlNm,0,0,True,1695.0
0,5f8b724dc36e8c2ac6d5fb6e,familiarity,1,JdOAY,rcmuv,0,1,False,1818.0
0,5f8b724dc36e8c2ac6d5fb6e,familiarity,2,uOAO,kJdr,0,0,True,1217.0
0,5f8b724dc36e8c2ac6d5fb6e,familiarity,3,mCd,bRC,0,0,True,1354.0
0,5f8b724dc36e8c2ac6d5fb6e,familiarity,4,bYuQ,CKOb,1,1,True,573.0
0,5f8b724dc36e8c2ac6d5fb6e,familiarity,5,kGlU,tmAK,1,0,False,738.0
0,5f8b724dc36e8c2ac6d5fb6e,familiarity,6,JUNa,OEPk,1,1,True,759.0
0,5f8b724dc36e8c2ac6d5fb6e,familiarity,7,TPCb,hEct,1,1,True,641.0
0,5f8b724dc36e8c2ac6d5fb6e,familiarity,8,lGZv,YbBT,1,0,False,776.0
0,5f8b724dc36e8c2ac6d5fb6e,familiarity,9,LuNZ,BEPO,1,0,False,690.0
0,5f8b724dc36e8c2ac6d5fb6e,familiarity,10,MKmY,OMlT,1,0,False,713.0
0,5f8b724dc36e8c2ac6d5fb6e,familiarity,11,DmAME,EMbDP,1,1,True,318.0
0,5f8b724dc36e8c2ac6d5fb6e,familiarity,12,cDOEB,vmuLl,0,1,False,795.0
0,5f8b724dc36e8c2ac6d5fb6e,familiarity,13,PctRC,RlAKc,1,0,False,384.0
0,5f8b724dc36e8c2ac6d5fb6e,familiarity,14,lhCTC,PEkhA,1,1,True,832.0
0,5f8b724dc36e8c2ac6d5fb6e,familiarity,15,uQkrd,DOchl,1,0,False,976.0
0,5f8b724dc36e8c2ac6d5fb6e,familiarity,16,Zvalv,TCbDC,1,1,True,656.0
0,5f8b724dc36e8c2ac6d5fb6e,familiarity,17,JrGv,DCmh,0,1,False,1041.0
0,5f8b724dc36e8c2ac6d5fb6e,familiarity,18,KABA,rkJu,0,0,True,576.0
0,5f8b724dc36e8c2ac6d5fb6e,familiarity,19,BECk,kGua,0,1,False,888.0
0,5f8b724dc36e8c2ac6d5fb6e,familiarity,20,ravu,rLaZ,1,0,False,486.0
0,5f8b724dc36e8c2ac6d5fb6e,familiarity,21,PdDT,khmh,1,0,False,290.0
0,5f8b724dc36e8c2ac6d5fb6e,familiarity,22,JUG,ATc,1,1,True,831.0
0,5f8b724dc36e8c2ac6d5fb6e,familiarity,23,rLkm,kMEC,1,1,True,744.0
0,5f8b724dc36e8c2ac6d5fb6e,familiarity,24,DOAK,cMRl,1,0,False,347.0
0,5f8b724dc36e8c2ac6d5fb6e,familiarity,25,RDM,mkc,1,0,False,469.0
0,5f8b724dc36e8c2ac6d5fb6e,familiarity,26,dYdA,YJkb,1,1,True,142.0
0,5f8b724dc36e8c2ac6d5fb6e,familiarity,27,lcOc,EKBO,1,1,True,683.0
0,5f8b724dc36e8c2ac6d5fb6e,familiarity,28,rAJu,COTK,1,0,False,199.0
0,5f8b724dc36e8c2ac6d5fb6e,familiarity,29,tKDmh,PCMPK,1,1,True,828.0
0,5f8b724dc36e8c2ac6d5fb6e,familiarity,30,YDE,NUZ,0,0,True,794.0
0,5f9c2359530d3e067a300bd6,familiarity,1,RdCc,BEPO,1,1,True,1762.0
0,5f9c2359530d3e067a300bd6,familiarity,2,uvaU,bAMO,0,1,False,1820.0
0,5f9c2359530d3e067a300bd6,familiarity,3,cBROB,DBPhc,0,1,False,1462.0
0,5f9c2359530d3e067a300bd6,familiarity,4,Ald,PMd,0,1,False,1529.0
0,5f9c2359530d3e067a300bd6,familiarity,5,lbBDE,UAcdu,0,0,True,1300.0
0,5f9c2359530d3e067a300bd6,familiarity,6,NLQGm,cuOJb,0,1,False,2105.0
0,5f9c2359530d3e067a300bd6,familiarity,7,OJNk,KlkD,0,0,True,1087.0
0,5f9c2359530d3e067a300bd6,familiarity,8,ALOrl,ckduA,1,0,False,1404.0
0,5f9c2359530d3e067a300bd6,familiarity,9,UaYL,rckO,0,1,False,1402.0
0,5f9c2359530d3e067a300bd6,familiarity,10,adYrc,uQkrd,1,1,True,1797.0
0,5f9c2359530d3e067a300bd6,familiarity,11,lMck,MhKd,1,1,True,1363.0
0,5f9c2359530d3e067a300bd6,familiarity,12,Jud,YkZ,0,1,False,1333.0
0,5f9c2359530d3e067a300bd6,familiarity,13,tRPD,AlNU,1,1,True,1643.0
0,5f9c2359530d3e067a300bd6,familiarity,14,kKRC,BYhT,1,1,True,1429.0
0,5f9c2359530d3e067a300bd6,familiarity,15,COTK,AZbl,1,0,False,1594.0
0,5f9c2359530d3e067a300bd6,familiarity,16,TDKh,NvYJ,1,1,True,1512.0
0,5f9c2359530d3e067a300bd6,familiarity,17,cPK,Arv,1,0,False,1631.0
0,5f9c2359530d3e067a300bd6,familiarity,18,badk,EdBb,0,0,True,2133.0
0,5f9c2359530d3e067a300bd6,familiarity,19,kam,kPM,1,1,True,1792.0
0,5f9c2359530d3e067a300bd6,familiarity,20,KDPA,khmh,0,1,False,1555.0
0,5f9c2359530d3e067a300bd6,familiarity,21,hbmA,AdDb,0,1,False,2127.0
0,5f9c2359530d3e067a300bd6,familiarity,22,OMC,lLG,1,0,False,3495.0
0,5f9c2359530d3e067a300bd6,familiarity,23,dJNr,CPMl,0,1,False,2265.0
0,5f9c2359530d3e067a300bd6,familiarity,24,dGLAl,vmuLl,1,1,True,1322.0
0,5f9c2359530d3e067a300bd6,familiarity,25,dkLl,DOAK,1,1,True,1652.0
0,5f9c2359530d3e067a300bd6,familiarity,26,khMD,MBmE,1,1,True,1846.0
0,5f9c2359530d3e067a300bd6,familiarity,27,bRABt,EMbDP,1,1,True,1002.0
0,5f9c2359530d3e067a300bd6,familiarity,28,krGu,uUmb,0,1,False,1329.0
0,5f9c2359530d3e067a300bd6,familiarity,29,CDEmY,DOBhY,1,0,False,1462.0
0,5f9c2359530d3e067a300bd6,familiarity,30,muYN,aYaN,0,0,True,1225.0
0,5faacca24cd0384c1fa08be1,familiarity,1,YTOM,KEdl,0,0,True,5531.0
0,5faacca24cd0384c1fa08be1,familiarity,2,lcOc,rkJu,1,1,True,3175.0
0,5faacca24cd0384c1fa08be1,familiarity,3,dYAJ,BECk,1,1,True,2502.0
0,5faacca24cd0384c1fa08be1,familiarity,4,dTAh,OEPk,0,0,True,1383.0
0,5faacca24cd0384c1fa08be1,familiarity,5,CmYA,kMEC,1,1,True,1168.0
0,5faacca24cd0384c1fa08be1,familiarity,6,Yht,PMd,1,1,True,1092.0
0,5faacca24cd0384c1fa08be1,familiarity,7,rZYd,ctkt,1,1,True,1929.0
0,5faacca24cd0384c1fa08be1,familiarity,8,dMYBP,aOLZU,0,0,True,1272.0
0,5faacca24cd0384c1fa08be1,familiarity,9,AlNU,YcdO,1,0,False,1136.0
0,5faacca24cd0384c1fa08be1,familiarity,10,YObA,Zckv,0,0,True,997.0
0,5faacca24cd0384c1fa08be1,familiarity,11,vclY,TklD,0,1,False,771.0
0,5faacca24cd0384c1fa08be1,familiarity,12,lBKt,JdGm,1,0,False,1068.0
0,5faacca24cd0384c1fa08be1,familiarity,13,advYO,PCPDh,1,1,True,1083.0
0,5faacca24cd0384c1fa08be1,familiarity,14,Nac,mvG,1,0,False,1140.0
0,5faacca24cd0384c1fa08be1,familiarity,15,KElB,uOAO,1,1,True,1752.0
0,5faacca24cd0384c1fa08be1,familiarity,16,DCmh,mcOJ,1,1,True,767.0
0,5faacca24cd0384c1fa08be1,familiarity,17,Zvalv,BMEMA,0,1,False,415.0
0,5faacca24cd0384c1fa08be1,familiarity,18,NaJb,krGu,1,0,False,1021.0
0,5faacca24cd0384c1fa08be1,familiarity,19,dmZvm,EtMDM,0,0,True,1833.0
0,5faacca24cd0384c1fa08be1,familiarity,20,ORbk,rLaZ,0,0,True,1024.0
0,5faacca24cd0384c1fa08be1,familiarity,21,mCd,JZr,1,1,True,1217.0
0,5faacca24cd0384c1fa08be1,familiarity,22,OJGQ,UmNJ,0,1,False,1897.0
0,5faacca24cd0384c1fa08be1,familiarity,23,YOaAb,kbmZO,1,1,True,1585.0
0,5faacca24cd0384c1fa08be1,familiarity,24,rkra,YUYa,0,1,False,1970.0
0,5faacca24cd0384c1fa08be1,familiarity,25,RYtkc,Ldrbv,1,1,True,223.0
0,5faacca24cd0384c1fa08be1,familiarity,26,hlkT,Ddck,0,1,False,2574.0
0,5faacca24cd0384c1fa08be1,familiarity,27,OcYM,tmYh,0,1,False,1533.0
0,5faacca24cd0384c1fa08be1,familiarity,28,kbu,LcO,1,1,True,1548.0
0,5faacca24cd0384c1fa08be1,familiarity,29,KMDYt,dGLAl,0,0,True,1777.0
0,5faacca24cd0384c1fa08be1,familiarity,30,krUQ,ktBd,0,0,True,1485.0
0,5fade36bdde8092117469a42,familiarity,1,Grub,EMYK,0,0,True,6518.0
0,5fade36bdde8092117469a42,familiarity,2,Arv,cbm,0,0,True,1551.0
0,5fade36bdde8092117469a42,familiarity,3,dCKc,hChY,0,1,False,1562.0
0,5fade36bdde8092117469a42,familiarity,4,tDPRk,bmdAB,1,0,False,2055.0
0,5fade36bdde8092117469a42,familiarity,5,GNAca,NbmQU,1,1,True,1572.0
0,5fade36bdde8092117469a42,familiarity,6,cUN,vJQ,0,0,True,1779.0
0,5fade36bdde8092117469a42,familiarity,7,MCkm,JdGm,0,0,True,1563.0
0,5fade36bdde8092117469a42,familiarity,8,bAdk,CmcO,0,0,True,1907.0
0,5fade36bdde8092117469a42,familiarity,9,LdQv,AMkC,0,1,False,1099.0
0,5fade36bdde8092117469a42,familiarity,10,KEdl,EKBO,0,0,True,1553.0
0,5fade36bdde8092117469a42,familiarity,11,kdEdY,tKDmh,0,0,True,1219.0
0,5fade36bdde8092117469a42,familiarity,12,dCtMA,YUNkZ,0,0,True,1403.0
0,5fade36bdde8092117469a42,familiarity,13,krGu,KlkD,0,1,False,1034.0
0,5fade36bdde8092117469a42,familiarity,14,lKdbc,CRdBd,1,0,False,1387.0
0,5fade36bdde8092117469a42,familiarity,15,QLrOJ,YlCPB,0,1,False,1355.0
0,5fade36bdde8092117469a42,familiarity,16,QONk,bGuO,0,1,False,867.0
0,5fade36bdde8092117469a42,familiarity,17,advYO,Phktk,0,1,False,1370.0
0,5fade36bdde8092117469a42,familiarity,18,TObCO,ZYcQU,0,1,False,1419.0
0,5fade36bdde8092117469a42,familiarity,19,dmZvm,PCPDh,1,0,False,1195.0
0,5fade36bdde8092117469a42,familiarity,20,JrGv,dYdA,1,1,True,1652.0
0,5fade36bdde8092117469a42,familiarity,21,lBlE,tmYh,0,0,True,1182.0
0,5fade36bdde8092117469a42,familiarity,22,LUOk,vclY,1,1,True,1539.0
0,5fade36bdde8092117469a42,familiarity,23,GAcY,ZAUu,0,1,False,1355.0
0,5fade36bdde8092117469a42,familiarity,24,EltMB,rGUAY,0,0,True,1267.0
0,5fade36bdde8092117469a42,familiarity,25,DlDT,cYUv,1,0,False,1650.0
0,5fade36bdde8092117469a42,familiarity,26,dRht,DlDd,0,0,True,844.0
0,5fade36bdde8092117469a42,familiarity,27,lRCB,YcdO,0,1,False,1378.0
0,5fade36bdde8092117469a42,familiarity,28,JNka,CPMl,1,1,True,1739.0
0,5fade36bdde8092117469a42,familiarity,29,RdCc,mtKP,0,0,True,1571.0
0,5fade36bdde8092117469a42,familiarity,30,Nulk,lkAk,0,0,True,1155.0
0,5fb2946df797088a8c405c2e,familiarity,1,kKEdM,DkTCP,1,1,True,4009.0
0,5fb2946df797088a8c405c2e,familiarity,2,UdlGQ,LAclA,0,0,True,1767.0
0,5fb2946df797088a8c405c2e,familiarity,3,kbmZO,tKDmh,0,0,True,1717.0
0,5fb2946df797088a8c405c2e,familiarity,4,KRARm,rvOvU,0,0,True,1294.0
0,5fb2946df797088a8c405c2e,familiarity,5,mcOJ,OJlN,0,1,False,1500.0
0,5fb2946df797088a8c405c2e,familiarity,6,lkAk,bmbN,1,1,True,1801.0
0,5fb2946df797088a8c405c2e,familiarity,7,amJm,EMYK,1,0,False,2313.0
0,5fb2946df797088a8c405c2e,familiarity,8,Glu,Yht,0,1,False,4727.0
0,5fb2946df797088a8c405c2e,familiarity,9,GQYQ,uauO,1,1,True,1737.0
0,5fb2946df797088a8c405c2e,familiarity,10,vJab,rkra,1,1,True,1543.0
0,5fb2946df797088a8c405c2e,familiarity,11,ODBDA,LNUrJ,0,0,True,1129.0
0,5fb2946df797088a8c405c2e,familiarity,12,Tbk,cbm,1,0,False,5559.0
0,5fb2946df797088a8c405c2e,familiarity,13,UAcdu,dGLAl,0,1,False,2262.0
0,5fb2946df797088a8c405c2e,familiarity,14,YDE,TRK,0,0,True,4013.0
0,5fb2946df797088a8c405c2e,familiarity,15,alJY,JcUk,0,1,False,6667.0
0,5fb2946df797088a8c405c2e,familiarity,16,kDRKc,ZJLmr,0,0,True,1956.0
0,5fb2946df797088a8c405c2e,familiarity,17,BOCRM,BKDRY,0,1,False,3429.0
0,5fb2946df797088a8c405c2e,familiarity,18,ldAa,kcOY,1,0,False,1590.0
0,5fb2946df797088a8c405c2e,familiarity,19,dmkv,OMlT,0,1,False,3568.0
0,5fb2946df797088a8c405c2e,familiarity,20,lvk,kbu,0,1,False,1288.0
0,5fb2946df797088a8c405c2e,familiarity,21,lBKt,Ydud,0,0,True,1606.0
0,5fb2946df797088a8c405c2e,familiarity,22,PEkhA,EYtYR,0,1,False,1245.0
0,5fb2946df797088a8c405c2e,familiarity,23,Arv,uda,0,1,False,1995.0
0,5fb2946df797088a8c405c2e,familiarity,24,EAO,lLG,1,1,True,4109.0
0,5fb2946df797088a8c405c2e,familiarity,25,lCbcm,OQarQ,1,0,False,1532.0
0,5fb2946df797088a8c405c2e,familiarity,26,dTmED,lKdbc,0,1,False,6068.0
0,5fb2946df797088a8c405c2e,familiarity,27,kKE,tAY,1,1,True,2483.0
0,5fb2946df797088a8c405c2e,familiarity,28,bTE,CEM,0,0,True,3958.0
0,5fb2946df797088a8c405c2e,familiarity,29,QcQAJ,dmZvm,0,0,True,3823.0
0,5fb2946df797088a8c405c2e,familiarity,30,EtMDM,TbKME,0,0,True,1425.0
0,5ff3a2554cfb7d507511d89f,familiarity,1,tRb,kKE,1,1,True,5844.0
0,5ff3a2554cfb7d507511d89f,familiarity,2,YZJm,JNka,1,1,True,2467.0
0,5ff3a2554cfb7d507511d89f,familiarity,3,lYrua,kLvdN,0,0,True,4198.0
0,5ff3a2554cfb7d507511d89f,familiarity,4,YlYc,Zckv,1,1,True,1608.0
0,5ff3a2554cfb7d507511d89f,familiarity,5,ZdlO,bmbN,1,0,False,2055.0
0,5ff3a2554cfb7d507511d89f,familiarity,6,TdTD,OMlT,0,0,True,1899.0
0,5ff3a2554cfb7d507511d89f,familiarity,7,rba,Akd,1,1,True,3134.0
0,5ff3a2554cfb7d507511d89f,familiarity,8,cbm,UbG,1,1,True,2234.0
0,5ff3a2554cfb7d507511d89f,familiarity,9,mdkK,GJZm,0,0,True,1945.0
0,5ff3a2554cfb7d507511d89f,familiarity,10,rAJu,AlTd,1,0,False,2751.0
0,5ff3a2554cfb7d507511d89f,familiarity,11,lMck,bAMO,0,0,True,2920.0
0,5ff3a2554cfb7d507511d89f,familiarity,12,YNrAm,DcPTc,0,1,False,1977.0
0,5ff3a2554cfb7d507511d89f,familiarity,13,cYUv,khMD,0,0,True,2752.0
0,5ff3a2554cfb7d507511d89f,familiarity,14,BEPO,lcOc,0,0,True,1942.0
0,5ff3a2554cfb7d507511d89f,familiarity,15,dmZvm,rcmuv,1,1,True,2271.0
0,5ff3a2554cfb7d507511d89f,familiarity,16,Abka,udkm,1,1,True,2801.0
0,5ff3a2554cfb7d507511d89f,familiarity,17,AlKD,mARM,1,1,True,3088.0
0,5ff3a2554cfb7d507511d89f,familiarity,18,kDOm,NvYJ,0,1,False,1562.0
0,5ff3a2554cfb7d507511d89f,familiarity,19,hTtBb,ODBDA,1,1,True,1377.0
0,5ff3a2554cfb7d507511d89f,familiarity,20,kcOY,KMOc,0,0,True,3264.0
0,5ff3a2554cfb7d507511d89f,familiarity,21,UdlGQ,GumLl,0,0,True,1965.0
0,5ff3a2554cfb7d507511d89f,familiarity,22,MBmE,MKmY,1,1,True,1583.0
0,5ff3a2554cfb7d507511d89f,familiarity,23,CDEmY,GJGcZ,1,1,True,2777.0
0,5ff3a2554cfb7d507511d89f,familiarity,24,uUmb,YKPB,0,1,False,2041.0
0,5ff3a2554cfb7d507511d89f,familiarity,25,UrOQ,LQur,0,0,True,2627.0
0,5ff3a2554cfb7d507511d89f,familiarity,26,GAcY,rvUb,1,1,True,1589.0
0,5ff3a2554cfb7d507511d89f,familiarity,27,CPMl,badk,1,1,True,1504.0
0,5ff3a2554cfb7d507511d89f,familiarity,28,ALOrl,Udumd,0,1,False,1832.0
0,5ff3a2554cfb7d507511d89f,familiarity,29,cRElD,mLdkZ,1,1,True,1496.0
0,5ff3a2554cfb7d507511d89f,familiarity,30,kCRm,vUdm,1,1,True,1496.0
0,5ffab69a57132749844b8020,familiarity,1,AmQOY,damYb,0,0,True,3045.0
0,5ffab69a57132749844b8020,familiarity,2,JcL,DOk,1,0,False,1855.0
0,5ffab69a57132749844b8020,familiarity,3,TKDk,RCdc,0,0,True,1563.0
0,5ffab69a57132749844b8020,familiarity,4,vuJZu,Phktk,1,0,False,1327.0
0,5ffab69a57132749844b8020,familiarity,5,NkUA,AlKD,0,1,False,1403.0
0,5ffab69a57132749844b8020,familiarity,6,JmNk,OkGY,0,1,False,594.0
0,5ffab69a57132749844b8020,familiarity,7,KABA,dmkv,0,0,True,598.0
0,5ffab69a57132749844b8020,familiarity,8,hRKm,kMEC,0,1,False,745.0
0,5ffab69a57132749844b8020,familiarity,9,PctRC,ALOrl,1,1,True,704.0
0,5ffab69a57132749844b8020,familiarity,10,vblr,rvAJ,1,1,True,1150.0
0,5ffab69a57132749844b8020,familiarity,11,vAvb,CmYA,0,0,True,903.0
0,5ffab69a57132749844b8020,familiarity,12,YJkb,CmcO,1,1,True,883.0
0,5ffab69a57132749844b8020,familiarity,13,YJLcA,JZOAk,1,0,False,729.0
0,5ffab69a57132749844b8020,familiarity,14,OCmk,OJNk,0,1,False,1681.0
0,5ffab69a57132749844b8020,familiarity,15,mtKP,OZkb,1,0,False,778.0
0,5ffab69a57132749844b8020,familiarity,16,PMYm,OQAr,1,0,False,424.0
0,5ffab69a57132749844b8020,familiarity,17,TCbDC,aNYmb,1,1,True,449.0
0,5ffab69a57132749844b8020,familiarity,18,OEPk,vYLU,1,1,True,646.0
0,5ffab69a57132749844b8020,familiarity,19,mkc,EAO,1,0,False,333.0
0,5ffab69a57132749844b8020,familiarity,20,PYkC,BECk,1,1,True,187.0
0,5ffab69a57132749844b8020,familiarity,21,RKYk,ALGZ,0,0,True,262.0
0,5ffab69a57132749844b8020,familiarity,22,ckLAL,tKDmh,0,0,True,546.0
0,5ffab69a57132749844b8020,familiarity,23,kcCRt,aOLZU,0,1,False,623.0
0,5ffab69a57132749844b8020,familiarity,24,dEPD,kKRC,0,1,False,679.0
0,5ffab69a57132749844b8020,familiarity,25,JcUk,RdCc,1,0,False,686.0
0,5ffab69a57132749844b8020,familiarity,26,bYuQ,YDTk,1,1,True,696.0
0,5ffab69a57132749844b8020,familiarity,27,ZcGdN,DRPkY,1,0,False,788.0
0,5ffab69a57132749844b8020,familiarity,28,crdY,Ddck,1,0,False,906.0
0,5ffab69a57132749844b8020,familiarity,29,chEDO,EPERd,1,1,True,401.0
0,5ffab69a57132749844b8020,familiarity,30,dTAh,McMD,0,1,False,541.0
0,5ffd4230d96f6b2649d31f72,familiarity,1,LcNUJ,dMYBP,0,0,True,1771.0
0,5ffd4230d96f6b2649d31f72,familiarity,2,NAacQ,bYGOZ,1,0,False,1502.0
0,5ffd4230d96f6b2649d31f72,familiarity,3,uQuZc,uQkrd,0,1,False,1666.0
0,5ffd4230d96f6b2649d31f72,familiarity,4,MTdY,lcOc,0,0,True,1158.0
0,5ffd4230d96f6b2649d31f72,familiarity,5,hChY,GJZm,0,0,True,1368.0
0,5ffd4230d96f6b2649d31f72,familiarity,6,DhCP,YmBd,1,1,True,1316.0
0,5ffd4230d96f6b2649d31f72,familiarity,7,Blmcl,ABPRB,0,0,True,1241.0
0,5ffd4230d96f6b2649d31f72,familiarity,8,rULv,DBkl,0,0,True,1355.0
0,5ffd4230d96f6b2649d31f72,familiarity,9,muYN,UrOQ,0,0,True,1057.0
0,5ffd4230d96f6b2649d31f72,familiarity,10,YcdO,mcOJ,1,1,True,1104.0
0,5ffd4230d96f6b2649d31f72,familiarity,11,Glu,uUY,0,0,True,1231.0
0,5ffd4230d96f6b2649d31f72,familiarity,12,JdGm,LuaU,0,1,False,1247.0
0,5ffd4230d96f6b2649d31f72,familiarity,13,ktBd,JrGv,0,1,False,1202.0
0,5ffd4230d96f6b2649d31f72,familiarity,14,rAm,dPc,1,0,False,1051.0
0,5ffd4230d96f6b2649d31f72,familiarity,15,ArQu,PMYm,0,1,False,1075.0
0,5ffd4230d96f6b2649d31f72,familiarity,16,YObA,NmAG,1,1,True,1195.0
0,5ffd4230d96f6b2649d31f72,familiarity,17,GQYQ,ldAa,1,1,True,1027.0
0,5ffd4230d96f6b2649d31f72,familiarity,18,rbYbu,advYO,0,1,False,1221.0
0,5ffd4230d96f6b2649d31f72,familiarity,19,tAY,uvJ,0,0,True,1263.0
0,5ffd4230d96f6b2649d31f72,familiarity,20,hbmA,JmNk,0,0,True,1129.0
0,5ffd4230d96f6b2649d31f72,familiarity,21,BOckP,ZkGmY,1,0,False,1259.0
0,5ffd4230d96f6b2649d31f72,familiarity,22,Tbk,Tmc,0,1,False,1145.0
0,5ffd4230d96f6b2649d31f72,familiarity,23,bdtK,bROC,1,0,False,1152.0
0,5ffd4230d96f6b2649d31f72,familiarity,24,rkYL,dEPD,0,1,False,950.0
0,5ffd4230d96f6b2649d31f72,familiarity,25,mtKP,lTmO,0,0,True,1010.0
0,5ffd4230d96f6b2649d31f72,familiarity,26,kMEC,LkNc,1,1,True,978.0
0,5ffd4230d96f6b2649d31f72,familiarity,27,ZvkL,bvkr,0,1,False,1061.0
0,5ffd4230d96f6b2649d31f72,familiarity,28,tdDd,YUYa,0,1,False,1020.0
0,5ffd4230d96f6b2649d31f72,familiarity,29,GNAca,dOYml,1,1,True,1091.0
0,5ffd4230d96f6b2649d31f72,familiarity,30,chEDO,vuJZu,0,1,False,1080.0
0,60204c263941fb63d9d794bc,familiarity,1,OmtlD,LvuOG,0,1,False,1482.0
0,60204c263941fb63d9d794bc,familiarity,2,dRht,KdAR,1,1,True,1382.0
0,60204c263941fb63d9d794bc,familiarity,3,JvaA,AdYl,0,1,False,1293.0
0,60204c263941fb63d9d794bc,familiarity,4,UaZma,YlCPB,0,0,True,1570.0
0,60204c263941fb63d9d794bc,familiarity,5,bdtK,kKRC,1,0,False,1535.0
0,60204c263941fb63d9d794bc,familiarity,6,PDPhl,YJLcA,1,0,False,1552.0
0,60204c263941fb63d9d794bc,familiarity,7,JdGm,rAJu,0,0,True,1400.0
0,60204c263941fb63d9d794bc,familiarity,8,OcZJ,uAkr,1,0,False,1382.0
0,60204c263941fb63d9d794bc,familiarity,9,dUr,hBK,1,1,True,2478.0
0,60204c263941fb63d9d794bc,familiarity,10,kdrO,vblr,1,1,True,1200.0
0,60204c263941fb63d9d794bc,familiarity,11,DhCP,BPAl,0,0,True,1250.0
0,60204c263941fb63d9d794bc,familiarity,12,GJZm,TdTD,0,0,True,1431.0
0,60204c263941fb63d9d794bc,familiarity,13,EcR,OMC,1,1,True,1528.0
0,60204c263941fb63d9d794bc,familiarity,14,OYuvb,advYO,1,0,False,1448.0
0,60204c263941fb63d9d794bc,familiarity,15,LQur,Udbd,0,0,True,1254.0
0,60204c263941fb63d9d794bc,familiarity,16,OdOP,dmkv,1,1,True,1034.0
0,60204c263941fb63d9d794bc,familiarity,17,ObOQl,Blmcl,1,1,True,1651.0
0,60204c263941fb63d9d794bc,familiarity,18,KAERM,btlck,0,1,False,1392.0
0,60204c263941fb63d9d794bc,familiarity,19,thbOM,kKEdM,0,0,True,1059.0
0,60204c263941fb63d9d794bc,familiarity,20,JAdLm,cDOEB,1,0,False,1812.0
0,60204c263941fb63d9d794bc,familiarity,21,RtRh,dTAh,0,1,False,1925.0
0,60204c263941fb63d9d794bc,familiarity,22,vUdm,ZAUu,0,1,False,1244.0
0,60204c263941fb63d9d794bc,familiarity,23,Yaum,YZUZ,0,0,True,1519.0
0,60204c263941fb63d9d794bc,familiarity,24,kdaAJ,EPMDk,1,1,True,982.0
0,60204c263941fb63d9d794bc,familiarity,25,ckdAm,BdtAC,1,1,True,1044.0
0,60204c263941fb63d9d794bc,familiarity,26,BOCRM,DmAME,1,0,False,872.0
0,60204c263941fb63d9d794bc,familiarity,27,chAh,aYaN,1,0,False,815.0
0,60204c263941fb63d9d794bc,familiarity,28,TmTm,ctkt,0,1,False,1208.0
0,60204c263941fb63d9d794bc,familiarity,29,CmYA,rZYd,0,1,False,814.0
0,60204c263941fb63d9d794bc,familiarity,30,NvuGr,MkmEd,1,1,True,1451.0
0,602d2adcef81ce6b843da09b,familiarity,1,cAZu,vAvb,0,0,True,3864.0
0,602d2adcef81ce6b843da09b,familiarity,2,tKDmh,GLYrA,0,0,True,3858.0
0,602d2adcef81ce6b843da09b,familiarity,3,QGb,OPE,1,0,False,1815.0
0,602d2adcef81ce6b843da09b,familiarity,4,bAdk,BRDh,0,1,False,4897.0
0,602d2adcef81ce6b843da09b,familiarity,5,Gabk,LdQv,0,0,True,3953.0
0,602d2adcef81ce6b843da09b,familiarity,6,CYPc,TRkY,0,0,True,2505.0
0,602d2adcef81ce6b843da09b,familiarity,7,mtKP,EdBb,0,1,False,2602.0
0,602d2adcef81ce6b843da09b,familiarity,8,aOLZU,lCbcm,0,1,False,4711.0
0,602d2adcef81ce6b843da09b,familiarity,9,GLluA,NbacA,0,0,True,7326.0
0,602d2adcef81ce6b843da09b,familiarity,10,UAcdu,AmQOY,0,0,True,7810.0
0,602d2adcef81ce6b843da09b,familiarity,11,GumLl,TbKME,1,0,False,3241.0
0,602d2adcef81ce6b843da09b,familiarity,12,EMYK,OQAr,0,0,True,4019.0
0,602d2adcef81ce6b843da09b,familiarity,13,mAM,uvJ,0,0,True,4485.0
0,602d2adcef81ce6b843da09b,familiarity,14,OAblc,OAmAd,1,0,False,5567.0
0,602d2adcef81ce6b843da09b,familiarity,15,mLJ,OBT,0,0,True,5700.0
0,602d2adcef81ce6b843da09b,familiarity,16,LuNZ,uvaU,0,0,True,9043.0
0,602d2adcef81ce6b843da09b,familiarity,17,YLU,MAB,0,1,False,4242.0
0,602d2adcef81ce6b843da09b,familiarity,18,YkZ,YBO,0,1,False,4387.0
0,602d2adcef81ce6b843da09b,familiarity,19,MBmE,aYQm,0,0,True,3582.0
0,602d2adcef81ce6b843da09b,familiarity,20,JUNa,kJdr,0,1,False,6292.0
0,602d2adcef81ce6b843da09b,familiarity,21,CMdP,mBbK,0,0,True,5016.0
0,602d2adcef81ce6b843da09b,familiarity,22,BOCRM,ckLAL,0,0,True,5059.0
0,602d2adcef81ce6b843da09b,familiarity,23,dKDth,vmuLl,1,1,True,5181.0
0,602d2adcef81ce6b843da09b,familiarity,24,TRK,GUa,0,0,True,3385.0
0,602d2adcef81ce6b843da09b,familiarity,25,TEBK,UJmr,1,0,False,4690.0
0,602d2adcef81ce6b843da09b,familiarity,26,KdAR,uAkr,0,0,True,3010.0
0,602d2adcef81ce6b843da09b,familiarity,27,aONd,aYaN,1,1,True,5095.0
0,602d2adcef81ce6b843da09b,familiarity,28,PlEK,AbKD,0,1,False,4399.0
0,602d2adcef81ce6b843da09b,familiarity,29,tcB,YNu,1,1,True,2690.0
0,602d2adcef81ce6b843da09b,familiarity,30,ALOrl,cBROB,0,0,True,3156.0
0,60379326171365000ac6ae93,familiarity,1,OcYM,lkAk,0,0,True,3381.0
0,60379326171365000ac6ae93,familiarity,2,EdBb,hTDd,0,1,False,2041.0
0,60379326171365000ac6ae93,familiarity,3,rkJu,NQZv,1,1,True,1540.0
0,60379326171365000ac6ae93,familiarity,4,BOckP,DRPkY,1,0,False,1113.0
0,60379326171365000ac6ae93,familiarity,5,YBO,kam,0,0,True,2386.0
0,60379326171365000ac6ae93,familiarity,6,tdDd,UaYL,1,1,True,1271.0
0,60379326171365000ac6ae93,familiarity,7,aONd,ktBd,1,1,True,1445.0
0,60379326171365000ac6ae93,familiarity,8,JQA,OYK,0,0,True,1338.0
0,60379326171365000ac6ae93,familiarity,9,YuaNd,EPERd,0,0,True,1835.0
0,60379326171365000ac6ae93,familiarity,10,ubALm,BKDRY,1,0,False,863.0
0,60379326171365000ac6ae93,familiarity,11,RtRh,OJNk,0,0,True,1580.0
0,60379326171365000ac6ae93,familiarity,12,bcOR,YDTk,0,1,False,1054.0
0,60379326171365000ac6ae93,familiarity,13,ukYZ,McMD,1,1,True,1262.0
0,60379326171365000ac6ae93,familiarity,14,KOYC,rLkm,1,0,False,1046.0
0,60379326171365000ac6ae93,familiarity,15,GNAca,tcYbd,0,0,True,1207.0
0,60379326171365000ac6ae93,familiarity,16,LdQv,YJkb,1,1,True,1706.0
0,60379326171365000ac6ae93,familiarity,17,JUG,LaA,1,0,False,1518.0
0,60379326171365000ac6ae93,familiarity,18,OcN,YbN,1,1,True,1216.0
0,60379326171365000ac6ae93,familiarity,19,PdDT,MKmY,0,1,False,1381.0
0,60379326171365000ac6ae93,familiarity,20,RkmdC,GLYrA,1,1,True,1248.0
0,60379326171365000ac6ae93,familiarity,21,lGc,kbu,0,0,True,1550.0
0,60379326171365000ac6ae93,familiarity,22,OdlNm,YOaAb,1,1,True,1524.0
0,60379326171365000ac6ae93,familiarity,23,bYGOZ,AlQaQ,0,0,True,1285.0
0,60379326171365000ac6ae93,familiarity,24,cthB,kCRm,1,1,True,1208.0
0,60379326171365000ac6ae93,familiarity,25,BRDh,rvUb,0,0,True,1009.0
0,60379326171365000ac6ae93,familiarity,26,bLd,dBC,0,0,True,1258.0
0,60379326171365000ac6ae93,familiarity,27,mkmJN,CkBOP,1,1,True,1594.0
0,60379326171365000ac6ae93,familiarity,28,blMk,uauO,1,0,False,2088.0
0,60379326171365000ac6ae93,familiarity,29,ODBDA,RlAKc,1,1,True,1032.0
0,60379326171365000ac6ae93,familiarity,30,YTOM,NvYJ,0,0,True,1133.0
0,6046435099c3d00becdb2dfb,familiarity,1,ukcY,kdrO,1,1,True,3716.0
0,6046435099c3d00becdb2dfb,familiarity,2,LGkA,dRht,1,0,False,1796.0
0,6046435099c3d00becdb2dfb,familiarity,3,OdOP,khmh,0,1,False,1735.0
0,6046435099c3d00becdb2dfb,familiarity,4,AlUY,JAaG,0,1,False,1271.0
0,6046435099c3d00becdb2dfb,familiarity,5,rvOvU,QcQAJ,1,1,True,1658.0
0,6046435099c3d00becdb2dfb,familiarity,6,uOAO,LUOk,0,0,True,2999.0
0,6046435099c3d00becdb2dfb,familiarity,7,udkm,CmYA,0,1,False,790.0
0,6046435099c3d00becdb2dfb,familiarity,8,DBlh,YZUZ,0,1,False,1157.0
0,6046435099c3d00becdb2dfb,familiarity,9,LuaU,CYPc,0,1,False,822.0
0,6046435099c3d00becdb2dfb,familiarity,10,EcR,OYK,0,0,True,1002.0
0,6046435099c3d00becdb2dfb,familiarity,11,vUdm,vclY,0,1,False,1043.0
0,6046435099c3d00becdb2dfb,familiarity,12,DcPTc,OAmGr,0,0,True,1284.0
0,6046435099c3d00becdb2dfb,familiarity,13,EdBb,DlDT,0,1,False,1149.0
0,6046435099c3d00becdb2dfb,familiarity,14,DOk,YDE,1,1,True,1287.0
0,6046435099c3d00becdb2dfb,familiarity,15,dvNvA,QLrOJ,0,1,False,1297.0
0,6046435099c3d00becdb2dfb,familiarity,16,DhCP,rLkm,1,0,False,905.0
0,6046435099c3d00becdb2dfb,familiarity,17,BCAd,tmAK,0,1,False,832.0
0,6046435099c3d00becdb2dfb,familiarity,18,hkRK,mcOJ,1,1,True,855.0
0,6046435099c3d00becdb2dfb,familiarity,19,RtRh,DMRP,0,0,True,1658.0
0,6046435099c3d00becdb2dfb,familiarity,20,DCmh,OZkb,1,1,True,1351.0
0,6046435099c3d00becdb2dfb,familiarity,21,kPkRA,advYO,1,1,True,1370.0
0,6046435099c3d00becdb2dfb,familiarity,22,vkYGl,kLvdN,0,1,False,942.0
0,6046435099c3d00becdb2dfb,familiarity,23,JdOAY,LckGN,0,0,True,772.0
0,6046435099c3d00becdb2dfb,familiarity,24,uUmb,bYuQ,0,1,False,504.0
0,6046435099c3d00becdb2dfb,familiarity,25,rAJu,TdmA,0,0,True,1336.0
0,6046435099c3d00becdb2dfb,familiarity,26,Grbk,JcUk,1,1,True,706.0
0,6046435099c3d00becdb2dfb,familiarity,27,RdCc,rZYd,0,0,True,695.0
0,6046435099c3d00becdb2dfb,familiarity,28,hTtBb,adYrc,0,0,True,1302.0
0,6046435099c3d00becdb2dfb,familiarity,29,lmbY,NkUA,1,1,True,1076.0
0,6046435099c3d00becdb2dfb,familiarity,30,hBmMC,BKDRY,1,1,True,837.0
0,604d5e61486bd0622d2102c0,familiarity,1,EYtYR,Ldrbv,1,1,True,1890.0
0,604d5e61486bd0622d2102c0,familiarity,2,dCtMA,EtMDM,0,0,True,3464.0
0,604d5e61486bd0622d2102c0,familiarity,3,Ymb,YDE,1,1,True,2395.0
0,604d5e61486bd0622d2102c0,familiarity,4,DcPTc,UAcdu,1,1,True,2309.0
0,604d5e61486bd0622d2102c0,familiarity,5,OAblc,lCbcm,0,1,False,1719.0
0,604d5e61486bd0622d2102c0,familiarity,6,kMbTR,BdtAC,0,0,True,1597.0
0,604d5e61486bd0622d2102c0,familiarity,7,aYQm,lBKt,1,0,False,1481.0
0,604d5e61486bd0622d2102c0,familiarity,8,dPc,kPM,1,0,False,1408.0
0,604d5e61486bd0622d2102c0,familiarity,9,OMlT,CmcO,0,1,False,1358.0
0,604d5e61486bd0622d2102c0,familiarity,10,JcUk,PdDT,0,1,False,1478.0
0,604d5e61486bd0622d2102c0,familiarity,11,KmE,kYL,0,1,False,1375.0
0,604d5e61486bd0622d2102c0,familiarity,12,OAmGr,NvuGr,1,0,False,1601.0
0,604d5e61486bd0622d2102c0,familiarity,13,tDPRk,kDRKc,1,1,True,1564.0
0,604d5e61486bd0622d2102c0,familiarity,14,bRABt,BMEMA,1,0,False,1484.0
0,604d5e61486bd0622d2102c0,familiarity,15,BCAd,YZUZ,0,0,True,1484.0
0,604d5e61486bd0622d2102c0,familiarity,16,YObA,lcOc,0,0,True,1359.0
0,604d5e61486bd0622d2102c0,familiarity,17,dmkv,bvkr,1,0,False,1342.0
0,604d5e61486bd0622d2102c0,familiarity,18,LUOk,bmbN,0,1,False,1583.0
0,604d5e61486bd0622d2102c0,familiarity,19,TPCb,khMD,0,1,False,1454.0
0,604d5e61486bd0622d2102c0,familiarity,20,CPMl,Ydud,0,1,False,1423.0
0,604d5e61486bd0622d2102c0,familiarity,21,lvk,QGb,1,0,False,1450.0
0,604d5e61486bd0622d2102c0,familiarity,22,rLkm,UJmr,1,1,True,1332.0
0,604d5e61486bd0622d2102c0,familiarity,23,dJNr,YbBT,1,0,False,1341.0
0,604d5e61486bd0622d2102c0,familiarity,24,UaZma,ZkGmY,1,0,False,1180.0
0,604d5e61486bd0622d2102c0,familiarity,25,GLluA,auYAk,1,1,True,1261.0
0,604d5e61486bd0622d2102c0,familiarity,26,JNka,OJlN,1,0,False,1398.0
0,604d5e61486bd0622d2102c0,familiarity,27,Dmh,uda,1,1,True,1371.0
0,604d5e61486bd0622d2102c0,familiarity,28,NkUA,MDKP,0,0,True,1447.0
0,604d5e61486bd0622d2102c0,familiarity,29,bcbM,badk,0,1,False,1440.0
0,604d5e61486bd0622d2102c0,familiarity,30,Zvalv,OAmAd,1,0,False,1343.0
0,6057a8fe2d302939fc759940,familiarity,1,Nac,mhc,0,1,False,5183.0
0,6057a8fe2d302939fc759940,familiarity,2,uda,KmE,0,0,True,3292.0
0,6057a8fe2d302939fc759940,familiarity,3,ukYZ,BRDh,0,0,True,3187.0
0,6057a8fe2d302939fc759940,familiarity,4,DBPhc,kcdOt,1,0,False,2129.0
0,6057a8fe2d302939fc759940,familiarity,5,TPOM,dNZA,1,0,False,2606.0
0,6057a8fe2d302939fc759940,familiarity,6,lbBDE,NAacQ,1,1,True,1397.0
0,6057a8fe2d302939fc759940,familiarity,7,vUdm,lBKt,0,1,False,2186.0
0,6057a8fe2d302939fc759940,familiarity,8,NLQGm,kabJb,0,1,False,2062.0
0,6057a8fe2d302939fc759940,familiarity,9,uZc,YkZ,1,1,True,1661.0
0,6057a8fe2d302939fc759940,familiarity,10,JdOAY,bYGOZ,0,0,True,1673.0
0,6057a8fe2d302939fc759940,familiarity,11,lCbcm,LOLkU,0,0,True,1726.0
0,6057a8fe2d302939fc759940,familiarity,12,laYmr,MBKRE,0,0,True,1554.0
0,6057a8fe2d302939fc759940,familiarity,13,kPOt,AOUl,1,1,True,1204.0
0,6057a8fe2d302939fc759940,familiarity,14,AZaJc,lRckA,0,1,False,1962.0
0,6057a8fe2d302939fc759940,familiarity,15,KOYC,udkm,1,0,False,2398.0
0,6057a8fe2d302939fc759940,familiarity,16,AdDb,ALGZ,1,1,True,2193.0
0,6057a8fe2d302939fc759940,familiarity,17,mBYl,ctkt,0,0,True,2024.0
0,6057a8fe2d302939fc759940,familiarity,18,lRCB,AbKD,0,1,False,1820.0
0,6057a8fe2d302939fc759940,familiarity,19,LNUrJ,EPMDk,1,1,True,1491.0
0,6057a8fe2d302939fc759940,familiarity,20,Blmcl,lYrua,1,0,False,2094.0
0,6057a8fe2d302939fc759940,familiarity,21,Glu,CEM,1,1,True,2251.0
0,6057a8fe2d302939fc759940,familiarity,22,GJGcZ,hmKPM,1,1,True,1033.0
0,6057a8fe2d302939fc759940,familiarity,23,kPM,GUa,1,1,True,1298.0
0,6057a8fe2d302939fc759940,familiarity,24,YbBT,ZvkL,0,1,False,2354.0
0,6057a8fe2d302939fc759940,familiarity,25,kNua,NJZl,1,0,False,2050.0
0,6057a8fe2d302939fc759940,familiarity,26,hlbtb,YuaNd,0,1,False,1612.0
0,6057a8fe2d302939fc759940,familiarity,27,Akd,UbG,0,0,True,2348.0
0,6057a8fe2d302939fc759940,familiarity,28,RdPtD,Juaml,1,0,False,1650.0
0,6057a8fe2d302939fc759940,familiarity,29,ckduA,kcCRt,1,1,True,2299.0
0,6057a8fe2d302939fc759940,familiarity,30,YZJm,mbZl,0,1,False,1597.0
0,60907b8091341e8724ba80ed,familiarity,1,dKDth,ZYcQU,0,0,True,4758.0
0,60907b8091341e8724ba80ed,familiarity,2,KABA,AOUl,1,1,True,2699.0
0,60907b8091341e8724ba80ed,familiarity,3,LUOk,Abka,1,0,False,3301.0
0,60907b8091341e8724ba80ed,familiarity,4,LGkA,bYuQ,0,0,True,2623.0
0,60907b8091341e8724ba80ed,familiarity,5,UJmr,AdDb,1,1,True,1641.0
0,60907b8091341e8724ba80ed,familiarity,6,CDEmY,GNAca,1,0,False,1095.0
0,60907b8091341e8724ba80ed,familiarity,7,Nac,BCD,0,0,True,2047.0
0,60907b8091341e8724ba80ed,familiarity,8,bcOR,TmTm,1,1,True,1025.0
0,60907b8091341e8724ba80ed,familiarity,9,ZJLmr,ckLAL,0,0,True,2076.0
0,60907b8091341e8724ba80ed,familiarity,10,PEtE,lTmO,0,1,False,1604.0
0,60907b8091341e8724ba80ed,familiarity,11,TPOM,lZcu,1,1,True,1729.0
0,60907b8091341e8724ba80ed,familiarity,12,vblr,YKRk,0,1,False,1591.0
0,60907b8091341e8724ba80ed,familiarity,13,dRht,PcBT,0,0,True,1212.0
0,60907b8091341e8724ba80ed,familiarity,14,YLQmG,OYuvb,1,0,False,1194.0
0,60907b8091341e8724ba80ed,familiarity,15,KMDYt,PCMPK,0,1,False,813.0
0,60907b8091341e8724ba80ed,familiarity,16,YZJO,kZUb,0,0,True,952.0
0,60907b8091341e8724ba80ed,familiarity,17,KOYC,dNZA,1,1,True,626.0
0,60907b8091341e8724ba80ed,familiarity,18,KEdl,aUZA,0,0,True,864.0
0,60907b8091341e8724ba80ed,familiarity,19,QLrOJ,hTtBb,0,1,False,744.0
0,60907b8091341e8724ba80ed,familiarity,20,crdY,rULv,1,0,False,734.0
0,60907b8091341e8724ba80ed,familiarity,21,DRPkY,JZOAk,0,0,True,1273.0
0,60907b8091341e8724ba80ed,familiarity,22,MkmEd,hBmMC,0,0,True,984.0
0,60907b8091341e8724ba80ed,familiarity,23,aQr,vJQ,1,0,False,2029.0
0,60907b8091341e8724ba80ed,familiarity,24,kDOm,mBYl,1,1,True,986.0
0,60907b8091341e8724ba80ed,familiarity,25,OBT,JZr,0,1,False,992.0
0,60907b8091341e8724ba80ed,familiarity,26,bNdmG,kLvdN,1,0,False,621.0
0,60907b8091341e8724ba80ed,familiarity,27,bvkr,ukcY,1,1,True,585.0
0,60907b8091341e8724ba80ed,familiarity,28,ALGZ,QvlZ,0,0,True,903.0
0,60907b8091341e8724ba80ed,familiarity,29,AJLr,KdAR,0,0,True,709.0
0,60907b8091341e8724ba80ed,familiarity,30,kPkRA,lAOKM,0,0,True,697.0
0,60a18093c5c040498d3addf8,familiarity,1,AZaJc,YNrAm,1,1,True,5121.0
0,60a18093c5c040498d3addf8,familiarity,2,rLaZ,AlTd,1,1,True,2517.0
0,60a18093c5c040498d3addf8,familiarity,3,cRElD,dCtMA,0,0,True,2417.0
0,60a18093c5c040498d3addf8,familiarity,4,DhCP,ukcY,0,0,True,4007.0
0,60a18093c5c040498d3addf8,familiarity,5,hYDmt,lKdbc,1,1,True,2358.0
0,60a18093c5c040498d3addf8,familiarity,6,vUdm,PEdK,0,1,False,3374.0
0,60a18093c5c040498d3addf8,familiarity,7,kuvb,YDTk,1,0,False,5444.0
0,60a18093c5c040498d3addf8,familiarity,8,BRDh,OdOP,1,1,True,1166.0
0,60a18093c5c040498d3addf8,familiarity,9,advYO,OAmAd,1,1,True,1757.0
0,60a18093c5c040498d3addf8,familiarity,10,Ydud,kdrO,1,0,False,5260.0
0,60a18093c5c040498d3addf8,familiarity,11,vblr,dNZA,0,0,True,1729.0
0,60a18093c5c040498d3addf8,familiarity,12,mLJ,uda,0,0,True,2749.0
0,60a18093c5c040498d3addf8,familiarity,13,NYZu,hbkd,0,1,False,5862.0
0,60a18093c5c040498d3addf8,familiarity,14,BYhT,RCdc,0,0,True,1724.0
0,60a18093c5c040498d3addf8,familiarity,15,dKDth,BKDRY,1,0,False,1952.0
0,60a18093c5c040498d3addf8,familiarity,16,OQarQ,adYrc,0,1,False,2275.0
0,60a18093c5c040498d3addf8,familiarity,17,PCPDh,KAERM,1,0,False,1947.0
0,60a18093c5c040498d3addf8,familiarity,18,OAblc,NbmQU,1,0,False,2619.0
0,60a18093c5c040498d3addf8,familiarity,19,lrZG,TDKh,1,0,False,2296.0
0,60a18093c5c040498d3addf8,familiarity,20,aQr,Qru,1,1,True,2951.0
0,60a18093c5c040498d3addf8,familiarity,21,AdYl,rAJu,1,1,True,1986.0
0,60a18093c5c040498d3addf8,familiarity,22,TObCO,GumLl,0,1,False,1687.0
0,60a18093c5c040498d3addf8,familiarity,23,TKDk,AZbl,1,0,False,1591.0
0,60a18093c5c040498d3addf8,familiarity,24,hBmMC,ABPRB,0,1,False,1577.0
0,60a18093c5c040498d3addf8,familiarity,25,ckduA,OYuvb,0,0,True,1477.0
0,60a18093c5c040498d3addf8,familiarity,26,dPc,tAY,0,0,True,1672.0
0,60a18093c5c040498d3addf8,familiarity,27,YlYc,YZJm,0,0,True,3310.0
0,60a18093c5c040498d3addf8,familiarity,28,PdDT,TRkY,0,1,False,3563.0
0,60a18093c5c040498d3addf8,familiarity,29,NvYJ,bYuQ,0,0,True,1550.0
0,60a18093c5c040498d3addf8,familiarity,30,MKmY,CmYA,0,1,False,1305.0
0,60a8bd22d03adbe92cbb9a5e,familiarity,1,TRK,YDE,0,0,True,2360.0
0,60a8bd22d03adbe92cbb9a5e,familiarity,2,cuOJb,hlctE,1,1,True,3566.0
0,60a8bd22d03adbe92cbb9a5e,familiarity,3,dmkv,TPOM,1,0,False,2010.0
0,60a8bd22d03adbe92cbb9a5e,familiarity,4,kZUb,UaYL,1,0,False,2179.0
0,60a8bd22d03adbe92cbb9a5e,familiarity,5,lLG,vcb,1,0,False,1698.0
0,60a8bd22d03adbe92cbb9a5e,familiarity,6,EMYK,KlkD,1,1,True,1513.0
0,60a8bd22d03adbe92cbb9a5e,familiarity,7,lAOKM,LNUrJ,0,1,False,2011.0
0,60a8bd22d03adbe92cbb9a5e,familiarity,8,OAmAd,KTDTB,0,1,False,1557.0
0,60a8bd22d03adbe92cbb9a5e,familiarity,9,Blmcl,YUNkZ,1,0,False,1524.0
0,60a8bd22d03adbe92cbb9a5e,familiarity,10,YQbc,AlKD,1,0,False,1902.0
0,60a8bd22d03adbe92cbb9a5e,familiarity,11,Grbk,YcdO,0,1,False,1898.0
0,60a8bd22d03adbe92cbb9a5e,familiarity,12,OdlNm,hlbtb,1,0,False,1737.0
0,60a8bd22d03adbe92cbb9a5e,familiarity,13,YcM,mvG,0,1,False,1888.0
0,60a8bd22d03adbe92cbb9a5e,familiarity,14,LuaU,EdBb,0,0,True,1867.0
0,60a8bd22d03adbe92cbb9a5e,familiarity,15,NUZ,YbN,1,1,True,1089.0
0,60a8bd22d03adbe92cbb9a5e,familiarity,16,ctkt,TEBK,1,1,True,897.0
0,60a8bd22d03adbe92cbb9a5e,familiarity,17,bROC,mARM,0,1,False,1329.0
0,60a8bd22d03adbe92cbb9a5e,familiarity,18,YZJm,TdTD,1,1,True,1894.0
0,60a8bd22d03adbe92cbb9a5e,familiarity,19,OdOP,vAar,0,0,True,1191.0
0,60a8bd22d03adbe92cbb9a5e,familiarity,20,kJdr,DCmh,0,0,True,1720.0
0,60a8bd22d03adbe92cbb9a5e,familiarity,21,COTK,uUmb,1,1,True,1244.0
0,60a8bd22d03adbe92cbb9a5e,familiarity,22,tKDmh,adYrc,0,0,True,1044.0
0,60a8bd22d03adbe92cbb9a5e,familiarity,23,aUZA,TdmA,0,1,False,1171.0
0,60a8bd22d03adbe92cbb9a5e,familiarity,24,UmNJ,dTAh,0,1,False,1807.0
0,60a8bd22d03adbe92cbb9a5e,familiarity,25,YKPB,RhPm,1,1,True,1391.0
0,60a8bd22d03adbe92cbb9a5e,familiarity,26,krUQ,QvlZ,1,1,True,1096.0
0,60a8bd22d03adbe92cbb9a5e,familiarity,27,BCAd,OkGY,0,1,False,1398.0
0,60a8bd22d03adbe92cbb9a5e,familiarity,28,RkmdC,EPERd,0,0,True,1814.0
0,60a8bd22d03adbe92cbb9a5e,familiarity,29,MhKd,lBKt,1,1,True,1480.0
0,60a8bd22d03adbe92cbb9a5e,familiarity,30,dvNvA,JmvmO,0,0,True,1975.0
0,60bf28df4926a8b6391df575,familiarity,1,bYGOZ,kRCkO,0,1,False,1818.0
0,60bf28df4926a8b6391df575,familiarity,2,thbOM,TAdhM,1,1,True,1848.0
0,60bf28df4926a8b6391df575,familiarity,3,LUOk,tRdM,0,0,True,1110.0
0,60bf28df4926a8b6391df575,familiarity,4,hTtBb,YOaAb,0,0,True,2570.0
0,60bf28df4926a8b6391df575,familiarity,5,JUNa,BYhT,0,0,True,1594.0
0,60bf28df4926a8b6391df575,familiarity,6,rGUAY,UdYUQ,0,1,False,1126.0
0,60bf28df4926a8b6391df575,familiarity,7,GumLl,DkTCP,1,0,False,971.0
0,60bf28df4926a8b6391df575,familiarity,8,PEkhA,QbkAc,1,1,True,1323.0
0,60bf28df4926a8b6391df575,familiarity,9,kPkRA,kdEdY,0,0,True,1372.0
0,60bf28df4926a8b6391df575,familiarity,10,Nac,ATc,0,1,False,1606.0
0,60bf28df4926a8b6391df575,familiarity,11,EAO,rAm,0,0,True,1882.0
0,60bf28df4926a8b6391df575,familiarity,12,YuaNd,QLrOJ,0,1,False,880.0
0,60bf28df4926a8b6391df575,familiarity,13,cuOJb,NbacA,1,1,True,1010.0
0,60bf28df4926a8b6391df575,familiarity,14,Amacl,dCtMA,1,1,True,1282.0
0,60bf28df4926a8b6391df575,familiarity,15,TdmA,PlEK,0,1,False,1132.0
0,60bf28df4926a8b6391df575,familiarity,16,EKBO,rkJu,0,0,True,1222.0
0,60bf28df4926a8b6391df575,familiarity,17,GNAca,bdUNu,1,1,True,1029.0
0,60bf28df4926a8b6391df575,familiarity,18,AbKD,lrZG,1,0,False,771.0
0,60bf28df4926a8b6391df575,familiarity,19,kJdr,JmNk,1,1,True,394.0
0,60bf28df4926a8b6391df575,familiarity,20,kulZ,JAaG,0,0,True,324.0
0,60bf28df4926a8b6391df575,familiarity,21,KTDTB,ABPRB,0,0,True,630.0
0,60bf28df4926a8b6391df575,familiarity,22,tDPRk,JmvmO,0,1,False,335.0
0,60bf28df4926a8b6391df575,familiarity,23,hbkd,AlTd,1,1,True,863.0
0,60bf28df4926a8b6391df575,familiarity,24,CkBOP,QcQAJ,0,1,False,916.0
0,60bf28df4926a8b6391df575,familiarity,25,GUa,EcR,1,0,False,1118.0
0,60bf28df4926a8b6391df575,familiarity,26,UJmr,muYN,0,1,False,639.0
0,60bf28df4926a8b6391df575,familiarity,27,TRK,UZu,1,1,True,1341.0
0,60bf28df4926a8b6391df575,familiarity,28,vuJZu,hlctE,1,1,True,637.0
0,60bf28df4926a8b6391df575,familiarity,29,KmE,Yht,0,0,True,142.0
0,60bf28df4926a8b6391df575,familiarity,30,CPMl,vJab,1,1,True,176.0
0,60c4a402716a8f9074fcd92e,familiarity,1,lLG,YcM,1,1,True,4061.0
0,60c4a402716a8f9074fcd92e,familiarity,2,JNka,RtRh,1,0,False,1208.0
0,60c4a402716a8f9074fcd92e,familiarity,3,AJLr,McMD,1,0,False,570.0
0,60c4a402716a8f9074fcd92e,familiarity,4,mARM,MCkm,1,1,True,335.0
0,60c4a402716a8f9074fcd92e,familiarity,5,mBbK,tRPD,0,0,True,503.0
0,60c4a402716a8f9074fcd92e,familiarity,6,rckO,crdY,0,1,False,435.0
0,60c4a402716a8f9074fcd92e,familiarity,7,NbacA,NbmQU,1,1,True,689.0
0,60c4a402716a8f9074fcd92e,familiarity,8,ObZbA,mUOcO,0,0,True,827.0
0,60c4a402716a8f9074fcd92e,familiarity,9,ckdAm,BdtAC,0,1,False,795.0
0,60c4a402716a8f9074fcd92e,familiarity,10,PCMPK,mZUrQ,0,1,False,152.0
0,60c4a402716a8f9074fcd92e,familiarity,11,OtM,mCd,1,1,True,219.0
0,60c4a402716a8f9074fcd92e,familiarity,12,uAkr,dYdA,0,0,True,458.0
0,60c4a402716a8f9074fcd92e,familiarity,13,YlCPB,EltMB,0,1,False,349.0
0,60c4a402716a8f9074fcd92e,familiarity,14,UYZlZ,ALOrl,1,1,True,1508.0
0,60c4a402716a8f9074fcd92e,familiarity,15,LcO,ABb,1,0,False,1555.0
0,60c4a402716a8f9074fcd92e,familiarity,16,JUNa,lGZv,0,1,False,1805.0
0,60c4a402716a8f9074fcd92e,familiarity,17,OMC,TRK,1,0,False,363.0
0,60c4a402716a8f9074fcd92e,familiarity,18,YNrAm,Blmcl,1,1,True,1255.0
0,60c4a402716a8f9074fcd92e,familiarity,19,DcPTc,OQarQ,1,1,True,1187.0
0,60c4a402716a8f9074fcd92e,familiarity,20,damYb,OYuvb,0,1,False,490.0
0,60c4a402716a8f9074fcd92e,familiarity,21,kDOm,YZJO,1,0,False,765.0
0,60c4a402716a8f9074fcd92e,familiarity,22,kcCRt,Juaml,0,0,True,270.0
0,60c4a402716a8f9074fcd92e,familiarity,23,RlAKc,UAcdu,1,1,True,348.0
0,60c4a402716a8f9074fcd92e,familiarity,24,QGb,lRE,0,0,True,637.0
0,60c4a402716a8f9074fcd92e,familiarity,25,DKP,aQr,0,0,True,639.0
0,60c4a402716a8f9074fcd92e,familiarity,26,YmBd,dmkv,1,1,True,502.0
0,60c4a402716a8f9074fcd92e,familiarity,27,OAmGr,Cchtd,0,1,False,422.0
0,60c4a402716a8f9074fcd92e,familiarity,28,Ckbd,bcOR,0,0,True,875.0
0,60c4a402716a8f9074fcd92e,familiarity,29,Mlth,NYZu,1,1,True,2144.0
0,60c4a402716a8f9074fcd92e,familiarity,30,JZr,JUG,0,1,False,2343.0
0,60c715c89bb47f3847a690f0,familiarity,1,AlUY,YbBT,1,1,True,4538.0
0,60c715c89bb47f3847a690f0,familiarity,2,dYAJ,ALGZ,1,1,True,5455.0
0,60c715c89bb47f3847a690f0,familiarity,3,bvkr,kDOm,0,0,True,1417.0
0,60c715c89bb47f3847a690f0,familiarity,4,Tmc,Glu,1,0,False,1228.0
0,60c715c89bb47f3847a690f0,familiarity,5,EYtYR,OdlNm,0,1,False,1012.0
0,60c715c89bb47f3847a690f0,familiarity,6,mUOcO,dMYBP,0,0,True,740.0
0,60c715c89bb47f3847a690f0,familiarity,7,Avdk,rckO,0,1,False,641.0
0,60c715c89bb47f3847a690f0,familiarity,8,KOYC,bROC,0,0,True,475.0
0,60c715c89bb47f3847a690f0,familiarity,9,DCmh,uauO,0,0,True,618.0
0,60c715c89bb47f3847a690f0,familiarity,10,ZcGdN,kPkRA,0,1,False,519.0
0,60c715c89bb47f3847a690f0,familiarity,11,BEPO,aUZA,1,1,True,603.0
0,60c715c89bb47f3847a690f0,familiarity,12,ldAa,rULv,1,0,False,407.0
0,60c715c89bb47f3847a690f0,familiarity,13,Grub,YaOk,1,0,False,617.0
0,60c715c89bb47f3847a690f0,familiarity,14,RCcE,rNlZ,0,1,False,499.0
0,60c715c89bb47f3847a690f0,familiarity,15,YmBd,Yaum,1,1,True,484.0
0,60c715c89bb47f3847a690f0,familiarity,16,RdPtD,ABPRB,0,0,True,378.0
0,60c715c89bb47f3847a690f0,familiarity,17,vYLU,YKPB,1,0,False,488.0
0,60c715c89bb47f3847a690f0,familiarity,18,LNUrJ,LOLkU,0,0,True,491.0
0,60c715c89bb47f3847a690f0,familiarity,19,bGuO,PdDT,0,1,False,434.0
0,60c715c89bb47f3847a690f0,familiarity,20,CKOb,NQZv,1,1,True,486.0
0,60c715c89bb47f3847a690f0,familiarity,21,dOYml,RlAKc,1,0,False,343.0
0,60c715c89bb47f3847a690f0,familiarity,22,vUdm,RdCc,0,0,True,426.0
0,60c715c89bb47f3847a690f0,familiarity,23,rdLJa,rcmuv,1,0,False,394.0
0,60c715c89bb47f3847a690f0,familiarity,24,lCbcm,BOCRM,1,1,True,461.0
0,60c715c89bb47f3847a690f0,familiarity,25,cbm,lvk,0,1,False,516.0
0,60c715c89bb47f3847a690f0,familiarity,26,GJGcZ,tmtEM,0,0,True,513.0
0,60c715c89bb47f3847a690f0,familiarity,27,Tbk,rab,1,0,False,354.0
0,60c715c89bb47f3847a690f0,familiarity,28,khMD,tmYh,0,0,True,408.0
0,60c715c89bb47f3847a690f0,familiarity,29,hbmA,dkLl,0,0,True,612.0
0,60c715c89bb47f3847a690f0,familiarity,30,TdTD,DOAK,1,0,False,422.0
0,60c873a65a9883b52f70db6c,familiarity,1,vblr,mcOJ,0,1,False,1559.0
0,60c873a65a9883b52f70db6c,familiarity,2,OtlR,lBKt,0,0,True,1113.0
0,60c873a65a9883b52f70db6c,familiarity,3,DhMt,tRPD,1,1,True,1045.0
0,60c873a65a9883b52f70db6c,familiarity,4,PMPtk,ZYcQU,1,1,True,1211.0
0,60c873a65a9883b52f70db6c,familiarity,5,cDR,ATc,1,0,False,1460.0
0,60c873a65a9883b52f70db6c,familiarity,6,TPOM,RCcE,0,1,False,1300.0
0,60c873a65a9883b52f70db6c,familiarity,7,TRK,cUN,1,1,True,1338.0
0,60c873a65a9883b52f70db6c,familiarity,8,GLYrA,YJLcA,1,1,True,1222.0
0,60c873a65a9883b52f70db6c,familiarity,9,NvuGr,rGUAY,0,0,True,1335.0
0,60c873a65a9883b52f70db6c,familiarity,10,lAOKM,lbBDE,0,0,True,1140.0
0,60c873a65a9883b52f70db6c,familiarity,11,CDEmY,YNrAm,1,1,True,1298.0
0,60c873a65a9883b52f70db6c,familiarity,12,BRDh,PdDT,0,0,True,1010.0
0,60c873a65a9883b52f70db6c,familiarity,13,TDKh,mARM,0,0,True,1684.0
0,60c873a65a9883b52f70db6c,familiarity,14,LkNc,JmNk,0,0,True,1383.0
0,60c873a65a9883b52f70db6c,familiarity,15,cbm,tAY,0,0,True,1064.0
0,60c873a65a9883b52f70db6c,familiarity,16,TCbDC,hlbtb,1,1,True,1460.0
0,60c873a65a9883b52f70db6c,familiarity,17,Zvalv,vuJZu,1,1,True,1506.0
0,60c873a65a9883b52f70db6c,familiarity,18,uQkrd,htmhC,1,0,False,1050.0
0,60c873a65a9883b52f70db6c,familiarity,19,badk,YmBd,0,0,True,1132.0
0,60c873a65a9883b52f70db6c,familiarity,20,bvuZ,JcUk,1,0,False,1242.0
0,60c873a65a9883b52f70db6c,familiarity,21,LckGN,NbmQU,1,0,False,1216.0
0,60c873a65a9883b52f70db6c,familiarity,22,LcO,bRC,1,0,False,919.0
0,60c873a65a9883b52f70db6c,familiarity,23,rLkm,Zckv,1,0,False,1475.0
0,60c873a65a9883b52f70db6c,familiarity,24,EcR,KmE,1,1,True,1003.0
0,60c873a65a9883b52f70db6c,familiarity,25,dMThk,Qclad,0,1,False,1072.0
0,60c873a65a9883b52f70db6c,familiarity,26,Ldrbv,TObCO,0,0,True,1171.0
0,60c873a65a9883b52f70db6c,familiarity,27,bLd,OPE,1,0,False,1339.0
0,60c873a65a9883b52f70db6c,familiarity,28,BMEMA,aOLZU,1,1,True,981.0
0,60c873a65a9883b52f70db6c,familiarity,29,BEPO,lrZG,0,0,True,1149.0
0,60c873a65a9883b52f70db6c,familiarity,30,JdGm,ravu,0,0,True,1574.0
0,60ca0b60979a23c83652c303,familiarity,1,rckO,MTdY,1,1,True,1673.0
0,60ca0b60979a23c83652c303,familiarity,2,EltMB,KAERM,1,1,True,1622.0
0,60ca0b60979a23c83652c303,familiarity,3,aUZA,UmNJ,0,1,False,1676.0
0,60ca0b60979a23c83652c303,familiarity,4,KElB,BbOD,1,0,False,842.0
0,60ca0b60979a23c83652c303,familiarity,5,bdtK,JvaA,1,0,False,1078.0
0,60ca0b60979a23c83652c303,familiarity,6,kKRC,YJkb,1,0,False,1127.0
0,60ca0b60979a23c83652c303,familiarity,7,COTK,OZkb,1,0,False,1157.0
0,60ca0b60979a23c83652c303,familiarity,8,vQdO,UrOQ,1,0,False,1244.0
0,60ca0b60979a23c83652c303,familiarity,9,AbKD,JauQ,1,0,False,976.0
0,60ca0b60979a23c83652c303,familiarity,10,Zvalv,YJLcA,1,1,True,1242.0
0,60ca0b60979a23c83652c303,familiarity,11,dMThk,OAmAd,1,0,False,901.0
0,60ca0b60979a23c83652c303,familiarity,12,TEBK,aONd,1,0,False,968.0
0,60ca0b60979a23c83652c303,familiarity,13,YUYa,TdTD,1,0,False,821.0
0,60ca0b60979a23c83652c303,familiarity,14,lMck,mdla,1,0,False,1184.0
0,60ca0b60979a23c83652c303,familiarity,15,aNYmb,dCtMA,0,1,False,845.0
0,60ca0b60979a23c83652c303,familiarity,16,ALGZ,Nulk,0,0,True,1021.0
0,60ca0b60979a23c83652c303,familiarity,17,kbu,NUZ,0,0,True,987.0
0,60ca0b60979a23c83652c303,familiarity,18,OEPk,Yaum,1,0,False,993.0
0,60ca0b60979a23c83652c303,familiarity,19,bvkr,ukcY,0,0,True,1164.0
0,60ca0b60979a23c83652c303,familiarity,20,kmU,OYK,0,1,False,1109.0
0,60ca0b60979a23c83652c303,familiarity,21,uZc,kKE,1,0,False,959.0
0,60ca0b60979a23c83652c303,familiarity,22,YObA,vAvb,1,1,True,1257.0
0,60ca0b60979a23c83652c303,familiarity,23,bGuO,adkr,1,0,False,988.0
0,60ca0b60979a23c83652c303,familiarity,24,KABA,OJlN,1,0,False,879.0
0,60ca0b60979a23c83652c303,familiarity,25,Tmc,bLd,0,0,True,1296.0
0,60ca0b60979a23c83652c303,familiarity,26,GQrc,LQur,1,1,True,1115.0
0,60ca0b60979a23c83652c303,familiarity,27,MAB,JZr,1,0,False,996.0
0,60ca0b60979a23c83652c303,familiarity,28,AJLr,rLaZ,1,0,False,949.0
0,60ca0b60979a23c83652c303,familiarity,29,JcL,uvJ,0,0,True,1019.0
0,60ca0b60979a23c83652c303,familiarity,30,mAM,aQr,0,0,True,1012.0
0,60cef349a1fff159b5d4853e,familiarity,1,KMDYt,Qclad,1,1,True,1299.0
0,60cef349a1fff159b5d4853e,familiarity,2,NvuGr,Blmcl,1,1,True,1827.0
0,60cef349a1fff159b5d4853e,familiarity,3,EPBT,mARM,0,0,True,2310.0
0,60cef349a1fff159b5d4853e,familiarity,4,PEdK,AdDb,1,0,False,1771.0
0,60cef349a1fff159b5d4853e,familiarity,5,GNAca,QcQAJ,1,1,True,1538.0
0,60cef349a1fff159b5d4853e,familiarity,6,YLQmG,CkBOP,1,1,True,1688.0
0,60cef349a1fff159b5d4853e,familiarity,7,Ehbt,NJZl,0,0,True,1738.0
0,60cef349a1fff159b5d4853e,familiarity,8,vcb,ABb,1,0,False,1431.0
0,60cef349a1fff159b5d4853e,familiarity,9,Cchtd,PctRC,0,1,False,1792.0
0,60cef349a1fff159b5d4853e,familiarity,10,DhMt,dEPD,0,0,True,1798.0
0,60cef349a1fff159b5d4853e,familiarity,11,Gabk,KDPA,1,0,False,2095.0
0,60cef349a1fff159b5d4853e,familiarity,12,crdY,RYlD,0,0,True,1872.0
0,60cef349a1fff159b5d4853e,familiarity,13,mtKP,khmh,1,0,False,1923.0
0,60cef349a1fff159b5d4853e,familiarity,14,uauO,aYaN,1,1,True,1604.0
0,60cef349a1fff159b5d4853e,familiarity,15,Ymb,BbM,1,1,True,1943.0
0,60cef349a1fff159b5d4853e,familiarity,16,EAO,kKE,1,1,True,1665.0
0,60cef349a1fff159b5d4853e,familiarity,17,Yadr,hChY,1,1,True,1827.0
0,60cef349a1fff159b5d4853e,familiarity,18,YUYa,kdrO,0,1,False,1418.0
0,60cef349a1fff159b5d4853e,familiarity,19,chAh,BCAd,1,1,True,1497.0
0,60cef349a1fff159b5d4853e,familiarity,20,DCmh,hlkT,0,0,True,1700.0
0,60cef349a1fff159b5d4853e,familiarity,21,ukbY,ZdlO,0,0,True,1371.0
0,60cef349a1fff159b5d4853e,familiarity,22,UYZlZ,PDPhl,1,1,True,2153.0
0,60cef349a1fff159b5d4853e,familiarity,23,kabJb,BKDRY,1,1,True,1227.0
0,60cef349a1fff159b5d4853e,familiarity,24,McMD,ZvkL,0,0,True,1312.0
