,sbj_ID,task,trialn,target,confound,expected,observed,correct,rt,item,Age,Sex,Education,L1,L2,L3,L4,otherLs,AoAL1,AoAL2,AoAL3,AoAL4,AoAgioL1,AoAgioL2,AoAgioL3,AoAgioL4,anniInstrL1,anniInstrL2,anniInstrL3,anniInstrL4,anniPaeseL1,anniPaeseL2,anniPaeseL3,anniPaeseL4,anniFamigliaL1,anniFamigliaL2,anniFamigliaL3,anniFamigliaL4,anniLavoroL1,anniLavoroL2,anniLavoroL3,anniLavoroL4,PercAmiciL1,PercAmiciL2,PercAmiciL3,PercAmiciL4,PercFamigliaL1,PercFamigliaL2,PercFamigliaL3,PercFamigliaL4,PercLavoroL1,PercLavoroL2,PercLavoroL3,PercLavoroL4,PercStessoL1,PercStessoL2,PercStessoL3,PercStessoL4,PercCalcoliL1,PercCalcoliL2,PercCalcoliL3,PercCalcoliL4,ProfParlaL1,ProfParlaL2,ProfParlaL3,ProfParlaL4,ProfCapisceL1,ProfCapisceL2,ProfCapisceL3,ProfCapisceL4,ProfLeggeL1,ProfLeggeL2,ProfLeggeL3,ProfLeggeL4,AttentionL1,AttentionL2,AttentionL3,AttentionL4,ProfScriveL1,ProfScriveL2,ProfScriveL3,ProfScriveL4,AttMiStessoL1,AttMiStessoL2,AttMiStessoL3,AttMiStessoL4,AttCulturaL1,AttCulturaL2,AttCulturaL3,AttCulturaL4,AttLivNativoL1,AttLivNativoL2,AttLivNativoL3,AttLivNativoL4,AttMadrelinguaL1,AttMadrelinguaL2,AttMadrelinguaL3,AttMadrelinguaL4,HistoryL1Score,HistoryL2Score,HistoryL3Score,HistoryL4Score,UseL1Score,UseL2Score,UseL3Score,UseL4Score,ProficiencyL1Score,ProficiencyL2Score,ProficiencyL3Score,ProficiencyL4Score,AttitudeL1Score,AttitudeL2Score,AttitudeL3Score,AttitudeL4Score,L1Score,L2Score,L3Score,L4Score
0,59aaf4b1321f870001d16f6c,BLP,,,,,,,,,23,Uomo,Uni,italiano,inglese,francese,russo,no,0.0,10.0,8.0,4.0,0.0,5.0,3.0,1.0,14.0,10.0,7.0,3.0,20.0,0.0,1.0,0.0,20.0,0.0,0.0,0.0,20.0,0.0,1.0,0.0,10.0,0.0,0.0,0.0,10.0,0.0,0.0,0.0,10.0,0.0,0.0,0.0,10.0,0.0,0.0,0.0,10.0,0.0,0.0,0.0,6.0,6.0,3.0,0.0,6.0,6.0,4.0,1.0,6.0,6.0,5.0,2.0,true,true,true,true,6.0,6.0,4.0,1.0,6.0,4.0,1.0,0.0,6.0,2.0,2.0,0.0,6.0,6.0,6.0,4.0,6.0,6.0,6.0,3.0,33.596000000000004,11.35,9.08,3.632,54.50000000000001,0.0,0.0,0.0,54.480000000000004,54.480000000000004,36.32,9.08,54.480000000000004,40.86,34.05,15.89,197.05600000000004,106.69,79.44999999999999,28.602
0,59aaf4b1321f870001d16f6c,familiarity,1.0,bmbN,aUZA,1.0,1.0,True,2067.0,,,,,,,,,,,,,,,,,,,,,,,,,,,,,,,,,,,,,,,,,,,,,,,,,,,,,,,,,,,,,,,,,,,,,,,,,,,,,,,,,,,,,,,,,,,,,,,,,,,,,,,,,,,,,
0,59aaf4b1321f870001d16f6c,familiarity,2.0,htmhC,lbBDE,0.0,0.0,True,1306.0,,,,,,,,,,,,,,,,,,,,,,,,,,,,,,,,,,,,,,,,,,,,,,,,,,,,,,,,,,,,,,,,,,,,,,,,,,,,,,,,,,,,,,,,,,,,,,,,,,,,,,,,,,,,,
0,59aaf4b1321f870001d16f6c,familiarity,3.0,kPOt,PYkC,0.0,1.0,False,1336.0,,,,,,,,,,,,,,,,,,,,,,,,,,,,,,,,,,,,,,,,,,,,,,,,,,,,,,,,,,,,,,,,,,,,,,,,,,,,,,,,,,,,,,,,,,,,,,,,,,,,,,,,,,,,,
0,59aaf4b1321f870001d16f6c,familiarity,4.0,ZYcQU,ZdNmU,1.0,1.0,True,1990.0,,,,,,,,,,,,,,,,,,,,,,,,,,,,,,,,,,,,,,,,,,,,,,,,,,,,,,,,,,,,,,,,,,,,,,,,,,,,,,,,,,,,,,,,,,,,,,,,,,,,,,,,,,,,,
0,59aaf4b1321f870001d16f6c,familiarity,5.0,bGuO,RKYk,0.0,0.0,True,1367.0,,,,,,,,,,,,,,,,,,,,,,,,,,,,,,,,,,,,,,,,,,,,,,,,,,,,,,,,,,,,,,,,,,,,,,,,,,,,,,,,,,,,,,,,,,,,,,,,,,,,,,,,,,,,,
0,59aaf4b1321f870001d16f6c,familiarity,6.0,cDR,JZr,0.0,1.0,False,1559.0,,,,,,,,,,,,,,,,,,,,,,,,,,,,,,,,,,,,,,,,,,,,,,,,,,,,,,,,,,,,,,,,,,,,,,,,,,,,,,,,,,,,,,,,,,,,,,,,,,,,,,,,,,,,,
0,59aaf4b1321f870001d16f6c,familiarity,7.0,OdOP,YbBT,1.0,0.0,False,1205.0,,,,,,,,,,,,,,,,,,,,,,,,,,,,,,,,,,,,,,,,,,,,,,,,,,,,,,,,,,,,,,,,,,,,,,,,,,,,,,,,,,,,,,,,,,,,,,,,,,,,,,,,,,,,,
0,59aaf4b1321f870001d16f6c,familiarity,8.0,AdDb,YZUZ,1.0,0.0,False,855.0,,,,,,,,,,,,,,,,,,,,,,,,,,,,,,,,,,,,,,,,,,,,,,,,,,,,,,,,,,,,,,,,,,,,,,,,,,,,,,,,,,,,,,,,,,,,,,,,,,,,,,,,,,,,,
0,59aaf4b1321f870001d16f6c,familiarity,9.0,ZAUu,YJkb,0.0,1.0,False,568.0,,,,,,,,,,,,,,,,,,,,,,,,,,,,,,,,,,,,,,,,,,,,,,,,,,,,,,,,,,,,,,,,,,,,,,,,,,,,,,,,,,,,,,,,,,,,,,,,,,,,,,,,,,,,,
0,59aaf4b1321f870001d16f6c,familiarity,10.0,kJdr,Udbd,0.0,0.0,True,353.0,,,,,,,,,,,,,,,,,,,,,,,,,,,,,,,,,,,,,,,,,,,,,,,,,,,,,,,,,,,,,,,,,,,,,,,,,,,,,,,,,,,,,,,,,,,,,,,,,,,,,,,,,,,,,
0,59aaf4b1321f870001d16f6c,familiarity,11.0,LQur,UaYL,1.0,0.0,False,350.0,,,,,,,,,,,,,,,,,,,,,,,,,,,,,,,,,,,,,,,,,,,,,,,,,,,,,,,,,,,,,,,,,,,,,,,,,,,,,,,,,,,,,,,,,,,,,,,,,,,,,,,,,,,,,
0,59aaf4b1321f870001d16f6c,familiarity,12.0,crdY,vAvb,0.0,0.0,True,167.0,,,,,,,,,,,,,,,,,,,,,,,,,,,,,,,,,,,,,,,,,,,,,,,,,,,,,,,,,,,,,,,,,,,,,,,,,,,,,,,,,,,,,,,,,,,,,,,,,,,,,,,,,,,,,
0,59aaf4b1321f870001d16f6c,familiarity,13.0,PEkhA,BOCRM,0.0,1.0,False,244.0,,,,,,,,,,,,,,,,,,,,,,,,,,,,,,,,,,,,,,,,,,,,,,,,,,,,,,,,,,,,,,,,,,,,,,,,,,,,,,,,,,,,,,,,,,,,,,,,,,,,,,,,,,,,,
0,59aaf4b1321f870001d16f6c,familiarity,14.0,MhKd,AdYl,0.0,1.0,False,370.0,,,,,,,,,,,,,,,,,,,,,,,,,,,,,,,,,,,,,,,,,,,,,,,,,,,,,,,,,,,,,,,,,,,,,,,,,,,,,,,,,,,,,,,,,,,,,,,,,,,,,,,,,,,,,
0,59aaf4b1321f870001d16f6c,familiarity,15.0,LAclA,PDPhl,0.0,0.0,True,314.0,,,,,,,,,,,,,,,,,,,,,,,,,,,,,,,,,,,,,,,,,,,,,,,,,,,,,,,,,,,,,,,,,,,,,,,,,,,,,,,,,,,,,,,,,,,,,,,,,,,,,,,,,,,,,
0,59aaf4b1321f870001d16f6c,familiarity,16.0,Ctmb,RCcE,1.0,1.0,True,264.0,,,,,,,,,,,,,,,,,,,,,,,,,,,,,,,,,,,,,,,,,,,,,,,,,,,,,,,,,,,,,,,,,,,,,,,,,,,,,,,,,,,,,,,,,,,,,,,,,,,,,,,,,,,,,
0,59aaf4b1321f870001d16f6c,familiarity,17.0,tKDmh,AlQaQ,1.0,0.0,False,92.0,,,,,,,,,,,,,,,,,,,,,,,,,,,,,,,,,,,,,,,,,,,,,,,,,,,,,,,,,,,,,,,,,,,,,,,,,,,,,,,,,,,,,,,,,,,,,,,,,,,,,,,,,,,,,
0,59aaf4b1321f870001d16f6c,familiarity,18.0,JdOAY,ZJLmr,1.0,1.0,True,122.0,,,,,,,,,,,,,,,,,,,,,,,,,,,,,,,,,,,,,,,,,,,,,,,,,,,,,,,,,,,,,,,,,,,,,,,,,,,,,,,,,,,,,,,,,,,,,,,,,,,,,,,,,,,,,
0,59aaf4b1321f870001d16f6c,familiarity,19.0,QGb,PED,1.0,0.0,False,71.0,,,,,,,,,,,,,,,,,,,,,,,,,,,,,,,,,,,,,,,,,,,,,,,,,,,,,,,,,,,,,,,,,,,,,,,,,,,,,,,,,,,,,,,,,,,,,,,,,,,,,,,,,,,,,
0,59aaf4b1321f870001d16f6c,familiarity,20.0,YDE,EAO,1.0,1.0,True,79.0,,,,,,,,,,,,,,,,,,,,,,,,,,,,,,,,,,,,,,,,,,,,,,,,,,,,,,,,,,,,,,,,,,,,,,,,,,,,,,,,,,,,,,,,,,,,,,,,,,,,,,,,,,,,,
0,59aaf4b1321f870001d16f6c,familiarity,21.0,OtM,OBT,0.0,0.0,True,94.0,,,,,,,,,,,,,,,,,,,,,,,,,,,,,,,,,,,,,,,,,,,,,,,,,,,,,,,,,,,,,,,,,,,,,,,,,,,,,,,,,,,,,,,,,,,,,,,,,,,,,,,,,,,,,
0,59aaf4b1321f870001d16f6c,familiarity,22.0,MkmEd,ODBDA,0.0,1.0,False,60.0,,,,,,,,,,,,,,,,,,,,,,,,,,,,,,,,,,,,,,,,,,,,,,,,,,,,,,,,,,,,,,,,,,,,,,,,,,,,,,,,,,,,,,,,,,,,,,,,,,,,,,,,,,,,,
0,59aaf4b1321f870001d16f6c,familiarity,23.0,vYLU,YZJO,1.0,0.0,False,114.0,,,,,,,,,,,,,,,,,,,,,,,,,,,,,,,,,,,,,,,,,,,,,,,,,,,,,,,,,,,,,,,,,,,,,,,,,,,,,,,,,,,,,,,,,,,,,,,,,,,,,,,,,,,,,
0,59aaf4b1321f870001d16f6c,familiarity,24.0,COTK,YlYc,1.0,1.0,True,41.0,,,,,,,,,,,,,,,,,,,,,,,,,,,,,,,,,,,,,,,,,,,,,,,,,,,,,,,,,,,,,,,,,,,,,,,,,,,,,,,,,,,,,,,,,,,,,,,,,,,,,,,,,,,,,
0,59aaf4b1321f870001d16f6c,familiarity,25.0,vQdO,adkr,0.0,0.0,True,377.0,,,,,,,,,,,,,,,,,,,,,,,,,,,,,,,,,,,,,,,,,,,,,,,,,,,,,,,,,,,,,,,,,,,,,,,,,,,,,,,,,,,,,,,,,,,,,,,,,,,,,,,,,,,,,
0,59aaf4b1321f870001d16f6c,familiarity,26.0,YcM,lRE,1.0,1.0,True,204.0,,,,,,,,,,,,,,,,,,,,,,,,,,,,,,,,,,,,,,,,,,,,,,,,,,,,,,,,,,,,,,,,,,,,,,,,,,,,,,,,,,,,,,,,,,,,,,,,,,,,,,,,,,,,,
0,59aaf4b1321f870001d16f6c,familiarity,27.0,ZcGdN,dClOC,0.0,0.0,True,131.0,,,,,,,,,,,,,,,,,,,,,,,,,,,,,,,,,,,,,,,,,,,,,,,,,,,,,,,,,,,,,,,,,,,,,,,,,,,,,,,,,,,,,,,,,,,,,,,,,,,,,,,,,,,,,
0,59aaf4b1321f870001d16f6c,familiarity,28.0,JUNa,tdDd,0.0,1.0,False,932.0,,,,,,,,,,,,,,,,,,,,,,,,,,,,,,,,,,,,,,,,,,,,,,,,,,,,,,,,,,,,,,,,,,,,,,,,,,,,,,,,,,,,,,,,,,,,,,,,,,,,,,,,,,,,,
0,59aaf4b1321f870001d16f6c,familiarity,29.0,EYtYR,DOchl,0.0,0.0,True,333.0,,,,,,,,,,,,,,,,,,,,,,,,,,,,,,,,,,,,,,,,,,,,,,,,,,,,,,,,,,,,,,,,,,,,,,,,,,,,,,,,,,,,,,,,,,,,,,,,,,,,,,,,,,,,,
0,59aaf4b1321f870001d16f6c,familiarity,30.0,LOLkU,dGLAl,0.0,1.0,False,366.0,,,,,,,,,,,,,,,,,,,,,,,,,,,,,,,,,,,,,,,,,,,,,,,,,,,,,,,,,,,,,,,,,,,,,,,,,,,,,,,,,,,,,,,,,,,,,,,,,,,,,,,,,,,,,
0,59aaf4b1321f870001d16f6c,testing,1.0,,,1.0,0.0,False,3578.0,LQurcDR,,,,,,,,,,,,,,,,,,,,,,,,,,,,,,,,,,,,,,,,,,,,,,,,,,,,,,,,,,,,,,,,,,,,,,,,,,,,,,,,,,,,,,,,,,,,,,,,,,,,,,,,,,,,
0,59aaf4b1321f870001d16f6c,testing,2.0,,,0.0,0.0,True,1241.0,LAclAQGb,,,,,,,,,,,,,,,,,,,,,,,,,,,,,,,,,,,,,,,,,,,,,,,,,,,,,,,,,,,,,,,,,,,,,,,,,,,,,,,,,,,,,,,,,,,,,,,,,,,,,,,,,,,,
0,59aaf4b1321f870001d16f6c,testing,3.0,,,1.0,0.0,False,1342.0,PEkhAJUNa,,,,,,,,,,,,,,,,,,,,,,,,,,,,,,,,,,,,,,,,,,,,,,,,,,,,,,,,,,,,,,,,,,,,,,,,,,,,,,,,,,,,,,,,,,,,,,,,,,,,,,,,,,,,
0,59aaf4b1321f870001d16f6c,testing,4.0,,,1.0,0.0,False,835.0,COTKQGb,,,,,,,,,,,,,,,,,,,,,,,,,,,,,,,,,,,,,,,,,,,,,,,,,,,,,,,,,,,,,,,,,,,,,,,,,,,,,,,,,,,,,,,,,,,,,,,,,,,,,,,,,,,,
0,59aaf4b1321f870001d16f6c,testing,5.0,,,1.0,0.0,False,1218.0,bmbNYDE,,,,,,,,,,,,,,,,,,,,,,,,,,,,,,,,,,,,,,,,,,,,,,,,,,,,,,,,,,,,,,,,,,,,,,,,,,,,,,,,,,,,,,,,,,,,,,,,,,,,,,,,,,,,
0,59aaf4b1321f870001d16f6c,testing,6.0,,,0.0,1.0,False,646.0,COTKOtM,,,,,,,,,,,,,,,,,,,,,,,,,,,,,,,,,,,,,,,,,,,,,,,,,,,,,,,,,,,,,,,,,,,,,,,,,,,,,,,,,,,,,,,,,,,,,,,,,,,,,,,,,,,,
0,59aaf4b1321f870001d16f6c,testing,7.0,,,0.0,1.0,False,734.0,PEkhAcDR,,,,,,,,,,,,,,,,,,,,,,,,,,,,,,,,,,,,,,,,,,,,,,,,,,,,,,,,,,,,,,,,,,,,,,,,,,,,,,,,,,,,,,,,,,,,,,,,,,,,,,,,,,,,
0,59aaf4b1321f870001d16f6c,testing,8.0,,,0.0,0.0,True,580.0,MkmEdOtM,,,,,,,,,,,,,,,,,,,,,,,,,,,,,,,,,,,,,,,,,,,,,,,,,,,,,,,,,,,,,,,,,,,,,,,,,,,,,,,,,,,,,,,,,,,,,,,,,,,,,,,,,,,,
0,59aaf4b1321f870001d16f6c,testing,9.0,,,0.0,1.0,False,341.0,MhKdYDE,,,,,,,,,,,,,,,,,,,,,,,,,,,,,,,,,,,,,,,,,,,,,,,,,,,,,,,,,,,,,,,,,,,,,,,,,,,,,,,,,,,,,,,,,,,,,,,,,,,,,,,,,,,,
0,59aaf4b1321f870001d16f6c,testing,10.0,,,1.0,0.0,False,354.0,LOLkUOdOP,,,,,,,,,,,,,,,,,,,,,,,,,,,,,,,,,,,,,,,,,,,,,,,,,,,,,,,,,,,,,,,,,,,,,,,,,,,,,,,,,,,,,,,,,,,,,,,,,,,,,,,,,,,,
0,59aaf4b1321f870001d16f6c,testing,11.0,,,1.0,1.0,True,264.0,tKDmhkJdr,,,,,,,,,,,,,,,,,,,,,,,,,,,,,,,,,,,,,,,,,,,,,,,,,,,,,,,,,,,,,,,,,,,,,,,,,,,,,,,,,,,,,,,,,,,,,,,,,,,,,,,,,,,,
0,59aaf4b1321f870001d16f6c,testing,12.0,,,1.0,0.0,False,253.0,CtmbZAUu,,,,,,,,,,,,,,,,,,,,,,,,,,,,,,,,,,,,,,,,,,,,,,,,,,,,,,,,,,,,,,,,,,,,,,,,,,,,,,,,,,,,,,,,,,,,,,,,,,,,,,,,,,,,
0,59aaf4b1321f870001d16f6c,testing,13.0,,,1.0,0.0,False,412.0,vQdOcDR,,,,,,,,,,,,,,,,,,,,,,,,,,,,,,,,,,,,,,,,,,,,,,,,,,,,,,,,,,,,,,,,,,,,,,,,,,,,,,,,,,,,,,,,,,,,,,,,,,,,,,,,,,,,
0,59aaf4b1321f870001d16f6c,testing,14.0,,,0.0,0.0,True,572.0,bmbNkJdr,,,,,,,,,,,,,,,,,,,,,,,,,,,,,,,,,,,,,,,,,,,,,,,,,,,,,,,,,,,,,,,,,,,,,,,,,,,,,,,,,,,,,,,,,,,,,,,,,,,,,,,,,,,,
0,59aaf4b1321f870001d16f6c,testing,15.0,,,0.0,0.0,True,532.0,LQurJUNa,,,,,,,,,,,,,,,,,,,,,,,,,,,,,,,,,,,,,,,,,,,,,,,,,,,,,,,,,,,,,,,,,,,,,,,,,,,,,,,,,,,,,,,,,,,,,,,,,,,,,,,,,,,,
0,59aaf4b1321f870001d16f6c,testing,16.0,,,0.0,0.0,True,1220.0,bGuOkJdr,,,,,,,,,,,,,,,,,,,,,,,,,,,,,,,,,,,,,,,,,,,,,,,,,,,,,,,,,,,,,,,,,,,,,,,,,,,,,,,,,,,,,,,,,,,,,,,,,,,,,,,,,,,,
0,59aaf4b1321f870001d16f6c,testing,17.0,,,0.0,1.0,False,1806.0,ZcGdNQGb,,,,,,,,,,,,,,,,,,,,,,,,,,,,,,,,,,,,,,,,,,,,,,,,,,,,,,,,,,,,,,,,,,,,,,,,,,,,,,,,,,,,,,,,,,,,,,,,,,,,,,,,,,,,
0,59aaf4b1321f870001d16f6c,testing,18.0,,,0.0,0.0,True,334.0,LOLkUcrdY,,,,,,,,,,,,,,,,,,,,,,,,,,,,,,,,,,,,,,,,,,,,,,,,,,,,,,,,,,,,,,,,,,,,,,,,,,,,,,,,,,,,,,,,,,,,,,,,,,,,,,,,,,,,
0,59aaf4b1321f870001d16f6c,testing,19.0,,,0.0,0.0,True,288.0,vQdOJUNa,,,,,,,,,,,,,,,,,,,,,,,,,,,,,,,,,,,,,,,,,,,,,,,,,,,,,,,,,,,,,,,,,,,,,,,,,,,,,,,,,,,,,,,,,,,,,,,,,,,,,,,,,,,,
0,59aaf4b1321f870001d16f6c,testing,20.0,,,0.0,0.0,True,431.0,ZYcQUZAUu,,,,,,,,,,,,,,,,,,,,,,,,,,,,,,,,,,,,,,,,,,,,,,,,,,,,,,,,,,,,,,,,,,,,,,,,,,,,,,,,,,,,,,,,,,,,,,,,,,,,,,,,,,,,
0,59aaf4b1321f870001d16f6c,testing,21.0,,,0.0,1.0,False,305.0,AdDbYcM,,,,,,,,,,,,,,,,,,,,,,,,,,,,,,,,,,,,,,,,,,,,,,,,,,,,,,,,,,,,,,,,,,,,,,,,,,,,,,,,,,,,,,,,,,,,,,,,,,,,,,,,,,,,
0,59aaf4b1321f870001d16f6c,testing,22.0,,,1.0,1.0,True,1017.0,bGuOYDE,,,,,,,,,,,,,,,,,,,,,,,,,,,,,,,,,,,,,,,,,,,,,,,,,,,,,,,,,,,,,,,,,,,,,,,,,,,,,,,,,,,,,,,,,,,,,,,,,,,,,,,,,,,,
0,59aaf4b1321f870001d16f6c,testing,23.0,,,1.0,1.0,True,1039.0,ZYcQUYcM,,,,,,,,,,,,,,,,,,,,,,,,,,,,,,,,,,,,,,,,,,,,,,,,,,,,,,,,,,,,,,,,,,,,,,,,,,,,,,,,,,,,,,,,,,,,,,,,,,,,,,,,,,,,
0,59aaf4b1321f870001d16f6c,testing,24.0,,,1.0,1.0,True,856.0,vYLUOdOP,,,,,,,,,,,,,,,,,,,,,,,,,,,,,,,,,,,,,,,,,,,,,,,,,,,,,,,,,,,,,,,,,,,,,,,,,,,,,,,,,,,,,,,,,,,,,,,,,,,,,,,,,,,,
0,59aaf4b1321f870001d16f6c,testing,25.0,,,1.0,0.0,False,473.0,AdDbZAUu,,,,,,,,,,,,,,,,,,,,,,,,,,,,,,,,,,,,,,,,,,,,,,,,,,,,,,,,,,,,,,,,,,,,,,,,,,,,,,,,,,,,,,,,,,,,,,,,,,,,,,,,,,,,
0,59aaf4b1321f870001d16f6c,testing,26.0,,,0.0,0.0,True,1081.0,kPOtOdOP,,,,,,,,,,,,,,,,,,,,,,,,,,,,,,,,,,,,,,,,,,,,,,,,,,,,,,,,,,,,,,,,,,,,,,,,,,,,,,,,,,,,,,,,,,,,,,,,,,,,,,,,,,,,
0,59aaf4b1321f870001d16f6c,testing,27.0,,,0.0,0.0,True,1685.0,JdOAYZAUu,,,,,,,,,,,,,,,,,,,,,,,,,,,,,,,,,,,,,,,,,,,,,,,,,,,,,,,,,,,,,,,,,,,,,,,,,,,,,,,,,,,,,,,,,,,,,,,,,,,,,,,,,,,,
0,59aaf4b1321f870001d16f6c,testing,28.0,,,0.0,0.0,True,755.0,CtmbYcM,,,,,,,,,,,,,,,,,,,,,,,,,,,,,,,,,,,,,,,,,,,,,,,,,,,,,,,,,,,,,,,,,,,,,,,,,,,,,,,,,,,,,,,,,,,,,,,,,,,,,,,,,,,,
0,59aaf4b1321f870001d16f6c,testing,29.0,,,0.0,0.0,True,553.0,htmhCcDR,,,,,,,,,,,,,,,,,,,,,,,,,,,,,,,,,,,,,,,,,,,,,,,,,,,,,,,,,,,,,,,,,,,,,,,,,,,,,,,,,,,,,,,,,,,,,,,,,,,,,,,,,,,,
0,59aaf4b1321f870001d16f6c,testing,30.0,,,1.0,0.0,False,390.0,LAclAOtM,,,,,,,,,,,,,,,,,,,,,,,,,,,,,,,,,,,,,,,,,,,,,,,,,,,,,,,,,,,,,,,,,,,,,,,,,,,,,,,,,,,,,,,,,,,,,,,,,,,,,,,,,,,,
0,59aaf4b1321f870001d16f6c,testing,31.0,,,0.0,0.0,True,452.0,tKDmhYDE,,,,,,,,,,,,,,,,,,,,,,,,,,,,,,,,,,,,,,,,,,,,,,,,,,,,,,,,,,,,,,,,,,,,,,,,,,,,,,,,,,,,,,,,,,,,,,,,,,,,,,,,,,,,
0,59aaf4b1321f870001d16f6c,testing,32.0,,,0.0,1.0,False,466.0,vYLUcrdY,,,,,,,,,,,,,,,,,,,,,,,,,,,,,,,,,,,,,,,,,,,,,,,,,,,,,,,,,,,,,,,,,,,,,,,,,,,,,,,,,,,,,,,,,,,,,,,,,,,,,,,,,,,,
0,59aaf4b1321f870001d16f6c,testing,33.0,,,1.0,0.0,False,231.0,htmhCJUNa,,,,,,,,,,,,,,,,,,,,,,,,,,,,,,,,,,,,,,,,,,,,,,,,,,,,,,,,,,,,,,,,,,,,,,,,,,,,,,,,,,,,,,,,,,,,,,,,,,,,,,,,,,,,
0,59aaf4b1321f870001d16f6c,testing,34.0,,,1.0,0.0,False,795.0,EYtYRcrdY,,,,,,,,,,,,,,,,,,,,,,,,,,,,,,,,,,,,,,,,,,,,,,,,,,,,,,,,,,,,,,,,,,,,,,,,,,,,,,,,,,,,,,,,,,,,,,,,,,,,,,,,,,,,
0,59aaf4b1321f870001d16f6c,testing,35.0,,,1.0,1.0,True,2190.0,JdOAYYcM,,,,,,,,,,,,,,,,,,,,,,,,,,,,,,,,,,,,,,,,,,,,,,,,,,,,,,,,,,,,,,,,,,,,,,,,,,,,,,,,,,,,,,,,,,,,,,,,,,,,,,,,,,,,
0,59aaf4b1321f870001d16f6c,testing,36.0,,,0.0,1.0,False,711.0,EYtYROdOP,,,,,,,,,,,,,,,,,,,,,,,,,,,,,,,,,,,,,,,,,,,,,,,,,,,,,,,,,,,,,,,,,,,,,,,,,,,,,,,,,,,,,,,,,,,,,,,,,,,,,,,,,,,,
0,59aaf4b1321f870001d16f6c,testing,37.0,,,1.0,0.0,False,720.0,ZcGdNOtM,,,,,,,,,,,,,,,,,,,,,,,,,,,,,,,,,,,,,,,,,,,,,,,,,,,,,,,,,,,,,,,,,,,,,,,,,,,,,,,,,,,,,,,,,,,,,,,,,,,,,,,,,,,,
0,59aaf4b1321f870001d16f6c,testing,38.0,,,1.0,0.0,False,1079.0,kPOtcrdY,,,,,,,,,,,,,,,,,,,,,,,,,,,,,,,,,,,,,,,,,,,,,,,,,,,,,,,,,,,,,,,,,,,,,,,,,,,,,,,,,,,,,,,,,,,,,,,,,,,,,,,,,,,,
0,59aaf4b1321f870001d16f6c,testing,39.0,,,1.0,1.0,True,689.0,MkmEdQGb,,,,,,,,,,,,,,,,,,,,,,,,,,,,,,,,,,,,,,,,,,,,,,,,,,,,,,,,,,,,,,,,,,,,,,,,,,,,,,,,,,,,,,,,,,,,,,,,,,,,,,,,,,,,
0,59aaf4b1321f870001d16f6c,testing,40.0,,,1.0,0.0,False,1042.0,MhKdkJdr,,,,,,,,,,,,,,,,,,,,,,,,,,,,,,,,,,,,,,,,,,,,,,,,,,,,,,,,,,,,,,,,,,,,,,,,,,,,,,,,,,,,,,,,,,,,,,,,,,,,,,,,,,,,
0,5c5e04ca6539fe00016e1afa,BLP,,,,,,,,,25,Donna,Uni,italiano,inglese,n/a,n/a,no,0.0,18.0,,,0.0,5.0,,,20.0,17.0,,,20.0,0.0,,,20.0,0.0,,,5.0,0.0,,,10.0,0.0,,,10.0,0.0,,,10.0,0.0,,,10.0,0.0,,,10.0,0.0,,,6.0,3.0,,,6.0,4.0,,,6.0,4.0,,,true,true,,,6.0,2.0,,,6.0,0.0,,,6.0,2.0,,,6.0,1.0,,,6.0,0.0,,,29.51,18.16,0.0,0.0,54.50000000000001,0.0,0.0,0.0,54.480000000000004,29.51,0.0,0.0,54.480000000000004,6.8100000000000005,0.0,0.0,192.97000000000003,54.480000000000004,0.0,0.0
0,5c5e04ca6539fe00016e1afa,familiarity,1.0,KlkD,DBlh,1.0,0.0,False,1881.0,,,,,,,,,,,,,,,,,,,,,,,,,,,,,,,,,,,,,,,,,,,,,,,,,,,,,,,,,,,,,,,,,,,,,,,,,,,,,,,,,,,,,,,,,,,,,,,,,,,,,,,,,,,,,
0,5c5e04ca6539fe00016e1afa,familiarity,2.0,aYQm,Ckbd,1.0,0.0,False,1100.0,,,,,,,,,,,,,,,,,,,,,,,,,,,,,,,,,,,,,,,,,,,,,,,,,,,,,,,,,,,,,,,,,,,,,,,,,,,,,,,,,,,,,,,,,,,,,,,,,,,,,,,,,,,,,
0,5c5e04ca6539fe00016e1afa,familiarity,3.0,cMRl,YTOM,0.0,1.0,False,1007.0,,,,,,,,,,,,,,,,,,,,,,,,,,,,,,,,,,,,,,,,,,,,,,,,,,,,,,,,,,,,,,,,,,,,,,,,,,,,,,,,,,,,,,,,,,,,,,,,,,,,,,,,,,,,,
0,5c5e04ca6539fe00016e1afa,familiarity,4.0,dGLAl,tcYbd,1.0,1.0,True,1031.0,,,,,,,,,,,,,,,,,,,,,,,,,,,,,,,,,,,,,,,,,,,,,,,,,,,,,,,,,,,,,,,,,,,,,,,,,,,,,,,,,,,,,,,,,,,,,,,,,,,,,,,,,,,,,
0,5c5e04ca6539fe00016e1afa,familiarity,5.0,Yaum,aUZA,0.0,0.0,True,854.0,,,,,,,,,,,,,,,,,,,,,,,,,,,,,,,,,,,,,,,,,,,,,,,,,,,,,,,,,,,,,,,,,,,,,,,,,,,,,,,,,,,,,,,,,,,,,,,,,,,,,,,,,,,,,
0,5c5e04ca6539fe00016e1afa,familiarity,6.0,hmKPM,Amacl,1.0,0.0,False,1134.0,,,,,,,,,,,,,,,,,,,,,,,,,,,,,,,,,,,,,,,,,,,,,,,,,,,,,,,,,,,,,,,,,,,,,,,,,,,,,,,,,,,,,,,,,,,,,,,,,,,,,,,,,,,,,
0,5c5e04ca6539fe00016e1afa,familiarity,7.0,kRCkO,CDEmY,0.0,1.0,False,121.0,,,,,,,,,,,,,,,,,,,,,,,,,,,,,,,,,,,,,,,,,,,,,,,,,,,,,,,,,,,,,,,,,,,,,,,,,,,,,,,,,,,,,,,,,,,,,,,,,,,,,,,,,,,,,
0,5c5e04ca6539fe00016e1afa,familiarity,8.0,rkYL,bdtK,1.0,1.0,True,1077.0,,,,,,,,,,,,,,,,,,,,,,,,,,,,,,,,,,,,,,,,,,,,,,,,,,,,,,,,,,,,,,,,,,,,,,,,,,,,,,,,,,,,,,,,,,,,,,,,,,,,,,,,,,,,,
0,5c5e04ca6539fe00016e1afa,familiarity,9.0,AMkC,JAaG,1.0,0.0,False,941.0,,,,,,,,,,,,,,,,,,,,,,,,,,,,,,,,,,,,,,,,,,,,,,,,,,,,,,,,,,,,,,,,,,,,,,,,,,,,,,,,,,,,,,,,,,,,,,,,,,,,,,,,,,,,,
0,5c5e04ca6539fe00016e1afa,familiarity,10.0,rULv,kCRm,1.0,1.0,True,790.0,,,,,,,,,,,,,,,,,,,,,,,,,,,,,,,,,,,,,,,,,,,,,,,,,,,,,,,,,,,,,,,,,,,,,,,,,,,,,,,,,,,,,,,,,,,,,,,,,,,,,,,,,,,,,
0,5c5e04ca6539fe00016e1afa,familiarity,11.0,bmbN,bvkr,1.0,0.0,False,849.0,,,,,,,,,,,,,,,,,,,,,,,,,,,,,,,,,,,,,,,,,,,,,,,,,,,,,,,,,,,,,,,,,,,,,,,,,,,,,,,,,,,,,,,,,,,,,,,,,,,,,,,,,,,,,
0,5c5e04ca6539fe00016e1afa,familiarity,12.0,TDKh,lkAk,1.0,1.0,True,828.0,,,,,,,,,,,,,,,,,,,,,,,,,,,,,,,,,,,,,,,,,,,,,,,,,,,,,,,,,,,,,,,,,,,,,,,,,,,,,,,,,,,,,,,,,,,,,,,,,,,,,,,,,,,,,
0,5c5e04ca6539fe00016e1afa,familiarity,13.0,rvOvU,uQkrd,1.0,1.0,True,1045.0,,,,,,,,,,,,,,,,,,,,,,,,,,,,,,,,,,,,,,,,,,,,,,,,,,,,,,,,,,,,,,,,,,,,,,,,,,,,,,,,,,,,,,,,,,,,,,,,,,,,,,,,,,,,,
0,5c5e04ca6539fe00016e1afa,familiarity,14.0,rbYbu,JmvmO,0.0,1.0,False,926.0,,,,,,,,,,,,,,,,,,,,,,,,,,,,,,,,,,,,,,,,,,,,,,,,,,,,,,,,,,,,,,,,,,,,,,,,,,,,,,,,,,,,,,,,,,,,,,,,,,,,,,,,,,,,,
0,5c5e04ca6539fe00016e1afa,familiarity,15.0,hlbtb,JAdLm,0.0,1.0,False,969.0,,,,,,,,,,,,,,,,,,,,,,,,,,,,,,,,,,,,,,,,,,,,,,,,,,,,,,,,,,,,,,,,,,,,,,,,,,,,,,,,,,,,,,,,,,,,,,,,,,,,,,,,,,,,,
0,5c5e04ca6539fe00016e1afa,familiarity,16.0,kPM,kKE,0.0,0.0,True,1096.0,,,,,,,,,,,,,,,,,,,,,,,,,,,,,,,,,,,,,,,,,,,,,,,,,,,,,,,,,,,,,,,,,,,,,,,,,,,,,,,,,,,,,,,,,,,,,,,,,,,,,,,,,,,,,
0,5c5e04ca6539fe00016e1afa,familiarity,17.0,OcYM,DOAK,1.0,1.0,True,838.0,,,,,,,,,,,,,,,,,,,,,,,,,,,,,,,,,,,,,,,,,,,,,,,,,,,,,,,,,,,,,,,,,,,,,,,,,,,,,,,,,,,,,,,,,,,,,,,,,,,,,,,,,,,,,
0,5c5e04ca6539fe00016e1afa,familiarity,18.0,rdLJa,Udumd,0.0,0.0,True,845.0,,,,,,,,,,,,,,,,,,,,,,,,,,,,,,,,,,,,,,,,,,,,,,,,,,,,,,,,,,,,,,,,,,,,,,,,,,,,,,,,,,,,,,,,,,,,,,,,,,,,,,,,,,,,,
0,5c5e04ca6539fe00016e1afa,familiarity,19.0,kZUb,OCmk,1.0,0.0,False,946.0,,,,,,,,,,,,,,,,,,,,,,,,,,,,,,,,,,,,,,,,,,,,,,,,,,,,,,,,,,,,,,,,,,,,,,,,,,,,,,,,,,,,,,,,,,,,,,,,,,,,,,,,,,,,,
0,5c5e04ca6539fe00016e1afa,familiarity,20.0,RCdc,vYLU,1.0,0.0,False,910.0,,,,,,,,,,,,,,,,,,,,,,,,,,,,,,,,,,,,,,,,,,,,,,,,,,,,,,,,,,,,,,,,,,,,,,,,,,,,,,,,,,,,,,,,,,,,,,,,,,,,,,,,,,,,,
0,5c5e04ca6539fe00016e1afa,familiarity,21.0,MTdY,UrOQ,1.0,0.0,False,838.0,,,,,,,,,,,,,,,,,,,,,,,,,,,,,,,,,,,,,,,,,,,,,,,,,,,,,,,,,,,,,,,,,,,,,,,,,,,,,,,,,,,,,,,,,,,,,,,,,,,,,,,,,,,,,
0,5c5e04ca6539fe00016e1afa,familiarity,22.0,kKEdM,damYb,0.0,0.0,True,820.0,,,,,,,,,,,,,,,,,,,,,,,,,,,,,,,,,,,,,,,,,,,,,,,,,,,,,,,,,,,,,,,,,,,,,,,,,,,,,,,,,,,,,,,,,,,,,,,,,,,,,,,,,,,,,
0,5c5e04ca6539fe00016e1afa,familiarity,23.0,TAm,rba,0.0,1.0,False,891.0,,,,,,,,,,,,,,,,,,,,,,,,,,,,,,,,,,,,,,,,,,,,,,,,,,,,,,,,,,,,,,,,,,,,,,,,,,,,,,,,,,,,,,,,,,,,,,,,,,,,,,,,,,,,,
0,5c5e04ca6539fe00016e1afa,familiarity,24.0,RhPm,UJmr,1.0,1.0,True,832.0,,,,,,,,,,,,,,,,,,,,,,,,,,,,,,,,,,,,,,,,,,,,,,,,,,,,,,,,,,,,,,,,,,,,,,,,,,,,,,,,,,,,,,,,,,,,,,,,,,,,,,,,,,,,,
0,5c5e04ca6539fe00016e1afa,familiarity,25.0,lCbcm,thbOM,1.0,0.0,False,688.0,,,,,,,,,,,,,,,,,,,,,,,,,,,,,,,,,,,,,,,,,,,,,,,,,,,,,,,,,,,,,,,,,,,,,,,,,,,,,,,,,,,,,,,,,,,,,,,,,,,,,,,,,,,,,
0,5c5e04ca6539fe00016e1afa,familiarity,26.0,GUa,dRA,1.0,1.0,True,739.0,,,,,,,,,,,,,,,,,,,,,,,,,,,,,,,,,,,,,,,,,,,,,,,,,,,,,,,,,,,,,,,,,,,,,,,,,,,,,,,,,,,,,,,,,,,,,,,,,,,,,,,,,,,,,
0,5c5e04ca6539fe00016e1afa,familiarity,27.0,kbmZO,dMYBP,0.0,0.0,True,645.0,,,,,,,,,,,,,,,,,,,,,,,,,,,,,,,,,,,,,,,,,,,,,,,,,,,,,,,,,,,,,,,,,,,,,,,,,,,,,,,,,,,,,,,,,,,,,,,,,,,,,,,,,,,,,
0,5c5e04ca6539fe00016e1afa,familiarity,28.0,rNlZ,dEPD,1.0,0.0,False,516.0,,,,,,,,,,,,,,,,,,,,,,,,,,,,,,,,,,,,,,,,,,,,,,,,,,,,,,,,,,,,,,,,,,,,,,,,,,,,,,,,,,,,,,,,,,,,,,,,,,,,,,,,,,,,,
0,5c5e04ca6539fe00016e1afa,familiarity,29.0,JZOAk,ObOQl,1.0,1.0,True,446.0,,,,,,,,,,,,,,,,,,,,,,,,,,,,,,,,,,,,,,,,,,,,,,,,,,,,,,,,,,,,,,,,,,,,,,,,,,,,,,,,,,,,,,,,,,,,,,,,,,,,,,,,,,,,,
0,5c5e04ca6539fe00016e1afa,familiarity,30.0,AOUl,dKRD,1.0,0.0,False,493.0,,,,,,,,,,,,,,,,,,,,,,,,,,,,,,,,,,,,,,,,,,,,,,,,,,,,,,,,,,,,,,,,,,,,,,,,,,,,,,,,,,,,,,,,,,,,,,,,,,,,,,,,,,,,,
0,5c5e04ca6539fe00016e1afa,testing,1.0,,,0.0,1.0,False,3474.0,TDKhTAm,,,,,,,,,,,,,,,,,,,,,,,,,,,,,,,,,,,,,,,,,,,,,,,,,,,,,,,,,,,,,,,,,,,,,,,,,,,,,,,,,,,,,,,,,,,,,,,,,,,,,,,,,,,,
0,5c5e04ca6539fe00016e1afa,testing,2.0,,,1.0,0.0,False,523.0,rdLJaKlkD,,,,,,,,,,,,,,,,,,,,,,,,,,,,,,,,,,,,,,,,,,,,,,,,,,,,,,,,,,,,,,,,,,,,,,,,,,,,,,,,,,,,,,,,,,,,,,,,,,,,,,,,,,,,
0,5c5e04ca6539fe00016e1afa,testing,3.0,,,0.0,1.0,False,669.0,bmbNGUa,,,,,,,,,,,,,,,,,,,,,,,,,,,,,,,,,,,,,,,,,,,,,,,,,,,,,,,,,,,,,,,,,,,,,,,,,,,,,,,,,,,,,,,,,,,,,,,,,,,,,,,,,,,,
0,5c5e04ca6539fe00016e1afa,testing,4.0,,,0.0,0.0,True,502.0,dGLAlYaum,,,,,,,,,,,,,,,,,,,,,,,,,,,,,,,,,,,,,,,,,,,,,,,,,,,,,,,,,,,,,,,,,,,,,,,,,,,,,,,,,,,,,,,,,,,,,,,,,,,,,,,,,,,,
0,5c5e04ca6539fe00016e1afa,testing,5.0,,,0.0,1.0,False,790.0,kRCkOcMRl,,,,,,,,,,,,,,,,,,,,,,,,,,,,,,,,,,,,,,,,,,,,,,,,,,,,,,,,,,,,,,,,,,,,,,,,,,,,,,,,,,,,,,,,,,,,,,,,,,,,,,,,,,,,
0,5c5e04ca6539fe00016e1afa,testing,6.0,,,0.0,1.0,False,527.0,RhPmKlkD,,,,,,,,,,,,,,,,,,,,,,,,,,,,,,,,,,,,,,,,,,,,,,,,,,,,,,,,,,,,,,,,,,,,,,,,,,,,,,,,,,,,,,,,,,,,,,,,,,,,,,,,,,,,
0,5c5e04ca6539fe00016e1afa,testing,7.0,,,1.0,1.0,True,660.0,JZOAkcMRl,,,,,,,,,,,,,,,,,,,,,,,,,,,,,,,,,,,,,,,,,,,,,,,,,,,,,,,,,,,,,,,,,,,,,,,,,,,,,,,,,,,,,,,,,,,,,,,,,,,,,,,,,,,,
0,5c5e04ca6539fe00016e1afa,testing,8.0,,,1.0,0.0,False,624.0,aYQmkPM,,,,,,,,,,,,,,,,,,,,,,,,,,,,,,,,,,,,,,,,,,,,,,,,,,,,,,,,,,,,,,,,,,,,,,,,,,,,,,,,,,,,,,,,,,,,,,,,,,,,,,,,,,,,
0,5c5e04ca6539fe00016e1afa,testing,9.0,,,0.0,0.0,True,631.0,rkYLAOUl,,,,,,,,,,,,,,,,,,,,,,,,,,,,,,,,,,,,,,,,,,,,,,,,,,,,,,,,,,,,,,,,,,,,,,,,,,,,,,,,,,,,,,,,,,,,,,,,,,,,,,,,,,,,
0,5c5e04ca6539fe00016e1afa,testing,10.0,,,1.0,1.0,True,529.0,kZUbTAm,,,,,,,,,,,,,,,,,,,,,,,,,,,,,,,,,,,,,,,,,,,,,,,,,,,,,,,,,,,,,,,,,,,,,,,,,,,,,,,,,,,,,,,,,,,,,,,,,,,,,,,,,,,,
0,5c5e04ca6539fe00016e1afa,testing,11.0,,,1.0,1.0,True,669.0,dGLAlRCdc,,,,,,,,,,,,,,,,,,,,,,,,,,,,,,,,,,,,,,,,,,,,,,,,,,,,,,,,,,,,,,,,,,,,,,,,,,,,,,,,,,,,,,,,,,,,,,,,,,,,,,,,,,,,
0,5c5e04ca6539fe00016e1afa,testing,12.0,,,1.0,1.0,True,581.0,OcYMYaum,,,,,,,,,,,,,,,,,,,,,,,,,,,,,,,,,,,,,,,,,,,,,,,,,,,,,,,,,,,,,,,,,,,,,,,,,,,,,,,,,,,,,,,,,,,,,,,,,,,,,,,,,,,,
0,5c5e04ca6539fe00016e1afa,testing,13.0,,,1.0,0.0,False,560.0,rvOvURCdc,,,,,,,,,,,,,,,,,,,,,,,,,,,,,,,,,,,,,,,,,,,,,,,,,,,,,,,,,,,,,,,,,,,,,,,,,,,,,,,,,,,,,,,,,,,,,,,,,,,,,,,,,,,,
0,5c5e04ca6539fe00016e1afa,testing,14.0,,,1.0,0.0,False,546.0,TDKhrNlZ,,,,,,,,,,,,,,,,,,,,,,,,,,,,,,,,,,,,,,,,,,,,,,,,,,,,,,,,,,,,,,,,,,,,,,,,,,,,,,,,,,,,,,,,,,,,,,,,,,,,,,,,,,,,
0,5c5e04ca6539fe00016e1afa,testing,15.0,,,1.0,1.0,True,541.0,kRCkOAOUl,,,,,,,,,,,,,,,,,,,,,,,,,,,,,,,,,,,,,,,,,,,,,,,,,,,,,,,,,,,,,,,,,,,,,,,,,,,,,,,,,,,,,,,,,,,,,,,,,,,,,,,,,,,,
0,5c5e04ca6539fe00016e1afa,testing,16.0,,,1.0,1.0,True,627.0,hlbtbrULv,,,,,,,,,,,,,,,,,,,,,,,,,,,,,,,,,,,,,,,,,,,,,,,,,,,,,,,,,,,,,,,,,,,,,,,,,,,,,,,,,,,,,,,,,,,,,,,,,,,,,,,,,,,,
0,5c5e04ca6539fe00016e1afa,testing,17.0,,,1.0,0.0,False,814.0,rbYbukPM,,,,,,,,,,,,,,,,,,,,,,,,,,,,,,,,,,,,,,,,,,,,,,,,,,,,,,,,,,,,,,,,,,,,,,,,,,,,,,,,,,,,,,,,,,,,,,,,,,,,,,,,,,,,
0,5c5e04ca6539fe00016e1afa,testing,18.0,,,1.0,1.0,True,794.0,hmKPMrULv,,,,,,,,,,,,,,,,,,,,,,,,,,,,,,,,,,,,,,,,,,,,,,,,,,,,,,,,,,,,,,,,,,,,,,,,,,,,,,,,,,,,,,,,,,,,,,,,,,,,,,,,,,,,
0,5c5e04ca6539fe00016e1afa,testing,19.0,,,0.0,1.0,False,596.0,lCbcmcMRl,,,,,,,,,,,,,,,,,,,,,,,,,,,,,,,,,,,,,,,,,,,,,,,,,,,,,,,,,,,,,,,,,,,,,,,,,,,,,,,,,,,,,,,,,,,,,,,,,,,,,,,,,,,,
0,5c5e04ca6539fe00016e1afa,testing,20.0,,,0.0,0.0,True,733.0,rvOvUYaum,,,,,,,,,,,,,,,,,,,,,,,,,,,,,,,,,,,,,,,,,,,,,,,,,,,,,,,,,,,,,,,,,,,,,,,,,,,,,,,,,,,,,,,,,,,,,,,,,,,,,,,,,,,,
0,5c5e04ca6539fe00016e1afa,testing,21.0,,,0.0,0.0,True,722.0,aYQmrULv,,,,,,,,,,,,,,,,,,,,,,,,,,,,,,,,,,,,,,,,,,,,,,,,,,,,,,,,,,,,,,,,,,,,,,,,,,,,,,,,,,,,,,,,,,,,,,,,,,,,,,,,,,,,
0,5c5e04ca6539fe00016e1afa,testing,22.0,,,0.0,0.0,True,694.0,kbmZOrNlZ,,,,,,,,,,,,,,,,,,,,,,,,,,,,,,,,,,,,,,,,,,,,,,,,,,,,,,,,,,,,,,,,,,,,,,,,,,,,,,,,,,,,,,,,,,,,,,,,,,,,,,,,,,,,
0,5c5e04ca6539fe00016e1afa,testing,23.0,,,0.0,1.0,False,864.0,rdLJaGUa,,,,,,,,,,,,,,,,,,,,,,,,,,,,,,,,,,,,,,,,,,,,,,,,,,,,,,,,,,,,,,,,,,,,,,,,,,,,,,,,,,,,,,,,,,,,,,,,,,,,,,,,,,,,
0,5c5e04ca6539fe00016e1afa,testing,24.0,,,1.0,1.0,True,749.0,kbmZOTAm,,,,,,,,,,,,,,,,,,,,,,,,,,,,,,,,,,,,,,,,,,,,,,,,,,,,,,,,,,,,,,,,,,,,,,,,,,,,,,,,,,,,,,,,,,,,,,,,,,,,,,,,,,,,
0,5c5e04ca6539fe00016e1afa,testing,25.0,,,0.0,0.0,True,504.0,hlbtbkPM,,,,,,,,,,,,,,,,,,,,,,,,,,,,,,,,,,,,,,,,,,,,,,,,,,,,,,,,,,,,,,,,,,,,,,,,,,,,,,,,,,,,,,,,,,,,,,,,,,,,,,,,,,,,
0,5c5e04ca6539fe00016e1afa,testing,26.0,,,1.0,0.0,False,716.0,rkYLcMRl,,,,,,,,,,,,,,,,,,,,,,,,,,,,,,,,,,,,,,,,,,,,,,,,,,,,,,,,,,,,,,,,,,,,,,,,,,,,,,,,,,,,,,,,,,,,,,,,,,,,,,,,,,,,
0,5c5e04ca6539fe00016e1afa,testing,27.0,,,0.0,1.0,False,393.0,kKEdMRCdc,,,,,,,,,,,,,,,,,,,,,,,,,,,,,,,,,,,,,,,,,,,,,,,,,,,,,,,,,,,,,,,,,,,,,,,,,,,,,,,,,,,,,,,,,,,,,,,,,,,,,,,,,,,,
0,5c5e04ca6539fe00016e1afa,testing,28.0,,,0.0,1.0,False,548.0,MTdYTAm,,,,,,,,,,,,,,,,,,,,,,,,,,,,,,,,,,,,,,,,,,,,,,,,,,,,,,,,,,,,,,,,,,,,,,,,,,,,,,,,,,,,,,,,,,,,,,,,,,,,,,,,,,,,
0,5c5e04ca6539fe00016e1afa,testing,29.0,,,0.0,1.0,False,564.0,kZUbrNlZ,,,,,,,,,,,,,,,,,,,,,,,,,,,,,,,,,,,,,,,,,,,,,,,,,,,,,,,,,,,,,,,,,,,,,,,,,,,,,,,,,,,,,,,,,,,,,,,,,,,,,,,,,,,,
0,5c5e04ca6539fe00016e1afa,testing,30.0,,,1.0,0.0,False,631.0,RhPmGUa,,,,,,,,,,,,,,,,,,,,,,,,,,,,,,,,,,,,,,,,,,,,,,,,,,,,,,,,,,,,,,,,,,,,,,,,,,,,,,,,,,,,,,,,,,,,,,,,,,,,,,,,,,,,
0,5c5e04ca6539fe00016e1afa,testing,31.0,,,0.0,1.0,False,400.0,rbYburULv,,,,,,,,,,,,,,,,,,,,,,,,,,,,,,,,,,,,,,,,,,,,,,,,,,,,,,,,,,,,,,,,,,,,,,,,,,,,,,,,,,,,,,,,,,,,,,,,,,,,,,,,,,,,
0,5c5e04ca6539fe00016e1afa,testing,32.0,,,0.0,1.0,False,571.0,OcYMRCdc,,,,,,,,,,,,,,,,,,,,,,,,,,,,,,,,,,,,,,,,,,,,,,,,,,,,,,,,,,,,,,,,,,,,,,,,,,,,,,,,,,,,,,,,,,,,,,,,,,,,,,,,,,,,
0,5c5e04ca6539fe00016e1afa,testing,33.0,,,0.0,0.0,True,659.0,hmKPMkPM,,,,,,,,,,,,,,,,,,,,,,,,,,,,,,,,,,,,,,,,,,,,,,,,,,,,,,,,,,,,,,,,,,,,,,,,,,,,,,,,,,,,,,,,,,,,,,,,,,,,,,,,,,,,
0,5c5e04ca6539fe00016e1afa,testing,34.0,,,0.0,0.0,True,640.0,AMkCKlkD,,,,,,,,,,,,,,,,,,,,,,,,,,,,,,,,,,,,,,,,,,,,,,,,,,,,,,,,,,,,,,,,,,,,,,,,,,,,,,,,,,,,,,,,,,,,,,,,,,,,,,,,,,,,
0,5c5e04ca6539fe00016e1afa,testing,35.0,,,1.0,1.0,True,660.0,lCbcmAOUl,,,,,,,,,,,,,,,,,,,,,,,,,,,,,,,,,,,,,,,,,,,,,,,,,,,,,,,,,,,,,,,,,,,,,,,,,,,,,,,,,,,,,,,,,,,,,,,,,,,,,,,,,,,,
0,5c5e04ca6539fe00016e1afa,testing,36.0,,,1.0,0.0,False,621.0,AMkCGUa,,,,,,,,,,,,,,,,,,,,,,,,,,,,,,,,,,,,,,,,,,,,,,,,,,,,,,,,,,,,,,,,,,,,,,,,,,,,,,,,,,,,,,,,,,,,,,,,,,,,,,,,,,,,
0,5c5e04ca6539fe00016e1afa,testing,37.0,,,1.0,0.0,False,539.0,bmbNKlkD,,,,,,,,,,,,,,,,,,,,,,,,,,,,,,,,,,,,,,,,,,,,,,,,,,,,,,,,,,,,,,,,,,,,,,,,,,,,,,,,,,,,,,,,,,,,,,,,,,,,,,,,,,,,
0,5c5e04ca6539fe00016e1afa,testing,38.0,,,1.0,0.0,False,439.0,kKEdMYaum,,,,,,,,,,,,,,,,,,,,,,,,,,,,,,,,,,,,,,,,,,,,,,,,,,,,,,,,,,,,,,,,,,,,,,,,,,,,,,,,,,,,,,,,,,,,,,,,,,,,,,,,,,,,
0,5c5e04ca6539fe00016e1afa,testing,39.0,,,1.0,1.0,True,373.0,MTdYrNlZ,,,,,,,,,,,,,,,,,,,,,,,,,,,,,,,,,,,,,,,,,,,,,,,,,,,,,,,,,,,,,,,,,,,,,,,,,,,,,,,,,,,,,,,,,,,,,,,,,,,,,,,,,,,,
0,5c5e04ca6539fe00016e1afa,testing,40.0,,,0.0,0.0,True,426.0,JZOAkAOUl,,,,,,,,,,,,,,,,,,,,,,,,,,,,,,,,,,,,,,,,,,,,,,,,,,,,,,,,,,,,,,,,,,,,,,,,,,,,,,,,,,,,,,,,,,,,,,,,,,,,,,,,,,,,
0,5caca6b4a9acb200011a6547,BLP,,,,,,,,,23,Donna,Uni,Italiano,Inglese,n/a,n/a,no,0.0,16.0,,,0.0,0.0,,,20.0,8.0,,,20.0,0.0,,,20.0,0.0,,,20.0,0.0,,,10.0,0.0,,,10.0,0.0,,,9.0,1.0,,,10.0,0.0,,,10.0,0.0,,,6.0,3.0,,,6.0,3.0,,,6.0,4.0,,,true,true,,,6.0,4.0,,,6.0,2.0,,,6.0,0.0,,,6.0,4.0,,,6.0,2.0,,,36.32,10.896,0.0,0.0,53.410000000000004,1.09,0.0,0.0,54.480000000000004,31.78,0.0,0.0,54.480000000000004,18.16,0.0,0.0,198.69,61.926,0.0,0.0
0,5caca6b4a9acb200011a6547,familiarity,1.0,bNdmG,mBmlA,0.0,0.0,True,1663.0,,,,,,,,,,,,,,,,,,,,,,,,,,,,,,,,,,,,,,,,,,,,,,,,,,,,,,,,,,,,,,,,,,,,,,,,,,,,,,,,,,,,,,,,,,,,,,,,,,,,,,,,,,,,,
0,5caca6b4a9acb200011a6547,familiarity,2.0,YcdO,bdtK,0.0,1.0,False,1333.0,,,,,,,,,,,,,,,,,,,,,,,,,,,,,,,,,,,,,,,,,,,,,,,,,,,,,,,,,,,,,,,,,,,,,,,,,,,,,,,,,,,,,,,,,,,,,,,,,,,,,,,,,,,,,
0,5caca6b4a9acb200011a6547,familiarity,3.0,lbBDE,RlAKc,1.0,1.0,True,1153.0,,,,,,,,,,,,,,,,,,,,,,,,,,,,,,,,,,,,,,,,,,,,,,,,,,,,,,,,,,,,,,,,,,,,,,,,,,,,,,,,,,,,,,,,,,,,,,,,,,,,,,,,,,,,,
0,5caca6b4a9acb200011a6547,familiarity,4.0,aYQm,hbkd,0.0,0.0,True,1390.0,,,,,,,,,,,,,,,,,,,,,,,,,,,,,,,,,,,,,,,,,,,,,,,,,,,,,,,,,,,,,,,,,,,,,,,,,,,,,,,,,,,,,,,,,,,,,,,,,,,,,,,,,,,,,
0,5caca6b4a9acb200011a6547,familiarity,5.0,cAZu,kZUb,1.0,1.0,True,934.0,,,,,,,,,,,,,,,,,,,,,,,,,,,,,,,,,,,,,,,,,,,,,,,,,,,,,,,,,,,,,,,,,,,,,,,,,,,,,,,,,,,,,,,,,,,,,,,,,,,,,,,,,,,,,
0,5caca6b4a9acb200011a6547,familiarity,6.0,OmtlD,BMEMA,1.0,1.0,True,999.0,,,,,,,,,,,,,,,,,,,,,,,,,,,,,,,,,,,,,,,,,,,,,,,,,,,,,,,,,,,,,,,,,,,,,,,,,,,,,,,,,,,,,,,,,,,,,,,,,,,,,,,,,,,,,
0,5caca6b4a9acb200011a6547,familiarity,7.0,OkGY,KDPA,1.0,1.0,True,1259.0,,,,,,,,,,,,,,,,,,,,,,,,,,,,,,,,,,,,,,,,,,,,,,,,,,,,,,,,,,,,,,,,,,,,,,,,,,,,,,,,,,,,,,,,,,,,,,,,,,,,,,,,,,,,,
0,5caca6b4a9acb200011a6547,familiarity,8.0,hBK,cUN,1.0,0.0,False,1328.0,,,,,,,,,,,,,,,,,,,,,,,,,,,,,,,,,,,,,,,,,,,,,,,,,,,,,,,,,,,,,,,,,,,,,,,,,,,,,,,,,,,,,,,,,,,,,,,,,,,,,,,,,,,,,
0,5caca6b4a9acb200011a6547,familiarity,9.0,EYtYR,GNAca,1.0,1.0,True,1591.0,,,,,,,,,,,,,,,,,,,,,,,,,,,,,,,,,,,,,,,,,,,,,,,,,,,,,,,,,,,,,,,,,,,,,,,,,,,,,,,,,,,,,,,,,,,,,,,,,,,,,,,,,,,,,
0,5caca6b4a9acb200011a6547,familiarity,10.0,OYK,QGb,1.0,1.0,True,1326.0,,,,,,,,,,,,,,,,,,,,,,,,,,,,,,,,,,,,,,,,,,,,,,,,,,,,,,,,,,,,,,,,,,,,,,,,,,,,,,,,,,,,,,,,,,,,,,,,,,,,,,,,,,,,,
0,5caca6b4a9acb200011a6547,familiarity,11.0,NYZu,RKYk,1.0,1.0,True,1260.0,,,,,,,,,,,,,,,,,,,,,,,,,,,,,,,,,,,,,,,,,,,,,,,,,,,,,,,,,,,,,,,,,,,,,,,,,,,,,,,,,,,,,,,,,,,,,,,,,,,,,,,,,,,,,
0,5caca6b4a9acb200011a6547,familiarity,12.0,kam,dUr,0.0,1.0,False,1428.0,,,,,,,,,,,,,,,,,,,,,,,,,,,,,,,,,,,,,,,,,,,,,,,,,,,,,,,,,,,,,,,,,,,,,,,,,,,,,,,,,,,,,,,,,,,,,,,,,,,,,,,,,,,,,
0,5caca6b4a9acb200011a6547,familiarity,13.0,MKmY,OdOP,0.0,1.0,False,1216.0,,,,,,,,,,,,,,,,,,,,,,,,,,,,,,,,,,,,,,,,,,,,,,,,,,,,,,,,,,,,,,,,,,,,,,,,,,,,,,,,,,,,,,,,,,,,,,,,,,,,,,,,,,,,,
0,5caca6b4a9acb200011a6547,familiarity,14.0,lGc,KmE,0.0,0.0,True,900.0,,,,,,,,,,,,,,,,,,,,,,,,,,,,,,,,,,,,,,,,,,,,,,,,,,,,,,,,,,,,,,,,,,,,,,,,,,,,,,,,,,,,,,,,,,,,,,,,,,,,,,,,,,,,,
0,5caca6b4a9acb200011a6547,familiarity,15.0,UvOG,QvlZ,0.0,0.0,True,1257.0,,,,,,,,,,,,,,,,,,,,,,,,,,,,,,,,,,,,,,,,,,,,,,,,,,,,,,,,,,,,,,,,,,,,,,,,,,,,,,,,,,,,,,,,,,,,,,,,,,,,,,,,,,,,,
0,5caca6b4a9acb200011a6547,familiarity,16.0,kMbTR,lAOKM,0.0,1.0,False,1232.0,,,,,,,,,,,,,,,,,,,,,,,,,,,,,,,,,,,,,,,,,,,,,,,,,,,,,,,,,,,,,,,,,,,,,,,,,,,,,,,,,,,,,,,,,,,,,,,,,,,,,,,,,,,,,
0,5caca6b4a9acb200011a6547,familiarity,17.0,Qclad,hBmMC,1.0,1.0,True,1268.0,,,,,,,,,,,,,,,,,,,,,,,,,,,,,,,,,,,,,,,,,,,,,,,,,,,,,,,,,,,,,,,,,,,,,,,,,,,,,,,,,,,,,,,,,,,,,,,,,,,,,,,,,,,,,
0,5caca6b4a9acb200011a6547,familiarity,18.0,kmU,Jud,0.0,0.0,True,1017.0,,,,,,,,,,,,,,,,,,,,,,,,,,,,,,,,,,,,,,,,,,,,,,,,,,,,,,,,,,,,,,,,,,,,,,,,,,,,,,,,,,,,,,,,,,,,,,,,,,,,,,,,,,,,,
0,5caca6b4a9acb200011a6547,familiarity,19.0,PMYm,rkJu,1.0,1.0,True,1202.0,,,,,,,,,,,,,,,,,,,,,,,,,,,,,,,,,,,,,,,,,,,,,,,,,,,,,,,,,,,,,,,,,,,,,,,,,,,,,,,,,,,,,,,,,,,,,,,,,,,,,,,,,,,,,
0,5caca6b4a9acb200011a6547,familiarity,20.0,MhKd,Ddck,0.0,1.0,False,1654.0,,,,,,,,,,,,,,,,,,,,,,,,,,,,,,,,,,,,,,,,,,,,,,,,,,,,,,,,,,,,,,,,,,,,,,,,,,,,,,,,,,,,,,,,,,,,,,,,,,,,,,,,,,,,,
0,5caca6b4a9acb200011a6547,familiarity,21.0,Cchtd,dTmED,1.0,0.0,False,1262.0,,,,,,,,,,,,,,,,,,,,,,,,,,,,,,,,,,,,,,,,,,,,,,,,,,,,,,,,,,,,,,,,,,,,,,,,,,,,,,,,,,,,,,,,,,,,,,,,,,,,,,,,,,,,,
0,5caca6b4a9acb200011a6547,familiarity,22.0,lGZv,TklD,0.0,0.0,True,728.0,,,,,,,,,,,,,,,,,,,,,,,,,,,,,,,,,,,,,,,,,,,,,,,,,,,,,,,,,,,,,,,,,,,,,,,,,,,,,,,,,,,,,,,,,,,,,,,,,,,,,,,,,,,,,
0,5caca6b4a9acb200011a6547,familiarity,23.0,PcBT,Udbd,1.0,1.0,True,1044.0,,,,,,,,,,,,,,,,,,,,,,,,,,,,,,,,,,,,,,,,,,,,,,,,,,,,,,,,,,,,,,,,,,,,,,,,,,,,,,,,,,,,,,,,,,,,,,,,,,,,,,,,,,,,,
0,5caca6b4a9acb200011a6547,familiarity,24.0,AmQOY,tcYbd,1.0,1.0,True,1622.0,,,,,,,,,,,,,,,,,,,,,,,,,,,,,,,,,,,,,,,,,,,,,,,,,,,,,,,,,,,,,,,,,,,,,,,,,,,,,,,,,,,,,,,,,,,,,,,,,,,,,,,,,,,,,
0,5caca6b4a9acb200011a6547,familiarity,25.0,ZAUu,PdDT,1.0,0.0,False,1188.0,,,,,,,,,,,,,,,,,,,,,,,,,,,,,,,,,,,,,,,,,,,,,,,,,,,,,,,,,,,,,,,,,,,,,,,,,,,,,,,,,,,,,,,,,,,,,,,,,,,,,,,,,,,,,
0,5caca6b4a9acb200011a6547,familiarity,26.0,UrOQ,hChY,1.0,1.0,True,1163.0,,,,,,,,,,,,,,,,,,,,,,,,,,,,,,,,,,,,,,,,,,,,,,,,,,,,,,,,,,,,,,,,,,,,,,,,,,,,,,,,,,,,,,,,,,,,,,,,,,,,,,,,,,,,,
0,5caca6b4a9acb200011a6547,familiarity,27.0,ctkt,mcOJ,1.0,1.0,True,1608.0,,,,,,,,,,,,,,,,,,,,,,,,,,,,,,,,,,,,,,,,,,,,,,,,,,,,,,,,,,,,,,,,,,,,,,,,,,,,,,,,,,,,,,,,,,,,,,,,,,,,,,,,,,,,,
0,5caca6b4a9acb200011a6547,familiarity,28.0,TEBK,ldAa,1.0,1.0,True,1201.0,,,,,,,,,,,,,,,,,,,,,,,,,,,,,,,,,,,,,,,,,,,,,,,,,,,,,,,,,,,,,,,,,,,,,,,,,,,,,,,,,,,,,,,,,,,,,,,,,,,,,,,,,,,,,
0,5caca6b4a9acb200011a6547,familiarity,29.0,tmAK,bAdk,0.0,1.0,False,948.0,,,,,,,,,,,,,,,,,,,,,,,,,,,,,,,,,,,,,,,,,,,,,,,,,,,,,,,,,,,,,,,,,,,,,,,,,,,,,,,,,,,,,,,,,,,,,,,,,,,,,,,,,,,,,
0,5caca6b4a9acb200011a6547,familiarity,30.0,CmYA,CPMl,0.0,1.0,False,1882.0,,,,,,,,,,,,,,,,,,,,,,,,,,,,,,,,,,,,,,,,,,,,,,,,,,,,,,,,,,,,,,,,,,,,,,,,,,,,,,,,,,,,,,,,,,,,,,,,,,,,,,,,,,,,,
0,5caca6b4a9acb200011a6547,testing,1.0,,,1.0,1.0,True,1108.0,OmtlDNYZu,,,,,,,,,,,,,,,,,,,,,,,,,,,,,,,,,,,,,,,,,,,,,,,,,,,,,,,,,,,,,,,,,,,,,,,,,,,,,,,,,,,,,,,,,,,,,,,,,,,,,,,,,,,,
0,5caca6b4a9acb200011a6547,testing,2.0,,,0.0,1.0,False,1280.0,AmQOYkam,,,,,,,,,,,,,,,,,,,,,,,,,,,,,,,,,,,,,,,,,,,,,,,,,,,,,,,,,,,,,,,,,,,,,,,,,,,,,,,,,,,,,,,,,,,,,,,,,,,,,,,,,,,,
0,5caca6b4a9acb200011a6547,testing,3.0,,,1.0,0.0,False,666.0,cAZuPMYm,,,,,,,,,,,,,,,,,,,,,,,,,,,,,,,,,,,,,,,,,,,,,,,,,,,,,,,,,,,,,,,,,,,,,,,,,,,,,,,,,,,,,,,,,,,,,,,,,,,,,,,,,,,,
0,5caca6b4a9acb200011a6547,testing,4.0,,,1.0,1.0,True,1507.0,PcBTkam,,,,,,,,,,,,,,,,,,,,,,,,,,,,,,,,,,,,,,,,,,,,,,,,,,,,,,,,,,,,,,,,,,,,,,,,,,,,,,,,,,,,,,,,,,,,,,,,,,,,,,,,,,,,
0,5caca6b4a9acb200011a6547,testing,5.0,,,1.0,0.0,False,769.0,lGZvPMYm,,,,,,,,,,,,,,,,,,,,,,,,,,,,,,,,,,,,,,,,,,,,,,,,,,,,,,,,,,,,,,,,,,,,,,,,,,,,,,,,,,,,,,,,,,,,,,,,,,,,,,,,,,,,
0,5caca6b4a9acb200011a6547,testing,6.0,,,1.0,0.0,False,1086.0,QcladCmYA,,,,,,,,,,,,,,,,,,,,,,,,,,,,,,,,,,,,,,,,,,,,,,,,,,,,,,,,,,,,,,,,,,,,,,,,,,,,,,,,,,,,,,,,,,,,,,,,,,,,,,,,,,,,
0,5caca6b4a9acb200011a6547,testing,7.0,,,1.0,0.0,False,741.0,OkGYOYK,,,,,,,,,,,,,,,,,,,,,,,,,,,,,,,,,,,,,,,,,,,,,,,,,,,,,,,,,,,,,,,,,,,,,,,,,,,,,,,,,,,,,,,,,,,,,,,,,,,,,,,,,,,,
0,5caca6b4a9acb200011a6547,testing,8.0,,,1.0,1.0,True,943.0,kMbTRkam,,,,,,,,,,,,,,,,,,,,,,,,,,,,,,,,,,,,,,,,,,,,,,,,,,,,,,,,,,,,,,,,,,,,,,,,,,,,,,,,,,,,,,,,,,,,,,,,,,,,,,,,,,,,
0,5caca6b4a9acb200011a6547,testing,9.0,,,1.0,0.0,False,1311.0,YcdOOYK,,,,,,,,,,,,,,,,,,,,,,,,,,,,,,,,,,,,,,,,,,,,,,,,,,,,,,,,,,,,,,,,,,,,,,,,,,,,,,,,,,,,,,,,,,,,,,,,,,,,,,,,,,,,
0,5caca6b4a9acb200011a6547,testing,10.0,,,0.0,1.0,False,857.0,kMbTRhBK,,,,,,,,,,,,,,,,,,,,,,,,,,,,,,,,,,,,,,,,,,,,,,,,,,,,,,,,,,,,,,,,,,,,,,,,,,,,,,,,,,,,,,,,,,,,,,,,,,,,,,,,,,,,
0,5caca6b4a9acb200011a6547,testing,11.0,,,0.0,1.0,False,1366.0,bNdmGZAUu,,,,,,,,,,,,,,,,,,,,,,,,,,,,,,,,,,,,,,,,,,,,,,,,,,,,,,,,,,,,,,,,,,,,,,,,,,,,,,,,,,,,,,,,,,,,,,,,,,,,,,,,,,,,
0,5caca6b4a9acb200011a6547,testing,12.0,,,1.0,0.0,False,1472.0,AmQOYhBK,,,,,,,,,,,,,,,,,,,,,,,,,,,,,,,,,,,,,,,,,,,,,,,,,,,,,,,,,,,,,,,,,,,,,,,,,,,,,,,,,,,,,,,,,,,,,,,,,,,,,,,,,,,,
0,5caca6b4a9acb200011a6547,testing,13.0,,,1.0,0.0,False,1112.0,CchtdkmU,,,,,,,,,,,,,,,,,,,,,,,,,,,,,,,,,,,,,,,,,,,,,,,,,,,,,,,,,,,,,,,,,,,,,,,,,,,,,,,,,,,,,,,,,,,,,,,,,,,,,,,,,,,,
0,5caca6b4a9acb200011a6547,testing,14.0,,,1.0,0.0,False,880.0,bNdmGCmYA,,,,,,,,,,,,,,,,,,,,,,,,,,,,,,,,,,,,,,,,,,,,,,,,,,,,,,,,,,,,,,,,,,,,,,,,,,,,,,,,,,,,,,,,,,,,,,,,,,,,,,,,,,,,
0,5caca6b4a9acb200011a6547,testing,15.0,,,0.0,0.0,True,760.0,aYQmkam,,,,,,,,,,,,,,,,,,,,,,,,,,,,,,,,,,,,,,,,,,,,,,,,,,,,,,,,,,,,,,,,,,,,,,,,,,,,,,,,,,,,,,,,,,,,,,,,,,,,,,,,,,,,
0,5caca6b4a9acb200011a6547,testing,16.0,,,0.0,1.0,False,771.0,lGZvNYZu,,,,,,,,,,,,,,,,,,,,,,,,,,,,,,,,,,,,,,,,,,,,,,,,,,,,,,,,,,,,,,,,,,,,,,,,,,,,,,,,,,,,,,,,,,,,,,,,,,,,,,,,,,,,
0,5caca6b4a9acb200011a6547,testing,17.0,,,1.0,1.0,True,1031.0,UrOQMKmY,,,,,,,,,,,,,,,,,,,,,,,,,,,,,,,,,,,,,,,,,,,,,,,,,,,,,,,,,,,,,,,,,,,,,,,,,,,,,,,,,,,,,,,,,,,,,,,,,,,,,,,,,,,,
0,5caca6b4a9acb200011a6547,testing,18.0,,,1.0,1.0,True,1036.0,TEBKNYZu,,,,,,,,,,,,,,,,,,,,,,,,,,,,,,,,,,,,,,,,,,,,,,,,,,,,,,,,,,,,,,,,,,,,,,,,,,,,,,,,,,,,,,,,,,,,,,,,,,,,,,,,,,,,
0,5caca6b4a9acb200011a6547,testing,19.0,,,0.0,0.0,True,947.0,MhKdCmYA,,,,,,,,,,,,,,,,,,,,,,,,,,,,,,,,,,,,,,,,,,,,,,,,,,,,,,,,,,,,,,,,,,,,,,,,,,,,,,,,,,,,,,,,,,,,,,,,,,,,,,,,,,,,
0,5caca6b4a9acb200011a6547,testing,20.0,,,0.0,0.0,True,734.0,cAZuNYZu,,,,,,,,,,,,,,,,,,,,,,,,,,,,,,,,,,,,,,,,,,,,,,,,,,,,,,,,,,,,,,,,,,,,,,,,,,,,,,,,,,,,,,,,,,,,,,,,,,,,,,,,,,,,
0,5caca6b4a9acb200011a6547,testing,21.0,,,1.0,1.0,True,837.0,UvOGMKmY,,,,,,,,,,,,,,,,,,,,,,,,,,,,,,,,,,,,,,,,,,,,,,,,,,,,,,,,,,,,,,,,,,,,,,,,,,,,,,,,,,,,,,,,,,,,,,,,,,,,,,,,,,,,
0,5caca6b4a9acb200011a6547,testing,22.0,,,0.0,0.0,True,768.0,PcBThBK,,,,,,,,,,,,,,,,,,,,,,,,,,,,,,,,,,,,,,,,,,,,,,,,,,,,,,,,,,,,,,,,,,,,,,,,,,,,,,,,,,,,,,,,,,,,,,,,,,,,,,,,,,,,
0,5caca6b4a9acb200011a6547,testing,23.0,,,0.0,1.0,False,975.0,YcdOlGc,,,,,,,,,,,,,,,,,,,,,,,,,,,,,,,,,,,,,,,,,,,,,,,,,,,,,,,,,,,,,,,,,,,,,,,,,,,,,,,,,,,,,,,,,,,,,,,,,,,,,,,,,,,,
0,5caca6b4a9acb200011a6547,testing,24.0,,,1.0,0.0,False,1105.0,MhKdZAUu,,,,,,,,,,,,,,,,,,,,,,,,,,,,,,,,,,,,,,,,,,,,,,,,,,,,,,,,,,,,,,,,,,,,,,,,,,,,,,,,,,,,,,,,,,,,,,,,,,,,,,,,,,,,
0,5caca6b4a9acb200011a6547,testing,25.0,,,1.0,0.0,False,1518.0,aYQmhBK,,,,,,,,,,,,,,,,,,,,,,,,,,,,,,,,,,,,,,,,,,,,,,,,,,,,,,,,,,,,,,,,,,,,,,,,,,,,,,,,,,,,,,,,,,,,,,,,,,,,,,,,,,,,
0,5caca6b4a9acb200011a6547,testing,26.0,,,1.0,1.0,True,2682.0,EYtYRkmU,,,,,,,,,,,,,,,,,,,,,,,,,,,,,,,,,,,,,,,,,,,,,,,,,,,,,,,,,,,,,,,,,,,,,,,,,,,,,,,,,,,,,,,,,,,,,,,,,,,,,,,,,,,,
0,5caca6b4a9acb200011a6547,testing,27.0,,,0.0,1.0,False,899.0,TEBKPMYm,,,,,,,,,,,,,,,,,,,,,,,,,,,,,,,,,,,,,,,,,,,,,,,,,,,,,,,,,,,,,,,,,,,,,,,,,,,,,,,,,,,,,,,,,,,,,,,,,,,,,,,,,,,,
0,5caca6b4a9acb200011a6547,testing,28.0,,,0.0,1.0,False,721.0,tmAKCmYA,,,,,,,,,,,,,,,,,,,,,,,,,,,,,,,,,,,,,,,,,,,,,,,,,,,,,,,,,,,,,,,,,,,,,,,,,,,,,,,,,,,,,,,,,,,,,,,,,,,,,,,,,,,,
0,5caca6b4a9acb200011a6547,testing,29.0,,,0.0,0.0,True,753.0,OkGYlGc,,,,,,,,,,,,,,,,,,,,,,,,,,,,,,,,,,,,,,,,,,,,,,,,,,,,,,,,,,,,,,,,,,,,,,,,,,,,,,,,,,,,,,,,,,,,,,,,,,,,,,,,,,,,
0,5caca6b4a9acb200011a6547,testing,30.0,,,0.0,1.0,False,822.0,EYtYRMKmY,,,,,,,,,,,,,,,,,,,,,,,,,,,,,,,,,,,,,,,,,,,,,,,,,,,,,,,,,,,,,,,,,,,,,,,,,,,,,,,,,,,,,,,,,,,,,,,,,,,,,,,,,,,,
0,5caca6b4a9acb200011a6547,testing,31.0,,,1.0,0.0,False,696.0,lbBDElGc,,,,,,,,,,,,,,,,,,,,,,,,,,,,,,,,,,,,,,,,,,,,,,,,,,,,,,,,,,,,,,,,,,,,,,,,,,,,,,,,,,,,,,,,,,,,,,,,,,,,,,,,,,,,
0,5caca6b4a9acb200011a6547,testing,32.0,,,1.0,1.0,True,856.0,tmAKZAUu,,,,,,,,,,,,,,,,,,,,,,,,,,,,,,,,,,,,,,,,,,,,,,,,,,,,,,,,,,,,,,,,,,,,,,,,,,,,,,,,,,,,,,,,,,,,,,,,,,,,,,,,,,,,
0,5caca6b4a9acb200011a6547,testing,33.0,,,0.0,0.0,True,706.0,lbBDEOYK,,,,,,,,,,,,,,,,,,,,,,,,,,,,,,,,,,,,,,,,,,,,,,,,,,,,,,,,,,,,,,,,,,,,,,,,,,,,,,,,,,,,,,,,,,,,,,,,,,,,,,,,,,,,
0,5caca6b4a9acb200011a6547,testing,34.0,,,0.0,0.0,True,710.0,CchtdMKmY,,,,,,,,,,,,,,,,,,,,,,,,,,,,,,,,,,,,,,,,,,,,,,,,,,,,,,,,,,,,,,,,,,,,,,,,,,,,,,,,,,,,,,,,,,,,,,,,,,,,,,,,,,,,
0,5caca6b4a9acb200011a6547,testing,35.0,,,0.0,0.0,True,755.0,QcladZAUu,,,,,,,,,,,,,,,,,,,,,,,,,,,,,,,,,,,,,,,,,,,,,,,,,,,,,,,,,,,,,,,,,,,,,,,,,,,,,,,,,,,,,,,,,,,,,,,,,,,,,,,,,,,,
0,5caca6b4a9acb200011a6547,testing,36.0,,,1.0,0.0,False,660.0,ctktlGc,,,,,,,,,,,,,,,,,,,,,,,,,,,,,,,,,,,,,,,,,,,,,,,,,,,,,,,,,,,,,,,,,,,,,,,,,,,,,,,,,,,,,,,,,,,,,,,,,,,,,,,,,,,,
0,5caca6b4a9acb200011a6547,testing,37.0,,,0.0,1.0,False,611.0,UrOQkmU,,,,,,,,,,,,,,,,,,,,,,,,,,,,,,,,,,,,,,,,,,,,,,,,,,,,,,,,,,,,,,,,,,,,,,,,,,,,,,,,,,,,,,,,,,,,,,,,,,,,,,,,,,,,
0,5caca6b4a9acb200011a6547,testing,38.0,,,0.0,0.0,True,898.0,OmtlDPMYm,,,,,,,,,,,,,,,,,,,,,,,,,,,,,,,,,,,,,,,,,,,,,,,,,,,,,,,,,,,,,,,,,,,,,,,,,,,,,,,,,,,,,,,,,,,,,,,,,,,,,,,,,,,,
0,5caca6b4a9acb200011a6547,testing,39.0,,,0.0,1.0,False,748.0,UvOGkmU,,,,,,,,,,,,,,,,,,,,,,,,,,,,,,,,,,,,,,,,,,,,,,,,,,,,,,,,,,,,,,,,,,,,,,,,,,,,,,,,,,,,,,,,,,,,,,,,,,,,,,,,,,,,
0,5caca6b4a9acb200011a6547,testing,40.0,,,0.0,0.0,True,612.0,ctktOYK,,,,,,,,,,,,,,,,,,,,,,,,,,,,,,,,,,,,,,,,,,,,,,,,,,,,,,,,,,,,,,,,,,,,,,,,,,,,,,,,,,,,,,,,,,,,,,,,,,,,,,,,,,,,
0,5cb4adc019ee7300189e8547,BLP,,,,,,,,,25,Donna,Secondaria2,Italiano,Inglese,Spagnolo,n/a,no,0.0,14.0,13.0,,0.0,4.0,5.0,,20.0,20.0,15.0,,20.0,0.0,0.0,,20.0,0.0,0.0,,20.0,0.0,0.0,,10.0,1.0,0.0,,10.0,0.0,0.0,,10.0,0.0,0.0,,10.0,8.0,3.0,,10.0,0.0,0.0,,6.0,5.0,4.0,,6.0,6.0,6.0,,6.0,6.0,6.0,,true,true,true,,6.0,5.0,4.0,,6.0,6.0,6.0,,6.0,6.0,6.0,,6.0,6.0,6.0,,6.0,6.0,6.0,,36.32,17.252,14.982000000000001,0.0,54.50000000000001,9.81,3.2700000000000005,0.0,54.480000000000004,49.94,45.4,0.0,54.480000000000004,54.480000000000004,54.480000000000004,0.0,199.78000000000003,131.482,118.132,0.0
0,5cb4adc019ee7300189e8547,familiarity,1.0,kRCkO,laYmr,1.0,0.0,False,1936.0,,,,,,,,,,,,,,,,,,,,,,,,,,,,,,,,,,,,,,,,,,,,,,,,,,,,,,,,,,,,,,,,,,,,,,,,,,,,,,,,,,,,,,,,,,,,,,,,,,,,,,,,,,,,,
0,5cb4adc019ee7300189e8547,familiarity,2.0,rab,EcR,1.0,1.0,True,1497.0,,,,,,,,,,,,,,,,,,,,,,,,,,,,,,,,,,,,,,,,,,,,,,,,,,,,,,,,,,,,,,,,,,,,,,,,,,,,,,,,,,,,,,,,,,,,,,,,,,,,,,,,,,,,,
0,5cb4adc019ee7300189e8547,familiarity,3.0,bRC,PMd,1.0,1.0,True,1523.0,,,,,,,,,,,,,,,,,,,,,,,,,,,,,,,,,,,,,,,,,,,,,,,,,,,,,,,,,,,,,,,,,,,,,,,,,,,,,,,,,,,,,,,,,,,,,,,,,,,,,,,,,,,,,
0,5cb4adc019ee7300189e8547,familiarity,4.0,kGua,PlEK,1.0,0.0,False,1211.0,,,,,,,,,,,,,,,,,,,,,,,,,,,,,,,,,,,,,,,,,,,,,,,,,,,,,,,,,,,,,,,,,,,,,,,,,,,,,,,,,,,,,,,,,,,,,,,,,,,,,,,,,,,,,
0,5cb4adc019ee7300189e8547,familiarity,5.0,KElB,mKcD,0.0,0.0,True,715.0,,,,,,,,,,,,,,,,,,,,,,,,,,,,,,,,,,,,,,,,,,,,,,,,,,,,,,,,,,,,,,,,,,,,,,,,,,,,,,,,,,,,,,,,,,,,,,,,,,,,,,,,,,,,,
0,5cb4adc019ee7300189e8547,familiarity,6.0,JdGm,YbBT,0.0,0.0,True,1275.0,,,,,,,,,,,,,,,,,,,,,,,,,,,,,,,,,,,,,,,,,,,,,,,,,,,,,,,,,,,,,,,,,,,,,,,,,,,,,,,,,,,,,,,,,,,,,,,,,,,,,,,,,,,,,
0,5cb4adc019ee7300189e8547,familiarity,7.0,dvNvA,LNUrJ,1.0,1.0,True,1222.0,,,,,,,,,,,,,,,,,,,,,,,,,,,,,,,,,,,,,,,,,,,,,,,,,,,,,,,,,,,,,,,,,,,,,,,,,,,,,,,,,,,,,,,,,,,,,,,,,,,,,,,,,,,,,
0,5cb4adc019ee7300189e8547,familiarity,8.0,lGZv,BbOD,1.0,1.0,True,1007.0,,,,,,,,,,,,,,,,,,,,,,,,,,,,,,,,,,,,,,,,,,,,,,,,,,,,,,,,,,,,,,,,,,,,,,,,,,,,,,,,,,,,,,,,,,,,,,,,,,,,,,,,,,,,,
0,5cb4adc019ee7300189e8547,familiarity,9.0,ukYZ,BRDh,1.0,0.0,False,1065.0,,,,,,,,,,,,,,,,,,,,,,,,,,,,,,,,,,,,,,,,,,,,,,,,,,,,,,,,,,,,,,,,,,,,,,,,,,,,,,,,,,,,,,,,,,,,,,,,,,,,,,,,,,,,,
0,5cb4adc019ee7300189e8547,familiarity,10.0,kPkRA,NbmQU,0.0,0.0,True,1142.0,,,,,,,,,,,,,,,,,,,,,,,,,,,,,,,,,,,,,,,,,,,,,,,,,,,,,,,,,,,,,,,,,,,,,,,,,,,,,,,,,,,,,,,,,,,,,,,,,,,,,,,,,,,,,
0,5cb4adc019ee7300189e8547,familiarity,11.0,kCRm,OdYP,0.0,1.0,False,908.0,,,,,,,,,,,,,,,,,,,,,,,,,,,,,,,,,,,,,,,,,,,,,,,,,,,,,,,,,,,,,,,,,,,,,,,,,,,,,,,,,,,,,,,,,,,,,,,,,,,,,,,,,,,,,
0,5cb4adc019ee7300189e8547,familiarity,12.0,dEPD,kuvb,1.0,1.0,True,1002.0,,,,,,,,,,,,,,,,,,,,,,,,,,,,,,,,,,,,,,,,,,,,,,,,,,,,,,,,,,,,,,,,,,,,,,,,,,,,,,,,,,,,,,,,,,,,,,,,,,,,,,,,,,,,,
0,5cb4adc019ee7300189e8547,familiarity,13.0,LcNUJ,OdlNm,0.0,1.0,False,1056.0,,,,,,,,,,,,,,,,,,,,,,,,,,,,,,,,,,,,,,,,,,,,,,,,,,,,,,,,,,,,,,,,,,,,,,,,,,,,,,,,,,,,,,,,,,,,,,,,,,,,,,,,,,,,,
0,5cb4adc019ee7300189e8547,familiarity,14.0,COtBD,GLYrA,0.0,0.0,True,1128.0,,,,,,,,,,,,,,,,,,,,,,,,,,,,,,,,,,,,,,,,,,,,,,,,,,,,,,,,,,,,,,,,,,,,,,,,,,,,,,,,,,,,,,,,,,,,,,,,,,,,,,,,,,,,,
0,5cb4adc019ee7300189e8547,familiarity,15.0,Zvalv,KTDTB,1.0,1.0,True,829.0,,,,,,,,,,,,,,,,,,,,,,,,,,,,,,,,,,,,,,,,,,,,,,,,,,,,,,,,,,,,,,,,,,,,,,,,,,,,,,,,,,,,,,,,,,,,,,,,,,,,,,,,,,,,,
0,5cb4adc019ee7300189e8547,familiarity,16.0,RDM,TAm,1.0,1.0,True,955.0,,,,,,,,,,,,,,,,,,,,,,,,,,,,,,,,,,,,,,,,,,,,,,,,,,,,,,,,,,,,,,,,,,,,,,,,,,,,,,,,,,,,,,,,,,,,,,,,,,,,,,,,,,,,,
0,5cb4adc019ee7300189e8547,familiarity,17.0,TRkY,tdDd,1.0,0.0,False,955.0,,,,,,,,,,,,,,,,,,,,,,,,,,,,,,,,,,,,,,,,,,,,,,,,,,,,,,,,,,,,,,,,,,,,,,,,,,,,,,,,,,,,,,,,,,,,,,,,,,,,,,,,,,,,,
0,5cb4adc019ee7300189e8547,familiarity,18.0,lBlE,kJdr,0.0,0.0,True,699.0,,,,,,,,,,,,,,,,,,,,,,,,,,,,,,,,,,,,,,,,,,,,,,,,,,,,,,,,,,,,,,,,,,,,,,,,,,,,,,,,,,,,,,,,,,,,,,,,,,,,,,,,,,,,,
0,5cb4adc019ee7300189e8547,familiarity,19.0,mBmlA,ckduA,0.0,0.0,True,995.0,,,,,,,,,,,,,,,,,,,,,,,,,,,,,,,,,,,,,,,,,,,,,,,,,,,,,,,,,,,,,,,,,,,,,,,,,,,,,,,,,,,,,,,,,,,,,,,,,,,,,,,,,,,,,
0,5cb4adc019ee7300189e8547,familiarity,20.0,kbu,aQr,0.0,1.0,False,1026.0,,,,,,,,,,,,,,,,,,,,,,,,,,,,,,,,,,,,,,,,,,,,,,,,,,,,,,,,,,,,,,,,,,,,,,,,,,,,,,,,,,,,,,,,,,,,,,,,,,,,,,,,,,,,,
0,5cb4adc019ee7300189e8547,familiarity,21.0,kmU,kBD,0.0,0.0,True,780.0,,,,,,,,,,,,,,,,,,,,,,,,,,,,,,,,,,,,,,,,,,,,,,,,,,,,,,,,,,,,,,,,,,,,,,,,,,,,,,,,,,,,,,,,,,,,,,,,,,,,,,,,,,,,,
0,5cb4adc019ee7300189e8547,familiarity,22.0,kcdOt,OQarQ,0.0,1.0,False,847.0,,,,,,,,,,,,,,,,,,,,,,,,,,,,,,,,,,,,,,,,,,,,,,,,,,,,,,,,,,,,,,,,,,,,,,,,,,,,,,,,,,,,,,,,,,,,,,,,,,,,,,,,,,,,,
0,5cb4adc019ee7300189e8547,familiarity,23.0,lYrua,lKdbc,0.0,0.0,True,883.0,,,,,,,,,,,,,,,,,,,,,,,,,,,,,,,,,,,,,,,,,,,,,,,,,,,,,,,,,,,,,,,,,,,,,,,,,,,,,,,,,,,,,,,,,,,,,,,,,,,,,,,,,,,,,
0,5cb4adc019ee7300189e8547,familiarity,24.0,YcdO,RCcE,0.0,0.0,True,683.0,,,,,,,,,,,,,,,,,,,,,,,,,,,,,,,,,,,,,,,,,,,,,,,,,,,,,,,,,,,,,,,,,,,,,,,,,,,,,,,,,,,,,,,,,,,,,,,,,,,,,,,,,,,,,
0,5cb4adc019ee7300189e8547,familiarity,25.0,QONk,NJZl,1.0,1.0,True,887.0,,,,,,,,,,,,,,,,,,,,,,,,,,,,,,,,,,,,,,,,,,,,,,,,,,,,,,,,,,,,,,,,,,,,,,,,,,,,,,,,,,,,,,,,,,,,,,,,,,,,,,,,,,,,,
0,5cb4adc019ee7300189e8547,familiarity,26.0,bmbN,MCkm,1.0,0.0,False,855.0,,,,,,,,,,,,,,,,,,,,,,,,,,,,,,,,,,,,,,,,,,,,,,,,,,,,,,,,,,,,,,,,,,,,,,,,,,,,,,,,,,,,,,,,,,,,,,,,,,,,,,,,,,,,,
0,5cb4adc019ee7300189e8547,familiarity,27.0,OcYM,rvUb,0.0,0.0,True,688.0,,,,,,,,,,,,,,,,,,,,,,,,,,,,,,,,,,,,,,,,,,,,,,,,,,,,,,,,,,,,,,,,,,,,,,,,,,,,,,,,,,,,,,,,,,,,,,,,,,,,,,,,,,,,,
0,5cb4adc019ee7300189e8547,familiarity,28.0,KEdl,EhRm,1.0,1.0,True,1275.0,,,,,,,,,,,,,,,,,,,,,,,,,,,,,,,,,,,,,,,,,,,,,,,,,,,,,,,,,,,,,,,,,,,,,,,,,,,,,,,,,,,,,,,,,,,,,,,,,,,,,,,,,,,,,
0,5cb4adc019ee7300189e8547,familiarity,29.0,DhCP,mrOd,0.0,1.0,False,1017.0,,,,,,,,,,,,,,,,,,,,,,,,,,,,,,,,,,,,,,,,,,,,,,,,,,,,,,,,,,,,,,,,,,,,,,,,,,,,,,,,,,,,,,,,,,,,,,,,,,,,,,,,,,,,,
0,5cb4adc019ee7300189e8547,familiarity,30.0,JrGv,bvkr,0.0,0.0,True,759.0,,,,,,,,,,,,,,,,,,,,,,,,,,,,,,,,,,,,,,,,,,,,,,,,,,,,,,,,,,,,,,,,,,,,,,,,,,,,,,,,,,,,,,,,,,,,,,,,,,,,,,,,,,,,,
0,5cb4adc019ee7300189e8547,testing,1.0,,,0.0,0.0,True,2344.0,lYruakGua,,,,,,,,,,,,,,,,,,,,,,,,,,,,,,,,,,,,,,,,,,,,,,,,,,,,,,,,,,,,,,,,,,,,,,,,,,,,,,,,,,,,,,,,,,,,,,,,,,,,,,,,,,,,
0,5cb4adc019ee7300189e8547,testing,2.0,,,1.0,0.0,False,966.0,lBlEkmU,,,,,,,,,,,,,,,,,,,,,,,,,,,,,,,,,,,,,,,,,,,,,,,,,,,,,,,,,,,,,,,,,,,,,,,,,,,,,,,,,,,,,,,,,,,,,,,,,,,,,,,,,,,,
0,5cb4adc019ee7300189e8547,testing,3.0,,,0.0,0.0,True,903.0,kRCkOdEPD,,,,,,,,,,,,,,,,,,,,,,,,,,,,,,,,,,,,,,,,,,,,,,,,,,,,,,,,,,,,,,,,,,,,,,,,,,,,,,,,,,,,,,,,,,,,,,,,,,,,,,,,,,,,
0,5cb4adc019ee7300189e8547,testing,4.0,,,1.0,1.0,True,854.0,dvNvARDM,,,,,,,,,,,,,,,,,,,,,,,,,,,,,,,,,,,,,,,,,,,,,,,,,,,,,,,,,,,,,,,,,,,,,,,,,,,,,,,,,,,,,,,,,,,,,,,,,,,,,,,,,,,,
0,5cb4adc019ee7300189e8547,testing,5.0,,,1.0,1.0,True,788.0,LcNUJTRkY,,,,,,,,,,,,,,,,,,,,,,,,,,,,,,,,,,,,,,,,,,,,,,,,,,,,,,,,,,,,,,,,,,,,,,,,,,,,,,,,,,,,,,,,,,,,,,,,,,,,,,,,,,,,
0,5cb4adc019ee7300189e8547,testing,6.0,,,0.0,1.0,False,948.0,OcYMbRC,,,,,,,,,,,,,,,,,,,,,,,,,,,,,,,,,,,,,,,,,,,,,,,,,,,,,,,,,,,,,,,,,,,,,,,,,,,,,,,,,,,,,,,,,,,,,,,,,,,,,,,,,,,,
0,5cb4adc019ee7300189e8547,testing,7.0,,,0.0,0.0,True,670.0,LcNUJkbu,,,,,,,,,,,,,,,,,,,,,,,,,,,,,,,,,,,,,,,,,,,,,,,,,,,,,,,,,,,,,,,,,,,,,,,,,,,,,,,,,,,,,,,,,,,,,,,,,,,,,,,,,,,,
0,5cb4adc019ee7300189e8547,testing,8.0,,,1.0,0.0,False,760.0,bmbNTRkY,,,,,,,,,,,,,,,,,,,,,,,,,,,,,,,,,,,,,,,,,,,,,,,,,,,,,,,,,,,,,,,,,,,,,,,,,,,,,,,,,,,,,,,,,,,,,,,,,,,,,,,,,,,,
0,5cb4adc019ee7300189e8547,testing,9.0,,,1.0,1.0,True,746.0,mBmlAkmU,,,,,,,,,,,,,,,,,,,,,,,,,,,,,,,,,,,,,,,,,,,,,,,,,,,,,,,,,,,,,,,,,,,,,,,,,,,,,,,,,,,,,,,,,,,,,,,,,,,,,,,,,,,,
0,5cb4adc019ee7300189e8547,testing,10.0,,,0.0,0.0,True,823.0,bmbNkbu,,,,,,,,,,,,,,,,,,,,,,,,,,,,,,,,,,,,,,,,,,,,,,,,,,,,,,,,,,,,,,,,,,,,,,,,,,,,,,,,,,,,,,,,,,,,,,,,,,,,,,,,,,,,
0,5cb4adc019ee7300189e8547,testing,11.0,,,1.0,0.0,False,657.0,KElBrab,,,,,,,,,,,,,,,,,,,,,,,,,,,,,,,,,,,,,,,,,,,,,,,,,,,,,,,,,,,,,,,,,,,,,,,,,,,,,,,,,,,,,,,,,,,,,,,,,,,,,,,,,,,,
0,5cb4adc019ee7300189e8547,testing,12.0,,,1.0,0.0,False,686.0,ZvalvRDM,,,,,,,,,,,,,,,,,,,,,,,,,,,,,,,,,,,,,,,,,,,,,,,,,,,,,,,,,,,,,,,,,,,,,,,,,,,,,,,,,,,,,,,,,,,,,,,,,,,,,,,,,,,,
0,5cb4adc019ee7300189e8547,testing,13.0,,,0.0,1.0,False,450.0,dvNvAkmU,,,,,,,,,,,,,,,,,,,,,,,,,,,,,,,,,,,,,,,,,,,,,,,,,,,,,,,,,,,,,,,,,,,,,,,,,,,,,,,,,,,,,,,,,,,,,,,,,,,,,,,,,,,,
0,5cb4adc019ee7300189e8547,testing,14.0,,,1.0,0.0,False,771.0,OcYMrab,,,,,,,,,,,,,,,,,,,,,,,,,,,,,,,,,,,,,,,,,,,,,,,,,,,,,,,,,,,,,,,,,,,,,,,,,,,,,,,,,,,,,,,,,,,,,,,,,,,,,,,,,,,,
0,5cb4adc019ee7300189e8547,testing,15.0,,,0.0,0.0,True,598.0,kcdOtdEPD,,,,,,,,,,,,,,,,,,,,,,,,,,,,,,,,,,,,,,,,,,,,,,,,,,,,,,,,,,,,,,,,,,,,,,,,,,,,,,,,,,,,,,,,,,,,,,,,,,,,,,,,,,,,
0,5cb4adc019ee7300189e8547,testing,16.0,,,0.0,0.0,True,747.0,COtBDKEdl,,,,,,,,,,,,,,,,,,,,,,,,,,,,,,,,,,,,,,,,,,,,,,,,,,,,,,,,,,,,,,,,,,,,,,,,,,,,,,,,,,,,,,,,,,,,,,,,,,,,,,,,,,,,
0,5cb4adc019ee7300189e8547,testing,17.0,,,0.0,0.0,True,774.0,kPkRATRkY,,,,,,,,,,,,,,,,,,,,,,,,,,,,,,,,,,,,,,,,,,,,,,,,,,,,,,,,,,,,,,,,,,,,,,,,,,,,,,,,,,,,,,,,,,,,,,,,,,,,,,,,,,,,
0,5cb4adc019ee7300189e8547,testing,18.0,,,1.0,1.0,True,744.0,COtBDkGua,,,,,,,,,,,,,,,,,,,,,,,,,,,,,,,,,,,,,,,,,,,,,,,,,,,,,,,,,,,,,,,,,,,,,,,,,,,,,,,,,,,,,,,,,,,,,,,,,,,,,,,,,,,,
0,5cb4adc019ee7300189e8547,testing,19.0,,,1.0,1.0,True,620.0,kPkRAkbu,,,,,,,,,,,,,,,,,,,,,,,,,,,,,,,,,,,,,,,,,,,,,,,,,,,,,,,,,,,,,,,,,,,,,,,,,,,,,,,,,,,,,,,,,,,,,,,,,,,,,,,,,,,,
0,5cb4adc019ee7300189e8547,testing,20.0,,,1.0,1.0,True,543.0,JrGvbRC,,,,,,,,,,,,,,,,,,,,,,,,,,,,,,,,,,,,,,,,,,,,,,,,,,,,,,,,,,,,,,,,,,,,,,,,,,,,,,,,,,,,,,,,,,,,,,,,,,,,,,,,,,,,
0,5cb4adc019ee7300189e8547,testing,21.0,,,1.0,1.0,True,502.0,ukYZKEdl,,,,,,,,,,,,,,,,,,,,,,,,,,,,,,,,,,,,,,,,,,,,,,,,,,,,,,,,,,,,,,,,,,,,,,,,,,,,,,,,,,,,,,,,,,,,,,,,,,,,,,,,,,,,
0,5cb4adc019ee7300189e8547,testing,22.0,,,1.0,0.0,False,824.0,DhCPkbu,,,,,,,,,,,,,,,,,,,,,,,,,,,,,,,,,,,,,,,,,,,,,,,,,,,,,,,,,,,,,,,,,,,,,,,,,,,,,,,,,,,,,,,,,,,,,,,,,,,,,,,,,,,,
0,5cb4adc019ee7300189e8547,testing,23.0,,,0.0,0.0,True,538.0,ZvalvkmU,,,,,,,,,,,,,,,,,,,,,,,,,,,,,,,,,,,,,,,,,,,,,,,,,,,,,,,,,,,,,,,,,,,,,,,,,,,,,,,,,,,,,,,,,,,,,,,,,,,,,,,,,,,,
0,5cb4adc019ee7300189e8547,testing,24.0,,,0.0,0.0,True,329.0,JdGmQONk,,,,,,,,,,,,,,,,,,,,,,,,,,,,,,,,,,,,,,,,,,,,,,,,,,,,,,,,,,,,,,,,,,,,,,,,,,,,,,,,,,,,,,,,,,,,,,,,,,,,,,,,,,,,
0,5cb4adc019ee7300189e8547,testing,25.0,,,1.0,0.0,False,699.0,lGZvdEPD,,,,,,,,,,,,,,,,,,,,,,,,,,,,,,,,,,,,,,,,,,,,,,,,,,,,,,,,,,,,,,,,,,,,,,,,,,,,,,,,,,,,,,,,,,,,,,,,,,,,,,,,,,,,
0,5cb4adc019ee7300189e8547,testing,26.0,,,1.0,1.0,True,697.0,kCRmkGua,,,,,,,,,,,,,,,,,,,,,,,,,,,,,,,,,,,,,,,,,,,,,,,,,,,,,,,,,,,,,,,,,,,,,,,,,,,,,,,,,,,,,,,,,,,,,,,,,,,,,,,,,,,,
0,5cb4adc019ee7300189e8547,testing,27.0,,,1.0,1.0,True,528.0,kRCkOQONk,,,,,,,,,,,,,,,,,,,,,,,,,,,,,,,,,,,,,,,,,,,,,,,,,,,,,,,,,,,,,,,,,,,,,,,,,,,,,,,,,,,,,,,,,,,,,,,,,,,,,,,,,,,,
0,5cb4adc019ee7300189e8547,testing,28.0,,,0.0,0.0,True,719.0,lBlERDM,,,,,,,,,,,,,,,,,,,,,,,,,,,,,,,,,,,,,,,,,,,,,,,,,,,,,,,,,,,,,,,,,,,,,,,,,,,,,,,,,,,,,,,,,,,,,,,,,,,,,,,,,,,,
0,5cb4adc019ee7300189e8547,testing,29.0,,,1.0,0.0,False,859.0,YcdObRC,,,,,,,,,,,,,,,,,,,,,,,,,,,,,,,,,,,,,,,,,,,,,,,,,,,,,,,,,,,,,,,,,,,,,,,,,,,,,,,,,,,,,,,,,,,,,,,,,,,,,,,,,,,,
0,5cb4adc019ee7300189e8547,testing,30.0,,,0.0,0.0,True,863.0,kCRmKEdl,,,,,,,,,,,,,,,,,,,,,,,,,,,,,,,,,,,,,,,,,,,,,,,,,,,,,,,,,,,,,,,,,,,,,,,,,,,,,,,,,,,,,,,,,,,,,,,,,,,,,,,,,,,,
0,5cb4adc019ee7300189e8547,testing,31.0,,,0.0,1.0,False,796.0,mBmlARDM,,,,,,,,,,,,,,,,,,,,,,,,,,,,,,,,,,,,,,,,,,,,,,,,,,,,,,,,,,,,,,,,,,,,,,,,,,,,,,,,,,,,,,,,,,,,,,,,,,,,,,,,,,,,
0,5cb4adc019ee7300189e8547,testing,32.0,,,0.0,1.0,False,731.0,ukYZkGua,,,,,,,,,,,,,,,,,,,,,,,,,,,,,,,,,,,,,,,,,,,,,,,,,,,,,,,,,,,,,,,,,,,,,,,,,,,,,,,,,,,,,,,,,,,,,,,,,,,,,,,,,,,,
0,5cb4adc019ee7300189e8547,testing,33.0,,,1.0,0.0,False,891.0,JdGmdEPD,,,,,,,,,,,,,,,,,,,,,,,,,,,,,,,,,,,,,,,,,,,,,,,,,,,,,,,,,,,,,,,,,,,,,,,,,,,,,,,,,,,,,,,,,,,,,,,,,,,,,,,,,,,,
0,5cb4adc019ee7300189e8547,testing,34.0,,,0.0,0.0,True,671.0,lGZvQONk,,,,,,,,,,,,,,,,,,,,,,,,,,,,,,,,,,,,,,,,,,,,,,,,,,,,,,,,,,,,,,,,,,,,,,,,,,,,,,,,,,,,,,,,,,,,,,,,,,,,,,,,,,,,
0,5cb4adc019ee7300189e8547,testing,35.0,,,0.0,0.0,True,509.0,YcdOrab,,,,,,,,,,,,,,,,,,,,,,,,,,,,,,,,,,,,,,,,,,,,,,,,,,,,,,,,,,,,,,,,,,,,,,,,,,,,,,,,,,,,,,,,,,,,,,,,,,,,,,,,,,,,
0,5cb4adc019ee7300189e8547,testing,36.0,,,1.0,0.0,False,770.0,lYruaKEdl,,,,,,,,,,,,,,,,,,,,,,,,,,,,,,,,,,,,,,,,,,,,,,,,,,,,,,,,,,,,,,,,,,,,,,,,,,,,,,,,,,,,,,,,,,,,,,,,,,,,,,,,,,,,
0,5cb4adc019ee7300189e8547,testing,37.0,,,0.0,0.0,True,861.0,DhCPTRkY,,,,,,,,,,,,,,,,,,,,,,,,,,,,,,,,,,,,,,,,,,,,,,,,,,,,,,,,,,,,,,,,,,,,,,,,,,,,,,,,,,,,,,,,,,,,,,,,,,,,,,,,,,,,
0,5cb4adc019ee7300189e8547,testing,38.0,,,0.0,0.0,True,808.0,KElBbRC,,,,,,,,,,,,,,,,,,,,,,,,,,,,,,,,,,,,,,,,,,,,,,,,,,,,,,,,,,,,,,,,,,,,,,,,,,,,,,,,,,,,,,,,,,,,,,,,,,,,,,,,,,,,
0,5cb4adc019ee7300189e8547,testing,39.0,,,0.0,0.0,True,491.0,JrGvrab,,,,,,,,,,,,,,,,,,,,,,,,,,,,,,,,,,,,,,,,,,,,,,,,,,,,,,,,,,,,,,,,,,,,,,,,,,,,,,,,,,,,,,,,,,,,,,,,,,,,,,,,,,,,
0,5cb4adc019ee7300189e8547,testing,40.0,,,1.0,0.0,False,394.0,kcdOtQONk,,,,,,,,,,,,,,,,,,,,,,,,,,,,,,,,,,,,,,,,,,,,,,,,,,,,,,,,,,,,,,,,,,,,,,,,,,,,,,,,,,,,,,,,,,,,,,,,,,,,,,,,,,,,
0,5cf14e1eb4397d0001f94e20,BLP,,,,,,,,,24,Altro,Uni,italiano,inglese,n/a,n/a,n/a,0.0,15.0,,,0.0,2.0,,,20.0,20.0,,,20.0,0.0,,,20.0,0.0,,,20.0,0.0,,,10.0,0.0,,,10.0,0.0,,,10.0,0.0,,,10.0,4.0,,,10.0,0.0,,,6.0,4.0,,,6.0,6.0,,,6.0,6.0,,,true,true,,,6.0,2.0,,,6.0,1.0,,,6.0,0.0,,,6.0,5.0,,,6.0,2.0,,,36.32,16.798000000000002,0.0,0.0,54.50000000000001,4.36,0.0,0.0,54.480000000000004,40.86,0.0,0.0,54.480000000000004,18.16,0.0,0.0,199.78000000000003,80.178,0.0,0.0
0,5cf14e1eb4397d0001f94e20,familiarity,1.0,mCd,tAY,1.0,1.0,True,2449.0,,,,,,,,,,,,,,,,,,,,,,,,,,,,,,,,,,,,,,,,,,,,,,,,,,,,,,,,,,,,,,,,,,,,,,,,,,,,,,,,,,,,,,,,,,,,,,,,,,,,,,,,,,,,,
0,5cf14e1eb4397d0001f94e20,familiarity,2.0,Tbk,aQr,1.0,1.0,True,1063.0,,,,,,,,,,,,,,,,,,,,,,,,,,,,,,,,,,,,,,,,,,,,,,,,,,,,,,,,,,,,,,,,,,,,,,,,,,,,,,,,,,,,,,,,,,,,,,,,,,,,,,,,,,,,,
0,5cf14e1eb4397d0001f94e20,familiarity,3.0,kJdr,YTOM,1.0,0.0,False,1071.0,,,,,,,,,,,,,,,,,,,,,,,,,,,,,,,,,,,,,,,,,,,,,,,,,,,,,,,,,,,,,,,,,,,,,,,,,,,,,,,,,,,,,,,,,,,,,,,,,,,,,,,,,,,,,
0,5cf14e1eb4397d0001f94e20,familiarity,4.0,bNdmG,hAROK,0.0,1.0,False,962.0,,,,,,,,,,,,,,,,,,,,,,,,,,,,,,,,,,,,,,,,,,,,,,,,,,,,,,,,,,,,,,,,,,,,,,,,,,,,,,,,,,,,,,,,,,,,,,,,,,,,,,,,,,,,,
0,5cf14e1eb4397d0001f94e20,familiarity,5.0,hkRK,JNka,1.0,0.0,False,1291.0,,,,,,,,,,,,,,,,,,,,,,,,,,,,,,,,,,,,,,,,,,,,,,,,,,,,,,,,,,,,,,,,,,,,,,,,,,,,,,,,,,,,,,,,,,,,,,,,,,,,,,,,,,,,,
0,5cf14e1eb4397d0001f94e20,familiarity,6.0,lLG,TAm,1.0,0.0,False,1488.0,,,,,,,,,,,,,,,,,,,,,,,,,,,,,,,,,,,,,,,,,,,,,,,,,,,,,,,,,,,,,,,,,,,,,,,,,,,,,,,,,,,,,,,,,,,,,,,,,,,,,,,,,,,,,
0,5cf14e1eb4397d0001f94e20,familiarity,7.0,TbKME,dGLAl,1.0,1.0,True,1508.0,,,,,,,,,,,,,,,,,,,,,,,,,,,,,,,,,,,,,,,,,,,,,,,,,,,,,,,,,,,,,,,,,,,,,,,,,,,,,,,,,,,,,,,,,,,,,,,,,,,,,,,,,,,,,
0,5cf14e1eb4397d0001f94e20,familiarity,8.0,BEPO,rkra,0.0,0.0,True,1316.0,,,,,,,,,,,,,,,,,,,,,,,,,,,,,,,,,,,,,,,,,,,,,,,,,,,,,,,,,,,,,,,,,,,,,,,,,,,,,,,,,,,,,,,,,,,,,,,,,,,,,,,,,,,,,
0,5cf14e1eb4397d0001f94e20,familiarity,9.0,DCmh,MKmY,1.0,1.0,True,1195.0,,,,,,,,,,,,,,,,,,,,,,,,,,,,,,,,,,,,,,,,,,,,,,,,,,,,,,,,,,,,,,,,,,,,,,,,,,,,,,,,,,,,,,,,,,,,,,,,,,,,,,,,,,,,,
0,5cf14e1eb4397d0001f94e20,familiarity,10.0,hTtBb,NLQGm,0.0,0.0,True,1137.0,,,,,,,,,,,,,,,,,,,,,,,,,,,,,,,,,,,,,,,,,,,,,,,,,,,,,,,,,,,,,,,,,,,,,,,,,,,,,,,,,,,,,,,,,,,,,,,,,,,,,,,,,,,,,
0,5cf14e1eb4397d0001f94e20,familiarity,11.0,uAkr,YZJO,1.0,0.0,False,1578.0,,,,,,,,,,,,,,,,,,,,,,,,,,,,,,,,,,,,,,,,,,,,,,,,,,,,,,,,,,,,,,,,,,,,,,,,,,,,,,,,,,,,,,,,,,,,,,,,,,,,,,,,,,,,,
0,5cf14e1eb4397d0001f94e20,familiarity,12.0,UYZlZ,Blmcl,0.0,0.0,True,1585.0,,,,,,,,,,,,,,,,,,,,,,,,,,,,,,,,,,,,,,,,,,,,,,,,,,,,,,,,,,,,,,,,,,,,,,,,,,,,,,,,,,,,,,,,,,,,,,,,,,,,,,,,,,,,,
0,5cf14e1eb4397d0001f94e20,familiarity,13.0,BATOc,tmtEM,0.0,1.0,False,1448.0,,,,,,,,,,,,,,,,,,,,,,,,,,,,,,,,,,,,,,,,,,,,,,,,,,,,,,,,,,,,,,,,,,,,,,,,,,,,,,,,,,,,,,,,,,,,,,,,,,,,,,,,,,,,,
0,5cf14e1eb4397d0001f94e20,familiarity,14.0,ZcGdN,NAacQ,1.0,1.0,True,1985.0,,,,,,,,,,,,,,,,,,,,,,,,,,,,,,,,,,,,,,,,,,,,,,,,,,,,,,,,,,,,,,,,,,,,,,,,,,,,,,,,,,,,,,,,,,,,,,,,,,,,,,,,,,,,,
0,5cf14e1eb4397d0001f94e20,familiarity,15.0,bYuQ,Zckv,1.0,1.0,True,1317.0,,,,,,,,,,,,,,,,,,,,,,,,,,,,,,,,,,,,,,,,,,,,,,,,,,,,,,,,,,,,,,,,,,,,,,,,,,,,,,,,,,,,,,,,,,,,,,,,,,,,,,,,,,,,,
0,5cf14e1eb4397d0001f94e20,familiarity,16.0,CMdP,aONd,0.0,1.0,False,1202.0,,,,,,,,,,,,,,,,,,,,,,,,,,,,,,,,,,,,,,,,,,,,,,,,,,,,,,,,,,,,,,,,,,,,,,,,,,,,,,,,,,,,,,,,,,,,,,,,,,,,,,,,,,,,,
0,5cf14e1eb4397d0001f94e20,familiarity,17.0,Ald,PED,0.0,1.0,False,1531.0,,,,,,,,,,,,,,,,,,,,,,,,,,,,,,,,,,,,,,,,,,,,,,,,,,,,,,,,,,,,,,,,,,,,,,,,,,,,,,,,,,,,,,,,,,,,,,,,,,,,,,,,,,,,,
0,5cf14e1eb4397d0001f94e20,familiarity,18.0,YBO,dRA,1.0,0.0,False,1673.0,,,,,,,,,,,,,,,,,,,,,,,,,,,,,,,,,,,,,,,,,,,,,,,,,,,,,,,,,,,,,,,,,,,,,,,,,,,,,,,,,,,,,,,,,,,,,,,,,,,,,,,,,,,,,
0,5cf14e1eb4397d0001f94e20,familiarity,19.0,vcb,bLd,1.0,1.0,True,1352.0,,,,,,,,,,,,,,,,,,,,,,,,,,,,,,,,,,,,,,,,,,,,,,,,,,,,,,,,,,,,,,,,,,,,,,,,,,,,,,,,,,,,,,,,,,,,,,,,,,,,,,,,,,,,,
0,5cf14e1eb4397d0001f94e20,familiarity,20.0,rGUAY,AZaJc,0.0,0.0,True,1259.0,,,,,,,,,,,,,,,,,,,,,,,,,,,,,,,,,,,,,,,,,,,,,,,,,,,,,,,,,,,,,,,,,,,,,,,,,,,,,,,,,,,,,,,,,,,,,,,,,,,,,,,,,,,,,
0,5cf14e1eb4397d0001f94e20,familiarity,21.0,adYrc,hmKPM,0.0,1.0,False,1268.0,,,,,,,,,,,,,,,,,,,,,,,,,,,,,,,,,,,,,,,,,,,,,,,,,,,,,,,,,,,,,,,,,,,,,,,,,,,,,,,,,,,,,,,,,,,,,,,,,,,,,,,,,,,,,
0,5cf14e1eb4397d0001f94e20,familiarity,22.0,lrZG,badk,1.0,0.0,False,1046.0,,,,,,,,,,,,,,,,,,,,,,,,,,,,,,,,,,,,,,,,,,,,,,,,,,,,,,,,,,,,,,,,,,,,,,,,,,,,,,,,,,,,,,,,,,,,,,,,,,,,,,,,,,,,,
0,5cf14e1eb4397d0001f94e20,familiarity,23.0,Dmh,Jud,0.0,0.0,True,1740.0,,,,,,,,,,,,,,,,,,,,,,,,,,,,,,,,,,,,,,,,,,,,,,,,,,,,,,,,,,,,,,,,,,,,,,,,,,,,,,,,,,,,,,,,,,,,,,,,,,,,,,,,,,,,,
0,5cf14e1eb4397d0001f94e20,familiarity,24.0,UvOG,NaJb,1.0,1.0,True,1523.0,,,,,,,,,,,,,,,,,,,,,,,,,,,,,,,,,,,,,,,,,,,,,,,,,,,,,,,,,,,,,,,,,,,,,,,,,,,,,,,,,,,,,,,,,,,,,,,,,,,,,,,,,,,,,
0,5cf14e1eb4397d0001f94e20,familiarity,25.0,uOAO,bAdk,1.0,1.0,True,1636.0,,,,,,,,,,,,,,,,,,,,,,,,,,,,,,,,,,,,,,,,,,,,,,,,,,,,,,,,,,,,,,,,,,,,,,,,,,,,,,,,,,,,,,,,,,,,,,,,,,,,,,,,,,,,,
0,5cf14e1eb4397d0001f94e20,familiarity,26.0,MhKd,BYhT,0.0,0.0,True,2476.0,,,,,,,,,,,,,,,,,,,,,,,,,,,,,,,,,,,,,,,,,,,,,,,,,,,,,,,,,,,,,,,,,,,,,,,,,,,,,,,,,,,,,,,,,,,,,,,,,,,,,,,,,,,,,
0,5cf14e1eb4397d0001f94e20,familiarity,27.0,aNYmb,EltMB,0.0,1.0,False,1460.0,,,,,,,,,,,,,,,,,,,,,,,,,,,,,,,,,,,,,,,,,,,,,,,,,,,,,,,,,,,,,,,,,,,,,,,,,,,,,,,,,,,,,,,,,,,,,,,,,,,,,,,,,,,,,
0,5cf14e1eb4397d0001f94e20,familiarity,28.0,OEPk,YJkb,1.0,0.0,False,1245.0,,,,,,,,,,,,,,,,,,,,,,,,,,,,,,,,,,,,,,,,,,,,,,,,,,,,,,,,,,,,,,,,,,,,,,,,,,,,,,,,,,,,,,,,,,,,,,,,,,,,,,,,,,,,,
0,5cf14e1eb4397d0001f94e20,familiarity,29.0,thbOM,Udumd,1.0,0.0,False,1159.0,,,,,,,,,,,,,,,,,,,,,,,,,,,,,,,,,,,,,,,,,,,,,,,,,,,,,,,,,,,,,,,,,,,,,,,,,,,,,,,,,,,,,,,,,,,,,,,,,,,,,,,,,,,,,
0,5cf14e1eb4397d0001f94e20,familiarity,30.0,YObA,OJGQ,0.0,0.0,True,1022.0,,,,,,,,,,,,,,,,,,,,,,,,,,,,,,,,,,,,,,,,,,,,,,,,,,,,,,,,,,,,,,,,,,,,,,,,,,,,,,,,,,,,,,,,,,,,,,,,,,,,,,,,,,,,,
0,5cf14e1eb4397d0001f94e20,testing,1.0,,,1.0,0.0,False,648.0,YObAvcb,,,,,,,,,,,,,,,,,,,,,,,,,,,,,,,,,,,,,,,,,,,,,,,,,,,,,,,,,,,,,,,,,,,,,,,,,,,,,,,,,,,,,,,,,,,,,,,,,,,,,,,,,,,,
0,5cf14e1eb4397d0001f94e20,testing,2.0,,,1.0,1.0,True,1370.0,TbKMEkJdr,,,,,,,,,,,,,,,,,,,,,,,,,,,,,,,,,,,,,,,,,,,,,,,,,,,,,,,,,,,,,,,,,,,,,,,,,,,,,,,,,,,,,,,,,,,,,,,,,,,,,,,,,,,,
0,5cf14e1eb4397d0001f94e20,testing,3.0,,,1.0,1.0,True,1512.0,bNdmGTbk,,,,,,,,,,,,,,,,,,,,,,,,,,,,,,,,,,,,,,,,,,,,,,,,,,,,,,,,,,,,,,,,,,,,,,,,,,,,,,,,,,,,,,,,,,,,,,,,,,,,,,,,,,,,
0,5cf14e1eb4397d0001f94e20,testing,4.0,,,1.0,1.0,True,1321.0,aNYmbmCd,,,,,,,,,,,,,,,,,,,,,,,,,,,,,,,,,,,,,,,,,,,,,,,,,,,,,,,,,,,,,,,,,,,,,,,,,,,,,,,,,,,,,,,,,,,,,,,,,,,,,,,,,,,,
0,5cf14e1eb4397d0001f94e20,testing,5.0,,,0.0,0.0,True,745.0,bNdmGvcb,,,,,,,,,,,,,,,,,,,,,,,,,,,,,,,,,,,,,,,,,,,,,,,,,,,,,,,,,,,,,,,,,,,,,,,,,,,,,,,,,,,,,,,,,,,,,,,,,,,,,,,,,,,,
0,5cf14e1eb4397d0001f94e20,testing,6.0,,,0.0,1.0,False,1068.0,hTtBbDmh,,,,,,,,,,,,,,,,,,,,,,,,,,,,,,,,,,,,,,,,,,,,,,,,,,,,,,,,,,,,,,,,,,,,,,,,,,,,,,,,,,,,,,,,,,,,,,,,,,,,,,,,,,,,
0,5cf14e1eb4397d0001f94e20,testing,7.0,,,1.0,0.0,False,1537.0,BEPOlLG,,,,,,,,,,,,,,,,,,,,,,,,,,,,,,,,,,,,,,,,,,,,,,,,,,,,,,,,,,,,,,,,,,,,,,,,,,,,,,,,,,,,,,,,,,,,,,,,,,,,,,,,,,,,
0,5cf14e1eb4397d0001f94e20,testing,8.0,,,0.0,1.0,False,1242.0,rGUAYkJdr,,,,,,,,,,,,,,,,,,,,,,,,,,,,,,,,,,,,,,,,,,,,,,,,,,,,,,,,,,,,,,,,,,,,,,,,,,,,,,,,,,,,,,,,,,,,,,,,,,,,,,,,,,,,
0,5cf14e1eb4397d0001f94e20,testing,9.0,,,1.0,0.0,False,714.0,UvOGDmh,,,,,,,,,,,,,,,,,,,,,,,,,,,,,,,,,,,,,,,,,,,,,,,,,,,,,,,,,,,,,,,,,,,,,,,,,,,,,,,,,,,,,,,,,,,,,,,,,,,,,,,,,,,,
0,5cf14e1eb4397d0001f94e20,testing,10.0,,,0.0,0.0,True,1013.0,YObATbk,,,,,,,,,,,,,,,,,,,,,,,,,,,,,,,,,,,,,,,,,,,,,,,,,,,,,,,,,,,,,,,,,,,,,,,,,,,,,,,,,,,,,,,,,,,,,,,,,,,,,,,,,,,,
0,5cf14e1eb4397d0001f94e20,testing,11.0,,,1.0,0.0,False,1174.0,ZcGdNYBO,,,,,,,,,,,,,,,,,,,,,,,,,,,,,,,,,,,,,,,,,,,,,,,,,,,,,,,,,,,,,,,,,,,,,,,,,,,,,,,,,,,,,,,,,,,,,,,,,,,,,,,,,,,,
0,5cf14e1eb4397d0001f94e20,testing,12.0,,,1.0,0.0,False,2305.0,adYrcCMdP,,,,,,,,,,,,,,,,,,,,,,,,,,,,,,,,,,,,,,,,,,,,,,,,,,,,,,,,,,,,,,,,,,,,,,,,,,,,,,,,,,,,,,,,,,,,,,,,,,,,,,,,,,,,
0,5cf14e1eb4397d0001f94e20,testing,13.0,,,1.0,0.0,False,910.0,MhKduOAO,,,,,,,,,,,,,,,,,,,,,,,,,,,,,,,,,,,,,,,,,,,,,,,,,,,,,,,,,,,,,,,,,,,,,,,,,,,,,,,,,,,,,,,,,,,,,,,,,,,,,,,,,,,,
0,5cf14e1eb4397d0001f94e20,testing,14.0,,,1.0,0.0,False,765.0,rGUAYYBO,,,,,,,,,,,,,,,,,,,,,,,,,,,,,,,,,,,,,,,,,,,,,,,,,,,,,,,,,,,,,,,,,,,,,,,,,,,,,,,,,,,,,,,,,,,,,,,,,,,,,,,,,,,,
0,5cf14e1eb4397d0001f94e20,testing,15.0,,,1.0,0.0,False,28.0,UYZlZDmh,,,,,,,,,,,,,,,,,,,,,,,,,,,,,,,,,,,,,,,,,,,,,,,,,,,,,,,,,,,,,,,,,,,,,,,,,,,,,,,,,,,,,,,,,,,,,,,,,,,,,,,,,,,,
0,5cf14e1eb4397d0001f94e20,testing,16.0,,,0.0,1.0,False,812.0,uAkruOAO,,,,,,,,,,,,,,,,,,,,,,,,,,,,,,,,,,,,,,,,,,,,,,,,,,,,,,,,,,,,,,,,,,,,,,,,,,,,,,,,,,,,,,,,,,,,,,,,,,,,,,,,,,,,
0,5cf14e1eb4397d0001f94e20,testing,17.0,,,0.0,0.0,True,715.0,lrZGlLG,,,,,,,,,,,,,,,,,,,,,,,,,,,,,,,,,,,,,,,,,,,,,,,,,,,,,,,,,,,,,,,,,,,,,,,,,,,,,,,,,,,,,,,,,,,,,,,,,,,,,,,,,,,,
0,5cf14e1eb4397d0001f94e20,testing,18.0,,,0.0,1.0,False,706.0,thbOMmCd,,,,,,,,,,,,,,,,,,,,,,,,,,,,,,,,,,,,,,,,,,,,,,,,,,,,,,,,,,,,,,,,,,,,,,,,,,,,,,,,,,,,,,,,,,,,,,,,,,,,,,,,,,,,
0,5cf14e1eb4397d0001f94e20,testing,19.0,,,1.0,0.0,False,699.0,DCmhkJdr,,,,,,,,,,,,,,,,,,,,,,,,,,,,,,,,,,,,,,,,,,,,,,,,,,,,,,,,,,,,,,,,,,,,,,,,,,,,,,,,,,,,,,,,,,,,,,,,,,,,,,,,,,,,
0,5cf14e1eb4397d0001f94e20,testing,20.0,,,0.0,0.0,True,831.0,hkRKDmh,,,,,,,,,,,,,,,,,,,,,,,,,,,,,,,,,,,,,,,,,,,,,,,,,,,,,,,,,,,,,,,,,,,,,,,,,,,,,,,,,,,,,,,,,,,,,,,,,,,,,,,,,,,,
0,5cf14e1eb4397d0001f94e20,testing,21.0,,,1.0,1.0,True,626.0,lrZGCMdP,,,,,,,,,,,,,,,,,,,,,,,,,,,,,,,,,,,,,,,,,,,,,,,,,,,,,,,,,,,,,,,,,,,,,,,,,,,,,,,,,,,,,,,,,,,,,,,,,,,,,,,,,,,,
0,5cf14e1eb4397d0001f94e20,testing,22.0,,,0.0,1.0,False,770.0,UvOGAld,,,,,,,,,,,,,,,,,,,,,,,,,,,,,,,,,,,,,,,,,,,,,,,,,,,,,,,,,,,,,,,,,,,,,,,,,,,,,,,,,,,,,,,,,,,,,,,,,,,,,,,,,,,,
0,5cf14e1eb4397d0001f94e20,testing,23.0,,,1.0,0.0,False,728.0,uAkrmCd,,,,,,,,,,,,,,,,,,,,,,,,,,,,,,,,,,,,,,,,,,,,,,,,,,,,,,,,,,,,,,,,,,,,,,,,,,,,,,,,,,,,,,,,,,,,,,,,,,,,,,,,,,,,
0,5cf14e1eb4397d0001f94e20,testing,24.0,,,1.0,0.0,False,611.0,BATOclLG,,,,,,,,,,,,,,,,,,,,,,,,,,,,,,,,,,,,,,,,,,,,,,,,,,,,,,,,,,,,,,,,,,,,,,,,,,,,,,,,,,,,,,,,,,,,,,,,,,,,,,,,,,,,
0,5cf14e1eb4397d0001f94e20,testing,25.0,,,1.0,0.0,False,720.0,bYuQTbk,,,,,,,,,,,,,,,,,,,,,,,,,,,,,,,,,,,,,,,,,,,,,,,,,,,,,,,,,,,,,,,,,,,,,,,,,,,,,,,,,,,,,,,,,,,,,,,,,,,,,,,,,,,,
0,5cf14e1eb4397d0001f94e20,testing,26.0,,,1.0,0.0,False,660.0,OEPkvcb,,,,,,,,,,,,,,,,,,,,,,,,,,,,,,,,,,,,,,,,,,,,,,,,,,,,,,,,,,,,,,,,,,,,,,,,,,,,,,,,,,,,,,,,,,,,,,,,,,,,,,,,,,,,
0,5cf14e1eb4397d0001f94e20,testing,27.0,,,0.0,0.0,True,738.0,ZcGdNkJdr,,,,,,,,,,,,,,,,,,,,,,,,,,,,,,,,,,,,,,,,,,,,,,,,,,,,,,,,,,,,,,,,,,,,,,,,,,,,,,,,,,,,,,,,,,,,,,,,,,,,,,,,,,,,
0,5cf14e1eb4397d0001f94e20,testing,28.0,,,0.0,0.0,True,654.0,DCmhYBO,,,,,,,,,,,,,,,,,,,,,,,,,,,,,,,,,,,,,,,,,,,,,,,,,,,,,,,,,,,,,,,,,,,,,,,,,,,,,,,,,,,,,,,,,,,,,,,,,,,,,,,,,,,,
0,5cf14e1eb4397d0001f94e20,testing,29.0,,,0.0,0.0,True,644.0,BEPOCMdP,,,,,,,,,,,,,,,,,,,,,,,,,,,,,,,,,,,,,,,,,,,,,,,,,,,,,,,,,,,,,,,,,,,,,,,,,,,,,,,,,,,,,,,,,,,,,,,,,,,,,,,,,,,,
0,5cf14e1eb4397d0001f94e20,testing,30.0,,,0.0,0.0,True,770.0,OEPkTbk,,,,,,,,,,,,,,,,,,,,,,,,,,,,,,,,,,,,,,,,,,,,,,,,,,,,,,,,,,,,,,,,,,,,,,,,,,,,,,,,,,,,,,,,,,,,,,,,,,,,,,,,,,,,
0,5cf14e1eb4397d0001f94e20,testing,31.0,,,1.0,0.0,False,910.0,hTtBbAld,,,,,,,,,,,,,,,,,,,,,,,,,,,,,,,,,,,,,,,,,,,,,,,,,,,,,,,,,,,,,,,,,,,,,,,,,,,,,,,,,,,,,,,,,,,,,,,,,,,,,,,,,,,,
0,5cf14e1eb4397d0001f94e20,testing,32.0,,,0.0,1.0,False,802.0,aNYmbuOAO,,,,,,,,,,,,,,,,,,,,,,,,,,,,,,,,,,,,,,,,,,,,,,,,,,,,,,,,,,,,,,,,,,,,,,,,,,,,,,,,,,,,,,,,,,,,,,,,,,,,,,,,,,,,
0,5cf14e1eb4397d0001f94e20,testing,33.0,,,0.0,0.0,True,729.0,BATOcCMdP,,,,,,,,,,,,,,,,,,,,,,,,,,,,,,,,,,,,,,,,,,,,,,,,,,,,,,,,,,,,,,,,,,,,,,,,,,,,,,,,,,,,,,,,,,,,,,,,,,,,,,,,,,,,
0,5cf14e1eb4397d0001f94e20,testing,34.0,,,0.0,1.0,False,562.0,bYuQvcb,,,,,,,,,,,,,,,,,,,,,,,,,,,,,,,,,,,,,,,,,,,,,,,,,,,,,,,,,,,,,,,,,,,,,,,,,,,,,,,,,,,,,,,,,,,,,,,,,,,,,,,,,,,,
0,5cf14e1eb4397d0001f94e20,testing,35.0,,,0.0,1.0,False,561.0,adYrclLG,,,,,,,,,,,,,,,,,,,,,,,,,,,,,,,,,,,,,,,,,,,,,,,,,,,,,,,,,,,,,,,,,,,,,,,,,,,,,,,,,,,,,,,,,,,,,,,,,,,,,,,,,,,,
0,5cf14e1eb4397d0001f94e20,testing,36.0,,,1.0,1.0,True,684.0,hkRKAld,,,,,,,,,,,,,,,,,,,,,,,,,,,,,,,,,,,,,,,,,,,,,,,,,,,,,,,,,,,,,,,,,,,,,,,,,,,,,,,,,,,,,,,,,,,,,,,,,,,,,,,,,,,,
0,5cf14e1eb4397d0001f94e20,testing,37.0,,,0.0,0.0,True,713.0,TbKMEYBO,,,,,,,,,,,,,,,,,,,,,,,,,,,,,,,,,,,,,,,,,,,,,,,,,,,,,,,,,,,,,,,,,,,,,,,,,,,,,,,,,,,,,,,,,,,,,,,,,,,,,,,,,,,,
0,5cf14e1eb4397d0001f94e20,testing,38.0,,,0.0,1.0,False,540.0,UYZlZAld,,,,,,,,,,,,,,,,,,,,,,,,,,,,,,,,,,,,,,,,,,,,,,,,,,,,,,,,,,,,,,,,,,,,,,,,,,,,,,,,,,,,,,,,,,,,,,,,,,,,,,,,,,,,
0,5cf14e1eb4397d0001f94e20,testing,39.0,,,0.0,1.0,False,694.0,MhKdmCd,,,,,,,,,,,,,,,,,,,,,,,,,,,,,,,,,,,,,,,,,,,,,,,,,,,,,,,,,,,,,,,,,,,,,,,,,,,,,,,,,,,,,,,,,,,,,,,,,,,,,,,,,,,,
0,5cf14e1eb4397d0001f94e20,testing,40.0,,,1.0,1.0,True,701.0,thbOMuOAO,,,,,,,,,,,,,,,,,,,,,,,,,,,,,,,,,,,,,,,,,,,,,,,,,,,,,,,,,,,,,,,,,,,,,,,,,,,,,,,,,,,,,,,,,,,,,,,,,,,,,,,,,,,,
0,5d97c38dce449e001244dc15,BLP,,,,,,,,,25,Uomo,Master,portoghese,inglese,italiano,francese,spagnolo,0.0,2.0,15.0,6.0,0.0,10.0,18.0,16.0,17.0,12.0,1.0,3.0,20.0,0.0,0.0,0.0,20.0,0.0,0.0,0.0,3.0,3.0,0.0,0.0,9.0,1.0,0.0,0.0,10.0,0.0,0.0,0.0,7.0,2.0,1.0,0.0,8.0,1.0,1.0,0.0,10.0,0.0,0.0,0.0,6.0,6.0,4.0,3.0,6.0,6.0,5.0,4.0,6.0,6.0,5.0,5.0,true,true,true,true,6.0,5.0,5.0,3.0,6.0,4.0,2.0,2.0,6.0,1.0,4.0,2.0,6.0,6.0,3.0,3.0,6.0,6.0,2.0,2.0,27.240000000000002,12.258000000000001,15.436,11.35,47.96,4.36,2.18,0.0,54.480000000000004,52.21,43.13,34.05,54.480000000000004,38.59,24.97,20.43,184.16000000000003,107.418,85.71600000000001,65.83
0,5d97c38dce449e001244dc15,familiarity,1.0,kcOY,alJY,0.0,0.0,True,2850.0,,,,,,,,,,,,,,,,,,,,,,,,,,,,,,,,,,,,,,,,,,,,,,,,,,,,,,,,,,,,,,,,,,,,,,,,,,,,,,,,,,,,,,,,,,,,,,,,,,,,,,,,,,,,,
0,5d97c38dce449e001244dc15,familiarity,2.0,DMRP,JmNk,1.0,1.0,True,1905.0,,,,,,,,,,,,,,,,,,,,,,,,,,,,,,,,,,,,,,,,,,,,,,,,,,,,,,,,,,,,,,,,,,,,,,,,,,,,,,,,,,,,,,,,,,,,,,,,,,,,,,,,,,,,,
0,5d97c38dce449e001244dc15,familiarity,3.0,YOaAb,KAERM,0.0,1.0,False,2761.0,,,,,,,,,,,,,,,,,,,,,,,,,,,,,,,,,,,,,,,,,,,,,,,,,,,,,,,,,,,,,,,,,,,,,,,,,,,,,,,,,,,,,,,,,,,,,,,,,,,,,,,,,,,,,
0,5d97c38dce449e001244dc15,familiarity,4.0,JZr,Akd,1.0,0.0,False,1685.0,,,,,,,,,,,,,,,,,,,,,,,,,,,,,,,,,,,,,,,,,,,,,,,,,,,,,,,,,,,,,,,,,,,,,,,,,,,,,,,,,,,,,,,,,,,,,,,,,,,,,,,,,,,,,
0,5d97c38dce449e001244dc15,familiarity,5.0,TdmA,ORbk,0.0,0.0,True,2020.0,,,,,,,,,,,,,,,,,,,,,,,,,,,,,,,,,,,,,,,,,,,,,,,,,,,,,,,,,,,,,,,,,,,,,,,,,,,,,,,,,,,,,,,,,,,,,,,,,,,,,,,,,,,,,
0,5d97c38dce449e001244dc15,familiarity,6.0,dGLAl,rbYbu,0.0,0.0,True,1680.0,,,,,,,,,,,,,,,,,,,,,,,,,,,,,,,,,,,,,,,,,,,,,,,,,,,,,,,,,,,,,,,,,,,,,,,,,,,,,,,,,,,,,,,,,,,,,,,,,,,,,,,,,,,,,
0,5d97c38dce449e001244dc15,familiarity,7.0,BOckP,Blmcl,1.0,1.0,True,1476.0,,,,,,,,,,,,,,,,,,,,,,,,,,,,,,,,,,,,,,,,,,,,,,,,,,,,,,,,,,,,,,,,,,,,,,,,,,,,,,,,,,,,,,,,,,,,,,,,,,,,,,,,,,,,,
0,5d97c38dce449e001244dc15,familiarity,8.0,Amacl,KTDTB,1.0,1.0,True,1776.0,,,,,,,,,,,,,,,,,,,,,,,,,,,,,,,,,,,,,,,,,,,,,,,,,,,,,,,,,,,,,,,,,,,,,,,,,,,,,,,,,,,,,,,,,,,,,,,,,,,,,,,,,,,,,
0,5d97c38dce449e001244dc15,familiarity,9.0,OJGQ,NYZu,1.0,1.0,True,1712.0,,,,,,,,,,,,,,,,,,,,,,,,,,,,,,,,,,,,,,,,,,,,,,,,,,,,,,,,,,,,,,,,,,,,,,,,,,,,,,,,,,,,,,,,,,,,,,,,,,,,,,,,,,,,,
0,5d97c38dce449e001244dc15,familiarity,10.0,PYkC,khmh,0.0,0.0,True,1416.0,,,,,,,,,,,,,,,,,,,,,,,,,,,,,,,,,,,,,,,,,,,,,,,,,,,,,,,,,,,,,,,,,,,,,,,,,,,,,,,,,,,,,,,,,,,,,,,,,,,,,,,,,,,,,
0,5d97c38dce449e001244dc15,familiarity,11.0,OdlNm,MkmEd,1.0,1.0,True,2793.0,,,,,,,,,,,,,,,,,,,,,,,,,,,,,,,,,,,,,,,,,,,,,,,,,,,,,,,,,,,,,,,,,,,,,,,,,,,,,,,,,,,,,,,,,,,,,,,,,,,,,,,,,,,,,
0,5d97c38dce449e001244dc15,familiarity,12.0,bNdmG,kcdOt,1.0,0.0,False,2158.0,,,,,,,,,,,,,,,,,,,,,,,,,,,,,,,,,,,,,,,,,,,,,,,,,,,,,,,,,,,,,,,,,,,,,,,,,,,,,,,,,,,,,,,,,,,,,,,,,,,,,,,,,,,,,
0,5d97c38dce449e001244dc15,familiarity,13.0,RCdc,cYUv,0.0,0.0,True,1218.0,,,,,,,,,,,,,,,,,,,,,,,,,,,,,,,,,,,,,,,,,,,,,,,,,,,,,,,,,,,,,,,,,,,,,,,,,,,,,,,,,,,,,,,,,,,,,,,,,,,,,,,,,,,,,
0,5d97c38dce449e001244dc15,familiarity,14.0,UAcdu,Ldrbv,0.0,0.0,True,2449.0,,,,,,,,,,,,,,,,,,,,,,,,,,,,,,,,,,,,,,,,,,,,,,,,,,,,,,,,,,,,,,,,,,,,,,,,,,,,,,,,,,,,,,,,,,,,,,,,,,,,,,,,,,,,,
0,5d97c38dce449e001244dc15,familiarity,15.0,mARM,mbZl,1.0,1.0,True,2340.0,,,,,,,,,,,,,,,,,,,,,,,,,,,,,,,,,,,,,,,,,,,,,,,,,,,,,,,,,,,,,,,,,,,,,,,,,,,,,,,,,,,,,,,,,,,,,,,,,,,,,,,,,,,,,
0,5d97c38dce449e001244dc15,familiarity,16.0,rkJu,PlEK,0.0,1.0,False,1609.0,,,,,,,,,,,,,,,,,,,,,,,,,,,,,,,,,,,,,,,,,,,,,,,,,,,,,,,,,,,,,,,,,,,,,,,,,,,,,,,,,,,,,,,,,,,,,,,,,,,,,,,,,,,,,
0,5d97c38dce449e001244dc15,familiarity,17.0,mLdkZ,BOCRM,0.0,0.0,True,2158.0,,,,,,,,,,,,,,,,,,,,,,,,,,,,,,,,,,,,,,,,,,,,,,,,,,,,,,,,,,,,,,,,,,,,,,,,,,,,,,,,,,,,,,,,,,,,,,,,,,,,,,,,,,,,,
0,5d97c38dce449e001244dc15,familiarity,18.0,YlYc,YArG,0.0,0.0,True,2469.0,,,,,,,,,,,,,,,,,,,,,,,,,,,,,,,,,,,,,,,,,,,,,,,,,,,,,,,,,,,,,,,,,,,,,,,,,,,,,,,,,,,,,,,,,,,,,,,,,,,,,,,,,,,,,
0,5d97c38dce449e001244dc15,familiarity,19.0,DlDT,aYaN,1.0,1.0,True,1365.0,,,,,,,,,,,,,,,,,,,,,,,,,,,,,,,,,,,,,,,,,,,,,,,,,,,,,,,,,,,,,,,,,,,,,,,,,,,,,,,,,,,,,,,,,,,,,,,,,,,,,,,,,,,,,
0,5d97c38dce449e001244dc15,familiarity,20.0,Dmh,aQr,0.0,0.0,True,2906.0,,,,,,,,,,,,,,,,,,,,,,,,,,,,,,,,,,,,,,,,,,,,,,,,,,,,,,,,,,,,,,,,,,,,,,,,,,,,,,,,,,,,,,,,,,,,,,,,,,,,,,,,,,,,,
0,5d97c38dce449e001244dc15,familiarity,21.0,RYtkc,JZOAk,0.0,0.0,True,2318.0,,,,,,,,,,,,,,,,,,,,,,,,,,,,,,,,,,,,,,,,,,,,,,,,,,,,,,,,,,,,,,,,,,,,,,,,,,,,,,,,,,,,,,,,,,,,,,,,,,,,,,,,,,,,,
0,5d97c38dce449e001244dc15,familiarity,22.0,NUZ,Ymb,0.0,1.0,False,1376.0,,,,,,,,,,,,,,,,,,,,,,,,,,,,,,,,,,,,,,,,,,,,,,,,,,,,,,,,,,,,,,,,,,,,,,,,,,,,,,,,,,,,,,,,,,,,,,,,,,,,,,,,,,,,,
0,5d97c38dce449e001244dc15,familiarity,23.0,UvOG,OJNk,1.0,0.0,False,2165.0,,,,,,,,,,,,,,,,,,,,,,,,,,,,,,,,,,,,,,,,,,,,,,,,,,,,,,,,,,,,,,,,,,,,,,,,,,,,,,,,,,,,,,,,,,,,,,,,,,,,,,,,,,,,,
0,5d97c38dce449e001244dc15,familiarity,24.0,TmTm,KEdl,0.0,0.0,True,1746.0,,,,,,,,,,,,,,,,,,,,,,,,,,,,,,,,,,,,,,,,,,,,,,,,,,,,,,,,,,,,,,,,,,,,,,,,,,,,,,,,,,,,,,,,,,,,,,,,,,,,,,,,,,,,,
0,5d97c38dce449e001244dc15,familiarity,25.0,EPERd,OAmGr,0.0,0.0,True,1480.0,,,,,,,,,,,,,,,,,,,,,,,,,,,,,,,,,,,,,,,,,,,,,,,,,,,,,,,,,,,,,,,,,,,,,,,,,,,,,,,,,,,,,,,,,,,,,,,,,,,,,,,,,,,,,
0,5d97c38dce449e001244dc15,familiarity,26.0,kdrO,YJkb,0.0,0.0,True,3274.0,,,,,,,,,,,,,,,,,,,,,,,,,,,,,,,,,,,,,,,,,,,,,,,,,,,,,,,,,,,,,,,,,,,,,,,,,,,,,,,,,,,,,,,,,,,,,,,,,,,,,,,,,,,,,
0,5d97c38dce449e001244dc15,familiarity,27.0,BRDh,LuaU,1.0,1.0,True,2048.0,,,,,,,,,,,,,,,,,,,,,,,,,,,,,,,,,,,,,,,,,,,,,,,,,,,,,,,,,,,,,,,,,,,,,,,,,,,,,,,,,,,,,,,,,,,,,,,,,,,,,,,,,,,,,
0,5d97c38dce449e001244dc15,familiarity,28.0,DlDd,JAaG,1.0,1.0,True,1245.0,,,,,,,,,,,,,,,,,,,,,,,,,,,,,,,,,,,,,,,,,,,,,,,,,,,,,,,,,,,,,,,,,,,,,,,,,,,,,,,,,,,,,,,,,,,,,,,,,,,,,,,,,,,,,
0,5d97c38dce449e001244dc15,familiarity,29.0,JcUk,APEM,0.0,1.0,False,2271.0,,,,,,,,,,,,,,,,,,,,,,,,,,,,,,,,,,,,,,,,,,,,,,,,,,,,,,,,,,,,,,,,,,,,,,,,,,,,,,,,,,,,,,,,,,,,,,,,,,,,,,,,,,,,,
0,5d97c38dce449e001244dc15,familiarity,30.0,ark,Tbk,1.0,0.0,False,1653.0,,,,,,,,,,,,,,,,,,,,,,,,,,,,,,,,,,,,,,,,,,,,,,,,,,,,,,,,,,,,,,,,,,,,,,,,,,,,,,,,,,,,,,,,,,,,,,,,,,,,,,,,,,,,,
0,5d97c38dce449e001244dc15,testing,1.0,,,0.0,0.0,True,2827.0,mARMRCdc,,,,,,,,,,,,,,,,,,,,,,,,,,,,,,,,,,,,,,,,,,,,,,,,,,,,,,,,,,,,,,,,,,,,,,,,,,,,,,,,,,,,,,,,,,,,,,,,,,,,,,,,,,,,
0,5d97c38dce449e001244dc15,testing,2.0,,,1.0,1.0,True,1044.0,UvOGDmh,,,,,,,,,,,,,,,,,,,,,,,,,,,,,,,,,,,,,,,,,,,,,,,,,,,,,,,,,,,,,,,,,,,,,,,,,,,,,,,,,,,,,,,,,,,,,,,,,,,,,,,,,,,,
0,5d97c38dce449e001244dc15,testing,3.0,,,1.0,0.0,False,1271.0,bNdmGTmTm,,,,,,,,,,,,,,,,,,,,,,,,,,,,,,,,,,,,,,,,,,,,,,,,,,,,,,,,,,,,,,,,,,,,,,,,,,,,,,,,,,,,,,,,,,,,,,,,,,,,,,,,,,,,
0,5d97c38dce449e001244dc15,testing,4.0,,,1.0,0.0,False,1278.0,RYtkckdrO,,,,,,,,,,,,,,,,,,,,,,,,,,,,,,,,,,,,,,,,,,,,,,,,,,,,,,,,,,,,,,,,,,,,,,,,,,,,,,,,,,,,,,,,,,,,,,,,,,,,,,,,,,,,
0,5d97c38dce449e001244dc15,testing,5.0,,,1.0,0.0,False,1230.0,AmaclBRDh,,,,,,,,,,,,,,,,,,,,,,,,,,,,,,,,,,,,,,,,,,,,,,,,,,,,,,,,,,,,,,,,,,,,,,,,,,,,,,,,,,,,,,,,,,,,,,,,,,,,,,,,,,,,
0,5d97c38dce449e001244dc15,testing,6.0,,,1.0,1.0,True,1183.0,TdmAkdrO,,,,,,,,,,,,,,,,,,,,,,,,,,,,,,,,,,,,,,,,,,,,,,,,,,,,,,,,,,,,,,,,,,,,,,,,,,,,,,,,,,,,,,,,,,,,,,,,,,,,,,,,,,,,
0,5d97c38dce449e001244dc15,testing,7.0,,,0.0,0.0,True,1512.0,PYkCDlDT,,,,,,,,,,,,,,,,,,,,,,,,,,,,,,,,,,,,,,,,,,,,,,,,,,,,,,,,,,,,,,,,,,,,,,,,,,,,,,,,,,,,,,,,,,,,,,,,,,,,,,,,,,,,
0,5d97c38dce449e001244dc15,testing,8.0,,,0.0,0.0,True,1456.0,DMRPDmh,,,,,,,,,,,,,,,,,,,,,,,,,,,,,,,,,,,,,,,,,,,,,,,,,,,,,,,,,,,,,,,,,,,,,,,,,,,,,,,,,,,,,,,,,,,,,,,,,,,,,,,,,,,,
0,5d97c38dce449e001244dc15,testing,9.0,,,1.0,1.0,True,1355.0,mARMJZr,,,,,,,,,,,,,,,,,,,,,,,,,,,,,,,,,,,,,,,,,,,,,,,,,,,,,,,,,,,,,,,,,,,,,,,,,,,,,,,,,,,,,,,,,,,,,,,,,,,,,,,,,,,,
0,5d97c38dce449e001244dc15,testing,10.0,,,1.0,1.0,True,1634.0,BOckPNUZ,,,,,,,,,,,,,,,,,,,,,,,,,,,,,,,,,,,,,,,,,,,,,,,,,,,,,,,,,,,,,,,,,,,,,,,,,,,,,,,,,,,,,,,,,,,,,,,,,,,,,,,,,,,,
0,5d97c38dce449e001244dc15,testing,11.0,,,1.0,1.0,True,1419.0,OJGQRCdc,,,,,,,,,,,,,,,,,,,,,,,,,,,,,,,,,,,,,,,,,,,,,,,,,,,,,,,,,,,,,,,,,,,,,,,,,,,,,,,,,,,,,,,,,,,,,,,,,,,,,,,,,,,,
0,5d97c38dce449e001244dc15,testing,12.0,,,0.0,0.0,True,1282.0,YlYcTmTm,,,,,,,,,,,,,,,,,,,,,,,,,,,,,,,,,,,,,,,,,,,,,,,,,,,,,,,,,,,,,,,,,,,,,,,,,,,,,,,,,,,,,,,,,,,,,,,,,,,,,,,,,,,,
0,5d97c38dce449e001244dc15,testing,13.0,,,0.0,0.0,True,1319.0,TdmABRDh,,,,,,,,,,,,,,,,,,,,,,,,,,,,,,,,,,,,,,,,,,,,,,,,,,,,,,,,,,,,,,,,,,,,,,,,,,,,,,,,,,,,,,,,,,,,,,,,,,,,,,,,,,,,
0,5d97c38dce449e001244dc15,testing,14.0,,,0.0,0.0,True,1241.0,UAcduJZr,,,,,,,,,,,,,,,,,,,,,,,,,,,,,,,,,,,,,,,,,,,,,,,,,,,,,,,,,,,,,,,,,,,,,,,,,,,,,,,,,,,,,,,,,,,,,,,,,,,,,,,,,,,,
0,5d97c38dce449e001244dc15,testing,15.0,,,1.0,0.0,False,1368.0,mLdkZBRDh,,,,,,,,,,,,,,,,,,,,,,,,,,,,,,,,,,,,,,,,,,,,,,,,,,,,,,,,,,,,,,,,,,,,,,,,,,,,,,,,,,,,,,,,,,,,,,,,,,,,,,,,,,,,
0,5d97c38dce449e001244dc15,testing,16.0,,,1.0,0.0,False,1167.0,PYkCNUZ,,,,,,,,,,,,,,,,,,,,,,,,,,,,,,,,,,,,,,,,,,,,,,,,,,,,,,,,,,,,,,,,,,,,,,,,,,,,,,,,,,,,,,,,,,,,,,,,,,,,,,,,,,,,
0,5d97c38dce449e001244dc15,testing,17.0,,,1.0,1.0,True,1052.0,rkJuDlDT,,,,,,,,,,,,,,,,,,,,,,,,,,,,,,,,,,,,,,,,,,,,,,,,,,,,,,,,,,,,,,,,,,,,,,,,,,,,,,,,,,,,,,,,,,,,,,,,,,,,,,,,,,,,
0,5d97c38dce449e001244dc15,testing,18.0,,,0.0,0.0,True,1588.0,UvOGJcUk,,,,,,,,,,,,,,,,,,,,,,,,,,,,,,,,,,,,,,,,,,,,,,,,,,,,,,,,,,,,,,,,,,,,,,,,,,,,,,,,,,,,,,,,,,,,,,,,,,,,,,,,,,,,
0,5d97c38dce449e001244dc15,testing,19.0,,,1.0,0.0,False,1281.0,DlDdark,,,,,,,,,,,,,,,,,,,,,,,,,,,,,,,,,,,,,,,,,,,,,,,,,,,,,,,,,,,,,,,,,,,,,,,,,,,,,,,,,,,,,,,,,,,,,,,,,,,,,,,,,,,,
0,5d97c38dce449e001244dc15,testing,20.0,,,0.0,1.0,False,1313.0,kcOYDmh,,,,,,,,,,,,,,,,,,,,,,,,,,,,,,,,,,,,,,,,,,,,,,,,,,,,,,,,,,,,,,,,,,,,,,,,,,,,,,,,,,,,,,,,,,,,,,,,,,,,,,,,,,,,
0,5d97c38dce449e001244dc15,testing,21.0,,,0.0,1.0,False,1308.0,RYtkcBRDh,,,,,,,,,,,,,,,,,,,,,,,,,,,,,,,,,,,,,,,,,,,,,,,,,,,,,,,,,,,,,,,,,,,,,,,,,,,,,,,,,,,,,,,,,,,,,,,,,,,,,,,,,,,,
0,5d97c38dce449e001244dc15,testing,22.0,,,0.0,0.0,True,1691.0,YOaAbNUZ,,,,,,,,,,,,,,,,,,,,,,,,,,,,,,,,,,,,,,,,,,,,,,,,,,,,,,,,,,,,,,,,,,,,,,,,,,,,,,,,,,,,,,,,,,,,,,,,,,,,,,,,,,,,
0,5d97c38dce449e001244dc15,testing,23.0,,,1.0,1.0,True,1351.0,YlYcark,,,,,,,,,,,,,,,,,,,,,,,,,,,,,,,,,,,,,,,,,,,,,,,,,,,,,,,,,,,,,,,,,,,,,,,,,,,,,,,,,,,,,,,,,,,,,,,,,,,,,,,,,,,,
0,5d97c38dce449e001244dc15,testing,24.0,,,0.0,1.0,False,1131.0,OdlNmJcUk,,,,,,,,,,,,,,,,,,,,,,,,,,,,,,,,,,,,,,,,,,,,,,,,,,,,,,,,,,,,,,,,,,,,,,,,,,,,,,,,,,,,,,,,,,,,,,,,,,,,,,,,,,,,
0,5d97c38dce449e001244dc15,testing,25.0,,,0.0,0.0,True,858.0,OJGQJZr,,,,,,,,,,,,,,,,,,,,,,,,,,,,,,,,,,,,,,,,,,,,,,,,,,,,,,,,,,,,,,,,,,,,,,,,,,,,,,,,,,,,,,,,,,,,,,,,,,,,,,,,,,,,
0,5d97c38dce449e001244dc15,testing,26.0,,,0.0,0.0,True,1270.0,dGLAlark,,,,,,,,,,,,,,,,,,,,,,,,,,,,,,,,,,,,,,,,,,,,,,,,,,,,,,,,,,,,,,,,,,,,,,,,,,,,,,,,,,,,,,,,,,,,,,,,,,,,,,,,,,,,
0,5d97c38dce449e001244dc15,testing,27.0,,,0.0,0.0,True,1033.0,mLdkZkdrO,,,,,,,,,,,,,,,,,,,,,,,,,,,,,,,,,,,,,,,,,,,,,,,,,,,,,,,,,,,,,,,,,,,,,,,,,,,,,,,,,,,,,,,,,,,,,,,,,,,,,,,,,,,,
0,5d97c38dce449e001244dc15,testing,28.0,,,1.0,0.0,False,864.0,EPERdJZr,,,,,,,,,,,,,,,,,,,,,,,,,,,,,,,,,,,,,,,,,,,,,,,,,,,,,,,,,,,,,,,,,,,,,,,,,,,,,,,,,,,,,,,,,,,,,,,,,,,,,,,,,,,,
0,5d97c38dce449e001244dc15,testing,29.0,,,1.0,0.0,False,1434.0,dGLAlTmTm,,,,,,,,,,,,,,,,,,,,,,,,,,,,,,,,,,,,,,,,,,,,,,,,,,,,,,,,,,,,,,,,,,,,,,,,,,,,,,,,,,,,,,,,,,,,,,,,,,,,,,,,,,,,
0,5d97c38dce449e001244dc15,testing,30.0,,,1.0,1.0,True,1409.0,DMRPJcUk,,,,,,,,,,,,,,,,,,,,,,,,,,,,,,,,,,,,,,,,,,,,,,,,,,,,,,,,,,,,,,,,,,,,,,,,,,,,,,,,,,,,,,,,,,,,,,,,,,,,,,,,,,,,
0,5d97c38dce449e001244dc15,testing,31.0,,,1.0,1.0,True,1281.0,OdlNmDmh,,,,,,,,,,,,,,,,,,,,,,,,,,,,,,,,,,,,,,,,,,,,,,,,,,,,,,,,,,,,,,,,,,,,,,,,,,,,,,,,,,,,,,,,,,,,,,,,,,,,,,,,,,,,
0,5d97c38dce449e001244dc15,testing,32.0,,,0.0,0.0,True,1800.0,AmaclkdrO,,,,,,,,,,,,,,,,,,,,,,,,,,,,,,,,,,,,,,,,,,,,,,,,,,,,,,,,,,,,,,,,,,,,,,,,,,,,,,,,,,,,,,,,,,,,,,,,,,,,,,,,,,,,
0,5d97c38dce449e001244dc15,testing,33.0,,,0.0,1.0,False,1389.0,BOckPDlDT,,,,,,,,,,,,,,,,,,,,,,,,,,,,,,,,,,,,,,,,,,,,,,,,,,,,,,,,,,,,,,,,,,,,,,,,,,,,,,,,,,,,,,,,,,,,,,,,,,,,,,,,,,,,
0,5d97c38dce449e001244dc15,testing,34.0,,,0.0,1.0,False,1258.0,rkJuNUZ,,,,,,,,,,,,,,,,,,,,,,,,,,,,,,,,,,,,,,,,,,,,,,,,,,,,,,,,,,,,,,,,,,,,,,,,,,,,,,,,,,,,,,,,,,,,,,,,,,,,,,,,,,,,
0,5d97c38dce449e001244dc15,testing,35.0,,,1.0,0.0,False,1492.0,UAcduRCdc,,,,,,,,,,,,,,,,,,,,,,,,,,,,,,,,,,,,,,,,,,,,,,,,,,,,,,,,,,,,,,,,,,,,,,,,,,,,,,,,,,,,,,,,,,,,,,,,,,,,,,,,,,,,
0,5d97c38dce449e001244dc15,testing,36.0,,,0.0,0.0,True,1057.0,DlDdTmTm,,,,,,,,,,,,,,,,,,,,,,,,,,,,,,,,,,,,,,,,,,,,,,,,,,,,,,,,,,,,,,,,,,,,,,,,,,,,,,,,,,,,,,,,,,,,,,,,,,,,,,,,,,,,
0,5d97c38dce449e001244dc15,testing,37.0,,,1.0,1.0,True,1178.0,YOaAbDlDT,,,,,,,,,,,,,,,,,,,,,,,,,,,,,,,,,,,,,,,,,,,,,,,,,,,,,,,,,,,,,,,,,,,,,,,,,,,,,,,,,,,,,,,,,,,,,,,,,,,,,,,,,,,,
0,5d97c38dce449e001244dc15,testing,38.0,,,0.0,0.0,True,917.0,EPERdRCdc,,,,,,,,,,,,,,,,,,,,,,,,,,,,,,,,,,,,,,,,,,,,,,,,,,,,,,,,,,,,,,,,,,,,,,,,,,,,,,,,,,,,,,,,,,,,,,,,,,,,,,,,,,,,
0,5d97c38dce449e001244dc15,testing,39.0,,,1.0,0.0,False,1149.0,kcOYJcUk,,,,,,,,,,,,,,,,,,,,,,,,,,,,,,,,,,,,,,,,,,,,,,,,,,,,,,,,,,,,,,,,,,,,,,,,,,,,,,,,,,,,,,,,,,,,,,,,,,,,,,,,,,,,
0,5d97c38dce449e001244dc15,testing,40.0,,,0.0,0.0,True,1258.0,bNdmGark,,,,,,,,,,,,,,,,,,,,,,,,,,,,,,,,,,,,,,,,,,,,,,,,,,,,,,,,,,,,,,,,,,,,,,,,,,,,,,,,,,,,,,,,,,,,,,,,,,,,,,,,,,,,
0,5e80c7d61a07dd7b0d8f0111,BLP,,,,,,,,,25,Donna,Uni2,Italiano,Inglese,Coreano,n/a,no,0.0,14.0,0.0,,0.0,9.0,0.0,,20.0,5.0,0.0,,20.0,0.0,0.0,,20.0,0.0,0.0,,3.0,0.0,0.0,,10.0,3.0,1.0,,10.0,0.0,0.0,,10.0,1.0,0.0,,8.0,1.0,1.0,,10.0,0.0,0.0,,6.0,4.0,2.0,,6.0,5.0,2.0,,6.0,4.0,2.0,,true,true,true,,6.0,3.0,1.0,,6.0,2.0,0.0,,6.0,0.0,0.0,,6.0,0.0,0.0,,6.0,0.0,0.0,,28.602,12.712,0.0,0.0,52.32000000000001,5.45,2.18,0.0,54.480000000000004,36.32,15.89,0.0,54.480000000000004,4.54,0.0,0.0,189.882,59.022,18.07,0.0
0,5e80c7d61a07dd7b0d8f0111,familiarity,1.0,GUOA,OcYM,1.0,0.0,False,1612.0,,,,,,,,,,,,,,,,,,,,,,,,,,,,,,,,,,,,,,,,,,,,,,,,,,,,,,,,,,,,,,,,,,,,,,,,,,,,,,,,,,,,,,,,,,,,,,,,,,,,,,,,,,,,,
0,5e80c7d61a07dd7b0d8f0111,familiarity,2.0,COTK,hRKm,1.0,0.0,False,1254.0,,,,,,,,,,,,,,,,,,,,,,,,,,,,,,,,,,,,,,,,,,,,,,,,,,,,,,,,,,,,,,,,,,,,,,,,,,,,,,,,,,,,,,,,,,,,,,,,,,,,,,,,,,,,,
0,5e80c7d61a07dd7b0d8f0111,familiarity,3.0,rAm,Jud,1.0,1.0,True,2082.0,,,,,,,,,,,,,,,,,,,,,,,,,,,,,,,,,,,,,,,,,,,,,,,,,,,,,,,,,,,,,,,,,,,,,,,,,,,,,,,,,,,,,,,,,,,,,,,,,,,,,,,,,,,,,
0,5e80c7d61a07dd7b0d8f0111,familiarity,4.0,tAY,mvG,1.0,1.0,True,1641.0,,,,,,,,,,,,,,,,,,,,,,,,,,,,,,,,,,,,,,,,,,,,,,,,,,,,,,,,,,,,,,,,,,,,,,,,,,,,,,,,,,,,,,,,,,,,,,,,,,,,,,,,,,,,,
0,5e80c7d61a07dd7b0d8f0111,familiarity,5.0,dTAh,kCRm,1.0,1.0,True,1101.0,,,,,,,,,,,,,,,,,,,,,,,,,,,,,,,,,,,,,,,,,,,,,,,,,,,,,,,,,,,,,,,,,,,,,,,,,,,,,,,,,,,,,,,,,,,,,,,,,,,,,,,,,,,,,
0,5e80c7d61a07dd7b0d8f0111,familiarity,6.0,NbmQU,AZaJc,1.0,0.0,False,1797.0,,,,,,,,,,,,,,,,,,,,,,,,,,,,,,,,,,,,,,,,,,,,,,,,,,,,,,,,,,,,,,,,,,,,,,,,,,,,,,,,,,,,,,,,,,,,,,,,,,,,,,,,,,,,,
0,5e80c7d61a07dd7b0d8f0111,familiarity,7.0,DmAME,aNYmb,0.0,0.0,True,1055.0,,,,,,,,,,,,,,,,,,,,,,,,,,,,,,,,,,,,,,,,,,,,,,,,,,,,,,,,,,,,,,,,,,,,,,,,,,,,,,,,,,,,,,,,,,,,,,,,,,,,,,,,,,,,,
0,5e80c7d61a07dd7b0d8f0111,familiarity,8.0,YZJm,EdBb,1.0,0.0,False,1279.0,,,,,,,,,,,,,,,,,,,,,,,,,,,,,,,,,,,,,,,,,,,,,,,,,,,,,,,,,,,,,,,,,,,,,,,,,,,,,,,,,,,,,,,,,,,,,,,,,,,,,,,,,,,,,
0,5e80c7d61a07dd7b0d8f0111,familiarity,9.0,MDKP,udkm,0.0,0.0,True,1222.0,,,,,,,,,,,,,,,,,,,,,,,,,,,,,,,,,,,,,,,,,,,,,,,,,,,,,,,,,,,,,,,,,,,,,,,,,,,,,,,,,,,,,,,,,,,,,,,,,,,,,,,,,,,,,
0,5e80c7d61a07dd7b0d8f0111,familiarity,10.0,YTOM,QONk,1.0,1.0,True,1293.0,,,,,,,,,,,,,,,,,,,,,,,,,,,,,,,,,,,,,,,,,,,,,,,,,,,,,,,,,,,,,,,,,,,,,,,,,,,,,,,,,,,,,,,,,,,,,,,,,,,,,,,,,,,,,
0,5e80c7d61a07dd7b0d8f0111,familiarity,11.0,cuOJb,aOLZU,0.0,0.0,True,776.0,,,,,,,,,,,,,,,,,,,,,,,,,,,,,,,,,,,,,,,,,,,,,,,,,,,,,,,,,,,,,,,,,,,,,,,,,,,,,,,,,,,,,,,,,,,,,,,,,,,,,,,,,,,,,
0,5e80c7d61a07dd7b0d8f0111,familiarity,12.0,BATOc,AmQOY,0.0,0.0,True,1260.0,,,,,,,,,,,,,,,,,,,,,,,,,,,,,,,,,,,,,,,,,,,,,,,,,,,,,,,,,,,,,,,,,,,,,,,,,,,,,,,,,,,,,,,,,,,,,,,,,,,,,,,,,,,,,
0,5e80c7d61a07dd7b0d8f0111,familiarity,13.0,rba,Cdt,1.0,0.0,False,1285.0,,,,,,,,,,,,,,,,,,,,,,,,,,,,,,,,,,,,,,,,,,,,,,,,,,,,,,,,,,,,,,,,,,,,,,,,,,,,,,,,,,,,,,,,,,,,,,,,,,,,,,,,,,,,,
0,5e80c7d61a07dd7b0d8f0111,familiarity,14.0,KBKBE,btlck,1.0,1.0,True,1154.0,,,,,,,,,,,,,,,,,,,,,,,,,,,,,,,,,,,,,,,,,,,,,,,,,,,,,,,,,,,,,,,,,,,,,,,,,,,,,,,,,,,,,,,,,,,,,,,,,,,,,,,,,,,,,
0,5e80c7d61a07dd7b0d8f0111,familiarity,15.0,ldAa,DBkl,0.0,1.0,False,729.0,,,,,,,,,,,,,,,,,,,,,,,,,,,,,,,,,,,,,,,,,,,,,,,,,,,,,,,,,,,,,,,,,,,,,,,,,,,,,,,,,,,,,,,,,,,,,,,,,,,,,,,,,,,,,
0,5e80c7d61a07dd7b0d8f0111,familiarity,16.0,aUZA,khmh,1.0,1.0,True,1532.0,,,,,,,,,,,,,,,,,,,,,,,,,,,,,,,,,,,,,,,,,,,,,,,,,,,,,,,,,,,,,,,,,,,,,,,,,,,,,,,,,,,,,,,,,,,,,,,,,,,,,,,,,,,,,
0,5e80c7d61a07dd7b0d8f0111,familiarity,17.0,PcBT,uauO,1.0,1.0,True,1248.0,,,,,,,,,,,,,,,,,,,,,,,,,,,,,,,,,,,,,,,,,,,,,,,,,,,,,,,,,,,,,,,,,,,,,,,,,,,,,,,,,,,,,,,,,,,,,,,,,,,,,,,,,,,,,
0,5e80c7d61a07dd7b0d8f0111,familiarity,18.0,chEDO,YLQmG,1.0,1.0,True,943.0,,,,,,,,,,,,,,,,,,,,,,,,,,,,,,,,,,,,,,,,,,,,,,,,,,,,,,,,,,,,,,,,,,,,,,,,,,,,,,,,,,,,,,,,,,,,,,,,,,,,,,,,,,,,,
0,5e80c7d61a07dd7b0d8f0111,familiarity,19.0,uQuZc,NLQGm,1.0,1.0,True,1810.0,,,,,,,,,,,,,,,,,,,,,,,,,,,,,,,,,,,,,,,,,,,,,,,,,,,,,,,,,,,,,,,,,,,,,,,,,,,,,,,,,,,,,,,,,,,,,,,,,,,,,,,,,,,,,
0,5e80c7d61a07dd7b0d8f0111,familiarity,20.0,tmYh,AZbl,0.0,1.0,False,1439.0,,,,,,,,,,,,,,,,,,,,,,,,,,,,,,,,,,,,,,,,,,,,,,,,,,,,,,,,,,,,,,,,,,,,,,,,,,,,,,,,,,,,,,,,,,,,,,,,,,,,,,,,,,,,,
0,5e80c7d61a07dd7b0d8f0111,familiarity,21.0,Nac,uZc,0.0,1.0,False,1419.0,,,,,,,,,,,,,,,,,,,,,,,,,,,,,,,,,,,,,,,,,,,,,,,,,,,,,,,,,,,,,,,,,,,,,,,,,,,,,,,,,,,,,,,,,,,,,,,,,,,,,,,,,,,,,
0,5e80c7d61a07dd7b0d8f0111,familiarity,22.0,mZUrQ,dTmED,0.0,1.0,False,921.0,,,,,,,,,,,,,,,,,,,,,,,,,,,,,,,,,,,,,,,,,,,,,,,,,,,,,,,,,,,,,,,,,,,,,,,,,,,,,,,,,,,,,,,,,,,,,,,,,,,,,,,,,,,,,
0,5e80c7d61a07dd7b0d8f0111,familiarity,23.0,bAdk,KEdl,1.0,0.0,False,1515.0,,,,,,,,,,,,,,,,,,,,,,,,,,,,,,,,,,,,,,,,,,,,,,,,,,,,,,,,,,,,,,,,,,,,,,,,,,,,,,,,,,,,,,,,,,,,,,,,,,,,,,,,,,,,,
0,5e80c7d61a07dd7b0d8f0111,familiarity,24.0,kdaAJ,kcCRt,0.0,1.0,False,1359.0,,,,,,,,,,,,,,,,,,,,,,,,,,,,,,,,,,,,,,,,,,,,,,,,,,,,,,,,,,,,,,,,,,,,,,,,,,,,,,,,,,,,,,,,,,,,,,,,,,,,,,,,,,,,,
0,5e80c7d61a07dd7b0d8f0111,familiarity,25.0,mAM,LcO,1.0,0.0,False,3472.0,,,,,,,,,,,,,,,,,,,,,,,,,,,,,,,,,,,,,,,,,,,,,,,,,,,,,,,,,,,,,,,,,,,,,,,,,,,,,,,,,,,,,,,,,,,,,,,,,,,,,,,,,,,,,
0,5e80c7d61a07dd7b0d8f0111,familiarity,26.0,ZNLOv,Phktk,1.0,1.0,True,3511.0,,,,,,,,,,,,,,,,,,,,,,,,,,,,,,,,,,,,,,,,,,,,,,,,,,,,,,,,,,,,,,,,,,,,,,,,,,,,,,,,,,,,,,,,,,,,,,,,,,,,,,,,,,,,,
0,5e80c7d61a07dd7b0d8f0111,familiarity,27.0,MBKRE,JAdLm,1.0,1.0,True,1326.0,,,,,,,,,,,,,,,,,,,,,,,,,,,,,,,,,,,,,,,,,,,,,,,,,,,,,,,,,,,,,,,,,,,,,,,,,,,,,,,,,,,,,,,,,,,,,,,,,,,,,,,,,,,,,
0,5e80c7d61a07dd7b0d8f0111,familiarity,28.0,OAblc,lCbcm,1.0,0.0,False,782.0,,,,,,,,,,,,,,,,,,,,,,,,,,,,,,,,,,,,,,,,,,,,,,,,,,,,,,,,,,,,,,,,,,,,,,,,,,,,,,,,,,,,,,,,,,,,,,,,,,,,,,,,,,,,,
0,5e80c7d61a07dd7b0d8f0111,familiarity,29.0,OcZJ,JNka,1.0,1.0,True,1122.0,,,,,,,,,,,,,,,,,,,,,,,,,,,,,,,,,,,,,,,,,,,,,,,,,,,,,,,,,,,,,,,,,,,,,,,,,,,,,,,,,,,,,,,,,,,,,,,,,,,,,,,,,,,,,
0,5e80c7d61a07dd7b0d8f0111,familiarity,30.0,mCd,PTl,0.0,0.0,True,1267.0,,,,,,,,,,,,,,,,,,,,,,,,,,,,,,,,,,,,,,,,,,,,,,,,,,,,,,,,,,,,,,,,,,,,,,,,,,,,,,,,,,,,,,,,,,,,,,,,,,,,,,,,,,,,,
0,5e80c7d61a07dd7b0d8f0111,testing,1.0,,,1.0,1.0,True,4172.0,COTKNac,,,,,,,,,,,,,,,,,,,,,,,,,,,,,,,,,,,,,,,,,,,,,,,,,,,,,,,,,,,,,,,,,,,,,,,,,,,,,,,,,,,,,,,,,,,,,,,,,,,,,,,,,,,,
0,5e80c7d61a07dd7b0d8f0111,testing,2.0,,,1.0,0.0,False,1045.0,MBKREGUOA,,,,,,,,,,,,,,,,,,,,,,,,,,,,,,,,,,,,,,,,,,,,,,,,,,,,,,,,,,,,,,,,,,,,,,,,,,,,,,,,,,,,,,,,,,,,,,,,,,,,,,,,,,,,
0,5e80c7d61a07dd7b0d8f0111,testing,3.0,,,0.0,0.0,True,1383.0,PcBTdTAh,,,,,,,,,,,,,,,,,,,,,,,,,,,,,,,,,,,,,,,,,,,,,,,,,,,,,,,,,,,,,,,,,,,,,,,,,,,,,,,,,,,,,,,,,,,,,,,,,,,,,,,,,,,,
0,5e80c7d61a07dd7b0d8f0111,testing,4.0,,,0.0,1.0,False,1182.0,YZJmrAm,,,,,,,,,,,,,,,,,,,,,,,,,,,,,,,,,,,,,,,,,,,,,,,,,,,,,,,,,,,,,,,,,,,,,,,,,,,,,,,,,,,,,,,,,,,,,,,,,,,,,,,,,,,,
0,5e80c7d61a07dd7b0d8f0111,testing,5.0,,,0.0,0.0,True,1187.0,COTKtAY,,,,,,,,,,,,,,,,,,,,,,,,,,,,,,,,,,,,,,,,,,,,,,,,,,,,,,,,,,,,,,,,,,,,,,,,,,,,,,,,,,,,,,,,,,,,,,,,,,,,,,,,,,,,
0,5e80c7d61a07dd7b0d8f0111,testing,6.0,,,0.0,1.0,False,1012.0,uQuZcNac,,,,,,,,,,,,,,,,,,,,,,,,,,,,,,,,,,,,,,,,,,,,,,,,,,,,,,,,,,,,,,,,,,,,,,,,,,,,,,,,,,,,,,,,,,,,,,,,,,,,,,,,,,,,
0,5e80c7d61a07dd7b0d8f0111,testing,7.0,,,0.0,0.0,True,780.0,chEDOYTOM,,,,,,,,,,,,,,,,,,,,,,,,,,,,,,,,,,,,,,,,,,,,,,,,,,,,,,,,,,,,,,,,,,,,,,,,,,,,,,,,,,,,,,,,,,,,,,,,,,,,,,,,,,,,
0,5e80c7d61a07dd7b0d8f0111,testing,8.0,,,0.0,0.0,True,945.0,DmAMEmCd,,,,,,,,,,,,,,,,,,,,,,,,,,,,,,,,,,,,,,,,,,,,,,,,,,,,,,,,,,,,,,,,,,,,,,,,,,,,,,,,,,,,,,,,,,,,,,,,,,,,,,,,,,,,
0,5e80c7d61a07dd7b0d8f0111,testing,9.0,,,0.0,0.0,True,724.0,ldAaOcZJ,,,,,,,,,,,,,,,,,,,,,,,,,,,,,,,,,,,,,,,,,,,,,,,,,,,,,,,,,,,,,,,,,,,,,,,,,,,,,,,,,,,,,,,,,,,,,,,,,,,,,,,,,,,,
0,5e80c7d61a07dd7b0d8f0111,testing,10.0,,,0.0,1.0,False,748.0,NbmQUrba,,,,,,,,,,,,,,,,,,,,,,,,,,,,,,,,,,,,,,,,,,,,,,,,,,,,,,,,,,,,,,,,,,,,,,,,,,,,,,,,,,,,,,,,,,,,,,,,,,,,,,,,,,,,
0,5e80c7d61a07dd7b0d8f0111,testing,11.0,,,0.0,1.0,False,932.0,kdaAJGUOA,,,,,,,,,,,,,,,,,,,,,,,,,,,,,,,,,,,,,,,,,,,,,,,,,,,,,,,,,,,,,,,,,,,,,,,,,,,,,,,,,,,,,,,,,,,,,,,,,,,,,,,,,,,,
0,5e80c7d61a07dd7b0d8f0111,testing,12.0,,,1.0,0.0,False,825.0,YZJmdTAh,,,,,,,,,,,,,,,,,,,,,,,,,,,,,,,,,,,,,,,,,,,,,,,,,,,,,,,,,,,,,,,,,,,,,,,,,,,,,,,,,,,,,,,,,,,,,,,,,,,,,,,,,,,,
0,5e80c7d61a07dd7b0d8f0111,testing,13.0,,,1.0,0.0,False,817.0,cuOJbmAM,,,,,,,,,,,,,,,,,,,,,,,,,,,,,,,,,,,,,,,,,,,,,,,,,,,,,,,,,,,,,,,,,,,,,,,,,,,,,,,,,,,,,,,,,,,,,,,,,,,,,,,,,,,,
0,5e80c7d61a07dd7b0d8f0111,testing,14.0,,,1.0,1.0,True,1907.0,tmYhGUOA,,,,,,,,,,,,,,,,,,,,,,,,,,,,,,,,,,,,,,,,,,,,,,,,,,,,,,,,,,,,,,,,,,,,,,,,,,,,,,,,,,,,,,,,,,,,,,,,,,,,,,,,,,,,
0,5e80c7d61a07dd7b0d8f0111,testing,15.0,,,1.0,0.0,False,950.0,chEDOrba,,,,,,,,,,,,,,,,,,,,,,,,,,,,,,,,,,,,,,,,,,,,,,,,,,,,,,,,,,,,,,,,,,,,,,,,,,,,,,,,,,,,,,,,,,,,,,,,,,,,,,,,,,,,
0,5e80c7d61a07dd7b0d8f0111,testing,16.0,,,0.0,0.0,True,842.0,bAdkYTOM,,,,,,,,,,,,,,,,,,,,,,,,,,,,,,,,,,,,,,,,,,,,,,,,,,,,,,,,,,,,,,,,,,,,,,,,,,,,,,,,,,,,,,,,,,,,,,,,,,,,,,,,,,,,
0,5e80c7d61a07dd7b0d8f0111,testing,17.0,,,1.0,0.0,False,683.0,BATOcrAm,,,,,,,,,,,,,,,,,,,,,,,,,,,,,,,,,,,,,,,,,,,,,,,,,,,,,,,,,,,,,,,,,,,,,,,,,,,,,,,,,,,,,,,,,,,,,,,,,,,,,,,,,,,,
0,5e80c7d61a07dd7b0d8f0111,testing,18.0,,,0.0,0.0,True,666.0,MDKPtAY,,,,,,,,,,,,,,,,,,,,,,,,,,,,,,,,,,,,,,,,,,,,,,,,,,,,,,,,,,,,,,,,,,,,,,,,,,,,,,,,,,,,,,,,,,,,,,,,,,,,,,,,,,,,
0,5e80c7d61a07dd7b0d8f0111,testing,19.0,,,1.0,0.0,False,513.0,ldAamCd,,,,,,,,,,,,,,,,,,,,,,,,,,,,,,,,,,,,,,,,,,,,,,,,,,,,,,,,,,,,,,,,,,,,,,,,,,,,,,,,,,,,,,,,,,,,,,,,,,,,,,,,,,,,
0,5e80c7d61a07dd7b0d8f0111,testing,20.0,,,1.0,1.0,True,923.0,kdaAJmAM,,,,,,,,,,,,,,,,,,,,,,,,,,,,,,,,,,,,,,,,,,,,,,,,,,,,,,,,,,,,,,,,,,,,,,,,,,,,,,,,,,,,,,,,,,,,,,,,,,,,,,,,,,,,
0,5e80c7d61a07dd7b0d8f0111,testing,21.0,,,1.0,1.0,True,946.0,MDKPNac,,,,,,,,,,,,,,,,,,,,,,,,,,,,,,,,,,,,,,,,,,,,,,,,,,,,,,,,,,,,,,,,,,,,,,,,,,,,,,,,,,,,,,,,,,,,,,,,,,,,,,,,,,,,
0,5e80c7d61a07dd7b0d8f0111,testing,22.0,,,1.0,0.0,False,852.0,aUZAYTOM,,,,,,,,,,,,,,,,,,,,,,,,,,,,,,,,,,,,,,,,,,,,,,,,,,,,,,,,,,,,,,,,,,,,,,,,,,,,,,,,,,,,,,,,,,,,,,,,,,,,,,,,,,,,
0,5e80c7d61a07dd7b0d8f0111,testing,23.0,,,0.0,1.0,False,1075.0,tmYhmAM,,,,,,,,,,,,,,,,,,,,,,,,,,,,,,,,,,,,,,,,,,,,,,,,,,,,,,,,,,,,,,,,,,,,,,,,,,,,,,,,,,,,,,,,,,,,,,,,,,,,,,,,,,,,
0,5e80c7d61a07dd7b0d8f0111,testing,24.0,,,1.0,1.0,True,1020.0,PcBTrAm,,,,,,,,,,,,,,,,,,,,,,,,,,,,,,,,,,,,,,,,,,,,,,,,,,,,,,,,,,,,,,,,,,,,,,,,,,,,,,,,,,,,,,,,,,,,,,,,,,,,,,,,,,,,
0,5e80c7d61a07dd7b0d8f0111,testing,25.0,,,0.0,1.0,False,841.0,aUZArba,,,,,,,,,,,,,,,,,,,,,,,,,,,,,,,,,,,,,,,,,,,,,,,,,,,,,,,,,,,,,,,,,,,,,,,,,,,,,,,,,,,,,,,,,,,,,,,,,,,,,,,,,,,,
0,5e80c7d61a07dd7b0d8f0111,testing,26.0,,,1.0,0.0,False,573.0,DmAMEOcZJ,,,,,,,,,,,,,,,,,,,,,,,,,,,,,,,,,,,,,,,,,,,,,,,,,,,,,,,,,,,,,,,,,,,,,,,,,,,,,,,,,,,,,,,,,,,,,,,,,,,,,,,,,,,,
0,5e80c7d61a07dd7b0d8f0111,testing,27.0,,,1.0,0.0,False,890.0,uQuZctAY,,,,,,,,,,,,,,,,,,,,,,,,,,,,,,,,,,,,,,,,,,,,,,,,,,,,,,,,,,,,,,,,,,,,,,,,,,,,,,,,,,,,,,,,,,,,,,,,,,,,,,,,,,,,
0,5e80c7d61a07dd7b0d8f0111,testing,28.0,,,1.0,1.0,True,1033.0,NbmQUYTOM,,,,,,,,,,,,,,,,,,,,,,,,,,,,,,,,,,,,,,,,,,,,,,,,,,,,,,,,,,,,,,,,,,,,,,,,,,,,,,,,,,,,,,,,,,,,,,,,,,,,,,,,,,,,
0,5e80c7d61a07dd7b0d8f0111,testing,29.0,,,0.0,0.0,True,743.0,MBKREmAM,,,,,,,,,,,,,,,,,,,,,,,,,,,,,,,,,,,,,,,,,,,,,,,,,,,,,,,,,,,,,,,,,,,,,,,,,,,,,,,,,,,,,,,,,,,,,,,,,,,,,,,,,,,,
0,5e80c7d61a07dd7b0d8f0111,testing,30.0,,,0.0,0.0,True,665.0,KBKBEmCd,,,,,,,,,,,,,,,,,,,,,,,,,,,,,,,,,,,,,,,,,,,,,,,,,,,,,,,,,,,,,,,,,,,,,,,,,,,,,,,,,,,,,,,,,,,,,,,,,,,,,,,,,,,,
0,5e80c7d61a07dd7b0d8f0111,testing,31.0,,,0.0,0.0,True,637.0,OAblcOcZJ,,,,,,,,,,,,,,,,,,,,,,,,,,,,,,,,,,,,,,,,,,,,,,,,,,,,,,,,,,,,,,,,,,,,,,,,,,,,,,,,,,,,,,,,,,,,,,,,,,,,,,,,,,,,
0,5e80c7d61a07dd7b0d8f0111,testing,32.0,,,1.0,0.0,False,609.0,bAdkrba,,,,,,,,,,,,,,,,,,,,,,,,,,,,,,,,,,,,,,,,,,,,,,,,,,,,,,,,,,,,,,,,,,,,,,,,,,,,,,,,,,,,,,,,,,,,,,,,,,,,,,,,,,,,
0,5e80c7d61a07dd7b0d8f0111,testing,33.0,,,1.0,1.0,True,674.0,ZNLOvtAY,,,,,,,,,,,,,,,,,,,,,,,,,,,,,,,,,,,,,,,,,,,,,,,,,,,,,,,,,,,,,,,,,,,,,,,,,,,,,,,,,,,,,,,,,,,,,,,,,,,,,,,,,,,,
0,5e80c7d61a07dd7b0d8f0111,testing,34.0,,,0.0,0.0,True,956.0,BATOcdTAh,,,,,,,,,,,,,,,,,,,,,,,,,,,,,,,,,,,,,,,,,,,,,,,,,,,,,,,,,,,,,,,,,,,,,,,,,,,,,,,,,,,,,,,,,,,,,,,,,,,,,,,,,,,,
0,5e80c7d61a07dd7b0d8f0111,testing,35.0,,,1.0,0.0,False,716.0,OAblcmCd,,,,,,,,,,,,,,,,,,,,,,,,,,,,,,,,,,,,,,,,,,,,,,,,,,,,,,,,,,,,,,,,,,,,,,,,,,,,,,,,,,,,,,,,,,,,,,,,,,,,,,,,,,,,
0,5e80c7d61a07dd7b0d8f0111,testing,36.0,,,1.0,0.0,False,638.0,KBKBEOcZJ,,,,,,,,,,,,,,,,,,,,,,,,,,,,,,,,,,,,,,,,,,,,,,,,,,,,,,,,,,,,,,,,,,,,,,,,,,,,,,,,,,,,,,,,,,,,,,,,,,,,,,,,,,,,
0,5e80c7d61a07dd7b0d8f0111,testing,37.0,,,1.0,0.0,False,911.0,mZUrQdTAh,,,,,,,,,,,,,,,,,,,,,,,,,,,,,,,,,,,,,,,,,,,,,,,,,,,,,,,,,,,,,,,,,,,,,,,,,,,,,,,,,,,,,,,,,,,,,,,,,,,,,,,,,,,,
0,5e80c7d61a07dd7b0d8f0111,testing,38.0,,,0.0,0.0,True,678.0,cuOJbGUOA,,,,,,,,,,,,,,,,,,,,,,,,,,,,,,,,,,,,,,,,,,,,,,,,,,,,,,,,,,,,,,,,,,,,,,,,,,,,,,,,,,,,,,,,,,,,,,,,,,,,,,,,,,,,
0,5e80c7d61a07dd7b0d8f0111,testing,39.0,,,0.0,0.0,True,867.0,ZNLOvNac,,,,,,,,,,,,,,,,,,,,,,,,,,,,,,,,,,,,,,,,,,,,,,,,,,,,,,,,,,,,,,,,,,,,,,,,,,,,,,,,,,,,,,,,,,,,,,,,,,,,,,,,,,,,
0,5e80c7d61a07dd7b0d8f0111,testing,40.0,,,0.0,0.0,True,683.0,mZUrQrAm,,,,,,,,,,,,,,,,,,,,,,,,,,,,,,,,,,,,,,,,,,,,,,,,,,,,,,,,,,,,,,,,,,,,,,,,,,,,,,,,,,,,,,,,,,,,,,,,,,,,,,,,,,,,
0,5e823b35726b2a9508db127c,BLP,,,,,,,,,25,Uomo,Uni,Italiano,Inglese,Piemontese,Francese,No,0.0,14.0,0.0,9.0,0.0,2.0,0.0,7.0,20.0,15.0,20.0,3.0,20.0,1.0,20.0,0.0,20.0,0.0,20.0,0.0,20.0,1.0,0.0,0.0,9.0,0.0,1.0,0.0,9.0,0.0,1.0,0.0,8.0,2.0,0.0,0.0,5.0,2.0,3.0,0.0,9.0,0.0,1.0,0.0,6.0,6.0,6.0,2.0,6.0,5.0,6.0,3.0,6.0,6.0,6.0,4.0,true,true,true,true,6.0,6.0,3.0,2.0,6.0,4.0,5.0,0.0,6.0,5.0,6.0,0.0,6.0,6.0,6.0,6.0,6.0,6.0,6.0,2.0,36.32,14.982000000000001,27.240000000000002,8.626,43.6,4.36,6.540000000000001,0.0,54.480000000000004,52.21,47.67,24.97,54.480000000000004,47.67,52.21,18.16,188.88,119.22200000000001,133.66,51.756
0,5e823b35726b2a9508db127c,familiarity,1.0,tmtEM,ckduA,1.0,1.0,True,1456.0,,,,,,,,,,,,,,,,,,,,,,,,,,,,,,,,,,,,,,,,,,,,,,,,,,,,,,,,,,,,,,,,,,,,,,,,,,,,,,,,,,,,,,,,,,,,,,,,,,,,,,,,,,,,,
0,5e823b35726b2a9508db127c,familiarity,2.0,KTDTB,ckLAL,1.0,0.0,False,1422.0,,,,,,,,,,,,,,,,,,,,,,,,,,,,,,,,,,,,,,,,,,,,,,,,,,,,,,,,,,,,,,,,,,,,,,,,,,,,,,,,,,,,,,,,,,,,,,,,,,,,,,,,,,,,,
0,5e823b35726b2a9508db127c,familiarity,3.0,crdY,Abka,0.0,0.0,True,1590.0,,,,,,,,,,,,,,,,,,,,,,,,,,,,,,,,,,,,,,,,,,,,,,,,,,,,,,,,,,,,,,,,,,,,,,,,,,,,,,,,,,,,,,,,,,,,,,,,,,,,,,,,,,,,,
0,5e823b35726b2a9508db127c,familiarity,4.0,NJZl,tmAK,1.0,1.0,True,1702.0,,,,,,,,,,,,,,,,,,,,,,,,,,,,,,,,,,,,,,,,,,,,,,,,,,,,,,,,,,,,,,,,,,,,,,,,,,,,,,,,,,,,,,,,,,,,,,,,,,,,,,,,,,,,,
0,5e823b35726b2a9508db127c,familiarity,5.0,krGu,TklD,0.0,0.0,True,1460.0,,,,,,,,,,,,,,,,,,,,,,,,,,,,,,,,,,,,,,,,,,,,,,,,,,,,,,,,,,,,,,,,,,,,,,,,,,,,,,,,,,,,,,,,,,,,,,,,,,,,,,,,,,,,,
0,5e823b35726b2a9508db127c,familiarity,6.0,kGlU,ZdlO,0.0,1.0,False,1411.0,,,,,,,,,,,,,,,,,,,,,,,,,,,,,,,,,,,,,,,,,,,,,,,,,,,,,,,,,,,,,,,,,,,,,,,,,,,,,,,,,,,,,,,,,,,,,,,,,,,,,,,,,,,,,
0,5e823b35726b2a9508db127c,familiarity,7.0,EdBb,hRKm,1.0,1.0,True,1590.0,,,,,,,,,,,,,,,,,,,,,,,,,,,,,,,,,,,,,,,,,,,,,,,,,,,,,,,,,,,,,,,,,,,,,,,,,,,,,,,,,,,,,,,,,,,,,,,,,,,,,,,,,,,,,
0,5e823b35726b2a9508db127c,familiarity,8.0,kDOm,rkra,1.0,0.0,False,1308.0,,,,,,,,,,,,,,,,,,,,,,,,,,,,,,,,,,,,,,,,,,,,,,,,,,,,,,,,,,,,,,,,,,,,,,,,,,,,,,,,,,,,,,,,,,,,,,,,,,,,,,,,,,,,,
0,5e823b35726b2a9508db127c,familiarity,9.0,YcM,dUr,0.0,1.0,False,1560.0,,,,,,,,,,,,,,,,,,,,,,,,,,,,,,,,,,,,,,,,,,,,,,,,,,,,,,,,,,,,,,,,,,,,,,,,,,,,,,,,,,,,,,,,,,,,,,,,,,,,,,,,,,,,,
0,5e823b35726b2a9508db127c,familiarity,10.0,LOLkU,OLJbl,1.0,0.0,False,1486.0,,,,,,,,,,,,,,,,,,,,,,,,,,,,,,,,,,,,,,,,,,,,,,,,,,,,,,,,,,,,,,,,,,,,,,,,,,,,,,,,,,,,,,,,,,,,,,,,,,,,,,,,,,,,,
0,5e823b35726b2a9508db127c,familiarity,11.0,mkmJN,ZNLOv,1.0,0.0,False,1528.0,,,,,,,,,,,,,,,,,,,,,,,,,,,,,,,,,,,,,,,,,,,,,,,,,,,,,,,,,,,,,,,,,,,,,,,,,,,,,,,,,,,,,,,,,,,,,,,,,,,,,,,,,,,,,
0,5e823b35726b2a9508db127c,familiarity,12.0,kam,MAB,1.0,1.0,True,1237.0,,,,,,,,,,,,,,,,,,,,,,,,,,,,,,,,,,,,,,,,,,,,,,,,,,,,,,,,,,,,,,,,,,,,,,,,,,,,,,,,,,,,,,,,,,,,,,,,,,,,,,,,,,,,,
0,5e823b35726b2a9508db127c,familiarity,13.0,YBO,dPc,1.0,0.0,False,1809.0,,,,,,,,,,,,,,,,,,,,,,,,,,,,,,,,,,,,,,,,,,,,,,,,,,,,,,,,,,,,,,,,,,,,,,,,,,,,,,,,,,,,,,,,,,,,,,,,,,,,,,,,,,,,,
0,5e823b35726b2a9508db127c,familiarity,14.0,kmU,tRb,0.0,0.0,True,1113.0,,,,,,,,,,,,,,,,,,,,,,,,,,,,,,,,,,,,,,,,,,,,,,,,,,,,,,,,,,,,,,,,,,,,,,,,,,,,,,,,,,,,,,,,,,,,,,,,,,,,,,,,,,,,,
0,5e823b35726b2a9508db127c,familiarity,15.0,RtRh,dEPD,1.0,0.0,False,1113.0,,,,,,,,,,,,,,,,,,,,,,,,,,,,,,,,,,,,,,,,,,,,,,,,,,,,,,,,,,,,,,,,,,,,,,,,,,,,,,,,,,,,,,,,,,,,,,,,,,,,,,,,,,,,,
0,5e823b35726b2a9508db127c,familiarity,16.0,kPOt,ArQu,0.0,0.0,True,1261.0,,,,,,,,,,,,,,,,,,,,,,,,,,,,,,,,,,,,,,,,,,,,,,,,,,,,,,,,,,,,,,,,,,,,,,,,,,,,,,,,,,,,,,,,,,,,,,,,,,,,,,,,,,,,,
0,5e823b35726b2a9508db127c,familiarity,17.0,ZYcQU,RYtkc,0.0,1.0,False,1231.0,,,,,,,,,,,,,,,,,,,,,,,,,,,,,,,,,,,,,,,,,,,,,,,,,,,,,,,,,,,,,,,,,,,,,,,,,,,,,,,,,,,,,,,,,,,,,,,,,,,,,,,,,,,,,
0,5e823b35726b2a9508db127c,familiarity,18.0,khmh,Grub,0.0,1.0,False,1812.0,,,,,,,,,,,,,,,,,,,,,,,,,,,,,,,,,,,,,,,,,,,,,,,,,,,,,,,,,,,,,,,,,,,,,,,,,,,,,,,,,,,,,,,,,,,,,,,,,,,,,,,,,,,,,
0,5e823b35726b2a9508db127c,familiarity,19.0,CPMl,ctkt,1.0,1.0,True,1538.0,,,,,,,,,,,,,,,,,,,,,,,,,,,,,,,,,,,,,,,,,,,,,,,,,,,,,,,,,,,,,,,,,,,,,,,,,,,,,,,,,,,,,,,,,,,,,,,,,,,,,,,,,,,,,
0,5e823b35726b2a9508db127c,familiarity,20.0,kabJb,DBPhc,1.0,0.0,False,850.0,,,,,,,,,,,,,,,,,,,,,,,,,,,,,,,,,,,,,,,,,,,,,,,,,,,,,,,,,,,,,,,,,,,,,,,,,,,,,,,,,,,,,,,,,,,,,,,,,,,,,,,,,,,,,
0,5e823b35726b2a9508db127c,familiarity,21.0,kRCkO,PctRC,1.0,0.0,False,1263.0,,,,,,,,,,,,,,,,,,,,,,,,,,,,,,,,,,,,,,,,,,,,,,,,,,,,,,,,,,,,,,,,,,,,,,,,,,,,,,,,,,,,,,,,,,,,,,,,,,,,,,,,,,,,,
0,5e823b35726b2a9508db127c,familiarity,22.0,JcUk,LuNZ,0.0,1.0,False,1059.0,,,,,,,,,,,,,,,,,,,,,,,,,,,,,,,,,,,,,,,,,,,,,,,,,,,,,,,,,,,,,,,,,,,,,,,,,,,,,,,,,,,,,,,,,,,,,,,,,,,,,,,,,,,,,
0,5e823b35726b2a9508db127c,familiarity,23.0,ECtbD,UaZma,0.0,0.0,True,835.0,,,,,,,,,,,,,,,,,,,,,,,,,,,,,,,,,,,,,,,,,,,,,,,,,,,,,,,,,,,,,,,,,,,,,,,,,,,,,,,,,,,,,,,,,,,,,,,,,,,,,,,,,,,,,
0,5e823b35726b2a9508db127c,familiarity,24.0,ZkGmY,mBmlA,1.0,0.0,False,1012.0,,,,,,,,,,,,,,,,,,,,,,,,,,,,,,,,,,,,,,,,,,,,,,,,,,,,,,,,,,,,,,,,,,,,,,,,,,,,,,,,,,,,,,,,,,,,,,,,,,,,,,,,,,,,,
0,5e823b35726b2a9508db127c,familiarity,25.0,CMdP,dCKc,1.0,0.0,False,1436.0,,,,,,,,,,,,,,,,,,,,,,,,,,,,,,,,,,,,,,,,,,,,,,,,,,,,,,,,,,,,,,,,,,,,,,,,,,,,,,,,,,,,,,,,,,,,,,,,,,,,,,,,,,,,,
0,5e823b35726b2a9508db127c,familiarity,26.0,vQdO,BbOD,1.0,0.0,False,1104.0,,,,,,,,,,,,,,,,,,,,,,,,,,,,,,,,,,,,,,,,,,,,,,,,,,,,,,,,,,,,,,,,,,,,,,,,,,,,,,,,,,,,,,,,,,,,,,,,,,,,,,,,,,,,,
0,5e823b35726b2a9508db127c,familiarity,27.0,dTmED,dMThk,0.0,1.0,False,1349.0,,,,,,,,,,,,,,,,,,,,,,,,,,,,,,,,,,,,,,,,,,,,,,,,,,,,,,,,,,,,,,,,,,,,,,,,,,,,,,,,,,,,,,,,,,,,,,,,,,,,,,,,,,,,,
0,5e823b35726b2a9508db127c,familiarity,28.0,dOYml,OmtlD,0.0,0.0,True,1075.0,,,,,,,,,,,,,,,,,,,,,,,,,,,,,,,,,,,,,,,,,,,,,,,,,,,,,,,,,,,,,,,,,,,,,,,,,,,,,,,,,,,,,,,,,,,,,,,,,,,,,,,,,,,,,
0,5e823b35726b2a9508db127c,familiarity,29.0,kJdr,Yaum,0.0,0.0,True,943.0,,,,,,,,,,,,,,,,,,,,,,,,,,,,,,,,,,,,,,,,,,,,,,,,,,,,,,,,,,,,,,,,,,,,,,,,,,,,,,,,,,,,,,,,,,,,,,,,,,,,,,,,,,,,,
0,5e823b35726b2a9508db127c,familiarity,30.0,LckGN,mUOcO,0.0,0.0,True,835.0,,,,,,,,,,,,,,,,,,,,,,,,,,,,,,,,,,,,,,,,,,,,,,,,,,,,,,,,,,,,,,,,,,,,,,,,,,,,,,,,,,,,,,,,,,,,,,,,,,,,,,,,,,,,,
0,5e823b35726b2a9508db127c,testing,1.0,,,0.0,1.0,False,3260.0,ECtbDYcM,,,,,,,,,,,,,,,,,,,,,,,,,,,,,,,,,,,,,,,,,,,,,,,,,,,,,,,,,,,,,,,,,,,,,,,,,,,,,,,,,,,,,,,,,,,,,,,,,,,,,,,,,,,,
