,sbj_ID,task,testing_condition,trialn,item,expected,observed,correct,rt,strategy
0,58f50400f4ce600001016db5,testing,0M,1,MBmEdYdA,1,1,True,10217.0,The more angular letters did not seem from the group. And I'm going by feeling also
0,58f50400f4ce600001016db5,testing,2M,2,kDRKckbu,1,0,False,1164.0,The more angular letters did not seem from the group. And I'm going by feeling also
0,58f50400f4ce600001016db5,testing,2M,3,lcOcEPBT,1,0,False,1181.0,The more angular letters did not seem from the group. And I'm going by feeling also
0,58f50400f4ce600001016db5,testing,1M,4,cDOEBrba,0,0,True,1324.0,The more angular letters did not seem from the group. And I'm going by feeling also
0,58f50400f4ce600001016db5,testing,2M,5,kDRKckhMD,0,0,True,1025.0,The more angular letters did not seem from the group. And I'm going by feeling also
0,58f50400f4ce600001016db5,testing,0M,6,OYuvbkmU,1,0,False,1308.0,The more angular letters did not seem from the group. And I'm going by feeling also
0,58f50400f4ce600001016db5,testing,2M,7,BEPOEPBT,0,1,False,710.0,The more angular letters did not seem from the group. And I'm going by feeling also
0,58f50400f4ce600001016db5,testing,2M,8,YOZNQGb,0,0,True,1232.0,The more angular letters did not seem from the group. And I'm going by feeling also
0,58f50400f4ce600001016db5,testing,1M,9,tcYbdRCdc,0,0,True,1137.0,The more angular letters did not seem from the group. And I'm going by feeling also
0,58f50400f4ce600001016db5,testing,2M,10,AmaclYcM,1,1,True,910.0,The more angular letters did not seem from the group. And I'm going by feeling also
0,58f50400f4ce600001016db5,testing,1M,11,QcQAJOcN,0,0,True,472.0,The more angular letters did not seem from the group. And I'm going by feeling also
0,58f50400f4ce600001016db5,testing,2M,12,UaZmakbu,0,0,True,1045.0,The more angular letters did not seem from the group. And I'm going by feeling also
0,58f50400f4ce600001016db5,testing,0M,13,LOLkUJAaG,1,1,True,770.0,The more angular letters did not seem from the group. And I'm going by feeling also
0,58f50400f4ce600001016db5,testing,1M,14,KDPAAkd,0,0,True,833.0,The more angular letters did not seem from the group. And I'm going by feeling also
0,58f50400f4ce600001016db5,testing,0M,15,YZJOBRDh,1,1,True,872.0,The more angular letters did not seem from the group. And I'm going by feeling also
0,58f50400f4ce600001016db5,testing,0M,16,ckdAmmkc,1,0,False,1014.0,The more angular letters did not seem from the group. And I'm going by feeling also
0,58f50400f4ce600001016db5,testing,0M,17,GUOAkam,1,1,True,1024.0,The more angular letters did not seem from the group. And I'm going by feeling also
0,58f50400f4ce600001016db5,testing,2M,18,vclYAvdk,0,0,True,1275.0,The more angular letters did not seem from the group. And I'm going by feeling also
0,58f50400f4ce600001016db5,testing,2M,19,AlNUYcM,1,0,False,646.0,The more angular letters did not seem from the group. And I'm going by feeling also
0,58f50400f4ce600001016db5,testing,1M,20,vmuLlJZr,0,0,True,1027.0,The more angular letters did not seem from the group. And I'm going by feeling also
0,58f50400f4ce600001016db5,testing,0M,21,Yaumkhmh,1,1,True,904.0,The more angular letters did not seem from the group. And I'm going by feeling also
0,58f50400f4ce600001016db5,testing,2M,22,rdLJatcB,1,0,False,427.0,The more angular letters did not seem from the group. And I'm going by feeling also
0,58f50400f4ce600001016db5,testing,0M,23,NbmQUvcb,1,1,True,867.0,The more angular letters did not seem from the group. And I'm going by feeling also
0,58f50400f4ce600001016db5,testing,1M,24,OAmAdYDE,0,0,True,741.0,The more angular letters did not seem from the group. And I'm going by feeling also
0,58f50400f4ce600001016db5,testing,1M,25,YlYcYcM,0,1,False,1203.0,The more angular letters did not seem from the group. And I'm going by feeling also
0,58f50400f4ce600001016db5,testing,2M,26,dKRDRCdc,0,1,False,1408.0,The more angular letters did not seem from the group. And I'm going by feeling also
0,58f50400f4ce600001016db5,testing,0M,27,hlbtblMck,1,0,False,1295.0,The more angular letters did not seem from the group. And I'm going by feeling also
0,58f50400f4ce600001016db5,testing,0M,28,EKBOLcO,1,0,False,816.0,The more angular letters did not seem from the group. And I'm going by feeling also
0,58f50400f4ce600001016db5,testing,2M,29,UaZmakhMD,1,0,False,996.0,The more angular letters did not seem from the group. And I'm going by feeling also
0,58f50400f4ce600001016db5,testing,0M,30,AlTdJud,1,1,True,945.0,The more angular letters did not seem from the group. And I'm going by feeling also
0,58f50400f4ce600001016db5,testing,2M,31,CYPckbu,1,0,False,947.0,The more angular letters did not seem from the group. And I'm going by feeling also
0,58f50400f4ce600001016db5,testing,1M,32,AmaclDMRP,0,1,False,1055.0,The more angular letters did not seem from the group. And I'm going by feeling also
0,58f50400f4ce600001016db5,testing,1M,33,bdUNutcB,0,1,False,851.0,The more angular letters did not seem from the group. And I'm going by feeling also
0,58f50400f4ce600001016db5,testing,2M,34,vmuLlRCdc,1,0,False,705.0,The more angular letters did not seem from the group. And I'm going by feeling also
0,58f50400f4ce600001016db5,testing,1M,35,kJdrtcB,0,1,False,893.0,The more angular letters did not seem from the group. And I'm going by feeling also
0,58f50400f4ce600001016db5,testing,0M,36,uOAOKOYC,1,0,False,1174.0,The more angular letters did not seem from the group. And I'm going by feeling also
0,58f50400f4ce600001016db5,testing,1M,37,JmNkkbu,0,1,False,1188.0,The more angular letters did not seem from the group. And I'm going by feeling also
0,58f50400f4ce600001016db5,testing,0M,38,GAcYuUY,1,0,False,1547.0,The more angular letters did not seem from the group. And I'm going by feeling also
0,58f50400f4ce600001016db5,testing,1M,39,YOZNJQA,0,0,True,1740.0,The more angular letters did not seem from the group. And I'm going by feeling also
0,58f50400f4ce600001016db5,testing,1M,40,BEPOAdYl,0,1,False,748.0,The more angular letters did not seem from the group. And I'm going by feeling also
0,58f50400f4ce600001016db5,testing,2M,41,KDPAYcM,0,0,True,811.0,The more angular letters did not seem from the group. And I'm going by feeling also
0,58f50400f4ce600001016db5,testing,2M,42,AlNULkNc,0,0,True,1180.0,The more angular letters did not seem from the group. And I'm going by feeling also
0,58f50400f4ce600001016db5,testing,0M,43,EhRmYbN,1,1,True,749.0,The more angular letters did not seem from the group. And I'm going by feeling also
0,58f50400f4ce600001016db5,testing,1M,44,kulZEPBT,0,0,True,861.0,The more angular letters did not seem from the group. And I'm going by feeling also
0,58f50400f4ce600001016db5,testing,0M,45,cMRlPlEK,1,0,False,971.0,The more angular letters did not seem from the group. And I'm going by feeling also
0,58f50400f4ce600001016db5,testing,2M,46,tmAKAvdk,1,0,False,803.0,The more angular letters did not seem from the group. And I'm going by feeling also
0,58f50400f4ce600001016db5,testing,1M,47,lcOcBbOD,0,1,False,1057.0,The more angular letters did not seem from the group. And I'm going by feeling also
0,58f50400f4ce600001016db5,testing,2M,48,rdLJarULv,0,1,False,980.0,The more angular letters did not seem from the group. And I'm going by feeling also
0,58f50400f4ce600001016db5,testing,2M,49,cDOEBLkNc,1,0,False,809.0,The more angular letters did not seem from the group. And I'm going by feeling also
0,58f50400f4ce600001016db5,testing,2M,50,QcQAJkbu,0,0,True,799.0,The more angular letters did not seem from the group. And I'm going by feeling also
0,58f50400f4ce600001016db5,testing,2M,51,KABAQGb,1,1,True,810.0,The more angular letters did not seem from the group. And I'm going by feeling also
0,58f50400f4ce600001016db5,testing,0M,52,dKDthOYK,1,0,False,1125.0,The more angular letters did not seem from the group. And I'm going by feeling also
0,58f50400f4ce600001016db5,testing,2M,53,YQbcrULv,0,0,True,773.0,The more angular letters did not seem from the group. And I'm going by feeling also
0,58f50400f4ce600001016db5,testing,0M,54,rNlZdPc,1,1,True,765.0,The more angular letters did not seem from the group. And I'm going by feeling also
0,58f50400f4ce600001016db5,testing,1M,55,rdLJaYKPB,0,0,True,640.0,The more angular letters did not seem from the group. And I'm going by feeling also
0,58f50400f4ce600001016db5,testing,0M,56,YaumPEtE,1,0,False,696.0,The more angular letters did not seem from the group. And I'm going by feeling also
0,58f50400f4ce600001016db5,testing,0M,57,BYhTNkUA,1,0,False,776.0,The more angular letters did not seem from the group. And I'm going by feeling also
0,58f50400f4ce600001016db5,testing,0M,58,tdDdUdvY,1,0,False,678.0,The more angular letters did not seem from the group. And I'm going by feeling also
0,58f50400f4ce600001016db5,testing,1M,59,bNdmGrULv,0,1,False,859.0,The more angular letters did not seem from the group. And I'm going by feeling also
0,58f50400f4ce600001016db5,testing,1M,60,QvlZQGb,0,0,True,544.0,The more angular letters did not seem from the group. And I'm going by feeling also
0,58f50400f4ce600001016db5,testing,0M,61,hTtBbYadr,1,1,True,1078.0,The more angular letters did not seem from the group. And I'm going by feeling also
0,58f50400f4ce600001016db5,testing,0M,62,rbYbuOtM,1,0,False,1747.0,The more angular letters did not seem from the group. And I'm going by feeling also
0,58f50400f4ce600001016db5,testing,1M,63,KABAOJNk,0,1,False,687.0,The more angular letters did not seem from the group. And I'm going by feeling also
0,58f50400f4ce600001016db5,testing,0M,64,adkrDhMt,1,0,False,1358.0,The more angular letters did not seem from the group. And I'm going by feeling also
0,58f50400f4ce600001016db5,testing,2M,65,BEPOAvdk,1,1,True,867.0,The more angular letters did not seem from the group. And I'm going by feeling also
0,58f50400f4ce600001016db5,testing,2M,66,vclYEPBT,1,0,False,882.0,The more angular letters did not seem from the group. And I'm going by feeling also
0,58f50400f4ce600001016db5,testing,1M,67,DkTCPYcM,0,0,True,1276.0,The more angular letters did not seem from the group. And I'm going by feeling also
0,58f50400f4ce600001016db5,testing,1M,68,dKRDYmBd,0,1,False,1257.0,The more angular letters did not seem from the group. And I'm going by feeling also
0,58f50400f4ce600001016db5,testing,2M,69,dTmEDtcB,0,0,True,1102.0,The more angular letters did not seem from the group. And I'm going by feeling also
0,58f50400f4ce600001016db5,testing,2M,70,QcQAJkhMD,1,0,False,746.0,The more angular letters did not seem from the group. And I'm going by feeling also
0,58f50400f4ce600001016db5,testing,2M,71,tmAKEPBT,0,0,True,1012.0,The more angular letters did not seem from the group. And I'm going by feeling also
0,58f50400f4ce600001016db5,testing,0M,72,vAarTRkY,1,1,True,1019.0,The more angular letters did not seem from the group. And I'm going by feeling also
0,58f50400f4ce600001016db5,testing,0M,73,auYAkrGl,1,0,False,1733.0,The more angular letters did not seem from the group. And I'm going by feeling also
0,58f50400f4ce600001016db5,testing,2M,74,CYPckhMD,0,0,True,845.0,The more angular letters did not seem from the group. And I'm going by feeling also
0,58f50400f4ce600001016db5,testing,0M,75,lRckAkCRm,1,1,True,955.0,The more angular letters did not seem from the group. And I'm going by feeling also
0,58f50400f4ce600001016db5,testing,0M,76,LvuOGbadk,1,0,False,563.0,The more angular letters did not seem from the group. And I'm going by feeling also
0,58f50400f4ce600001016db5,testing,1M,77,tmAKMCkm,0,0,True,890.0,The more angular letters did not seem from the group. And I'm going by feeling also
0,58f50400f4ce600001016db5,testing,0M,78,hlbtbYLU,1,1,True,834.0,The more angular letters did not seem from the group. And I'm going by feeling also
0,58f50400f4ce600001016db5,testing,2M,79,KABARCdc,0,0,True,421.0,The more angular letters did not seem from the group. And I'm going by feeling also
0,58f50400f4ce600001016db5,testing,0M,80,mKcDBECk,1,0,False,843.0,The more angular letters did not seem from the group. And I'm going by feeling also
0,58f50400f4ce600001016db5,testing,1M,81,rLkmLkNc,0,1,False,751.0,The more angular letters did not seem from the group. And I'm going by feeling also
0,58f50400f4ce600001016db5,testing,1M,82,AlNUCMdP,0,0,True,551.0,The more angular letters did not seem from the group. And I'm going by feeling also
0,58f50400f4ce600001016db5,testing,1M,83,kDRKcktBd,0,0,True,917.0,The more angular letters did not seem from the group. And I'm going by feeling also
0,58f50400f4ce600001016db5,testing,1M,84,thbOMkbu,0,0,True,928.0,The more angular letters did not seem from the group. And I'm going by feeling also
0,58f50400f4ce600001016db5,testing,1M,85,UaZmaOMC,0,1,False,933.0,The more angular letters did not seem from the group. And I'm going by feeling also
0,58f50400f4ce600001016db5,testing,2M,86,YOZNRCdc,1,0,False,568.0,The more angular letters did not seem from the group. And I'm going by feeling also
0,58f50400f4ce600001016db5,testing,2M,87,KDPALkNc,1,0,False,1081.0,The more angular letters did not seem from the group. And I'm going by feeling also
0,58f50400f4ce600001016db5,testing,2M,88,dKRDQGb,1,0,False,1379.0,The more angular letters did not seem from the group. And I'm going by feeling also
0,58f50400f4ce600001016db5,testing,1M,89,mZUrQrULv,0,0,True,1230.0,The more angular letters did not seem from the group. And I'm going by feeling also
0,58f50400f4ce600001016db5,testing,2M,90,YQbctcB,1,0,False,1722.0,The more angular letters did not seem from the group. And I'm going by feeling also
0,58f50400f4ce600001016db5,testing,1M,91,dTmEDYht,0,1,False,2148.0,The more angular letters did not seem from the group. And I'm going by feeling also
0,58f50400f4ce600001016db5,testing,2M,92,vmuLlQGb,0,0,True,943.0,The more angular letters did not seem from the group. And I'm going by feeling also
0,58f50400f4ce600001016db5,testing,2M,93,OAmAdrULv,1,1,True,750.0,The more angular letters did not seem from the group. And I'm going by feeling also
0,58f50400f4ce600001016db5,testing,1M,94,OcYMAvdk,0,0,True,511.0,The more angular letters did not seem from the group. And I'm going by feeling also
0,58f50400f4ce600001016db5,testing,1M,95,CYPcOtlR,0,1,False,660.0,The more angular letters did not seem from the group. And I'm going by feeling also
0,58f50400f4ce600001016db5,testing,1M,96,dClOCkhMD,0,0,True,322.0,The more angular letters did not seem from the group. And I'm going by feeling also
0,58f50400f4ce600001016db5,testing,2M,97,lcOcAvdk,0,0,True,610.0,The more angular letters did not seem from the group. And I'm going by feeling also
0,58f50400f4ce600001016db5,testing,0M,98,OkGYMhKd,1,0,False,587.0,The more angular letters did not seem from the group. And I'm going by feeling also
0,58f50400f4ce600001016db5,testing,0M,99,NkUAbGuO,1,1,True,1270.0,The more angular letters did not seem from the group. And I'm going by feeling also
0,58f50400f4ce600001016db5,testing,1M,100,uUmbAvdk,0,1,False,834.0,The more angular letters did not seem from the group. And I'm going by feeling also
0,58f50400f4ce600001016db5,testing,0M,101,adYrcNkUA,1,0,False,572.0,The more angular letters did not seem from the group. And I'm going by feeling also
0,58f50400f4ce600001016db5,testing,1M,102,MKmYEPBT,0,0,True,834.0,The more angular letters did not seem from the group. And I'm going by feeling also
0,58f50400f4ce600001016db5,testing,2M,103,AmaclLkNc,0,1,False,972.0,The more angular letters did not seem from the group. And I'm going by feeling also
0,58f50400f4ce600001016db5,testing,1M,104,amJmQGb,0,0,True,1077.0,The more angular letters did not seem from the group. And I'm going by feeling also
0,58f50400f4ce600001016db5,testing,0M,105,DOchlOkGY,1,0,False,984.0,The more angular letters did not seem from the group. And I'm going by feeling also
0,58f50400f4ce600001016db5,testing,1M,106,ZdlORCdc,0,0,True,1368.0,The more angular letters did not seem from the group. And I'm going by feeling also
0,58f50400f4ce600001016db5,testing,0M,107,ZvalvYmb,1,0,False,1193.0,The more angular letters did not seem from the group. And I'm going by feeling also
0,58f50400f4ce600001016db5,testing,1M,108,JdOAYkhMD,0,1,False,1410.0,The more angular letters did not seem from the group. And I'm going by feeling also
0,58f50400f4ce600001016db5,testing,1M,109,YQbcukcY,0,0,True,638.0,The more angular letters did not seem from the group. And I'm going by feeling also
0,58f50400f4ce600001016db5,testing,2M,110,cDOEBYcM,0,0,True,798.0,The more angular letters did not seem from the group. And I'm going by feeling also
0,58f50400f4ce600001016db5,testing,0M,111,GAcYJUG,1,0,False,761.0,The more angular letters did not seem from the group. And I'm going by feeling also
0,58f50400f4ce600001016db5,testing,2M,112,dTmEDrULv,1,1,True,862.0,The more angular letters did not seem from the group. And I'm going by feeling also
0,58f50400f4ce600001016db5,testing,0M,113,damYbDhMt,1,0,False,507.0,The more angular letters did not seem from the group. And I'm going by feeling also
0,58f50400f4ce600001016db5,testing,1M,114,KMDYtLkNc,0,0,True,630.0,The more angular letters did not seem from the group. And I'm going by feeling also
0,58f50400f4ce600001016db5,testing,0M,115,dYAJJAaG,1,1,True,802.0,The more angular letters did not seem from the group. And I'm going by feeling also
0,58f50400f4ce600001016db5,testing,0M,116,AYkEhYBO,1,1,True,782.0,The more angular letters did not seem from the group. And I'm going by feeling also
0,58f50400f4ce600001016db5,testing,0M,117,JrGvlTmO,1,0,False,762.0,The more angular letters did not seem from the group. And I'm going by feeling also
0,58f50400f4ce600001016db5,testing,2M,118,OAmAdtcB,0,0,True,754.0,The more angular letters did not seem from the group. And I'm going by feeling also
0,58f50400f4ce600001016db5,testing,1M,119,vclYmBYl,0,1,False,633.0,The more angular letters did not seem from the group. And I'm going by feeling also
0,58f50400f4ce600001016db5,testing,0M,120,EMbDPLuaU,1,0,False,564.0,The more angular letters did not seem from the group. And I'm going by feeling also
0,59aaf4b1321f870001d16f6c,testing,2M,1,LQurcDR,1,0,False,3578.0,ho cercato di memorizzare le posizioni dei caratteri
0,59aaf4b1321f870001d16f6c,testing,2M,2,LAclAQGb,0,0,True,1241.0,ho cercato di memorizzare le posizioni dei caratteri
0,59aaf4b1321f870001d16f6c,testing,2M,3,PEkhAJUNa,1,0,False,1342.0,ho cercato di memorizzare le posizioni dei caratteri
0,59aaf4b1321f870001d16f6c,testing,2M,4,COTKQGb,1,0,False,835.0,ho cercato di memorizzare le posizioni dei caratteri
0,59aaf4b1321f870001d16f6c,testing,2M,5,bmbNYDE,1,0,False,1218.0,ho cercato di memorizzare le posizioni dei caratteri
0,59aaf4b1321f870001d16f6c,testing,2M,6,COTKOtM,0,1,False,646.0,ho cercato di memorizzare le posizioni dei caratteri
0,59aaf4b1321f870001d16f6c,testing,2M,7,PEkhAcDR,0,1,False,734.0,ho cercato di memorizzare le posizioni dei caratteri
0,59aaf4b1321f870001d16f6c,testing,2M,8,MkmEdOtM,0,0,True,580.0,ho cercato di memorizzare le posizioni dei caratteri
0,59aaf4b1321f870001d16f6c,testing,2M,9,MhKdYDE,0,1,False,341.0,ho cercato di memorizzare le posizioni dei caratteri
0,59aaf4b1321f870001d16f6c,testing,2M,10,LOLkUOdOP,1,0,False,354.0,ho cercato di memorizzare le posizioni dei caratteri
0,59aaf4b1321f870001d16f6c,testing,2M,11,tKDmhkJdr,1,1,True,264.0,ho cercato di memorizzare le posizioni dei caratteri
0,59aaf4b1321f870001d16f6c,testing,2M,12,CtmbZAUu,1,0,False,253.0,ho cercato di memorizzare le posizioni dei caratteri
0,59aaf4b1321f870001d16f6c,testing,2M,13,vQdOcDR,1,0,False,412.0,ho cercato di memorizzare le posizioni dei caratteri
0,59aaf4b1321f870001d16f6c,testing,2M,14,bmbNkJdr,0,0,True,572.0,ho cercato di memorizzare le posizioni dei caratteri
0,59aaf4b1321f870001d16f6c,testing,2M,15,LQurJUNa,0,0,True,532.0,ho cercato di memorizzare le posizioni dei caratteri
0,59aaf4b1321f870001d16f6c,testing,2M,16,bGuOkJdr,0,0,True,1220.0,ho cercato di memorizzare le posizioni dei caratteri
0,59aaf4b1321f870001d16f6c,testing,2M,17,ZcGdNQGb,0,1,False,1806.0,ho cercato di memorizzare le posizioni dei caratteri
0,59aaf4b1321f870001d16f6c,testing,2M,18,LOLkUcrdY,0,0,True,334.0,ho cercato di memorizzare le posizioni dei caratteri
0,59aaf4b1321f870001d16f6c,testing,2M,19,vQdOJUNa,0,0,True,288.0,ho cercato di memorizzare le posizioni dei caratteri
0,59aaf4b1321f870001d16f6c,testing,2M,20,ZYcQUZAUu,0,0,True,431.0,ho cercato di memorizzare le posizioni dei caratteri
0,59aaf4b1321f870001d16f6c,testing,2M,21,AdDbYcM,0,1,False,305.0,ho cercato di memorizzare le posizioni dei caratteri
0,59aaf4b1321f870001d16f6c,testing,2M,22,bGuOYDE,1,1,True,1017.0,ho cercato di memorizzare le posizioni dei caratteri
0,59aaf4b1321f870001d16f6c,testing,2M,23,ZYcQUYcM,1,1,True,1039.0,ho cercato di memorizzare le posizioni dei caratteri
0,59aaf4b1321f870001d16f6c,testing,2M,24,vYLUOdOP,1,1,True,856.0,ho cercato di memorizzare le posizioni dei caratteri
0,59aaf4b1321f870001d16f6c,testing,2M,25,AdDbZAUu,1,0,False,473.0,ho cercato di memorizzare le posizioni dei caratteri
0,59aaf4b1321f870001d16f6c,testing,2M,26,kPOtOdOP,0,0,True,1081.0,ho cercato di memorizzare le posizioni dei caratteri
0,59aaf4b1321f870001d16f6c,testing,2M,27,JdOAYZAUu,0,0,True,1685.0,ho cercato di memorizzare le posizioni dei caratteri
0,59aaf4b1321f870001d16f6c,testing,2M,28,CtmbYcM,0,0,True,755.0,ho cercato di memorizzare le posizioni dei caratteri
0,59aaf4b1321f870001d16f6c,testing,2M,29,htmhCcDR,0,0,True,553.0,ho cercato di memorizzare le posizioni dei caratteri
0,59aaf4b1321f870001d16f6c,testing,2M,30,LAclAOtM,1,0,False,390.0,ho cercato di memorizzare le posizioni dei caratteri
0,59aaf4b1321f870001d16f6c,testing,2M,31,tKDmhYDE,0,0,True,452.0,ho cercato di memorizzare le posizioni dei caratteri
0,59aaf4b1321f870001d16f6c,testing,2M,32,vYLUcrdY,0,1,False,466.0,ho cercato di memorizzare le posizioni dei caratteri
0,59aaf4b1321f870001d16f6c,testing,2M,33,htmhCJUNa,1,0,False,231.0,ho cercato di memorizzare le posizioni dei caratteri
0,59aaf4b1321f870001d16f6c,testing,2M,34,EYtYRcrdY,1,0,False,795.0,ho cercato di memorizzare le posizioni dei caratteri
0,59aaf4b1321f870001d16f6c,testing,2M,35,JdOAYYcM,1,1,True,2190.0,ho cercato di memorizzare le posizioni dei caratteri
0,59aaf4b1321f870001d16f6c,testing,2M,36,EYtYROdOP,0,1,False,711.0,ho cercato di memorizzare le posizioni dei caratteri
0,59aaf4b1321f870001d16f6c,testing,2M,37,ZcGdNOtM,1,0,False,720.0,ho cercato di memorizzare le posizioni dei caratteri
0,59aaf4b1321f870001d16f6c,testing,2M,38,kPOtcrdY,1,0,False,1079.0,ho cercato di memorizzare le posizioni dei caratteri
0,59aaf4b1321f870001d16f6c,testing,2M,39,MkmEdQGb,1,1,True,689.0,ho cercato di memorizzare le posizioni dei caratteri
0,59aaf4b1321f870001d16f6c,testing,2M,40,MhKdkJdr,1,0,False,1042.0,ho cercato di memorizzare le posizioni dei caratteri
0,5b715800b31d480001eda165,testing,2M,1,EPERdYDE,0,0,True,2123.0,"Tried to recall similar sequences, but it was very hard"
0,5b715800b31d480001eda165,testing,0M,2,bYGOZlvk,1,1,True,843.0,"Tried to recall similar sequences, but it was very hard"
0,5b715800b31d480001eda165,testing,0M,3,chEDOrLkm,1,0,False,998.0,"Tried to recall similar sequences, but it was very hard"
0,5b715800b31d480001eda165,testing,0M,4,AJLrRKYk,1,0,False,880.0,"Tried to recall similar sequences, but it was very hard"
0,5b715800b31d480001eda165,testing,1M,5,EPERdJcL,0,0,True,1038.0,"Tried to recall similar sequences, but it was very hard"
0,5b715800b31d480001eda165,testing,0M,6,rcmuvGQrc,1,1,True,928.0,"Tried to recall similar sequences, but it was very hard"
0,5b715800b31d480001eda165,testing,1M,7,OAmAdBPAl,0,0,True,854.0,"Tried to recall similar sequences, but it was very hard"
0,5b715800b31d480001eda165,testing,1M,8,AlUYYDE,0,0,True,832.0,"Tried to recall similar sequences, but it was very hard"
0,5b715800b31d480001eda165,testing,0M,9,RdPtDGUa,1,0,False,889.0,"Tried to recall similar sequences, but it was very hard"
0,5b715800b31d480001eda165,testing,2M,10,YmBdJQA,1,1,True,1035.0,"Tried to recall similar sequences, but it was very hard"
0,5b715800b31d480001eda165,testing,2M,11,OEPkDbMR,0,0,True,906.0,"Tried to recall similar sequences, but it was very hard"
0,5b715800b31d480001eda165,testing,2M,12,EPERdmkc,1,0,False,879.0,"Tried to recall similar sequences, but it was very hard"
0,5b715800b31d480001eda165,testing,2M,13,LvuOGZAUu,0,0,True,948.0,"Tried to recall similar sequences, but it was very hard"
0,5b715800b31d480001eda165,testing,0M,14,mARMbTE,1,0,False,837.0,"Tried to recall similar sequences, but it was very hard"
0,5b715800b31d480001eda165,testing,1M,15,YTOMmLJ,0,0,True,974.0,"Tried to recall similar sequences, but it was very hard"
0,5b715800b31d480001eda165,testing,1M,16,ukYZJQA,0,1,False,956.0,"Tried to recall similar sequences, but it was very hard"
0,5b715800b31d480001eda165,testing,0M,17,RtRhNmAG,1,1,True,1224.0,"Tried to recall similar sequences, but it was very hard"
0,5b715800b31d480001eda165,testing,0M,18,AJLrLcO,1,1,True,1313.0,"Tried to recall similar sequences, but it was very hard"
0,5b715800b31d480001eda165,testing,2M,19,mdlacUN,0,0,True,959.0,"Tried to recall similar sequences, but it was very hard"
0,5b715800b31d480001eda165,testing,0M,20,CmYAvcb,1,0,False,1005.0,"Tried to recall similar sequences, but it was very hard"
0,5b715800b31d480001eda165,testing,2M,21,hlbtbcUN,1,0,False,1209.0,"Tried to recall similar sequences, but it was very hard"
0,5b715800b31d480001eda165,testing,2M,22,kGamNJQA,0,0,True,881.0,"Tried to recall similar sequences, but it was very hard"
0,5b715800b31d480001eda165,testing,1M,23,AbkaYmb,0,0,True,1008.0,"Tried to recall similar sequences, but it was very hard"
0,5b715800b31d480001eda165,testing,2M,24,OAmAdZAUu,1,0,False,1004.0,"Tried to recall similar sequences, but it was very hard"
0,5b715800b31d480001eda165,testing,0M,25,LuaUJUG,1,0,False,821.0,"Tried to recall similar sequences, but it was very hard"
0,5b715800b31d480001eda165,testing,2M,26,tcYbdTAm,0,0,True,1004.0,"Tried to recall similar sequences, but it was very hard"
0,5b715800b31d480001eda165,testing,1M,27,OkGYlLG,0,0,True,995.0,"Tried to recall similar sequences, but it was very hard"
0,5b715800b31d480001eda165,testing,1M,28,KABAMlth,0,1,False,946.0,"Tried to recall similar sequences, but it was very hard"
0,5b715800b31d480001eda165,testing,0M,29,JZOAkBbM,1,0,False,1032.0,"Tried to recall similar sequences, but it was very hard"
0,5b715800b31d480001eda165,testing,0M,30,CDEmYvcb,1,1,True,850.0,"Tried to recall similar sequences, but it was very hard"
0,5b715800b31d480001eda165,testing,1M,31,COtBDYKPB,0,1,False,769.0,"Tried to recall similar sequences, but it was very hard"
0,5b715800b31d480001eda165,testing,2M,32,mdlaTRkY,1,0,False,954.0,"Tried to recall similar sequences, but it was very hard"
0,5b715800b31d480001eda165,testing,2M,33,AbkaYDE,1,0,False,859.0,"Tried to recall similar sequences, but it was very hard"
0,5b715800b31d480001eda165,testing,2M,34,OAmAdYKPB,0,0,True,942.0,"Tried to recall similar sequences, but it was very hard"
0,5b715800b31d480001eda165,testing,1M,35,AvdkDbMR,0,0,True,1372.0,"Tried to recall similar sequences, but it was very hard"
0,5b715800b31d480001eda165,testing,2M,36,uQkrdZAUu,0,1,False,1076.0,"Tried to recall similar sequences, but it was very hard"
0,5b715800b31d480001eda165,testing,0M,37,ubALmamJm,1,0,False,918.0,"Tried to recall similar sequences, but it was very hard"
0,5b715800b31d480001eda165,testing,0M,38,LcNUJMDKP,1,0,False,1035.0,"Tried to recall similar sequences, but it was very hard"
0,5b715800b31d480001eda165,testing,1M,39,JmNkcUN,0,0,True,829.0,"Tried to recall similar sequences, but it was very hard"
0,5b715800b31d480001eda165,testing,2M,40,ABPRBDbMR,0,0,True,881.0,"Tried to recall similar sequences, but it was very hard"
0,5b715800b31d480001eda165,testing,2M,41,tcYbdJQA,1,0,False,995.0,"Tried to recall similar sequences, but it was very hard"
0,5b715800b31d480001eda165,testing,0M,42,CDEmYDMRP,1,1,True,1016.0,"Tried to recall similar sequences, but it was very hard"
0,5b715800b31d480001eda165,testing,1M,43,LvuOGOcYM,0,0,True,977.0,"Tried to recall similar sequences, but it was very hard"
0,5b715800b31d480001eda165,testing,2M,44,Abkamkc,0,0,True,1014.0,"Tried to recall similar sequences, but it was very hard"
0,5b715800b31d480001eda165,testing,1M,45,PMPtkTRkY,0,0,True,1062.0,"Tried to recall similar sequences, but it was very hard"
0,5b715800b31d480001eda165,testing,1M,46,AYkEhTAm,0,0,True,1335.0,"Tried to recall similar sequences, but it was very hard"
0,5b715800b31d480001eda165,testing,1M,47,OdlNmZAUu,0,0,True,1363.0,"Tried to recall similar sequences, but it was very hard"
0,5b715800b31d480001eda165,testing,1M,48,dOYmlmkc,0,0,True,1212.0,"Tried to recall similar sequences, but it was very hard"
0,5b715800b31d480001eda165,testing,2M,49,kLvdNJQA,0,0,True,874.0,"Tried to recall similar sequences, but it was very hard"
0,5b715800b31d480001eda165,testing,2M,50,kcdOtYKPB,0,0,True,981.0,"Tried to recall similar sequences, but it was very hard"
0,5b715800b31d480001eda165,testing,0M,51,DOAKdBC,1,1,True,944.0,"Tried to recall similar sequences, but it was very hard"
0,5b715800b31d480001eda165,testing,0M,52,hCktukcY,1,1,True,1102.0,"Tried to recall similar sequences, but it was very hard"
0,5b715800b31d480001eda165,testing,1M,53,lBlEmAM,0,0,True,1106.0,"Tried to recall similar sequences, but it was very hard"
0,5b715800b31d480001eda165,testing,0M,54,tDPRkkKE,1,1,True,1569.0,"Tried to recall similar sequences, but it was very hard"
0,5b715800b31d480001eda165,testing,0M,55,kdEdYTRK,1,0,False,956.0,"Tried to recall similar sequences, but it was very hard"
0,5b715800b31d480001eda165,testing,0M,56,OtlRlmbY,1,0,False,1456.0,"Tried to recall similar sequences, but it was very hard"
0,5b715800b31d480001eda165,testing,1M,57,JuamlTAm,0,1,False,656.0,"Tried to recall similar sequences, but it was very hard"
0,5b715800b31d480001eda165,testing,2M,58,KABAcUN,1,0,False,894.0,"Tried to recall similar sequences, but it was very hard"
0,5b715800b31d480001eda165,testing,2M,59,vmuLlmkc,0,0,True,1569.0,"Tried to recall similar sequences, but it was very hard"
0,5b715800b31d480001eda165,testing,0M,60,kMbTRQGb,1,1,True,736.0,"Tried to recall similar sequences, but it was very hard"
0,5b715800b31d480001eda165,testing,0M,61,DCmhTmc,1,1,True,945.0,"Tried to recall similar sequences, but it was very hard"
0,5b715800b31d480001eda165,testing,1M,62,lZcubLd,0,0,True,1227.0,"Tried to recall similar sequences, but it was very hard"
0,5b715800b31d480001eda165,testing,0M,63,mARMTRK,1,1,True,1111.0,"Tried to recall similar sequences, but it was very hard"
0,5b715800b31d480001eda165,testing,2M,64,YmBdTAm,0,0,True,1143.0,"Tried to recall similar sequences, but it was very hard"
0,5b715800b31d480001eda165,testing,2M,65,lZcuDbMR,1,1,True,871.0,"Tried to recall similar sequences, but it was very hard"
0,5b715800b31d480001eda165,testing,1M,66,dKDthcUN,0,1,False,987.0,"Tried to recall similar sequences, but it was very hard"
0,5b715800b31d480001eda165,testing,0M,67,ktBdAld,1,0,False,982.0,"Tried to recall similar sequences, but it was very hard"
0,5b715800b31d480001eda165,testing,0M,68,QLrOJJZr,1,1,True,1169.0,"Tried to recall similar sequences, but it was very hard"
0,5b715800b31d480001eda165,testing,2M,69,OEPkmLJ,1,0,False,1082.0,"Tried to recall similar sequences, but it was very hard"
0,5b715800b31d480001eda165,testing,0M,70,ckduAPED,1,1,True,1171.0,"Tried to recall similar sequences, but it was very hard"
0,5b715800b31d480001eda165,testing,0M,71,cDOEBuOAO,1,0,False,934.0,"Tried to recall similar sequences, but it was very hard"
0,5b715800b31d480001eda165,testing,0M,72,OYuvblGc,1,0,False,837.0,"Tried to recall similar sequences, but it was very hard"
0,5b715800b31d480001eda165,testing,0M,73,PDPhlDdck,1,0,False,1056.0,"Tried to recall similar sequences, but it was very hard"
0,5b715800b31d480001eda165,testing,2M,74,lBlEmkc,1,0,False,984.0,"Tried to recall similar sequences, but it was very hard"
0,5b715800b31d480001eda165,testing,2M,75,vmuLlYDE,1,1,True,919.0,"Tried to recall similar sequences, but it was very hard"
0,5b715800b31d480001eda165,testing,2M,76,kGamNTAm,1,0,False,926.0,"Tried to recall similar sequences, but it was very hard"
0,5b715800b31d480001eda165,testing,1M,77,lRckAJQA,0,0,True,1038.0,"Tried to recall similar sequences, but it was very hard"
0,5b715800b31d480001eda165,testing,2M,78,kcdOtZAUu,1,1,True,1231.0,"Tried to recall similar sequences, but it was very hard"
0,5b715800b31d480001eda165,testing,2M,79,OkGYmLJ,0,0,True,897.0,"Tried to recall similar sequences, but it was very hard"
0,5b715800b31d480001eda165,testing,0M,80,aNYmbOPE,1,1,True,689.0,"Tried to recall similar sequences, but it was very hard"
0,5b715800b31d480001eda165,testing,0M,81,CmYAOCmk,1,1,True,1222.0,"Tried to recall similar sequences, but it was very hard"
0,5b715800b31d480001eda165,testing,1M,82,mdlaOYK,0,0,True,1020.0,"Tried to recall similar sequences, but it was very hard"
0,5b715800b31d480001eda165,testing,1M,83,BlmclYKPB,0,1,False,924.0,"Tried to recall similar sequences, but it was very hard"
0,5b715800b31d480001eda165,testing,1M,84,hlbtbLYGA,0,0,True,1371.0,"Tried to recall similar sequences, but it was very hard"
0,5b715800b31d480001eda165,testing,1M,85,OEPkKdAR,0,0,True,1030.0,"Tried to recall similar sequences, but it was very hard"
0,5b715800b31d480001eda165,testing,1M,86,uQkrdOdOP,0,1,False,1713.0,"Tried to recall similar sequences, but it was very hard"
0,5b715800b31d480001eda165,testing,0M,87,OLJbltRPD,1,0,False,1060.0,"Tried to recall similar sequences, but it was very hard"
0,5b715800b31d480001eda165,testing,2M,88,kbmZOcUN,0,0,True,1045.0,"Tried to recall similar sequences, but it was very hard"
0,5b715800b31d480001eda165,testing,1M,89,lhCTCmLJ,0,1,False,1003.0,"Tried to recall similar sequences, but it was very hard"
0,5b715800b31d480001eda165,testing,1M,90,muYNDbMR,0,0,True,922.0,"Tried to recall similar sequences, but it was very hard"
0,5b715800b31d480001eda165,testing,0M,91,hRKmATc,1,0,False,1107.0,"Tried to recall similar sequences, but it was very hard"
0,5b715800b31d480001eda165,testing,0M,92,CtmbhBK,1,1,True,942.0,"Tried to recall similar sequences, but it was very hard"
0,5b715800b31d480001eda165,testing,0M,93,ZcGdNNac,1,0,False,905.0,"Tried to recall similar sequences, but it was very hard"
0,5b715800b31d480001eda165,testing,0M,94,kDRKcGUOA,1,0,False,1421.0,"Tried to recall similar sequences, but it was very hard"
0,5b715800b31d480001eda165,testing,2M,95,uQkrdYKPB,1,1,True,952.0,"Tried to recall similar sequences, but it was very hard"
0,5b715800b31d480001eda165,testing,1M,96,DlDTmkc,0,0,True,1220.0,"Tried to recall similar sequences, but it was very hard"
0,5b715800b31d480001eda165,testing,1M,97,kGamNAkd,0,0,True,1054.0,"Tried to recall similar sequences, but it was very hard"
0,5b715800b31d480001eda165,testing,1M,98,kcdOtbAMO,0,0,True,682.0,"Tried to recall similar sequences, but it was very hard"
0,5b715800b31d480001eda165,testing,1M,99,kLvdNQru,0,1,False,1151.0,"Tried to recall similar sequences, but it was very hard"
0,5b715800b31d480001eda165,testing,2M,100,OkGYDbMR,1,0,False,2260.0,"Tried to recall similar sequences, but it was very hard"
0,5b715800b31d480001eda165,testing,1M,101,rGUAYZAUu,0,1,False,575.0,"Tried to recall similar sequences, but it was very hard"
0,5b715800b31d480001eda165,testing,2M,102,kbmZOTRkY,1,0,False,950.0,"Tried to recall similar sequences, but it was very hard"
0,5b715800b31d480001eda165,testing,2M,103,kLvdNTAm,1,0,False,1390.0,"Tried to recall similar sequences, but it was very hard"
0,5b715800b31d480001eda165,testing,2M,104,KABATRkY,0,0,True,951.0,"Tried to recall similar sequences, but it was very hard"
0,5b715800b31d480001eda165,testing,2M,105,lZcumLJ,0,0,True,1161.0,"Tried to recall similar sequences, but it was very hard"
0,5b715800b31d480001eda165,testing,2M,106,lBlEYDE,0,1,False,778.0,"Tried to recall similar sequences, but it was very hard"
0,5b715800b31d480001eda165,testing,1M,107,PlEKTRkY,0,0,True,917.0,"Tried to recall similar sequences, but it was very hard"
0,5b715800b31d480001eda165,testing,0M,108,OYuvbkBD,1,0,False,1223.0,"Tried to recall similar sequences, but it was very hard"
0,5b715800b31d480001eda165,testing,1M,109,kbmZORDM,0,1,False,798.0,"Tried to recall similar sequences, but it was very hard"
0,5b715800b31d480001eda165,testing,2M,110,hlbtbTRkY,0,1,False,1205.0,"Tried to recall similar sequences, but it was very hard"
0,5b715800b31d480001eda165,testing,1M,111,YmBdcDR,0,0,True,895.0,"Tried to recall similar sequences, but it was very hard"
0,5b715800b31d480001eda165,testing,1M,112,YLQmGYDE,0,0,True,919.0,"Tried to recall similar sequences, but it was very hard"
0,5b715800b31d480001eda165,testing,1M,113,vmuLlYcM,0,0,True,889.0,"Tried to recall similar sequences, but it was very hard"
0,5b715800b31d480001eda165,testing,0M,114,DkTCPkGua,1,0,False,1178.0,"Tried to recall similar sequences, but it was very hard"
0,5b715800b31d480001eda165,testing,0M,115,dvNvATmTm,1,1,True,1293.0,"Tried to recall similar sequences, but it was very hard"
0,5b715800b31d480001eda165,testing,1M,116,tcYbdAPT,0,0,True,1093.0,"Tried to recall similar sequences, but it was very hard"
0,5b715800b31d480001eda165,testing,1M,117,ABPRBNulk,0,1,False,736.0,"Tried to recall similar sequences, but it was very hard"
0,5b715800b31d480001eda165,testing,0M,118,UdbdOcN,1,1,True,1016.0,"Tried to recall similar sequences, but it was very hard"
0,5b715800b31d480001eda165,testing,2M,119,ABPRBmLJ,1,0,False,721.0,"Tried to recall similar sequences, but it was very hard"
0,5b715800b31d480001eda165,testing,2M,120,LvuOGYKPB,1,1,True,773.0,"Tried to recall similar sequences, but it was very hard"
0,5be84b9a40b06b0001370c9f,testing,0M,1,LYGATRK,1,1,True,1212.0,I tried to remember the first character of the word.
0,5be84b9a40b06b0001370c9f,testing,1M,2,kdEdYOJNk,0,0,True,1040.0,I tried to remember the first character of the word.
0,5be84b9a40b06b0001370c9f,testing,0M,3,adkrmARM,1,0,False,675.0,I tried to remember the first character of the word.
0,5be84b9a40b06b0001370c9f,testing,1M,4,UJmrcUN,0,0,True,898.0,I tried to remember the first character of the word.
0,5be84b9a40b06b0001370c9f,testing,2M,5,LvuOGAdYl,1,1,True,644.0,I tried to remember the first character of the word.
0,5be84b9a40b06b0001370c9f,testing,1M,6,hAROKtcB,0,0,True,667.0,I tried to remember the first character of the word.
0,5be84b9a40b06b0001370c9f,testing,1M,7,GJZmOJlN,0,0,True,800.0,I tried to remember the first character of the word.
0,5be84b9a40b06b0001370c9f,testing,1M,8,PctRCJud,0,0,True,1024.0,I tried to remember the first character of the word.
0,5be84b9a40b06b0001370c9f,testing,2M,9,UJmrUbG,0,0,True,1451.0,I tried to remember the first character of the word.
0,5be84b9a40b06b0001370c9f,testing,2M,10,dRbDbTRkY,0,1,False,937.0,I tried to remember the first character of the word.
0,5be84b9a40b06b0001370c9f,testing,1M,11,bdUNukYL,0,0,True,1221.0,I tried to remember the first character of the word.
0,5be84b9a40b06b0001370c9f,testing,0M,12,dOYmlkam,1,1,True,829.0,I tried to remember the first character of the word.
0,5be84b9a40b06b0001370c9f,testing,1M,13,uQuZcOJlN,0,0,True,1543.0,I tried to remember the first character of the word.
0,5be84b9a40b06b0001370c9f,testing,1M,14,OmtlDrNlZ,0,0,True,1119.0,I tried to remember the first character of the word.
0,5be84b9a40b06b0001370c9f,testing,1M,15,KDPAABb,0,1,False,1193.0,I tried to remember the first character of the word.
0,5be84b9a40b06b0001370c9f,testing,1M,16,LvuOGGZJY,0,0,True,991.0,I tried to remember the first character of the word.
0,5be84b9a40b06b0001370c9f,testing,2M,17,RdPtDOJlN,1,1,True,859.0,I tried to remember the first character of the word.
0,5be84b9a40b06b0001370c9f,testing,2M,18,YUNkZABb,1,1,True,1407.0,I tried to remember the first character of the word.
0,5be84b9a40b06b0001370c9f,testing,1M,19,bcbMtcB,0,0,True,1340.0,I tried to remember the first character of the word.
0,5be84b9a40b06b0001370c9f,testing,0M,20,cthBukbY,1,1,True,1508.0,I tried to remember the first character of the word.
0,5be84b9a40b06b0001370c9f,testing,2M,21,bvuZOJlN,0,0,True,810.0,I tried to remember the first character of the word.
0,5be84b9a40b06b0001370c9f,testing,0M,22,AZlLNDmh,1,1,True,746.0,I tried to remember the first character of the word.
0,5be84b9a40b06b0001370c9f,testing,1M,23,RdPtDrZYd,0,1,False,617.0,I tried to remember the first character of the word.
0,5be84b9a40b06b0001370c9f,testing,0M,24,DOBhYDdck,1,0,False,923.0,I tried to remember the first character of the word.
0,5be84b9a40b06b0001370c9f,testing,2M,25,RdPtDBRDh,0,1,False,891.0,I tried to remember the first character of the word.
0,5be84b9a40b06b0001370c9f,testing,0M,26,kdrOukbY,1,1,True,585.0,I tried to remember the first character of the word.
0,5be84b9a40b06b0001370c9f,testing,1M,27,BPAlYZUZ,0,0,True,521.0,I tried to remember the first character of the word.
0,5be84b9a40b06b0001370c9f,testing,2M,28,tDPRkYArG,1,1,True,737.0,I tried to remember the first character of the word.
0,5be84b9a40b06b0001370c9f,testing,2M,29,aLNlkTRkY,1,0,False,761.0,I tried to remember the first character of the word.
0,5be84b9a40b06b0001370c9f,testing,1M,30,PCMPKrvAJ,0,1,False,437.0,I tried to remember the first character of the word.
0,5be84b9a40b06b0001370c9f,testing,1M,31,cROMtABb,0,0,True,842.0,I tried to remember the first character of the word.
0,5be84b9a40b06b0001370c9f,testing,0M,32,DOBhYUJkG,1,1,True,777.0,I tried to remember the first character of the word.
0,5be84b9a40b06b0001370c9f,testing,2M,33,MkmEdUbG,1,1,True,1067.0,I tried to remember the first character of the word.
0,5be84b9a40b06b0001370c9f,testing,2M,34,ArQuOJNk,0,0,True,847.0,I tried to remember the first character of the word.
0,5be84b9a40b06b0001370c9f,testing,1M,35,YUNkZkCRm,0,1,False,940.0,I tried to remember the first character of the word.
0,5be84b9a40b06b0001370c9f,testing,0M,36,GJGcZMcMD,1,0,False,992.0,I tried to remember the first character of the word.
0,5be84b9a40b06b0001370c9f,testing,2M,37,PctRCABb,0,0,True,632.0,I tried to remember the first character of the word.
0,5be84b9a40b06b0001370c9f,testing,0M,38,kabJbKmE,1,1,True,697.0,I tried to remember the first character of the word.
0,5be84b9a40b06b0001370c9f,testing,1M,39,tDPRkTbk,0,0,True,1291.0,I tried to remember the first character of the word.
0,5be84b9a40b06b0001370c9f,testing,2M,40,auYAkYZUZ,0,0,True,727.0,I tried to remember the first character of the word.
0,5be84b9a40b06b0001370c9f,testing,0M,41,damYbEhRm,1,1,True,828.0,I tried to remember the first character of the word.
0,5be84b9a40b06b0001370c9f,testing,1M,42,rdLJaYArG,0,0,True,1030.0,I tried to remember the first character of the word.
0,5be84b9a40b06b0001370c9f,testing,2M,43,dRbDbOJNk,1,1,True,653.0,I tried to remember the first character of the word.
0,5be84b9a40b06b0001370c9f,testing,0M,44,QONkAvdk,1,0,False,817.0,I tried to remember the first character of the word.
0,5be84b9a40b06b0001370c9f,testing,2M,45,hbkdOJlN,1,1,True,443.0,I tried to remember the first character of the word.
0,5be84b9a40b06b0001370c9f,testing,2M,46,OmtlDOJNk,1,0,False,787.0,I tried to remember the first character of the word.
0,5be84b9a40b06b0001370c9f,testing,2M,47,TklDAdYl,0,1,False,879.0,I tried to remember the first character of the word.
0,5be84b9a40b06b0001370c9f,testing,2M,48,OmtlDTRkY,0,0,True,523.0,I tried to remember the first character of the word.
0,5be84b9a40b06b0001370c9f,testing,2M,49,PCMPKAdYl,0,0,True,695.0,I tried to remember the first character of the word.
0,5be84b9a40b06b0001370c9f,testing,2M,50,EtMDMtcB,0,1,False,840.0,I tried to remember the first character of the word.
0,5be84b9a40b06b0001370c9f,testing,2M,51,aLNlkOJNk,0,0,True,639.0,I tried to remember the first character of the word.
0,5be84b9a40b06b0001370c9f,testing,2M,52,TklDYZUZ,1,1,True,847.0,I tried to remember the first character of the word.
0,5be84b9a40b06b0001370c9f,testing,1M,53,EtMDMTmc,0,0,True,559.0,I tried to remember the first character of the word.
0,5be84b9a40b06b0001370c9f,testing,1M,54,dRbDbukcY,0,1,False,730.0,I tried to remember the first character of the word.
0,5be84b9a40b06b0001370c9f,testing,1M,55,MkmEdAkd,0,0,True,776.0,I tried to remember the first character of the word.
0,5be84b9a40b06b0001370c9f,testing,2M,56,UJmrtcB,1,0,False,795.0,I tried to remember the first character of the word.
0,5be84b9a40b06b0001370c9f,testing,1M,57,cAZukMEC,0,1,False,902.0,I tried to remember the first character of the word.
0,5be84b9a40b06b0001370c9f,testing,2M,58,ArQuTRkY,1,0,False,731.0,I tried to remember the first character of the word.
0,5be84b9a40b06b0001370c9f,testing,0M,59,rAJumcOJ,1,1,True,834.0,I tried to remember the first character of the word.
0,5be84b9a40b06b0001370c9f,testing,1M,60,auYAkbcOR,0,0,True,1558.0,I tried to remember the first character of the word.
0,5be84b9a40b06b0001370c9f,testing,2M,61,bdUNutcB,1,0,False,825.0,I tried to remember the first character of the word.
0,5be84b9a40b06b0001370c9f,testing,1M,62,cDOEBOJNk,0,0,True,1497.0,I tried to remember the first character of the word.
0,5be84b9a40b06b0001370c9f,testing,0M,63,kKEdMGUa,1,0,False,610.0,I tried to remember the first character of the word.
0,5be84b9a40b06b0001370c9f,testing,1M,64,kDOmBRDh,0,1,False,895.0,I tried to remember the first character of the word.
0,5be84b9a40b06b0001370c9f,testing,0M,65,YJLcAmAM,1,0,False,653.0,I tried to remember the first character of the word.
0,5be84b9a40b06b0001370c9f,testing,1M,66,QcQAJYZUZ,0,1,False,724.0,I tried to remember the first character of the word.
0,5be84b9a40b06b0001370c9f,testing,0M,67,cBROBGrub,1,1,True,971.0,I tried to remember the first character of the word.
0,5be84b9a40b06b0001370c9f,testing,2M,68,EtMDMUbG,1,0,False,710.0,I tried to remember the first character of the word.
0,5be84b9a40b06b0001370c9f,testing,2M,69,auYAkAdYl,1,0,False,871.0,I tried to remember the first character of the word.
0,5be84b9a40b06b0001370c9f,testing,2M,70,mbZlYArG,0,1,False,707.0,I tried to remember the first character of the word.
0,5be84b9a40b06b0001370c9f,testing,0M,71,aYaNPED,1,0,False,938.0,I tried to remember the first character of the word.
0,5be84b9a40b06b0001370c9f,testing,1M,72,EPMDkAdYl,0,1,False,809.0,I tried to remember the first character of the word.
0,5be84b9a40b06b0001370c9f,testing,0M,73,RCcELGkA,1,0,False,1322.0,I tried to remember the first character of the word.
0,5be84b9a40b06b0001370c9f,testing,0M,74,DhCPYUYa,1,0,False,7760.0,I tried to remember the first character of the word.
0,5be84b9a40b06b0001370c9f,testing,1M,75,mbZlZdlO,0,0,True,385.0,I tried to remember the first character of the word.
0,5be84b9a40b06b0001370c9f,testing,1M,76,tcYbdYArG,0,1,False,386.0,I tried to remember the first character of the word.
0,5be84b9a40b06b0001370c9f,testing,2M,77,bvuZBRDh,1,1,True,494.0,I tried to remember the first character of the word.
0,5be84b9a40b06b0001370c9f,testing,0M,78,hRKmOdOP,1,0,False,333.0,I tried to remember the first character of the word.
0,5be84b9a40b06b0001370c9f,testing,2M,79,MkmEdtcB,0,1,False,522.0,I tried to remember the first character of the word.
0,5be84b9a40b06b0001370c9f,testing,0M,80,OAmGrAdDb,1,1,True,415.0,I tried to remember the first character of the word.
0,5be84b9a40b06b0001370c9f,testing,1M,81,TklDQvlZ,0,0,True,414.0,I tried to remember the first character of the word.
0,5be84b9a40b06b0001370c9f,testing,1M,82,MBKRETRkY,0,1,False,453.0,I tried to remember the first character of the word.
0,5be84b9a40b06b0001370c9f,testing,0M,83,OQarQDhMt,1,1,True,432.0,I tried to remember the first character of the word.
0,5be84b9a40b06b0001370c9f,testing,0M,84,LUOkAbKD,1,0,False,769.0,I tried to remember the first character of the word.
0,5be84b9a40b06b0001370c9f,testing,2M,85,cAZuBRDh,1,1,True,743.0,I tried to remember the first character of the word.
0,5be84b9a40b06b0001370c9f,testing,1M,86,bvuZlmbY,0,0,True,760.0,I tried to remember the first character of the word.
0,5be84b9a40b06b0001370c9f,testing,0M,87,PYkCZvkL,1,1,True,668.0,I tried to remember the first character of the word.
0,5be84b9a40b06b0001370c9f,testing,0M,88,ZcGdNDMRP,1,1,True,773.0,I tried to remember the first character of the word.
0,5be84b9a40b06b0001370c9f,testing,2M,89,bdUNuUbG,0,1,False,774.0,I tried to remember the first character of the word.
0,5be84b9a40b06b0001370c9f,testing,1M,90,ArQuYZJO,0,0,True,652.0,I tried to remember the first character of the word.
0,5be84b9a40b06b0001370c9f,testing,0M,91,BOCRMkKRC,1,1,True,1050.0,I tried to remember the first character of the word.
0,5be84b9a40b06b0001370c9f,testing,2M,92,cAZuOJlN,0,1,False,1357.0,I tried to remember the first character of the word.
0,5be84b9a40b06b0001370c9f,testing,1M,93,BEPOBRDh,0,1,False,1016.0,I tried to remember the first character of the word.
0,5be84b9a40b06b0001370c9f,testing,2M,94,YUNkZYArG,0,0,True,680.0,I tried to remember the first character of the word.
0,5be84b9a40b06b0001370c9f,testing,1M,95,ZJLmrAdYl,0,1,False,735.0,I tried to remember the first character of the word.
0,5be84b9a40b06b0001370c9f,testing,1M,96,aLNlkNaJb,0,0,True,623.0,I tried to remember the first character of the word.
0,5be84b9a40b06b0001370c9f,testing,2M,97,tDPRkABb,0,1,False,652.0,I tried to remember the first character of the word.
0,5be84b9a40b06b0001370c9f,testing,1M,98,mUOcOUbG,0,1,False,940.0,I tried to remember the first character of the word.
0,5be84b9a40b06b0001370c9f,testing,0M,99,kDRKcNJZl,1,0,False,605.0,I tried to remember the first character of the word.
0,5be84b9a40b06b0001370c9f,testing,2M,100,hbkdBRDh,0,0,True,801.0,I tried to remember the first character of the word.
0,5be84b9a40b06b0001370c9f,testing,0M,101,CkBOPUrOQ,1,1,True,748.0,I tried to remember the first character of the word.
0,5be84b9a40b06b0001370c9f,testing,0M,102,COtBDktBd,1,1,True,400.0,I tried to remember the first character of the word.
0,5be84b9a40b06b0001370c9f,testing,0M,103,NbacAvUdm,1,1,True,810.0,I tried to remember the first character of the word.
0,5be84b9a40b06b0001370c9f,testing,1M,104,hbkdlkAk,0,1,False,1971.0,I tried to remember the first character of the word.
0,5be84b9a40b06b0001370c9f,testing,0M,105,RkmdCmAM,1,1,True,873.0,I tried to remember the first character of the word.
0,5be84b9a40b06b0001370c9f,testing,1M,106,AZaJcUbG,0,1,False,2011.0,I tried to remember the first character of the word.
0,5be84b9a40b06b0001370c9f,testing,0M,107,YlCPBkmU,1,0,False,643.0,I tried to remember the first character of the word.
0,5be84b9a40b06b0001370c9f,testing,0M,108,dGLAluZc,1,1,True,728.0,I tried to remember the first character of the word.
0,5be84b9a40b06b0001370c9f,testing,2M,109,PCMPKYZUZ,1,0,False,548.0,I tried to remember the first character of the word.
0,5be84b9a40b06b0001370c9f,testing,0M,110,dCtMAAlTd,1,1,True,503.0,I tried to remember the first character of the word.
0,5be84b9a40b06b0001370c9f,testing,0M,111,EdBbCKOb,1,0,False,500.0,I tried to remember the first character of the word.
0,5be84b9a40b06b0001370c9f,testing,2M,112,LvuOGYZUZ,0,0,True,679.0,I tried to remember the first character of the word.
0,5be84b9a40b06b0001370c9f,testing,1M,113,YmBdTRkY,0,1,False,567.0,I tried to remember the first character of the word.
0,5be84b9a40b06b0001370c9f,testing,0M,114,NbmQUdYdA,1,0,False,352.0,I tried to remember the first character of the word.
0,5be84b9a40b06b0001370c9f,testing,0M,115,PCPDhATc,1,1,True,652.0,I tried to remember the first character of the word.
0,5be84b9a40b06b0001370c9f,testing,0M,116,mBmlAhTDd,1,0,False,601.0,I tried to remember the first character of the word.
0,5be84b9a40b06b0001370c9f,testing,2M,117,PctRCYArG,1,0,False,438.0,I tried to remember the first character of the word.
0,5be84b9a40b06b0001370c9f,testing,0M,118,DBlhmAM,1,1,True,586.0,I tried to remember the first character of the word.
0,5be84b9a40b06b0001370c9f,testing,0M,119,YuaNduauO,1,1,True,1411.0,I tried to remember the first character of the word.
0,5be84b9a40b06b0001370c9f,testing,2M,120,mbZlABb,1,0,False,713.0,I tried to remember the first character of the word.
0,5c5baaec192d350001d5c8e4,testing,0M,1,dMYBPQGb,1,0,False,2664.0,I tried to look for characters that the same group as before used a lot.
0,5c5baaec192d350001d5c8e4,testing,2M,2,ZdNmUkYL,0,0,True,688.0,I tried to look for characters that the same group as before used a lot.
0,5c5baaec192d350001d5c8e4,testing,2M,3,krGuYbBT,1,1,True,696.0,I tried to look for characters that the same group as before used a lot.
0,5c5baaec192d350001d5c8e4,testing,0M,4,rNlZcbm,1,1,True,895.0,I tried to look for characters that the same group as before used a lot.
0,5c5baaec192d350001d5c8e4,testing,0M,5,rvOvUOtlR,1,1,True,856.0,I tried to look for characters that the same group as before used a lot.
0,5c5baaec192d350001d5c8e4,testing,1M,6,ubALmmCd,0,0,True,727.0,I tried to look for characters that the same group as before used a lot.
0,5c5baaec192d350001d5c8e4,testing,1M,7,ZNLOvbRC,0,0,True,864.0,I tried to look for characters that the same group as before used a lot.
0,5c5baaec192d350001d5c8e4,testing,2M,8,YuaNdmtKP,1,0,False,864.0,I tried to look for characters that the same group as before used a lot.
0,5c5baaec192d350001d5c8e4,testing,1M,9,EMYKlLG,0,1,False,720.0,I tried to look for characters that the same group as before used a lot.
0,5c5baaec192d350001d5c8e4,testing,1M,10,rkYLrULv,0,1,False,895.0,I tried to look for characters that the same group as before used a lot.
0,5c5baaec192d350001d5c8e4,testing,2M,11,PEkhAOPE,0,0,True,952.0,I tried to look for characters that the same group as before used a lot.
0,5c5baaec192d350001d5c8e4,testing,1M,12,OYuvbkMEC,0,0,True,792.0,I tried to look for characters that the same group as before used a lot.
0,5c5baaec192d350001d5c8e4,testing,0M,13,NAacQNaJb,1,0,False,792.0,I tried to look for characters that the same group as before used a lot.
0,5c5baaec192d350001d5c8e4,testing,1M,14,chAhYbBT,0,0,True,711.0,I tried to look for characters that the same group as before used a lot.
0,5c5baaec192d350001d5c8e4,testing,2M,15,kdaAJmtKP,1,0,False,1072.0,I tried to look for characters that the same group as before used a lot.
0,5c5baaec192d350001d5c8e4,testing,0M,16,LNUrJOMC,1,1,True,928.0,I tried to look for characters that the same group as before used a lot.
0,5c5baaec192d350001d5c8e4,testing,2M,17,COTKkmU,1,1,True,856.0,I tried to look for characters that the same group as before used a lot.
0,5c5baaec192d350001d5c8e4,testing,1M,18,dNZAmvG,0,1,False,840.0,I tried to look for characters that the same group as before used a lot.
0,5c5baaec192d350001d5c8e4,testing,2M,19,QcladkYL,0,0,True,928.0,I tried to look for characters that the same group as before used a lot.
0,5c5baaec192d350001d5c8e4,testing,0M,20,ukYZJcUk,1,1,True,832.0,I tried to look for characters that the same group as before used a lot.
0,5c5baaec192d350001d5c8e4,testing,1M,21,ZdNmUDOk,0,1,False,840.0,I tried to look for characters that the same group as before used a lot.
0,5c5baaec192d350001d5c8e4,testing,0M,22,KAERMYLU,1,1,True,720.0,I tried to look for characters that the same group as before used a lot.
0,5c5baaec192d350001d5c8e4,testing,2M,23,BPAlmtKP,0,1,False,968.0,I tried to look for characters that the same group as before used a lot.
0,5c5baaec192d350001d5c8e4,testing,1M,24,lmbYuda,0,0,True,968.0,I tried to look for characters that the same group as before used a lot.
0,5c5baaec192d350001d5c8e4,testing,2M,25,PEkhAkYL,1,0,False,696.0,I tried to look for characters that the same group as before used a lot.
0,5c5baaec192d350001d5c8e4,testing,2M,26,TPCbrULv,1,0,False,784.0,I tried to look for characters that the same group as before used a lot.
0,5c5baaec192d350001d5c8e4,testing,2M,27,dNZAYbBT,1,1,True,744.0,I tried to look for characters that the same group as before used a lot.
0,5c5baaec192d350001d5c8e4,testing,0M,28,rLkmNUZ,1,1,True,696.0,I tried to look for characters that the same group as before used a lot.
0,5c5baaec192d350001d5c8e4,testing,1M,29,YDTkrULv,0,0,True,896.0,I tried to look for characters that the same group as before used a lot.
0,5c5baaec192d350001d5c8e4,testing,1M,30,BPAlvclY,0,0,True,872.0,I tried to look for characters that the same group as before used a lot.
0,5c5baaec192d350001d5c8e4,testing,1M,31,ACcOYbBT,0,1,False,672.0,I tried to look for characters that the same group as before used a lot.
0,5c5baaec192d350001d5c8e4,testing,1M,32,lKdbcdkLl,0,1,False,680.0,I tried to look for characters that the same group as before used a lot.
0,5c5baaec192d350001d5c8e4,testing,1M,33,QcladlGc,0,0,True,952.0,I tried to look for characters that the same group as before used a lot.
0,5c5baaec192d350001d5c8e4,testing,0M,34,lBlECMdP,1,0,False,800.0,I tried to look for characters that the same group as before used a lot.
0,5c5baaec192d350001d5c8e4,testing,0M,35,LkNcvJQ,1,1,True,632.0,I tried to look for characters that the same group as before used a lot.
0,5c5baaec192d350001d5c8e4,testing,2M,36,ZNLOvcUN,0,1,False,744.0,I tried to look for characters that the same group as before used a lot.
0,5c5baaec192d350001d5c8e4,testing,0M,37,mdkKAZbl,1,0,False,560.0,I tried to look for characters that the same group as before used a lot.
0,5c5baaec192d350001d5c8e4,testing,2M,38,EMYKOPE,0,0,True,496.0,I tried to look for characters that the same group as before used a lot.
0,5c5baaec192d350001d5c8e4,testing,2M,39,lKdbcmtKP,0,0,True,456.0,I tried to look for characters that the same group as before used a lot.
0,5c5baaec192d350001d5c8e4,testing,1M,40,QLrOJGrbk,0,1,False,392.0,I tried to look for characters that the same group as before used a lot.
0,5c5baaec192d350001d5c8e4,testing,0M,41,damYbdPc,1,1,True,295.0,I tried to look for characters that the same group as before used a lot.
0,5c5baaec192d350001d5c8e4,testing,2M,42,KTDTBYbBT,0,0,True,304.0,I tried to look for characters that the same group as before used a lot.
0,5c5baaec192d350001d5c8e4,testing,1M,43,RCdcmAM,0,0,True,240.0,I tried to look for characters that the same group as before used a lot.
0,5c5baaec192d350001d5c8e4,testing,2M,44,ZdNmUOPE,1,1,True,200.0,I tried to look for characters that the same group as before used a lot.
0,5c5baaec192d350001d5c8e4,testing,2M,45,YuaNdOQAr,0,0,True,232.0,I tried to look for characters that the same group as before used a lot.
0,5c5baaec192d350001d5c8e4,testing,2M,46,EMYKkYL,1,1,True,192.0,I tried to look for characters that the same group as before used a lot.
0,5c5baaec192d350001d5c8e4,testing,2M,47,ZNLOvmAM,1,0,False,159.0,I tried to look for characters that the same group as before used a lot.
0,5c5baaec192d350001d5c8e4,testing,1M,48,COTKhkRK,0,1,False,136.0,I tried to look for characters that the same group as before used a lot.
0,5c5baaec192d350001d5c8e4,testing,1M,49,dOYmlmAM,0,0,True,127.0,I tried to look for characters that the same group as before used a lot.
0,5c5baaec192d350001d5c8e4,testing,1M,50,KTDTBdJNr,0,1,False,151.0,I tried to look for characters that the same group as before used a lot.
0,5c5baaec192d350001d5c8e4,testing,0M,51,LOLkUAlUY,1,0,False,103.0,I tried to look for characters that the same group as before used a lot.
0,5c5baaec192d350001d5c8e4,testing,1M,52,bdUNucUN,0,1,False,160.0,I tried to look for characters that the same group as before used a lot.
0,5c5baaec192d350001d5c8e4,testing,0M,53,mKcDBCD,1,0,False,95.0,I tried to look for characters that the same group as before used a lot.
0,5c5baaec192d350001d5c8e4,testing,2M,54,bcbMcUN,1,0,False,416.0,I tried to look for characters that the same group as before used a lot.
0,5c5baaec192d350001d5c8e4,testing,0M,55,tKDmhrAm,1,0,False,296.0,I tried to look for characters that the same group as before used a lot.
0,5c5baaec192d350001d5c8e4,testing,1M,56,mBbKcUN,0,0,True,320.0,I tried to look for characters that the same group as before used a lot.
0,5c5baaec192d350001d5c8e4,testing,2M,57,PEtEmCd,0,0,True,304.0,I tried to look for characters that the same group as before used a lot.
0,5c5baaec192d350001d5c8e4,testing,0M,58,ckLALOkGY,1,0,False,288.0,I tried to look for characters that the same group as before used a lot.
0,5c5baaec192d350001d5c8e4,testing,0M,59,bNdmGvJQ,1,1,True,352.0,I tried to look for characters that the same group as before used a lot.
0,5c5baaec192d350001d5c8e4,testing,2M,60,QLrOJmCd,1,1,True,320.0,I tried to look for characters that the same group as before used a lot.
0,5c5baaec192d350001d5c8e4,testing,0M,61,RhPmkbu,1,0,False,344.0,I tried to look for characters that the same group as before used a lot.
0,5c5baaec192d350001d5c8e4,testing,2M,62,QcladOPE,1,0,False,256.0,I tried to look for characters that the same group as before used a lot.
0,5c5baaec192d350001d5c8e4,testing,2M,63,BPAlOQAr,1,0,False,304.0,I tried to look for characters that the same group as before used a lot.
0,5c5baaec192d350001d5c8e4,testing,0M,64,advYOJcL,1,1,True,280.0,I tried to look for characters that the same group as before used a lot.
0,5c5baaec192d350001d5c8e4,testing,2M,65,PhktkcUN,1,1,True,232.0,I tried to look for characters that the same group as before used a lot.
0,5c5baaec192d350001d5c8e4,testing,1M,66,dGLAlmCd,0,1,False,328.0,I tried to look for characters that the same group as before used a lot.
0,5c5baaec192d350001d5c8e4,testing,0M,67,aYaNrba,1,0,False,272.0,I tried to look for characters that the same group as before used a lot.
0,5c5baaec192d350001d5c8e4,testing,1M,68,PhktkJUG,0,0,True,167.0,I tried to look for characters that the same group as before used a lot.
0,5c5baaec192d350001d5c8e4,testing,2M,69,OYuvbrULv,0,0,True,288.0,I tried to look for characters that the same group as before used a lot.
0,5c5baaec192d350001d5c8e4,testing,2M,70,kdaAJOQAr,0,1,False,272.0,I tried to look for characters that the same group as before used a lot.
0,5c5baaec192d350001d5c8e4,testing,0M,71,YArGOMC,1,1,True,176.0,I tried to look for characters that the same group as before used a lot.
0,5c5baaec192d350001d5c8e4,testing,0M,72,NaAQdAlTd,1,1,True,288.0,I tried to look for characters that the same group as before used a lot.
0,5c5baaec192d350001d5c8e4,testing,1M,73,kdaAJbcOR,0,1,False,240.0,I tried to look for characters that the same group as before used a lot.
0,5c5baaec192d350001d5c8e4,testing,1M,74,mLdkZOQAr,0,1,False,168.0,I tried to look for characters that the same group as before used a lot.
0,5c5baaec192d350001d5c8e4,testing,0M,75,OAblcYmb,1,0,False,320.0,I tried to look for characters that the same group as before used a lot.
0,5c5baaec192d350001d5c8e4,testing,0M,76,hYDmtOEPk,1,0,False,232.0,I tried to look for characters that the same group as before used a lot.
0,5c5baaec192d350001d5c8e4,testing,2M,77,krGukmU,0,0,True,264.0,I tried to look for characters that the same group as before used a lot.
0,5c5baaec192d350001d5c8e4,testing,0M,78,JdOAYYcM,1,0,False,256.0,I tried to look for characters that the same group as before used a lot.
0,5c5baaec192d350001d5c8e4,testing,2M,79,TPCbmCd,0,0,True,280.0,I tried to look for characters that the same group as before used a lot.
0,5c5baaec192d350001d5c8e4,testing,0M,80,GZJYCkbd,1,0,False,264.0,I tried to look for characters that the same group as before used a lot.
0,5c5baaec192d350001d5c8e4,testing,0M,81,KdARQGb,1,0,False,232.0,I tried to look for characters that the same group as before used a lot.
0,5c5baaec192d350001d5c8e4,testing,2M,82,PEtErULv,1,1,True,288.0,I tried to look for characters that the same group as before used a lot.
0,5c5baaec192d350001d5c8e4,testing,1M,83,kZUbOQAr,0,1,False,544.0,I tried to look for characters that the same group as before used a lot.
0,5c5baaec192d350001d5c8e4,testing,0M,84,vQdOuAkr,1,1,True,360.0,I tried to look for characters that the same group as before used a lot.
0,5c5baaec192d350001d5c8e4,testing,2M,85,OYuvbmCd,1,1,True,408.0,I tried to look for characters that the same group as before used a lot.
0,5c5baaec192d350001d5c8e4,testing,2M,86,PhktkmAM,0,1,False,423.0,I tried to look for characters that the same group as before used a lot.
0,5c5baaec192d350001d5c8e4,testing,0M,87,BATOcOMC,1,1,True,2240.0,I tried to look for characters that the same group as before used a lot.
0,5c5baaec192d350001d5c8e4,testing,1M,88,aYQmkYL,0,0,True,688.0,I tried to look for characters that the same group as before used a lot.
0,5c5baaec192d350001d5c8e4,testing,1M,89,NvuGrmtKP,0,0,True,455.0,I tried to look for characters that the same group as before used a lot.
0,5c5baaec192d350001d5c8e4,testing,1M,90,PEtEdBC,0,0,True,376.0,I tried to look for characters that the same group as before used a lot.
0,5c5baaec192d350001d5c8e4,testing,2M,91,COTKYbBT,0,0,True,320.0,I tried to look for characters that the same group as before used a lot.
0,5c5baaec192d350001d5c8e4,testing,2M,92,QLrOJrULv,0,0,True,312.0,I tried to look for characters that the same group as before used a lot.
0,5c5baaec192d350001d5c8e4,testing,1M,93,bcbMYkZ,0,1,False,303.0,I tried to look for characters that the same group as before used a lot.
0,5c5baaec192d350001d5c8e4,testing,0M,94,mdlaTbk,1,1,True,232.0,I tried to look for characters that the same group as before used a lot.
0,5c5baaec192d350001d5c8e4,testing,1M,95,MKmYkmU,0,0,True,440.0,I tried to look for characters that the same group as before used a lot.
0,5c5baaec192d350001d5c8e4,testing,1M,96,TAdhMkYL,0,1,False,111.0,I tried to look for characters that the same group as before used a lot.
0,5c5baaec192d350001d5c8e4,testing,0M,97,YLQmGYOZN,1,0,False,127.0,I tried to look for characters that the same group as before used a lot.
0,5c5baaec192d350001d5c8e4,testing,0M,98,OcYMQru,1,1,True,128.0,I tried to look for characters that the same group as before used a lot.
0,5c5baaec192d350001d5c8e4,testing,0M,99,LQurCKOb,1,0,False,119.0,I tried to look for characters that the same group as before used a lot.
0,5c5baaec192d350001d5c8e4,testing,1M,100,cdKBYOPE,0,1,False,144.0,I tried to look for characters that the same group as before used a lot.
0,5c5baaec192d350001d5c8e4,testing,0M,101,bYGOZkNua,1,0,False,80.0,I tried to look for characters that the same group as before used a lot.
0,5c5baaec192d350001d5c8e4,testing,2M,102,KTDTBkmU,1,0,False,576.0,I tried to look for characters that the same group as before used a lot.
0,5c5baaec192d350001d5c8e4,testing,0M,103,kKEdMArv,1,0,False,695.0,I tried to look for characters that the same group as before used a lot.
0,5c5baaec192d350001d5c8e4,testing,1M,104,TPCbuvJ,0,0,True,520.0,I tried to look for characters that the same group as before used a lot.
0,5c5baaec192d350001d5c8e4,testing,1M,105,rGUAYkmU,0,0,True,576.0,I tried to look for characters that the same group as before used a lot.
0,5c5baaec192d350001d5c8e4,testing,1M,106,krGuATc,0,0,True,464.0,I tried to look for characters that the same group as before used a lot.
0,5c5baaec192d350001d5c8e4,testing,0M,107,PDPhlcDR,1,0,False,431.0,I tried to look for characters that the same group as before used a lot.
0,5c5baaec192d350001d5c8e4,testing,2M,108,lmbYmAM,1,0,False,392.0,I tried to look for characters that the same group as before used a lot.
0,5c5baaec192d350001d5c8e4,testing,1M,109,kPkRAOPE,0,0,True,408.0,I tried to look for characters that the same group as before used a lot.
0,5c5baaec192d350001d5c8e4,testing,1M,110,PEkhArab,0,1,False,520.0,I tried to look for characters that the same group as before used a lot.
0,5c5baaec192d350001d5c8e4,testing,0M,111,CYPcNac,1,1,True,456.0,I tried to look for characters that the same group as before used a lot.
0,5c5baaec192d350001d5c8e4,testing,1M,112,uQkrdmtKP,0,1,False,423.0,I tried to look for characters that the same group as before used a lot.
0,5c5baaec192d350001d5c8e4,testing,0M,113,RYlDRKYk,1,1,True,464.0,I tried to look for characters that the same group as before used a lot.
0,5c5baaec192d350001d5c8e4,testing,2M,114,lKdbcOQAr,1,1,True,448.0,I tried to look for characters that the same group as before used a lot.
0,5c5baaec192d350001d5c8e4,testing,0M,115,kRCkOrGl,1,1,True,464.0,I tried to look for characters that the same group as before used a lot.
0,5c5baaec192d350001d5c8e4,testing,0M,116,cuOJbamJm,1,1,True,440.0,I tried to look for characters that the same group as before used a lot.
0,5c5baaec192d350001d5c8e4,testing,1M,117,YuaNdKElB,0,0,True,535.0,I tried to look for characters that the same group as before used a lot.
0,5c5baaec192d350001d5c8e4,testing,2M,118,bcbMmAM,0,0,True,456.0,I tried to look for characters that the same group as before used a lot.
0,5c5baaec192d350001d5c8e4,testing,2M,119,lmbYcUN,0,0,True,424.0,I tried to look for characters that the same group as before used a lot.
0,5c5baaec192d350001d5c8e4,testing,2M,120,dNZAkmU,0,0,True,432.0,I tried to look for characters that the same group as before used a lot.
0,5c5e04ca6539fe00016e1afa,testing,2M,1,TDKhTAm,0,1,False,3474.0,"intuito, non ho tempo di pensare"
0,5c5e04ca6539fe00016e1afa,testing,2M,2,rdLJaKlkD,1,0,False,523.0,"intuito, non ho tempo di pensare"
0,5c5e04ca6539fe00016e1afa,testing,2M,3,bmbNGUa,0,1,False,669.0,"intuito, non ho tempo di pensare"
0,5c5e04ca6539fe00016e1afa,testing,2M,4,dGLAlYaum,0,0,True,502.0,"intuito, non ho tempo di pensare"
0,5c5e04ca6539fe00016e1afa,testing,2M,5,kRCkOcMRl,0,1,False,790.0,"intuito, non ho tempo di pensare"
0,5c5e04ca6539fe00016e1afa,testing,2M,6,RhPmKlkD,0,1,False,527.0,"intuito, non ho tempo di pensare"
0,5c5e04ca6539fe00016e1afa,testing,2M,7,JZOAkcMRl,1,1,True,660.0,"intuito, non ho tempo di pensare"
0,5c5e04ca6539fe00016e1afa,testing,2M,8,aYQmkPM,1,0,False,624.0,"intuito, non ho tempo di pensare"
0,5c5e04ca6539fe00016e1afa,testing,2M,9,rkYLAOUl,0,0,True,631.0,"intuito, non ho tempo di pensare"
0,5c5e04ca6539fe00016e1afa,testing,2M,10,kZUbTAm,1,1,True,529.0,"intuito, non ho tempo di pensare"
0,5c5e04ca6539fe00016e1afa,testing,2M,11,dGLAlRCdc,1,1,True,669.0,"intuito, non ho tempo di pensare"
0,5c5e04ca6539fe00016e1afa,testing,2M,12,OcYMYaum,1,1,True,581.0,"intuito, non ho tempo di pensare"
0,5c5e04ca6539fe00016e1afa,testing,2M,13,rvOvURCdc,1,0,False,560.0,"intuito, non ho tempo di pensare"
0,5c5e04ca6539fe00016e1afa,testing,2M,14,TDKhrNlZ,1,0,False,546.0,"intuito, non ho tempo di pensare"
0,5c5e04ca6539fe00016e1afa,testing,2M,15,kRCkOAOUl,1,1,True,541.0,"intuito, non ho tempo di pensare"
0,5c5e04ca6539fe00016e1afa,testing,2M,16,hlbtbrULv,1,1,True,627.0,"intuito, non ho tempo di pensare"
0,5c5e04ca6539fe00016e1afa,testing,2M,17,rbYbukPM,1,0,False,814.0,"intuito, non ho tempo di pensare"
0,5c5e04ca6539fe00016e1afa,testing,2M,18,hmKPMrULv,1,1,True,794.0,"intuito, non ho tempo di pensare"
0,5c5e04ca6539fe00016e1afa,testing,2M,19,lCbcmcMRl,0,1,False,596.0,"intuito, non ho tempo di pensare"
0,5c5e04ca6539fe00016e1afa,testing,2M,20,rvOvUYaum,0,0,True,733.0,"intuito, non ho tempo di pensare"
0,5c5e04ca6539fe00016e1afa,testing,2M,21,aYQmrULv,0,0,True,722.0,"intuito, non ho tempo di pensare"
0,5c5e04ca6539fe00016e1afa,testing,2M,22,kbmZOrNlZ,0,0,True,694.0,"intuito, non ho tempo di pensare"
0,5c5e04ca6539fe00016e1afa,testing,2M,23,rdLJaGUa,0,1,False,864.0,"intuito, non ho tempo di pensare"
0,5c5e04ca6539fe00016e1afa,testing,2M,24,kbmZOTAm,1,1,True,749.0,"intuito, non ho tempo di pensare"
0,5c5e04ca6539fe00016e1afa,testing,2M,25,hlbtbkPM,0,0,True,504.0,"intuito, non ho tempo di pensare"
0,5c5e04ca6539fe00016e1afa,testing,2M,26,rkYLcMRl,1,0,False,716.0,"intuito, non ho tempo di pensare"
0,5c5e04ca6539fe00016e1afa,testing,2M,27,kKEdMRCdc,0,1,False,393.0,"intuito, non ho tempo di pensare"
0,5c5e04ca6539fe00016e1afa,testing,2M,28,MTdYTAm,0,1,False,548.0,"intuito, non ho tempo di pensare"
0,5c5e04ca6539fe00016e1afa,testing,2M,29,kZUbrNlZ,0,1,False,564.0,"intuito, non ho tempo di pensare"
0,5c5e04ca6539fe00016e1afa,testing,2M,30,RhPmGUa,1,0,False,631.0,"intuito, non ho tempo di pensare"
0,5c5e04ca6539fe00016e1afa,testing,2M,31,rbYburULv,0,1,False,400.0,"intuito, non ho tempo di pensare"
0,5c5e04ca6539fe00016e1afa,testing,2M,32,OcYMRCdc,0,1,False,571.0,"intuito, non ho tempo di pensare"
0,5c5e04ca6539fe00016e1afa,testing,2M,33,hmKPMkPM,0,0,True,659.0,"intuito, non ho tempo di pensare"
0,5c5e04ca6539fe00016e1afa,testing,2M,34,AMkCKlkD,0,0,True,640.0,"intuito, non ho tempo di pensare"
0,5c5e04ca6539fe00016e1afa,testing,2M,35,lCbcmAOUl,1,1,True,660.0,"intuito, non ho tempo di pensare"
0,5c5e04ca6539fe00016e1afa,testing,2M,36,AMkCGUa,1,0,False,621.0,"intuito, non ho tempo di pensare"
0,5c5e04ca6539fe00016e1afa,testing,2M,37,bmbNKlkD,1,0,False,539.0,"intuito, non ho tempo di pensare"
0,5c5e04ca6539fe00016e1afa,testing,2M,38,kKEdMYaum,1,0,False,439.0,"intuito, non ho tempo di pensare"
0,5c5e04ca6539fe00016e1afa,testing,2M,39,MTdYrNlZ,1,1,True,373.0,"intuito, non ho tempo di pensare"
0,5c5e04ca6539fe00016e1afa,testing,2M,40,JZOAkAOUl,0,0,True,426.0,"intuito, non ho tempo di pensare"
0,5caca6b4a9acb200011a6547,testing,2M,1,OmtlDNYZu,1,1,True,1108.0,memoria
0,5caca6b4a9acb200011a6547,testing,2M,2,AmQOYkam,0,1,False,1280.0,memoria
0,5caca6b4a9acb200011a6547,testing,2M,3,cAZuPMYm,1,0,False,666.0,memoria
0,5caca6b4a9acb200011a6547,testing,2M,4,PcBTkam,1,1,True,1507.0,memoria
0,5caca6b4a9acb200011a6547,testing,2M,5,lGZvPMYm,1,0,False,769.0,memoria
0,5caca6b4a9acb200011a6547,testing,2M,6,QcladCmYA,1,0,False,1086.0,memoria
0,5caca6b4a9acb200011a6547,testing,2M,7,OkGYOYK,1,0,False,741.0,memoria
0,5caca6b4a9acb200011a6547,testing,2M,8,kMbTRkam,1,1,True,943.0,memoria
0,5caca6b4a9acb200011a6547,testing,2M,9,YcdOOYK,1,0,False,1311.0,memoria
0,5caca6b4a9acb200011a6547,testing,2M,10,kMbTRhBK,0,1,False,857.0,memoria
0,5caca6b4a9acb200011a6547,testing,2M,11,bNdmGZAUu,0,1,False,1366.0,memoria
0,5caca6b4a9acb200011a6547,testing,2M,12,AmQOYhBK,1,0,False,1472.0,memoria
0,5caca6b4a9acb200011a6547,testing,2M,13,CchtdkmU,1,0,False,1112.0,memoria
0,5caca6b4a9acb200011a6547,testing,2M,14,bNdmGCmYA,1,0,False,880.0,memoria
0,5caca6b4a9acb200011a6547,testing,2M,15,aYQmkam,0,0,True,760.0,memoria
0,5caca6b4a9acb200011a6547,testing,2M,16,lGZvNYZu,0,1,False,771.0,memoria
0,5caca6b4a9acb200011a6547,testing,2M,17,UrOQMKmY,1,1,True,1031.0,memoria
0,5caca6b4a9acb200011a6547,testing,2M,18,TEBKNYZu,1,1,True,1036.0,memoria
0,5caca6b4a9acb200011a6547,testing,2M,19,MhKdCmYA,0,0,True,947.0,memoria
0,5caca6b4a9acb200011a6547,testing,2M,20,cAZuNYZu,0,0,True,734.0,memoria
0,5caca6b4a9acb200011a6547,testing,2M,21,UvOGMKmY,1,1,True,837.0,memoria
0,5caca6b4a9acb200011a6547,testing,2M,22,PcBThBK,0,0,True,768.0,memoria
0,5caca6b4a9acb200011a6547,testing,2M,23,YcdOlGc,0,1,False,975.0,memoria
0,5caca6b4a9acb200011a6547,testing,2M,24,MhKdZAUu,1,0,False,1105.0,memoria
0,5caca6b4a9acb200011a6547,testing,2M,25,aYQmhBK,1,0,False,1518.0,memoria
0,5caca6b4a9acb200011a6547,testing,2M,26,EYtYRkmU,1,1,True,2682.0,memoria
0,5caca6b4a9acb200011a6547,testing,2M,27,TEBKPMYm,0,1,False,899.0,memoria
0,5caca6b4a9acb200011a6547,testing,2M,28,tmAKCmYA,0,1,False,721.0,memoria
0,5caca6b4a9acb200011a6547,testing,2M,29,OkGYlGc,0,0,True,753.0,memoria
0,5caca6b4a9acb200011a6547,testing,2M,30,EYtYRMKmY,0,1,False,822.0,memoria
0,5caca6b4a9acb200011a6547,testing,2M,31,lbBDElGc,1,0,False,696.0,memoria
0,5caca6b4a9acb200011a6547,testing,2M,32,tmAKZAUu,1,1,True,856.0,memoria
0,5caca6b4a9acb200011a6547,testing,2M,33,lbBDEOYK,0,0,True,706.0,memoria
0,5caca6b4a9acb200011a6547,testing,2M,34,CchtdMKmY,0,0,True,710.0,memoria
0,5caca6b4a9acb200011a6547,testing,2M,35,QcladZAUu,0,0,True,755.0,memoria
0,5caca6b4a9acb200011a6547,testing,2M,36,ctktlGc,1,0,False,660.0,memoria
0,5caca6b4a9acb200011a6547,testing,2M,37,UrOQkmU,0,1,False,611.0,memoria
0,5caca6b4a9acb200011a6547,testing,2M,38,OmtlDPMYm,0,0,True,898.0,memoria
0,5caca6b4a9acb200011a6547,testing,2M,39,UvOGkmU,0,1,False,748.0,memoria
0,5caca6b4a9acb200011a6547,testing,2M,40,ctktOYK,0,0,True,612.0,memoria
0,5cb4adc019ee7300189e8547,testing,2M,1,lYruakGua,0,0,True,2344.0,ho cercato di ricordare le parole gi viste
0,5cb4adc019ee7300189e8547,testing,2M,2,lBlEkmU,1,0,False,966.0,ho cercato di ricordare le parole gi viste
0,5cb4adc019ee7300189e8547,testing,2M,3,kRCkOdEPD,0,0,True,903.0,ho cercato di ricordare le parole gi viste
0,5cb4adc019ee7300189e8547,testing,2M,4,dvNvARDM,1,1,True,854.0,ho cercato di ricordare le parole gi viste
0,5cb4adc019ee7300189e8547,testing,2M,5,LcNUJTRkY,1,1,True,788.0,ho cercato di ricordare le parole gi viste
0,5cb4adc019ee7300189e8547,testing,2M,6,OcYMbRC,0,1,False,948.0,ho cercato di ricordare le parole gi viste
0,5cb4adc019ee7300189e8547,testing,2M,7,LcNUJkbu,0,0,True,670.0,ho cercato di ricordare le parole gi viste
0,5cb4adc019ee7300189e8547,testing,2M,8,bmbNTRkY,1,0,False,760.0,ho cercato di ricordare le parole gi viste
0,5cb4adc019ee7300189e8547,testing,2M,9,mBmlAkmU,1,1,True,746.0,ho cercato di ricordare le parole gi viste
0,5cb4adc019ee7300189e8547,testing,2M,10,bmbNkbu,0,0,True,823.0,ho cercato di ricordare le parole gi viste
0,5cb4adc019ee7300189e8547,testing,2M,11,KElBrab,1,0,False,657.0,ho cercato di ricordare le parole gi viste
0,5cb4adc019ee7300189e8547,testing,2M,12,ZvalvRDM,1,0,False,686.0,ho cercato di ricordare le parole gi viste
0,5cb4adc019ee7300189e8547,testing,2M,13,dvNvAkmU,0,1,False,450.0,ho cercato di ricordare le parole gi viste
0,5cb4adc019ee7300189e8547,testing,2M,14,OcYMrab,1,0,False,771.0,ho cercato di ricordare le parole gi viste
0,5cb4adc019ee7300189e8547,testing,2M,15,kcdOtdEPD,0,0,True,598.0,ho cercato di ricordare le parole gi viste
0,5cb4adc019ee7300189e8547,testing,2M,16,COtBDKEdl,0,0,True,747.0,ho cercato di ricordare le parole gi viste
0,5cb4adc019ee7300189e8547,testing,2M,17,kPkRATRkY,0,0,True,774.0,ho cercato di ricordare le parole gi viste
0,5cb4adc019ee7300189e8547,testing,2M,18,COtBDkGua,1,1,True,744.0,ho cercato di ricordare le parole gi viste
0,5cb4adc019ee7300189e8547,testing,2M,19,kPkRAkbu,1,1,True,620.0,ho cercato di ricordare le parole gi viste
0,5cb4adc019ee7300189e8547,testing,2M,20,JrGvbRC,1,1,True,543.0,ho cercato di ricordare le parole gi viste
0,5cb4adc019ee7300189e8547,testing,2M,21,ukYZKEdl,1,1,True,502.0,ho cercato di ricordare le parole gi viste
0,5cb4adc019ee7300189e8547,testing,2M,22,DhCPkbu,1,0,False,824.0,ho cercato di ricordare le parole gi viste
0,5cb4adc019ee7300189e8547,testing,2M,23,ZvalvkmU,0,0,True,538.0,ho cercato di ricordare le parole gi viste
0,5cb4adc019ee7300189e8547,testing,2M,24,JdGmQONk,0,0,True,329.0,ho cercato di ricordare le parole gi viste
0,5cb4adc019ee7300189e8547,testing,2M,25,lGZvdEPD,1,0,False,699.0,ho cercato di ricordare le parole gi viste
0,5cb4adc019ee7300189e8547,testing,2M,26,kCRmkGua,1,1,True,697.0,ho cercato di ricordare le parole gi viste
0,5cb4adc019ee7300189e8547,testing,2M,27,kRCkOQONk,1,1,True,528.0,ho cercato di ricordare le parole gi viste
0,5cb4adc019ee7300189e8547,testing,2M,28,lBlERDM,0,0,True,719.0,ho cercato di ricordare le parole gi viste
0,5cb4adc019ee7300189e8547,testing,2M,29,YcdObRC,1,0,False,859.0,ho cercato di ricordare le parole gi viste
0,5cb4adc019ee7300189e8547,testing,2M,30,kCRmKEdl,0,0,True,863.0,ho cercato di ricordare le parole gi viste
0,5cb4adc019ee7300189e8547,testing,2M,31,mBmlARDM,0,1,False,796.0,ho cercato di ricordare le parole gi viste
0,5cb4adc019ee7300189e8547,testing,2M,32,ukYZkGua,0,1,False,731.0,ho cercato di ricordare le parole gi viste
0,5cb4adc019ee7300189e8547,testing,2M,33,JdGmdEPD,1,0,False,891.0,ho cercato di ricordare le parole gi viste
0,5cb4adc019ee7300189e8547,testing,2M,34,lGZvQONk,0,0,True,671.0,ho cercato di ricordare le parole gi viste
0,5cb4adc019ee7300189e8547,testing,2M,35,YcdOrab,0,0,True,509.0,ho cercato di ricordare le parole gi viste
0,5cb4adc019ee7300189e8547,testing,2M,36,lYruaKEdl,1,0,False,770.0,ho cercato di ricordare le parole gi viste
0,5cb4adc019ee7300189e8547,testing,2M,37,DhCPTRkY,0,0,True,861.0,ho cercato di ricordare le parole gi viste
0,5cb4adc019ee7300189e8547,testing,2M,38,KElBbRC,0,0,True,808.0,ho cercato di ricordare le parole gi viste
0,5cb4adc019ee7300189e8547,testing,2M,39,JrGvrab,0,0,True,491.0,ho cercato di ricordare le parole gi viste
0,5cb4adc019ee7300189e8547,testing,2M,40,kcdOtQONk,1,0,False,394.0,ho cercato di ricordare le parole gi viste
0,5cf14e1eb4397d0001f94e20,testing,2M,1,YObAvcb,1,0,False,648.0,guardare la prima e ultima lettera
0,5cf14e1eb4397d0001f94e20,testing,2M,2,TbKMEkJdr,1,1,True,1370.0,guardare la prima e ultima lettera
0,5cf14e1eb4397d0001f94e20,testing,2M,3,bNdmGTbk,1,1,True,1512.0,guardare la prima e ultima lettera
0,5cf14e1eb4397d0001f94e20,testing,2M,4,aNYmbmCd,1,1,True,1321.0,guardare la prima e ultima lettera
0,5cf14e1eb4397d0001f94e20,testing,2M,5,bNdmGvcb,0,0,True,745.0,guardare la prima e ultima lettera
0,5cf14e1eb4397d0001f94e20,testing,2M,6,hTtBbDmh,0,1,False,1068.0,guardare la prima e ultima lettera
0,5cf14e1eb4397d0001f94e20,testing,2M,7,BEPOlLG,1,0,False,1537.0,guardare la prima e ultima lettera
0,5cf14e1eb4397d0001f94e20,testing,2M,8,rGUAYkJdr,0,1,False,1242.0,guardare la prima e ultima lettera
0,5cf14e1eb4397d0001f94e20,testing,2M,9,UvOGDmh,1,0,False,714.0,guardare la prima e ultima lettera
0,5cf14e1eb4397d0001f94e20,testing,2M,10,YObATbk,0,0,True,1013.0,guardare la prima e ultima lettera
0,5cf14e1eb4397d0001f94e20,testing,2M,11,ZcGdNYBO,1,0,False,1174.0,guardare la prima e ultima lettera
0,5cf14e1eb4397d0001f94e20,testing,2M,12,adYrcCMdP,1,0,False,2305.0,guardare la prima e ultima lettera
0,5cf14e1eb4397d0001f94e20,testing,2M,13,MhKduOAO,1,0,False,910.0,guardare la prima e ultima lettera
0,5cf14e1eb4397d0001f94e20,testing,2M,14,rGUAYYBO,1,0,False,765.0,guardare la prima e ultima lettera
0,5cf14e1eb4397d0001f94e20,testing,2M,15,UYZlZDmh,1,0,False,28.0,guardare la prima e ultima lettera
0,5cf14e1eb4397d0001f94e20,testing,2M,16,uAkruOAO,0,1,False,812.0,guardare la prima e ultima lettera
0,5cf14e1eb4397d0001f94e20,testing,2M,17,lrZGlLG,0,0,True,715.0,guardare la prima e ultima lettera
0,5cf14e1eb4397d0001f94e20,testing,2M,18,thbOMmCd,0,1,False,706.0,guardare la prima e ultima lettera
0,5cf14e1eb4397d0001f94e20,testing,2M,19,DCmhkJdr,1,0,False,699.0,guardare la prima e ultima lettera
0,5cf14e1eb4397d0001f94e20,testing,2M,20,hkRKDmh,0,0,True,831.0,guardare la prima e ultima lettera
0,5cf14e1eb4397d0001f94e20,testing,2M,21,lrZGCMdP,1,1,True,626.0,guardare la prima e ultima lettera
0,5cf14e1eb4397d0001f94e20,testing,2M,22,UvOGAld,0,1,False,770.0,guardare la prima e ultima lettera
0,5cf14e1eb4397d0001f94e20,testing,2M,23,uAkrmCd,1,0,False,728.0,guardare la prima e ultima lettera
0,5cf14e1eb4397d0001f94e20,testing,2M,24,BATOclLG,1,0,False,611.0,guardare la prima e ultima lettera
0,5cf14e1eb4397d0001f94e20,testing,2M,25,bYuQTbk,1,0,False,720.0,guardare la prima e ultima lettera
0,5cf14e1eb4397d0001f94e20,testing,2M,26,OEPkvcb,1,0,False,660.0,guardare la prima e ultima lettera
0,5cf14e1eb4397d0001f94e20,testing,2M,27,ZcGdNkJdr,0,0,True,738.0,guardare la prima e ultima lettera
0,5cf14e1eb4397d0001f94e20,testing,2M,28,DCmhYBO,0,0,True,654.0,guardare la prima e ultima lettera
0,5cf14e1eb4397d0001f94e20,testing,2M,29,BEPOCMdP,0,0,True,644.0,guardare la prima e ultima lettera
0,5cf14e1eb4397d0001f94e20,testing,2M,30,OEPkTbk,0,0,True,770.0,guardare la prima e ultima lettera
0,5cf14e1eb4397d0001f94e20,testing,2M,31,hTtBbAld,1,0,False,910.0,guardare la prima e ultima lettera
0,5cf14e1eb4397d0001f94e20,testing,2M,32,aNYmbuOAO,0,1,False,802.0,guardare la prima e ultima lettera
0,5cf14e1eb4397d0001f94e20,testing,2M,33,BATOcCMdP,0,0,True,729.0,guardare la prima e ultima lettera
0,5cf14e1eb4397d0001f94e20,testing,2M,34,bYuQvcb,0,1,False,562.0,guardare la prima e ultima lettera
0,5cf14e1eb4397d0001f94e20,testing,2M,35,adYrclLG,0,1,False,561.0,guardare la prima e ultima lettera
0,5cf14e1eb4397d0001f94e20,testing,2M,36,hkRKAld,1,1,True,684.0,guardare la prima e ultima lettera
0,5cf14e1eb4397d0001f94e20,testing,2M,37,TbKMEYBO,0,0,True,713.0,guardare la prima e ultima lettera
0,5cf14e1eb4397d0001f94e20,testing,2M,38,UYZlZAld,0,1,False,540.0,guardare la prima e ultima lettera
0,5cf14e1eb4397d0001f94e20,testing,2M,39,MhKdmCd,0,1,False,694.0,guardare la prima e ultima lettera
0,5cf14e1eb4397d0001f94e20,testing,2M,40,thbOMuOAO,1,1,True,701.0,guardare la prima e ultima lettera
0,5d97c38dce449e001244dc15,testing,2M,1,mARMRCdc,0,0,True,2827.0,nessuna
0,5d97c38dce449e001244dc15,testing,2M,2,UvOGDmh,1,1,True,1044.0,nessuna
0,5d97c38dce449e001244dc15,testing,2M,3,bNdmGTmTm,1,0,False,1271.0,nessuna
0,5d97c38dce449e001244dc15,testing,2M,4,RYtkckdrO,1,0,False,1278.0,nessuna
0,5d97c38dce449e001244dc15,testing,2M,5,AmaclBRDh,1,0,False,1230.0,nessuna
0,5d97c38dce449e001244dc15,testing,2M,6,TdmAkdrO,1,1,True,1183.0,nessuna
0,5d97c38dce449e001244dc15,testing,2M,7,PYkCDlDT,0,0,True,1512.0,nessuna
0,5d97c38dce449e001244dc15,testing,2M,8,DMRPDmh,0,0,True,1456.0,nessuna
0,5d97c38dce449e001244dc15,testing,2M,9,mARMJZr,1,1,True,1355.0,nessuna
0,5d97c38dce449e001244dc15,testing,2M,10,BOckPNUZ,1,1,True,1634.0,nessuna
0,5d97c38dce449e001244dc15,testing,2M,11,OJGQRCdc,1,1,True,1419.0,nessuna
0,5d97c38dce449e001244dc15,testing,2M,12,YlYcTmTm,0,0,True,1282.0,nessuna
0,5d97c38dce449e001244dc15,testing,2M,13,TdmABRDh,0,0,True,1319.0,nessuna
0,5d97c38dce449e001244dc15,testing,2M,14,UAcduJZr,0,0,True,1241.0,nessuna
0,5d97c38dce449e001244dc15,testing,2M,15,mLdkZBRDh,1,0,False,1368.0,nessuna
0,5d97c38dce449e001244dc15,testing,2M,16,PYkCNUZ,1,0,False,1167.0,nessuna
0,5d97c38dce449e001244dc15,testing,2M,17,rkJuDlDT,1,1,True,1052.0,nessuna
0,5d97c38dce449e001244dc15,testing,2M,18,UvOGJcUk,0,0,True,1588.0,nessuna
0,5d97c38dce449e001244dc15,testing,2M,19,DlDdark,1,0,False,1281.0,nessuna
0,5d97c38dce449e001244dc15,testing,2M,20,kcOYDmh,0,1,False,1313.0,nessuna
0,5d97c38dce449e001244dc15,testing,2M,21,RYtkcBRDh,0,1,False,1308.0,nessuna
0,5d97c38dce449e001244dc15,testing,2M,22,YOaAbNUZ,0,0,True,1691.0,nessuna
0,5d97c38dce449e001244dc15,testing,2M,23,YlYcark,1,1,True,1351.0,nessuna
0,5d97c38dce449e001244dc15,testing,2M,24,OdlNmJcUk,0,1,False,1131.0,nessuna
0,5d97c38dce449e001244dc15,testing,2M,25,OJGQJZr,0,0,True,858.0,nessuna
0,5d97c38dce449e001244dc15,testing,2M,26,dGLAlark,0,0,True,1270.0,nessuna
0,5d97c38dce449e001244dc15,testing,2M,27,mLdkZkdrO,0,0,True,1033.0,nessuna
0,5d97c38dce449e001244dc15,testing,2M,28,EPERdJZr,1,0,False,864.0,nessuna
0,5d97c38dce449e001244dc15,testing,2M,29,dGLAlTmTm,1,0,False,1434.0,nessuna
0,5d97c38dce449e001244dc15,testing,2M,30,DMRPJcUk,1,1,True,1409.0,nessuna
0,5d97c38dce449e001244dc15,testing,2M,31,OdlNmDmh,1,1,True,1281.0,nessuna
0,5d97c38dce449e001244dc15,testing,2M,32,AmaclkdrO,0,0,True,1800.0,nessuna
0,5d97c38dce449e001244dc15,testing,2M,33,BOckPDlDT,0,1,False,1389.0,nessuna
0,5d97c38dce449e001244dc15,testing,2M,34,rkJuNUZ,0,1,False,1258.0,nessuna
0,5d97c38dce449e001244dc15,testing,2M,35,UAcduRCdc,1,0,False,1492.0,nessuna
0,5d97c38dce449e001244dc15,testing,2M,36,DlDdTmTm,0,0,True,1057.0,nessuna
0,5d97c38dce449e001244dc15,testing,2M,37,YOaAbDlDT,1,1,True,1178.0,nessuna
0,5d97c38dce449e001244dc15,testing,2M,38,EPERdRCdc,0,0,True,917.0,nessuna
0,5d97c38dce449e001244dc15,testing,2M,39,kcOYJcUk,1,0,False,1149.0,nessuna
0,5d97c38dce449e001244dc15,testing,2M,40,bNdmGark,0,0,True,1258.0,nessuna
0,5e80c7d61a07dd7b0d8f0111,testing,2M,1,COTKNac,1,1,True,4172.0,riconoscere le lettere che pi ricordavo
0,5e80c7d61a07dd7b0d8f0111,testing,2M,2,MBKREGUOA,1,0,False,1045.0,riconoscere le lettere che pi ricordavo
0,5e80c7d61a07dd7b0d8f0111,testing,2M,3,PcBTdTAh,0,0,True,1383.0,riconoscere le lettere che pi ricordavo
0,5e80c7d61a07dd7b0d8f0111,testing,2M,4,YZJmrAm,0,1,False,1182.0,riconoscere le lettere che pi ricordavo
0,5e80c7d61a07dd7b0d8f0111,testing,2M,5,COTKtAY,0,0,True,1187.0,riconoscere le lettere che pi ricordavo
0,5e80c7d61a07dd7b0d8f0111,testing,2M,6,uQuZcNac,0,1,False,1012.0,riconoscere le lettere che pi ricordavo
0,5e80c7d61a07dd7b0d8f0111,testing,2M,7,chEDOYTOM,0,0,True,780.0,riconoscere le lettere che pi ricordavo
0,5e80c7d61a07dd7b0d8f0111,testing,2M,8,DmAMEmCd,0,0,True,945.0,riconoscere le lettere che pi ricordavo
0,5e80c7d61a07dd7b0d8f0111,testing,2M,9,ldAaOcZJ,0,0,True,724.0,riconoscere le lettere che pi ricordavo
0,5e80c7d61a07dd7b0d8f0111,testing,2M,10,NbmQUrba,0,1,False,748.0,riconoscere le lettere che pi ricordavo
0,5e80c7d61a07dd7b0d8f0111,testing,2M,11,kdaAJGUOA,0,1,False,932.0,riconoscere le lettere che pi ricordavo
0,5e80c7d61a07dd7b0d8f0111,testing,2M,12,YZJmdTAh,1,0,False,825.0,riconoscere le lettere che pi ricordavo
0,5e80c7d61a07dd7b0d8f0111,testing,2M,13,cuOJbmAM,1,0,False,817.0,riconoscere le lettere che pi ricordavo
0,5e80c7d61a07dd7b0d8f0111,testing,2M,14,tmYhGUOA,1,1,True,1907.0,riconoscere le lettere che pi ricordavo
0,5e80c7d61a07dd7b0d8f0111,testing,2M,15,chEDOrba,1,0,False,950.0,riconoscere le lettere che pi ricordavo
0,5e80c7d61a07dd7b0d8f0111,testing,2M,16,bAdkYTOM,0,0,True,842.0,riconoscere le lettere che pi ricordavo
0,5e80c7d61a07dd7b0d8f0111,testing,2M,17,BATOcrAm,1,0,False,683.0,riconoscere le lettere che pi ricordavo
0,5e80c7d61a07dd7b0d8f0111,testing,2M,18,MDKPtAY,0,0,True,666.0,riconoscere le lettere che pi ricordavo
0,5e80c7d61a07dd7b0d8f0111,testing,2M,19,ldAamCd,1,0,False,513.0,riconoscere le lettere che pi ricordavo
0,5e80c7d61a07dd7b0d8f0111,testing,2M,20,kdaAJmAM,1,1,True,923.0,riconoscere le lettere che pi ricordavo
0,5e80c7d61a07dd7b0d8f0111,testing,2M,21,MDKPNac,1,1,True,946.0,riconoscere le lettere che pi ricordavo
0,5e80c7d61a07dd7b0d8f0111,testing,2M,22,aUZAYTOM,1,0,False,852.0,riconoscere le lettere che pi ricordavo
0,5e80c7d61a07dd7b0d8f0111,testing,2M,23,tmYhmAM,0,1,False,1075.0,riconoscere le lettere che pi ricordavo
0,5e80c7d61a07dd7b0d8f0111,testing,2M,24,PcBTrAm,1,1,True,1020.0,riconoscere le lettere che pi ricordavo
0,5e80c7d61a07dd7b0d8f0111,testing,2M,25,aUZArba,0,1,False,841.0,riconoscere le lettere che pi ricordavo
0,5e80c7d61a07dd7b0d8f0111,testing,2M,26,DmAMEOcZJ,1,0,False,573.0,riconoscere le lettere che pi ricordavo
0,5e80c7d61a07dd7b0d8f0111,testing,2M,27,uQuZctAY,1,0,False,890.0,riconoscere le lettere che pi ricordavo
0,5e80c7d61a07dd7b0d8f0111,testing,2M,28,NbmQUYTOM,1,1,True,1033.0,riconoscere le lettere che pi ricordavo
0,5e80c7d61a07dd7b0d8f0111,testing,2M,29,MBKREmAM,0,0,True,743.0,riconoscere le lettere che pi ricordavo
0,5e80c7d61a07dd7b0d8f0111,testing,2M,30,KBKBEmCd,0,0,True,665.0,riconoscere le lettere che pi ricordavo
0,5e80c7d61a07dd7b0d8f0111,testing,2M,31,OAblcOcZJ,0,0,True,637.0,riconoscere le lettere che pi ricordavo
0,5e80c7d61a07dd7b0d8f0111,testing,2M,32,bAdkrba,1,0,False,609.0,riconoscere le lettere che pi ricordavo
0,5e80c7d61a07dd7b0d8f0111,testing,2M,33,ZNLOvtAY,1,1,True,674.0,riconoscere le lettere che pi ricordavo
0,5e80c7d61a07dd7b0d8f0111,testing,2M,34,BATOcdTAh,0,0,True,956.0,riconoscere le lettere che pi ricordavo
0,5e80c7d61a07dd7b0d8f0111,testing,2M,35,OAblcmCd,1,0,False,716.0,riconoscere le lettere che pi ricordavo
0,5e80c7d61a07dd7b0d8f0111,testing,2M,36,KBKBEOcZJ,1,0,False,638.0,riconoscere le lettere che pi ricordavo
0,5e80c7d61a07dd7b0d8f0111,testing,2M,37,mZUrQdTAh,1,0,False,911.0,riconoscere le lettere che pi ricordavo
0,5e80c7d61a07dd7b0d8f0111,testing,2M,38,cuOJbGUOA,0,0,True,678.0,riconoscere le lettere che pi ricordavo
0,5e80c7d61a07dd7b0d8f0111,testing,2M,39,ZNLOvNac,0,0,True,867.0,riconoscere le lettere che pi ricordavo
0,5e80c7d61a07dd7b0d8f0111,testing,2M,40,mZUrQrAm,0,0,True,683.0,riconoscere le lettere che pi ricordavo
0,5e823b35726b2a9508db127c,testing,2M,1,ECtbDYcM,0,1,False,3260.0,"Fare affidamento anche solo su singole ""lettere"" che ricordavo di aver visto in precedenza in una certa posizione"
0,5e823b35726b2a9508db127c,testing,2M,2,khmhkJdr,1,1,True,1041.0,"Fare affidamento anche solo su singole ""lettere"" che ricordavo di aver visto in precedenza in una certa posizione"
0,5e823b35726b2a9508db127c,testing,2M,3,KTDTBYBO,0,0,True,1223.0,"Fare affidamento anche solo su singole ""lettere"" che ricordavo di aver visto in precedenza in una certa posizione"
0,5e823b35726b2a9508db127c,testing,2M,4,RtRhcrdY,1,0,False,1150.0,"Fare affidamento anche solo su singole ""lettere"" che ricordavo di aver visto in precedenza in una certa posizione"
0,5e823b35726b2a9508db127c,testing,2M,5,LOLkUkJdr,0,0,True,1363.0,"Fare affidamento anche solo su singole ""lettere"" che ricordavo di aver visto in precedenza in una certa posizione"
0,5e823b35726b2a9508db127c,testing,2M,6,ZYcQUCPMl,1,1,True,898.0,"Fare affidamento anche solo su singole ""lettere"" che ricordavo di aver visto in precedenza in una certa posizione"
0,5e823b35726b2a9508db127c,testing,2M,7,mkmJNkam,0,0,True,1122.0,"Fare affidamento anche solo su singole ""lettere"" che ricordavo di aver visto in precedenza in una certa posizione"
0,5e823b35726b2a9508db127c,testing,2M,8,dTmEDJcUk,1,0,False,935.0,"Fare affidamento anche solo su singole ""lettere"" che ricordavo di aver visto in precedenza in una certa posizione"
0,5e823b35726b2a9508db127c,testing,2M,9,khmhCMdP,0,1,False,1192.0,"Fare affidamento anche solo su singole ""lettere"" che ricordavo di aver visto in precedenza in una certa posizione"
0,5e823b35726b2a9508db127c,testing,2M,10,EdBbCPMl,0,1,False,1036.0,"Fare affidamento anche solo su singole ""lettere"" che ricordavo di aver visto in precedenza in una certa posizione"
0,5e823b35726b2a9508db127c,testing,2M,11,krGukJdr,0,0,True,1010.0,"Fare affidamento anche solo su singole ""lettere"" che ricordavo di aver visto in precedenza in una certa posizione"
0,5e823b35726b2a9508db127c,testing,2M,12,EdBbcrdY,1,1,True,1081.0,"Fare affidamento anche solo su singole ""lettere"" che ricordavo di aver visto in precedenza in una certa posizione"
0,5e823b35726b2a9508db127c,testing,2M,13,ECtbDkmU,1,1,True,1129.0,"Fare affidamento anche solo su singole ""lettere"" che ricordavo di aver visto in precedenza in una certa posizione"
0,5e823b35726b2a9508db127c,testing,2M,14,ZYcQUcrdY,0,0,True,869.0,"Fare affidamento anche solo su singole ""lettere"" che ricordavo di aver visto in precedenza in una certa posizione"
0,5e823b35726b2a9508db127c,testing,2M,15,RtRhCPMl,0,1,False,1065.0,"Fare affidamento anche solo su singole ""lettere"" che ricordavo di aver visto in precedenza in una certa posizione"
0,5e823b35726b2a9508db127c,testing,2M,16,kRCkOYBO,0,0,True,881.0,"Fare affidamento anche solo su singole ""lettere"" che ricordavo di aver visto in precedenza in una certa posizione"
0,5e823b35726b2a9508db127c,testing,2M,17,LOLkUCMdP,1,0,False,856.0,"Fare affidamento anche solo su singole ""lettere"" che ricordavo di aver visto in precedenza in una certa posizione"
0,5e823b35726b2a9508db127c,testing,2M,18,kGlUkDOm,1,1,True,891.0,"Fare affidamento anche solo su singole ""lettere"" che ricordavo di aver visto in precedenza in una certa posizione"
0,5e823b35726b2a9508db127c,testing,2M,19,kabJbkam,0,1,False,894.0,"Fare affidamento anche solo su singole ""lettere"" che ricordavo di aver visto in precedenza in una certa posizione"
0,5e823b35726b2a9508db127c,testing,2M,20,LckGNkDOm,1,0,False,883.0,"Fare affidamento anche solo su singole ""lettere"" che ricordavo di aver visto in precedenza in una certa posizione"
0,5e823b35726b2a9508db127c,testing,2M,21,NJZlYcM,1,0,False,912.0,"Fare affidamento anche solo su singole ""lettere"" che ricordavo di aver visto in precedenza in una certa posizione"
0,5e823b35726b2a9508db127c,testing,2M,22,kabJbYBO,1,1,True,818.0,"Fare affidamento anche solo su singole ""lettere"" che ricordavo di aver visto in precedenza in una certa posizione"
0,5e823b35726b2a9508db127c,testing,2M,23,vQdOkmU,0,1,False,879.0,"Fare affidamento anche solo su singole ""lettere"" che ricordavo di aver visto in precedenza in una certa posizione"
0,5e823b35726b2a9508db127c,testing,2M,24,kPOtkJdr,1,0,False,1122.0,"Fare affidamento anche solo su singole ""lettere"" che ricordavo di aver visto in precedenza in una certa posizione"
0,5e823b35726b2a9508db127c,testing,2M,25,ZkGmYCPMl,1,0,False,1029.0,"Fare affidamento anche solo su singole ""lettere"" che ricordavo di aver visto in precedenza in una certa posizione"
0,5e823b35726b2a9508db127c,testing,2M,26,mkmJNYBO,1,0,False,817.0,"Fare affidamento anche solo su singole ""lettere"" che ricordavo di aver visto in precedenza in una certa posizione"
0,5e823b35726b2a9508db127c,testing,2M,27,krGuCMdP,1,0,False,1007.0,"Fare affidamento anche solo su singole ""lettere"" che ricordavo di aver visto in precedenza in una certa posizione"
0,5e823b35726b2a9508db127c,testing,2M,28,LckGNJcUk,0,1,False,724.0,"Fare affidamento anche solo su singole ""lettere"" che ricordavo di aver visto in precedenza in una certa posizione"
0,5e823b35726b2a9508db127c,testing,2M,29,dTmEDkDOm,0,1,False,929.0,"Fare affidamento anche solo su singole ""lettere"" che ricordavo di aver visto in precedenza in una certa posizione"
0,5e823b35726b2a9508db127c,testing,2M,30,kRCkOkam,1,1,True,1013.0,"Fare affidamento anche solo su singole ""lettere"" che ricordavo di aver visto in precedenza in una certa posizione"
0,5e823b35726b2a9508db127c,testing,2M,31,tmtEMkmU,1,0,False,824.0,"Fare affidamento anche solo su singole ""lettere"" che ricordavo di aver visto in precedenza in una certa posizione"
0,5e823b35726b2a9508db127c,testing,2M,32,KTDTBkam,1,1,True,1097.0,"Fare affidamento anche solo su singole ""lettere"" che ricordavo di aver visto in precedenza in una certa posizione"
0,5e823b35726b2a9508db127c,testing,2M,33,NJZlkmU,0,1,False,942.0,"Fare affidamento anche solo su singole ""lettere"" che ricordavo di aver visto in precedenza in una certa posizione"
0,5e823b35726b2a9508db127c,testing,2M,34,tmtEMYcM,0,0,True,774.0,"Fare affidamento anche solo su singole ""lettere"" che ricordavo di aver visto in precedenza in una certa posizione"
0,5e823b35726b2a9508db127c,testing,2M,35,ZkGmYcrdY,0,1,False,919.0,"Fare affidamento anche solo su singole ""lettere"" che ricordavo di aver visto in precedenza in una certa posizione"
0,5e823b35726b2a9508db127c,testing,2M,36,vQdOYcM,1,0,False,926.0,"Fare affidamento anche solo su singole ""lettere"" che ricordavo di aver visto in precedenza in una certa posizione"
0,5e823b35726b2a9508db127c,testing,2M,37,dOYmlkDOm,0,0,True,844.0,"Fare affidamento anche solo su singole ""lettere"" che ricordavo di aver visto in precedenza in una certa posizione"
0,5e823b35726b2a9508db127c,testing,2M,38,kGlUJcUk,0,0,True,902.0,"Fare affidamento anche solo su singole ""lettere"" che ricordavo di aver visto in precedenza in una certa posizione"
0,5e823b35726b2a9508db127c,testing,2M,39,kPOtCMdP,0,1,False,783.0,"Fare affidamento anche solo su singole ""lettere"" che ricordavo di aver visto in precedenza in una certa posizione"
0,5e823b35726b2a9508db127c,testing,2M,40,dOYmlJcUk,1,0,False,820.0,"Fare affidamento anche solo su singole ""lettere"" che ricordavo di aver visto in precedenza in una certa posizione"
0,5e82e99b37d333a1474dda93,testing,2M,1,KdARJcUk,1,1,True,1722.0,ho cercato di ricordare parole simili a quelle che avevo visto in precedenza
0,5e82e99b37d333a1474dda93,testing,2M,2,PCMPKbLd,1,0,False,878.0,ho cercato di ricordare parole simili a quelle che avevo visto in precedenza
0,5e82e99b37d333a1474dda93,testing,2M,3,lRCBPED,0,0,True,982.0,ho cercato di ricordare parole simili a quelle che avevo visto in precedenza
0,5e82e99b37d333a1474dda93,testing,2M,4,UJmrAkd,1,0,False,1352.0,ho cercato di ricordare parole simili a quelle che avevo visto in precedenza
0,5e82e99b37d333a1474dda93,testing,2M,5,YuaNdlvk,0,0,True,954.0,ho cercato di ricordare parole simili a quelle che avevo visto in precedenza
0,5e82e99b37d333a1474dda93,testing,2M,6,bYuQAkd,1,0,False,1830.0,ho cercato di ricordare parole simili a quelle che avevo visto in precedenza
0,5e82e99b37d333a1474dda93,testing,2M,7,khmhTmTm,0,0,True,1051.0,ho cercato di ricordare parole simili a quelle che avevo visto in precedenza
0,5e82e99b37d333a1474dda93,testing,2M,8,alJYbLd,0,0,True,1707.0,ho cercato di ricordare parole simili a quelle che avevo visto in precedenza
0,5e82e99b37d333a1474dda93,testing,2M,9,htmhCark,1,1,True,2612.0,ho cercato di ricordare parole simili a quelle che avevo visto in precedenza
0,5e82e99b37d333a1474dda93,testing,2M,10,YuaNdPED,1,0,False,1184.0,ho cercato di ricordare parole simili a quelle che avevo visto in precedenza
