,sbj_ID,task,testing_condition,trialn,item,expected,observed,correct,rt,strategy
0,58f50400f4ce600001016db5,testing,0M,1,MBmEdYdA,1,1,True,10217.0,The more angular letters did not seem from the group. And I'm going by feeling also
0,58f50400f4ce600001016db5,testing,2M,2,kDRKckbu,1,0,False,1164.0,The more angular letters did not seem from the group. And I'm going by feeling also
0,58f50400f4ce600001016db5,testing,2M,3,lcOcEPBT,1,0,False,1181.0,The more angular letters did not seem from the group. And I'm going by feeling also
0,58f50400f4ce600001016db5,testing,1M,4,cDOEBrba,0,0,True,1324.0,The more angular letters did not seem from the group. And I'm going by feeling also
0,58f50400f4ce600001016db5,testing,2M,5,kDRKckhMD,0,0,True,1025.0,The more angular letters did not seem from the group. And I'm going by feeling also
0,58f50400f4ce600001016db5,testing,0M,6,OYuvbkmU,1,0,False,1308.0,The more angular letters did not seem from the group. And I'm going by feeling also
0,58f50400f4ce600001016db5,testing,2M,7,BEPOEPBT,0,1,False,710.0,The more angular letters did not seem from the group. And I'm going by feeling also
0,58f50400f4ce600001016db5,testing,2M,8,YOZNQGb,0,0,True,1232.0,The more angular letters did not seem from the group. And I'm going by feeling also
0,58f50400f4ce600001016db5,testing,1M,9,tcYbdRCdc,0,0,True,1137.0,The more angular letters did not seem from the group. And I'm going by feeling also
0,58f50400f4ce600001016db5,testing,2M,10,AmaclYcM,1,1,True,910.0,The more angular letters did not seem from the group. And I'm going by feeling also
0,58f50400f4ce600001016db5,testing,1M,11,QcQAJOcN,0,0,True,472.0,The more angular letters did not seem from the group. And I'm going by feeling also
0,58f50400f4ce600001016db5,testing,2M,12,UaZmakbu,0,0,True,1045.0,The more angular letters did not seem from the group. And I'm going by feeling also
0,58f50400f4ce600001016db5,testing,0M,13,LOLkUJAaG,1,1,True,770.0,The more angular letters did not seem from the group. And I'm going by feeling also
0,58f50400f4ce600001016db5,testing,1M,14,KDPAAkd,0,0,True,833.0,The more angular letters did not seem from the group. And I'm going by feeling also
0,58f50400f4ce600001016db5,testing,0M,15,YZJOBRDh,1,1,True,872.0,The more angular letters did not seem from the group. And I'm going by feeling also
0,58f50400f4ce600001016db5,testing,0M,16,ckdAmmkc,1,0,False,1014.0,The more angular letters did not seem from the group. And I'm going by feeling also
0,58f50400f4ce600001016db5,testing,0M,17,GUOAkam,1,1,True,1024.0,The more angular letters did not seem from the group. And I'm going by feeling also
0,58f50400f4ce600001016db5,testing,2M,18,vclYAvdk,0,0,True,1275.0,The more angular letters did not seem from the group. And I'm going by feeling also
0,58f50400f4ce600001016db5,testing,2M,19,AlNUYcM,1,0,False,646.0,The more angular letters did not seem from the group. And I'm going by feeling also
0,58f50400f4ce600001016db5,testing,1M,20,vmuLlJZr,0,0,True,1027.0,The more angular letters did not seem from the group. And I'm going by feeling also
0,58f50400f4ce600001016db5,testing,0M,21,Yaumkhmh,1,1,True,904.0,The more angular letters did not seem from the group. And I'm going by feeling also
0,58f50400f4ce600001016db5,testing,2M,22,rdLJatcB,1,0,False,427.0,The more angular letters did not seem from the group. And I'm going by feeling also
0,58f50400f4ce600001016db5,testing,0M,23,NbmQUvcb,1,1,True,867.0,The more angular letters did not seem from the group. And I'm going by feeling also
0,58f50400f4ce600001016db5,testing,1M,24,OAmAdYDE,0,0,True,741.0,The more angular letters did not seem from the group. And I'm going by feeling also
0,58f50400f4ce600001016db5,testing,1M,25,YlYcYcM,0,1,False,1203.0,The more angular letters did not seem from the group. And I'm going by feeling also
0,58f50400f4ce600001016db5,testing,2M,26,dKRDRCdc,0,1,False,1408.0,The more angular letters did not seem from the group. And I'm going by feeling also
0,58f50400f4ce600001016db5,testing,0M,27,hlbtblMck,1,0,False,1295.0,The more angular letters did not seem from the group. And I'm going by feeling also
0,58f50400f4ce600001016db5,testing,0M,28,EKBOLcO,1,0,False,816.0,The more angular letters did not seem from the group. And I'm going by feeling also
0,58f50400f4ce600001016db5,testing,2M,29,UaZmakhMD,1,0,False,996.0,The more angular letters did not seem from the group. And I'm going by feeling also
0,58f50400f4ce600001016db5,testing,0M,30,AlTdJud,1,1,True,945.0,The more angular letters did not seem from the group. And I'm going by feeling also
0,58f50400f4ce600001016db5,testing,2M,31,CYPckbu,1,0,False,947.0,The more angular letters did not seem from the group. And I'm going by feeling also
0,58f50400f4ce600001016db5,testing,1M,32,AmaclDMRP,0,1,False,1055.0,The more angular letters did not seem from the group. And I'm going by feeling also
0,58f50400f4ce600001016db5,testing,1M,33,bdUNutcB,0,1,False,851.0,The more angular letters did not seem from the group. And I'm going by feeling also
0,58f50400f4ce600001016db5,testing,2M,34,vmuLlRCdc,1,0,False,705.0,The more angular letters did not seem from the group. And I'm going by feeling also
0,58f50400f4ce600001016db5,testing,1M,35,kJdrtcB,0,1,False,893.0,The more angular letters did not seem from the group. And I'm going by feeling also
0,58f50400f4ce600001016db5,testing,0M,36,uOAOKOYC,1,0,False,1174.0,The more angular letters did not seem from the group. And I'm going by feeling also
0,58f50400f4ce600001016db5,testing,1M,37,JmNkkbu,0,1,False,1188.0,The more angular letters did not seem from the group. And I'm going by feeling also
0,58f50400f4ce600001016db5,testing,0M,38,GAcYuUY,1,0,False,1547.0,The more angular letters did not seem from the group. And I'm going by feeling also
0,58f50400f4ce600001016db5,testing,1M,39,YOZNJQA,0,0,True,1740.0,The more angular letters did not seem from the group. And I'm going by feeling also
0,58f50400f4ce600001016db5,testing,1M,40,BEPOAdYl,0,1,False,748.0,The more angular letters did not seem from the group. And I'm going by feeling also
0,58f50400f4ce600001016db5,testing,2M,41,KDPAYcM,0,0,True,811.0,The more angular letters did not seem from the group. And I'm going by feeling also
0,58f50400f4ce600001016db5,testing,2M,42,AlNULkNc,0,0,True,1180.0,The more angular letters did not seem from the group. And I'm going by feeling also
0,58f50400f4ce600001016db5,testing,0M,43,EhRmYbN,1,1,True,749.0,The more angular letters did not seem from the group. And I'm going by feeling also
0,58f50400f4ce600001016db5,testing,1M,44,kulZEPBT,0,0,True,861.0,The more angular letters did not seem from the group. And I'm going by feeling also
0,58f50400f4ce600001016db5,testing,0M,45,cMRlPlEK,1,0,False,971.0,The more angular letters did not seem from the group. And I'm going by feeling also
0,58f50400f4ce600001016db5,testing,2M,46,tmAKAvdk,1,0,False,803.0,The more angular letters did not seem from the group. And I'm going by feeling also
0,58f50400f4ce600001016db5,testing,1M,47,lcOcBbOD,0,1,False,1057.0,The more angular letters did not seem from the group. And I'm going by feeling also
0,58f50400f4ce600001016db5,testing,2M,48,rdLJarULv,0,1,False,980.0,The more angular letters did not seem from the group. And I'm going by feeling also
0,58f50400f4ce600001016db5,testing,2M,49,cDOEBLkNc,1,0,False,809.0,The more angular letters did not seem from the group. And I'm going by feeling also
0,58f50400f4ce600001016db5,testing,2M,50,QcQAJkbu,0,0,True,799.0,The more angular letters did not seem from the group. And I'm going by feeling also
0,58f50400f4ce600001016db5,testing,2M,51,KABAQGb,1,1,True,810.0,The more angular letters did not seem from the group. And I'm going by feeling also
0,58f50400f4ce600001016db5,testing,0M,52,dKDthOYK,1,0,False,1125.0,The more angular letters did not seem from the group. And I'm going by feeling also
0,58f50400f4ce600001016db5,testing,2M,53,YQbcrULv,0,0,True,773.0,The more angular letters did not seem from the group. And I'm going by feeling also
0,58f50400f4ce600001016db5,testing,0M,54,rNlZdPc,1,1,True,765.0,The more angular letters did not seem from the group. And I'm going by feeling also
0,58f50400f4ce600001016db5,testing,1M,55,rdLJaYKPB,0,0,True,640.0,The more angular letters did not seem from the group. And I'm going by feeling also
0,58f50400f4ce600001016db5,testing,0M,56,YaumPEtE,1,0,False,696.0,The more angular letters did not seem from the group. And I'm going by feeling also
0,58f50400f4ce600001016db5,testing,0M,57,BYhTNkUA,1,0,False,776.0,The more angular letters did not seem from the group. And I'm going by feeling also
0,58f50400f4ce600001016db5,testing,0M,58,tdDdUdvY,1,0,False,678.0,The more angular letters did not seem from the group. And I'm going by feeling also
0,58f50400f4ce600001016db5,testing,1M,59,bNdmGrULv,0,1,False,859.0,The more angular letters did not seem from the group. And I'm going by feeling also
0,58f50400f4ce600001016db5,testing,1M,60,QvlZQGb,0,0,True,544.0,The more angular letters did not seem from the group. And I'm going by feeling also
0,58f50400f4ce600001016db5,testing,0M,61,hTtBbYadr,1,1,True,1078.0,The more angular letters did not seem from the group. And I'm going by feeling also
0,58f50400f4ce600001016db5,testing,0M,62,rbYbuOtM,1,0,False,1747.0,The more angular letters did not seem from the group. And I'm going by feeling also
0,58f50400f4ce600001016db5,testing,1M,63,KABAOJNk,0,1,False,687.0,The more angular letters did not seem from the group. And I'm going by feeling also
0,58f50400f4ce600001016db5,testing,0M,64,adkrDhMt,1,0,False,1358.0,The more angular letters did not seem from the group. And I'm going by feeling also
0,58f50400f4ce600001016db5,testing,2M,65,BEPOAvdk,1,1,True,867.0,The more angular letters did not seem from the group. And I'm going by feeling also
0,58f50400f4ce600001016db5,testing,2M,66,vclYEPBT,1,0,False,882.0,The more angular letters did not seem from the group. And I'm going by feeling also
0,58f50400f4ce600001016db5,testing,1M,67,DkTCPYcM,0,0,True,1276.0,The more angular letters did not seem from the group. And I'm going by feeling also
0,58f50400f4ce600001016db5,testing,1M,68,dKRDYmBd,0,1,False,1257.0,The more angular letters did not seem from the group. And I'm going by feeling also
0,58f50400f4ce600001016db5,testing,2M,69,dTmEDtcB,0,0,True,1102.0,The more angular letters did not seem from the group. And I'm going by feeling also
0,58f50400f4ce600001016db5,testing,2M,70,QcQAJkhMD,1,0,False,746.0,The more angular letters did not seem from the group. And I'm going by feeling also
0,58f50400f4ce600001016db5,testing,2M,71,tmAKEPBT,0,0,True,1012.0,The more angular letters did not seem from the group. And I'm going by feeling also
0,58f50400f4ce600001016db5,testing,0M,72,vAarTRkY,1,1,True,1019.0,The more angular letters did not seem from the group. And I'm going by feeling also
0,58f50400f4ce600001016db5,testing,0M,73,auYAkrGl,1,0,False,1733.0,The more angular letters did not seem from the group. And I'm going by feeling also
0,58f50400f4ce600001016db5,testing,2M,74,CYPckhMD,0,0,True,845.0,The more angular letters did not seem from the group. And I'm going by feeling also
0,58f50400f4ce600001016db5,testing,0M,75,lRckAkCRm,1,1,True,955.0,The more angular letters did not seem from the group. And I'm going by feeling also
0,58f50400f4ce600001016db5,testing,0M,76,LvuOGbadk,1,0,False,563.0,The more angular letters did not seem from the group. And I'm going by feeling also
0,58f50400f4ce600001016db5,testing,1M,77,tmAKMCkm,0,0,True,890.0,The more angular letters did not seem from the group. And I'm going by feeling also
0,58f50400f4ce600001016db5,testing,0M,78,hlbtbYLU,1,1,True,834.0,The more angular letters did not seem from the group. And I'm going by feeling also
0,58f50400f4ce600001016db5,testing,2M,79,KABARCdc,0,0,True,421.0,The more angular letters did not seem from the group. And I'm going by feeling also
0,58f50400f4ce600001016db5,testing,0M,80,mKcDBECk,1,0,False,843.0,The more angular letters did not seem from the group. And I'm going by feeling also
0,58f50400f4ce600001016db5,testing,1M,81,rLkmLkNc,0,1,False,751.0,The more angular letters did not seem from the group. And I'm going by feeling also
0,58f50400f4ce600001016db5,testing,1M,82,AlNUCMdP,0,0,True,551.0,The more angular letters did not seem from the group. And I'm going by feeling also
0,58f50400f4ce600001016db5,testing,1M,83,kDRKcktBd,0,0,True,917.0,The more angular letters did not seem from the group. And I'm going by feeling also
0,58f50400f4ce600001016db5,testing,1M,84,thbOMkbu,0,0,True,928.0,The more angular letters did not seem from the group. And I'm going by feeling also
0,58f50400f4ce600001016db5,testing,1M,85,UaZmaOMC,0,1,False,933.0,The more angular letters did not seem from the group. And I'm going by feeling also
0,58f50400f4ce600001016db5,testing,2M,86,YOZNRCdc,1,0,False,568.0,The more angular letters did not seem from the group. And I'm going by feeling also
0,58f50400f4ce600001016db5,testing,2M,87,KDPALkNc,1,0,False,1081.0,The more angular letters did not seem from the group. And I'm going by feeling also
0,58f50400f4ce600001016db5,testing,2M,88,dKRDQGb,1,0,False,1379.0,The more angular letters did not seem from the group. And I'm going by feeling also
0,58f50400f4ce600001016db5,testing,1M,89,mZUrQrULv,0,0,True,1230.0,The more angular letters did not seem from the group. And I'm going by feeling also
0,58f50400f4ce600001016db5,testing,2M,90,YQbctcB,1,0,False,1722.0,The more angular letters did not seem from the group. And I'm going by feeling also
0,58f50400f4ce600001016db5,testing,1M,91,dTmEDYht,0,1,False,2148.0,The more angular letters did not seem from the group. And I'm going by feeling also
0,58f50400f4ce600001016db5,testing,2M,92,vmuLlQGb,0,0,True,943.0,The more angular letters did not seem from the group. And I'm going by feeling also
0,58f50400f4ce600001016db5,testing,2M,93,OAmAdrULv,1,1,True,750.0,The more angular letters did not seem from the group. And I'm going by feeling also
0,58f50400f4ce600001016db5,testing,1M,94,OcYMAvdk,0,0,True,511.0,The more angular letters did not seem from the group. And I'm going by feeling also
0,58f50400f4ce600001016db5,testing,1M,95,CYPcOtlR,0,1,False,660.0,The more angular letters did not seem from the group. And I'm going by feeling also
0,58f50400f4ce600001016db5,testing,1M,96,dClOCkhMD,0,0,True,322.0,The more angular letters did not seem from the group. And I'm going by feeling also
0,58f50400f4ce600001016db5,testing,2M,97,lcOcAvdk,0,0,True,610.0,The more angular letters did not seem from the group. And I'm going by feeling also
0,58f50400f4ce600001016db5,testing,0M,98,OkGYMhKd,1,0,False,587.0,The more angular letters did not seem from the group. And I'm going by feeling also
0,58f50400f4ce600001016db5,testing,0M,99,NkUAbGuO,1,1,True,1270.0,The more angular letters did not seem from the group. And I'm going by feeling also
0,58f50400f4ce600001016db5,testing,1M,100,uUmbAvdk,0,1,False,834.0,The more angular letters did not seem from the group. And I'm going by feeling also
0,58f50400f4ce600001016db5,testing,0M,101,adYrcNkUA,1,0,False,572.0,The more angular letters did not seem from the group. And I'm going by feeling also
0,58f50400f4ce600001016db5,testing,1M,102,MKmYEPBT,0,0,True,834.0,The more angular letters did not seem from the group. And I'm going by feeling also
0,58f50400f4ce600001016db5,testing,2M,103,AmaclLkNc,0,1,False,972.0,The more angular letters did not seem from the group. And I'm going by feeling also
0,58f50400f4ce600001016db5,testing,1M,104,amJmQGb,0,0,True,1077.0,The more angular letters did not seem from the group. And I'm going by feeling also
0,58f50400f4ce600001016db5,testing,0M,105,DOchlOkGY,1,0,False,984.0,The more angular letters did not seem from the group. And I'm going by feeling also
0,58f50400f4ce600001016db5,testing,1M,106,ZdlORCdc,0,0,True,1368.0,The more angular letters did not seem from the group. And I'm going by feeling also
0,58f50400f4ce600001016db5,testing,0M,107,ZvalvYmb,1,0,False,1193.0,The more angular letters did not seem from the group. And I'm going by feeling also
0,58f50400f4ce600001016db5,testing,1M,108,JdOAYkhMD,0,1,False,1410.0,The more angular letters did not seem from the group. And I'm going by feeling also
0,58f50400f4ce600001016db5,testing,1M,109,YQbcukcY,0,0,True,638.0,The more angular letters did not seem from the group. And I'm going by feeling also
0,58f50400f4ce600001016db5,testing,2M,110,cDOEBYcM,0,0,True,798.0,The more angular letters did not seem from the group. And I'm going by feeling also
0,58f50400f4ce600001016db5,testing,0M,111,GAcYJUG,1,0,False,761.0,The more angular letters did not seem from the group. And I'm going by feeling also
0,58f50400f4ce600001016db5,testing,2M,112,dTmEDrULv,1,1,True,862.0,The more angular letters did not seem from the group. And I'm going by feeling also
0,58f50400f4ce600001016db5,testing,0M,113,damYbDhMt,1,0,False,507.0,The more angular letters did not seem from the group. And I'm going by feeling also
0,58f50400f4ce600001016db5,testing,1M,114,KMDYtLkNc,0,0,True,630.0,The more angular letters did not seem from the group. And I'm going by feeling also
0,58f50400f4ce600001016db5,testing,0M,115,dYAJJAaG,1,1,True,802.0,The more angular letters did not seem from the group. And I'm going by feeling also
0,58f50400f4ce600001016db5,testing,0M,116,AYkEhYBO,1,1,True,782.0,The more angular letters did not seem from the group. And I'm going by feeling also
0,58f50400f4ce600001016db5,testing,0M,117,JrGvlTmO,1,0,False,762.0,The more angular letters did not seem from the group. And I'm going by feeling also
0,58f50400f4ce600001016db5,testing,2M,118,OAmAdtcB,0,0,True,754.0,The more angular letters did not seem from the group. And I'm going by feeling also
0,58f50400f4ce600001016db5,testing,1M,119,vclYmBYl,0,1,False,633.0,The more angular letters did not seem from the group. And I'm going by feeling also
0,58f50400f4ce600001016db5,testing,0M,120,EMbDPLuaU,1,0,False,564.0,The more angular letters did not seem from the group. And I'm going by feeling also
0,59aaf4b1321f870001d16f6c,testing,2M,1,LQurcDR,1,0,False,3578.0,ho cercato di memorizzare le posizioni dei caratteri
0,59aaf4b1321f870001d16f6c,testing,2M,2,LAclAQGb,0,0,True,1241.0,ho cercato di memorizzare le posizioni dei caratteri
0,59aaf4b1321f870001d16f6c,testing,2M,3,PEkhAJUNa,1,0,False,1342.0,ho cercato di memorizzare le posizioni dei caratteri
0,59aaf4b1321f870001d16f6c,testing,2M,4,COTKQGb,1,0,False,835.0,ho cercato di memorizzare le posizioni dei caratteri
0,59aaf4b1321f870001d16f6c,testing,2M,5,bmbNYDE,1,0,False,1218.0,ho cercato di memorizzare le posizioni dei caratteri
0,59aaf4b1321f870001d16f6c,testing,2M,6,COTKOtM,0,1,False,646.0,ho cercato di memorizzare le posizioni dei caratteri
0,59aaf4b1321f870001d16f6c,testing,2M,7,PEkhAcDR,0,1,False,734.0,ho cercato di memorizzare le posizioni dei caratteri
0,59aaf4b1321f870001d16f6c,testing,2M,8,MkmEdOtM,0,0,True,580.0,ho cercato di memorizzare le posizioni dei caratteri
0,59aaf4b1321f870001d16f6c,testing,2M,9,MhKdYDE,0,1,False,341.0,ho cercato di memorizzare le posizioni dei caratteri
0,59aaf4b1321f870001d16f6c,testing,2M,10,LOLkUOdOP,1,0,False,354.0,ho cercato di memorizzare le posizioni dei caratteri
0,59aaf4b1321f870001d16f6c,testing,2M,11,tKDmhkJdr,1,1,True,264.0,ho cercato di memorizzare le posizioni dei caratteri
0,59aaf4b1321f870001d16f6c,testing,2M,12,CtmbZAUu,1,0,False,253.0,ho cercato di memorizzare le posizioni dei caratteri
0,59aaf4b1321f870001d16f6c,testing,2M,13,vQdOcDR,1,0,False,412.0,ho cercato di memorizzare le posizioni dei caratteri
0,59aaf4b1321f870001d16f6c,testing,2M,14,bmbNkJdr,0,0,True,572.0,ho cercato di memorizzare le posizioni dei caratteri
0,59aaf4b1321f870001d16f6c,testing,2M,15,LQurJUNa,0,0,True,532.0,ho cercato di memorizzare le posizioni dei caratteri
0,59aaf4b1321f870001d16f6c,testing,2M,16,bGuOkJdr,0,0,True,1220.0,ho cercato di memorizzare le posizioni dei caratteri
0,59aaf4b1321f870001d16f6c,testing,2M,17,ZcGdNQGb,0,1,False,1806.0,ho cercato di memorizzare le posizioni dei caratteri
0,59aaf4b1321f870001d16f6c,testing,2M,18,LOLkUcrdY,0,0,True,334.0,ho cercato di memorizzare le posizioni dei caratteri
0,59aaf4b1321f870001d16f6c,testing,2M,19,vQdOJUNa,0,0,True,288.0,ho cercato di memorizzare le posizioni dei caratteri
0,59aaf4b1321f870001d16f6c,testing,2M,20,ZYcQUZAUu,0,0,True,431.0,ho cercato di memorizzare le posizioni dei caratteri
0,59aaf4b1321f870001d16f6c,testing,2M,21,AdDbYcM,0,1,False,305.0,ho cercato di memorizzare le posizioni dei caratteri
0,59aaf4b1321f870001d16f6c,testing,2M,22,bGuOYDE,1,1,True,1017.0,ho cercato di memorizzare le posizioni dei caratteri
0,59aaf4b1321f870001d16f6c,testing,2M,23,ZYcQUYcM,1,1,True,1039.0,ho cercato di memorizzare le posizioni dei caratteri
0,59aaf4b1321f870001d16f6c,testing,2M,24,vYLUOdOP,1,1,True,856.0,ho cercato di memorizzare le posizioni dei caratteri
0,59aaf4b1321f870001d16f6c,testing,2M,25,AdDbZAUu,1,0,False,473.0,ho cercato di memorizzare le posizioni dei caratteri
0,59aaf4b1321f870001d16f6c,testing,2M,26,kPOtOdOP,0,0,True,1081.0,ho cercato di memorizzare le posizioni dei caratteri
0,59aaf4b1321f870001d16f6c,testing,2M,27,JdOAYZAUu,0,0,True,1685.0,ho cercato di memorizzare le posizioni dei caratteri
0,59aaf4b1321f870001d16f6c,testing,2M,28,CtmbYcM,0,0,True,755.0,ho cercato di memorizzare le posizioni dei caratteri
0,59aaf4b1321f870001d16f6c,testing,2M,29,htmhCcDR,0,0,True,553.0,ho cercato di memorizzare le posizioni dei caratteri
0,59aaf4b1321f870001d16f6c,testing,2M,30,LAclAOtM,1,0,False,390.0,ho cercato di memorizzare le posizioni dei caratteri
0,59aaf4b1321f870001d16f6c,testing,2M,31,tKDmhYDE,0,0,True,452.0,ho cercato di memorizzare le posizioni dei caratteri
0,59aaf4b1321f870001d16f6c,testing,2M,32,vYLUcrdY,0,1,False,466.0,ho cercato di memorizzare le posizioni dei caratteri
0,59aaf4b1321f870001d16f6c,testing,2M,33,htmhCJUNa,1,0,False,231.0,ho cercato di memorizzare le posizioni dei caratteri
0,59aaf4b1321f870001d16f6c,testing,2M,34,EYtYRcrdY,1,0,False,795.0,ho cercato di memorizzare le posizioni dei caratteri
0,59aaf4b1321f870001d16f6c,testing,2M,35,JdOAYYcM,1,1,True,2190.0,ho cercato di memorizzare le posizioni dei caratteri
0,59aaf4b1321f870001d16f6c,testing,2M,36,EYtYROdOP,0,1,False,711.0,ho cercato di memorizzare le posizioni dei caratteri
0,59aaf4b1321f870001d16f6c,testing,2M,37,ZcGdNOtM,1,0,False,720.0,ho cercato di memorizzare le posizioni dei caratteri
0,59aaf4b1321f870001d16f6c,testing,2M,38,kPOtcrdY,1,0,False,1079.0,ho cercato di memorizzare le posizioni dei caratteri
0,59aaf4b1321f870001d16f6c,testing,2M,39,MkmEdQGb,1,1,True,689.0,ho cercato di memorizzare le posizioni dei caratteri
0,59aaf4b1321f870001d16f6c,testing,2M,40,MhKdkJdr,1,0,False,1042.0,ho cercato di memorizzare le posizioni dei caratteri
0,5aa787c66219a30001c765f8,testing,2M,1,lrZGYDTk,1,0,False,9158.0,my memory 
0,5aa787c66219a30001c765f8,testing,1M,2,kabJbaQr,0,1,False,916.0,my memory 
0,5aa787c66219a30001c765f8,testing,2M,3,OmtlDlMck,0,0,True,755.0,my memory 
0,5aa787c66219a30001c765f8,testing,2M,4,PMPtkBbM,0,0,True,1071.0,my memory 
0,5aa787c66219a30001c765f8,testing,0M,5,cAZulGc,1,1,True,878.0,my memory 
0,5aa787c66219a30001c765f8,testing,0M,6,dCtMAmvG,1,0,False,784.0,my memory 
0,5aa787c66219a30001c765f8,testing,2M,7,mcOJlMck,1,0,False,1161.0,my memory 
0,5aa787c66219a30001c765f8,testing,2M,8,UJkGYNu,0,0,True,1152.0,my memory 
0,5aa787c66219a30001c765f8,testing,2M,9,dkLlBbM,1,0,False,1331.0,my memory 
0,5aa787c66219a30001c765f8,testing,1M,10,kLvdNYDE,0,1,False,562.0,my memory 
0,5aa787c66219a30001c765f8,testing,2M,11,vmuLlNac,0,0,True,939.0,my memory 
0,5aa787c66219a30001c765f8,testing,2M,12,mcOJrAJu,0,1,False,1207.0,my memory 
0,5aa787c66219a30001c765f8,testing,2M,13,KdARQONk,1,0,False,1216.0,my memory 
0,5aa787c66219a30001c765f8,testing,0M,14,bvkrbROC,1,1,True,826.0,my memory 
0,5aa787c66219a30001c765f8,testing,0M,15,PctRCmZb,1,1,True,694.0,my memory 
0,5aa787c66219a30001c765f8,testing,1M,16,uvaUYDE,0,0,True,681.0,my memory 
0,5aa787c66219a30001c765f8,testing,1M,17,UaZmaQONk,0,0,True,902.0,my memory 
0,5aa787c66219a30001c765f8,testing,2M,18,YJLcAaQr,0,1,False,1186.0,my memory 
0,5aa787c66219a30001c765f8,testing,1M,19,mLdkZrAJu,0,1,False,1215.0,my memory 
0,5aa787c66219a30001c765f8,testing,1M,20,EtMDMTKDk,0,1,False,1389.0,my memory 
0,5aa787c66219a30001c765f8,testing,0M,21,rvAJPTl,1,0,False,597.0,my memory 
0,5aa787c66219a30001c765f8,testing,1M,22,DhMtYmb,0,0,True,489.0,my memory 
0,5aa787c66219a30001c765f8,testing,0M,23,QcladmZb,1,1,True,824.0,my memory 
0,5aa787c66219a30001c765f8,testing,2M,24,JAdLmlMck,1,0,False,738.0,my memory 
0,5aa787c66219a30001c765f8,testing,0M,25,hbmANUZ,1,1,True,772.0,my memory 
0,5aa787c66219a30001c765f8,testing,2M,26,lBKtYDE,0,0,True,804.0,my memory 
0,5aa787c66219a30001c765f8,testing,2M,27,OmtlDrAJu,1,0,False,1144.0,my memory 
0,5aa787c66219a30001c765f8,testing,1M,28,TObCONac,0,0,True,683.0,my memory 
0,5aa787c66219a30001c765f8,testing,0M,29,CKObkam,1,0,False,892.0,my memory 
0,5aa787c66219a30001c765f8,testing,1M,30,YuaNdBbM,0,1,False,654.0,my memory 
0,5aa787c66219a30001c765f8,testing,2M,31,OZkbNac,0,1,False,971.0,my memory 
0,5aa787c66219a30001c765f8,testing,0M,32,CMdPuUY,1,0,False,733.0,my memory 
0,5aa787c66219a30001c765f8,testing,1M,33,YJLcAYBO,0,1,False,1032.0,my memory 
0,5aa787c66219a30001c765f8,testing,0M,34,LAclAbcbM,1,1,True,1292.0,my memory 
0,5aa787c66219a30001c765f8,testing,0M,35,rNlZABb,1,0,False,859.0,my memory 
0,5aa787c66219a30001c765f8,testing,2M,36,UJkGAPT,1,0,False,902.0,my memory 
0,5aa787c66219a30001c765f8,testing,1M,37,JAdLmKOYC,0,1,False,733.0,my memory 
0,5aa787c66219a30001c765f8,testing,2M,38,hkRKAPT,0,0,True,548.0,my memory 
0,5aa787c66219a30001c765f8,testing,1M,39,alJYrAJu,0,0,True,1652.0,my memory 
0,5aa787c66219a30001c765f8,testing,2M,40,uQkrdQONk,0,1,False,759.0,my memory 
0,5aa787c66219a30001c765f8,testing,0M,41,YadrYArG,1,0,False,796.0,my memory 
0,5aa787c66219a30001c765f8,testing,2M,42,vmuLlYDE,1,1,True,705.0,my memory 
0,5aa787c66219a30001c765f8,testing,1M,43,NmAGYDTk,0,0,True,525.0,my memory 
0,5aa787c66219a30001c765f8,testing,0M,44,cuOJbmLJ,1,0,False,1123.0,my memory 
0,5aa787c66219a30001c765f8,testing,1M,45,mcOJYQbc,0,1,False,1046.0,my memory 
0,5aa787c66219a30001c765f8,testing,2M,46,uQkrdBbM,1,1,True,729.0,my memory 
0,5aa787c66219a30001c765f8,testing,0M,47,JauQkYL,1,0,False,546.0,my memory 
0,5aa787c66219a30001c765f8,testing,1M,48,GAcYYNu,0,0,True,802.0,my memory 
0,5aa787c66219a30001c765f8,testing,1M,49,OCmkNac,0,0,True,941.0,my memory 
0,5aa787c66219a30001c765f8,testing,0M,50,JvaAmhc,1,0,False,1167.0,my memory 
0,5aa787c66219a30001c765f8,testing,2M,51,TEBKrAJu,1,0,False,876.0,my memory 
0,5aa787c66219a30001c765f8,testing,0M,52,ZvkLkbu,1,0,False,754.0,my memory 
0,5aa787c66219a30001c765f8,testing,2M,53,DhMtAPT,0,0,True,1433.0,my memory 
0,5aa787c66219a30001c765f8,testing,0M,54,OQarQBRDh,1,1,True,628.0,my memory 
0,5aa787c66219a30001c765f8,testing,1M,55,UvOGYNu,0,0,True,574.0,my memory 
0,5aa787c66219a30001c765f8,testing,1M,56,lBKthBK,0,1,False,920.0,my memory 
0,5aa787c66219a30001c765f8,testing,0M,57,OAblcRDM,1,0,False,742.0,my memory 
0,5aa787c66219a30001c765f8,testing,1M,58,dkLlGrub,0,0,True,819.0,my memory 
0,5aa787c66219a30001c765f8,testing,2M,59,JAdLmrAJu,0,0,True,1976.0,my memory 
0,5aa787c66219a30001c765f8,testing,0M,60,BlmclTPOM,1,0,False,564.0,my memory 
0,5aa787c66219a30001c765f8,testing,2M,61,ckLALAPT,1,0,False,676.0,my memory 
0,5aa787c66219a30001c765f8,testing,0M,62,vkYGlrvAJ,1,0,False,700.0,my memory 
0,5aa787c66219a30001c765f8,testing,1M,63,YKPBBbM,0,0,True,962.0,my memory 
0,5aa787c66219a30001c765f8,testing,1M,64,UJkGcUN,0,0,True,1511.0,my memory 
0,5aa787c66219a30001c765f8,testing,1M,65,EPMDkbvuZ,0,1,False,796.0,my memory 
0,5aa787c66219a30001c765f8,testing,0M,66,YcdONYZu,1,0,False,813.0,my memory 
0,5aa787c66219a30001c765f8,testing,1M,67,PMPtkYbN,0,1,False,800.0,my memory 
0,5aa787c66219a30001c765f8,testing,2M,68,EPMDkaQr,1,1,True,778.0,my memory 
0,5aa787c66219a30001c765f8,testing,1M,69,JmNkQONk,0,0,True,588.0,my memory 
0,5aa787c66219a30001c765f8,testing,1M,70,bNdmGYDTk,0,1,False,782.0,my memory 
0,5aa787c66219a30001c765f8,testing,1M,71,hkRKTmc,0,0,True,1057.0,my memory 
0,5aa787c66219a30001c765f8,testing,1M,72,TEBKYZJm,0,0,True,942.0,my memory 
0,5aa787c66219a30001c765f8,testing,1M,73,ckLALrAm,0,0,True,1186.0,my memory 
0,5aa787c66219a30001c765f8,testing,2M,74,OZkbYDE,1,1,True,941.0,my memory 
0,5aa787c66219a30001c765f8,testing,1M,75,KdARDOk,0,1,False,1331.0,my memory 
0,5aa787c66219a30001c765f8,testing,2M,76,EtMDMYDTk,0,0,True,545.0,my memory 
0,5aa787c66219a30001c765f8,testing,0M,77,hTtBbuvJ,1,0,False,659.0,my memory 
0,5aa787c66219a30001c765f8,testing,1M,78,vmuLlOBT,0,0,True,672.0,my memory 
0,5aa787c66219a30001c765f8,testing,0M,79,htmhCJUG,1,0,False,970.0,my memory 
0,5aa787c66219a30001c765f8,testing,1M,80,OJlNlMck,0,0,True,562.0,my memory 
0,5aa787c66219a30001c765f8,testing,0M,81,AlQaQTAm,1,0,False,593.0,my memory 
0,5aa787c66219a30001c765f8,testing,2M,82,dkLlQONk,0,0,True,619.0,my memory 
0,5aa787c66219a30001c765f8,testing,1M,83,OZkbUZu,0,1,False,608.0,my memory 
0,5aa787c66219a30001c765f8,testing,1M,84,LNUrJaQr,0,0,True,379.0,my memory 
0,5aa787c66219a30001c765f8,testing,2M,85,hmKPMNac,1,1,True,1514.0,my memory 
0,5aa787c66219a30001c765f8,testing,0M,86,AbKDRdCc,1,1,True,600.0,my memory 
0,5aa787c66219a30001c765f8,testing,1M,87,CkBOPAPT,0,1,False,731.0,my memory 
0,5aa787c66219a30001c765f8,testing,0M,88,ukbYCEM,1,0,False,490.0,my memory 
0,5aa787c66219a30001c765f8,testing,1M,89,uQkrdlTmO,0,0,True,520.0,my memory 
0,5aa787c66219a30001c765f8,testing,0M,90,kJdrOtM,1,0,False,500.0,my memory 
0,5aa787c66219a30001c765f8,testing,0M,91,GrbkAvdk,1,0,False,449.0,my memory 
0,5aa787c66219a30001c765f8,testing,2M,92,TEBKlMck,0,0,True,682.0,my memory 
0,5aa787c66219a30001c765f8,testing,0M,93,EPERdKDPA,1,0,False,602.0,my memory 
0,5aa787c66219a30001c765f8,testing,0M,94,DMRPmbZl,1,0,False,490.0,my memory 
0,5aa787c66219a30001c765f8,testing,0M,95,LAclAdPc,1,1,True,468.0,my memory 
0,5aa787c66219a30001c765f8,testing,2M,96,DhMtYNu,1,0,False,795.0,my memory 
0,5aa787c66219a30001c765f8,testing,0M,97,dGLAlNQZv,1,1,True,768.0,my memory 
0,5aa787c66219a30001c765f8,testing,1M,98,hmKPMtcB,0,0,True,367.0,my memory 
0,5aa787c66219a30001c765f8,testing,0M,99,DmAMEKMOc,1,0,False,1089.0,my memory 
0,5aa787c66219a30001c765f8,testing,1M,100,NaAQdlMck,0,1,False,649.0,my memory 
0,5aa787c66219a30001c765f8,testing,2M,101,PMPtkQONk,1,0,False,542.0,my memory 
0,5aa787c66219a30001c765f8,testing,2M,102,hkRKYNu,1,0,False,1161.0,my memory 
0,5aa787c66219a30001c765f8,testing,2M,103,lrZGaQr,0,1,False,732.0,my memory 
0,5aa787c66219a30001c765f8,testing,0M,104,mbZlmBYl,1,1,True,640.0,my memory 
0,5aa787c66219a30001c765f8,testing,1M,105,OmtlDlBlE,0,0,True,576.0,my memory 
0,5aa787c66219a30001c765f8,testing,0M,106,kdEdYDbMR,1,1,True,860.0,my memory 
0,5aa787c66219a30001c765f8,testing,2M,107,YJLcAYDTk,1,0,False,605.0,my memory 
0,5aa787c66219a30001c765f8,testing,1M,108,lrZGJcL,0,0,True,746.0,my memory 
0,5aa787c66219a30001c765f8,testing,0M,109,NbmQUuUmb,1,0,False,514.0,my memory 
0,5aa787c66219a30001c765f8,testing,0M,110,lYruamvG,1,0,False,820.0,my memory 
0,5aa787c66219a30001c765f8,testing,2M,111,ckLALYNu,0,0,True,799.0,my memory 
0,5aa787c66219a30001c765f8,testing,2M,112,EPMDkYDTk,0,0,True,829.0,my memory 
0,5aa787c66219a30001c765f8,testing,1M,113,hRKmAPT,0,0,True,725.0,my memory 
0,5aa787c66219a30001c765f8,testing,2M,114,EtMDMaQr,1,0,False,659.0,my memory 
0,5aa787c66219a30001c765f8,testing,2M,115,lBKtNac,1,0,False,732.0,my memory 
0,5aa787c66219a30001c765f8,testing,0M,116,KElBmAM,1,0,False,795.0,my memory 
0,5aa787c66219a30001c765f8,testing,0M,117,AOUlKmE,1,0,False,727.0,my memory 
0,5aa787c66219a30001c765f8,testing,2M,118,KdARBbM,0,0,True,625.0,my memory 
0,5aa787c66219a30001c765f8,testing,0M,119,MBKREmvG,1,1,True,484.0,my memory 
0,5aa787c66219a30001c765f8,testing,2M,120,hmKPMYDE,0,0,True,460.0,my memory 
0,5ae5db897edeb000014a85ee,testing,2M,1,lGZvNUZ,0,1,False,1257.0,"Just tried to use my intuition with regards to the shape of the whole word, but still had some dificulty thinking on whether the shape resembled something like what I've seen before"
0,5ae5db897edeb000014a85ee,testing,0M,2,BKDRYDOk,1,0,False,1900.0,"Just tried to use my intuition with regards to the shape of the whole word, but still had some dificulty thinking on whether the shape resembled something like what I've seen before"
0,5ae5db897edeb000014a85ee,testing,1M,3,CRdBdOcN,0,1,False,1363.0,"Just tried to use my intuition with regards to the shape of the whole word, but still had some dificulty thinking on whether the shape resembled something like what I've seen before"
0,5ae5db897edeb000014a85ee,testing,0M,4,KlkDvJQ,1,1,True,2080.0,"Just tried to use my intuition with regards to the shape of the whole word, but still had some dificulty thinking on whether the shape resembled something like what I've seen before"
0,5ae5db897edeb000014a85ee,testing,1M,5,crdYravu,0,0,True,1022.0,"Just tried to use my intuition with regards to the shape of the whole word, but still had some dificulty thinking on whether the shape resembled something like what I've seen before"
0,5ae5db897edeb000014a85ee,testing,0M,6,OMlTBRDh,1,0,False,1421.0,"Just tried to use my intuition with regards to the shape of the whole word, but still had some dificulty thinking on whether the shape resembled something like what I've seen before"
0,5ae5db897edeb000014a85ee,testing,1M,7,GJGcZNvYJ,0,0,True,1502.0,"Just tried to use my intuition with regards to the shape of the whole word, but still had some dificulty thinking on whether the shape resembled something like what I've seen before"
0,5ae5db897edeb000014a85ee,testing,1M,8,TbKMEvUdm,0,1,False,1637.0,"Just tried to use my intuition with regards to the shape of the whole word, but still had some dificulty thinking on whether the shape resembled something like what I've seen before"
0,5ae5db897edeb000014a85ee,testing,0M,9,DBklmdla,1,1,True,1724.0,"Just tried to use my intuition with regards to the shape of the whole word, but still had some dificulty thinking on whether the shape resembled something like what I've seen before"
0,5ae5db897edeb000014a85ee,testing,1M,10,MKmYAPEM,0,1,False,1779.0,"Just tried to use my intuition with regards to the shape of the whole word, but still had some dificulty thinking on whether the shape resembled something like what I've seen before"
0,5ae5db897edeb000014a85ee,testing,2M,11,DBlhYKPB,0,0,True,1538.0,"Just tried to use my intuition with regards to the shape of the whole word, but still had some dificulty thinking on whether the shape resembled something like what I've seen before"
0,5ae5db897edeb000014a85ee,testing,2M,12,hTtBbOBT,0,0,True,1017.0,"Just tried to use my intuition with regards to the shape of the whole word, but still had some dificulty thinking on whether the shape resembled something like what I've seen before"
0,5ae5db897edeb000014a85ee,testing,0M,13,cAZuBbM,1,0,False,1749.0,"Just tried to use my intuition with regards to the shape of the whole word, but still had some dificulty thinking on whether the shape resembled something like what I've seen before"
0,5ae5db897edeb000014a85ee,testing,1M,14,OmtlDNJZl,0,0,True,1528.0,"Just tried to use my intuition with regards to the shape of the whole word, but still had some dificulty thinking on whether the shape resembled something like what I've seen before"
0,5ae5db897edeb000014a85ee,testing,2M,15,CRdBdNUZ,1,1,True,1184.0,"Just tried to use my intuition with regards to the shape of the whole word, but still had some dificulty thinking on whether the shape resembled something like what I've seen before"
0,5ae5db897edeb000014a85ee,testing,0M,16,cROMtTAm,1,0,False,1533.0,"Just tried to use my intuition with regards to the shape of the whole word, but still had some dificulty thinking on whether the shape resembled something like what I've seen before"
0,5ae5db897edeb000014a85ee,testing,0M,17,NaJbYBO,1,1,True,1032.0,"Just tried to use my intuition with regards to the shape of the whole word, but still had some dificulty thinking on whether the shape resembled something like what I've seen before"
0,5ae5db897edeb000014a85ee,testing,0M,18,RlAKcbGuO,1,0,False,1419.0,"Just tried to use my intuition with regards to the shape of the whole word, but still had some dificulty thinking on whether the shape resembled something like what I've seen before"
0,5ae5db897edeb000014a85ee,testing,2M,19,DOchlYArG,1,0,False,1751.0,"Just tried to use my intuition with regards to the shape of the whole word, but still had some dificulty thinking on whether the shape resembled something like what I've seen before"
0,5ae5db897edeb000014a85ee,testing,2M,20,JNkaOBT,1,0,False,1269.0,"Just tried to use my intuition with regards to the shape of the whole word, but still had some dificulty thinking on whether the shape resembled something like what I've seen before"
0,5ae5db897edeb000014a85ee,testing,1M,21,dKDthUmNJ,0,1,False,817.0,"Just tried to use my intuition with regards to the shape of the whole word, but still had some dificulty thinking on whether the shape resembled something like what I've seen before"
0,5ae5db897edeb000014a85ee,testing,0M,22,BdtACOCmk,1,1,True,1498.0,"Just tried to use my intuition with regards to the shape of the whole word, but still had some dificulty thinking on whether the shape resembled something like what I've seen before"
0,5ae5db897edeb000014a85ee,testing,1M,23,JNkaRYlD,0,0,True,1374.0,"Just tried to use my intuition with regards to the shape of the whole word, but still had some dificulty thinking on whether the shape resembled something like what I've seen before"
0,5ae5db897edeb000014a85ee,testing,0M,24,mLdkZATc,1,0,False,1338.0,"Just tried to use my intuition with regards to the shape of the whole word, but still had some dificulty thinking on whether the shape resembled something like what I've seen before"
0,5ae5db897edeb000014a85ee,testing,0M,25,htmhClLG,1,0,False,1326.0,"Just tried to use my intuition with regards to the shape of the whole word, but still had some dificulty thinking on whether the shape resembled something like what I've seen before"
0,5ae5db897edeb000014a85ee,testing,0M,26,lrZGkbu,1,0,False,1438.0,"Just tried to use my intuition with regards to the shape of the whole word, but still had some dificulty thinking on whether the shape resembled something like what I've seen before"
0,5ae5db897edeb000014a85ee,testing,1M,27,TPCbJud,0,1,False,1243.0,"Just tried to use my intuition with regards to the shape of the whole word, but still had some dificulty thinking on whether the shape resembled something like what I've seen before"
0,5ae5db897edeb000014a85ee,testing,1M,28,uQuZckdrO,0,1,False,1066.0,"Just tried to use my intuition with regards to the shape of the whole word, but still had some dificulty thinking on whether the shape resembled something like what I've seen before"
0,5ae5db897edeb000014a85ee,testing,2M,29,bYGOZJUG,0,0,True,1394.0,"Just tried to use my intuition with regards to the shape of the whole word, but still had some dificulty thinking on whether the shape resembled something like what I've seen before"
0,5ae5db897edeb000014a85ee,testing,0M,30,PEkhAJQA,1,0,False,1351.0,"Just tried to use my intuition with regards to the shape of the whole word, but still had some dificulty thinking on whether the shape resembled something like what I've seen before"
0,5ae5db897edeb000014a85ee,testing,2M,31,krGuAPEM,1,0,False,1687.0,"Just tried to use my intuition with regards to the shape of the whole word, but still had some dificulty thinking on whether the shape resembled something like what I've seen before"
0,5ae5db897edeb000014a85ee,testing,0M,32,hbkdcUN,1,0,False,1241.0,"Just tried to use my intuition with regards to the shape of the whole word, but still had some dificulty thinking on whether the shape resembled something like what I've seen before"
0,5ae5db897edeb000014a85ee,testing,1M,33,GLYrAYKPB,0,1,False,1524.0,"Just tried to use my intuition with regards to the shape of the whole word, but still had some dificulty thinking on whether the shape resembled something like what I've seen before"
0,5ae5db897edeb000014a85ee,testing,2M,34,ZNLOvJUG,0,1,False,1813.0,"Just tried to use my intuition with regards to the shape of the whole word, but still had some dificulty thinking on whether the shape resembled something like what I've seen before"
0,5ae5db897edeb000014a85ee,testing,1M,35,PctRCravu,0,1,False,1349.0,"Just tried to use my intuition with regards to the shape of the whole word, but still had some dificulty thinking on whether the shape resembled something like what I've seen before"
0,5ae5db897edeb000014a85ee,testing,2M,36,TPCbYArG,1,1,True,1427.0,"Just tried to use my intuition with regards to the shape of the whole word, but still had some dificulty thinking on whether the shape resembled something like what I've seen before"
0,5ae5db897edeb000014a85ee,testing,2M,37,TbKMEkdrO,1,1,True,1681.0,"Just tried to use my intuition with regards to the shape of the whole word, but still had some dificulty thinking on whether the shape resembled something like what I've seen before"
0,5ae5db897edeb000014a85ee,testing,0M,38,lMckbRC,1,0,False,2068.0,"Just tried to use my intuition with regards to the shape of the whole word, but still had some dificulty thinking on whether the shape resembled something like what I've seen before"
0,5ae5db897edeb000014a85ee,testing,1M,39,mBmlATmc,0,0,True,1082.0,"Just tried to use my intuition with regards to the shape of the whole word, but still had some dificulty thinking on whether the shape resembled something like what I've seen before"
0,5ae5db897edeb000014a85ee,testing,1M,40,LdrbvhbmA,0,1,False,1283.0,"Just tried to use my intuition with regards to the shape of the whole word, but still had some dificulty thinking on whether the shape resembled something like what I've seen before"
0,5ae5db897edeb000014a85ee,testing,2M,41,OQarQTmc,1,1,True,1628.0,"Just tried to use my intuition with regards to the shape of the whole word, but still had some dificulty thinking on whether the shape resembled something like what I've seen before"
0,5ae5db897edeb000014a85ee,testing,2M,42,DBPhcNUZ,1,1,True,1760.0,"Just tried to use my intuition with regards to the shape of the whole word, but still had some dificulty thinking on whether the shape resembled something like what I've seen before"
0,5ae5db897edeb000014a85ee,testing,2M,43,CRdBdTmc,0,0,True,1876.0,"Just tried to use my intuition with regards to the shape of the whole word, but still had some dificulty thinking on whether the shape resembled something like what I've seen before"
0,5ae5db897edeb000014a85ee,testing,1M,44,DOchlQru,0,0,True,1443.0,"Just tried to use my intuition with regards to the shape of the whole word, but still had some dificulty thinking on whether the shape resembled something like what I've seen before"
0,5ae5db897edeb000014a85ee,testing,2M,45,hTtBbravu,1,0,False,869.0,"Just tried to use my intuition with regards to the shape of the whole word, but still had some dificulty thinking on whether the shape resembled something like what I've seen before"
0,5ae5db897edeb000014a85ee,testing,0M,46,rLkmmKcD,1,1,True,1105.0,"Just tried to use my intuition with regards to the shape of the whole word, but still had some dificulty thinking on whether the shape resembled something like what I've seen before"
0,5ae5db897edeb000014a85ee,testing,1M,47,mUOcOAPEM,0,1,False,1348.0,"Just tried to use my intuition with regards to the shape of the whole word, but still had some dificulty thinking on whether the shape resembled something like what I've seen before"
0,5ae5db897edeb000014a85ee,testing,0M,48,EPBTMTdY,1,1,True,1305.0,"Just tried to use my intuition with regards to the shape of the whole word, but still had some dificulty thinking on whether the shape resembled something like what I've seen before"
0,5ae5db897edeb000014a85ee,testing,1M,49,hTtBbcbm,0,0,True,876.0,"Just tried to use my intuition with regards to the shape of the whole word, but still had some dificulty thinking on whether the shape resembled something like what I've seen before"
0,5ae5db897edeb000014a85ee,testing,2M,50,GJGcZkdrO,0,1,False,1308.0,"Just tried to use my intuition with regards to the shape of the whole word, but still had some dificulty thinking on whether the shape resembled something like what I've seen before"
0,5ae5db897edeb000014a85ee,testing,0M,51,ZYcQUACcO,1,1,True,931.0,"Just tried to use my intuition with regards to the shape of the whole word, but still had some dificulty thinking on whether the shape resembled something like what I've seen before"
0,5ae5db897edeb000014a85ee,testing,2M,52,OQarQNUZ,0,0,True,982.0,"Just tried to use my intuition with regards to the shape of the whole word, but still had some dificulty thinking on whether the shape resembled something like what I've seen before"
0,5ae5db897edeb000014a85ee,testing,0M,53,cROMtYht,1,0,False,836.0,"Just tried to use my intuition with regards to the shape of the whole word, but still had some dificulty thinking on whether the shape resembled something like what I've seen before"
0,5ae5db897edeb000014a85ee,testing,2M,54,JNkaravu,0,1,False,1258.0,"Just tried to use my intuition with regards to the shape of the whole word, but still had some dificulty thinking on whether the shape resembled something like what I've seen before"
0,5ae5db897edeb000014a85ee,testing,1M,55,krGuCOTK,0,1,False,935.0,"Just tried to use my intuition with regards to the shape of the whole word, but still had some dificulty thinking on whether the shape resembled something like what I've seen before"
0,5ae5db897edeb000014a85ee,testing,1M,56,lTmOTmc,0,0,True,1950.0,"Just tried to use my intuition with regards to the shape of the whole word, but still had some dificulty thinking on whether the shape resembled something like what I've seen before"
0,5ae5db897edeb000014a85ee,testing,0M,57,YlCPBOcYM,1,1,True,1391.0,"Just tried to use my intuition with regards to the shape of the whole word, but still had some dificulty thinking on whether the shape resembled something like what I've seen before"
0,5ae5db897edeb000014a85ee,testing,2M,58,DBPhcTmc,0,0,True,1025.0,"Just tried to use my intuition with regards to the shape of the whole word, but still had some dificulty thinking on whether the shape resembled something like what I've seen before"
0,5ae5db897edeb000014a85ee,testing,1M,59,uQkrdCdt,0,1,False,1052.0,"Just tried to use my intuition with regards to the shape of the whole word, but still had some dificulty thinking on whether the shape resembled something like what I've seen before"
0,5ae5db897edeb000014a85ee,testing,1M,60,LckGNYArG,0,1,False,1549.0,"Just tried to use my intuition with regards to the shape of the whole word, but still had some dificulty thinking on whether the shape resembled something like what I've seen before"
0,5ae5db897edeb000014a85ee,testing,1M,61,ckLALJUG,0,1,False,1376.0,"Just tried to use my intuition with regards to the shape of the whole word, but still had some dificulty thinking on whether the shape resembled something like what I've seen before"
0,5ae5db897edeb000014a85ee,testing,1M,62,hCktTbk,0,0,True,1393.0,"Just tried to use my intuition with regards to the shape of the whole word, but still had some dificulty thinking on whether the shape resembled something like what I've seen before"
0,5ae5db897edeb000014a85ee,testing,2M,63,kbmZOOBT,1,0,False,1883.0,"Just tried to use my intuition with regards to the shape of the whole word, but still had some dificulty thinking on whether the shape resembled something like what I've seen before"
0,5ae5db897edeb000014a85ee,testing,0M,64,kdEdYKmE,1,1,True,1144.0,"Just tried to use my intuition with regards to the shape of the whole word, but still had some dificulty thinking on whether the shape resembled something like what I've seen before"
0,5ae5db897edeb000014a85ee,testing,1M,65,GQrcCdt,0,0,True,1079.0,"Just tried to use my intuition with regards to the shape of the whole word, but still had some dificulty thinking on whether the shape resembled something like what I've seen before"
0,5ae5db897edeb000014a85ee,testing,0M,66,NbacAlvk,1,0,False,949.0,"Just tried to use my intuition with regards to the shape of the whole word, but still had some dificulty thinking on whether the shape resembled something like what I've seen before"
0,5ae5db897edeb000014a85ee,testing,2M,67,hCktravu,1,0,False,1072.0,"Just tried to use my intuition with regards to the shape of the whole word, but still had some dificulty thinking on whether the shape resembled something like what I've seen before"
0,5ae5db897edeb000014a85ee,testing,2M,68,bYGOZYKPB,1,0,False,2049.0,"Just tried to use my intuition with regards to the shape of the whole word, but still had some dificulty thinking on whether the shape resembled something like what I've seen before"
0,5ae5db897edeb000014a85ee,testing,2M,69,LdrbvYArG,0,0,True,1406.0,"Just tried to use my intuition with regards to the shape of the whole word, but still had some dificulty thinking on whether the shape resembled something like what I've seen before"
0,5ae5db897edeb000014a85ee,testing,0M,70,laYmrDBkl,1,0,False,1154.0,"Just tried to use my intuition with regards to the shape of the whole word, but still had some dificulty thinking on whether the shape resembled something like what I've seen before"
0,5ae5db897edeb000014a85ee,testing,2M,71,hCktOBT,0,0,True,1058.0,"Just tried to use my intuition with regards to the shape of the whole word, but still had some dificulty thinking on whether the shape resembled something like what I've seen before"
0,5ae5db897edeb000014a85ee,testing,2M,72,LdrbvCdt,1,0,False,1581.0,"Just tried to use my intuition with regards to the shape of the whole word, but still had some dificulty thinking on whether the shape resembled something like what I've seen before"
0,5ae5db897edeb000014a85ee,testing,0M,73,PCPDhuauO,1,1,True,1319.0,"Just tried to use my intuition with regards to the shape of the whole word, but still had some dificulty thinking on whether the shape resembled something like what I've seen before"
0,5ae5db897edeb000014a85ee,testing,1M,74,DBlhukcY,0,0,True,1544.0,"Just tried to use my intuition with regards to the shape of the whole word, but still had some dificulty thinking on whether the shape resembled something like what I've seen before"
0,5ae5db897edeb000014a85ee,testing,1M,75,mrOdCmYA,0,0,True,1102.0,"Just tried to use my intuition with regards to the shape of the whole word, but still had some dificulty thinking on whether the shape resembled something like what I've seen before"
0,5ae5db897edeb000014a85ee,testing,1M,76,KDPAJUG,0,0,True,1055.0,"Just tried to use my intuition with regards to the shape of the whole word, but still had some dificulty thinking on whether the shape resembled something like what I've seen before"
0,5ae5db897edeb000014a85ee,testing,2M,77,OmtlDkdrO,1,0,False,1470.0,"Just tried to use my intuition with regards to the shape of the whole word, but still had some dificulty thinking on whether the shape resembled something like what I've seen before"
0,5ae5db897edeb000014a85ee,testing,1M,78,lGZvGlu,0,1,False,2068.0,"Just tried to use my intuition with regards to the shape of the whole word, but still had some dificulty thinking on whether the shape resembled something like what I've seen before"
0,5ae5db897edeb000014a85ee,testing,0M,79,vuJZuUaYL,1,1,True,675.0,"Just tried to use my intuition with regards to the shape of the whole word, but still had some dificulty thinking on whether the shape resembled something like what I've seen before"
0,5ae5db897edeb000014a85ee,testing,1M,80,OQarQBCD,0,0,True,2010.0,"Just tried to use my intuition with regards to the shape of the whole word, but still had some dificulty thinking on whether the shape resembled something like what I've seen before"
0,5ae5db897edeb000014a85ee,testing,1M,81,DkTCPNUZ,0,0,True,545.0,"Just tried to use my intuition with regards to the shape of the whole word, but still had some dificulty thinking on whether the shape resembled something like what I've seen before"
0,5ae5db897edeb000014a85ee,testing,2M,82,mrOdYArG,0,1,False,760.0,"Just tried to use my intuition with regards to the shape of the whole word, but still had some dificulty thinking on whether the shape resembled something like what I've seen before"
0,5ae5db897edeb000014a85ee,testing,0M,83,KdARmLJ,1,1,True,1052.0,"Just tried to use my intuition with regards to the shape of the whole word, but still had some dificulty thinking on whether the shape resembled something like what I've seen before"
0,5ae5db897edeb000014a85ee,testing,2M,84,ZNLOvYKPB,1,0,False,986.0,"Just tried to use my intuition with regards to the shape of the whole word, but still had some dificulty thinking on whether the shape resembled something like what I've seen before"
0,5ae5db897edeb000014a85ee,testing,0M,85,ckduAEhbt,1,1,True,1170.0,"Just tried to use my intuition with regards to the shape of the whole word, but still had some dificulty thinking on whether the shape resembled something like what I've seen before"
0,5ae5db897edeb000014a85ee,testing,0M,86,DcPTcJZr,1,1,True,959.0,"Just tried to use my intuition with regards to the shape of the whole word, but still had some dificulty thinking on whether the shape resembled something like what I've seen before"
0,5ae5db897edeb000014a85ee,testing,2M,87,GJGcZAPEM,1,1,True,1563.0,"Just tried to use my intuition with regards to the shape of the whole word, but still had some dificulty thinking on whether the shape resembled something like what I've seen before"
0,5ae5db897edeb000014a85ee,testing,2M,88,TPCbCdt,0,0,True,1347.0,"Just tried to use my intuition with regards to the shape of the whole word, but still had some dificulty thinking on whether the shape resembled something like what I've seen before"
0,5ae5db897edeb000014a85ee,testing,0M,89,TObCOBbOD,1,1,True,1050.0,"Just tried to use my intuition with regards to the shape of the whole word, but still had some dificulty thinking on whether the shape resembled something like what I've seen before"
0,5ae5db897edeb000014a85ee,testing,2M,90,DOchlCdt,0,1,False,1034.0,"Just tried to use my intuition with regards to the shape of the whole word, but still had some dificulty thinking on whether the shape resembled something like what I've seen before"
0,5ae5db897edeb000014a85ee,testing,1M,91,BATOcYKPB,0,1,False,1008.0,"Just tried to use my intuition with regards to the shape of the whole word, but still had some dificulty thinking on whether the shape resembled something like what I've seen before"
0,5ae5db897edeb000014a85ee,testing,2M,92,OmtlDAPEM,0,1,False,1714.0,"Just tried to use my intuition with regards to the shape of the whole word, but still had some dificulty thinking on whether the shape resembled something like what I've seen before"
0,5ae5db897edeb000014a85ee,testing,0M,93,DhMtmARM,1,0,False,915.0,"Just tried to use my intuition with regards to the shape of the whole word, but still had some dificulty thinking on whether the shape resembled something like what I've seen before"
0,5ae5db897edeb000014a85ee,testing,2M,94,kbmZOravu,0,1,False,742.0,"Just tried to use my intuition with regards to the shape of the whole word, but still had some dificulty thinking on whether the shape resembled something like what I've seen before"
0,5ae5db897edeb000014a85ee,testing,1M,95,YZUZYArG,0,0,True,1230.0,"Just tried to use my intuition with regards to the shape of the whole word, but still had some dificulty thinking on whether the shape resembled something like what I've seen before"
0,5ae5db897edeb000014a85ee,testing,1M,96,lhCTCNUZ,0,0,True,1811.0,"Just tried to use my intuition with regards to the shape of the whole word, but still had some dificulty thinking on whether the shape resembled something like what I've seen before"
0,5ae5db897edeb000014a85ee,testing,2M,97,dKDthYKPB,0,1,False,819.0,"Just tried to use my intuition with regards to the shape of the whole word, but still had some dificulty thinking on whether the shape resembled something like what I've seen before"
0,5ae5db897edeb000014a85ee,testing,1M,98,bYGOZAld,0,0,True,1909.0,"Just tried to use my intuition with regards to the shape of the whole word, but still had some dificulty thinking on whether the shape resembled something like what I've seen before"
0,5ae5db897edeb000014a85ee,testing,0M,99,KEdlGrbk,1,0,False,1577.0,"Just tried to use my intuition with regards to the shape of the whole word, but still had some dificulty thinking on whether the shape resembled something like what I've seen before"
0,5ae5db897edeb000014a85ee,testing,1M,100,vkYGlkdrO,0,1,False,1822.0,"Just tried to use my intuition with regards to the shape of the whole word, but still had some dificulty thinking on whether the shape resembled something like what I've seen before"
0,5ae5db897edeb000014a85ee,testing,2M,101,lGZvTmc,1,0,False,1514.0,"Just tried to use my intuition with regards to the shape of the whole word, but still had some dificulty thinking on whether the shape resembled something like what I've seen before"
0,5ae5db897edeb000014a85ee,testing,0M,102,YuaNdYNu,1,1,True,1286.0,"Just tried to use my intuition with regards to the shape of the whole word, but still had some dificulty thinking on whether the shape resembled something like what I've seen before"
0,5ae5db897edeb000014a85ee,testing,0M,103,COtBDMCkm,1,1,True,744.0,"Just tried to use my intuition with regards to the shape of the whole word, but still had some dificulty thinking on whether the shape resembled something like what I've seen before"
0,5ae5db897edeb000014a85ee,testing,1M,104,OdlNmOBT,0,0,True,876.0,"Just tried to use my intuition with regards to the shape of the whole word, but still had some dificulty thinking on whether the shape resembled something like what I've seen before"
0,5ae5db897edeb000014a85ee,testing,0M,105,lAOKMlrZG,1,1,True,1356.0,"Just tried to use my intuition with regards to the shape of the whole word, but still had some dificulty thinking on whether the shape resembled something like what I've seen before"
0,5ae5db897edeb000014a85ee,testing,2M,106,mrOdCdt,1,0,False,1179.0,"Just tried to use my intuition with regards to the shape of the whole word, but still had some dificulty thinking on whether the shape resembled something like what I've seen before"
0,5ae5db897edeb000014a85ee,testing,2M,107,DBlhJUG,1,0,False,907.0,"Just tried to use my intuition with regards to the shape of the whole word, but still had some dificulty thinking on whether the shape resembled something like what I've seen before"
0,5ae5db897edeb000014a85ee,testing,2M,108,TbKMEAPEM,0,1,False,1449.0,"Just tried to use my intuition with regards to the shape of the whole word, but still had some dificulty thinking on whether the shape resembled something like what I've seen before"
0,5ae5db897edeb000014a85ee,testing,1M,109,kbmZOuvaU,0,0,True,788.0,"Just tried to use my intuition with regards to the shape of the whole word, but still had some dificulty thinking on whether the shape resembled something like what I've seen before"
0,5ae5db897edeb000014a85ee,testing,0M,110,YLQmGNkUA,1,0,False,1194.0,"Just tried to use my intuition with regards to the shape of the whole word, but still had some dificulty thinking on whether the shape resembled something like what I've seen before"
0,5ae5db897edeb000014a85ee,testing,0M,111,ubALmEAO,1,0,False,760.0,"Just tried to use my intuition with regards to the shape of the whole word, but still had some dificulty thinking on whether the shape resembled something like what I've seen before"
0,5ae5db897edeb000014a85ee,testing,2M,112,dKDthJUG,1,0,False,1603.0,"Just tried to use my intuition with regards to the shape of the whole word, but still had some dificulty thinking on whether the shape resembled something like what I've seen before"
0,5ae5db897edeb000014a85ee,testing,0M,113,lmbYArQu,1,1,True,1458.0,"Just tried to use my intuition with regards to the shape of the whole word, but still had some dificulty thinking on whether the shape resembled something like what I've seen before"
0,5ae5db897edeb000014a85ee,testing,1M,114,DdckOBT,0,1,False,816.0,"Just tried to use my intuition with regards to the shape of the whole word, but still had some dificulty thinking on whether the shape resembled something like what I've seen before"
0,5ae5db897edeb000014a85ee,testing,2M,115,krGukdrO,0,0,True,963.0,"Just tried to use my intuition with regards to the shape of the whole word, but still had some dificulty thinking on whether the shape resembled something like what I've seen before"
0,5ae5db897edeb000014a85ee,testing,1M,116,ZNLOvmAM,0,0,True,1342.0,"Just tried to use my intuition with regards to the shape of the whole word, but still had some dificulty thinking on whether the shape resembled something like what I've seen before"
0,5ae5db897edeb000014a85ee,testing,0M,117,OYuvbcDR,1,1,True,1690.0,"Just tried to use my intuition with regards to the shape of the whole word, but still had some dificulty thinking on whether the shape resembled something like what I've seen before"
0,5ae5db897edeb000014a85ee,testing,0M,118,JZOAkDOk,1,1,True,1320.0,"Just tried to use my intuition with regards to the shape of the whole word, but still had some dificulty thinking on whether the shape resembled something like what I've seen before"
0,5ae5db897edeb000014a85ee,testing,1M,119,DBPhcEcR,0,0,True,1404.0,"Just tried to use my intuition with regards to the shape of the whole word, but still had some dificulty thinking on whether the shape resembled something like what I've seen before"
0,5ae5db897edeb000014a85ee,testing,0M,120,PDPhlmdla,1,1,True,2346.0,"Just tried to use my intuition with regards to the shape of the whole word, but still had some dificulty thinking on whether the shape resembled something like what I've seen before"
0,5b212164cfbf200001cfb3ad,testing,0M,1,EPERdEcR,1,1,True,2019.0,looking at the first character
0,5b212164cfbf200001cfb3ad,testing,1M,2,dKDthQGb,0,1,False,731.0,looking at the first character
0,5b212164cfbf200001cfb3ad,testing,2M,3,kabJbark,0,0,True,755.0,looking at the first character
0,5b212164cfbf200001cfb3ad,testing,2M,4,NbmQUOJNk,0,0,True,821.0,looking at the first character
0,5b212164cfbf200001cfb3ad,testing,2M,5,YJLcAYArG,0,1,False,835.0,looking at the first character
0,5b212164cfbf200001cfb3ad,testing,0M,6,TklDkrGu,1,0,False,400.0,looking at the first character
0,5b212164cfbf200001cfb3ad,testing,1M,7,uQkrdQGb,0,0,True,357.0,looking at the first character
0,5b212164cfbf200001cfb3ad,testing,1M,8,mkmJNYBO,0,0,True,309.0,looking at the first character
0,5b212164cfbf200001cfb3ad,testing,1M,9,NbmQUdEPD,0,1,False,254.0,looking at the first character
0,5b212164cfbf200001cfb3ad,testing,2M,10,UdumdlMck,1,0,False,290.0,looking at the first character
0,5b212164cfbf200001cfb3ad,testing,1M,11,htmhCUZu,0,0,True,282.0,looking at the first character
0,5b212164cfbf200001cfb3ad,testing,2M,12,RkmdCOJlN,1,1,True,179.0,looking at the first character
0,5b212164cfbf200001cfb3ad,testing,1M,13,PhktklMck,0,0,True,225.0,looking at the first character
0,5b212164cfbf200001cfb3ad,testing,2M,14,EltMBQGb,1,0,False,221.0,looking at the first character
0,5b212164cfbf200001cfb3ad,testing,0M,15,advYOmLJ,1,0,False,180.0,looking at the first character
0,5b212164cfbf200001cfb3ad,testing,1M,16,cRElDaONd,0,1,False,143.0,looking at the first character
0,5b212164cfbf200001cfb3ad,testing,2M,17,AlNUQGb,0,1,False,246.0,looking at the first character
0,5b212164cfbf200001cfb3ad,testing,0M,18,UdlGQhEct,1,1,True,160.0,looking at the first character
0,5b212164cfbf200001cfb3ad,testing,2M,19,kCRmYArG,1,0,False,137.0,looking at the first character
0,5b212164cfbf200001cfb3ad,testing,0M,20,hTtBbJUG,1,0,False,180.0,looking at the first character
0,5b212164cfbf200001cfb3ad,testing,1M,21,RkmdCdYAJ,0,0,True,165.0,looking at the first character
0,5b212164cfbf200001cfb3ad,testing,1M,22,kcCRtKEdl,0,1,False,112.0,looking at the first character
0,5b212164cfbf200001cfb3ad,testing,0M,23,ZJLmrkdrO,1,1,True,398.0,looking at the first character
0,5b212164cfbf200001cfb3ad,testing,2M,24,DMRPYBO,0,1,False,229.0,looking at the first character
0,5b212164cfbf200001cfb3ad,testing,0M,25,CchtdLkNc,1,0,False,252.0,looking at the first character
0,5b212164cfbf200001cfb3ad,testing,1M,26,chEDOYBO,0,1,False,452.0,looking at the first character
0,5b212164cfbf200001cfb3ad,testing,2M,27,EltMBYDE,0,0,True,445.0,looking at the first character
0,5b212164cfbf200001cfb3ad,testing,2M,28,NkUAKEdl,1,0,False,316.0,looking at the first character
0,5b212164cfbf200001cfb3ad,testing,1M,29,AlNUkam,0,1,False,530.0,looking at the first character
0,5b212164cfbf200001cfb3ad,testing,2M,30,ZcGdNOtM,1,0,False,338.0,looking at the first character
0,5b212164cfbf200001cfb3ad,testing,2M,31,cRElDKEdl,0,0,True,424.0,looking at the first character
0,5b212164cfbf200001cfb3ad,testing,1M,32,uAkrOJNk,0,0,True,364.0,looking at the first character
0,5b212164cfbf200001cfb3ad,testing,0M,33,QcQAJOBT,1,0,False,717.0,looking at the first character
0,5b212164cfbf200001cfb3ad,testing,2M,34,AlNUYDE,1,0,False,722.0,looking at the first character
0,5b212164cfbf200001cfb3ad,testing,0M,35,ZYcQUPED,1,1,True,825.0,looking at the first character
0,5b212164cfbf200001cfb3ad,testing,0M,36,kKEdMvAvb,1,1,True,828.0,looking at the first character
0,5b212164cfbf200001cfb3ad,testing,0M,37,BKDRYOCmk,1,1,True,1059.0,looking at the first character
0,5b212164cfbf200001cfb3ad,testing,2M,38,kPkRAYBO,0,0,True,524.0,looking at the first character
0,5b212164cfbf200001cfb3ad,testing,2M,39,auYAkYDE,1,0,False,561.0,looking at the first character
0,5b212164cfbf200001cfb3ad,testing,0M,40,Cchtdlvk,1,1,True,478.0,looking at the first character
0,5b212164cfbf200001cfb3ad,testing,1M,41,kPkRAYNu,0,0,True,475.0,looking at the first character
0,5b212164cfbf200001cfb3ad,testing,2M,42,lbBDElMck,0,0,True,528.0,looking at the first character
0,5b212164cfbf200001cfb3ad,testing,0M,43,OAmAdrab,1,1,True,554.0,looking at the first character
0,5b212164cfbf200001cfb3ad,testing,1M,44,auYAkOYK,0,0,True,478.0,looking at the first character
0,5b212164cfbf200001cfb3ad,testing,0M,45,OdOPdRht,1,0,False,468.0,looking at the first character
0,5b212164cfbf200001cfb3ad,testing,0M,46,UdlGQDlDd,1,1,True,523.0,looking at the first character
0,5b212164cfbf200001cfb3ad,testing,0M,47,lRckAALGZ,1,0,False,408.0,looking at the first character
0,5b212164cfbf200001cfb3ad,testing,0M,48,BdtACaYaN,1,0,False,340.0,looking at the first character
0,5b212164cfbf200001cfb3ad,testing,0M,49,DOchlJQA,1,0,False,251.0,looking at the first character
0,5b212164cfbf200001cfb3ad,testing,1M,50,ALOrlark,0,1,False,323.0,looking at the first character
0,5b212164cfbf200001cfb3ad,testing,0M,51,uauOEcR,1,0,False,359.0,looking at the first character
0,5b212164cfbf200001cfb3ad,testing,1M,52,aUZAark,0,0,True,197.0,looking at the first character
0,5b212164cfbf200001cfb3ad,testing,2M,53,LNUrJOJlN,0,0,True,197.0,looking at the first character
0,5b212164cfbf200001cfb3ad,testing,0M,54,lYruaPEdK,1,1,True,270.0,looking at the first character
0,5b212164cfbf200001cfb3ad,testing,1M,55,EPMDkOtM,0,0,True,311.0,looking at the first character
0,5b212164cfbf200001cfb3ad,testing,2M,56,NbmQUYBO,1,0,False,342.0,looking at the first character
0,5b212164cfbf200001cfb3ad,testing,2M,57,ZcGdNYArG,0,0,True,251.0,looking at the first character
0,5b212164cfbf200001cfb3ad,testing,0M,58,ZNLOvLQur,1,1,True,264.0,looking at the first character
0,5b212164cfbf200001cfb3ad,testing,2M,59,cRElDark,1,1,True,268.0,looking at the first character
0,5b212164cfbf200001cfb3ad,testing,1M,60,NkUAOcN,0,0,True,266.0,looking at the first character
0,5b212164cfbf200001cfb3ad,testing,1M,61,hAROKOJlN,0,0,True,272.0,looking at the first character
0,5b212164cfbf200001cfb3ad,testing,2M,62,DMRPOJNk,1,0,False,252.0,looking at the first character
0,5b212164cfbf200001cfb3ad,testing,2M,63,RkmdClMck,0,0,True,253.0,looking at the first character
0,5b212164cfbf200001cfb3ad,testing,0M,64,lRckAMhKd,1,1,True,267.0,looking at the first character
0,5b212164cfbf200001cfb3ad,testing,0M,65,CDEmYGUa,1,1,True,246.0,looking at the first character
0,5b212164cfbf200001cfb3ad,testing,0M,66,kGamNZvkL,1,0,False,278.0,looking at the first character
0,5b212164cfbf200001cfb3ad,testing,0M,67,muYNdUr,1,0,False,264.0,looking at the first character
0,5b212164cfbf200001cfb3ad,testing,0M,68,laYmrArv,1,1,True,238.0,looking at the first character
0,5b212164cfbf200001cfb3ad,testing,2M,69,YJLcAOtM,1,1,True,240.0,looking at the first character
0,5b212164cfbf200001cfb3ad,testing,1M,70,vAuNlOJlN,0,1,False,274.0,looking at the first character
0,5b212164cfbf200001cfb3ad,testing,1M,71,cuOJbYArG,0,0,True,212.0,looking at the first character
0,5b212164cfbf200001cfb3ad,testing,1M,72,GLYrAYDE,0,0,True,265.0,looking at the first character
0,5b212164cfbf200001cfb3ad,testing,0M,73,LAclAJQA,1,0,False,186.0,looking at the first character
0,5b212164cfbf200001cfb3ad,testing,1M,74,kCRmbLd,0,0,True,195.0,looking at the first character
0,5b212164cfbf200001cfb3ad,testing,1M,75,EltMBABb,0,0,True,235.0,looking at the first character
0,5b212164cfbf200001cfb3ad,testing,0M,76,BYhTaYQm,1,1,True,151.0,looking at the first character
0,5b212164cfbf200001cfb3ad,testing,0M,77,aYQmUbG,1,1,True,253.0,looking at the first character
0,5b212164cfbf200001cfb3ad,testing,2M,78,kCRmOtM,0,1,False,223.0,looking at the first character
0,5b212164cfbf200001cfb3ad,testing,2M,79,LNUrJlMck,1,0,False,196.0,looking at the first character
0,5b212164cfbf200001cfb3ad,testing,0M,80,LOLkUvQdO,1,0,False,308.0,looking at the first character
0,5b212164cfbf200001cfb3ad,testing,0M,81,dmZvmrvAJ,1,0,False,542.0,looking at the first character
0,5b212164cfbf200001cfb3ad,testing,1M,82,LcNUJOtM,0,1,False,388.0,looking at the first character
0,5b212164cfbf200001cfb3ad,testing,0M,83,BOCRMrba,1,1,True,620.0,looking at the first character
0,5b212164cfbf200001cfb3ad,testing,2M,84,lbBDEOJlN,1,0,False,668.0,looking at the first character
0,5b212164cfbf200001cfb3ad,testing,2M,85,hTDdKEdl,0,0,True,879.0,looking at the first character
0,5b212164cfbf200001cfb3ad,testing,0M,86,MlthlGc,1,1,True,777.0,looking at the first character
0,5b212164cfbf200001cfb3ad,testing,1M,87,CmcOYArG,0,0,True,754.0,looking at the first character
0,5b212164cfbf200001cfb3ad,testing,0M,88,BRDhGJZm,1,0,False,736.0,looking at the first character
0,5b212164cfbf200001cfb3ad,testing,1M,89,LNUrJKMOc,0,0,True,731.0,looking at the first character
0,5b212164cfbf200001cfb3ad,testing,0M,90,NaAQdbTE,1,1,True,758.0,looking at the first character
0,5b212164cfbf200001cfb3ad,testing,2M,91,NkUAark,0,1,False,742.0,looking at the first character
0,5b212164cfbf200001cfb3ad,testing,1M,92,hTDdTDKh,0,0,True,624.0,looking at the first character
0,5b212164cfbf200001cfb3ad,testing,1M,93,ABPRBlMck,0,0,True,772.0,looking at the first character
0,5b212164cfbf200001cfb3ad,testing,0M,94,AZaJcGrub,1,0,False,723.0,looking at the first character
0,5b212164cfbf200001cfb3ad,testing,1M,95,DMRPlRE,0,1,False,791.0,looking at the first character
0,5b212164cfbf200001cfb3ad,testing,1M,96,lbBDETdTD,0,1,False,833.0,looking at the first character
0,5b212164cfbf200001cfb3ad,testing,2M,97,kabJbKEdl,1,0,False,856.0,looking at the first character
0,5b212164cfbf200001cfb3ad,testing,1M,98,UdumdAbka,0,0,True,883.0,looking at the first character
0,5b212164cfbf200001cfb3ad,testing,2M,99,EtMDMYArG,1,0,False,921.0,looking at the first character
0,5b212164cfbf200001cfb3ad,testing,1M,100,cROMtOJNk,0,1,False,867.0,looking at the first character
0,5b212164cfbf200001cfb3ad,testing,2M,101,hTDdark,1,1,True,802.0,looking at the first character
0,5b212164cfbf200001cfb3ad,testing,1M,102,UJmrYDE,0,0,True,708.0,looking at the first character
0,5b212164cfbf200001cfb3ad,testing,0M,103,rkJumZb,1,0,False,1059.0,looking at the first character
0,5b212164cfbf200001cfb3ad,testing,2M,104,EtMDMOtM,0,0,True,942.0,looking at the first character
0,5b212164cfbf200001cfb3ad,testing,1M,105,kabJbOMC,0,0,True,803.0,looking at the first character
0,5b212164cfbf200001cfb3ad,testing,1M,106,QcladTKDk,0,0,True,730.0,looking at the first character
0,5b212164cfbf200001cfb3ad,testing,2M,107,UdumdOJlN,0,1,False,714.0,looking at the first character
0,5b212164cfbf200001cfb3ad,testing,1M,108,ZcGdNtdDd,0,0,True,729.0,looking at the first character
0,5b212164cfbf200001cfb3ad,testing,0M,109,OmtlDYLU,1,1,True,780.0,looking at the first character
0,5b212164cfbf200001cfb3ad,testing,2M,110,QcladOJNk,0,0,True,712.0,looking at the first character
0,5b212164cfbf200001cfb3ad,testing,1M,111,YJLcAalJY,0,0,True,636.0,looking at the first character
0,5b212164cfbf200001cfb3ad,testing,0M,112,cMRluZc,1,1,True,674.0,looking at the first character
0,5b212164cfbf200001cfb3ad,testing,0M,113,lAOKMJauQ,1,0,False,678.0,looking at the first character
0,5b212164cfbf200001cfb3ad,testing,2M,114,kPkRAOJNk,1,1,True,662.0,looking at the first character
0,5b212164cfbf200001cfb3ad,testing,2M,115,auYAkQGb,0,0,True,632.0,looking at the first character
0,5b212164cfbf200001cfb3ad,testing,1M,116,EtMDMMAB,0,0,True,743.0,looking at the first character
0,5b212164cfbf200001cfb3ad,testing,2M,117,htmhCYDE,0,1,False,818.0,looking at the first character
0,5b212164cfbf200001cfb3ad,testing,1M,118,EMYKKEdl,0,0,True,839.0,looking at the first character
0,5b212164cfbf200001cfb3ad,testing,2M,119,QcladYBO,1,1,True,819.0,looking at the first character
0,5b212164cfbf200001cfb3ad,testing,2M,120,htmhCQGb,1,0,False,711.0,looking at the first character
0,5b213220809d160001a2c36d,testing,0M,1,hYDmtmkc,1,0,False,2506.0,None
0,5b213220809d160001a2c36d,testing,0M,2,kMECtRb,1,1,True,952.0,None
0,5b213220809d160001a2c36d,testing,1M,3,dKDthLUOk,0,1,False,893.0,None
0,5b213220809d160001a2c36d,testing,0M,4,ACcOArQu,1,0,False,846.0,None
0,5b213220809d160001a2c36d,testing,1M,5,LGkAkKRC,0,0,True,1081.0,None
0,5b213220809d160001a2c36d,testing,0M,6,ZdNmUBbM,1,0,False,918.0,None
0,5b213220809d160001a2c36d,testing,2M,7,AJLrRCdc,1,1,True,963.0,None
0,5b213220809d160001a2c36d,testing,0M,8,uAkrvJQ,1,1,True,895.0,None
0,5b213220809d160001a2c36d,testing,2M,9,PcBTRCdc,0,0,True,924.0,None
0,5b213220809d160001a2c36d,testing,1M,10,KAERMDBkl,0,0,True,1023.0,None
0,5b213220809d160001a2c36d,testing,2M,11,QcladYDE,1,0,False,888.0,None
0,5b213220809d160001a2c36d,testing,0M,12,UJmrcAZu,1,1,True,1010.0,None
0,5b213220809d160001a2c36d,testing,2M,13,KAERMRCdc,0,1,False,1149.0,None
0,5b213220809d160001a2c36d,testing,1M,14,mkmJNJUNa,0,1,False,949.0,None
0,5b213220809d160001a2c36d,testing,2M,15,bROCLUOk,1,1,True,973.0,None
0,5b213220809d160001a2c36d,testing,2M,16,tRdMkam,1,1,True,949.0,None
0,5b213220809d160001a2c36d,testing,1M,17,udkmDCmh,0,1,False,993.0,None
0,5b213220809d160001a2c36d,testing,2M,18,AYkEhLUOk,1,0,False,990.0,None
0,5b213220809d160001a2c36d,testing,2M,19,ZvalvYDE,1,0,False,911.0,None
0,5b213220809d160001a2c36d,testing,1M,20,AJLrMTdY,0,0,True,918.0,None
0,5b213220809d160001a2c36d,testing,1M,21,YObAOPE,0,0,True,1004.0,None
0,5b213220809d160001a2c36d,testing,0M,22,dCKcDKP,1,1,True,948.0,None
0,5b213220809d160001a2c36d,testing,2M,23,EhRmYBO,0,0,True,1040.0,None
0,5b213220809d160001a2c36d,testing,1M,24,mhtcPTl,0,1,False,930.0,None
0,5b213220809d160001a2c36d,testing,2M,25,PcBTJUNa,1,0,False,928.0,None
0,5b213220809d160001a2c36d,testing,0M,26,bdtKJQA,1,1,True,1021.0,None
0,5b213220809d160001a2c36d,testing,2M,27,rkJuGUOA,0,1,False,980.0,None
0,5b213220809d160001a2c36d,testing,2M,28,OAmGrLUOk,0,0,True,1217.0,None
0,5b213220809d160001a2c36d,testing,1M,29,alJYQGb,0,0,True,958.0,None
0,5b213220809d160001a2c36d,testing,1M,30,hbmAkbu,0,0,True,882.0,None
0,5b213220809d160001a2c36d,testing,0M,31,CkBOPlZcu,1,1,True,1103.0,None
0,5b213220809d160001a2c36d,testing,2M,32,ZvalvZckv,0,0,True,881.0,None
0,5b213220809d160001a2c36d,testing,0M,33,badkmARM,1,0,False,948.0,None
0,5b213220809d160001a2c36d,testing,0M,34,YUNkZkdrO,1,1,True,917.0,None
0,5b213220809d160001a2c36d,testing,1M,35,YlCPBYDE,0,0,True,954.0,None
0,5b213220809d160001a2c36d,testing,1M,36,UvOGPTl,0,0,True,1112.0,None
0,5b213220809d160001a2c36d,testing,2M,37,GZJYkPM,1,0,False,878.0,None
0,5b213220809d160001a2c36d,testing,2M,38,QcladZckv,0,0,True,971.0,None
0,5b213220809d160001a2c36d,testing,2M,39,OmtlDPTl,0,0,True,975.0,None
0,5b213220809d160001a2c36d,testing,1M,40,vJabcbm,0,1,False,927.0,None
0,5b213220809d160001a2c36d,testing,0M,41,kcCRtuZc,1,1,True,904.0,None
0,5b213220809d160001a2c36d,testing,2M,42,LGkAPTl,1,1,True,954.0,None
0,5b213220809d160001a2c36d,testing,0M,43,dYAJJcL,1,1,True,988.0,None
0,5b213220809d160001a2c36d,testing,2M,44,udkmRCdc,1,1,True,993.0,None
0,5b213220809d160001a2c36d,testing,2M,45,rkJuPTl,1,1,True,960.0,None
0,5b213220809d160001a2c36d,testing,1M,46,CmcOYht,0,0,True,910.0,None
0,5b213220809d160001a2c36d,testing,2M,47,vJabYBO,1,0,False,927.0,None
0,5b213220809d160001a2c36d,testing,0M,48,cYUvYaOk,1,1,True,903.0,None
0,5b213220809d160001a2c36d,testing,2M,49,OAmGrkPM,1,1,True,887.0,None
0,5b213220809d160001a2c36d,testing,0M,50,DhMtCYPc,1,1,True,1040.0,None
0,5b213220809d160001a2c36d,testing,0M,51,uOAOPlEK,1,1,True,898.0,None
0,5b213220809d160001a2c36d,testing,0M,52,bYGOZbGuO,1,1,True,960.0,None
0,5b213220809d160001a2c36d,testing,0M,53,NulkOtlR,1,1,True,917.0,None
0,5b213220809d160001a2c36d,testing,0M,54,mUOcOMDKP,1,1,True,956.0,None
0,5b213220809d160001a2c36d,testing,2M,55,bROCkPM,0,0,True,1069.0,None
0,5b213220809d160001a2c36d,testing,1M,56,CPMlJUNa,0,1,False,975.0,None
0,5b213220809d160001a2c36d,testing,1M,57,mBbKRCdc,0,1,False,913.0,None
0,5b213220809d160001a2c36d,testing,0M,58,aLNlkmkc,1,1,True,912.0,None
0,5b213220809d160001a2c36d,testing,2M,59,vJabkam,0,0,True,1061.0,None
0,5b213220809d160001a2c36d,testing,2M,60,AJLrJUNa,0,0,True,1038.0,None
0,5b213220809d160001a2c36d,testing,0M,61,lrZGtcB,1,1,True,1005.0,None
0,5b213220809d160001a2c36d,testing,0M,62,BRDhYUYa,1,1,True,978.0,None
0,5b213220809d160001a2c36d,testing,1M,63,LuaUYBO,0,0,True,1091.0,None
0,5b213220809d160001a2c36d,testing,1M,64,OmtlDtAY,0,0,True,997.0,None
0,5b213220809d160001a2c36d,testing,2M,65,YObAPTl,0,0,True,1005.0,None
0,5b213220809d160001a2c36d,testing,1M,66,LQurkam,0,1,False,900.0,None
0,5b213220809d160001a2c36d,testing,0M,67,dYdALcO,1,0,False,1020.0,None
0,5b213220809d160001a2c36d,testing,0M,68,chEDOLYGA,1,1,True,908.0,None
0,5b213220809d160001a2c36d,testing,2M,69,AYkEhkPM,0,0,True,991.0,None
0,5b213220809d160001a2c36d,testing,2M,70,GZJYLUOk,0,1,False,848.0,None
0,5b213220809d160001a2c36d,testing,1M,71,QcladEhbt,0,1,False,977.0,None
0,5b213220809d160001a2c36d,testing,0M,72,kdaAJrGl,1,0,False,957.0,None
0,5b213220809d160001a2c36d,testing,0M,73,amJmYNu,1,1,True,897.0,None
0,5b213220809d160001a2c36d,testing,2M,74,hbmAYDE,0,1,False,966.0,None
0,5b213220809d160001a2c36d,testing,0M,75,McMDUZu,1,1,True,931.0,None
0,5b213220809d160001a2c36d,testing,0M,76,NkUArULv,1,0,False,875.0,None
0,5b213220809d160001a2c36d,testing,1M,77,vUdmkPM,0,0,True,1108.0,None
0,5b213220809d160001a2c36d,testing,2M,78,hbmAZckv,1,0,False,1120.0,None
0,5b213220809d160001a2c36d,testing,2M,79,udkmJUNa,0,1,False,1160.0,None
0,5b213220809d160001a2c36d,testing,1M,80,rkJuKDPA,0,1,False,1080.0,None
0,5b213220809d160001a2c36d,testing,1M,81,rNlZYBO,0,1,False,1015.0,None
0,5b213220809d160001a2c36d,testing,1M,82,kCRmGUOA,0,0,True,1227.0,None
0,5b213220809d160001a2c36d,testing,0M,83,kDRKcZAUu,1,1,True,1207.0,None
0,5b213220809d160001a2c36d,testing,0M,84,lkAkYadr,1,1,True,1136.0,None
0,5b213220809d160001a2c36d,testing,1M,85,EhRmPED,0,0,True,1126.0,None
0,5b213220809d160001a2c36d,testing,1M,86,bROCmZb,0,1,False,930.0,None
0,5b213220809d160001a2c36d,testing,1M,87,hbkdRCdc,0,1,False,1092.0,None
0,5b213220809d160001a2c36d,testing,2M,88,CmcOZckv,1,0,False,891.0,None
0,5b213220809d160001a2c36d,testing,2M,89,LGkAGUOA,0,0,True,1007.0,None
0,5b213220809d160001a2c36d,testing,2M,90,alJYYBO,1,0,False,1078.0,None
0,5b213220809d160001a2c36d,testing,1M,91,EPMDkGUOA,0,0,True,1122.0,None
0,5b213220809d160001a2c36d,testing,1M,92,aONdkam,0,1,False,1005.0,None
0,5b213220809d160001a2c36d,testing,1M,93,rkYLZckv,0,1,False,1081.0,None
0,5b213220809d160001a2c36d,testing,2M,94,CmcOYDE,0,1,False,1021.0,None
0,5b213220809d160001a2c36d,testing,1M,95,OAmGrKlkD,0,0,True,1235.0,None
0,5b213220809d160001a2c36d,testing,2M,96,EhRmkam,1,0,False,994.0,None
0,5b213220809d160001a2c36d,testing,1M,97,cRElDYDE,0,1,False,880.0,None
0,5b213220809d160001a2c36d,testing,0M,98,mdlakGua,1,1,True,886.0,None
0,5b213220809d160001a2c36d,testing,0M,99,rcmuvhCkt,1,1,True,1113.0,None
0,5b213220809d160001a2c36d,testing,1M,100,tRdMcUN,0,1,False,1036.0,None
0,5b213220809d160001a2c36d,testing,1M,101,AYkEhmhc,0,0,True,1057.0,None
0,5b213220809d160001a2c36d,testing,2M,102,OmtlDGUOA,1,0,False,1120.0,None
0,5b213220809d160001a2c36d,testing,0M,103,dTAhmAM,1,1,True,964.0,None
0,5b213220809d160001a2c36d,testing,0M,104,TEBKAdYl,1,1,True,1015.0,None
0,5b213220809d160001a2c36d,testing,1M,105,NvuGrkPM,0,1,False,1005.0,None
0,5b213220809d160001a2c36d,testing,2M,106,YObAGUOA,1,0,False,1121.0,None
0,5b213220809d160001a2c36d,testing,1M,107,PcBTRtRh,0,1,False,1075.0,None
0,5b213220809d160001a2c36d,testing,0M,108,AbkaDKP,1,1,True,1120.0,None
0,5b213220809d160001a2c36d,testing,2M,109,tRdMYBO,0,1,False,987.0,None
0,5b213220809d160001a2c36d,testing,0M,110,ktBdJcUk,1,0,False,1044.0,None
0,5b213220809d160001a2c36d,testing,1M,111,bcbMZckv,0,1,False,1070.0,None
0,5b213220809d160001a2c36d,testing,1M,112,GZJYGJZm,0,1,False,988.0,None
0,5b213220809d160001a2c36d,testing,0M,113,crdYYkZ,1,1,True,1026.0,None
0,5b213220809d160001a2c36d,testing,0M,114,JrGvRDM,1,1,True,1005.0,None
0,5b213220809d160001a2c36d,testing,2M,115,alJYkam,0,0,True,1283.0,None
0,5b213220809d160001a2c36d,testing,1M,116,dEPDLUOk,0,1,False,1057.0,None
0,5b213220809d160001a2c36d,testing,0M,117,AlTdbLd,1,1,True,1085.0,None
0,5b213220809d160001a2c36d,testing,2M,118,KAERMJUNa,1,1,True,1073.0,None
0,5b213220809d160001a2c36d,testing,0M,119,uUmbLcO,1,1,True,1099.0,None
0,5b213220809d160001a2c36d,testing,1M,120,ZvalvGabk,0,1,False,1010.0,None
0,5b715800b31d480001eda165,testing,2M,1,EPERdYDE,0,0,True,2123.0,"Tried to recall similar sequences, but it was very hard"
0,5b715800b31d480001eda165,testing,0M,2,bYGOZlvk,1,1,True,843.0,"Tried to recall similar sequences, but it was very hard"
0,5b715800b31d480001eda165,testing,0M,3,chEDOrLkm,1,0,False,998.0,"Tried to recall similar sequences, but it was very hard"
0,5b715800b31d480001eda165,testing,0M,4,AJLrRKYk,1,0,False,880.0,"Tried to recall similar sequences, but it was very hard"
0,5b715800b31d480001eda165,testing,1M,5,EPERdJcL,0,0,True,1038.0,"Tried to recall similar sequences, but it was very hard"
0,5b715800b31d480001eda165,testing,0M,6,rcmuvGQrc,1,1,True,928.0,"Tried to recall similar sequences, but it was very hard"
0,5b715800b31d480001eda165,testing,1M,7,OAmAdBPAl,0,0,True,854.0,"Tried to recall similar sequences, but it was very hard"
0,5b715800b31d480001eda165,testing,1M,8,AlUYYDE,0,0,True,832.0,"Tried to recall similar sequences, but it was very hard"
0,5b715800b31d480001eda165,testing,0M,9,RdPtDGUa,1,0,False,889.0,"Tried to recall similar sequences, but it was very hard"
0,5b715800b31d480001eda165,testing,2M,10,YmBdJQA,1,1,True,1035.0,"Tried to recall similar sequences, but it was very hard"
0,5b715800b31d480001eda165,testing,2M,11,OEPkDbMR,0,0,True,906.0,"Tried to recall similar sequences, but it was very hard"
0,5b715800b31d480001eda165,testing,2M,12,EPERdmkc,1,0,False,879.0,"Tried to recall similar sequences, but it was very hard"
0,5b715800b31d480001eda165,testing,2M,13,LvuOGZAUu,0,0,True,948.0,"Tried to recall similar sequences, but it was very hard"
0,5b715800b31d480001eda165,testing,0M,14,mARMbTE,1,0,False,837.0,"Tried to recall similar sequences, but it was very hard"
0,5b715800b31d480001eda165,testing,1M,15,YTOMmLJ,0,0,True,974.0,"Tried to recall similar sequences, but it was very hard"
0,5b715800b31d480001eda165,testing,1M,16,ukYZJQA,0,1,False,956.0,"Tried to recall similar sequences, but it was very hard"
0,5b715800b31d480001eda165,testing,0M,17,RtRhNmAG,1,1,True,1224.0,"Tried to recall similar sequences, but it was very hard"
0,5b715800b31d480001eda165,testing,0M,18,AJLrLcO,1,1,True,1313.0,"Tried to recall similar sequences, but it was very hard"
0,5b715800b31d480001eda165,testing,2M,19,mdlacUN,0,0,True,959.0,"Tried to recall similar sequences, but it was very hard"
0,5b715800b31d480001eda165,testing,0M,20,CmYAvcb,1,0,False,1005.0,"Tried to recall similar sequences, but it was very hard"
0,5b715800b31d480001eda165,testing,2M,21,hlbtbcUN,1,0,False,1209.0,"Tried to recall similar sequences, but it was very hard"
0,5b715800b31d480001eda165,testing,2M,22,kGamNJQA,0,0,True,881.0,"Tried to recall similar sequences, but it was very hard"
0,5b715800b31d480001eda165,testing,1M,23,AbkaYmb,0,0,True,1008.0,"Tried to recall similar sequences, but it was very hard"
0,5b715800b31d480001eda165,testing,2M,24,OAmAdZAUu,1,0,False,1004.0,"Tried to recall similar sequences, but it was very hard"
0,5b715800b31d480001eda165,testing,0M,25,LuaUJUG,1,0,False,821.0,"Tried to recall similar sequences, but it was very hard"
0,5b715800b31d480001eda165,testing,2M,26,tcYbdTAm,0,0,True,1004.0,"Tried to recall similar sequences, but it was very hard"
0,5b715800b31d480001eda165,testing,1M,27,OkGYlLG,0,0,True,995.0,"Tried to recall similar sequences, but it was very hard"
0,5b715800b31d480001eda165,testing,1M,28,KABAMlth,0,1,False,946.0,"Tried to recall similar sequences, but it was very hard"
0,5b715800b31d480001eda165,testing,0M,29,JZOAkBbM,1,0,False,1032.0,"Tried to recall similar sequences, but it was very hard"
0,5b715800b31d480001eda165,testing,0M,30,CDEmYvcb,1,1,True,850.0,"Tried to recall similar sequences, but it was very hard"
0,5b715800b31d480001eda165,testing,1M,31,COtBDYKPB,0,1,False,769.0,"Tried to recall similar sequences, but it was very hard"
0,5b715800b31d480001eda165,testing,2M,32,mdlaTRkY,1,0,False,954.0,"Tried to recall similar sequences, but it was very hard"
0,5b715800b31d480001eda165,testing,2M,33,AbkaYDE,1,0,False,859.0,"Tried to recall similar sequences, but it was very hard"
0,5b715800b31d480001eda165,testing,2M,34,OAmAdYKPB,0,0,True,942.0,"Tried to recall similar sequences, but it was very hard"
0,5b715800b31d480001eda165,testing,1M,35,AvdkDbMR,0,0,True,1372.0,"Tried to recall similar sequences, but it was very hard"
0,5b715800b31d480001eda165,testing,2M,36,uQkrdZAUu,0,1,False,1076.0,"Tried to recall similar sequences, but it was very hard"
0,5b715800b31d480001eda165,testing,0M,37,ubALmamJm,1,0,False,918.0,"Tried to recall similar sequences, but it was very hard"
0,5b715800b31d480001eda165,testing,0M,38,LcNUJMDKP,1,0,False,1035.0,"Tried to recall similar sequences, but it was very hard"
0,5b715800b31d480001eda165,testing,1M,39,JmNkcUN,0,0,True,829.0,"Tried to recall similar sequences, but it was very hard"
0,5b715800b31d480001eda165,testing,2M,40,ABPRBDbMR,0,0,True,881.0,"Tried to recall similar sequences, but it was very hard"
0,5b715800b31d480001eda165,testing,2M,41,tcYbdJQA,1,0,False,995.0,"Tried to recall similar sequences, but it was very hard"
0,5b715800b31d480001eda165,testing,0M,42,CDEmYDMRP,1,1,True,1016.0,"Tried to recall similar sequences, but it was very hard"
0,5b715800b31d480001eda165,testing,1M,43,LvuOGOcYM,0,0,True,977.0,"Tried to recall similar sequences, but it was very hard"
0,5b715800b31d480001eda165,testing,2M,44,Abkamkc,0,0,True,1014.0,"Tried to recall similar sequences, but it was very hard"
0,5b715800b31d480001eda165,testing,1M,45,PMPtkTRkY,0,0,True,1062.0,"Tried to recall similar sequences, but it was very hard"
0,5b715800b31d480001eda165,testing,1M,46,AYkEhTAm,0,0,True,1335.0,"Tried to recall similar sequences, but it was very hard"
0,5b715800b31d480001eda165,testing,1M,47,OdlNmZAUu,0,0,True,1363.0,"Tried to recall similar sequences, but it was very hard"
0,5b715800b31d480001eda165,testing,1M,48,dOYmlmkc,0,0,True,1212.0,"Tried to recall similar sequences, but it was very hard"
0,5b715800b31d480001eda165,testing,2M,49,kLvdNJQA,0,0,True,874.0,"Tried to recall similar sequences, but it was very hard"
0,5b715800b31d480001eda165,testing,2M,50,kcdOtYKPB,0,0,True,981.0,"Tried to recall similar sequences, but it was very hard"
0,5b715800b31d480001eda165,testing,0M,51,DOAKdBC,1,1,True,944.0,"Tried to recall similar sequences, but it was very hard"
0,5b715800b31d480001eda165,testing,0M,52,hCktukcY,1,1,True,1102.0,"Tried to recall similar sequences, but it was very hard"
0,5b715800b31d480001eda165,testing,1M,53,lBlEmAM,0,0,True,1106.0,"Tried to recall similar sequences, but it was very hard"
0,5b715800b31d480001eda165,testing,0M,54,tDPRkkKE,1,1,True,1569.0,"Tried to recall similar sequences, but it was very hard"
0,5b715800b31d480001eda165,testing,0M,55,kdEdYTRK,1,0,False,956.0,"Tried to recall similar sequences, but it was very hard"
0,5b715800b31d480001eda165,testing,0M,56,OtlRlmbY,1,0,False,1456.0,"Tried to recall similar sequences, but it was very hard"
0,5b715800b31d480001eda165,testing,1M,57,JuamlTAm,0,1,False,656.0,"Tried to recall similar sequences, but it was very hard"
0,5b715800b31d480001eda165,testing,2M,58,KABAcUN,1,0,False,894.0,"Tried to recall similar sequences, but it was very hard"
0,5b715800b31d480001eda165,testing,2M,59,vmuLlmkc,0,0,True,1569.0,"Tried to recall similar sequences, but it was very hard"
0,5b715800b31d480001eda165,testing,0M,60,kMbTRQGb,1,1,True,736.0,"Tried to recall similar sequences, but it was very hard"
0,5b715800b31d480001eda165,testing,0M,61,DCmhTmc,1,1,True,945.0,"Tried to recall similar sequences, but it was very hard"
0,5b715800b31d480001eda165,testing,1M,62,lZcubLd,0,0,True,1227.0,"Tried to recall similar sequences, but it was very hard"
0,5b715800b31d480001eda165,testing,0M,63,mARMTRK,1,1,True,1111.0,"Tried to recall similar sequences, but it was very hard"
0,5b715800b31d480001eda165,testing,2M,64,YmBdTAm,0,0,True,1143.0,"Tried to recall similar sequences, but it was very hard"
0,5b715800b31d480001eda165,testing,2M,65,lZcuDbMR,1,1,True,871.0,"Tried to recall similar sequences, but it was very hard"
0,5b715800b31d480001eda165,testing,1M,66,dKDthcUN,0,1,False,987.0,"Tried to recall similar sequences, but it was very hard"
0,5b715800b31d480001eda165,testing,0M,67,ktBdAld,1,0,False,982.0,"Tried to recall similar sequences, but it was very hard"
0,5b715800b31d480001eda165,testing,0M,68,QLrOJJZr,1,1,True,1169.0,"Tried to recall similar sequences, but it was very hard"
0,5b715800b31d480001eda165,testing,2M,69,OEPkmLJ,1,0,False,1082.0,"Tried to recall similar sequences, but it was very hard"
0,5b715800b31d480001eda165,testing,0M,70,ckduAPED,1,1,True,1171.0,"Tried to recall similar sequences, but it was very hard"
0,5b715800b31d480001eda165,testing,0M,71,cDOEBuOAO,1,0,False,934.0,"Tried to recall similar sequences, but it was very hard"
0,5b715800b31d480001eda165,testing,0M,72,OYuvblGc,1,0,False,837.0,"Tried to recall similar sequences, but it was very hard"
0,5b715800b31d480001eda165,testing,0M,73,PDPhlDdck,1,0,False,1056.0,"Tried to recall similar sequences, but it was very hard"
0,5b715800b31d480001eda165,testing,2M,74,lBlEmkc,1,0,False,984.0,"Tried to recall similar sequences, but it was very hard"
0,5b715800b31d480001eda165,testing,2M,75,vmuLlYDE,1,1,True,919.0,"Tried to recall similar sequences, but it was very hard"
0,5b715800b31d480001eda165,testing,2M,76,kGamNTAm,1,0,False,926.0,"Tried to recall similar sequences, but it was very hard"
0,5b715800b31d480001eda165,testing,1M,77,lRckAJQA,0,0,True,1038.0,"Tried to recall similar sequences, but it was very hard"
0,5b715800b31d480001eda165,testing,2M,78,kcdOtZAUu,1,1,True,1231.0,"Tried to recall similar sequences, but it was very hard"
0,5b715800b31d480001eda165,testing,2M,79,OkGYmLJ,0,0,True,897.0,"Tried to recall similar sequences, but it was very hard"
0,5b715800b31d480001eda165,testing,0M,80,aNYmbOPE,1,1,True,689.0,"Tried to recall similar sequences, but it was very hard"
0,5b715800b31d480001eda165,testing,0M,81,CmYAOCmk,1,1,True,1222.0,"Tried to recall similar sequences, but it was very hard"
0,5b715800b31d480001eda165,testing,1M,82,mdlaOYK,0,0,True,1020.0,"Tried to recall similar sequences, but it was very hard"
0,5b715800b31d480001eda165,testing,1M,83,BlmclYKPB,0,1,False,924.0,"Tried to recall similar sequences, but it was very hard"
0,5b715800b31d480001eda165,testing,1M,84,hlbtbLYGA,0,0,True,1371.0,"Tried to recall similar sequences, but it was very hard"
0,5b715800b31d480001eda165,testing,1M,85,OEPkKdAR,0,0,True,1030.0,"Tried to recall similar sequences, but it was very hard"
0,5b715800b31d480001eda165,testing,1M,86,uQkrdOdOP,0,1,False,1713.0,"Tried to recall similar sequences, but it was very hard"
0,5b715800b31d480001eda165,testing,0M,87,OLJbltRPD,1,0,False,1060.0,"Tried to recall similar sequences, but it was very hard"
0,5b715800b31d480001eda165,testing,2M,88,kbmZOcUN,0,0,True,1045.0,"Tried to recall similar sequences, but it was very hard"
0,5b715800b31d480001eda165,testing,1M,89,lhCTCmLJ,0,1,False,1003.0,"Tried to recall similar sequences, but it was very hard"
0,5b715800b31d480001eda165,testing,1M,90,muYNDbMR,0,0,True,922.0,"Tried to recall similar sequences, but it was very hard"
0,5b715800b31d480001eda165,testing,0M,91,hRKmATc,1,0,False,1107.0,"Tried to recall similar sequences, but it was very hard"
0,5b715800b31d480001eda165,testing,0M,92,CtmbhBK,1,1,True,942.0,"Tried to recall similar sequences, but it was very hard"
0,5b715800b31d480001eda165,testing,0M,93,ZcGdNNac,1,0,False,905.0,"Tried to recall similar sequences, but it was very hard"
0,5b715800b31d480001eda165,testing,0M,94,kDRKcGUOA,1,0,False,1421.0,"Tried to recall similar sequences, but it was very hard"
0,5b715800b31d480001eda165,testing,2M,95,uQkrdYKPB,1,1,True,952.0,"Tried to recall similar sequences, but it was very hard"
0,5b715800b31d480001eda165,testing,1M,96,DlDTmkc,0,0,True,1220.0,"Tried to recall similar sequences, but it was very hard"
0,5b715800b31d480001eda165,testing,1M,97,kGamNAkd,0,0,True,1054.0,"Tried to recall similar sequences, but it was very hard"
0,5b715800b31d480001eda165,testing,1M,98,kcdOtbAMO,0,0,True,682.0,"Tried to recall similar sequences, but it was very hard"
0,5b715800b31d480001eda165,testing,1M,99,kLvdNQru,0,1,False,1151.0,"Tried to recall similar sequences, but it was very hard"
0,5b715800b31d480001eda165,testing,2M,100,OkGYDbMR,1,0,False,2260.0,"Tried to recall similar sequences, but it was very hard"
0,5b715800b31d480001eda165,testing,1M,101,rGUAYZAUu,0,1,False,575.0,"Tried to recall similar sequences, but it was very hard"
0,5b715800b31d480001eda165,testing,2M,102,kbmZOTRkY,1,0,False,950.0,"Tried to recall similar sequences, but it was very hard"
0,5b715800b31d480001eda165,testing,2M,103,kLvdNTAm,1,0,False,1390.0,"Tried to recall similar sequences, but it was very hard"
0,5b715800b31d480001eda165,testing,2M,104,KABATRkY,0,0,True,951.0,"Tried to recall similar sequences, but it was very hard"
0,5b715800b31d480001eda165,testing,2M,105,lZcumLJ,0,0,True,1161.0,"Tried to recall similar sequences, but it was very hard"
0,5b715800b31d480001eda165,testing,2M,106,lBlEYDE,0,1,False,778.0,"Tried to recall similar sequences, but it was very hard"
0,5b715800b31d480001eda165,testing,1M,107,PlEKTRkY,0,0,True,917.0,"Tried to recall similar sequences, but it was very hard"
0,5b715800b31d480001eda165,testing,0M,108,OYuvbkBD,1,0,False,1223.0,"Tried to recall similar sequences, but it was very hard"
0,5b715800b31d480001eda165,testing,1M,109,kbmZORDM,0,1,False,798.0,"Tried to recall similar sequences, but it was very hard"
0,5b715800b31d480001eda165,testing,2M,110,hlbtbTRkY,0,1,False,1205.0,"Tried to recall similar sequences, but it was very hard"
0,5b715800b31d480001eda165,testing,1M,111,YmBdcDR,0,0,True,895.0,"Tried to recall similar sequences, but it was very hard"
0,5b715800b31d480001eda165,testing,1M,112,YLQmGYDE,0,0,True,919.0,"Tried to recall similar sequences, but it was very hard"
0,5b715800b31d480001eda165,testing,1M,113,vmuLlYcM,0,0,True,889.0,"Tried to recall similar sequences, but it was very hard"
0,5b715800b31d480001eda165,testing,0M,114,DkTCPkGua,1,0,False,1178.0,"Tried to recall similar sequences, but it was very hard"
0,5b715800b31d480001eda165,testing,0M,115,dvNvATmTm,1,1,True,1293.0,"Tried to recall similar sequences, but it was very hard"
0,5b715800b31d480001eda165,testing,1M,116,tcYbdAPT,0,0,True,1093.0,"Tried to recall similar sequences, but it was very hard"
0,5b715800b31d480001eda165,testing,1M,117,ABPRBNulk,0,1,False,736.0,"Tried to recall similar sequences, but it was very hard"
0,5b715800b31d480001eda165,testing,0M,118,UdbdOcN,1,1,True,1016.0,"Tried to recall similar sequences, but it was very hard"
0,5b715800b31d480001eda165,testing,2M,119,ABPRBmLJ,1,0,False,721.0,"Tried to recall similar sequences, but it was very hard"
0,5b715800b31d480001eda165,testing,2M,120,LvuOGYKPB,1,1,True,773.0,"Tried to recall similar sequences, but it was very hard"
0,5bcd11401662020001fe82c1,testing,0M,1,rLkmOtM,1,0,False,2590.0,tried to remember as hard as i can
0,5bcd11401662020001fe82c1,testing,1M,2,OQarQkbu,0,1,False,1111.0,tried to remember as hard as i can
0,5bcd11401662020001fe82c1,testing,0M,3,lZcuaONd,1,0,False,1520.0,tried to remember as hard as i can
0,5bcd11401662020001fe82c1,testing,1M,4,COTKJcL,0,1,False,1063.0,tried to remember as hard as i can
0,5bcd11401662020001fe82c1,testing,0M,5,hlbtbkCRm,1,1,True,1384.0,tried to remember as hard as i can
0,5bcd11401662020001fe82c1,testing,0M,6,AbkakhMD,1,1,True,1161.0,tried to remember as hard as i can
0,5bcd11401662020001fe82c1,testing,2M,7,rLaZPMd,1,0,False,894.0,tried to remember as hard as i can
0,5bcd11401662020001fe82c1,testing,2M,8,KdARAPEM,0,0,True,1135.0,tried to remember as hard as i can
0,5bcd11401662020001fe82c1,testing,1M,9,GLYrAOPE,0,0,True,1079.0,tried to remember as hard as i can
0,5bcd11401662020001fe82c1,testing,2M,10,dmZvmJcL,0,1,False,1008.0,tried to remember as hard as i can
0,5bcd11401662020001fe82c1,testing,2M,11,GLYrABYhT,1,0,False,1248.0,tried to remember as hard as i can
0,5bcd11401662020001fe82c1,testing,1M,12,YlCPBYbN,0,1,False,992.0,tried to remember as hard as i can
0,5bcd11401662020001fe82c1,testing,1M,13,EltMBAPEM,0,0,True,1304.0,tried to remember as hard as i can
0,5bcd11401662020001fe82c1,testing,2M,14,UvOGOBT,1,0,False,928.0,tried to remember as hard as i can
0,5bcd11401662020001fe82c1,testing,2M,15,dClOCPMd,0,0,True,1192.0,tried to remember as hard as i can
0,5bcd11401662020001fe82c1,testing,1M,16,UYZlZEcR,0,1,False,1321.0,tried to remember as hard as i can
0,5bcd11401662020001fe82c1,testing,1M,17,dmZvmGlu,0,1,False,1118.0,tried to remember as hard as i can
0,5bcd11401662020001fe82c1,testing,0M,18,cuOJbLaA,1,1,True,1080.0,tried to remember as hard as i can
0,5bcd11401662020001fe82c1,testing,0M,19,tcYbdOEPk,1,1,True,1496.0,tried to remember as hard as i can
0,5bcd11401662020001fe82c1,testing,2M,20,TklDAPEM,0,0,True,1040.0,tried to remember as hard as i can
0,5bcd11401662020001fe82c1,testing,1M,21,UvOGTRkY,0,1,False,1288.0,tried to remember as hard as i can
0,5bcd11401662020001fe82c1,testing,1M,22,MDKPmtKP,0,0,True,1040.0,tried to remember as hard as i can
0,5bcd11401662020001fe82c1,testing,0M,23,rZYdUbG,1,0,False,1176.0,tried to remember as hard as i can
0,5bcd11401662020001fe82c1,testing,2M,24,KdARJcL,1,0,False,1160.0,tried to remember as hard as i can
0,5bcd11401662020001fe82c1,testing,2M,25,dClOCrkra,1,0,False,1793.0,tried to remember as hard as i can
0,5bcd11401662020001fe82c1,testing,0M,26,uOAOYNu,1,0,False,1063.0,tried to remember as hard as i can
0,5bcd11401662020001fe82c1,testing,0M,27,mKcDrAJu,1,0,False,944.0,tried to remember as hard as i can
0,5bcd11401662020001fe82c1,testing,0M,28,LQuruAkr,1,1,True,992.0,tried to remember as hard as i can
