"trial_type","trial_index","time_elapsed","internal_node_id","subject_id","study_id","session_id","rt","response","stimulus","success","item","task","correct_response","testing_condition","correct","target","confound","name"
"pavlovia","0","2543","0.0-0.0","5ee942381a22491bbb7170f8","650c16f0f2faf8d7a0d14c09","651c1db48a8e7e17c975e12a","","","","","","","","","","","",""
"survey-html-form","1","5176","0.0-1.0","5ee942381a22491bbb7170f8","650c16f0f2faf8d7a0d14c09","651c1db48a8e7e17c975e12a","2632","{""ID"":""5ee942381a22491bbb7170f8""}","","","","","","","","","",""
"html-keyboard-response","2","11333","0.0-2.0","5ee942381a22491bbb7170f8","650c16f0f2faf8d7a0d14c09","651c1db48a8e7e17c975e12a","6154"," ","<p style=""font-size: 15px;"">Before beginning, we ask that you read the consent information and confirm your agreement to participate in the experiment.</p>
      <p style=""font-size: 15px;""> We ask that you remember that this is a research project and that your participation is entirely voluntary. You can stop your participation at any time, without needing to provide any explanation. The study we're asking you to participate in aims at examining how readers process written words. You will be engaged in a session of apprximately 20 minutes, followed by a brief questionnaire. You will have the opportunity to take a few breaks during the experiment. You will be paid £4 for your participation, corresponding to a rate of £8/hour. While this experiment looks at cognitive faculties, this experiment doesn't constitute clinical proof of eventual pathologies.</p>
      <p style=""font-size: 15px;"">All of the information collected thanks to yours and others' participation will be held in a secure password-protected server, and will not be shared with anyone not authorised to view it. Your personal information will be kept with an arbitrary participant ID. Thanks to this data anonymity process, any researcher analysing the data won't be able to track the information back to a specific participant. Therefore, this process will make identifying you impossibile, even when results from the study will be published in scientific reviews, presented at congresses, or at any other public forum. More generally, the collected data will be treated in accordance with the laws on privacy and conformity to the Legislative Degree n. 196 ""Code regarding the protection of personal data"" of the 30th of June 2003 and to the European Regulation 2016/670 (General Data Protection Regulation - GDPR). The Data Protection Officer is Avv. Valentina Carollo, who can be contacted at the following email addresses: <a href=""mailto:dpo@sissa.it"">dpo@sissa.it</a> or <a href=""mailto:rpd@sissa.it"">rpd@sissa.it</a> - PEC: <a href=""mailto:protocollo@pec.sissa.it"">protocollo@pec.sissa.it</a>.</p>
      <p style=""font-size: 15px;""> Before expressing your consent to participate, we would like to remind you again that in case you need explanations on any aspect of the experimental procedure, the researcher is at your disposition (<a href=""mailto:aliebelt@sissa.it"">aliebelt@sissa.it</a>, <a href=""mailto:davide.crepaldi@sissa.it"">davide.crepaldi@sissa.it</a>).</p>
      <p style=""font-size: 15px;"">If you would like to download the informed consent form, you can do so here: <a href=""BASL-Informed_Consent.pdf"" download>informed consent form</a>.</p>
      <p style=""font-size: 15px;"">We ask that you press the spacebar to proceed to the consent section.</p>","","","","","","","","",""
"survey-html-form","3","25313","0.0-3.0","5ee942381a22491bbb7170f8","650c16f0f2faf8d7a0d14c09","651c1db48a8e7e17c975e12a","13979","{""consent1"":""YES"",""consent2"":""YES"",""consent3"":""YES"",""consent4"":""YES"",""consent5"":""YES"",""consent6"":""YES""}","","","","","","","","","",""
"fullscreen","4","29682","0.0-4.0","5ee942381a22491bbb7170f8","650c16f0f2faf8d7a0d14c09","651c1db48a8e7e17c975e12a","","","","true","","","","","","","",""
"html-keyboard-response","5","43634","0.0-5.0","5ee942381a22491bbb7170f8","650c16f0f2faf8d7a0d14c09","651c1db48a8e7e17c975e12a","13949"," ","<p>Welcome, and thank you very much for your time!</p>
      <p>In this experiment, you'll be a language expert who's been asked to take a look at words that Earth has received in its first communication with aliens. Your task, in this first part of the experiment, is to pay close attention to the words you'll be shown; later, world leaders will ask you questions on what you saw. The words will be shown to you quite quickly; it seems that the aliens were in a hurry :-)</p>
      <p>Press the spacebar to continue.<p>","","","","","","","","",""
"html-keyboard-response","6","43700","0.0-6.0","5ee942381a22491bbb7170f8","650c16f0f2faf8d7a0d14c09","651c1db48a8e7e17c975e12a","null","null","<p style=""font-size: 120px; font-family: BACS""> </p>","","","","","","","","",""
"html-keyboard-response","7","48802","0.0-7.0","5ee942381a22491bbb7170f8","650c16f0f2faf8d7a0d14c09","651c1db48a8e7e17c975e12a","5100"," ","<p>Here is an example of the words you'll see:</p>
      <img src='esempio.png' height='400px'>
      <p>When you're ready to begin, press the spacebar.</p></div>","","","","","","","","",""
"html-keyboard-response","8","49820","0.0-8.0-0.0","5ee942381a22491bbb7170f8","650c16f0f2faf8d7a0d14c09","651c1db48a8e7e17c975e12a","null","null","<p style=""font-size: 60px; font-family: BACS"">LAclAbadk</p>","","","","","","","","",""
"html-keyboard-response","9","50848","0.0-8.0-0.1","5ee942381a22491bbb7170f8","650c16f0f2faf8d7a0d14c09","651c1db48a8e7e17c975e12a","null","null","<p style=""font-size: 60px; font-family: BACS"">ALGZLcO</p>","","","","","","","","",""
"html-keyboard-response","10","51863","0.0-8.0-0.2","5ee942381a22491bbb7170f8","650c16f0f2faf8d7a0d14c09","651c1db48a8e7e17c975e12a","null","null","<p style=""font-size: 60px; font-family: BACS"">BPAlOBT</p>","","","","","","","","",""
"html-keyboard-response","11","52867","0.0-8.0-0.3","5ee942381a22491bbb7170f8","650c16f0f2faf8d7a0d14c09","651c1db48a8e7e17c975e12a","null","null","<p style=""font-size: 60px; font-family: BACS"">KTDTBABb</p>","","","","","","","","",""
"html-keyboard-response","12","53873","0.0-8.0-0.4","5ee942381a22491bbb7170f8","650c16f0f2faf8d7a0d14c09","651c1db48a8e7e17c975e12a","null","null","<p style=""font-size: 60px; font-family: BACS"">GJZmbadk</p>","","","","","","","","",""
"html-keyboard-response","13","54881","0.0-8.0-0.5","5ee942381a22491bbb7170f8","650c16f0f2faf8d7a0d14c09","651c1db48a8e7e17c975e12a","null","null","<p style=""font-size: 60px; font-family: BACS"">LAclANmAG</p>","","","","","","","","",""
"html-keyboard-response","14","55887","0.0-8.0-0.6","5ee942381a22491bbb7170f8","650c16f0f2faf8d7a0d14c09","651c1db48a8e7e17c975e12a","null","null","<p style=""font-size: 60px; font-family: BACS"">JuamlGrub</p>","","","","","","","","",""
"html-keyboard-response","15","56896","0.0-8.0-0.7","5ee942381a22491bbb7170f8","650c16f0f2faf8d7a0d14c09","651c1db48a8e7e17c975e12a","null","null","<p style=""font-size: 60px; font-family: BACS"">btlckABb</p>","","","","","","","","",""
"html-keyboard-response","16","57907","0.0-8.0-0.8","5ee942381a22491bbb7170f8","650c16f0f2faf8d7a0d14c09","651c1db48a8e7e17c975e12a","null","null","<p style=""font-size: 60px; font-family: BACS"">LGkArULv</p>","","","","","","","","",""
"html-keyboard-response","17","58933","0.0-8.0-0.9","5ee942381a22491bbb7170f8","650c16f0f2faf8d7a0d14c09","651c1db48a8e7e17c975e12a","null","null","<p style=""font-size: 60px; font-family: BACS"">hmKPMOtM</p>","","","","","","","","",""
"html-keyboard-response","18","59963","0.0-8.0-0.10","5ee942381a22491bbb7170f8","650c16f0f2faf8d7a0d14c09","651c1db48a8e7e17c975e12a","null","null","<p style=""font-size: 60px; font-family: BACS"">LAclAGrub</p>","","","","","","","","",""
"html-keyboard-response","19","60976","0.0-8.0-0.11","5ee942381a22491bbb7170f8","650c16f0f2faf8d7a0d14c09","651c1db48a8e7e17c975e12a","null","null","<p style=""font-size: 60px; font-family: BACS"">KTDTBhEct</p>","","","","","","","","",""
"html-keyboard-response","20","61981","0.0-8.0-0.12","5ee942381a22491bbb7170f8","650c16f0f2faf8d7a0d14c09","651c1db48a8e7e17c975e12a","null","null","<p style=""font-size: 60px; font-family: BACS"">ckduANmAG</p>","","","","","","","","",""
"html-keyboard-response","21","62996","0.0-8.0-0.13","5ee942381a22491bbb7170f8","650c16f0f2faf8d7a0d14c09","651c1db48a8e7e17c975e12a","null","null","<p style=""font-size: 60px; font-family: BACS"">LGkALcO</p>","","","","","","","","",""
"html-keyboard-response","22","63997","0.0-8.0-0.14","5ee942381a22491bbb7170f8","650c16f0f2faf8d7a0d14c09","651c1db48a8e7e17c975e12a","null","null","<p style=""font-size: 60px; font-family: BACS"">btlckhEct</p>","","","","","","","","",""
"html-keyboard-response","23","65007","0.0-8.0-0.15","5ee942381a22491bbb7170f8","650c16f0f2faf8d7a0d14c09","651c1db48a8e7e17c975e12a","null","null","<p style=""font-size: 60px; font-family: BACS"">ALOrlLcO</p>","","","","","","","","",""
"html-keyboard-response","24","66020","0.0-8.0-0.16","5ee942381a22491bbb7170f8","650c16f0f2faf8d7a0d14c09","651c1db48a8e7e17c975e12a","null","null","<p style=""font-size: 60px; font-family: BACS"">ZdlObadk</p>","","","","","","","","",""
"html-keyboard-response","25","67034","0.0-8.0-0.17","5ee942381a22491bbb7170f8","650c16f0f2faf8d7a0d14c09","651c1db48a8e7e17c975e12a","null","null","<p style=""font-size: 60px; font-family: BACS"">YcdOrULv</p>","","","","","","","","",""
"html-keyboard-response","26","68044","0.0-8.0-0.18","5ee942381a22491bbb7170f8","650c16f0f2faf8d7a0d14c09","651c1db48a8e7e17c975e12a","null","null","<p style=""font-size: 60px; font-family: BACS"">cBROBhEct</p>","","","","","","","","",""
"html-keyboard-response","27","69049","0.0-8.0-0.19","5ee942381a22491bbb7170f8","650c16f0f2faf8d7a0d14c09","651c1db48a8e7e17c975e12a","null","null","<p style=""font-size: 60px; font-family: BACS"">Juamlbadk</p>","","","","","","","","",""
"html-keyboard-response","28","70052","0.0-8.0-0.20","5ee942381a22491bbb7170f8","650c16f0f2faf8d7a0d14c09","651c1db48a8e7e17c975e12a","null","null","<p style=""font-size: 60px; font-family: BACS"">btlckPMYm</p>","","","","","","","","",""
"html-keyboard-response","29","71055","0.0-8.0-0.21","5ee942381a22491bbb7170f8","650c16f0f2faf8d7a0d14c09","651c1db48a8e7e17c975e12a","null","null","<p style=""font-size: 60px; font-family: BACS"">BPAlOtM</p>","","","","","","","","",""
"html-keyboard-response","30","72063","0.0-8.0-0.22","5ee942381a22491bbb7170f8","650c16f0f2faf8d7a0d14c09","651c1db48a8e7e17c975e12a","null","null","<p style=""font-size: 60px; font-family: BACS"">KTDTBPMYm</p>","","","","","","","","",""
"html-keyboard-response","31","73071","0.0-8.0-0.23","5ee942381a22491bbb7170f8","650c16f0f2faf8d7a0d14c09","651c1db48a8e7e17c975e12a","null","null","<p style=""font-size: 60px; font-family: BACS"">OmtlDOBT</p>","","","","","","","","",""
"html-keyboard-response","32","74086","0.0-8.0-0.24","5ee942381a22491bbb7170f8","650c16f0f2faf8d7a0d14c09","651c1db48a8e7e17c975e12a","null","null","<p style=""font-size: 60px; font-family: BACS"">ckduAbadk</p>","","","","","","","","",""
"html-keyboard-response","33","75098","0.0-8.0-0.25","5ee942381a22491bbb7170f8","650c16f0f2faf8d7a0d14c09","651c1db48a8e7e17c975e12a","null","null","<p style=""font-size: 60px; font-family: BACS"">JmNkLcO</p>","","","","","","","","",""
"html-keyboard-response","34","76111","0.0-8.0-0.26","5ee942381a22491bbb7170f8","650c16f0f2faf8d7a0d14c09","651c1db48a8e7e17c975e12a","null","null","<p style=""font-size: 60px; font-family: BACS"">BPAlPMYm</p>","","","","","","","","",""
"html-keyboard-response","35","77142","0.0-8.0-0.27","5ee942381a22491bbb7170f8","650c16f0f2faf8d7a0d14c09","651c1db48a8e7e17c975e12a","null","null","<p style=""font-size: 60px; font-family: BACS"">DdckOBT</p>","","","","","","","","",""
"html-keyboard-response","36","78149","0.0-8.0-0.28","5ee942381a22491bbb7170f8","650c16f0f2faf8d7a0d14c09","651c1db48a8e7e17c975e12a","null","null","<p style=""font-size: 60px; font-family: BACS"">BATOcOtM</p>","","","","","","","","",""
"html-keyboard-response","37","79157","0.0-8.0-0.29","5ee942381a22491bbb7170f8","650c16f0f2faf8d7a0d14c09","651c1db48a8e7e17c975e12a","null","null","<p style=""font-size: 60px; font-family: BACS"">ALOrlNmAG</p>","","","","","","","","",""
"html-keyboard-response","38","80161","0.0-8.0-0.30","5ee942381a22491bbb7170f8","650c16f0f2faf8d7a0d14c09","651c1db48a8e7e17c975e12a","null","null","<p style=""font-size: 60px; font-family: BACS"">EMYKOtM</p>","","","","","","","","",""
"html-keyboard-response","39","81186","0.0-8.0-0.31","5ee942381a22491bbb7170f8","650c16f0f2faf8d7a0d14c09","651c1db48a8e7e17c975e12a","null","null","<p style=""font-size: 60px; font-family: BACS"">hmKPMOBT</p>","","","","","","","","",""
"html-keyboard-response","40","82194","0.0-8.0-0.32","5ee942381a22491bbb7170f8","650c16f0f2faf8d7a0d14c09","651c1db48a8e7e17c975e12a","null","null","<p style=""font-size: 60px; font-family: BACS"">ZdlOGrub</p>","","","","","","","","",""
"html-keyboard-response","41","83199","0.0-8.0-0.33","5ee942381a22491bbb7170f8","650c16f0f2faf8d7a0d14c09","651c1db48a8e7e17c975e12a","null","null","<p style=""font-size: 60px; font-family: BACS"">JmNkrULv</p>","","","","","","","","",""
"html-keyboard-response","42","84208","0.0-8.0-0.34","5ee942381a22491bbb7170f8","650c16f0f2faf8d7a0d14c09","651c1db48a8e7e17c975e12a","null","null","<p style=""font-size: 60px; font-family: BACS"">cBROBABb</p>","","","","","","","","",""
"html-keyboard-response","43","85218","0.0-8.0-0.35","5ee942381a22491bbb7170f8","650c16f0f2faf8d7a0d14c09","651c1db48a8e7e17c975e12a","null","null","<p style=""font-size: 60px; font-family: BACS"">GJZmNmAG</p>","","","","","","","","",""
"html-keyboard-response","44","86233","0.0-8.0-0.36","5ee942381a22491bbb7170f8","650c16f0f2faf8d7a0d14c09","651c1db48a8e7e17c975e12a","null","null","<p style=""font-size: 60px; font-family: BACS"">DOchlhEct</p>","","","","","","","","",""
"html-keyboard-response","45","87248","0.0-8.0-0.37","5ee942381a22491bbb7170f8","650c16f0f2faf8d7a0d14c09","651c1db48a8e7e17c975e12a","null","null","<p style=""font-size: 60px; font-family: BACS"">btlckOBT</p>","","","","","","","","",""
"html-keyboard-response","46","88254","0.0-8.0-0.38","5ee942381a22491bbb7170f8","650c16f0f2faf8d7a0d14c09","651c1db48a8e7e17c975e12a","null","null","<p style=""font-size: 60px; font-family: BACS"">ZdlOLcO</p>","","","","","","","","",""
"html-keyboard-response","47","89267","0.0-8.0-0.39","5ee942381a22491bbb7170f8","650c16f0f2faf8d7a0d14c09","651c1db48a8e7e17c975e12a","null","null","<p style=""font-size: 60px; font-family: BACS"">EMYKPMYm</p>","","","","","","","","",""
"html-keyboard-response","48","90290","0.0-8.0-0.40","5ee942381a22491bbb7170f8","650c16f0f2faf8d7a0d14c09","651c1db48a8e7e17c975e12a","null","null","<p style=""font-size: 60px; font-family: BACS"">cBROBOtM</p>","","","","","","","","",""
"html-keyboard-response","49","91314","0.0-8.0-0.41","5ee942381a22491bbb7170f8","650c16f0f2faf8d7a0d14c09","651c1db48a8e7e17c975e12a","null","null","<p style=""font-size: 60px; font-family: BACS"">BPAlhEct</p>","","","","","","","","",""
"html-keyboard-response","50","92322","0.0-8.0-0.42","5ee942381a22491bbb7170f8","650c16f0f2faf8d7a0d14c09","651c1db48a8e7e17c975e12a","null","null","<p style=""font-size: 60px; font-family: BACS"">KTDTBOBT</p>","","","","","","","","",""
"html-keyboard-response","51","93334","0.0-8.0-0.43","5ee942381a22491bbb7170f8","650c16f0f2faf8d7a0d14c09","651c1db48a8e7e17c975e12a","null","null","<p style=""font-size: 60px; font-family: BACS"">GJZmrULv</p>","","","","","","","","",""
"html-keyboard-response","52","94340","0.0-8.0-0.44","5ee942381a22491bbb7170f8","650c16f0f2faf8d7a0d14c09","651c1db48a8e7e17c975e12a","null","null","<p style=""font-size: 60px; font-family: BACS"">DdckOtM</p>","","","","","","","","",""
"html-keyboard-response","53","95346","0.0-8.0-0.45","5ee942381a22491bbb7170f8","650c16f0f2faf8d7a0d14c09","651c1db48a8e7e17c975e12a","null","null","<p style=""font-size: 60px; font-family: BACS"">LAclALcO</p>","","","","","","","","",""
"html-keyboard-response","54","96357","0.0-8.0-0.46","5ee942381a22491bbb7170f8","650c16f0f2faf8d7a0d14c09","651c1db48a8e7e17c975e12a","null","null","<p style=""font-size: 60px; font-family: BACS"">ZdlOrULv</p>","","","","","","","","",""
"html-keyboard-response","55","97367","0.0-8.0-0.47","5ee942381a22491bbb7170f8","650c16f0f2faf8d7a0d14c09","651c1db48a8e7e17c975e12a","null","null","<p style=""font-size: 60px; font-family: BACS"">LGkAGrub</p>","","","","","","","","",""
"html-keyboard-response","56","98372","0.0-8.0-0.48","5ee942381a22491bbb7170f8","650c16f0f2faf8d7a0d14c09","651c1db48a8e7e17c975e12a","null","null","<p style=""font-size: 60px; font-family: BACS"">DdckABb</p>","","","","","","","","",""
"html-keyboard-response","57","99381","0.0-8.0-0.49","5ee942381a22491bbb7170f8","650c16f0f2faf8d7a0d14c09","651c1db48a8e7e17c975e12a","null","null","<p style=""font-size: 60px; font-family: BACS"">BATOchEct</p>","","","","","","","","",""
"html-keyboard-response","58","100388","0.0-8.0-0.50","5ee942381a22491bbb7170f8","650c16f0f2faf8d7a0d14c09","651c1db48a8e7e17c975e12a","null","null","<p style=""font-size: 60px; font-family: BACS"">YcdOGrub</p>","","","","","","","","",""
"html-keyboard-response","59","101419","0.0-8.0-0.51","5ee942381a22491bbb7170f8","650c16f0f2faf8d7a0d14c09","651c1db48a8e7e17c975e12a","null","null","<p style=""font-size: 60px; font-family: BACS"">hmKPMABb</p>","","","","","","","","",""
"html-keyboard-response","60","102427","0.0-8.0-0.52","5ee942381a22491bbb7170f8","650c16f0f2faf8d7a0d14c09","651c1db48a8e7e17c975e12a","null","null","<p style=""font-size: 60px; font-family: BACS"">YcdObadk</p>","","","","","","","","",""
"html-keyboard-response","61","103437","0.0-8.0-0.53","5ee942381a22491bbb7170f8","650c16f0f2faf8d7a0d14c09","651c1db48a8e7e17c975e12a","null","null","<p style=""font-size: 60px; font-family: BACS"">DOchlOtM</p>","","","","","","","","",""
"html-keyboard-response","62","104446","0.0-8.0-0.54","5ee942381a22491bbb7170f8","650c16f0f2faf8d7a0d14c09","651c1db48a8e7e17c975e12a","null","null","<p style=""font-size: 60px; font-family: BACS"">ALOrlrULv</p>","","","","","","","","",""
"html-keyboard-response","63","105457","0.0-8.0-0.55","5ee942381a22491bbb7170f8","650c16f0f2faf8d7a0d14c09","651c1db48a8e7e17c975e12a","null","null","<p style=""font-size: 60px; font-family: BACS"">DOchlOBT</p>","","","","","","","","",""
"html-keyboard-response","64","106463","0.0-8.0-0.56","5ee942381a22491bbb7170f8","650c16f0f2faf8d7a0d14c09","651c1db48a8e7e17c975e12a","null","null","<p style=""font-size: 60px; font-family: BACS"">GJZmLcO</p>","","","","","","","","",""
"html-keyboard-response","65","107472","0.0-8.0-0.57","5ee942381a22491bbb7170f8","650c16f0f2faf8d7a0d14c09","651c1db48a8e7e17c975e12a","null","null","<p style=""font-size: 60px; font-family: BACS"">DOchlPMYm</p>","","","","","","","","",""
"html-keyboard-response","66","108480","0.0-8.0-0.58","5ee942381a22491bbb7170f8","650c16f0f2faf8d7a0d14c09","651c1db48a8e7e17c975e12a","null","null","<p style=""font-size: 60px; font-family: BACS"">ckduAGrub</p>","","","","","","","","",""
"html-keyboard-response","67","109492","0.0-8.0-0.59","5ee942381a22491bbb7170f8","650c16f0f2faf8d7a0d14c09","651c1db48a8e7e17c975e12a","null","null","<p style=""font-size: 60px; font-family: BACS"">LGkANmAG</p>","","","","","","","","",""
"html-keyboard-response","68","110503","0.0-8.0-0.60","5ee942381a22491bbb7170f8","650c16f0f2faf8d7a0d14c09","651c1db48a8e7e17c975e12a","null","null","<p style=""font-size: 60px; font-family: BACS"">DdckPMYm</p>","","","","","","","","",""
"html-keyboard-response","69","111515","0.0-8.0-0.61","5ee942381a22491bbb7170f8","650c16f0f2faf8d7a0d14c09","651c1db48a8e7e17c975e12a","null","null","<p style=""font-size: 60px; font-family: BACS"">BATOcABb</p>","","","","","","","","",""
"html-keyboard-response","70","112527","0.0-8.0-0.62","5ee942381a22491bbb7170f8","650c16f0f2faf8d7a0d14c09","651c1db48a8e7e17c975e12a","null","null","<p style=""font-size: 60px; font-family: BACS"">JuamlNmAG</p>","","","","","","","","",""
"html-keyboard-response","71","113542","0.0-8.0-0.63","5ee942381a22491bbb7170f8","650c16f0f2faf8d7a0d14c09","651c1db48a8e7e17c975e12a","null","null","<p style=""font-size: 60px; font-family: BACS"">EMYKOBT</p>","","","","","","","","",""
"html-keyboard-response","72","114552","0.0-8.0-0.64","5ee942381a22491bbb7170f8","650c16f0f2faf8d7a0d14c09","651c1db48a8e7e17c975e12a","null","null","<p style=""font-size: 60px; font-family: BACS"">cBROBPMYm</p>","","","","","","","","",""
"html-keyboard-response","73","115553","0.0-8.0-0.65","5ee942381a22491bbb7170f8","650c16f0f2faf8d7a0d14c09","651c1db48a8e7e17c975e12a","null","null","<p style=""font-size: 60px; font-family: BACS"">ALGZNmAG</p>","","","","","","","","",""
"html-keyboard-response","74","116559","0.0-8.0-0.66","5ee942381a22491bbb7170f8","650c16f0f2faf8d7a0d14c09","651c1db48a8e7e17c975e12a","null","null","<p style=""font-size: 60px; font-family: BACS"">BATOcPMYm</p>","","","","","","","","",""
"html-keyboard-response","75","117574","0.0-8.0-0.67","5ee942381a22491bbb7170f8","650c16f0f2faf8d7a0d14c09","651c1db48a8e7e17c975e12a","null","null","<p style=""font-size: 60px; font-family: BACS"">ALOrlGrub</p>","","","","","","","","",""
"html-keyboard-response","76","118585","0.0-8.0-0.68","5ee942381a22491bbb7170f8","650c16f0f2faf8d7a0d14c09","651c1db48a8e7e17c975e12a","null","null","<p style=""font-size: 60px; font-family: BACS"">ckduArULv</p>","","","","","","","","",""
"html-keyboard-response","77","119588","0.0-8.0-0.69","5ee942381a22491bbb7170f8","650c16f0f2faf8d7a0d14c09","651c1db48a8e7e17c975e12a","null","null","<p style=""font-size: 60px; font-family: BACS"">JmNkbadk</p>","","","","","","","","",""
"html-keyboard-response","78","120599","0.0-8.0-0.70","5ee942381a22491bbb7170f8","650c16f0f2faf8d7a0d14c09","651c1db48a8e7e17c975e12a","null","null","<p style=""font-size: 60px; font-family: BACS"">EMYKABb</p>","","","","","","","","",""
"html-keyboard-response","79","121601","0.0-8.0-0.71","5ee942381a22491bbb7170f8","650c16f0f2faf8d7a0d14c09","651c1db48a8e7e17c975e12a","null","null","<p style=""font-size: 60px; font-family: BACS"">OmtlDhEct</p>","","","","","","","","",""
"html-keyboard-response","80","122613","0.0-8.0-0.72","5ee942381a22491bbb7170f8","650c16f0f2faf8d7a0d14c09","651c1db48a8e7e17c975e12a","null","null","<p style=""font-size: 60px; font-family: BACS"">ALGZbadk</p>","","","","","","","","",""
"html-keyboard-response","81","123629","0.0-8.0-0.73","5ee942381a22491bbb7170f8","650c16f0f2faf8d7a0d14c09","651c1db48a8e7e17c975e12a","null","null","<p style=""font-size: 60px; font-family: BACS"">hmKPMhEct</p>","","","","","","","","",""
"html-keyboard-response","82","124643","0.0-8.0-0.74","5ee942381a22491bbb7170f8","650c16f0f2faf8d7a0d14c09","651c1db48a8e7e17c975e12a","null","null","<p style=""font-size: 60px; font-family: BACS"">JuamlLcO</p>","","","","","","","","",""
"html-keyboard-response","83","125650","0.0-8.0-0.75","5ee942381a22491bbb7170f8","650c16f0f2faf8d7a0d14c09","651c1db48a8e7e17c975e12a","null","null","<p style=""font-size: 60px; font-family: BACS"">OmtlDABb</p>","","","","","","","","",""
"html-keyboard-response","84","126665","0.0-8.0-0.76","5ee942381a22491bbb7170f8","650c16f0f2faf8d7a0d14c09","651c1db48a8e7e17c975e12a","null","null","<p style=""font-size: 60px; font-family: BACS"">YcdONmAG</p>","","","","","","","","",""
"html-keyboard-response","85","127679","0.0-8.0-0.77","5ee942381a22491bbb7170f8","650c16f0f2faf8d7a0d14c09","651c1db48a8e7e17c975e12a","null","null","<p style=""font-size: 60px; font-family: BACS"">ALGZrULv</p>","","","","","","","","",""
"html-keyboard-response","86","128703","0.0-8.0-0.78","5ee942381a22491bbb7170f8","650c16f0f2faf8d7a0d14c09","651c1db48a8e7e17c975e12a","null","null","<p style=""font-size: 60px; font-family: BACS"">OmtlDOtM</p>","","","","","","","","",""
"html-keyboard-response","87","129710","0.0-8.0-0.79","5ee942381a22491bbb7170f8","650c16f0f2faf8d7a0d14c09","651c1db48a8e7e17c975e12a","null","null","<p style=""font-size: 60px; font-family: BACS"">JmNkGrub</p>","","","","","","","","",""
"html-keyboard-response","88","135629","0.0-9.0","5ee942381a22491bbb7170f8","650c16f0f2faf8d7a0d14c09","651c1db48a8e7e17c975e12a","5918"," ","<p>Great, you've seen the first block of words. You may now take a short break.</p>
      <p>Press the spacebar when you're ready to continue.</p>","","","","","","","","",""
"html-keyboard-response","89","136661","0.0-10.0-0.0","5ee942381a22491bbb7170f8","650c16f0f2faf8d7a0d14c09","651c1db48a8e7e17c975e12a","null","null","<p style=""font-size: 60px; font-family: BACS"">hmKPMhEct</p>","","","","","","","","",""
"html-keyboard-response","90","137668","0.0-10.0-0.1","5ee942381a22491bbb7170f8","650c16f0f2faf8d7a0d14c09","651c1db48a8e7e17c975e12a","null","null","<p style=""font-size: 60px; font-family: BACS"">JuamlGrub</p>","","","","","","","","",""
"html-keyboard-response","91","138695","0.0-10.0-0.2","5ee942381a22491bbb7170f8","650c16f0f2faf8d7a0d14c09","651c1db48a8e7e17c975e12a","null","null","<p style=""font-size: 60px; font-family: BACS"">ALGZNmAG</p>","","","","","","","","",""
"html-keyboard-response","92","139704","0.0-10.0-0.3","5ee942381a22491bbb7170f8","650c16f0f2faf8d7a0d14c09","651c1db48a8e7e17c975e12a","null","null","<p style=""font-size: 60px; font-family: BACS"">OmtlDOtM</p>","","","","","","","","",""
"html-keyboard-response","93","140710","0.0-10.0-0.4","5ee942381a22491bbb7170f8","650c16f0f2faf8d7a0d14c09","651c1db48a8e7e17c975e12a","null","null","<p style=""font-size: 60px; font-family: BACS"">BPAlOBT</p>","","","","","","","","",""
"html-keyboard-response","94","141737","0.0-10.0-0.5","5ee942381a22491bbb7170f8","650c16f0f2faf8d7a0d14c09","651c1db48a8e7e17c975e12a","null","null","<p style=""font-size: 60px; font-family: BACS"">ZdlObadk</p>","","","","","","","","",""
"html-keyboard-response","95","142746","0.0-10.0-0.6","5ee942381a22491bbb7170f8","650c16f0f2faf8d7a0d14c09","651c1db48a8e7e17c975e12a","null","null","<p style=""font-size: 60px; font-family: BACS"">GJZmLcO</p>","","","","","","","","",""
"html-keyboard-response","96","143751","0.0-10.0-0.7","5ee942381a22491bbb7170f8","650c16f0f2faf8d7a0d14c09","651c1db48a8e7e17c975e12a","null","null","<p style=""font-size: 60px; font-family: BACS"">LGkAGrub</p>","","","","","","","","",""
"html-keyboard-response","97","144754","0.0-10.0-0.8","5ee942381a22491bbb7170f8","650c16f0f2faf8d7a0d14c09","651c1db48a8e7e17c975e12a","null","null","<p style=""font-size: 60px; font-family: BACS"">ALOrlNmAG</p>","","","","","","","","",""
"html-keyboard-response","98","145759","0.0-10.0-0.9","5ee942381a22491bbb7170f8","650c16f0f2faf8d7a0d14c09","651c1db48a8e7e17c975e12a","null","null","<p style=""font-size: 60px; font-family: BACS"">KTDTBABb</p>","","","","","","","","",""
"html-keyboard-response","99","146772","0.0-10.0-0.10","5ee942381a22491bbb7170f8","650c16f0f2faf8d7a0d14c09","651c1db48a8e7e17c975e12a","null","null","<p style=""font-size: 60px; font-family: BACS"">ALGZrULv</p>","","","","","","","","",""
"html-keyboard-response","100","147774","0.0-10.0-0.11","5ee942381a22491bbb7170f8","650c16f0f2faf8d7a0d14c09","651c1db48a8e7e17c975e12a","null","null","<p style=""font-size: 60px; font-family: BACS"">btlckhEct</p>","","","","","","","","",""
"html-keyboard-response","101","148784","0.0-10.0-0.12","5ee942381a22491bbb7170f8","650c16f0f2faf8d7a0d14c09","651c1db48a8e7e17c975e12a","null","null","<p style=""font-size: 60px; font-family: BACS"">KTDTBPMYm</p>","","","","","","","","",""
"html-keyboard-response","102","149816","0.0-10.0-0.13","5ee942381a22491bbb7170f8","650c16f0f2faf8d7a0d14c09","651c1db48a8e7e17c975e12a","null","null","<p style=""font-size: 60px; font-family: BACS"">ZdlOGrub</p>","","","","","","","","",""
"html-keyboard-response","103","150823","0.0-10.0-0.14","5ee942381a22491bbb7170f8","650c16f0f2faf8d7a0d14c09","651c1db48a8e7e17c975e12a","null","null","<p style=""font-size: 60px; font-family: BACS"">OmtlDOBT</p>","","","","","","","","",""
"html-keyboard-response","104","151834","0.0-10.0-0.15","5ee942381a22491bbb7170f8","650c16f0f2faf8d7a0d14c09","651c1db48a8e7e17c975e12a","null","null","<p style=""font-size: 60px; font-family: BACS"">BATOcOtM</p>","","","","","","","","",""
"html-keyboard-response","105","152847","0.0-10.0-0.16","5ee942381a22491bbb7170f8","650c16f0f2faf8d7a0d14c09","651c1db48a8e7e17c975e12a","null","null","<p style=""font-size: 60px; font-family: BACS"">cBROBPMYm</p>","","","","","","","","",""
"html-keyboard-response","106","153859","0.0-10.0-0.17","5ee942381a22491bbb7170f8","650c16f0f2faf8d7a0d14c09","651c1db48a8e7e17c975e12a","null","null","<p style=""font-size: 60px; font-family: BACS"">KTDTBhEct</p>","","","","","","","","",""
"html-keyboard-response","107","154862","0.0-10.0-0.18","5ee942381a22491bbb7170f8","650c16f0f2faf8d7a0d14c09","651c1db48a8e7e17c975e12a","null","null","<p style=""font-size: 60px; font-family: BACS"">LGkALcO</p>","","","","","","","","",""
"html-keyboard-response","108","155874","0.0-10.0-0.19","5ee942381a22491bbb7170f8","650c16f0f2faf8d7a0d14c09","651c1db48a8e7e17c975e12a","null","null","<p style=""font-size: 60px; font-family: BACS"">GJZmbadk</p>","","","","","","","","",""
"html-keyboard-response","109","156881","0.0-10.0-0.20","5ee942381a22491bbb7170f8","650c16f0f2faf8d7a0d14c09","651c1db48a8e7e17c975e12a","null","null","<p style=""font-size: 60px; font-family: BACS"">hmKPMABb</p>","","","","","","","","",""
"html-keyboard-response","110","157885","0.0-10.0-0.21","5ee942381a22491bbb7170f8","650c16f0f2faf8d7a0d14c09","651c1db48a8e7e17c975e12a","null","null","<p style=""font-size: 60px; font-family: BACS"">JmNkGrub</p>","","","","","","","","",""
"html-keyboard-response","111","158896","0.0-10.0-0.22","5ee942381a22491bbb7170f8","650c16f0f2faf8d7a0d14c09","651c1db48a8e7e17c975e12a","null","null","<p style=""font-size: 60px; font-family: BACS"">ZdlOLcO</p>","","","","","","","","",""
"html-keyboard-response","112","159907","0.0-10.0-0.23","5ee942381a22491bbb7170f8","650c16f0f2faf8d7a0d14c09","651c1db48a8e7e17c975e12a","null","null","<p style=""font-size: 60px; font-family: BACS"">BPAlhEct</p>","","","","","","","","",""
"html-keyboard-response","113","160919","0.0-10.0-0.24","5ee942381a22491bbb7170f8","650c16f0f2faf8d7a0d14c09","651c1db48a8e7e17c975e12a","null","null","<p style=""font-size: 60px; font-family: BACS"">LAclAbadk</p>","","","","","","","","",""
"html-keyboard-response","114","161932","0.0-10.0-0.25","5ee942381a22491bbb7170f8","650c16f0f2faf8d7a0d14c09","651c1db48a8e7e17c975e12a","null","null","<p style=""font-size: 60px; font-family: BACS"">ALGZLcO</p>","","","","","","","","",""
"html-keyboard-response","115","162942","0.0-10.0-0.26","5ee942381a22491bbb7170f8","650c16f0f2faf8d7a0d14c09","651c1db48a8e7e17c975e12a","null","null","<p style=""font-size: 60px; font-family: BACS"">cBROBhEct</p>","","","","","","","","",""
"html-keyboard-response","116","163951","0.0-10.0-0.27","5ee942381a22491bbb7170f8","650c16f0f2faf8d7a0d14c09","651c1db48a8e7e17c975e12a","null","null","<p style=""font-size: 60px; font-family: BACS"">DOchlOBT</p>","","","","","","","","",""
"html-keyboard-response","117","164961","0.0-10.0-0.28","5ee942381a22491bbb7170f8","650c16f0f2faf8d7a0d14c09","651c1db48a8e7e17c975e12a","null","null","<p style=""font-size: 60px; font-family: BACS"">JmNkbadk</p>","","","","","","","","",""
"html-keyboard-response","118","165965","0.0-10.0-0.29","5ee942381a22491bbb7170f8","650c16f0f2faf8d7a0d14c09","651c1db48a8e7e17c975e12a","null","null","<p style=""font-size: 60px; font-family: BACS"">DdckABb</p>","","","","","","","","",""
"html-keyboard-response","119","166996","0.0-10.0-0.30","5ee942381a22491bbb7170f8","650c16f0f2faf8d7a0d14c09","651c1db48a8e7e17c975e12a","null","null","<p style=""font-size: 60px; font-family: BACS"">btlckOBT</p>","","","","","","","","",""
"html-keyboard-response","120","168023","0.0-10.0-0.31","5ee942381a22491bbb7170f8","650c16f0f2faf8d7a0d14c09","651c1db48a8e7e17c975e12a","null","null","<p style=""font-size: 60px; font-family: BACS"">DOchlOtM</p>","","","","","","","","",""
"html-keyboard-response","121","169027","0.0-10.0-0.32","5ee942381a22491bbb7170f8","650c16f0f2faf8d7a0d14c09","651c1db48a8e7e17c975e12a","null","null","<p style=""font-size: 60px; font-family: BACS"">BPAlPMYm</p>","","","","","","","","",""
"html-keyboard-response","122","170037","0.0-10.0-0.33","5ee942381a22491bbb7170f8","650c16f0f2faf8d7a0d14c09","651c1db48a8e7e17c975e12a","null","null","<p style=""font-size: 60px; font-family: BACS"">ALGZbadk</p>","","","","","","","","",""
"html-keyboard-response","123","171050","0.0-10.0-0.34","5ee942381a22491bbb7170f8","650c16f0f2faf8d7a0d14c09","651c1db48a8e7e17c975e12a","null","null","<p style=""font-size: 60px; font-family: BACS"">cBROBOtM</p>","","","","","","","","",""
"html-keyboard-response","124","172057","0.0-10.0-0.35","5ee942381a22491bbb7170f8","650c16f0f2faf8d7a0d14c09","651c1db48a8e7e17c975e12a","null","null","<p style=""font-size: 60px; font-family: BACS"">ckduArULv</p>","","","","","","","","",""
"html-keyboard-response","125","173083","0.0-10.0-0.36","5ee942381a22491bbb7170f8","650c16f0f2faf8d7a0d14c09","651c1db48a8e7e17c975e12a","null","null","<p style=""font-size: 60px; font-family: BACS"">btlckPMYm</p>","","","","","","","","",""
"html-keyboard-response","126","174115","0.0-10.0-0.37","5ee942381a22491bbb7170f8","650c16f0f2faf8d7a0d14c09","651c1db48a8e7e17c975e12a","null","null","<p style=""font-size: 60px; font-family: BACS"">OmtlDABb</p>","","","","","","","","",""
"html-keyboard-response","127","175129","0.0-10.0-0.38","5ee942381a22491bbb7170f8","650c16f0f2faf8d7a0d14c09","651c1db48a8e7e17c975e12a","null","null","<p style=""font-size: 60px; font-family: BACS"">hmKPMOtM</p>","","","","","","","","",""
"html-keyboard-response","128","176132","0.0-10.0-0.39","5ee942381a22491bbb7170f8","650c16f0f2faf8d7a0d14c09","651c1db48a8e7e17c975e12a","null","null","<p style=""font-size: 60px; font-family: BACS"">EMYKABb</p>","","","","","","","","",""
"html-keyboard-response","129","177136","0.0-10.0-0.40","5ee942381a22491bbb7170f8","650c16f0f2faf8d7a0d14c09","651c1db48a8e7e17c975e12a","null","null","<p style=""font-size: 60px; font-family: BACS"">ALOrlLcO</p>","","","","","","","","",""
"html-keyboard-response","130","178144","0.0-10.0-0.41","5ee942381a22491bbb7170f8","650c16f0f2faf8d7a0d14c09","651c1db48a8e7e17c975e12a","null","null","<p style=""font-size: 60px; font-family: BACS"">LAclANmAG</p>","","","","","","","","",""
"html-keyboard-response","131","179148","0.0-10.0-0.42","5ee942381a22491bbb7170f8","650c16f0f2faf8d7a0d14c09","651c1db48a8e7e17c975e12a","null","null","<p style=""font-size: 60px; font-family: BACS"">DOchlPMYm</p>","","","","","","","","",""
"html-keyboard-response","132","180162","0.0-10.0-0.43","5ee942381a22491bbb7170f8","650c16f0f2faf8d7a0d14c09","651c1db48a8e7e17c975e12a","null","null","<p style=""font-size: 60px; font-family: BACS"">ALOrlGrub</p>","","","","","","","","",""
"html-keyboard-response","133","181166","0.0-10.0-0.44","5ee942381a22491bbb7170f8","650c16f0f2faf8d7a0d14c09","651c1db48a8e7e17c975e12a","null","null","<p style=""font-size: 60px; font-family: BACS"">JmNkLcO</p>","","","","","","","","",""
"html-keyboard-response","134","182170","0.0-10.0-0.45","5ee942381a22491bbb7170f8","650c16f0f2faf8d7a0d14c09","651c1db48a8e7e17c975e12a","null","null","<p style=""font-size: 60px; font-family: BACS"">ZdlOrULv</p>","","","","","","","","",""
"html-keyboard-response","135","183182","0.0-10.0-0.46","5ee942381a22491bbb7170f8","650c16f0f2faf8d7a0d14c09","651c1db48a8e7e17c975e12a","null","null","<p style=""font-size: 60px; font-family: BACS"">LGkANmAG</p>","","","","","","","","",""
"html-keyboard-response","136","184205","0.0-10.0-0.47","5ee942381a22491bbb7170f8","650c16f0f2faf8d7a0d14c09","651c1db48a8e7e17c975e12a","null","null","<p style=""font-size: 60px; font-family: BACS"">ckduAbadk</p>","","","","","","","","",""
"html-keyboard-response","137","185217","0.0-10.0-0.48","5ee942381a22491bbb7170f8","650c16f0f2faf8d7a0d14c09","651c1db48a8e7e17c975e12a","null","null","<p style=""font-size: 60px; font-family: BACS"">LAclAGrub</p>","","","","","","","","",""
"html-keyboard-response","138","186230","0.0-10.0-0.49","5ee942381a22491bbb7170f8","650c16f0f2faf8d7a0d14c09","651c1db48a8e7e17c975e12a","null","null","<p style=""font-size: 60px; font-family: BACS"">KTDTBOBT</p>","","","","","","","","",""
"html-keyboard-response","139","187243","0.0-10.0-0.50","5ee942381a22491bbb7170f8","650c16f0f2faf8d7a0d14c09","651c1db48a8e7e17c975e12a","null","null","<p style=""font-size: 60px; font-family: BACS"">GJZmNmAG</p>","","","","","","","","",""
"html-keyboard-response","140","188253","0.0-10.0-0.51","5ee942381a22491bbb7170f8","650c16f0f2faf8d7a0d14c09","651c1db48a8e7e17c975e12a","null","null","<p style=""font-size: 60px; font-family: BACS"">YcdOrULv</p>","","","","","","","","",""
"html-keyboard-response","141","189263","0.0-10.0-0.52","5ee942381a22491bbb7170f8","650c16f0f2faf8d7a0d14c09","651c1db48a8e7e17c975e12a","null","null","<p style=""font-size: 60px; font-family: BACS"">DOchlhEct</p>","","","","","","","","",""
"html-keyboard-response","142","190276","0.0-10.0-0.53","5ee942381a22491bbb7170f8","650c16f0f2faf8d7a0d14c09","651c1db48a8e7e17c975e12a","null","null","<p style=""font-size: 60px; font-family: BACS"">JmNkrULv</p>","","","","","","","","",""
"html-keyboard-response","143","191290","0.0-10.0-0.54","5ee942381a22491bbb7170f8","650c16f0f2faf8d7a0d14c09","651c1db48a8e7e17c975e12a","null","null","<p style=""font-size: 60px; font-family: BACS"">EMYKPMYm</p>","","","","","","","","",""
"html-keyboard-response","144","192296","0.0-10.0-0.55","5ee942381a22491bbb7170f8","650c16f0f2faf8d7a0d14c09","651c1db48a8e7e17c975e12a","null","null","<p style=""font-size: 60px; font-family: BACS"">JuamlLcO</p>","","","","","","","","",""
"html-keyboard-response","145","193300","0.0-10.0-0.56","5ee942381a22491bbb7170f8","650c16f0f2faf8d7a0d14c09","651c1db48a8e7e17c975e12a","null","null","<p style=""font-size: 60px; font-family: BACS"">EMYKOtM</p>","","","","","","","","",""
"html-keyboard-response","146","194307","0.0-10.0-0.57","5ee942381a22491bbb7170f8","650c16f0f2faf8d7a0d14c09","651c1db48a8e7e17c975e12a","null","null","<p style=""font-size: 60px; font-family: BACS"">ckduAGrub</p>","","","","","","","","",""
"html-keyboard-response","147","195318","0.0-10.0-0.58","5ee942381a22491bbb7170f8","650c16f0f2faf8d7a0d14c09","651c1db48a8e7e17c975e12a","null","null","<p style=""font-size: 60px; font-family: BACS"">EMYKOBT</p>","","","","","","","","",""
"html-keyboard-response","148","196326","0.0-10.0-0.59","5ee942381a22491bbb7170f8","650c16f0f2faf8d7a0d14c09","651c1db48a8e7e17c975e12a","null","null","<p style=""font-size: 60px; font-family: BACS"">YcdONmAG</p>","","","","","","","","",""
"html-keyboard-response","149","197337","0.0-10.0-0.60","5ee942381a22491bbb7170f8","650c16f0f2faf8d7a0d14c09","651c1db48a8e7e17c975e12a","null","null","<p style=""font-size: 60px; font-family: BACS"">LGkArULv</p>","","","","","","","","",""
"html-keyboard-response","150","198344","0.0-10.0-0.61","5ee942381a22491bbb7170f8","650c16f0f2faf8d7a0d14c09","651c1db48a8e7e17c975e12a","null","null","<p style=""font-size: 60px; font-family: BACS"">DdckOBT</p>","","","","","","","","",""
"html-keyboard-response","151","199360","0.0-10.0-0.62","5ee942381a22491bbb7170f8","650c16f0f2faf8d7a0d14c09","651c1db48a8e7e17c975e12a","null","null","<p style=""font-size: 60px; font-family: BACS"">cBROBABb</p>","","","","","","","","",""
"html-keyboard-response","152","200368","0.0-10.0-0.63","5ee942381a22491bbb7170f8","650c16f0f2faf8d7a0d14c09","651c1db48a8e7e17c975e12a","null","null","<p style=""font-size: 60px; font-family: BACS"">hmKPMOBT</p>","","","","","","","","",""
"html-keyboard-response","153","201372","0.0-10.0-0.64","5ee942381a22491bbb7170f8","650c16f0f2faf8d7a0d14c09","651c1db48a8e7e17c975e12a","null","null","<p style=""font-size: 60px; font-family: BACS"">BATOcABb</p>","","","","","","","","",""
"html-keyboard-response","154","202375","0.0-10.0-0.65","5ee942381a22491bbb7170f8","650c16f0f2faf8d7a0d14c09","651c1db48a8e7e17c975e12a","null","null","<p style=""font-size: 60px; font-family: BACS"">ALOrlrULv</p>","","","","","","","","",""
"html-keyboard-response","155","203386","0.0-10.0-0.66","5ee942381a22491bbb7170f8","650c16f0f2faf8d7a0d14c09","651c1db48a8e7e17c975e12a","null","null","<p style=""font-size: 60px; font-family: BACS"">btlckABb</p>","","","","","","","","",""
"html-keyboard-response","156","204391","0.0-10.0-0.67","5ee942381a22491bbb7170f8","650c16f0f2faf8d7a0d14c09","651c1db48a8e7e17c975e12a","null","null","<p style=""font-size: 60px; font-family: BACS"">DdckOtM</p>","","","","","","","","",""
"html-keyboard-response","157","205399","0.0-10.0-0.68","5ee942381a22491bbb7170f8","650c16f0f2faf8d7a0d14c09","651c1db48a8e7e17c975e12a","null","null","<p style=""font-size: 60px; font-family: BACS"">YcdOGrub</p>","","","","","","","","",""
"html-keyboard-response","158","206404","0.0-10.0-0.69","5ee942381a22491bbb7170f8","650c16f0f2faf8d7a0d14c09","651c1db48a8e7e17c975e12a","null","null","<p style=""font-size: 60px; font-family: BACS"">JuamlNmAG</p>","","","","","","","","",""
"html-keyboard-response","159","207412","0.0-10.0-0.70","5ee942381a22491bbb7170f8","650c16f0f2faf8d7a0d14c09","651c1db48a8e7e17c975e12a","null","null","<p style=""font-size: 60px; font-family: BACS"">GJZmrULv</p>","","","","","","","","",""
"html-keyboard-response","160","208429","0.0-10.0-0.71","5ee942381a22491bbb7170f8","650c16f0f2faf8d7a0d14c09","651c1db48a8e7e17c975e12a","null","null","<p style=""font-size: 60px; font-family: BACS"">BATOchEct</p>","","","","","","","","",""
"html-keyboard-response","161","209436","0.0-10.0-0.72","5ee942381a22491bbb7170f8","650c16f0f2faf8d7a0d14c09","651c1db48a8e7e17c975e12a","null","null","<p style=""font-size: 60px; font-family: BACS"">LAclALcO</p>","","","","","","","","",""
"html-keyboard-response","162","210451","0.0-10.0-0.73","5ee942381a22491bbb7170f8","650c16f0f2faf8d7a0d14c09","651c1db48a8e7e17c975e12a","null","null","<p style=""font-size: 60px; font-family: BACS"">BATOcPMYm</p>","","","","","","","","",""
"html-keyboard-response","163","211462","0.0-10.0-0.74","5ee942381a22491bbb7170f8","650c16f0f2faf8d7a0d14c09","651c1db48a8e7e17c975e12a","null","null","<p style=""font-size: 60px; font-family: BACS"">YcdObadk</p>","","","","","","","","",""
"html-keyboard-response","164","212476","0.0-10.0-0.75","5ee942381a22491bbb7170f8","650c16f0f2faf8d7a0d14c09","651c1db48a8e7e17c975e12a","null","null","<p style=""font-size: 60px; font-family: BACS"">OmtlDhEct</p>","","","","","","","","",""
"html-keyboard-response","165","213479","0.0-10.0-0.76","5ee942381a22491bbb7170f8","650c16f0f2faf8d7a0d14c09","651c1db48a8e7e17c975e12a","null","null","<p style=""font-size: 60px; font-family: BACS"">BPAlOtM</p>","","","","","","","","",""
"html-keyboard-response","166","214508","0.0-10.0-0.77","5ee942381a22491bbb7170f8","650c16f0f2faf8d7a0d14c09","651c1db48a8e7e17c975e12a","null","null","<p style=""font-size: 60px; font-family: BACS"">Juamlbadk</p>","","","","","","","","",""
"html-keyboard-response","167","215517","0.0-10.0-0.78","5ee942381a22491bbb7170f8","650c16f0f2faf8d7a0d14c09","651c1db48a8e7e17c975e12a","null","null","<p style=""font-size: 60px; font-family: BACS"">ckduANmAG</p>","","","","","","","","",""
"html-keyboard-response","168","216540","0.0-10.0-0.79","5ee942381a22491bbb7170f8","650c16f0f2faf8d7a0d14c09","651c1db48a8e7e17c975e12a","null","null","<p style=""font-size: 60px; font-family: BACS"">DdckPMYm</p>","","","","","","","","",""
"html-keyboard-response","169","220080","0.0-11.0","5ee942381a22491bbb7170f8","650c16f0f2faf8d7a0d14c09","651c1db48a8e7e17c975e12a","3539"," ","<p>Great, you've seen the second block of words. You may now take a short break.</p>
      <p>Press the spacebar when you're ready to continue.</p>","","","","","","","","",""
"html-keyboard-response","170","221107","0.0-12.0-0.0","5ee942381a22491bbb7170f8","650c16f0f2faf8d7a0d14c09","651c1db48a8e7e17c975e12a","null","null","<p style=""font-size: 60px; font-family: BACS"">cBROBPMYm</p>","","","","","","","","",""
"html-keyboard-response","171","222130","0.0-12.0-0.1","5ee942381a22491bbb7170f8","650c16f0f2faf8d7a0d14c09","651c1db48a8e7e17c975e12a","null","null","<p style=""font-size: 60px; font-family: BACS"">BPAlOtM</p>","","","","","","","","",""
"html-keyboard-response","172","223137","0.0-12.0-0.2","5ee942381a22491bbb7170f8","650c16f0f2faf8d7a0d14c09","651c1db48a8e7e17c975e12a","null","null","<p style=""font-size: 60px; font-family: BACS"">JmNkrULv</p>","","","","","","","","",""
"html-keyboard-response","173","224145","0.0-12.0-0.3","5ee942381a22491bbb7170f8","650c16f0f2faf8d7a0d14c09","651c1db48a8e7e17c975e12a","null","null","<p style=""font-size: 60px; font-family: BACS"">hmKPMOBT</p>","","","","","","","","",""
"html-keyboard-response","174","225157","0.0-12.0-0.4","5ee942381a22491bbb7170f8","650c16f0f2faf8d7a0d14c09","651c1db48a8e7e17c975e12a","null","null","<p style=""font-size: 60px; font-family: BACS"">ckduAbadk</p>","","","","","","","","",""
"html-keyboard-response","175","226167","0.0-12.0-0.5","5ee942381a22491bbb7170f8","650c16f0f2faf8d7a0d14c09","651c1db48a8e7e17c975e12a","null","null","<p style=""font-size: 60px; font-family: BACS"">LGkArULv</p>","","","","","","","","",""
"html-keyboard-response","176","227178","0.0-12.0-0.6","5ee942381a22491bbb7170f8","650c16f0f2faf8d7a0d14c09","651c1db48a8e7e17c975e12a","null","null","<p style=""font-size: 60px; font-family: BACS"">LAclANmAG</p>","","","","","","","","",""
"html-keyboard-response","177","228188","0.0-12.0-0.7","5ee942381a22491bbb7170f8","650c16f0f2faf8d7a0d14c09","651c1db48a8e7e17c975e12a","null","null","<p style=""font-size: 60px; font-family: BACS"">ALOrlGrub</p>","","","","","","","","",""
"html-keyboard-response","178","229198","0.0-12.0-0.8","5ee942381a22491bbb7170f8","650c16f0f2faf8d7a0d14c09","651c1db48a8e7e17c975e12a","null","null","<p style=""font-size: 60px; font-family: BACS"">YcdONmAG</p>","","","","","","","","",""
"html-keyboard-response","179","230210","0.0-12.0-0.9","5ee942381a22491bbb7170f8","650c16f0f2faf8d7a0d14c09","651c1db48a8e7e17c975e12a","null","null","<p style=""font-size: 60px; font-family: BACS"">DOchlOBT</p>","","","","","","","","",""
"html-keyboard-response","180","231212","0.0-12.0-0.10","5ee942381a22491bbb7170f8","650c16f0f2faf8d7a0d14c09","651c1db48a8e7e17c975e12a","null","null","<p style=""font-size: 60px; font-family: BACS"">EMYKOtM</p>","","","","","","","","",""
"html-keyboard-response","181","232213","0.0-12.0-0.11","5ee942381a22491bbb7170f8","650c16f0f2faf8d7a0d14c09","651c1db48a8e7e17c975e12a","null","null","<p style=""font-size: 60px; font-family: BACS"">ckduANmAG</p>","","","","","","","","",""
"html-keyboard-response","182","233223","0.0-12.0-0.12","5ee942381a22491bbb7170f8","650c16f0f2faf8d7a0d14c09","651c1db48a8e7e17c975e12a","null","null","<p style=""font-size: 60px; font-family: BACS"">DOchlOtM</p>","","","","","","","","",""
"html-keyboard-response","183","234232","0.0-12.0-0.13","5ee942381a22491bbb7170f8","650c16f0f2faf8d7a0d14c09","651c1db48a8e7e17c975e12a","null","null","<p style=""font-size: 60px; font-family: BACS"">cBROBABb</p>","","","","","","","","",""
"html-keyboard-response","184","235239","0.0-12.0-0.14","5ee942381a22491bbb7170f8","650c16f0f2faf8d7a0d14c09","651c1db48a8e7e17c975e12a","null","null","<p style=""font-size: 60px; font-family: BACS"">OmtlDhEct</p>","","","","","","","","",""
"html-keyboard-response","185","236263","0.0-12.0-0.15","5ee942381a22491bbb7170f8","650c16f0f2faf8d7a0d14c09","651c1db48a8e7e17c975e12a","null","null","<p style=""font-size: 60px; font-family: BACS"">LAclAGrub</p>","","","","","","","","",""
"html-keyboard-response","186","237277","0.0-12.0-0.16","5ee942381a22491bbb7170f8","650c16f0f2faf8d7a0d14c09","651c1db48a8e7e17c975e12a","null","null","<p style=""font-size: 60px; font-family: BACS"">btlckhEct</p>","","","","","","","","",""
"html-keyboard-response","187","238316","0.0-12.0-0.17","5ee942381a22491bbb7170f8","650c16f0f2faf8d7a0d14c09","651c1db48a8e7e17c975e12a","null","null","<p style=""font-size: 60px; font-family: BACS"">EMYKPMYm</p>","","","","","","","","",""
"html-keyboard-response","188","239319","0.0-12.0-0.18","5ee942381a22491bbb7170f8","650c16f0f2faf8d7a0d14c09","651c1db48a8e7e17c975e12a","null","null","<p style=""font-size: 60px; font-family: BACS"">JmNkGrub</p>","","","","","","","","",""
"html-keyboard-response","189","240324","0.0-12.0-0.19","5ee942381a22491bbb7170f8","650c16f0f2faf8d7a0d14c09","651c1db48a8e7e17c975e12a","null","null","<p style=""font-size: 60px; font-family: BACS"">DdckPMYm</p>","","","","","","","","",""
"html-keyboard-response","190","241343","0.0-12.0-0.20","5ee942381a22491bbb7170f8","650c16f0f2faf8d7a0d14c09","651c1db48a8e7e17c975e12a","null","null","<p style=""font-size: 60px; font-family: BACS"">ZdlOGrub</p>","","","","","","","","",""
"html-keyboard-response","191","242368","0.0-12.0-0.21","5ee942381a22491bbb7170f8","650c16f0f2faf8d7a0d14c09","651c1db48a8e7e17c975e12a","null","null","<p style=""font-size: 60px; font-family: BACS"">GJZmNmAG</p>","","","","","","","","",""
"html-keyboard-response","192","243383","0.0-12.0-0.22","5ee942381a22491bbb7170f8","650c16f0f2faf8d7a0d14c09","651c1db48a8e7e17c975e12a","null","null","<p style=""font-size: 60px; font-family: BACS"">YcdObadk</p>","","","","","","","","",""
"html-keyboard-response","193","244413","0.0-12.0-0.23","5ee942381a22491bbb7170f8","650c16f0f2faf8d7a0d14c09","651c1db48a8e7e17c975e12a","null","null","<p style=""font-size: 60px; font-family: BACS"">ALOrlLcO</p>","","","","","","","","",""
"html-keyboard-response","194","245427","0.0-12.0-0.24","5ee942381a22491bbb7170f8","650c16f0f2faf8d7a0d14c09","651c1db48a8e7e17c975e12a","null","null","<p style=""font-size: 60px; font-family: BACS"">DdckABb</p>","","","","","","","","",""
"html-keyboard-response","195","246438","0.0-12.0-0.25","5ee942381a22491bbb7170f8","650c16f0f2faf8d7a0d14c09","651c1db48a8e7e17c975e12a","null","null","<p style=""font-size: 60px; font-family: BACS"">DOchlPMYm</p>","","","","","","","","",""
"html-keyboard-response","196","247468","0.0-12.0-0.26","5ee942381a22491bbb7170f8","650c16f0f2faf8d7a0d14c09","651c1db48a8e7e17c975e12a","null","null","<p style=""font-size: 60px; font-family: BACS"">OmtlDOBT</p>","","","","","","","","",""
"html-keyboard-response","197","248471","0.0-12.0-0.27","5ee942381a22491bbb7170f8","650c16f0f2faf8d7a0d14c09","651c1db48a8e7e17c975e12a","null","null","<p style=""font-size: 60px; font-family: BACS"">ckduArULv</p>","","","","","","","","",""
"html-keyboard-response","198","249477","0.0-12.0-0.28","5ee942381a22491bbb7170f8","650c16f0f2faf8d7a0d14c09","651c1db48a8e7e17c975e12a","null","null","<p style=""font-size: 60px; font-family: BACS"">YcdOGrub</p>","","","","","","","","",""
"html-keyboard-response","199","250484","0.0-12.0-0.29","5ee942381a22491bbb7170f8","650c16f0f2faf8d7a0d14c09","651c1db48a8e7e17c975e12a","null","null","<p style=""font-size: 60px; font-family: BACS"">DOchlhEct</p>","","","","","","","","",""
"html-keyboard-response","200","251494","0.0-12.0-0.30","5ee942381a22491bbb7170f8","650c16f0f2faf8d7a0d14c09","651c1db48a8e7e17c975e12a","null","null","<p style=""font-size: 60px; font-family: BACS"">btlckABb</p>","","","","","","","","",""
"html-keyboard-response","201","252497","0.0-12.0-0.31","5ee942381a22491bbb7170f8","650c16f0f2faf8d7a0d14c09","651c1db48a8e7e17c975e12a","null","null","<p style=""font-size: 60px; font-family: BACS"">GJZmLcO</p>","","","","","","","","",""
"html-keyboard-response","202","253505","0.0-12.0-0.32","5ee942381a22491bbb7170f8","650c16f0f2faf8d7a0d14c09","651c1db48a8e7e17c975e12a","null","null","<p style=""font-size: 60px; font-family: BACS"">ZdlObadk</p>","","","","","","","","",""
"html-keyboard-response","203","254509","0.0-12.0-0.33","5ee942381a22491bbb7170f8","650c16f0f2faf8d7a0d14c09","651c1db48a8e7e17c975e12a","null","null","<p style=""font-size: 60px; font-family: BACS"">btlckPMYm</p>","","","","","","","","",""
"html-keyboard-response","204","255520","0.0-12.0-0.34","5ee942381a22491bbb7170f8","650c16f0f2faf8d7a0d14c09","651c1db48a8e7e17c975e12a","null","null","<p style=""font-size: 60px; font-family: BACS"">LAclAbadk</p>","","","","","","","","",""
"html-keyboard-response","205","256528","0.0-12.0-0.35","5ee942381a22491bbb7170f8","650c16f0f2faf8d7a0d14c09","651c1db48a8e7e17c975e12a","null","null","<p style=""font-size: 60px; font-family: BACS"">ZdlOrULv</p>","","","","","","","","",""
"html-keyboard-response","206","257532","0.0-12.0-0.36","5ee942381a22491bbb7170f8","650c16f0f2faf8d7a0d14c09","651c1db48a8e7e17c975e12a","null","null","<p style=""font-size: 60px; font-family: BACS"">JmNkLcO</p>","","","","","","","","",""
"html-keyboard-response","207","258536","0.0-12.0-0.37","5ee942381a22491bbb7170f8","650c16f0f2faf8d7a0d14c09","651c1db48a8e7e17c975e12a","null","null","<p style=""font-size: 60px; font-family: BACS"">EMYKABb</p>","","","","","","","","",""
"html-keyboard-response","208","259540","0.0-12.0-0.38","5ee942381a22491bbb7170f8","650c16f0f2faf8d7a0d14c09","651c1db48a8e7e17c975e12a","null","null","<p style=""font-size: 60px; font-family: BACS"">LGkALcO</p>","","","","","","","","",""
"html-keyboard-response","209","260555","0.0-12.0-0.39","5ee942381a22491bbb7170f8","650c16f0f2faf8d7a0d14c09","651c1db48a8e7e17c975e12a","null","null","<p style=""font-size: 60px; font-family: BACS"">ALOrlrULv</p>","","","","","","","","",""
"html-keyboard-response","210","261563","0.0-12.0-0.40","5ee942381a22491bbb7170f8","650c16f0f2faf8d7a0d14c09","651c1db48a8e7e17c975e12a","null","null","<p style=""font-size: 60px; font-family: BACS"">OmtlDABb</p>","","","","","","","","",""
"html-keyboard-response","211","262572","0.0-12.0-0.41","5ee942381a22491bbb7170f8","650c16f0f2faf8d7a0d14c09","651c1db48a8e7e17c975e12a","null","null","<p style=""font-size: 60px; font-family: BACS"">ALGZrULv</p>","","","","","","","","",""
"html-keyboard-response","212","263584","0.0-12.0-0.42","5ee942381a22491bbb7170f8","650c16f0f2faf8d7a0d14c09","651c1db48a8e7e17c975e12a","null","null","<p style=""font-size: 60px; font-family: BACS"">BATOcABb</p>","","","","","","","","",""
"html-keyboard-response","213","264589","0.0-12.0-0.43","5ee942381a22491bbb7170f8","650c16f0f2faf8d7a0d14c09","651c1db48a8e7e17c975e12a","null","null","<p style=""font-size: 60px; font-family: BACS"">GJZmrULv</p>","","","","","","","","",""
"html-keyboard-response","214","265594","0.0-12.0-0.44","5ee942381a22491bbb7170f8","650c16f0f2faf8d7a0d14c09","651c1db48a8e7e17c975e12a","null","null","<p style=""font-size: 60px; font-family: BACS"">Juamlbadk</p>","","","","","","","","",""
"html-keyboard-response","215","266606","0.0-12.0-0.45","5ee942381a22491bbb7170f8","650c16f0f2faf8d7a0d14c09","651c1db48a8e7e17c975e12a","null","null","<p style=""font-size: 60px; font-family: BACS"">ALGZNmAG</p>","","","","","","","","",""
"html-keyboard-response","216","267636","0.0-12.0-0.46","5ee942381a22491bbb7170f8","650c16f0f2faf8d7a0d14c09","651c1db48a8e7e17c975e12a","null","null","<p style=""font-size: 60px; font-family: BACS"">BATOcPMYm</p>","","","","","","","","",""
"html-keyboard-response","217","268668","0.0-12.0-0.47","5ee942381a22491bbb7170f8","650c16f0f2faf8d7a0d14c09","651c1db48a8e7e17c975e12a","null","null","<p style=""font-size: 60px; font-family: BACS"">OmtlDOtM</p>","","","","","","","","",""
"html-keyboard-response","218","269678","0.0-12.0-0.48","5ee942381a22491bbb7170f8","650c16f0f2faf8d7a0d14c09","651c1db48a8e7e17c975e12a","null","null","<p style=""font-size: 60px; font-family: BACS"">ckduAGrub</p>","","","","","","","","",""
"html-keyboard-response","219","270682","0.0-12.0-0.49","5ee942381a22491bbb7170f8","650c16f0f2faf8d7a0d14c09","651c1db48a8e7e17c975e12a","null","null","<p style=""font-size: 60px; font-family: BACS"">YcdOrULv</p>","","","","","","","","",""
"html-keyboard-response","220","271686","0.0-12.0-0.50","5ee942381a22491bbb7170f8","650c16f0f2faf8d7a0d14c09","651c1db48a8e7e17c975e12a","null","null","<p style=""font-size: 60px; font-family: BACS"">cBROBOtM</p>","","","","","","","","",""
"html-keyboard-response","221","272709","0.0-12.0-0.51","5ee942381a22491bbb7170f8","650c16f0f2faf8d7a0d14c09","651c1db48a8e7e17c975e12a","null","null","<p style=""font-size: 60px; font-family: BACS"">DdckOBT</p>","","","","","","","","",""
"html-keyboard-response","222","273731","0.0-12.0-0.52","5ee942381a22491bbb7170f8","650c16f0f2faf8d7a0d14c09","651c1db48a8e7e17c975e12a","null","null","<p style=""font-size: 60px; font-family: BACS"">BPAlPMYm</p>","","","","","","","","",""
"html-keyboard-response","223","274754","0.0-12.0-0.53","5ee942381a22491bbb7170f8","650c16f0f2faf8d7a0d14c09","651c1db48a8e7e17c975e12a","null","null","<p style=""font-size: 60px; font-family: BACS"">JmNkbadk</p>","","","","","","","","",""
"html-keyboard-response","224","275785","0.0-12.0-0.54","5ee942381a22491bbb7170f8","650c16f0f2faf8d7a0d14c09","651c1db48a8e7e17c975e12a","null","null","<p style=""font-size: 60px; font-family: BACS"">BPAlOBT</p>","","","","","","","","",""
"html-keyboard-response","225","276786","0.0-12.0-0.55","5ee942381a22491bbb7170f8","650c16f0f2faf8d7a0d14c09","651c1db48a8e7e17c975e12a","null","null","<p style=""font-size: 60px; font-family: BACS"">ALGZbadk</p>","","","","","","","","",""
"html-keyboard-response","226","277791","0.0-12.0-0.56","5ee942381a22491bbb7170f8","650c16f0f2faf8d7a0d14c09","651c1db48a8e7e17c975e12a","null","null","<p style=""font-size: 60px; font-family: BACS"">KTDTBOBT</p>","","","","","","","","",""
"html-keyboard-response","227","278803","0.0-12.0-0.57","5ee942381a22491bbb7170f8","650c16f0f2faf8d7a0d14c09","651c1db48a8e7e17c975e12a","null","null","<p style=""font-size: 60px; font-family: BACS"">cBROBhEct</p>","","","","","","","","",""
"html-keyboard-response","228","279818","0.0-12.0-0.58","5ee942381a22491bbb7170f8","650c16f0f2faf8d7a0d14c09","651c1db48a8e7e17c975e12a","null","null","<p style=""font-size: 60px; font-family: BACS"">hmKPMABb</p>","","","","","","","","",""
"html-keyboard-response","229","280850","0.0-12.0-0.59","5ee942381a22491bbb7170f8","650c16f0f2faf8d7a0d14c09","651c1db48a8e7e17c975e12a","null","null","<p style=""font-size: 60px; font-family: BACS"">LGkANmAG</p>","","","","","","","","",""
"html-keyboard-response","230","281880","0.0-12.0-0.60","5ee942381a22491bbb7170f8","650c16f0f2faf8d7a0d14c09","651c1db48a8e7e17c975e12a","null","null","<p style=""font-size: 60px; font-family: BACS"">KTDTBABb</p>","","","","","","","","",""
"html-keyboard-response","231","282886","0.0-12.0-0.61","5ee942381a22491bbb7170f8","650c16f0f2faf8d7a0d14c09","651c1db48a8e7e17c975e12a","null","null","<p style=""font-size: 60px; font-family: BACS"">JuamlGrub</p>","","","","","","","","",""
"html-keyboard-response","232","283915","0.0-12.0-0.62","5ee942381a22491bbb7170f8","650c16f0f2faf8d7a0d14c09","651c1db48a8e7e17c975e12a","null","null","<p style=""font-size: 60px; font-family: BACS"">ALGZLcO</p>","","","","","","","","",""
"html-keyboard-response","233","284925","0.0-12.0-0.63","5ee942381a22491bbb7170f8","650c16f0f2faf8d7a0d14c09","651c1db48a8e7e17c975e12a","null","null","<p style=""font-size: 60px; font-family: BACS"">GJZmbadk</p>","","","","","","","","",""
"html-keyboard-response","234","285932","0.0-12.0-0.64","5ee942381a22491bbb7170f8","650c16f0f2faf8d7a0d14c09","651c1db48a8e7e17c975e12a","null","null","<p style=""font-size: 60px; font-family: BACS"">LGkAGrub</p>","","","","","","","","",""
"html-keyboard-response","235","286935","0.0-12.0-0.65","5ee942381a22491bbb7170f8","650c16f0f2faf8d7a0d14c09","651c1db48a8e7e17c975e12a","null","null","<p style=""font-size: 60px; font-family: BACS"">JuamlNmAG</p>","","","","","","","","",""
"html-keyboard-response","236","287940","0.0-12.0-0.66","5ee942381a22491bbb7170f8","650c16f0f2faf8d7a0d14c09","651c1db48a8e7e17c975e12a","null","null","<p style=""font-size: 60px; font-family: BACS"">BATOcOtM</p>","","","","","","","","",""
"html-keyboard-response","237","288967","0.0-12.0-0.67","5ee942381a22491bbb7170f8","650c16f0f2faf8d7a0d14c09","651c1db48a8e7e17c975e12a","null","null","<p style=""font-size: 60px; font-family: BACS"">LAclALcO</p>","","","","","","","","",""
"html-keyboard-response","238","289994","0.0-12.0-0.68","5ee942381a22491bbb7170f8","650c16f0f2faf8d7a0d14c09","651c1db48a8e7e17c975e12a","null","null","<p style=""font-size: 60px; font-family: BACS"">BATOchEct</p>","","","","","","","","",""
"html-keyboard-response","239","291026","0.0-12.0-0.69","5ee942381a22491bbb7170f8","650c16f0f2faf8d7a0d14c09","651c1db48a8e7e17c975e12a","null","null","<p style=""font-size: 60px; font-family: BACS"">hmKPMOtM</p>","","","","","","","","",""
"html-keyboard-response","240","292043","0.0-12.0-0.70","5ee942381a22491bbb7170f8","650c16f0f2faf8d7a0d14c09","651c1db48a8e7e17c975e12a","null","null","<p style=""font-size: 60px; font-family: BACS"">btlckOBT</p>","","","","","","","","",""
"html-keyboard-response","241","293045","0.0-12.0-0.71","5ee942381a22491bbb7170f8","650c16f0f2faf8d7a0d14c09","651c1db48a8e7e17c975e12a","null","null","<p style=""font-size: 60px; font-family: BACS"">BPAlhEct</p>","","","","","","","","",""
"html-keyboard-response","242","294060","0.0-12.0-0.72","5ee942381a22491bbb7170f8","650c16f0f2faf8d7a0d14c09","651c1db48a8e7e17c975e12a","null","null","<p style=""font-size: 60px; font-family: BACS"">JuamlLcO</p>","","","","","","","","",""
"html-keyboard-response","243","295070","0.0-12.0-0.73","5ee942381a22491bbb7170f8","650c16f0f2faf8d7a0d14c09","651c1db48a8e7e17c975e12a","null","null","<p style=""font-size: 60px; font-family: BACS"">KTDTBhEct</p>","","","","","","","","",""
"html-keyboard-response","244","296082","0.0-12.0-0.74","5ee942381a22491bbb7170f8","650c16f0f2faf8d7a0d14c09","651c1db48a8e7e17c975e12a","null","null","<p style=""font-size: 60px; font-family: BACS"">ALOrlNmAG</p>","","","","","","","","",""
"html-keyboard-response","245","297083","0.0-12.0-0.75","5ee942381a22491bbb7170f8","650c16f0f2faf8d7a0d14c09","651c1db48a8e7e17c975e12a","null","null","<p style=""font-size: 60px; font-family: BACS"">KTDTBPMYm</p>","","","","","","","","",""
"html-keyboard-response","246","298099","0.0-12.0-0.76","5ee942381a22491bbb7170f8","650c16f0f2faf8d7a0d14c09","651c1db48a8e7e17c975e12a","null","null","<p style=""font-size: 60px; font-family: BACS"">EMYKOBT</p>","","","","","","","","",""
"html-keyboard-response","247","299109","0.0-12.0-0.77","5ee942381a22491bbb7170f8","650c16f0f2faf8d7a0d14c09","651c1db48a8e7e17c975e12a","null","null","<p style=""font-size: 60px; font-family: BACS"">ZdlOLcO</p>","","","","","","","","",""
"html-keyboard-response","248","300110","0.0-12.0-0.78","5ee942381a22491bbb7170f8","650c16f0f2faf8d7a0d14c09","651c1db48a8e7e17c975e12a","null","null","<p style=""font-size: 60px; font-family: BACS"">DdckOtM</p>","","","","","","","","",""
"html-keyboard-response","249","301121","0.0-12.0-0.79","5ee942381a22491bbb7170f8","650c16f0f2faf8d7a0d14c09","651c1db48a8e7e17c975e12a","null","null","<p style=""font-size: 60px; font-family: BACS"">hmKPMhEct</p>","","","","","","","","",""
"html-keyboard-response","250","315276","0.0-13.0","5ee942381a22491bbb7170f8","650c16f0f2faf8d7a0d14c09","651c1db48a8e7e17c975e12a","14154"," ","<p>Great, you've seen the third block of words. You may now take a short break.</p>
      <p>Press the spacebar when you're ready to continue.</p>","","","","","","","","",""
"html-keyboard-response","251","316288","0.0-14.0-0.0","5ee942381a22491bbb7170f8","650c16f0f2faf8d7a0d14c09","651c1db48a8e7e17c975e12a","null","null","<p style=""font-size: 60px; font-family: BACS"">LGkAGrub</p>","","","","","","","","",""
"html-keyboard-response","252","317303","0.0-14.0-0.1","5ee942381a22491bbb7170f8","650c16f0f2faf8d7a0d14c09","651c1db48a8e7e17c975e12a","null","null","<p style=""font-size: 60px; font-family: BACS"">ckduANmAG</p>","","","","","","","","",""
"html-keyboard-response","253","318313","0.0-14.0-0.2","5ee942381a22491bbb7170f8","650c16f0f2faf8d7a0d14c09","651c1db48a8e7e17c975e12a","null","null","<p style=""font-size: 60px; font-family: BACS"">JmNkGrub</p>","","","","","","","","",""
"html-keyboard-response","254","319340","0.0-14.0-0.3","5ee942381a22491bbb7170f8","650c16f0f2faf8d7a0d14c09","651c1db48a8e7e17c975e12a","null","null","<p style=""font-size: 60px; font-family: BACS"">JuamlNmAG</p>","","","","","","","","",""
"html-keyboard-response","255","320348","0.0-14.0-0.4","5ee942381a22491bbb7170f8","650c16f0f2faf8d7a0d14c09","651c1db48a8e7e17c975e12a","null","null","<p style=""font-size: 60px; font-family: BACS"">JmNkLcO</p>","","","","","","","","",""
"html-keyboard-response","256","321356","0.0-14.0-0.5","5ee942381a22491bbb7170f8","650c16f0f2faf8d7a0d14c09","651c1db48a8e7e17c975e12a","null","null","<p style=""font-size: 60px; font-family: BACS"">cBROBOtM</p>","","","","","","","","",""
"html-keyboard-response","257","322373","0.0-14.0-0.6","5ee942381a22491bbb7170f8","650c16f0f2faf8d7a0d14c09","651c1db48a8e7e17c975e12a","null","null","<p style=""font-size: 60px; font-family: BACS"">JmNkrULv</p>","","","","","","","","",""
"html-keyboard-response","258","323387","0.0-14.0-0.7","5ee942381a22491bbb7170f8","650c16f0f2faf8d7a0d14c09","651c1db48a8e7e17c975e12a","null","null","<p style=""font-size: 60px; font-family: BACS"">LGkALcO</p>","","","","","","","","",""
"html-keyboard-response","259","324397","0.0-14.0-0.8","5ee942381a22491bbb7170f8","650c16f0f2faf8d7a0d14c09","651c1db48a8e7e17c975e12a","null","null","<p style=""font-size: 60px; font-family: BACS"">GJZmNmAG</p>","","","","","","","","",""
"html-keyboard-response","260","325415","0.0-14.0-0.9","5ee942381a22491bbb7170f8","650c16f0f2faf8d7a0d14c09","651c1db48a8e7e17c975e12a","null","null","<p style=""font-size: 60px; font-family: BACS"">JuamlLcO</p>","","","","","","","","",""
"html-keyboard-response","261","326433","0.0-14.0-0.10","5ee942381a22491bbb7170f8","650c16f0f2faf8d7a0d14c09","651c1db48a8e7e17c975e12a","null","null","<p style=""font-size: 60px; font-family: BACS"">btlckPMYm</p>","","","","","","","","",""
"html-keyboard-response","262","327451","0.0-14.0-0.11","5ee942381a22491bbb7170f8","650c16f0f2faf8d7a0d14c09","651c1db48a8e7e17c975e12a","null","null","<p style=""font-size: 60px; font-family: BACS"">BATOcABb</p>","","","","","","","","",""
"html-keyboard-response","263","328460","0.0-14.0-0.12","5ee942381a22491bbb7170f8","650c16f0f2faf8d7a0d14c09","651c1db48a8e7e17c975e12a","null","null","<p style=""font-size: 60px; font-family: BACS"">ALGZbadk</p>","","","","","","","","",""
"html-keyboard-response","264","329474","0.0-14.0-0.13","5ee942381a22491bbb7170f8","650c16f0f2faf8d7a0d14c09","651c1db48a8e7e17c975e12a","null","null","<p style=""font-size: 60px; font-family: BACS"">hmKPMOtM</p>","","","","","","","","",""
"html-keyboard-response","265","330483","0.0-14.0-0.14","5ee942381a22491bbb7170f8","650c16f0f2faf8d7a0d14c09","651c1db48a8e7e17c975e12a","null","null","<p style=""font-size: 60px; font-family: BACS"">cBROBPMYm</p>","","","","","","","","",""
"html-keyboard-response","266","331507","0.0-14.0-0.15","5ee942381a22491bbb7170f8","650c16f0f2faf8d7a0d14c09","651c1db48a8e7e17c975e12a","null","null","<p style=""font-size: 60px; font-family: BACS"">DdckOtM</p>","","","","","","","","",""
"html-keyboard-response","267","332515","0.0-14.0-0.16","5ee942381a22491bbb7170f8","650c16f0f2faf8d7a0d14c09","651c1db48a8e7e17c975e12a","null","null","<p style=""font-size: 60px; font-family: BACS"">ALOrlLcO</p>","","","","","","","","",""
"html-keyboard-response","268","333527","0.0-14.0-0.17","5ee942381a22491bbb7170f8","650c16f0f2faf8d7a0d14c09","651c1db48a8e7e17c975e12a","null","null","<p style=""font-size: 60px; font-family: BACS"">DdckPMYm</p>","","","","","","","","",""
"html-keyboard-response","269","334533","0.0-14.0-0.18","5ee942381a22491bbb7170f8","650c16f0f2faf8d7a0d14c09","651c1db48a8e7e17c975e12a","null","null","<p style=""font-size: 60px; font-family: BACS"">hmKPMhEct</p>","","","","","","","","",""
"html-keyboard-response","270","335540","0.0-14.0-0.19","5ee942381a22491bbb7170f8","650c16f0f2faf8d7a0d14c09","651c1db48a8e7e17c975e12a","null","null","<p style=""font-size: 60px; font-family: BACS"">KTDTBABb</p>","","","","","","","","",""
"html-keyboard-response","271","336567","0.0-14.0-0.20","5ee942381a22491bbb7170f8","650c16f0f2faf8d7a0d14c09","651c1db48a8e7e17c975e12a","null","null","<p style=""font-size: 60px; font-family: BACS"">YcdOGrub</p>","","","","","","","","",""
"html-keyboard-response","272","337571","0.0-14.0-0.21","5ee942381a22491bbb7170f8","650c16f0f2faf8d7a0d14c09","651c1db48a8e7e17c975e12a","null","null","<p style=""font-size: 60px; font-family: BACS"">EMYKPMYm</p>","","","","","","","","",""
"html-keyboard-response","273","338598","0.0-14.0-0.22","5ee942381a22491bbb7170f8","650c16f0f2faf8d7a0d14c09","651c1db48a8e7e17c975e12a","null","null","<p style=""font-size: 60px; font-family: BACS"">cBROBABb</p>","","","","","","","","",""
"html-keyboard-response","274","339605","0.0-14.0-0.23","5ee942381a22491bbb7170f8","650c16f0f2faf8d7a0d14c09","651c1db48a8e7e17c975e12a","null","null","<p style=""font-size: 60px; font-family: BACS"">ZdlOGrub</p>","","","","","","","","",""
"html-keyboard-response","275","340622","0.0-14.0-0.24","5ee942381a22491bbb7170f8","650c16f0f2faf8d7a0d14c09","651c1db48a8e7e17c975e12a","null","null","<p style=""font-size: 60px; font-family: BACS"">DdckOBT</p>","","","","","","","","",""
"html-keyboard-response","276","341626","0.0-14.0-0.25","5ee942381a22491bbb7170f8","650c16f0f2faf8d7a0d14c09","651c1db48a8e7e17c975e12a","null","null","<p style=""font-size: 60px; font-family: BACS"">ckduAbadk</p>","","","","","","","","",""
"html-keyboard-response","277","342636","0.0-14.0-0.26","5ee942381a22491bbb7170f8","650c16f0f2faf8d7a0d14c09","651c1db48a8e7e17c975e12a","null","null","<p style=""font-size: 60px; font-family: BACS"">btlckhEct</p>","","","","","","","","",""
"html-keyboard-response","278","343662","0.0-14.0-0.27","5ee942381a22491bbb7170f8","650c16f0f2faf8d7a0d14c09","651c1db48a8e7e17c975e12a","null","null","<p style=""font-size: 60px; font-family: BACS"">KTDTBOBT</p>","","","","","","","","",""
"html-keyboard-response","279","344673","0.0-14.0-0.28","5ee942381a22491bbb7170f8","650c16f0f2faf8d7a0d14c09","651c1db48a8e7e17c975e12a","null","null","<p style=""font-size: 60px; font-family: BACS"">YcdOrULv</p>","","","","","","","","",""
"html-keyboard-response","280","345704","0.0-14.0-0.29","5ee942381a22491bbb7170f8","650c16f0f2faf8d7a0d14c09","651c1db48a8e7e17c975e12a","null","null","<p style=""font-size: 60px; font-family: BACS"">btlckOBT</p>","","","","","","","","",""
"html-keyboard-response","281","346709","0.0-14.0-0.30","5ee942381a22491bbb7170f8","650c16f0f2faf8d7a0d14c09","651c1db48a8e7e17c975e12a","null","null","<p style=""font-size: 60px; font-family: BACS"">DOchlhEct</p>","","","","","","","","",""
"html-keyboard-response","282","347730","0.0-14.0-0.31","5ee942381a22491bbb7170f8","650c16f0f2faf8d7a0d14c09","651c1db48a8e7e17c975e12a","null","null","<p style=""font-size: 60px; font-family: BACS"">LAclALcO</p>","","","","","","","","",""
"html-keyboard-response","283","348736","0.0-14.0-0.32","5ee942381a22491bbb7170f8","650c16f0f2faf8d7a0d14c09","651c1db48a8e7e17c975e12a","null","null","<p style=""font-size: 60px; font-family: BACS"">EMYKABb</p>","","","","","","","","",""
"html-keyboard-response","284","349749","0.0-14.0-0.33","5ee942381a22491bbb7170f8","650c16f0f2faf8d7a0d14c09","651c1db48a8e7e17c975e12a","null","null","<p style=""font-size: 60px; font-family: BACS"">BPAlOBT</p>","","","","","","","","",""
"html-keyboard-response","285","350752","0.0-14.0-0.34","5ee942381a22491bbb7170f8","650c16f0f2faf8d7a0d14c09","651c1db48a8e7e17c975e12a","null","null","<p style=""font-size: 60px; font-family: BACS"">KTDTBPMYm</p>","","","","","","","","",""
"html-keyboard-response","286","351762","0.0-14.0-0.35","5ee942381a22491bbb7170f8","650c16f0f2faf8d7a0d14c09","651c1db48a8e7e17c975e12a","null","null","<p style=""font-size: 60px; font-family: BACS"">JmNkbadk</p>","","","","","","","","",""
"html-keyboard-response","287","352764","0.0-14.0-0.36","5ee942381a22491bbb7170f8","650c16f0f2faf8d7a0d14c09","651c1db48a8e7e17c975e12a","null","null","<p style=""font-size: 60px; font-family: BACS"">LGkArULv</p>","","","","","","","","",""
"html-keyboard-response","288","353775","0.0-14.0-0.37","5ee942381a22491bbb7170f8","650c16f0f2faf8d7a0d14c09","651c1db48a8e7e17c975e12a","null","null","<p style=""font-size: 60px; font-family: BACS"">BATOcPMYm</p>","","","","","","","","",""
"html-keyboard-response","289","354786","0.0-14.0-0.38","5ee942381a22491bbb7170f8","650c16f0f2faf8d7a0d14c09","651c1db48a8e7e17c975e12a","null","null","<p style=""font-size: 60px; font-family: BACS"">OmtlDOBT</p>","","","","","","","","",""
"html-keyboard-response","290","355799","0.0-14.0-0.39","5ee942381a22491bbb7170f8","650c16f0f2faf8d7a0d14c09","651c1db48a8e7e17c975e12a","null","null","<p style=""font-size: 60px; font-family: BACS"">cBROBhEct</p>","","","","","","","","",""
"html-keyboard-response","291","356827","0.0-14.0-0.40","5ee942381a22491bbb7170f8","650c16f0f2faf8d7a0d14c09","651c1db48a8e7e17c975e12a","null","null","<p style=""font-size: 60px; font-family: BACS"">DOchlOBT</p>","","","","","","","","",""
"html-keyboard-response","292","357855","0.0-14.0-0.41","5ee942381a22491bbb7170f8","650c16f0f2faf8d7a0d14c09","651c1db48a8e7e17c975e12a","null","null","<p style=""font-size: 60px; font-family: BACS"">btlckABb</p>","","","","","","","","",""
"html-keyboard-response","293","358862","0.0-14.0-0.42","5ee942381a22491bbb7170f8","650c16f0f2faf8d7a0d14c09","651c1db48a8e7e17c975e12a","null","null","<p style=""font-size: 60px; font-family: BACS"">ALOrlNmAG</p>","","","","","","","","",""
"html-keyboard-response","294","359872","0.0-14.0-0.43","5ee942381a22491bbb7170f8","650c16f0f2faf8d7a0d14c09","651c1db48a8e7e17c975e12a","null","null","<p style=""font-size: 60px; font-family: BACS"">ckduArULv</p>","","","","","","","","",""
"html-keyboard-response","295","360903","0.0-14.0-0.44","5ee942381a22491bbb7170f8","650c16f0f2faf8d7a0d14c09","651c1db48a8e7e17c975e12a","null","null","<p style=""font-size: 60px; font-family: BACS"">BATOchEct</p>","","","","","","","","",""
"html-keyboard-response","296","361906","0.0-14.0-0.45","5ee942381a22491bbb7170f8","650c16f0f2faf8d7a0d14c09","651c1db48a8e7e17c975e12a","null","null","<p style=""font-size: 60px; font-family: BACS"">OmtlDOtM</p>","","","","","","","","",""
"html-keyboard-response","297","362917","0.0-14.0-0.46","5ee942381a22491bbb7170f8","650c16f0f2faf8d7a0d14c09","651c1db48a8e7e17c975e12a","null","null","<p style=""font-size: 60px; font-family: BACS"">YcdObadk</p>","","","","","","","","",""
"html-keyboard-response","298","363932","0.0-14.0-0.47","5ee942381a22491bbb7170f8","650c16f0f2faf8d7a0d14c09","651c1db48a8e7e17c975e12a","null","null","<p style=""font-size: 60px; font-family: BACS"">ZdlOrULv</p>","","","","","","","","",""
"html-keyboard-response","299","364943","0.0-14.0-0.48","5ee942381a22491bbb7170f8","650c16f0f2faf8d7a0d14c09","651c1db48a8e7e17c975e12a","null","null","<p style=""font-size: 60px; font-family: BACS"">OmtlDhEct</p>","","","","","","","","",""
"html-keyboard-response","300","365982","0.0-14.0-0.49","5ee942381a22491bbb7170f8","650c16f0f2faf8d7a0d14c09","651c1db48a8e7e17c975e12a","null","null","<p style=""font-size: 60px; font-family: BACS"">YcdONmAG</p>","","","","","","","","",""
"html-keyboard-response","301","366989","0.0-14.0-0.50","5ee942381a22491bbb7170f8","650c16f0f2faf8d7a0d14c09","651c1db48a8e7e17c975e12a","null","null","<p style=""font-size: 60px; font-family: BACS"">BPAlPMYm</p>","","","","","","","","",""
"html-keyboard-response","302","368003","0.0-14.0-0.51","5ee942381a22491bbb7170f8","650c16f0f2faf8d7a0d14c09","651c1db48a8e7e17c975e12a","null","null","<p style=""font-size: 60px; font-family: BACS"">ALGZLcO</p>","","","","","","","","",""
"html-keyboard-response","303","369018","0.0-14.0-0.52","5ee942381a22491bbb7170f8","650c16f0f2faf8d7a0d14c09","651c1db48a8e7e17c975e12a","null","null","<p style=""font-size: 60px; font-family: BACS"">LGkANmAG</p>","","","","","","","","",""
"html-keyboard-response","304","370040","0.0-14.0-0.53","5ee942381a22491bbb7170f8","650c16f0f2faf8d7a0d14c09","651c1db48a8e7e17c975e12a","null","null","<p style=""font-size: 60px; font-family: BACS"">GJZmLcO</p>","","","","","","","","",""
"html-keyboard-response","305","371045","0.0-14.0-0.54","5ee942381a22491bbb7170f8","650c16f0f2faf8d7a0d14c09","651c1db48a8e7e17c975e12a","null","null","<p style=""font-size: 60px; font-family: BACS"">ALGZrULv</p>","","","","","","","","",""
"html-keyboard-response","306","372095","0.0-14.0-0.55","5ee942381a22491bbb7170f8","650c16f0f2faf8d7a0d14c09","651c1db48a8e7e17c975e12a","null","null","<p style=""font-size: 60px; font-family: BACS"">hmKPMABb</p>","","","","","","","","",""
"html-keyboard-response","307","373098","0.0-14.0-0.56","5ee942381a22491bbb7170f8","650c16f0f2faf8d7a0d14c09","651c1db48a8e7e17c975e12a","null","null","<p style=""font-size: 60px; font-family: BACS"">DOchlOtM</p>","","","","","","","","",""
"html-keyboard-response","308","374106","0.0-14.0-0.57","5ee942381a22491bbb7170f8","650c16f0f2faf8d7a0d14c09","651c1db48a8e7e17c975e12a","null","null","<p style=""font-size: 60px; font-family: BACS"">ALGZNmAG</p>","","","","","","","","",""
"html-keyboard-response","309","375116","0.0-14.0-0.58","5ee942381a22491bbb7170f8","650c16f0f2faf8d7a0d14c09","651c1db48a8e7e17c975e12a","null","null","<p style=""font-size: 60px; font-family: BACS"">LAclAGrub</p>","","","","","","","","",""
"html-keyboard-response","310","376119","0.0-14.0-0.59","5ee942381a22491bbb7170f8","650c16f0f2faf8d7a0d14c09","651c1db48a8e7e17c975e12a","null","null","<p style=""font-size: 60px; font-family: BACS"">DdckABb</p>","","","","","","","","",""
"html-keyboard-response","311","377146","0.0-14.0-0.60","5ee942381a22491bbb7170f8","650c16f0f2faf8d7a0d14c09","651c1db48a8e7e17c975e12a","null","null","<p style=""font-size: 60px; font-family: BACS"">EMYKOtM</p>","","","","","","","","",""
"html-keyboard-response","312","378149","0.0-14.0-0.61","5ee942381a22491bbb7170f8","650c16f0f2faf8d7a0d14c09","651c1db48a8e7e17c975e12a","null","null","<p style=""font-size: 60px; font-family: BACS"">GJZmbadk</p>","","","","","","","","",""
"html-keyboard-response","313","379161","0.0-14.0-0.62","5ee942381a22491bbb7170f8","650c16f0f2faf8d7a0d14c09","651c1db48a8e7e17c975e12a","null","null","<p style=""font-size: 60px; font-family: BACS"">EMYKOBT</p>","","","","","","","","",""
"html-keyboard-response","314","380190","0.0-14.0-0.63","5ee942381a22491bbb7170f8","650c16f0f2faf8d7a0d14c09","651c1db48a8e7e17c975e12a","null","null","<p style=""font-size: 60px; font-family: BACS"">KTDTBhEct</p>","","","","","","","","",""
"html-keyboard-response","315","381226","0.0-14.0-0.64","5ee942381a22491bbb7170f8","650c16f0f2faf8d7a0d14c09","651c1db48a8e7e17c975e12a","null","null","<p style=""font-size: 60px; font-family: BACS"">BPAlOtM</p>","","","","","","","","",""
"html-keyboard-response","316","382239","0.0-14.0-0.65","5ee942381a22491bbb7170f8","650c16f0f2faf8d7a0d14c09","651c1db48a8e7e17c975e12a","null","null","<p style=""font-size: 60px; font-family: BACS"">LAclAbadk</p>","","","","","","","","",""
"html-keyboard-response","317","383260","0.0-14.0-0.66","5ee942381a22491bbb7170f8","650c16f0f2faf8d7a0d14c09","651c1db48a8e7e17c975e12a","null","null","<p style=""font-size: 60px; font-family: BACS"">DOchlPMYm</p>","","","","","","","","",""
"html-keyboard-response","318","384275","0.0-14.0-0.67","5ee942381a22491bbb7170f8","650c16f0f2faf8d7a0d14c09","651c1db48a8e7e17c975e12a","null","null","<p style=""font-size: 60px; font-family: BACS"">LAclANmAG</p>","","","","","","","","",""
"html-keyboard-response","319","385280","0.0-14.0-0.68","5ee942381a22491bbb7170f8","650c16f0f2faf8d7a0d14c09","651c1db48a8e7e17c975e12a","null","null","<p style=""font-size: 60px; font-family: BACS"">ckduAGrub</p>","","","","","","","","",""
"html-keyboard-response","320","386306","0.0-14.0-0.69","5ee942381a22491bbb7170f8","650c16f0f2faf8d7a0d14c09","651c1db48a8e7e17c975e12a","null","null","<p style=""font-size: 60px; font-family: BACS"">Juamlbadk</p>","","","","","","","","",""
"html-keyboard-response","321","387321","0.0-14.0-0.70","5ee942381a22491bbb7170f8","650c16f0f2faf8d7a0d14c09","651c1db48a8e7e17c975e12a","null","null","<p style=""font-size: 60px; font-family: BACS"">OmtlDABb</p>","","","","","","","","",""
"html-keyboard-response","322","388329","0.0-14.0-0.71","5ee942381a22491bbb7170f8","650c16f0f2faf8d7a0d14c09","651c1db48a8e7e17c975e12a","null","null","<p style=""font-size: 60px; font-family: BACS"">BATOcOtM</p>","","","","","","","","",""
"html-keyboard-response","323","389331","0.0-14.0-0.72","5ee942381a22491bbb7170f8","650c16f0f2faf8d7a0d14c09","651c1db48a8e7e17c975e12a","null","null","<p style=""font-size: 60px; font-family: BACS"">ALOrlGrub</p>","","","","","","","","",""
"html-keyboard-response","324","390343","0.0-14.0-0.73","5ee942381a22491bbb7170f8","650c16f0f2faf8d7a0d14c09","651c1db48a8e7e17c975e12a","null","null","<p style=""font-size: 60px; font-family: BACS"">GJZmrULv</p>","","","","","","","","",""
"html-keyboard-response","325","391348","0.0-14.0-0.74","5ee942381a22491bbb7170f8","650c16f0f2faf8d7a0d14c09","651c1db48a8e7e17c975e12a","null","null","<p style=""font-size: 60px; font-family: BACS"">ZdlOLcO</p>","","","","","","","","",""
"html-keyboard-response","326","392373","0.0-14.0-0.75","5ee942381a22491bbb7170f8","650c16f0f2faf8d7a0d14c09","651c1db48a8e7e17c975e12a","null","null","<p style=""font-size: 60px; font-family: BACS"">hmKPMOBT</p>","","","","","","","","",""
"html-keyboard-response","327","393387","0.0-14.0-0.76","5ee942381a22491bbb7170f8","650c16f0f2faf8d7a0d14c09","651c1db48a8e7e17c975e12a","null","null","<p style=""font-size: 60px; font-family: BACS"">ZdlObadk</p>","","","","","","","","",""
"html-keyboard-response","328","394395","0.0-14.0-0.77","5ee942381a22491bbb7170f8","650c16f0f2faf8d7a0d14c09","651c1db48a8e7e17c975e12a","null","null","<p style=""font-size: 60px; font-family: BACS"">JuamlGrub</p>","","","","","","","","",""
"html-keyboard-response","329","395398","0.0-14.0-0.78","5ee942381a22491bbb7170f8","650c16f0f2faf8d7a0d14c09","651c1db48a8e7e17c975e12a","null","null","<p style=""font-size: 60px; font-family: BACS"">BPAlhEct</p>","","","","","","","","",""
"html-keyboard-response","330","396402","0.0-14.0-0.79","5ee942381a22491bbb7170f8","650c16f0f2faf8d7a0d14c09","651c1db48a8e7e17c975e12a","null","null","<p style=""font-size: 60px; font-family: BACS"">ALOrlrULv</p>","","","","","","","","",""
"html-keyboard-response","331","409906","0.0-15.0","5ee942381a22491bbb7170f8","650c16f0f2faf8d7a0d14c09","651c1db48a8e7e17c975e12a","13502"," ","<p>Great, you've seen the fourth block of words. You may now take a short break.</p>
      <p>Press the spacebar when you're ready to continue.</p>","","","","","","","","",""
"html-keyboard-response","332","410915","0.0-16.0-0.0","5ee942381a22491bbb7170f8","650c16f0f2faf8d7a0d14c09","651c1db48a8e7e17c975e12a","null","null","<p style=""font-size: 60px; font-family: BACS"">JmNkGrub</p>","","","","","","","","",""
"html-keyboard-response","333","411923","0.0-16.0-0.1","5ee942381a22491bbb7170f8","650c16f0f2faf8d7a0d14c09","651c1db48a8e7e17c975e12a","null","null","<p style=""font-size: 60px; font-family: BACS"">JmNkGrub</p>","","","","","","","","",""
"html-keyboard-response","334","412935","0.0-16.0-0.2","5ee942381a22491bbb7170f8","650c16f0f2faf8d7a0d14c09","651c1db48a8e7e17c975e12a","null","null","<p style=""font-size: 60px; font-family: BACS"">JmNkGrub</p>","","","","","","","","",""
"html-keyboard-response","335","413947","0.0-16.0-0.3","5ee942381a22491bbb7170f8","650c16f0f2faf8d7a0d14c09","651c1db48a8e7e17c975e12a","null","null","<p style=""font-size: 60px; font-family: BACS"">JmNkGrub</p>","","","","","","","","",""
"html-keyboard-response","336","414950","0.0-16.0-0.4","5ee942381a22491bbb7170f8","650c16f0f2faf8d7a0d14c09","651c1db48a8e7e17c975e12a","null","null","<p style=""font-size: 60px; font-family: BACS"">JmNkGrub</p>","","","","","","","","",""
"html-keyboard-response","337","415964","0.0-16.0-0.5","5ee942381a22491bbb7170f8","650c16f0f2faf8d7a0d14c09","651c1db48a8e7e17c975e12a","null","null","<p style=""font-size: 60px; font-family: BACS"">JmNkGrub</p>","","","","","","","","",""
"html-keyboard-response","338","416990","0.0-16.0-0.6","5ee942381a22491bbb7170f8","650c16f0f2faf8d7a0d14c09","651c1db48a8e7e17c975e12a","null","null","<p style=""font-size: 60px; font-family: BACS"">JmNkGrub</p>","","","","","","","","",""
"html-keyboard-response","339","417995","0.0-16.0-0.7","5ee942381a22491bbb7170f8","650c16f0f2faf8d7a0d14c09","651c1db48a8e7e17c975e12a","null","null","<p style=""font-size: 60px; font-family: BACS"">JmNkGrub</p>","","","","","","","","",""
"html-keyboard-response","340","418998","0.0-16.0-0.8","5ee942381a22491bbb7170f8","650c16f0f2faf8d7a0d14c09","651c1db48a8e7e17c975e12a","null","null","<p style=""font-size: 60px; font-family: BACS"">JmNkGrub</p>","","","","","","","","",""
"html-keyboard-response","341","420011","0.0-16.0-0.9","5ee942381a22491bbb7170f8","650c16f0f2faf8d7a0d14c09","651c1db48a8e7e17c975e12a","null","null","<p style=""font-size: 60px; font-family: BACS"">JmNkGrub</p>","","","","","","","","",""
"html-keyboard-response","342","421026","0.0-16.0-0.10","5ee942381a22491bbb7170f8","650c16f0f2faf8d7a0d14c09","651c1db48a8e7e17c975e12a","null","null","<p style=""font-size: 60px; font-family: BACS"">JmNkGrub</p>","","","","","","","","",""
"html-keyboard-response","343","422036","0.0-16.0-0.11","5ee942381a22491bbb7170f8","650c16f0f2faf8d7a0d14c09","651c1db48a8e7e17c975e12a","null","null","<p style=""font-size: 60px; font-family: BACS"">JmNkGrub</p>","","","","","","","","",""
"html-keyboard-response","344","423039","0.0-16.0-0.12","5ee942381a22491bbb7170f8","650c16f0f2faf8d7a0d14c09","651c1db48a8e7e17c975e12a","null","null","<p style=""font-size: 60px; font-family: BACS"">JmNkGrub</p>","","","","","","","","",""
"html-keyboard-response","345","424044","0.0-16.0-0.13","5ee942381a22491bbb7170f8","650c16f0f2faf8d7a0d14c09","651c1db48a8e7e17c975e12a","null","null","<p style=""font-size: 60px; font-family: BACS"">JmNkGrub</p>","","","","","","","","",""
"html-keyboard-response","346","425057","0.0-16.0-0.14","5ee942381a22491bbb7170f8","650c16f0f2faf8d7a0d14c09","651c1db48a8e7e17c975e12a","null","null","<p style=""font-size: 60px; font-family: BACS"">JmNkGrub</p>","","","","","","","","",""
"html-keyboard-response","347","426069","0.0-16.0-0.15","5ee942381a22491bbb7170f8","650c16f0f2faf8d7a0d14c09","651c1db48a8e7e17c975e12a","null","null","<p style=""font-size: 60px; font-family: BACS"">JmNkGrub</p>","","","","","","","","",""
"html-keyboard-response","348","427093","0.0-16.0-0.16","5ee942381a22491bbb7170f8","650c16f0f2faf8d7a0d14c09","651c1db48a8e7e17c975e12a","null","null","<p style=""font-size: 60px; font-family: BACS"">JmNkGrub</p>","","","","","","","","",""
"html-keyboard-response","349","428100","0.0-16.0-0.17","5ee942381a22491bbb7170f8","650c16f0f2faf8d7a0d14c09","651c1db48a8e7e17c975e12a","null","null","<p style=""font-size: 60px; font-family: BACS"">JmNkGrub</p>","","","","","","","","",""
"html-keyboard-response","350","429109","0.0-16.0-0.18","5ee942381a22491bbb7170f8","650c16f0f2faf8d7a0d14c09","651c1db48a8e7e17c975e12a","null","null","<p style=""font-size: 60px; font-family: BACS"">JmNkGrub</p>","","","","","","","","",""
"html-keyboard-response","351","430122","0.0-16.0-0.19","5ee942381a22491bbb7170f8","650c16f0f2faf8d7a0d14c09","651c1db48a8e7e17c975e12a","null","null","<p style=""font-size: 60px; font-family: BACS"">JmNkGrub</p>","","","","","","","","",""
"html-keyboard-response","352","431128","0.0-16.0-0.20","5ee942381a22491bbb7170f8","650c16f0f2faf8d7a0d14c09","651c1db48a8e7e17c975e12a","null","null","<p style=""font-size: 60px; font-family: BACS"">JmNkGrub</p>","","","","","","","","",""
"html-keyboard-response","353","432136","0.0-16.0-0.21","5ee942381a22491bbb7170f8","650c16f0f2faf8d7a0d14c09","651c1db48a8e7e17c975e12a","null","null","<p style=""font-size: 60px; font-family: BACS"">JmNkGrub</p>","","","","","","","","",""
"html-keyboard-response","354","433138","0.0-16.0-0.22","5ee942381a22491bbb7170f8","650c16f0f2faf8d7a0d14c09","651c1db48a8e7e17c975e12a","null","null","<p style=""font-size: 60px; font-family: BACS"">JmNkGrub</p>","","","","","","","","",""
"html-keyboard-response","355","434153","0.0-16.0-0.23","5ee942381a22491bbb7170f8","650c16f0f2faf8d7a0d14c09","651c1db48a8e7e17c975e12a","null","null","<p style=""font-size: 60px; font-family: BACS"">JmNkGrub</p>","","","","","","","","",""
"html-keyboard-response","356","435166","0.0-16.0-0.24","5ee942381a22491bbb7170f8","650c16f0f2faf8d7a0d14c09","651c1db48a8e7e17c975e12a","null","null","<p style=""font-size: 60px; font-family: BACS"">JmNkGrub</p>","","","","","","","","",""
"html-keyboard-response","357","436178","0.0-16.0-0.25","5ee942381a22491bbb7170f8","650c16f0f2faf8d7a0d14c09","651c1db48a8e7e17c975e12a","null","null","<p style=""font-size: 60px; font-family: BACS"">JmNkGrub</p>","","","","","","","","",""
"html-keyboard-response","358","437186","0.0-16.0-0.26","5ee942381a22491bbb7170f8","650c16f0f2faf8d7a0d14c09","651c1db48a8e7e17c975e12a","null","null","<p style=""font-size: 60px; font-family: BACS"">JmNkGrub</p>","","","","","","","","",""
"html-keyboard-response","359","438195","0.0-16.0-0.27","5ee942381a22491bbb7170f8","650c16f0f2faf8d7a0d14c09","651c1db48a8e7e17c975e12a","null","null","<p style=""font-size: 60px; font-family: BACS"">JmNkGrub</p>","","","","","","","","",""
"html-keyboard-response","360","439219","0.0-16.0-0.28","5ee942381a22491bbb7170f8","650c16f0f2faf8d7a0d14c09","651c1db48a8e7e17c975e12a","null","null","<p style=""font-size: 60px; font-family: BACS"">JmNkGrub</p>","","","","","","","","",""
"html-keyboard-response","361","440231","0.0-16.0-0.29","5ee942381a22491bbb7170f8","650c16f0f2faf8d7a0d14c09","651c1db48a8e7e17c975e12a","null","null","<p style=""font-size: 60px; font-family: BACS"">JmNkGrub</p>","","","","","","","","",""
"html-keyboard-response","362","441264","0.0-16.0-0.30","5ee942381a22491bbb7170f8","650c16f0f2faf8d7a0d14c09","651c1db48a8e7e17c975e12a","null","null","<p style=""font-size: 60px; font-family: BACS"">JmNkGrub</p>","","","","","","","","",""
"html-keyboard-response","363","442277","0.0-16.0-0.31","5ee942381a22491bbb7170f8","650c16f0f2faf8d7a0d14c09","651c1db48a8e7e17c975e12a","null","null","<p style=""font-size: 60px; font-family: BACS"">JmNkGrub</p>","","","","","","","","",""
"html-keyboard-response","364","443287","0.0-16.0-0.32","5ee942381a22491bbb7170f8","650c16f0f2faf8d7a0d14c09","651c1db48a8e7e17c975e12a","null","null","<p style=""font-size: 60px; font-family: BACS"">JmNkGrub</p>","","","","","","","","",""
"html-keyboard-response","365","444302","0.0-16.0-0.33","5ee942381a22491bbb7170f8","650c16f0f2faf8d7a0d14c09","651c1db48a8e7e17c975e12a","null","null","<p style=""font-size: 60px; font-family: BACS"">JmNkGrub</p>","","","","","","","","",""
"html-keyboard-response","366","445308","0.0-16.0-0.34","5ee942381a22491bbb7170f8","650c16f0f2faf8d7a0d14c09","651c1db48a8e7e17c975e12a","null","null","<p style=""font-size: 60px; font-family: BACS"">JmNkGrub</p>","","","","","","","","",""
"html-keyboard-response","367","446320","0.0-16.0-0.35","5ee942381a22491bbb7170f8","650c16f0f2faf8d7a0d14c09","651c1db48a8e7e17c975e12a","null","null","<p style=""font-size: 60px; font-family: BACS"">JmNkGrub</p>","","","","","","","","",""
"html-keyboard-response","368","447331","0.0-16.0-0.36","5ee942381a22491bbb7170f8","650c16f0f2faf8d7a0d14c09","651c1db48a8e7e17c975e12a","null","null","<p style=""font-size: 60px; font-family: BACS"">JmNkGrub</p>","","","","","","","","",""
"html-keyboard-response","369","448339","0.0-16.0-0.37","5ee942381a22491bbb7170f8","650c16f0f2faf8d7a0d14c09","651c1db48a8e7e17c975e12a","null","null","<p style=""font-size: 60px; font-family: BACS"">JmNkGrub</p>","","","","","","","","",""
"html-keyboard-response","370","449353","0.0-16.0-0.38","5ee942381a22491bbb7170f8","650c16f0f2faf8d7a0d14c09","651c1db48a8e7e17c975e12a","null","null","<p style=""font-size: 60px; font-family: BACS"">JmNkGrub</p>","","","","","","","","",""
"html-keyboard-response","371","450362","0.0-16.0-0.39","5ee942381a22491bbb7170f8","650c16f0f2faf8d7a0d14c09","651c1db48a8e7e17c975e12a","null","null","<p style=""font-size: 60px; font-family: BACS"">JmNkGrub</p>","","","","","","","","",""
"html-keyboard-response","372","451371","0.0-16.0-0.40","5ee942381a22491bbb7170f8","650c16f0f2faf8d7a0d14c09","651c1db48a8e7e17c975e12a","null","null","<p style=""font-size: 60px; font-family: BACS"">JmNkGrub</p>","","","","","","","","",""
"html-keyboard-response","373","452381","0.0-16.0-0.41","5ee942381a22491bbb7170f8","650c16f0f2faf8d7a0d14c09","651c1db48a8e7e17c975e12a","null","null","<p style=""font-size: 60px; font-family: BACS"">JmNkGrub</p>","","","","","","","","",""
"html-keyboard-response","374","453384","0.0-16.0-0.42","5ee942381a22491bbb7170f8","650c16f0f2faf8d7a0d14c09","651c1db48a8e7e17c975e12a","null","null","<p style=""font-size: 60px; font-family: BACS"">JmNkGrub</p>","","","","","","","","",""
"html-keyboard-response","375","454392","0.0-16.0-0.43","5ee942381a22491bbb7170f8","650c16f0f2faf8d7a0d14c09","651c1db48a8e7e17c975e12a","null","null","<p style=""font-size: 60px; font-family: BACS"">JmNkGrub</p>","","","","","","","","",""
"html-keyboard-response","376","455399","0.0-16.0-0.44","5ee942381a22491bbb7170f8","650c16f0f2faf8d7a0d14c09","651c1db48a8e7e17c975e12a","null","null","<p style=""font-size: 60px; font-family: BACS"">JmNkGrub</p>","","","","","","","","",""
"html-keyboard-response","377","456407","0.0-16.0-0.45","5ee942381a22491bbb7170f8","650c16f0f2faf8d7a0d14c09","651c1db48a8e7e17c975e12a","null","null","<p style=""font-size: 60px; font-family: BACS"">JmNkGrub</p>","","","","","","","","",""
"html-keyboard-response","378","457412","0.0-16.0-0.46","5ee942381a22491bbb7170f8","650c16f0f2faf8d7a0d14c09","651c1db48a8e7e17c975e12a","null","null","<p style=""font-size: 60px; font-family: BACS"">JmNkGrub</p>","","","","","","","","",""
"html-keyboard-response","379","458427","0.0-16.0-0.47","5ee942381a22491bbb7170f8","650c16f0f2faf8d7a0d14c09","651c1db48a8e7e17c975e12a","null","null","<p style=""font-size: 60px; font-family: BACS"">JmNkGrub</p>","","","","","","","","",""
"html-keyboard-response","380","459428","0.0-16.0-0.48","5ee942381a22491bbb7170f8","650c16f0f2faf8d7a0d14c09","651c1db48a8e7e17c975e12a","null","null","<p style=""font-size: 60px; font-family: BACS"">JmNkGrub</p>","","","","","","","","",""
"html-keyboard-response","381","460440","0.0-16.0-0.49","5ee942381a22491bbb7170f8","650c16f0f2faf8d7a0d14c09","651c1db48a8e7e17c975e12a","null","null","<p style=""font-size: 60px; font-family: BACS"">JmNkGrub</p>","","","","","","","","",""
"html-keyboard-response","382","461448","0.0-16.0-0.50","5ee942381a22491bbb7170f8","650c16f0f2faf8d7a0d14c09","651c1db48a8e7e17c975e12a","null","null","<p style=""font-size: 60px; font-family: BACS"">JmNkGrub</p>","","","","","","","","",""
"html-keyboard-response","383","462458","0.0-16.0-0.51","5ee942381a22491bbb7170f8","650c16f0f2faf8d7a0d14c09","651c1db48a8e7e17c975e12a","null","null","<p style=""font-size: 60px; font-family: BACS"">JmNkGrub</p>","","","","","","","","",""
"html-keyboard-response","384","463463","0.0-16.0-0.52","5ee942381a22491bbb7170f8","650c16f0f2faf8d7a0d14c09","651c1db48a8e7e17c975e12a","null","null","<p style=""font-size: 60px; font-family: BACS"">JmNkGrub</p>","","","","","","","","",""
"html-keyboard-response","385","464475","0.0-16.0-0.53","5ee942381a22491bbb7170f8","650c16f0f2faf8d7a0d14c09","651c1db48a8e7e17c975e12a","null","null","<p style=""font-size: 60px; font-family: BACS"">JmNkGrub</p>","","","","","","","","",""
"html-keyboard-response","386","465488","0.0-16.0-0.54","5ee942381a22491bbb7170f8","650c16f0f2faf8d7a0d14c09","651c1db48a8e7e17c975e12a","null","null","<p style=""font-size: 60px; font-family: BACS"">JmNkGrub</p>","","","","","","","","",""
"html-keyboard-response","387","466493","0.0-16.0-0.55","5ee942381a22491bbb7170f8","650c16f0f2faf8d7a0d14c09","651c1db48a8e7e17c975e12a","null","null","<p style=""font-size: 60px; font-family: BACS"">JmNkGrub</p>","","","","","","","","",""
"html-keyboard-response","388","467494","0.0-16.0-0.56","5ee942381a22491bbb7170f8","650c16f0f2faf8d7a0d14c09","651c1db48a8e7e17c975e12a","null","null","<p style=""font-size: 60px; font-family: BACS"">JmNkGrub</p>","","","","","","","","",""
"html-keyboard-response","389","468507","0.0-16.0-0.57","5ee942381a22491bbb7170f8","650c16f0f2faf8d7a0d14c09","651c1db48a8e7e17c975e12a","null","null","<p style=""font-size: 60px; font-family: BACS"">JmNkGrub</p>","","","","","","","","",""
"html-keyboard-response","390","469513","0.0-16.0-0.58","5ee942381a22491bbb7170f8","650c16f0f2faf8d7a0d14c09","651c1db48a8e7e17c975e12a","null","null","<p style=""font-size: 60px; font-family: BACS"">JmNkGrub</p>","","","","","","","","",""
"html-keyboard-response","391","470516","0.0-16.0-0.59","5ee942381a22491bbb7170f8","650c16f0f2faf8d7a0d14c09","651c1db48a8e7e17c975e12a","null","null","<p style=""font-size: 60px; font-family: BACS"">JmNkGrub</p>","","","","","","","","",""
"html-keyboard-response","392","471541","0.0-16.0-0.60","5ee942381a22491bbb7170f8","650c16f0f2faf8d7a0d14c09","651c1db48a8e7e17c975e12a","null","null","<p style=""font-size: 60px; font-family: BACS"">JmNkGrub</p>","","","","","","","","",""
"html-keyboard-response","393","472551","0.0-16.0-0.61","5ee942381a22491bbb7170f8","650c16f0f2faf8d7a0d14c09","651c1db48a8e7e17c975e12a","null","null","<p style=""font-size: 60px; font-family: BACS"">JmNkGrub</p>","","","","","","","","",""
"html-keyboard-response","394","473557","0.0-16.0-0.62","5ee942381a22491bbb7170f8","650c16f0f2faf8d7a0d14c09","651c1db48a8e7e17c975e12a","null","null","<p style=""font-size: 60px; font-family: BACS"">JmNkGrub</p>","","","","","","","","",""
"html-keyboard-response","395","474569","0.0-16.0-0.63","5ee942381a22491bbb7170f8","650c16f0f2faf8d7a0d14c09","651c1db48a8e7e17c975e12a","null","null","<p style=""font-size: 60px; font-family: BACS"">JmNkGrub</p>","","","","","","","","",""
"html-keyboard-response","396","475576","0.0-16.0-0.64","5ee942381a22491bbb7170f8","650c16f0f2faf8d7a0d14c09","651c1db48a8e7e17c975e12a","null","null","<p style=""font-size: 60px; font-family: BACS"">JmNkGrub</p>","","","","","","","","",""
"html-keyboard-response","397","476588","0.0-16.0-0.65","5ee942381a22491bbb7170f8","650c16f0f2faf8d7a0d14c09","651c1db48a8e7e17c975e12a","null","null","<p style=""font-size: 60px; font-family: BACS"">JmNkGrub</p>","","","","","","","","",""
"html-keyboard-response","398","477596","0.0-16.0-0.66","5ee942381a22491bbb7170f8","650c16f0f2faf8d7a0d14c09","651c1db48a8e7e17c975e12a","null","null","<p style=""font-size: 60px; font-family: BACS"">JmNkGrub</p>","","","","","","","","",""
"html-keyboard-response","399","478599","0.0-16.0-0.67","5ee942381a22491bbb7170f8","650c16f0f2faf8d7a0d14c09","651c1db48a8e7e17c975e12a","null","null","<p style=""font-size: 60px; font-family: BACS"">JmNkGrub</p>","","","","","","","","",""
