"trial_type","trial_index","time_elapsed","internal_node_id","subject_id","study_id","session_id","rt","response","stimulus","success","item","task","correct_response","testing_condition","correct","target","confound","name"
"pavlovia","0","863","0.0-0.0","60f030dca19a06db1b50d16a","650c16f0f2faf8d7a0d14c09","651c1b922918c006a9f5d6de","","","","","","","","","","","",""
"survey-html-form","1","3685","0.0-1.0","60f030dca19a06db1b50d16a","650c16f0f2faf8d7a0d14c09","651c1b922918c006a9f5d6de","2819","{""ID"":""60f030dca19a06db1b50d16a""}","","","","","","","","","",""
"html-keyboard-response","2","15589","0.0-2.0","60f030dca19a06db1b50d16a","650c16f0f2faf8d7a0d14c09","651c1b922918c006a9f5d6de","11903"," ","<p style=""font-size: 15px;"">Before beginning, we ask that you read the consent information and confirm your agreement to participate in the experiment.</p>
      <p style=""font-size: 15px;""> We ask that you remember that this is a research project and that your participation is entirely voluntary. You can stop your participation at any time, without needing to provide any explanation. The study we're asking you to participate in aims at examining how readers process written words. You will be engaged in a session of apprximately 20 minutes, followed by a brief questionnaire. You will have the opportunity to take a few breaks during the experiment. You will be paid £4 for your participation, corresponding to a rate of £8/hour. While this experiment looks at cognitive faculties, this experiment doesn't constitute clinical proof of eventual pathologies.</p>
      <p style=""font-size: 15px;"">All of the information collected thanks to yours and others' participation will be held in a secure password-protected server, and will not be shared with anyone not authorised to view it. Your personal information will be kept with an arbitrary participant ID. Thanks to this data anonymity process, any researcher analysing the data won't be able to track the information back to a specific participant. Therefore, this process will make identifying you impossibile, even when results from the study will be published in scientific reviews, presented at congresses, or at any other public forum. More generally, the collected data will be treated in accordance with the laws on privacy and conformity to the Legislative Degree n. 196 ""Code regarding the protection of personal data"" of the 30th of June 2003 and to the European Regulation 2016/670 (General Data Protection Regulation - GDPR). The Data Protection Officer is Avv. Valentina Carollo, who can be contacted at the following email addresses: <a href=""mailto:dpo@sissa.it"">dpo@sissa.it</a> or <a href=""mailto:rpd@sissa.it"">rpd@sissa.it</a> - PEC: <a href=""mailto:protocollo@pec.sissa.it"">protocollo@pec.sissa.it</a>.</p>
      <p style=""font-size: 15px;""> Before expressing your consent to participate, we would like to remind you again that in case you need explanations on any aspect of the experimental procedure, the researcher is at your disposition (<a href=""mailto:aliebelt@sissa.it"">aliebelt@sissa.it</a>, <a href=""mailto:davide.crepaldi@sissa.it"">davide.crepaldi@sissa.it</a>).</p>
      <p style=""font-size: 15px;"">If you would like to download the informed consent form, you can do so here: <a href=""BASL-Informed_Consent.pdf"" download>informed consent form</a>.</p>
      <p style=""font-size: 15px;"">We ask that you press the spacebar to proceed to the consent section.</p>","","","","","","","","",""
"survey-html-form","3","24869","0.0-3.0","60f030dca19a06db1b50d16a","650c16f0f2faf8d7a0d14c09","651c1b922918c006a9f5d6de","9278","{""consent1"":""YES"",""consent2"":""YES"",""consent3"":""YES"",""consent4"":""YES"",""consent5"":""YES"",""consent6"":""YES""}","","","","","","","","","",""
"fullscreen","4","30391","0.0-4.0","60f030dca19a06db1b50d16a","650c16f0f2faf8d7a0d14c09","651c1b922918c006a9f5d6de","","","","true","","","","","","","",""
"html-keyboard-response","5","42262","0.0-5.0","60f030dca19a06db1b50d16a","650c16f0f2faf8d7a0d14c09","651c1b922918c006a9f5d6de","11869"," ","<p>Welcome, and thank you very much for your time!</p>
      <p>In this experiment, you'll be a language expert who's been asked to take a look at words that Earth has received in its first communication with aliens. Your task, in this first part of the experiment, is to pay close attention to the words you'll be shown; later, world leaders will ask you questions on what you saw. The words will be shown to you quite quickly; it seems that the aliens were in a hurry :-)</p>
      <p>Press the spacebar to continue.<p>","","","","","","","","",""
"html-keyboard-response","6","42325","0.0-6.0","60f030dca19a06db1b50d16a","650c16f0f2faf8d7a0d14c09","651c1b922918c006a9f5d6de","null","null","<p style=""font-size: 120px; font-family: BACS""> </p>","","","","","","","","",""
"html-keyboard-response","7","47035","0.0-7.0","60f030dca19a06db1b50d16a","650c16f0f2faf8d7a0d14c09","651c1b922918c006a9f5d6de","4709"," ","<p>Here is an example of the words you'll see:</p>
      <img src='esempio.png' height='400px'>
      <p>When you're ready to begin, press the spacebar.</p></div>","","","","","","","","",""
"html-keyboard-response","8","48042","0.0-8.0-0.0","60f030dca19a06db1b50d16a","650c16f0f2faf8d7a0d14c09","651c1b922918c006a9f5d6de","null","null","<p style=""font-size: 60px; font-family: BACS"">DBklkPM</p>","","","","","","","","",""
"html-keyboard-response","9","49043","0.0-8.0-0.1","60f030dca19a06db1b50d16a","650c16f0f2faf8d7a0d14c09","651c1b922918c006a9f5d6de","null","null","<p style=""font-size: 60px; font-family: BACS"">JauQrULv</p>","","","","","","","","",""
"html-keyboard-response","10","50057","0.0-8.0-0.2","60f030dca19a06db1b50d16a","650c16f0f2faf8d7a0d14c09","651c1b922918c006a9f5d6de","null","null","<p style=""font-size: 60px; font-family: BACS"">lBKtDmh</p>","","","","","","","","",""
"html-keyboard-response","11","51058","0.0-8.0-0.3","60f030dca19a06db1b50d16a","650c16f0f2faf8d7a0d14c09","651c1b922918c006a9f5d6de","null","null","<p style=""font-size: 60px; font-family: BACS"">OdYPTmTm</p>","","","","","","","","",""
"html-keyboard-response","12","52060","0.0-8.0-0.4","60f030dca19a06db1b50d16a","650c16f0f2faf8d7a0d14c09","651c1b922918c006a9f5d6de","null","null","<p style=""font-size: 60px; font-family: BACS"">AlNUGUa</p>","","","","","","","","",""
"html-keyboard-response","13","53074","0.0-8.0-0.5","60f030dca19a06db1b50d16a","650c16f0f2faf8d7a0d14c09","651c1b922918c006a9f5d6de","null","null","<p style=""font-size: 60px; font-family: BACS"">OdYPOYK</p>","","","","","","","","",""
"html-keyboard-response","14","54075","0.0-8.0-0.6","60f030dca19a06db1b50d16a","650c16f0f2faf8d7a0d14c09","651c1b922918c006a9f5d6de","null","null","<p style=""font-size: 60px; font-family: BACS"">CDEmYDmh</p>","","","","","","","","",""
"html-keyboard-response","15","55076","0.0-8.0-0.7","60f030dca19a06db1b50d16a","650c16f0f2faf8d7a0d14c09","651c1b922918c006a9f5d6de","null","null","<p style=""font-size: 60px; font-family: BACS"">BOckPkPM</p>","","","","","","","","",""
"html-keyboard-response","16","56091","0.0-8.0-0.8","60f030dca19a06db1b50d16a","650c16f0f2faf8d7a0d14c09","651c1b922918c006a9f5d6de","null","null","<p style=""font-size: 60px; font-family: BACS"">GJZmGUa</p>","","","","","","","","",""
"html-keyboard-response","17","57092","0.0-8.0-0.9","60f030dca19a06db1b50d16a","650c16f0f2faf8d7a0d14c09","651c1b922918c006a9f5d6de","null","null","<p style=""font-size: 60px; font-family: BACS"">QcladYZJO</p>","","","","","","","","",""
"html-keyboard-response","18","58093","0.0-8.0-0.10","60f030dca19a06db1b50d16a","650c16f0f2faf8d7a0d14c09","651c1b922918c006a9f5d6de","null","null","<p style=""font-size: 60px; font-family: BACS"">hkRKDmh</p>","","","","","","","","",""
"html-keyboard-response","19","59108","0.0-8.0-0.11","60f030dca19a06db1b50d16a","650c16f0f2faf8d7a0d14c09","651c1b922918c006a9f5d6de","null","null","<p style=""font-size: 60px; font-family: BACS"">CDEmYTmTm</p>","","","","","","","","",""
"html-keyboard-response","20","60109","0.0-8.0-0.12","60f030dca19a06db1b50d16a","650c16f0f2faf8d7a0d14c09","651c1b922918c006a9f5d6de","null","null","<p style=""font-size: 60px; font-family: BACS"">DBklDmh</p>","","","","","","","","",""
"html-keyboard-response","21","61123","0.0-8.0-0.13","60f030dca19a06db1b50d16a","650c16f0f2faf8d7a0d14c09","651c1b922918c006a9f5d6de","null","null","<p style=""font-size: 60px; font-family: BACS"">YdudrULv</p>","","","","","","","","",""
"html-keyboard-response","22","62125","0.0-8.0-0.14","60f030dca19a06db1b50d16a","650c16f0f2faf8d7a0d14c09","651c1b922918c006a9f5d6de","null","null","<p style=""font-size: 60px; font-family: BACS"">LcNUJrNlZ</p>","","","","","","","","",""
"html-keyboard-response","23","63127","0.0-8.0-0.15","60f030dca19a06db1b50d16a","650c16f0f2faf8d7a0d14c09","651c1b922918c006a9f5d6de","null","null","<p style=""font-size: 60px; font-family: BACS"">GumLlvUdm</p>","","","","","","","","",""
"html-keyboard-response","24","64139","0.0-8.0-0.16","60f030dca19a06db1b50d16a","650c16f0f2faf8d7a0d14c09","651c1b922918c006a9f5d6de","null","null","<p style=""font-size: 60px; font-family: BACS"">JauQrNlZ</p>","","","","","","","","",""
"html-keyboard-response","25","65142","0.0-8.0-0.17","60f030dca19a06db1b50d16a","650c16f0f2faf8d7a0d14c09","651c1b922918c006a9f5d6de","null","null","<p style=""font-size: 60px; font-family: BACS"">GJZmvUdm</p>","","","","","","","","",""
"html-keyboard-response","26","66143","0.0-8.0-0.18","60f030dca19a06db1b50d16a","650c16f0f2faf8d7a0d14c09","651c1b922918c006a9f5d6de","null","null","<p style=""font-size: 60px; font-family: BACS"">CDEmYkPM</p>","","","","","","","","",""
"html-keyboard-response","27","67158","0.0-8.0-0.19","60f030dca19a06db1b50d16a","650c16f0f2faf8d7a0d14c09","651c1b922918c006a9f5d6de","null","null","<p style=""font-size: 60px; font-family: BACS"">LcNUJGUa</p>","","","","","","","","",""
"html-keyboard-response","28","68160","0.0-8.0-0.20","60f030dca19a06db1b50d16a","650c16f0f2faf8d7a0d14c09","651c1b922918c006a9f5d6de","null","null","<p style=""font-size: 60px; font-family: BACS"">GJZmrULv</p>","","","","","","","","",""
"html-keyboard-response","29","69173","0.0-8.0-0.21","60f030dca19a06db1b50d16a","650c16f0f2faf8d7a0d14c09","651c1b922918c006a9f5d6de","null","null","<p style=""font-size: 60px; font-family: BACS"">uvaUrNlZ</p>","","","","","","","","",""
"html-keyboard-response","30","70174","0.0-8.0-0.22","60f030dca19a06db1b50d16a","650c16f0f2faf8d7a0d14c09","651c1b922918c006a9f5d6de","null","null","<p style=""font-size: 60px; font-family: BACS"">DBlhOYK</p>","","","","","","","","",""
"html-keyboard-response","31","71175","0.0-8.0-0.23","60f030dca19a06db1b50d16a","650c16f0f2faf8d7a0d14c09","651c1b922918c006a9f5d6de","null","null","<p style=""font-size: 60px; font-family: BACS"">OdYPkPM</p>","","","","","","","","",""
"html-keyboard-response","32","72177","0.0-8.0-0.24","60f030dca19a06db1b50d16a","650c16f0f2faf8d7a0d14c09","651c1b922918c006a9f5d6de","null","null","<p style=""font-size: 60px; font-family: BACS"">UdYUQYZJO</p>","","","","","","","","",""
"html-keyboard-response","33","73191","0.0-8.0-0.25","60f030dca19a06db1b50d16a","650c16f0f2faf8d7a0d14c09","651c1b922918c006a9f5d6de","null","null","<p style=""font-size: 60px; font-family: BACS"">OdYPDmh</p>","","","","","","","","",""
"html-keyboard-response","34","74192","0.0-8.0-0.26","60f030dca19a06db1b50d16a","650c16f0f2faf8d7a0d14c09","651c1b922918c006a9f5d6de","null","null","<p style=""font-size: 60px; font-family: BACS"">lBKtkPM</p>","","","","","","","","",""
"html-keyboard-response","35","75193","0.0-8.0-0.27","60f030dca19a06db1b50d16a","650c16f0f2faf8d7a0d14c09","651c1b922918c006a9f5d6de","null","null","<p style=""font-size: 60px; font-family: BACS"">AlNUvUdm</p>","","","","","","","","",""
"html-keyboard-response","36","76206","0.0-8.0-0.28","60f030dca19a06db1b50d16a","650c16f0f2faf8d7a0d14c09","651c1b922918c006a9f5d6de","null","null","<p style=""font-size: 60px; font-family: BACS"">PDPhlmhc</p>","","","","","","","","",""
"html-keyboard-response","37","77210","0.0-8.0-0.29","60f030dca19a06db1b50d16a","650c16f0f2faf8d7a0d14c09","651c1b922918c006a9f5d6de","null","null","<p style=""font-size: 60px; font-family: BACS"">YdudrNlZ</p>","","","","","","","","",""
"html-keyboard-response","38","78225","0.0-8.0-0.30","60f030dca19a06db1b50d16a","650c16f0f2faf8d7a0d14c09","651c1b922918c006a9f5d6de","null","null","<p style=""font-size: 60px; font-family: BACS"">GJZmYZJO</p>","","","","","","","","",""
"html-keyboard-response","39","79227","0.0-8.0-0.31","60f030dca19a06db1b50d16a","650c16f0f2faf8d7a0d14c09","651c1b922918c006a9f5d6de","null","null","<p style=""font-size: 60px; font-family: BACS"">bcORTmTm</p>","","","","","","","","",""
"html-keyboard-response","40","80238","0.0-8.0-0.32","60f030dca19a06db1b50d16a","650c16f0f2faf8d7a0d14c09","651c1b922918c006a9f5d6de","null","null","<p style=""font-size: 60px; font-family: BACS"">BOckPOYK</p>","","","","","","","","",""
"html-keyboard-response","41","81242","0.0-8.0-0.33","60f030dca19a06db1b50d16a","650c16f0f2faf8d7a0d14c09","651c1b922918c006a9f5d6de","null","null","<p style=""font-size: 60px; font-family: BACS"">UdYUQrULv</p>","","","","","","","","",""
"html-keyboard-response","42","82243","0.0-8.0-0.34","60f030dca19a06db1b50d16a","650c16f0f2faf8d7a0d14c09","651c1b922918c006a9f5d6de","null","null","<p style=""font-size: 60px; font-family: BACS"">OZkbrNlZ</p>","","","","","","","","",""
"html-keyboard-response","43","83244","0.0-8.0-0.35","60f030dca19a06db1b50d16a","650c16f0f2faf8d7a0d14c09","651c1b922918c006a9f5d6de","null","null","<p style=""font-size: 60px; font-family: BACS"">hkRKkPM</p>","","","","","","","","",""
"html-keyboard-response","44","84257","0.0-8.0-0.36","60f030dca19a06db1b50d16a","650c16f0f2faf8d7a0d14c09","651c1b922918c006a9f5d6de","null","null","<p style=""font-size: 60px; font-family: BACS"">QcladrNlZ</p>","","","","","","","","",""
"html-keyboard-response","45","85259","0.0-8.0-0.37","60f030dca19a06db1b50d16a","650c16f0f2faf8d7a0d14c09","651c1b922918c006a9f5d6de","null","null","<p style=""font-size: 60px; font-family: BACS"">BOckPTmTm</p>","","","","","","","","",""
"html-keyboard-response","46","86274","0.0-8.0-0.38","60f030dca19a06db1b50d16a","650c16f0f2faf8d7a0d14c09","651c1b922918c006a9f5d6de","null","null","<p style=""font-size: 60px; font-family: BACS"">uvaUvUdm</p>","","","","","","","","",""
"html-keyboard-response","47","87275","0.0-8.0-0.39","60f030dca19a06db1b50d16a","650c16f0f2faf8d7a0d14c09","651c1b922918c006a9f5d6de","null","null","<p style=""font-size: 60px; font-family: BACS"">DBklOYK</p>","","","","","","","","",""
"html-keyboard-response","48","88276","0.0-8.0-0.40","60f030dca19a06db1b50d16a","650c16f0f2faf8d7a0d14c09","651c1b922918c006a9f5d6de","null","null","<p style=""font-size: 60px; font-family: BACS"">CDEmYmhc</p>","","","","","","","","",""
"html-keyboard-response","49","89291","0.0-8.0-0.41","60f030dca19a06db1b50d16a","650c16f0f2faf8d7a0d14c09","651c1b922918c006a9f5d6de","null","null","<p style=""font-size: 60px; font-family: BACS"">bcORDmh</p>","","","","","","","","",""
"html-keyboard-response","50","90292","0.0-8.0-0.42","60f030dca19a06db1b50d16a","650c16f0f2faf8d7a0d14c09","651c1b922918c006a9f5d6de","null","null","<p style=""font-size: 60px; font-family: BACS"">QcladGUa</p>","","","","","","","","",""
"html-keyboard-response","51","91293","0.0-8.0-0.43","60f030dca19a06db1b50d16a","650c16f0f2faf8d7a0d14c09","651c1b922918c006a9f5d6de","null","null","<p style=""font-size: 60px; font-family: BACS"">PDPhlTmTm</p>","","","","","","","","",""
"html-keyboard-response","52","92308","0.0-8.0-0.44","60f030dca19a06db1b50d16a","650c16f0f2faf8d7a0d14c09","651c1b922918c006a9f5d6de","null","null","<p style=""font-size: 60px; font-family: BACS"">AlNUrULv</p>","","","","","","","","",""
"html-keyboard-response","53","93310","0.0-8.0-0.45","60f030dca19a06db1b50d16a","650c16f0f2faf8d7a0d14c09","651c1b922918c006a9f5d6de","null","null","<p style=""font-size: 60px; font-family: BACS"">bcOROYK</p>","","","","","","","","",""
"html-keyboard-response","54","94325","0.0-8.0-0.46","60f030dca19a06db1b50d16a","650c16f0f2faf8d7a0d14c09","651c1b922918c006a9f5d6de","null","null","<p style=""font-size: 60px; font-family: BACS"">kPkRATmTm</p>","","","","","","","","",""
"html-keyboard-response","55","95326","0.0-8.0-0.47","60f030dca19a06db1b50d16a","650c16f0f2faf8d7a0d14c09","651c1b922918c006a9f5d6de","null","null","<p style=""font-size: 60px; font-family: BACS"">PDPhlkPM</p>","","","","","","","","",""
"html-keyboard-response","56","96341","0.0-8.0-0.48","60f030dca19a06db1b50d16a","650c16f0f2faf8d7a0d14c09","651c1b922918c006a9f5d6de","null","null","<p style=""font-size: 60px; font-family: BACS"">lBKtmhc</p>","","","","","","","","",""
"html-keyboard-response","57","97343","0.0-8.0-0.49","60f030dca19a06db1b50d16a","650c16f0f2faf8d7a0d14c09","651c1b922918c006a9f5d6de","null","null","<p style=""font-size: 60px; font-family: BACS"">kPkRAOYK</p>","","","","","","","","",""
"html-keyboard-response","58","98357","0.0-8.0-0.50","60f030dca19a06db1b50d16a","650c16f0f2faf8d7a0d14c09","651c1b922918c006a9f5d6de","null","null","<p style=""font-size: 60px; font-family: BACS"">QcladrULv</p>","","","","","","","","",""
"html-keyboard-response","59","99358","0.0-8.0-0.51","60f030dca19a06db1b50d16a","650c16f0f2faf8d7a0d14c09","651c1b922918c006a9f5d6de","null","null","<p style=""font-size: 60px; font-family: BACS"">BOckPmhc</p>","","","","","","","","",""
"html-keyboard-response","60","100360","0.0-8.0-0.52","60f030dca19a06db1b50d16a","650c16f0f2faf8d7a0d14c09","651c1b922918c006a9f5d6de","null","null","<p style=""font-size: 60px; font-family: BACS"">DBlhDmh</p>","","","","","","","","",""
"html-keyboard-response","61","101375","0.0-8.0-0.53","60f030dca19a06db1b50d16a","650c16f0f2faf8d7a0d14c09","651c1b922918c006a9f5d6de","null","null","<p style=""font-size: 60px; font-family: BACS"">hkRKmhc</p>","","","","","","","","",""
"html-keyboard-response","62","102376","0.0-8.0-0.54","60f030dca19a06db1b50d16a","650c16f0f2faf8d7a0d14c09","651c1b922918c006a9f5d6de","null","null","<p style=""font-size: 60px; font-family: BACS"">JauQvUdm</p>","","","","","","","","",""
"html-keyboard-response","63","103392","0.0-8.0-0.55","60f030dca19a06db1b50d16a","650c16f0f2faf8d7a0d14c09","651c1b922918c006a9f5d6de","null","null","<p style=""font-size: 60px; font-family: BACS"">uvaUrULv</p>","","","","","","","","",""
"html-keyboard-response","64","104393","0.0-8.0-0.56","60f030dca19a06db1b50d16a","650c16f0f2faf8d7a0d14c09","651c1b922918c006a9f5d6de","null","null","<p style=""font-size: 60px; font-family: BACS"">UdYUQrNlZ</p>","","","","","","","","",""
"html-keyboard-response","65","105407","0.0-8.0-0.57","60f030dca19a06db1b50d16a","650c16f0f2faf8d7a0d14c09","651c1b922918c006a9f5d6de","null","null","<p style=""font-size: 60px; font-family: BACS"">DBlhmhc</p>","","","","","","","","",""
"html-keyboard-response","66","106408","0.0-8.0-0.58","60f030dca19a06db1b50d16a","650c16f0f2faf8d7a0d14c09","651c1b922918c006a9f5d6de","null","null","<p style=""font-size: 60px; font-family: BACS"">LcNUJYZJO</p>","","","","","","","","",""
"html-keyboard-response","67","107409","0.0-8.0-0.59","60f030dca19a06db1b50d16a","650c16f0f2faf8d7a0d14c09","651c1b922918c006a9f5d6de","null","null","<p style=""font-size: 60px; font-family: BACS"">bcORmhc</p>","","","","","","","","",""
"html-keyboard-response","68","108422","0.0-8.0-0.60","60f030dca19a06db1b50d16a","650c16f0f2faf8d7a0d14c09","651c1b922918c006a9f5d6de","null","null","<p style=""font-size: 60px; font-family: BACS"">GumLlYZJO</p>","","","","","","","","",""
"html-keyboard-response","69","109425","0.0-8.0-0.61","60f030dca19a06db1b50d16a","650c16f0f2faf8d7a0d14c09","651c1b922918c006a9f5d6de","null","null","<p style=""font-size: 60px; font-family: BACS"">LcNUJvUdm</p>","","","","","","","","",""
"html-keyboard-response","70","110426","0.0-8.0-0.62","60f030dca19a06db1b50d16a","650c16f0f2faf8d7a0d14c09","651c1b922918c006a9f5d6de","null","null","<p style=""font-size: 60px; font-family: BACS"">hkRKOYK</p>","","","","","","","","",""
"html-keyboard-response","71","111442","0.0-8.0-0.63","60f030dca19a06db1b50d16a","650c16f0f2faf8d7a0d14c09","651c1b922918c006a9f5d6de","null","null","<p style=""font-size: 60px; font-family: BACS"">GumLlrULv</p>","","","","","","","","",""
"html-keyboard-response","72","112443","0.0-8.0-0.64","60f030dca19a06db1b50d16a","650c16f0f2faf8d7a0d14c09","651c1b922918c006a9f5d6de","null","null","<p style=""font-size: 60px; font-family: BACS"">UdYUQvUdm</p>","","","","","","","","",""
"html-keyboard-response","73","113453","0.0-8.0-0.65","60f030dca19a06db1b50d16a","650c16f0f2faf8d7a0d14c09","651c1b922918c006a9f5d6de","null","null","<p style=""font-size: 60px; font-family: BACS"">OZkbGUa</p>","","","","","","","","",""
"html-keyboard-response","74","114455","0.0-8.0-0.66","60f030dca19a06db1b50d16a","650c16f0f2faf8d7a0d14c09","651c1b922918c006a9f5d6de","null","null","<p style=""font-size: 60px; font-family: BACS"">PDPhlOYK</p>","","","","","","","","",""
"html-keyboard-response","75","115458","0.0-8.0-0.67","60f030dca19a06db1b50d16a","650c16f0f2faf8d7a0d14c09","651c1b922918c006a9f5d6de","null","null","<p style=""font-size: 60px; font-family: BACS"">DBklTmTm</p>","","","","","","","","",""
"html-keyboard-response","76","116460","0.0-8.0-0.68","60f030dca19a06db1b50d16a","650c16f0f2faf8d7a0d14c09","651c1b922918c006a9f5d6de","null","null","<p style=""font-size: 60px; font-family: BACS"">YdudYZJO</p>","","","","","","","","",""
"html-keyboard-response","77","117474","0.0-8.0-0.69","60f030dca19a06db1b50d16a","650c16f0f2faf8d7a0d14c09","651c1b922918c006a9f5d6de","null","null","<p style=""font-size: 60px; font-family: BACS"">uvaUGUa</p>","","","","","","","","",""
"html-keyboard-response","78","118475","0.0-8.0-0.70","60f030dca19a06db1b50d16a","650c16f0f2faf8d7a0d14c09","651c1b922918c006a9f5d6de","null","null","<p style=""font-size: 60px; font-family: BACS"">kPkRADmh</p>","","","","","","","","",""
"html-keyboard-response","79","119477","0.0-8.0-0.71","60f030dca19a06db1b50d16a","650c16f0f2faf8d7a0d14c09","651c1b922918c006a9f5d6de","null","null","<p style=""font-size: 60px; font-family: BACS"">GumLlrNlZ</p>","","","","","","","","",""
"html-keyboard-response","80","120482","0.0-8.0-0.72","60f030dca19a06db1b50d16a","650c16f0f2faf8d7a0d14c09","651c1b922918c006a9f5d6de","null","null","<p style=""font-size: 60px; font-family: BACS"">kPkRAmhc</p>","","","","","","","","",""
"html-keyboard-response","81","121491","0.0-8.0-0.73","60f030dca19a06db1b50d16a","650c16f0f2faf8d7a0d14c09","651c1b922918c006a9f5d6de","null","null","<p style=""font-size: 60px; font-family: BACS"">AlNUYZJO</p>","","","","","","","","",""
"html-keyboard-response","82","122493","0.0-8.0-0.74","60f030dca19a06db1b50d16a","650c16f0f2faf8d7a0d14c09","651c1b922918c006a9f5d6de","null","null","<p style=""font-size: 60px; font-family: BACS"">JauQGUa</p>","","","","","","","","",""
"html-keyboard-response","83","123493","0.0-8.0-0.75","60f030dca19a06db1b50d16a","650c16f0f2faf8d7a0d14c09","651c1b922918c006a9f5d6de","null","null","<p style=""font-size: 60px; font-family: BACS"">DBlhkPM</p>","","","","","","","","",""
"html-keyboard-response","84","124508","0.0-8.0-0.76","60f030dca19a06db1b50d16a","650c16f0f2faf8d7a0d14c09","651c1b922918c006a9f5d6de","null","null","<p style=""font-size: 60px; font-family: BACS"">OZkbYZJO</p>","","","","","","","","",""
"html-keyboard-response","85","125508","0.0-8.0-0.77","60f030dca19a06db1b50d16a","650c16f0f2faf8d7a0d14c09","651c1b922918c006a9f5d6de","null","null","<p style=""font-size: 60px; font-family: BACS"">YdudGUa</p>","","","","","","","","",""
"html-keyboard-response","86","126510","0.0-8.0-0.78","60f030dca19a06db1b50d16a","650c16f0f2faf8d7a0d14c09","651c1b922918c006a9f5d6de","null","null","<p style=""font-size: 60px; font-family: BACS"">lBKtTmTm</p>","","","","","","","","",""
"html-keyboard-response","87","127526","0.0-8.0-0.79","60f030dca19a06db1b50d16a","650c16f0f2faf8d7a0d14c09","651c1b922918c006a9f5d6de","null","null","<p style=""font-size: 60px; font-family: BACS"">OZkbvUdm</p>","","","","","","","","",""
"html-keyboard-response","88","924442","0.0-9.0","60f030dca19a06db1b50d16a","650c16f0f2faf8d7a0d14c09","651c1b922918c006a9f5d6de","796916"," ","<p>Great, you've seen the first block of words. You may now take a short break.</p>
      <p>Press the spacebar when you're ready to continue.</p>","","","","","","","","",""
"html-keyboard-response","89","925448","0.0-10.0-0.0","60f030dca19a06db1b50d16a","650c16f0f2faf8d7a0d14c09","651c1b922918c006a9f5d6de","null","null","<p style=""font-size: 60px; font-family: BACS"">UdYUQrULv</p>","","","","","","","","",""
"html-keyboard-response","90","926449","0.0-10.0-0.1","60f030dca19a06db1b50d16a","650c16f0f2faf8d7a0d14c09","651c1b922918c006a9f5d6de","null","null","<p style=""font-size: 60px; font-family: BACS"">CDEmYmhc</p>","","","","","","","","",""
"html-keyboard-response","91","927450","0.0-10.0-0.2","60f030dca19a06db1b50d16a","650c16f0f2faf8d7a0d14c09","651c1b922918c006a9f5d6de","null","null","<p style=""font-size: 60px; font-family: BACS"">OZkbvUdm</p>","","","","","","","","",""
"html-keyboard-response","92","928450","0.0-10.0-0.3","60f030dca19a06db1b50d16a","650c16f0f2faf8d7a0d14c09","651c1b922918c006a9f5d6de","null","null","<p style=""font-size: 60px; font-family: BACS"">kPkRAOYK</p>","","","","","","","","",""
"html-keyboard-response","93","929450","0.0-10.0-0.4","60f030dca19a06db1b50d16a","650c16f0f2faf8d7a0d14c09","651c1b922918c006a9f5d6de","null","null","<p style=""font-size: 60px; font-family: BACS"">lBKtTmTm</p>","","","","","","","","",""
"html-keyboard-response","94","930452","0.0-10.0-0.5","60f030dca19a06db1b50d16a","650c16f0f2faf8d7a0d14c09","651c1b922918c006a9f5d6de","null","null","<p style=""font-size: 60px; font-family: BACS"">kPkRAmhc</p>","","","","","","","","",""
"html-keyboard-response","95","931466","0.0-10.0-0.6","60f030dca19a06db1b50d16a","650c16f0f2faf8d7a0d14c09","651c1b922918c006a9f5d6de","null","null","<p style=""font-size: 60px; font-family: BACS"">DBlhOYK</p>","","","","","","","","",""
"html-keyboard-response","96","932467","0.0-10.0-0.7","60f030dca19a06db1b50d16a","650c16f0f2faf8d7a0d14c09","651c1b922918c006a9f5d6de","null","null","<p style=""font-size: 60px; font-family: BACS"">bcORTmTm</p>","","","","","","","","",""
"html-keyboard-response","97","933468","0.0-10.0-0.8","60f030dca19a06db1b50d16a","650c16f0f2faf8d7a0d14c09","651c1b922918c006a9f5d6de","null","null","<p style=""font-size: 60px; font-family: BACS"">QcladGUa</p>","","","","","","","","",""
"html-keyboard-response","98","934470","0.0-10.0-0.9","60f030dca19a06db1b50d16a","650c16f0f2faf8d7a0d14c09","651c1b922918c006a9f5d6de","null","null","<p style=""font-size: 60px; font-family: BACS"">PDPhlkPM</p>","","","","","","","","",""
"html-keyboard-response","99","935482","0.0-10.0-0.10","60f030dca19a06db1b50d16a","650c16f0f2faf8d7a0d14c09","651c1b922918c006a9f5d6de","null","null","<p style=""font-size: 60px; font-family: BACS"">QcladrNlZ</p>","","","","","","","","",""
"html-keyboard-response","100","936484","0.0-10.0-0.11","60f030dca19a06db1b50d16a","650c16f0f2faf8d7a0d14c09","651c1b922918c006a9f5d6de","null","null","<p style=""font-size: 60px; font-family: BACS"">AlNUGUa</p>","","","","","","","","",""
"html-keyboard-response","101","937485","0.0-10.0-0.12","60f030dca19a06db1b50d16a","650c16f0f2faf8d7a0d14c09","651c1b922918c006a9f5d6de","null","null","<p style=""font-size: 60px; font-family: BACS"">BOckPkPM</p>","","","","","","","","",""
"html-keyboard-response","102","938499","0.0-10.0-0.13","60f030dca19a06db1b50d16a","650c16f0f2faf8d7a0d14c09","651c1b922918c006a9f5d6de","null","null","<p style=""font-size: 60px; font-family: BACS"">JauQrULv</p>","","","","","","","","",""
"html-keyboard-response","103","939500","0.0-10.0-0.14","60f030dca19a06db1b50d16a","650c16f0f2faf8d7a0d14c09","651c1b922918c006a9f5d6de","null","null","<p style=""font-size: 60px; font-family: BACS"">lBKtmhc</p>","","","","","","","","",""
"html-keyboard-response","104","940502","0.0-10.0-0.15","60f030dca19a06db1b50d16a","650c16f0f2faf8d7a0d14c09","651c1b922918c006a9f5d6de","null","null","<p style=""font-size: 60px; font-family: BACS"">bcOROYK</p>","","","","","","","","",""
"html-keyboard-response","105","941516","0.0-10.0-0.16","60f030dca19a06db1b50d16a","650c16f0f2faf8d7a0d14c09","651c1b922918c006a9f5d6de","null","null","<p style=""font-size: 60px; font-family: BACS"">GumLlYZJO</p>","","","","","","","","",""
"html-keyboard-response","106","942517","0.0-10.0-0.17","60f030dca19a06db1b50d16a","650c16f0f2faf8d7a0d14c09","651c1b922918c006a9f5d6de","null","null","<p style=""font-size: 60px; font-family: BACS"">CDEmYTmTm</p>","","","","","","","","",""
"html-keyboard-response","107","943518","0.0-10.0-0.18","60f030dca19a06db1b50d16a","650c16f0f2faf8d7a0d14c09","651c1b922918c006a9f5d6de","null","null","<p style=""font-size: 60px; font-family: BACS"">OdYPDmh</p>","","","","","","","","",""
"html-keyboard-response","108","944532","0.0-10.0-0.19","60f030dca19a06db1b50d16a","650c16f0f2faf8d7a0d14c09","651c1b922918c006a9f5d6de","null","null","<p style=""font-size: 60px; font-family: BACS"">YdudrNlZ</p>","","","","","","","","",""
"html-keyboard-response","109","945532","0.0-10.0-0.20","60f030dca19a06db1b50d16a","650c16f0f2faf8d7a0d14c09","651c1b922918c006a9f5d6de","null","null","<p style=""font-size: 60px; font-family: BACS"">JauQvUdm</p>","","","","","","","","",""
"html-keyboard-response","110","946533","0.0-10.0-0.21","60f030dca19a06db1b50d16a","650c16f0f2faf8d7a0d14c09","651c1b922918c006a9f5d6de","null","null","<p style=""font-size: 60px; font-family: BACS"">DBklkPM</p>","","","","","","","","",""
"html-keyboard-response","111","947535","0.0-10.0-0.22","60f030dca19a06db1b50d16a","650c16f0f2faf8d7a0d14c09","651c1b922918c006a9f5d6de","null","null","<p style=""font-size: 60px; font-family: BACS"">GJZmYZJO</p>","","","","","","","","",""
"html-keyboard-response","112","948546","0.0-10.0-0.23","60f030dca19a06db1b50d16a","650c16f0f2faf8d7a0d14c09","651c1b922918c006a9f5d6de","null","null","<p style=""font-size: 60px; font-family: BACS"">DBklDmh</p>","","","","","","","","",""
"html-keyboard-response","113","949550","0.0-10.0-0.24","60f030dca19a06db1b50d16a","650c16f0f2faf8d7a0d14c09","651c1b922918c006a9f5d6de","null","null","<p style=""font-size: 60px; font-family: BACS"">hkRKkPM</p>","","","","","","","","",""
"html-keyboard-response","114","950552","0.0-10.0-0.25","60f030dca19a06db1b50d16a","650c16f0f2faf8d7a0d14c09","651c1b922918c006a9f5d6de","null","null","<p style=""font-size: 60px; font-family: BACS"">kPkRATmTm</p>","","","","","","","","",""
"html-keyboard-response","115","951565","0.0-10.0-0.26","60f030dca19a06db1b50d16a","650c16f0f2faf8d7a0d14c09","651c1b922918c006a9f5d6de","null","null","<p style=""font-size: 60px; font-family: BACS"">GumLlrULv</p>","","","","","","","","",""
"html-keyboard-response","116","952566","0.0-10.0-0.27","60f030dca19a06db1b50d16a","650c16f0f2faf8d7a0d14c09","651c1b922918c006a9f5d6de","null","null","<p style=""font-size: 60px; font-family: BACS"">YdudGUa</p>","","","","","","","","",""
"html-keyboard-response","117","953567","0.0-10.0-0.28","60f030dca19a06db1b50d16a","650c16f0f2faf8d7a0d14c09","651c1b922918c006a9f5d6de","null","null","<p style=""font-size: 60px; font-family: BACS"">OdYPkPM</p>","","","","","","","","",""
"html-keyboard-response","118","954583","0.0-10.0-0.29","60f030dca19a06db1b50d16a","650c16f0f2faf8d7a0d14c09","651c1b922918c006a9f5d6de","null","null","<p style=""font-size: 60px; font-family: BACS"">YdudYZJO</p>","","","","","","","","",""
"html-keyboard-response","119","955585","0.0-10.0-0.30","60f030dca19a06db1b50d16a","650c16f0f2faf8d7a0d14c09","651c1b922918c006a9f5d6de","null","null","<p style=""font-size: 60px; font-family: BACS"">GJZmvUdm</p>","","","","","","","","",""
"html-keyboard-response","120","956599","0.0-10.0-0.31","60f030dca19a06db1b50d16a","650c16f0f2faf8d7a0d14c09","651c1b922918c006a9f5d6de","null","null","<p style=""font-size: 60px; font-family: BACS"">YdudrULv</p>","","","","","","","","",""
"html-keyboard-response","121","957600","0.0-10.0-0.32","60f030dca19a06db1b50d16a","650c16f0f2faf8d7a0d14c09","651c1b922918c006a9f5d6de","null","null","<p style=""font-size: 60px; font-family: BACS"">PDPhlmhc</p>","","","","","","","","",""
"html-keyboard-response","122","958616","0.0-10.0-0.33","60f030dca19a06db1b50d16a","650c16f0f2faf8d7a0d14c09","651c1b922918c006a9f5d6de","null","null","<p style=""font-size: 60px; font-family: BACS"">OZkbrNlZ</p>","","","","","","","","",""
"html-keyboard-response","123","959618","0.0-10.0-0.34","60f030dca19a06db1b50d16a","650c16f0f2faf8d7a0d14c09","651c1b922918c006a9f5d6de","null","null","<p style=""font-size: 60px; font-family: BACS"">LcNUJvUdm</p>","","","","","","","","",""
"html-keyboard-response","124","960633","0.0-10.0-0.35","60f030dca19a06db1b50d16a","650c16f0f2faf8d7a0d14c09","651c1b922918c006a9f5d6de","null","null","<p style=""font-size: 60px; font-family: BACS"">JauQrNlZ</p>","","","","","","","","",""
"html-keyboard-response","125","961635","0.0-10.0-0.36","60f030dca19a06db1b50d16a","650c16f0f2faf8d7a0d14c09","651c1b922918c006a9f5d6de","null","null","<p style=""font-size: 60px; font-family: BACS"">DBklTmTm</p>","","","","","","","","",""
"html-keyboard-response","126","962649","0.0-10.0-0.37","60f030dca19a06db1b50d16a","650c16f0f2faf8d7a0d14c09","651c1b922918c006a9f5d6de","null","null","<p style=""font-size: 60px; font-family: BACS"">LcNUJrNlZ</p>","","","","","","","","",""
"html-keyboard-response","127","963651","0.0-10.0-0.38","60f030dca19a06db1b50d16a","650c16f0f2faf8d7a0d14c09","651c1b922918c006a9f5d6de","null","null","<p style=""font-size: 60px; font-family: BACS"">lBKtDmh</p>","","","","","","","","",""
"html-keyboard-response","128","964666","0.0-10.0-0.39","60f030dca19a06db1b50d16a","650c16f0f2faf8d7a0d14c09","651c1b922918c006a9f5d6de","null","null","<p style=""font-size: 60px; font-family: BACS"">UdYUQrNlZ</p>","","","","","","","","",""
"html-keyboard-response","129","965667","0.0-10.0-0.40","60f030dca19a06db1b50d16a","650c16f0f2faf8d7a0d14c09","651c1b922918c006a9f5d6de","null","null","<p style=""font-size: 60px; font-family: BACS"">QcladYZJO</p>","","","","","","","","",""
"html-keyboard-response","130","966668","0.0-10.0-0.41","60f030dca19a06db1b50d16a","650c16f0f2faf8d7a0d14c09","651c1b922918c006a9f5d6de","null","null","<p style=""font-size: 60px; font-family: BACS"">CDEmYDmh</p>","","","","","","","","",""
"html-keyboard-response","131","967682","0.0-10.0-0.42","60f030dca19a06db1b50d16a","650c16f0f2faf8d7a0d14c09","651c1b922918c006a9f5d6de","null","null","<p style=""font-size: 60px; font-family: BACS"">BOckPTmTm</p>","","","","","","","","",""
"html-keyboard-response","132","968684","0.0-10.0-0.43","60f030dca19a06db1b50d16a","650c16f0f2faf8d7a0d14c09","651c1b922918c006a9f5d6de","null","null","<p style=""font-size: 60px; font-family: BACS"">hkRKmhc</p>","","","","","","","","",""
"html-keyboard-response","133","969685","0.0-10.0-0.44","60f030dca19a06db1b50d16a","650c16f0f2faf8d7a0d14c09","651c1b922918c006a9f5d6de","null","null","<p style=""font-size: 60px; font-family: BACS"">DBlhkPM</p>","","","","","","","","",""
"html-keyboard-response","134","970700","0.0-10.0-0.45","60f030dca19a06db1b50d16a","650c16f0f2faf8d7a0d14c09","651c1b922918c006a9f5d6de","null","null","<p style=""font-size: 60px; font-family: BACS"">OZkbYZJO</p>","","","","","","","","",""
"html-keyboard-response","135","971701","0.0-10.0-0.46","60f030dca19a06db1b50d16a","650c16f0f2faf8d7a0d14c09","651c1b922918c006a9f5d6de","null","null","<p style=""font-size: 60px; font-family: BACS"">UdYUQvUdm</p>","","","","","","","","",""
"html-keyboard-response","136","972703","0.0-10.0-0.47","60f030dca19a06db1b50d16a","650c16f0f2faf8d7a0d14c09","651c1b922918c006a9f5d6de","null","null","<p style=""font-size: 60px; font-family: BACS"">JauQGUa</p>","","","","","","","","",""
"html-keyboard-response","137","973716","0.0-10.0-0.48","60f030dca19a06db1b50d16a","650c16f0f2faf8d7a0d14c09","651c1b922918c006a9f5d6de","null","null","<p style=""font-size: 60px; font-family: BACS"">OdYPTmTm</p>","","","","","","","","",""
"html-keyboard-response","138","974717","0.0-10.0-0.49","60f030dca19a06db1b50d16a","650c16f0f2faf8d7a0d14c09","651c1b922918c006a9f5d6de","null","null","<p style=""font-size: 60px; font-family: BACS"">UdYUQYZJO</p>","","","","","","","","",""
"html-keyboard-response","139","975718","0.0-10.0-0.50","60f030dca19a06db1b50d16a","650c16f0f2faf8d7a0d14c09","651c1b922918c006a9f5d6de","null","null","<p style=""font-size: 60px; font-family: BACS"">lBKtkPM</p>","","","","","","","","",""
"html-keyboard-response","140","976733","0.0-10.0-0.51","60f030dca19a06db1b50d16a","650c16f0f2faf8d7a0d14c09","651c1b922918c006a9f5d6de","null","null","<p style=""font-size: 60px; font-family: BACS"">kPkRADmh</p>","","","","","","","","",""
"html-keyboard-response","141","977734","0.0-10.0-0.52","60f030dca19a06db1b50d16a","650c16f0f2faf8d7a0d14c09","651c1b922918c006a9f5d6de","null","null","<p style=""font-size: 60px; font-family: BACS"">uvaUGUa</p>","","","","","","","","",""
"html-keyboard-response","142","978747","0.0-10.0-0.53","60f030dca19a06db1b50d16a","650c16f0f2faf8d7a0d14c09","651c1b922918c006a9f5d6de","null","null","<p style=""font-size: 60px; font-family: BACS"">GJZmrULv</p>","","","","","","","","",""
"html-keyboard-response","143","979749","0.0-10.0-0.54","60f030dca19a06db1b50d16a","650c16f0f2faf8d7a0d14c09","651c1b922918c006a9f5d6de","null","null","<p style=""font-size: 60px; font-family: BACS"">OdYPOYK</p>","","","","","","","","",""
"html-keyboard-response","144","980751","0.0-10.0-0.55","60f030dca19a06db1b50d16a","650c16f0f2faf8d7a0d14c09","651c1b922918c006a9f5d6de","null","null","<p style=""font-size: 60px; font-family: BACS"">GJZmGUa</p>","","","","","","","","",""
"html-keyboard-response","145","981767","0.0-10.0-0.56","60f030dca19a06db1b50d16a","650c16f0f2faf8d7a0d14c09","651c1b922918c006a9f5d6de","null","null","<p style=""font-size: 60px; font-family: BACS"">bcORDmh</p>","","","","","","","","",""
"html-keyboard-response","146","982767","0.0-10.0-0.57","60f030dca19a06db1b50d16a","650c16f0f2faf8d7a0d14c09","651c1b922918c006a9f5d6de","null","null","<p style=""font-size: 60px; font-family: BACS"">PDPhlTmTm</p>","","","","","","","","",""
"html-keyboard-response","147","983768","0.0-10.0-0.58","60f030dca19a06db1b50d16a","650c16f0f2faf8d7a0d14c09","651c1b922918c006a9f5d6de","null","null","<p style=""font-size: 60px; font-family: BACS"">CDEmYkPM</p>","","","","","","","","",""
"html-keyboard-response","148","984785","0.0-10.0-0.59","60f030dca19a06db1b50d16a","650c16f0f2faf8d7a0d14c09","651c1b922918c006a9f5d6de","null","null","<p style=""font-size: 60px; font-family: BACS"">AlNUvUdm</p>","","","","","","","","",""
"html-keyboard-response","149","985786","0.0-10.0-0.60","60f030dca19a06db1b50d16a","650c16f0f2faf8d7a0d14c09","651c1b922918c006a9f5d6de","null","null","<p style=""font-size: 60px; font-family: BACS"">OZkbGUa</p>","","","","","","","","",""
"html-keyboard-response","150","986801","0.0-10.0-0.61","60f030dca19a06db1b50d16a","650c16f0f2faf8d7a0d14c09","651c1b922918c006a9f5d6de","null","null","<p style=""font-size: 60px; font-family: BACS"">GumLlvUdm</p>","","","","","","","","",""
"html-keyboard-response","151","987802","0.0-10.0-0.62","60f030dca19a06db1b50d16a","650c16f0f2faf8d7a0d14c09","651c1b922918c006a9f5d6de","null","null","<p style=""font-size: 60px; font-family: BACS"">QcladrULv</p>","","","","","","","","",""
"html-keyboard-response","152","988802","0.0-10.0-0.63","60f030dca19a06db1b50d16a","650c16f0f2faf8d7a0d14c09","651c1b922918c006a9f5d6de","null","null","<p style=""font-size: 60px; font-family: BACS"">DBklOYK</p>","","","","","","","","",""
"html-keyboard-response","153","989817","0.0-10.0-0.64","60f030dca19a06db1b50d16a","650c16f0f2faf8d7a0d14c09","651c1b922918c006a9f5d6de","null","null","<p style=""font-size: 60px; font-family: BACS"">LcNUJYZJO</p>","","","","","","","","",""
"html-keyboard-response","154","990819","0.0-10.0-0.65","60f030dca19a06db1b50d16a","650c16f0f2faf8d7a0d14c09","651c1b922918c006a9f5d6de","null","null","<p style=""font-size: 60px; font-family: BACS"">uvaUrNlZ</p>","","","","","","","","",""
"html-keyboard-response","155","991835","0.0-10.0-0.66","60f030dca19a06db1b50d16a","650c16f0f2faf8d7a0d14c09","651c1b922918c006a9f5d6de","null","null","<p style=""font-size: 60px; font-family: BACS"">hkRKOYK</p>","","","","","","","","",""
"html-keyboard-response","156","992836","0.0-10.0-0.67","60f030dca19a06db1b50d16a","650c16f0f2faf8d7a0d14c09","651c1b922918c006a9f5d6de","null","null","<p style=""font-size: 60px; font-family: BACS"">AlNUYZJO</p>","","","","","","","","",""
"html-keyboard-response","157","993851","0.0-10.0-0.68","60f030dca19a06db1b50d16a","650c16f0f2faf8d7a0d14c09","651c1b922918c006a9f5d6de","null","null","<p style=""font-size: 60px; font-family: BACS"">hkRKDmh</p>","","","","","","","","",""
"html-keyboard-response","158","994851","0.0-10.0-0.69","60f030dca19a06db1b50d16a","650c16f0f2faf8d7a0d14c09","651c1b922918c006a9f5d6de","null","null","<p style=""font-size: 60px; font-family: BACS"">uvaUvUdm</p>","","","","","","","","",""
"html-keyboard-response","159","995853","0.0-10.0-0.70","60f030dca19a06db1b50d16a","650c16f0f2faf8d7a0d14c09","651c1b922918c006a9f5d6de","null","null","<p style=""font-size: 60px; font-family: BACS"">GumLlrNlZ</p>","","","","","","","","",""
"html-keyboard-response","160","996868","0.0-10.0-0.71","60f030dca19a06db1b50d16a","650c16f0f2faf8d7a0d14c09","651c1b922918c006a9f5d6de","null","null","<p style=""font-size: 60px; font-family: BACS"">AlNUrULv</p>","","","","","","","","",""
"html-keyboard-response","161","997870","0.0-10.0-0.72","60f030dca19a06db1b50d16a","650c16f0f2faf8d7a0d14c09","651c1b922918c006a9f5d6de","null","null","<p style=""font-size: 60px; font-family: BACS"">bcORmhc</p>","","","","","","","","",""
"html-keyboard-response","162","998871","0.0-10.0-0.73","60f030dca19a06db1b50d16a","650c16f0f2faf8d7a0d14c09","651c1b922918c006a9f5d6de","null","null","<p style=""font-size: 60px; font-family: BACS"">uvaUrULv</p>","","","","","","","","",""
"html-keyboard-response","163","999884","0.0-10.0-0.74","60f030dca19a06db1b50d16a","650c16f0f2faf8d7a0d14c09","651c1b922918c006a9f5d6de","null","null","<p style=""font-size: 60px; font-family: BACS"">BOckPOYK</p>","","","","","","","","",""
"html-keyboard-response","164","1000885","0.0-10.0-0.75","60f030dca19a06db1b50d16a","650c16f0f2faf8d7a0d14c09","651c1b922918c006a9f5d6de","null","null","<p style=""font-size: 60px; font-family: BACS"">DBlhDmh</p>","","","","","","","","",""
"html-keyboard-response","165","1001886","0.0-10.0-0.76","60f030dca19a06db1b50d16a","650c16f0f2faf8d7a0d14c09","651c1b922918c006a9f5d6de","null","null","<p style=""font-size: 60px; font-family: BACS"">BOckPmhc</p>","","","","","","","","",""
"html-keyboard-response","166","1002901","0.0-10.0-0.77","60f030dca19a06db1b50d16a","650c16f0f2faf8d7a0d14c09","651c1b922918c006a9f5d6de","null","null","<p style=""font-size: 60px; font-family: BACS"">LcNUJGUa</p>","","","","","","","","",""
"html-keyboard-response","167","1003902","0.0-10.0-0.78","60f030dca19a06db1b50d16a","650c16f0f2faf8d7a0d14c09","651c1b922918c006a9f5d6de","null","null","<p style=""font-size: 60px; font-family: BACS"">PDPhlOYK</p>","","","","","","","","",""
"html-keyboard-response","168","1004903","0.0-10.0-0.79","60f030dca19a06db1b50d16a","650c16f0f2faf8d7a0d14c09","651c1b922918c006a9f5d6de","null","null","<p style=""font-size: 60px; font-family: BACS"">DBlhmhc</p>","","","","","","","","",""
"html-keyboard-response","169","1009463","0.0-11.0","60f030dca19a06db1b50d16a","650c16f0f2faf8d7a0d14c09","651c1b922918c006a9f5d6de","4557"," ","<p>Great, you've seen the second block of words. You may now take a short break.</p>
      <p>Press the spacebar when you're ready to continue.</p>","","","","","","","","",""
"html-keyboard-response","170","1010468","0.0-12.0-0.0","60f030dca19a06db1b50d16a","650c16f0f2faf8d7a0d14c09","651c1b922918c006a9f5d6de","null","null","<p style=""font-size: 60px; font-family: BACS"">lBKtmhc</p>","","","","","","","","",""
"html-keyboard-response","171","1011469","0.0-12.0-0.1","60f030dca19a06db1b50d16a","650c16f0f2faf8d7a0d14c09","651c1b922918c006a9f5d6de","null","null","<p style=""font-size: 60px; font-family: BACS"">bcOROYK</p>","","","","","","","","",""
"html-keyboard-response","172","1012470","0.0-12.0-0.2","60f030dca19a06db1b50d16a","650c16f0f2faf8d7a0d14c09","651c1b922918c006a9f5d6de","null","null","<p style=""font-size: 60px; font-family: BACS"">BOckPmhc</p>","","","","","","","","",""
"html-keyboard-response","173","1013483","0.0-12.0-0.3","60f030dca19a06db1b50d16a","650c16f0f2faf8d7a0d14c09","651c1b922918c006a9f5d6de","null","null","<p style=""font-size: 60px; font-family: BACS"">DBlhDmh</p>","","","","","","","","",""
"html-keyboard-response","174","1014484","0.0-12.0-0.4","60f030dca19a06db1b50d16a","650c16f0f2faf8d7a0d14c09","651c1b922918c006a9f5d6de","null","null","<p style=""font-size: 60px; font-family: BACS"">CDEmYmhc</p>","","","","","","","","",""
"html-keyboard-response","175","1015486","0.0-12.0-0.5","60f030dca19a06db1b50d16a","650c16f0f2faf8d7a0d14c09","651c1b922918c006a9f5d6de","null","null","<p style=""font-size: 60px; font-family: BACS"">OZkbvUdm</p>","","","","","","","","",""
"html-keyboard-response","176","1016487","0.0-12.0-0.6","60f030dca19a06db1b50d16a","650c16f0f2faf8d7a0d14c09","651c1b922918c006a9f5d6de","null","null","<p style=""font-size: 60px; font-family: BACS"">lBKtkPM</p>","","","","","","","","",""
"html-keyboard-response","177","1017500","0.0-12.0-0.7","60f030dca19a06db1b50d16a","650c16f0f2faf8d7a0d14c09","651c1b922918c006a9f5d6de","null","null","<p style=""font-size: 60px; font-family: BACS"">bcORmhc</p>","","","","","","","","",""
"html-keyboard-response","178","1018501","0.0-12.0-0.8","60f030dca19a06db1b50d16a","650c16f0f2faf8d7a0d14c09","651c1b922918c006a9f5d6de","null","null","<p style=""font-size: 60px; font-family: BACS"">CDEmYTmTm</p>","","","","","","","","",""
"html-keyboard-response","179","1019501","0.0-12.0-0.9","60f030dca19a06db1b50d16a","650c16f0f2faf8d7a0d14c09","651c1b922918c006a9f5d6de","null","null","<p style=""font-size: 60px; font-family: BACS"">YdudGUa</p>","","","","","","","","",""
"html-keyboard-response","180","1020503","0.0-12.0-0.10","60f030dca19a06db1b50d16a","650c16f0f2faf8d7a0d14c09","651c1b922918c006a9f5d6de","null","null","<p style=""font-size: 60px; font-family: BACS"">BOckPOYK</p>","","","","","","","","",""
"html-keyboard-response","181","1021516","0.0-12.0-0.11","60f030dca19a06db1b50d16a","650c16f0f2faf8d7a0d14c09","651c1b922918c006a9f5d6de","null","null","<p style=""font-size: 60px; font-family: BACS"">uvaUrULv</p>","","","","","","","","",""
"html-keyboard-response","182","1022518","0.0-12.0-0.12","60f030dca19a06db1b50d16a","650c16f0f2faf8d7a0d14c09","651c1b922918c006a9f5d6de","null","null","<p style=""font-size: 60px; font-family: BACS"">kPkRADmh</p>","","","","","","","","",""
"html-keyboard-response","183","1023519","0.0-12.0-0.13","60f030dca19a06db1b50d16a","650c16f0f2faf8d7a0d14c09","651c1b922918c006a9f5d6de","null","null","<p style=""font-size: 60px; font-family: BACS"">lBKtTmTm</p>","","","","","","","","",""
"html-keyboard-response","184","1024520","0.0-12.0-0.14","60f030dca19a06db1b50d16a","650c16f0f2faf8d7a0d14c09","651c1b922918c006a9f5d6de","null","null","<p style=""font-size: 60px; font-family: BACS"">JauQGUa</p>","","","","","","","","",""
"html-keyboard-response","185","1025521","0.0-12.0-0.15","60f030dca19a06db1b50d16a","650c16f0f2faf8d7a0d14c09","651c1b922918c006a9f5d6de","null","null","<p style=""font-size: 60px; font-family: BACS"">YdudrNlZ</p>","","","","","","","","",""
"html-keyboard-response","186","1026533","0.0-12.0-0.16","60f030dca19a06db1b50d16a","650c16f0f2faf8d7a0d14c09","651c1b922918c006a9f5d6de","null","null","<p style=""font-size: 60px; font-family: BACS"">DBlhkPM</p>","","","","","","","","",""
"html-keyboard-response","187","1027536","0.0-12.0-0.17","60f030dca19a06db1b50d16a","650c16f0f2faf8d7a0d14c09","651c1b922918c006a9f5d6de","null","null","<p style=""font-size: 60px; font-family: BACS"">GJZmrULv</p>","","","","","","","","",""
"html-keyboard-response","188","1028552","0.0-12.0-0.18","60f030dca19a06db1b50d16a","650c16f0f2faf8d7a0d14c09","651c1b922918c006a9f5d6de","null","null","<p style=""font-size: 60px; font-family: BACS"">GumLlvUdm</p>","","","","","","","","",""
"html-keyboard-response","189","1029553","0.0-12.0-0.19","60f030dca19a06db1b50d16a","650c16f0f2faf8d7a0d14c09","651c1b922918c006a9f5d6de","null","null","<p style=""font-size: 60px; font-family: BACS"">OdYPDmh</p>","","","","","","","","",""
"html-keyboard-response","190","1030569","0.0-12.0-0.20","60f030dca19a06db1b50d16a","650c16f0f2faf8d7a0d14c09","651c1b922918c006a9f5d6de","null","null","<p style=""font-size: 60px; font-family: BACS"">bcORTmTm</p>","","","","","","","","",""
"html-keyboard-response","191","1031585","0.0-12.0-0.21","60f030dca19a06db1b50d16a","650c16f0f2faf8d7a0d14c09","651c1b922918c006a9f5d6de","null","null","<p style=""font-size: 60px; font-family: BACS"">JauQrULv</p>","","","","","","","","",""
"html-keyboard-response","192","1032587","0.0-12.0-0.22","60f030dca19a06db1b50d16a","650c16f0f2faf8d7a0d14c09","651c1b922918c006a9f5d6de","null","null","<p style=""font-size: 60px; font-family: BACS"">kPkRATmTm</p>","","","","","","","","",""
"html-keyboard-response","193","1033599","0.0-12.0-0.23","60f030dca19a06db1b50d16a","650c16f0f2faf8d7a0d14c09","651c1b922918c006a9f5d6de","null","null","<p style=""font-size: 60px; font-family: BACS"">YdudYZJO</p>","","","","","","","","",""
"html-keyboard-response","194","1034600","0.0-12.0-0.24","60f030dca19a06db1b50d16a","650c16f0f2faf8d7a0d14c09","651c1b922918c006a9f5d6de","null","null","<p style=""font-size: 60px; font-family: BACS"">lBKtDmh</p>","","","","","","","","",""
"html-keyboard-response","195","1035602","0.0-12.0-0.25","60f030dca19a06db1b50d16a","650c16f0f2faf8d7a0d14c09","651c1b922918c006a9f5d6de","null","null","<p style=""font-size: 60px; font-family: BACS"">PDPhlkPM</p>","","","","","","","","",""
"html-keyboard-response","196","1036604","0.0-12.0-0.26","60f030dca19a06db1b50d16a","650c16f0f2faf8d7a0d14c09","651c1b922918c006a9f5d6de","null","null","<p style=""font-size: 60px; font-family: BACS"">OdYPOYK</p>","","","","","","","","",""
"html-keyboard-response","197","1037617","0.0-12.0-0.27","60f030dca19a06db1b50d16a","650c16f0f2faf8d7a0d14c09","651c1b922918c006a9f5d6de","null","null","<p style=""font-size: 60px; font-family: BACS"">CDEmYkPM</p>","","","","","","","","",""
"html-keyboard-response","198","1038619","0.0-12.0-0.28","60f030dca19a06db1b50d16a","650c16f0f2faf8d7a0d14c09","651c1b922918c006a9f5d6de","null","null","<p style=""font-size: 60px; font-family: BACS"">OZkbrNlZ</p>","","","","","","","","",""
"html-keyboard-response","199","1039634","0.0-12.0-0.29","60f030dca19a06db1b50d16a","650c16f0f2faf8d7a0d14c09","651c1b922918c006a9f5d6de","null","null","<p style=""font-size: 60px; font-family: BACS"">kPkRAOYK</p>","","","","","","","","",""
"html-keyboard-response","200","1040635","0.0-12.0-0.30","60f030dca19a06db1b50d16a","650c16f0f2faf8d7a0d14c09","651c1b922918c006a9f5d6de","null","null","<p style=""font-size: 60px; font-family: BACS"">AlNUGUa</p>","","","","","","","","",""
"html-keyboard-response","201","1041637","0.0-12.0-0.31","60f030dca19a06db1b50d16a","650c16f0f2faf8d7a0d14c09","651c1b922918c006a9f5d6de","null","null","<p style=""font-size: 60px; font-family: BACS"">BOckPkPM</p>","","","","","","","","",""
"html-keyboard-response","202","1042652","0.0-12.0-0.32","60f030dca19a06db1b50d16a","650c16f0f2faf8d7a0d14c09","651c1b922918c006a9f5d6de","null","null","<p style=""font-size: 60px; font-family: BACS"">kPkRAmhc</p>","","","","","","","","",""
"html-keyboard-response","203","1043653","0.0-12.0-0.33","60f030dca19a06db1b50d16a","650c16f0f2faf8d7a0d14c09","651c1b922918c006a9f5d6de","null","null","<p style=""font-size: 60px; font-family: BACS"">OZkbYZJO</p>","","","","","","","","",""
"html-keyboard-response","204","1044658","0.0-12.0-0.34","60f030dca19a06db1b50d16a","650c16f0f2faf8d7a0d14c09","651c1b922918c006a9f5d6de","null","null","<p style=""font-size: 60px; font-family: BACS"">QcladrNlZ</p>","","","","","","","","",""
"html-keyboard-response","205","1045668","0.0-12.0-0.35","60f030dca19a06db1b50d16a","650c16f0f2faf8d7a0d14c09","651c1b922918c006a9f5d6de","null","null","<p style=""font-size: 60px; font-family: BACS"">JauQvUdm</p>","","","","","","","","",""
"html-keyboard-response","206","1046669","0.0-12.0-0.36","60f030dca19a06db1b50d16a","650c16f0f2faf8d7a0d14c09","651c1b922918c006a9f5d6de","null","null","<p style=""font-size: 60px; font-family: BACS"">GumLlrULv</p>","","","","","","","","",""
"html-keyboard-response","207","1047683","0.0-12.0-0.37","60f030dca19a06db1b50d16a","650c16f0f2faf8d7a0d14c09","651c1b922918c006a9f5d6de","null","null","<p style=""font-size: 60px; font-family: BACS"">DBklDmh</p>","","","","","","","","",""
"html-keyboard-response","208","1048685","0.0-12.0-0.38","60f030dca19a06db1b50d16a","650c16f0f2faf8d7a0d14c09","651c1b922918c006a9f5d6de","null","null","<p style=""font-size: 60px; font-family: BACS"">uvaUrNlZ</p>","","","","","","","","",""
"html-keyboard-response","209","1049686","0.0-12.0-0.39","60f030dca19a06db1b50d16a","650c16f0f2faf8d7a0d14c09","651c1b922918c006a9f5d6de","null","null","<p style=""font-size: 60px; font-family: BACS"">DBklTmTm</p>","","","","","","","","",""
"html-keyboard-response","210","1050699","0.0-12.0-0.40","60f030dca19a06db1b50d16a","650c16f0f2faf8d7a0d14c09","651c1b922918c006a9f5d6de","null","null","<p style=""font-size: 60px; font-family: BACS"">OdYPkPM</p>","","","","","","","","",""
"html-keyboard-response","211","1051701","0.0-12.0-0.41","60f030dca19a06db1b50d16a","650c16f0f2faf8d7a0d14c09","651c1b922918c006a9f5d6de","null","null","<p style=""font-size: 60px; font-family: BACS"">OZkbGUa</p>","","","","","","","","",""
"html-keyboard-response","212","1052704","0.0-12.0-0.42","60f030dca19a06db1b50d16a","650c16f0f2faf8d7a0d14c09","651c1b922918c006a9f5d6de","null","null","<p style=""font-size: 60px; font-family: BACS"">BOckPTmTm</p>","","","","","","","","",""
"html-keyboard-response","213","1053716","0.0-12.0-0.43","60f030dca19a06db1b50d16a","650c16f0f2faf8d7a0d14c09","651c1b922918c006a9f5d6de","null","null","<p style=""font-size: 60px; font-family: BACS"">uvaUGUa</p>","","","","","","","","",""
"html-keyboard-response","214","1054719","0.0-12.0-0.44","60f030dca19a06db1b50d16a","650c16f0f2faf8d7a0d14c09","651c1b922918c006a9f5d6de","null","null","<p style=""font-size: 60px; font-family: BACS"">LcNUJrNlZ</p>","","","","","","","","",""
"html-keyboard-response","215","1055734","0.0-12.0-0.45","60f030dca19a06db1b50d16a","650c16f0f2faf8d7a0d14c09","651c1b922918c006a9f5d6de","null","null","<p style=""font-size: 60px; font-family: BACS"">GJZmvUdm</p>","","","","","","","","",""
"html-keyboard-response","216","1056736","0.0-12.0-0.46","60f030dca19a06db1b50d16a","650c16f0f2faf8d7a0d14c09","651c1b922918c006a9f5d6de","null","null","<p style=""font-size: 60px; font-family: BACS"">hkRKmhc</p>","","","","","","","","",""
"html-keyboard-response","217","1057751","0.0-12.0-0.47","60f030dca19a06db1b50d16a","650c16f0f2faf8d7a0d14c09","651c1b922918c006a9f5d6de","null","null","<p style=""font-size: 60px; font-family: BACS"">DBklOYK</p>","","","","","","","","",""
"html-keyboard-response","218","1058752","0.0-12.0-0.48","60f030dca19a06db1b50d16a","650c16f0f2faf8d7a0d14c09","651c1b922918c006a9f5d6de","null","null","<p style=""font-size: 60px; font-family: BACS"">AlNUvUdm</p>","","","","","","","","",""
"html-keyboard-response","219","1059753","0.0-12.0-0.49","60f030dca19a06db1b50d16a","650c16f0f2faf8d7a0d14c09","651c1b922918c006a9f5d6de","null","null","<p style=""font-size: 60px; font-family: BACS"">UdYUQYZJO</p>","","","","","","","","",""
"html-keyboard-response","220","1060767","0.0-12.0-0.50","60f030dca19a06db1b50d16a","650c16f0f2faf8d7a0d14c09","651c1b922918c006a9f5d6de","null","null","<p style=""font-size: 60px; font-family: BACS"">DBklkPM</p>","","","","","","","","",""
"html-keyboard-response","221","1061769","0.0-12.0-0.51","60f030dca19a06db1b50d16a","650c16f0f2faf8d7a0d14c09","651c1b922918c006a9f5d6de","null","null","<p style=""font-size: 60px; font-family: BACS"">LcNUJYZJO</p>","","","","","","","","",""
"html-keyboard-response","222","1062770","0.0-12.0-0.52","60f030dca19a06db1b50d16a","650c16f0f2faf8d7a0d14c09","651c1b922918c006a9f5d6de","null","null","<p style=""font-size: 60px; font-family: BACS"">AlNUrULv</p>","","","","","","","","",""
"html-keyboard-response","223","1063785","0.0-12.0-0.53","60f030dca19a06db1b50d16a","650c16f0f2faf8d7a0d14c09","651c1b922918c006a9f5d6de","null","null","<p style=""font-size: 60px; font-family: BACS"">JauQrNlZ</p>","","","","","","","","",""
"html-keyboard-response","224","1064786","0.0-12.0-0.54","60f030dca19a06db1b50d16a","650c16f0f2faf8d7a0d14c09","651c1b922918c006a9f5d6de","null","null","<p style=""font-size: 60px; font-family: BACS"">QcladrULv</p>","","","","","","","","",""
"html-keyboard-response","225","1065796","0.0-12.0-0.55","60f030dca19a06db1b50d16a","650c16f0f2faf8d7a0d14c09","651c1b922918c006a9f5d6de","null","null","<p style=""font-size: 60px; font-family: BACS"">LcNUJvUdm</p>","","","","","","","","",""
"html-keyboard-response","226","1066802","0.0-12.0-0.56","60f030dca19a06db1b50d16a","650c16f0f2faf8d7a0d14c09","651c1b922918c006a9f5d6de","null","null","<p style=""font-size: 60px; font-family: BACS"">DBlhmhc</p>","","","","","","","","",""
"html-keyboard-response","227","1067803","0.0-12.0-0.57","60f030dca19a06db1b50d16a","650c16f0f2faf8d7a0d14c09","651c1b922918c006a9f5d6de","null","null","<p style=""font-size: 60px; font-family: BACS"">PDPhlOYK</p>","","","","","","","","",""
"html-keyboard-response","228","1068818","0.0-12.0-0.58","60f030dca19a06db1b50d16a","650c16f0f2faf8d7a0d14c09","651c1b922918c006a9f5d6de","null","null","<p style=""font-size: 60px; font-family: BACS"">CDEmYDmh</p>","","","","","","","","",""
"html-keyboard-response","229","1069819","0.0-12.0-0.59","60f030dca19a06db1b50d16a","650c16f0f2faf8d7a0d14c09","651c1b922918c006a9f5d6de","null","null","<p style=""font-size: 60px; font-family: BACS"">QcladYZJO</p>","","","","","","","","",""
"html-keyboard-response","230","1070820","0.0-12.0-0.60","60f030dca19a06db1b50d16a","650c16f0f2faf8d7a0d14c09","651c1b922918c006a9f5d6de","null","null","<p style=""font-size: 60px; font-family: BACS"">UdYUQvUdm</p>","","","","","","","","",""
"html-keyboard-response","231","1071836","0.0-12.0-0.61","60f030dca19a06db1b50d16a","650c16f0f2faf8d7a0d14c09","651c1b922918c006a9f5d6de","null","null","<p style=""font-size: 60px; font-family: BACS"">GumLlYZJO</p>","","","","","","","","",""
"html-keyboard-response","232","1072837","0.0-12.0-0.62","60f030dca19a06db1b50d16a","650c16f0f2faf8d7a0d14c09","651c1b922918c006a9f5d6de","null","null","<p style=""font-size: 60px; font-family: BACS"">hkRKDmh</p>","","","","","","","","",""
"html-keyboard-response","233","1073851","0.0-12.0-0.63","60f030dca19a06db1b50d16a","650c16f0f2faf8d7a0d14c09","651c1b922918c006a9f5d6de","null","null","<p style=""font-size: 60px; font-family: BACS"">LcNUJGUa</p>","","","","","","","","",""
"html-keyboard-response","234","1074853","0.0-12.0-0.64","60f030dca19a06db1b50d16a","650c16f0f2faf8d7a0d14c09","651c1b922918c006a9f5d6de","null","null","<p style=""font-size: 60px; font-family: BACS"">uvaUvUdm</p>","","","","","","","","",""
"html-keyboard-response","235","1075853","0.0-12.0-0.65","60f030dca19a06db1b50d16a","650c16f0f2faf8d7a0d14c09","651c1b922918c006a9f5d6de","null","null","<p style=""font-size: 60px; font-family: BACS"">PDPhlmhc</p>","","","","","","","","",""
"html-keyboard-response","236","1076867","0.0-12.0-0.66","60f030dca19a06db1b50d16a","650c16f0f2faf8d7a0d14c09","651c1b922918c006a9f5d6de","null","null","<p style=""font-size: 60px; font-family: BACS"">OdYPTmTm</p>","","","","","","","","",""
"html-keyboard-response","237","1077869","0.0-12.0-0.67","60f030dca19a06db1b50d16a","650c16f0f2faf8d7a0d14c09","651c1b922918c006a9f5d6de","null","null","<p style=""font-size: 60px; font-family: BACS"">GumLlrNlZ</p>","","","","","","","","",""
"html-keyboard-response","238","1078870","0.0-12.0-0.68","60f030dca19a06db1b50d16a","650c16f0f2faf8d7a0d14c09","651c1b922918c006a9f5d6de","null","null","<p style=""font-size: 60px; font-family: BACS"">GJZmYZJO</p>","","","","","","","","",""
"html-keyboard-response","239","1079885","0.0-12.0-0.69","60f030dca19a06db1b50d16a","650c16f0f2faf8d7a0d14c09","651c1b922918c006a9f5d6de","null","null","<p style=""font-size: 60px; font-family: BACS"">UdYUQrNlZ</p>","","","","","","","","",""
"html-keyboard-response","240","1080885","0.0-12.0-0.70","60f030dca19a06db1b50d16a","650c16f0f2faf8d7a0d14c09","651c1b922918c006a9f5d6de","null","null","<p style=""font-size: 60px; font-family: BACS"">DBlhOYK</p>","","","","","","","","",""
"html-keyboard-response","241","1081900","0.0-12.0-0.71","60f030dca19a06db1b50d16a","650c16f0f2faf8d7a0d14c09","651c1b922918c006a9f5d6de","null","null","<p style=""font-size: 60px; font-family: BACS"">YdudrULv</p>","","","","","","","","",""
"html-keyboard-response","242","1082902","0.0-12.0-0.72","60f030dca19a06db1b50d16a","650c16f0f2faf8d7a0d14c09","651c1b922918c006a9f5d6de","null","null","<p style=""font-size: 60px; font-family: BACS"">hkRKOYK</p>","","","","","","","","",""
"html-keyboard-response","243","1083904","0.0-12.0-0.73","60f030dca19a06db1b50d16a","650c16f0f2faf8d7a0d14c09","651c1b922918c006a9f5d6de","null","null","<p style=""font-size: 60px; font-family: BACS"">QcladGUa</p>","","","","","","","","",""
"html-keyboard-response","244","1084918","0.0-12.0-0.74","60f030dca19a06db1b50d16a","650c16f0f2faf8d7a0d14c09","651c1b922918c006a9f5d6de","null","null","<p style=""font-size: 60px; font-family: BACS"">bcORDmh</p>","","","","","","","","",""
"html-keyboard-response","245","1085919","0.0-12.0-0.75","60f030dca19a06db1b50d16a","650c16f0f2faf8d7a0d14c09","651c1b922918c006a9f5d6de","null","null","<p style=""font-size: 60px; font-family: BACS"">hkRKkPM</p>","","","","","","","","",""
"html-keyboard-response","246","1086920","0.0-12.0-0.76","60f030dca19a06db1b50d16a","650c16f0f2faf8d7a0d14c09","651c1b922918c006a9f5d6de","null","null","<p style=""font-size: 60px; font-family: BACS"">UdYUQrULv</p>","","","","","","","","",""
"html-keyboard-response","247","1087934","0.0-12.0-0.77","60f030dca19a06db1b50d16a","650c16f0f2faf8d7a0d14c09","651c1b922918c006a9f5d6de","null","null","<p style=""font-size: 60px; font-family: BACS"">PDPhlTmTm</p>","","","","","","","","",""
"html-keyboard-response","248","1088936","0.0-12.0-0.78","60f030dca19a06db1b50d16a","650c16f0f2faf8d7a0d14c09","651c1b922918c006a9f5d6de","null","null","<p style=""font-size: 60px; font-family: BACS"">AlNUYZJO</p>","","","","","","","","",""
"html-keyboard-response","249","1089937","0.0-12.0-0.79","60f030dca19a06db1b50d16a","650c16f0f2faf8d7a0d14c09","651c1b922918c006a9f5d6de","null","null","<p style=""font-size: 60px; font-family: BACS"">GJZmGUa</p>","","","","","","","","",""
"html-keyboard-response","250","1095397","0.0-13.0","60f030dca19a06db1b50d16a","650c16f0f2faf8d7a0d14c09","651c1b922918c006a9f5d6de","5459"," ","<p>Great, you've seen the third block of words. You may now take a short break.</p>
      <p>Press the spacebar when you're ready to continue.</p>","","","","","","","","",""
"html-keyboard-response","251","1096401","0.0-14.0-0.0","60f030dca19a06db1b50d16a","650c16f0f2faf8d7a0d14c09","651c1b922918c006a9f5d6de","null","null","<p style=""font-size: 60px; font-family: BACS"">OdYPkPM</p>","","","","","","","","",""
"html-keyboard-response","252","1097403","0.0-14.0-0.1","60f030dca19a06db1b50d16a","650c16f0f2faf8d7a0d14c09","651c1b922918c006a9f5d6de","null","null","<p style=""font-size: 60px; font-family: BACS"">LcNUJYZJO</p>","","","","","","","","",""
"html-keyboard-response","253","1098419","0.0-14.0-0.2","60f030dca19a06db1b50d16a","650c16f0f2faf8d7a0d14c09","651c1b922918c006a9f5d6de","null","null","<p style=""font-size: 60px; font-family: BACS"">CDEmYTmTm</p>","","","","","","","","",""
"html-keyboard-response","254","1099420","0.0-14.0-0.3","60f030dca19a06db1b50d16a","650c16f0f2faf8d7a0d14c09","651c1b922918c006a9f5d6de","null","null","<p style=""font-size: 60px; font-family: BACS"">DBklDmh</p>","","","","","","","","",""
"html-keyboard-response","255","1100435","0.0-14.0-0.4","60f030dca19a06db1b50d16a","650c16f0f2faf8d7a0d14c09","651c1b922918c006a9f5d6de","null","null","<p style=""font-size: 60px; font-family: BACS"">QcladGUa</p>","","","","","","","","",""
"html-keyboard-response","256","1101437","0.0-14.0-0.5","60f030dca19a06db1b50d16a","650c16f0f2faf8d7a0d14c09","651c1b922918c006a9f5d6de","null","null","<p style=""font-size: 60px; font-family: BACS"">DBlhkPM</p>","","","","","","","","",""
"html-keyboard-response","257","1102452","0.0-14.0-0.6","60f030dca19a06db1b50d16a","650c16f0f2faf8d7a0d14c09","651c1b922918c006a9f5d6de","null","null","<p style=""font-size: 60px; font-family: BACS"">AlNUGUa</p>","","","","","","","","",""
"html-keyboard-response","258","1103453","0.0-14.0-0.7","60f030dca19a06db1b50d16a","650c16f0f2faf8d7a0d14c09","651c1b922918c006a9f5d6de","null","null","<p style=""font-size: 60px; font-family: BACS"">BOckPmhc</p>","","","","","","","","",""
"html-keyboard-response","259","1104468","0.0-14.0-0.8","60f030dca19a06db1b50d16a","650c16f0f2faf8d7a0d14c09","651c1b922918c006a9f5d6de","null","null","<p style=""font-size: 60px; font-family: BACS"">GumLlrULv</p>","","","","","","","","",""
"html-keyboard-response","260","1105470","0.0-14.0-0.9","60f030dca19a06db1b50d16a","650c16f0f2faf8d7a0d14c09","651c1b922918c006a9f5d6de","null","null","<p style=""font-size: 60px; font-family: BACS"">YdudrNlZ</p>","","","","","","","","",""
"html-keyboard-response","261","1106484","0.0-14.0-0.10","60f030dca19a06db1b50d16a","650c16f0f2faf8d7a0d14c09","651c1b922918c006a9f5d6de","null","null","<p style=""font-size: 60px; font-family: BACS"">uvaUGUa</p>","","","","","","","","",""
"html-keyboard-response","262","1107486","0.0-14.0-0.11","60f030dca19a06db1b50d16a","650c16f0f2faf8d7a0d14c09","651c1b922918c006a9f5d6de","null","null","<p style=""font-size: 60px; font-family: BACS"">bcORmhc</p>","","","","","","","","",""
"html-keyboard-response","263","1108500","0.0-14.0-0.12","60f030dca19a06db1b50d16a","650c16f0f2faf8d7a0d14c09","651c1b922918c006a9f5d6de","null","null","<p style=""font-size: 60px; font-family: BACS"">OdYPTmTm</p>","","","","","","","","",""
"html-keyboard-response","264","1109502","0.0-14.0-0.13","60f030dca19a06db1b50d16a","650c16f0f2faf8d7a0d14c09","651c1b922918c006a9f5d6de","null","null","<p style=""font-size: 60px; font-family: BACS"">AlNUYZJO</p>","","","","","","","","",""
"html-keyboard-response","265","1110503","0.0-14.0-0.14","60f030dca19a06db1b50d16a","650c16f0f2faf8d7a0d14c09","651c1b922918c006a9f5d6de","null","null","<p style=""font-size: 60px; font-family: BACS"">PDPhlOYK</p>","","","","","","","","",""
"html-keyboard-response","266","1111518","0.0-14.0-0.15","60f030dca19a06db1b50d16a","650c16f0f2faf8d7a0d14c09","651c1b922918c006a9f5d6de","null","null","<p style=""font-size: 60px; font-family: BACS"">YdudGUa</p>","","","","","","","","",""
"html-keyboard-response","267","1112520","0.0-14.0-0.16","60f030dca19a06db1b50d16a","650c16f0f2faf8d7a0d14c09","651c1b922918c006a9f5d6de","null","null","<p style=""font-size: 60px; font-family: BACS"">DBlhDmh</p>","","","","","","","","",""
"html-keyboard-response","268","1113521","0.0-14.0-0.17","60f030dca19a06db1b50d16a","650c16f0f2faf8d7a0d14c09","651c1b922918c006a9f5d6de","null","null","<p style=""font-size: 60px; font-family: BACS"">GJZmGUa</p>","","","","","","","","",""
"html-keyboard-response","269","1114535","0.0-14.0-0.18","60f030dca19a06db1b50d16a","650c16f0f2faf8d7a0d14c09","651c1b922918c006a9f5d6de","null","null","<p style=""font-size: 60px; font-family: BACS"">LcNUJrNlZ</p>","","","","","","","","",""
"html-keyboard-response","270","1115537","0.0-14.0-0.19","60f030dca19a06db1b50d16a","650c16f0f2faf8d7a0d14c09","651c1b922918c006a9f5d6de","null","null","<p style=""font-size: 60px; font-family: BACS"">BOckPOYK</p>","","","","","","","","",""
"html-keyboard-response","271","1116552","0.0-14.0-0.20","60f030dca19a06db1b50d16a","650c16f0f2faf8d7a0d14c09","651c1b922918c006a9f5d6de","null","null","<p style=""font-size: 60px; font-family: BACS"">hkRKDmh</p>","","","","","","","","",""
"html-keyboard-response","272","1117553","0.0-14.0-0.21","60f030dca19a06db1b50d16a","650c16f0f2faf8d7a0d14c09","651c1b922918c006a9f5d6de","null","null","<p style=""font-size: 60px; font-family: BACS"">OZkbvUdm</p>","","","","","","","","",""
"html-keyboard-response","273","1118554","0.0-14.0-0.22","60f030dca19a06db1b50d16a","650c16f0f2faf8d7a0d14c09","651c1b922918c006a9f5d6de","null","null","<p style=""font-size: 60px; font-family: BACS"">kPkRADmh</p>","","","","","","","","",""
"html-keyboard-response","274","1119560","0.0-14.0-0.23","60f030dca19a06db1b50d16a","650c16f0f2faf8d7a0d14c09","651c1b922918c006a9f5d6de","null","null","<p style=""font-size: 60px; font-family: BACS"">LcNUJvUdm</p>","","","","","","","","",""
"html-keyboard-response","275","1120569","0.0-14.0-0.24","60f030dca19a06db1b50d16a","650c16f0f2faf8d7a0d14c09","651c1b922918c006a9f5d6de","null","null","<p style=""font-size: 60px; font-family: BACS"">UdYUQYZJO</p>","","","","","","","","",""
"html-keyboard-response","276","1121571","0.0-14.0-0.25","60f030dca19a06db1b50d16a","650c16f0f2faf8d7a0d14c09","651c1b922918c006a9f5d6de","null","null","<p style=""font-size: 60px; font-family: BACS"">GumLlrNlZ</p>","","","","","","","","",""
"html-keyboard-response","277","1122584","0.0-14.0-0.26","60f030dca19a06db1b50d16a","650c16f0f2faf8d7a0d14c09","651c1b922918c006a9f5d6de","null","null","<p style=""font-size: 60px; font-family: BACS"">PDPhlkPM</p>","","","","","","","","",""
"html-keyboard-response","278","1123585","0.0-14.0-0.27","60f030dca19a06db1b50d16a","650c16f0f2faf8d7a0d14c09","651c1b922918c006a9f5d6de","null","null","<p style=""font-size: 60px; font-family: BACS"">hkRKmhc</p>","","","","","","","","",""
"html-keyboard-response","279","1124586","0.0-14.0-0.28","60f030dca19a06db1b50d16a","650c16f0f2faf8d7a0d14c09","651c1b922918c006a9f5d6de","null","null","<p style=""font-size: 60px; font-family: BACS"">LcNUJGUa</p>","","","","","","","","",""
"html-keyboard-response","280","1125587","0.0-14.0-0.29","60f030dca19a06db1b50d16a","650c16f0f2faf8d7a0d14c09","651c1b922918c006a9f5d6de","null","null","<p style=""font-size: 60px; font-family: BACS"">uvaUrULv</p>","","","","","","","","",""
"html-keyboard-response","281","1126602","0.0-14.0-0.30","60f030dca19a06db1b50d16a","650c16f0f2faf8d7a0d14c09","651c1b922918c006a9f5d6de","null","null","<p style=""font-size: 60px; font-family: BACS"">kPkRAmhc</p>","","","","","","","","",""
"html-keyboard-response","282","1127603","0.0-14.0-0.31","60f030dca19a06db1b50d16a","650c16f0f2faf8d7a0d14c09","651c1b922918c006a9f5d6de","null","null","<p style=""font-size: 60px; font-family: BACS"">CDEmYkPM</p>","","","","","","","","",""
"html-keyboard-response","283","1128604","0.0-14.0-0.32","60f030dca19a06db1b50d16a","650c16f0f2faf8d7a0d14c09","651c1b922918c006a9f5d6de","null","null","<p style=""font-size: 60px; font-family: BACS"">JauQrULv</p>","","","","","","","","",""
"html-keyboard-response","284","1129605","0.0-14.0-0.33","60f030dca19a06db1b50d16a","650c16f0f2faf8d7a0d14c09","651c1b922918c006a9f5d6de","null","null","<p style=""font-size: 60px; font-family: BACS"">DBklkPM</p>","","","","","","","","",""
"html-keyboard-response","285","1130618","0.0-14.0-0.34","60f030dca19a06db1b50d16a","650c16f0f2faf8d7a0d14c09","651c1b922918c006a9f5d6de","null","null","<p style=""font-size: 60px; font-family: BACS"">PDPhlTmTm</p>","","","","","","","","",""
"html-keyboard-response","286","1131619","0.0-14.0-0.35","60f030dca19a06db1b50d16a","650c16f0f2faf8d7a0d14c09","651c1b922918c006a9f5d6de","null","null","<p style=""font-size: 60px; font-family: BACS"">GumLlvUdm</p>","","","","","","","","",""
"html-keyboard-response","287","1132621","0.0-14.0-0.36","60f030dca19a06db1b50d16a","650c16f0f2faf8d7a0d14c09","651c1b922918c006a9f5d6de","null","null","<p style=""font-size: 60px; font-family: BACS"">OZkbYZJO</p>","","","","","","","","",""
"html-keyboard-response","288","1133635","0.0-14.0-0.37","60f030dca19a06db1b50d16a","650c16f0f2faf8d7a0d14c09","651c1b922918c006a9f5d6de","null","null","<p style=""font-size: 60px; font-family: BACS"">bcOROYK</p>","","","","","","","","",""
"html-keyboard-response","289","1134636","0.0-14.0-0.38","60f030dca19a06db1b50d16a","650c16f0f2faf8d7a0d14c09","651c1b922918c006a9f5d6de","null","null","<p style=""font-size: 60px; font-family: BACS"">uvaUrNlZ</p>","","","","","","","","",""
"html-keyboard-response","290","1135638","0.0-14.0-0.39","60f030dca19a06db1b50d16a","650c16f0f2faf8d7a0d14c09","651c1b922918c006a9f5d6de","null","null","<p style=""font-size: 60px; font-family: BACS"">OdYPDmh</p>","","","","","","","","",""
"html-keyboard-response","291","1136652","0.0-14.0-0.40","60f030dca19a06db1b50d16a","650c16f0f2faf8d7a0d14c09","651c1b922918c006a9f5d6de","null","null","<p style=""font-size: 60px; font-family: BACS"">PDPhlmhc</p>","","","","","","","","",""
"html-keyboard-response","292","1137653","0.0-14.0-0.41","60f030dca19a06db1b50d16a","650c16f0f2faf8d7a0d14c09","651c1b922918c006a9f5d6de","null","null","<p style=""font-size: 60px; font-family: BACS"">BOckPTmTm</p>","","","","","","","","",""
"html-keyboard-response","293","1138654","0.0-14.0-0.42","60f030dca19a06db1b50d16a","650c16f0f2faf8d7a0d14c09","651c1b922918c006a9f5d6de","null","null","<p style=""font-size: 60px; font-family: BACS"">AlNUvUdm</p>","","","","","","","","",""
"html-keyboard-response","294","1139670","0.0-14.0-0.43","60f030dca19a06db1b50d16a","650c16f0f2faf8d7a0d14c09","651c1b922918c006a9f5d6de","null","null","<p style=""font-size: 60px; font-family: BACS"">lBKtTmTm</p>","","","","","","","","",""
"html-keyboard-response","295","1140671","0.0-14.0-0.44","60f030dca19a06db1b50d16a","650c16f0f2faf8d7a0d14c09","651c1b922918c006a9f5d6de","null","null","<p style=""font-size: 60px; font-family: BACS"">GJZmYZJO</p>","","","","","","","","",""
"html-keyboard-response","296","1141686","0.0-14.0-0.45","60f030dca19a06db1b50d16a","650c16f0f2faf8d7a0d14c09","651c1b922918c006a9f5d6de","null","null","<p style=""font-size: 60px; font-family: BACS"">BOckPkPM</p>","","","","","","","","",""
"html-keyboard-response","297","1142702","0.0-14.0-0.46","60f030dca19a06db1b50d16a","650c16f0f2faf8d7a0d14c09","651c1b922918c006a9f5d6de","null","null","<p style=""font-size: 60px; font-family: BACS"">CDEmYmhc</p>","","","","","","","","",""
"html-keyboard-response","298","1143704","0.0-14.0-0.47","60f030dca19a06db1b50d16a","650c16f0f2faf8d7a0d14c09","651c1b922918c006a9f5d6de","null","null","<p style=""font-size: 60px; font-family: BACS"">QcladrULv</p>","","","","","","","","",""
"html-keyboard-response","299","1144718","0.0-14.0-0.48","60f030dca19a06db1b50d16a","650c16f0f2faf8d7a0d14c09","651c1b922918c006a9f5d6de","null","null","<p style=""font-size: 60px; font-family: BACS"">OZkbGUa</p>","","","","","","","","",""
"html-keyboard-response","300","1145720","0.0-14.0-0.49","60f030dca19a06db1b50d16a","650c16f0f2faf8d7a0d14c09","651c1b922918c006a9f5d6de","null","null","<p style=""font-size: 60px; font-family: BACS"">YdudrULv</p>","","","","","","","","",""
"html-keyboard-response","301","1146720","0.0-14.0-0.50","60f030dca19a06db1b50d16a","650c16f0f2faf8d7a0d14c09","651c1b922918c006a9f5d6de","null","null","<p style=""font-size: 60px; font-family: BACS"">GumLlYZJO</p>","","","","","","","","",""
"html-keyboard-response","302","1147722","0.0-14.0-0.51","60f030dca19a06db1b50d16a","650c16f0f2faf8d7a0d14c09","651c1b922918c006a9f5d6de","null","null","<p style=""font-size: 60px; font-family: BACS"">hkRKkPM</p>","","","","","","","","",""
"html-keyboard-response","303","1148734","0.0-14.0-0.52","60f030dca19a06db1b50d16a","650c16f0f2faf8d7a0d14c09","651c1b922918c006a9f5d6de","null","null","<p style=""font-size: 60px; font-family: BACS"">kPkRAOYK</p>","","","","","","","","",""
"html-keyboard-response","304","1149737","0.0-14.0-0.53","60f030dca19a06db1b50d16a","650c16f0f2faf8d7a0d14c09","651c1b922918c006a9f5d6de","null","null","<p style=""font-size: 60px; font-family: BACS"">bcORDmh</p>","","","","","","","","",""
"html-keyboard-response","305","1150751","0.0-14.0-0.54","60f030dca19a06db1b50d16a","650c16f0f2faf8d7a0d14c09","651c1b922918c006a9f5d6de","null","null","<p style=""font-size: 60px; font-family: BACS"">OZkbrNlZ</p>","","","","","","","","",""
"html-keyboard-response","306","1151754","0.0-14.0-0.55","60f030dca19a06db1b50d16a","650c16f0f2faf8d7a0d14c09","651c1b922918c006a9f5d6de","null","null","<p style=""font-size: 60px; font-family: BACS"">CDEmYDmh</p>","","","","","","","","",""
"html-keyboard-response","307","1152769","0.0-14.0-0.56","60f030dca19a06db1b50d16a","650c16f0f2faf8d7a0d14c09","651c1b922918c006a9f5d6de","null","null","<p style=""font-size: 60px; font-family: BACS"">YdudYZJO</p>","","","","","","","","",""
"html-keyboard-response","308","1153770","0.0-14.0-0.57","60f030dca19a06db1b50d16a","650c16f0f2faf8d7a0d14c09","651c1b922918c006a9f5d6de","null","null","<p style=""font-size: 60px; font-family: BACS"">lBKtkPM</p>","","","","","","","","",""
"html-keyboard-response","309","1154771","0.0-14.0-0.58","60f030dca19a06db1b50d16a","650c16f0f2faf8d7a0d14c09","651c1b922918c006a9f5d6de","null","null","<p style=""font-size: 60px; font-family: BACS"">QcladYZJO</p>","","","","","","","","",""
"html-keyboard-response","310","1155785","0.0-14.0-0.59","60f030dca19a06db1b50d16a","650c16f0f2faf8d7a0d14c09","651c1b922918c006a9f5d6de","null","null","<p style=""font-size: 60px; font-family: BACS"">UdYUQvUdm</p>","","","","","","","","",""
"html-keyboard-response","311","1156786","0.0-14.0-0.60","60f030dca19a06db1b50d16a","650c16f0f2faf8d7a0d14c09","651c1b922918c006a9f5d6de","null","null","<p style=""font-size: 60px; font-family: BACS"">JauQrNlZ</p>","","","","","","","","",""
"html-keyboard-response","312","1157787","0.0-14.0-0.61","60f030dca19a06db1b50d16a","650c16f0f2faf8d7a0d14c09","651c1b922918c006a9f5d6de","null","null","<p style=""font-size: 60px; font-family: BACS"">DBklOYK</p>","","","","","","","","",""
"html-keyboard-response","313","1158801","0.0-14.0-0.62","60f030dca19a06db1b50d16a","650c16f0f2faf8d7a0d14c09","651c1b922918c006a9f5d6de","null","null","<p style=""font-size: 60px; font-family: BACS"">lBKtDmh</p>","","","","","","","","",""
"html-keyboard-response","314","1159802","0.0-14.0-0.63","60f030dca19a06db1b50d16a","650c16f0f2faf8d7a0d14c09","651c1b922918c006a9f5d6de","null","null","<p style=""font-size: 60px; font-family: BACS"">OdYPOYK</p>","","","","","","","","",""
"html-keyboard-response","315","1160803","0.0-14.0-0.64","60f030dca19a06db1b50d16a","650c16f0f2faf8d7a0d14c09","651c1b922918c006a9f5d6de","null","null","<p style=""font-size: 60px; font-family: BACS"">QcladrNlZ</p>","","","","","","","","",""
"html-keyboard-response","316","1161819","0.0-14.0-0.65","60f030dca19a06db1b50d16a","650c16f0f2faf8d7a0d14c09","651c1b922918c006a9f5d6de","null","null","<p style=""font-size: 60px; font-family: BACS"">uvaUvUdm</p>","","","","","","","","",""
"html-keyboard-response","317","1162820","0.0-14.0-0.66","60f030dca19a06db1b50d16a","650c16f0f2faf8d7a0d14c09","651c1b922918c006a9f5d6de","null","null","<p style=""font-size: 60px; font-family: BACS"">bcORTmTm</p>","","","","","","","","",""
"html-keyboard-response","318","1163821","0.0-14.0-0.67","60f030dca19a06db1b50d16a","650c16f0f2faf8d7a0d14c09","651c1b922918c006a9f5d6de","null","null","<p style=""font-size: 60px; font-family: BACS"">UdYUQrNlZ</p>","","","","","","","","",""
"html-keyboard-response","319","1164835","0.0-14.0-0.68","60f030dca19a06db1b50d16a","650c16f0f2faf8d7a0d14c09","651c1b922918c006a9f5d6de","null","null","<p style=""font-size: 60px; font-family: BACS"">JauQvUdm</p>","","","","","","","","",""
"html-keyboard-response","320","1165836","0.0-14.0-0.69","60f030dca19a06db1b50d16a","650c16f0f2faf8d7a0d14c09","651c1b922918c006a9f5d6de","null","null","<p style=""font-size: 60px; font-family: BACS"">GJZmrULv</p>","","","","","","","","",""
"html-keyboard-response","321","1166837","0.0-14.0-0.70","60f030dca19a06db1b50d16a","650c16f0f2faf8d7a0d14c09","651c1b922918c006a9f5d6de","null","null","<p style=""font-size: 60px; font-family: BACS"">JauQGUa</p>","","","","","","","","",""
"html-keyboard-response","322","1167851","0.0-14.0-0.71","60f030dca19a06db1b50d16a","650c16f0f2faf8d7a0d14c09","651c1b922918c006a9f5d6de","null","null","<p style=""font-size: 60px; font-family: BACS"">kPkRATmTm</p>","","","","","","","","",""
"html-keyboard-response","323","1168852","0.0-14.0-0.72","60f030dca19a06db1b50d16a","650c16f0f2faf8d7a0d14c09","651c1b922918c006a9f5d6de","null","null","<p style=""font-size: 60px; font-family: BACS"">DBlhOYK</p>","","","","","","","","",""
"html-keyboard-response","324","1169853","0.0-14.0-0.73","60f030dca19a06db1b50d16a","650c16f0f2faf8d7a0d14c09","651c1b922918c006a9f5d6de","null","null","<p style=""font-size: 60px; font-family: BACS"">UdYUQrULv</p>","","","","","","","","",""
"html-keyboard-response","325","1170870","0.0-14.0-0.74","60f030dca19a06db1b50d16a","650c16f0f2faf8d7a0d14c09","651c1b922918c006a9f5d6de","null","null","<p style=""font-size: 60px; font-family: BACS"">GJZmvUdm</p>","","","","","","","","",""
"html-keyboard-response","326","1171885","0.0-14.0-0.75","60f030dca19a06db1b50d16a","650c16f0f2faf8d7a0d14c09","651c1b922918c006a9f5d6de","null","null","<p style=""font-size: 60px; font-family: BACS"">lBKtmhc</p>","","","","","","","","",""
"html-keyboard-response","327","1172887","0.0-14.0-0.76","60f030dca19a06db1b50d16a","650c16f0f2faf8d7a0d14c09","651c1b922918c006a9f5d6de","null","null","<p style=""font-size: 60px; font-family: BACS"">DBklTmTm</p>","","","","","","","","",""
"html-keyboard-response","328","1173902","0.0-14.0-0.77","60f030dca19a06db1b50d16a","650c16f0f2faf8d7a0d14c09","651c1b922918c006a9f5d6de","null","null","<p style=""font-size: 60px; font-family: BACS"">AlNUrULv</p>","","","","","","","","",""
"html-keyboard-response","329","1174904","0.0-14.0-0.78","60f030dca19a06db1b50d16a","650c16f0f2faf8d7a0d14c09","651c1b922918c006a9f5d6de","null","null","<p style=""font-size: 60px; font-family: BACS"">DBlhmhc</p>","","","","","","","","",""
"html-keyboard-response","330","1175918","0.0-14.0-0.79","60f030dca19a06db1b50d16a","650c16f0f2faf8d7a0d14c09","651c1b922918c006a9f5d6de","null","null","<p style=""font-size: 60px; font-family: BACS"">hkRKOYK</p>","","","","","","","","",""
"html-keyboard-response","331","1178564","0.0-15.0","60f030dca19a06db1b50d16a","650c16f0f2faf8d7a0d14c09","651c1b922918c006a9f5d6de","2646"," ","<p>Great, you've seen the fourth block of words. You may now take a short break.</p>
      <p>Press the spacebar when you're ready to continue.</p>","","","","","","","","",""
"html-keyboard-response","332","1179569","0.0-16.0-0.0","60f030dca19a06db1b50d16a","650c16f0f2faf8d7a0d14c09","651c1b922918c006a9f5d6de","null","null","<p style=""font-size: 60px; font-family: BACS"">OZkbvUdm</p>","","","","","","","","",""
"html-keyboard-response","333","1180570","0.0-16.0-0.1","60f030dca19a06db1b50d16a","650c16f0f2faf8d7a0d14c09","651c1b922918c006a9f5d6de","null","null","<p style=""font-size: 60px; font-family: BACS"">OZkbvUdm</p>","","","","","","","","",""
"html-keyboard-response","334","1181571","0.0-16.0-0.2","60f030dca19a06db1b50d16a","650c16f0f2faf8d7a0d14c09","651c1b922918c006a9f5d6de","null","null","<p style=""font-size: 60px; font-family: BACS"">OZkbvUdm</p>","","","","","","","","",""
"html-keyboard-response","335","1182586","0.0-16.0-0.3","60f030dca19a06db1b50d16a","650c16f0f2faf8d7a0d14c09","651c1b922918c006a9f5d6de","null","null","<p style=""font-size: 60px; font-family: BACS"">OZkbvUdm</p>","","","","","","","","",""
"html-keyboard-response","336","1183587","0.0-16.0-0.4","60f030dca19a06db1b50d16a","650c16f0f2faf8d7a0d14c09","651c1b922918c006a9f5d6de","null","null","<p style=""font-size: 60px; font-family: BACS"">OZkbvUdm</p>","","","","","","","","",""
"html-keyboard-response","337","1184603","0.0-16.0-0.5","60f030dca19a06db1b50d16a","650c16f0f2faf8d7a0d14c09","651c1b922918c006a9f5d6de","null","null","<p style=""font-size: 60px; font-family: BACS"">OZkbvUdm</p>","","","","","","","","",""
"html-keyboard-response","338","1185604","0.0-16.0-0.6","60f030dca19a06db1b50d16a","650c16f0f2faf8d7a0d14c09","651c1b922918c006a9f5d6de","null","null","<p style=""font-size: 60px; font-family: BACS"">OZkbvUdm</p>","","","","","","","","",""
"html-keyboard-response","339","1186618","0.0-16.0-0.7","60f030dca19a06db1b50d16a","650c16f0f2faf8d7a0d14c09","651c1b922918c006a9f5d6de","null","null","<p style=""font-size: 60px; font-family: BACS"">OZkbvUdm</p>","","","","","","","","",""
"html-keyboard-response","340","1187620","0.0-16.0-0.8","60f030dca19a06db1b50d16a","650c16f0f2faf8d7a0d14c09","651c1b922918c006a9f5d6de","null","null","<p style=""font-size: 60px; font-family: BACS"">OZkbvUdm</p>","","","","","","","","",""
"html-keyboard-response","341","1188621","0.0-16.0-0.9","60f030dca19a06db1b50d16a","650c16f0f2faf8d7a0d14c09","651c1b922918c006a9f5d6de","null","null","<p style=""font-size: 60px; font-family: BACS"">OZkbvUdm</p>","","","","","","","","",""
"html-keyboard-response","342","1189622","0.0-16.0-0.10","60f030dca19a06db1b50d16a","650c16f0f2faf8d7a0d14c09","651c1b922918c006a9f5d6de","null","null","<p style=""font-size: 60px; font-family: BACS"">OZkbvUdm</p>","","","","","","","","",""
"html-keyboard-response","343","1190636","0.0-16.0-0.11","60f030dca19a06db1b50d16a","650c16f0f2faf8d7a0d14c09","651c1b922918c006a9f5d6de","null","null","<p style=""font-size: 60px; font-family: BACS"">OZkbvUdm</p>","","","","","","","","",""
"html-keyboard-response","344","1191638","0.0-16.0-0.12","60f030dca19a06db1b50d16a","650c16f0f2faf8d7a0d14c09","651c1b922918c006a9f5d6de","null","null","<p style=""font-size: 60px; font-family: BACS"">OZkbvUdm</p>","","","","","","","","",""
"html-keyboard-response","345","1192652","0.0-16.0-0.13","60f030dca19a06db1b50d16a","650c16f0f2faf8d7a0d14c09","651c1b922918c006a9f5d6de","null","null","<p style=""font-size: 60px; font-family: BACS"">OZkbvUdm</p>","","","","","","","","",""
"html-keyboard-response","346","1193653","0.0-16.0-0.14","60f030dca19a06db1b50d16a","650c16f0f2faf8d7a0d14c09","651c1b922918c006a9f5d6de","null","null","<p style=""font-size: 60px; font-family: BACS"">OZkbvUdm</p>","","","","","","","","",""
"html-keyboard-response","347","1194655","0.0-16.0-0.15","60f030dca19a06db1b50d16a","650c16f0f2faf8d7a0d14c09","651c1b922918c006a9f5d6de","null","null","<p style=""font-size: 60px; font-family: BACS"">OZkbvUdm</p>","","","","","","","","",""
"html-keyboard-response","348","1195668","0.0-16.0-0.16","60f030dca19a06db1b50d16a","650c16f0f2faf8d7a0d14c09","651c1b922918c006a9f5d6de","null","null","<p style=""font-size: 60px; font-family: BACS"">OZkbvUdm</p>","","","","","","","","",""
"html-keyboard-response","349","1196670","0.0-16.0-0.17","60f030dca19a06db1b50d16a","650c16f0f2faf8d7a0d14c09","651c1b922918c006a9f5d6de","null","null","<p style=""font-size: 60px; font-family: BACS"">OZkbvUdm</p>","","","","","","","","",""
"html-keyboard-response","350","1197671","0.0-16.0-0.18","60f030dca19a06db1b50d16a","650c16f0f2faf8d7a0d14c09","651c1b922918c006a9f5d6de","null","null","<p style=""font-size: 60px; font-family: BACS"">OZkbvUdm</p>","","","","","","","","",""
"html-keyboard-response","351","1198686","0.0-16.0-0.19","60f030dca19a06db1b50d16a","650c16f0f2faf8d7a0d14c09","651c1b922918c006a9f5d6de","null","null","<p style=""font-size: 60px; font-family: BACS"">OZkbvUdm</p>","","","","","","","","",""
"html-keyboard-response","352","1199703","0.0-16.0-0.20","60f030dca19a06db1b50d16a","650c16f0f2faf8d7a0d14c09","651c1b922918c006a9f5d6de","null","null","<p style=""font-size: 60px; font-family: BACS"">OZkbvUdm</p>","","","","","","","","",""
"html-keyboard-response","353","1200704","0.0-16.0-0.21","60f030dca19a06db1b50d16a","650c16f0f2faf8d7a0d14c09","651c1b922918c006a9f5d6de","null","null","<p style=""font-size: 60px; font-family: BACS"">OZkbvUdm</p>","","","","","","","","",""
"html-keyboard-response","354","1201719","0.0-16.0-0.22","60f030dca19a06db1b50d16a","650c16f0f2faf8d7a0d14c09","651c1b922918c006a9f5d6de","null","null","<p style=""font-size: 60px; font-family: BACS"">OZkbvUdm</p>","","","","","","","","",""
"html-keyboard-response","355","1202721","0.0-16.0-0.23","60f030dca19a06db1b50d16a","650c16f0f2faf8d7a0d14c09","651c1b922918c006a9f5d6de","null","null","<p style=""font-size: 60px; font-family: BACS"">OZkbvUdm</p>","","","","","","","","",""
"html-keyboard-response","356","1203734","0.0-16.0-0.24","60f030dca19a06db1b50d16a","650c16f0f2faf8d7a0d14c09","651c1b922918c006a9f5d6de","null","null","<p style=""font-size: 60px; font-family: BACS"">OZkbvUdm</p>","","","","","","","","",""
"html-keyboard-response","357","1204735","0.0-16.0-0.25","60f030dca19a06db1b50d16a","650c16f0f2faf8d7a0d14c09","651c1b922918c006a9f5d6de","null","null","<p style=""font-size: 60px; font-family: BACS"">OZkbvUdm</p>","","","","","","","","",""
"html-keyboard-response","358","1205736","0.0-16.0-0.26","60f030dca19a06db1b50d16a","650c16f0f2faf8d7a0d14c09","651c1b922918c006a9f5d6de","null","null","<p style=""font-size: 60px; font-family: BACS"">OZkbvUdm</p>","","","","","","","","",""
"html-keyboard-response","359","1206738","0.0-16.0-0.27","60f030dca19a06db1b50d16a","650c16f0f2faf8d7a0d14c09","651c1b922918c006a9f5d6de","null","null","<p style=""font-size: 60px; font-family: BACS"">OZkbvUdm</p>","","","","","","","","",""
"html-keyboard-response","360","1207751","0.0-16.0-0.28","60f030dca19a06db1b50d16a","650c16f0f2faf8d7a0d14c09","651c1b922918c006a9f5d6de","null","null","<p style=""font-size: 60px; font-family: BACS"">OZkbvUdm</p>","","","","","","","","",""
"html-keyboard-response","361","1208753","0.0-16.0-0.29","60f030dca19a06db1b50d16a","650c16f0f2faf8d7a0d14c09","651c1b922918c006a9f5d6de","null","null","<p style=""font-size: 60px; font-family: BACS"">OZkbvUdm</p>","","","","","","","","",""
"html-keyboard-response","362","1209754","0.0-16.0-0.30","60f030dca19a06db1b50d16a","650c16f0f2faf8d7a0d14c09","651c1b922918c006a9f5d6de","null","null","<p style=""font-size: 60px; font-family: BACS"">OZkbvUdm</p>","","","","","","","","",""
"html-keyboard-response","363","1210768","0.0-16.0-0.31","60f030dca19a06db1b50d16a","650c16f0f2faf8d7a0d14c09","651c1b922918c006a9f5d6de","null","null","<p style=""font-size: 60px; font-family: BACS"">OZkbvUdm</p>","","","","","","","","",""
"html-keyboard-response","364","1211769","0.0-16.0-0.32","60f030dca19a06db1b50d16a","650c16f0f2faf8d7a0d14c09","651c1b922918c006a9f5d6de","null","null","<p style=""font-size: 60px; font-family: BACS"">OZkbvUdm</p>","","","","","","","","",""
"html-keyboard-response","365","1212770","0.0-16.0-0.33","60f030dca19a06db1b50d16a","650c16f0f2faf8d7a0d14c09","651c1b922918c006a9f5d6de","null","null","<p style=""font-size: 60px; font-family: BACS"">OZkbvUdm</p>","","","","","","","","",""
"html-keyboard-response","366","1213785","0.0-16.0-0.34","60f030dca19a06db1b50d16a","650c16f0f2faf8d7a0d14c09","651c1b922918c006a9f5d6de","null","null","<p style=""font-size: 60px; font-family: BACS"">OZkbvUdm</p>","","","","","","","","",""
"html-keyboard-response","367","1214787","0.0-16.0-0.35","60f030dca19a06db1b50d16a","650c16f0f2faf8d7a0d14c09","651c1b922918c006a9f5d6de","null","null","<p style=""font-size: 60px; font-family: BACS"">OZkbvUdm</p>","","","","","","","","",""
"html-keyboard-response","368","1215788","0.0-16.0-0.36","60f030dca19a06db1b50d16a","650c16f0f2faf8d7a0d14c09","651c1b922918c006a9f5d6de","null","null","<p style=""font-size: 60px; font-family: BACS"">OZkbvUdm</p>","","","","","","","","",""
"html-keyboard-response","369","1216802","0.0-16.0-0.37","60f030dca19a06db1b50d16a","650c16f0f2faf8d7a0d14c09","651c1b922918c006a9f5d6de","null","null","<p style=""font-size: 60px; font-family: BACS"">OZkbvUdm</p>","","","","","","","","",""
"html-keyboard-response","370","1217803","0.0-16.0-0.38","60f030dca19a06db1b50d16a","650c16f0f2faf8d7a0d14c09","651c1b922918c006a9f5d6de","null","null","<p style=""font-size: 60px; font-family: BACS"">OZkbvUdm</p>","","","","","","","","",""
"html-keyboard-response","371","1218804","0.0-16.0-0.39","60f030dca19a06db1b50d16a","650c16f0f2faf8d7a0d14c09","651c1b922918c006a9f5d6de","null","null","<p style=""font-size: 60px; font-family: BACS"">OZkbvUdm</p>","","","","","","","","",""
"html-keyboard-response","372","1219806","0.0-16.0-0.40","60f030dca19a06db1b50d16a","650c16f0f2faf8d7a0d14c09","651c1b922918c006a9f5d6de","null","null","<p style=""font-size: 60px; font-family: BACS"">OZkbvUdm</p>","","","","","","","","",""
"html-keyboard-response","373","1220817","0.0-16.0-0.41","60f030dca19a06db1b50d16a","650c16f0f2faf8d7a0d14c09","651c1b922918c006a9f5d6de","null","null","<p style=""font-size: 60px; font-family: BACS"">OZkbvUdm</p>","","","","","","","","",""
"html-keyboard-response","374","1221819","0.0-16.0-0.42","60f030dca19a06db1b50d16a","650c16f0f2faf8d7a0d14c09","651c1b922918c006a9f5d6de","null","null","<p style=""font-size: 60px; font-family: BACS"">OZkbvUdm</p>","","","","","","","","",""
"html-keyboard-response","375","1222819","0.0-16.0-0.43","60f030dca19a06db1b50d16a","650c16f0f2faf8d7a0d14c09","651c1b922918c006a9f5d6de","null","null","<p style=""font-size: 60px; font-family: BACS"">OZkbvUdm</p>","","","","","","","","",""
"html-keyboard-response","376","1223820","0.0-16.0-0.44","60f030dca19a06db1b50d16a","650c16f0f2faf8d7a0d14c09","651c1b922918c006a9f5d6de","null","null","<p style=""font-size: 60px; font-family: BACS"">OZkbvUdm</p>","","","","","","","","",""
"html-keyboard-response","377","1224821","0.0-16.0-0.45","60f030dca19a06db1b50d16a","650c16f0f2faf8d7a0d14c09","651c1b922918c006a9f5d6de","null","null","<p style=""font-size: 60px; font-family: BACS"">OZkbvUdm</p>","","","","","","","","",""
"html-keyboard-response","378","1225835","0.0-16.0-0.46","60f030dca19a06db1b50d16a","650c16f0f2faf8d7a0d14c09","651c1b922918c006a9f5d6de","null","null","<p style=""font-size: 60px; font-family: BACS"">OZkbvUdm</p>","","","","","","","","",""
"html-keyboard-response","379","1226836","0.0-16.0-0.47","60f030dca19a06db1b50d16a","650c16f0f2faf8d7a0d14c09","651c1b922918c006a9f5d6de","null","null","<p style=""font-size: 60px; font-family: BACS"">OZkbvUdm</p>","","","","","","","","",""
"html-keyboard-response","380","1227837","0.0-16.0-0.48","60f030dca19a06db1b50d16a","650c16f0f2faf8d7a0d14c09","651c1b922918c006a9f5d6de","null","null","<p style=""font-size: 60px; font-family: BACS"">OZkbvUdm</p>","","","","","","","","",""
"html-keyboard-response","381","1228851","0.0-16.0-0.49","60f030dca19a06db1b50d16a","650c16f0f2faf8d7a0d14c09","651c1b922918c006a9f5d6de","null","null","<p style=""font-size: 60px; font-family: BACS"">OZkbvUdm</p>","","","","","","","","",""
"html-keyboard-response","382","1229852","0.0-16.0-0.50","60f030dca19a06db1b50d16a","650c16f0f2faf8d7a0d14c09","651c1b922918c006a9f5d6de","null","null","<p style=""font-size: 60px; font-family: BACS"">OZkbvUdm</p>","","","","","","","","",""
"html-keyboard-response","383","1230853","0.0-16.0-0.51","60f030dca19a06db1b50d16a","650c16f0f2faf8d7a0d14c09","651c1b922918c006a9f5d6de","null","null","<p style=""font-size: 60px; font-family: BACS"">OZkbvUdm</p>","","","","","","","","",""
"html-keyboard-response","384","1231854","0.0-16.0-0.52","60f030dca19a06db1b50d16a","650c16f0f2faf8d7a0d14c09","651c1b922918c006a9f5d6de","null","null","<p style=""font-size: 60px; font-family: BACS"">OZkbvUdm</p>","","","","","","","","",""
"html-keyboard-response","385","1232868","0.0-16.0-0.53","60f030dca19a06db1b50d16a","650c16f0f2faf8d7a0d14c09","651c1b922918c006a9f5d6de","null","null","<p style=""font-size: 60px; font-family: BACS"">OZkbvUdm</p>","","","","","","","","",""
"html-keyboard-response","386","1233870","0.0-16.0-0.54","60f030dca19a06db1b50d16a","650c16f0f2faf8d7a0d14c09","651c1b922918c006a9f5d6de","null","null","<p style=""font-size: 60px; font-family: BACS"">OZkbvUdm</p>","","","","","","","","",""
"html-keyboard-response","387","1234885","0.0-16.0-0.55","60f030dca19a06db1b50d16a","650c16f0f2faf8d7a0d14c09","651c1b922918c006a9f5d6de","null","null","<p style=""font-size: 60px; font-family: BACS"">OZkbvUdm</p>","","","","","","","","",""
"html-keyboard-response","388","1235886","0.0-16.0-0.56","60f030dca19a06db1b50d16a","650c16f0f2faf8d7a0d14c09","651c1b922918c006a9f5d6de","null","null","<p style=""font-size: 60px; font-family: BACS"">OZkbvUdm</p>","","","","","","","","",""
"html-keyboard-response","389","1236887","0.0-16.0-0.57","60f030dca19a06db1b50d16a","650c16f0f2faf8d7a0d14c09","651c1b922918c006a9f5d6de","null","null","<p style=""font-size: 60px; font-family: BACS"">OZkbvUdm</p>","","","","","","","","",""
"html-keyboard-response","390","1237903","0.0-16.0-0.58","60f030dca19a06db1b50d16a","650c16f0f2faf8d7a0d14c09","651c1b922918c006a9f5d6de","null","null","<p style=""font-size: 60px; font-family: BACS"">OZkbvUdm</p>","","","","","","","","",""
"html-keyboard-response","391","1238904","0.0-16.0-0.59","60f030dca19a06db1b50d16a","650c16f0f2faf8d7a0d14c09","651c1b922918c006a9f5d6de","null","null","<p style=""font-size: 60px; font-family: BACS"">OZkbvUdm</p>","","","","","","","","",""
"html-keyboard-response","392","1239906","0.0-16.0-0.60","60f030dca19a06db1b50d16a","650c16f0f2faf8d7a0d14c09","651c1b922918c006a9f5d6de","null","null","<p style=""font-size: 60px; font-family: BACS"">OZkbvUdm</p>","","","","","","","","",""
"html-keyboard-response","393","1240912","0.0-16.0-0.61","60f030dca19a06db1b50d16a","650c16f0f2faf8d7a0d14c09","651c1b922918c006a9f5d6de","null","null","<p style=""font-size: 60px; font-family: BACS"">OZkbvUdm</p>","","","","","","","","",""
"html-keyboard-response","394","1241916","0.0-16.0-0.62","60f030dca19a06db1b50d16a","650c16f0f2faf8d7a0d14c09","651c1b922918c006a9f5d6de","null","null","<p style=""font-size: 60px; font-family: BACS"">OZkbvUdm</p>","","","","","","","","",""
"html-keyboard-response","395","1242919","0.0-16.0-0.63","60f030dca19a06db1b50d16a","650c16f0f2faf8d7a0d14c09","651c1b922918c006a9f5d6de","null","null","<p style=""font-size: 60px; font-family: BACS"">OZkbvUdm</p>","","","","","","","","",""
"html-keyboard-response","396","1243921","0.0-16.0-0.64","60f030dca19a06db1b50d16a","650c16f0f2faf8d7a0d14c09","651c1b922918c006a9f5d6de","null","null","<p style=""font-size: 60px; font-family: BACS"">OZkbvUdm</p>","","","","","","","","",""
"html-keyboard-response","397","1244934","0.0-16.0-0.65","60f030dca19a06db1b50d16a","650c16f0f2faf8d7a0d14c09","651c1b922918c006a9f5d6de","null","null","<p style=""font-size: 60px; font-family: BACS"">OZkbvUdm</p>","","","","","","","","",""
"html-keyboard-response","398","1245935","0.0-16.0-0.66","60f030dca19a06db1b50d16a","650c16f0f2faf8d7a0d14c09","651c1b922918c006a9f5d6de","null","null","<p style=""font-size: 60px; font-family: BACS"">OZkbvUdm</p>","","","","","","","","",""
"html-keyboard-response","399","1246936","0.0-16.0-0.67","60f030dca19a06db1b50d16a","650c16f0f2faf8d7a0d14c09","651c1b922918c006a9f5d6de","null","null","<p style=""font-size: 60px; font-family: BACS"">OZkbvUdm</p>","","","","","","","","",""
