"trial_type","trial_index","time_elapsed","internal_node_id","subject_id","study_id","session_id","rt","response","stimulus","success","item","task","correct_response","correct","target","confound","name"
"pavlovia","0","2704","0.0-0.0","5ec806f532fe7d2afa2e315b","64b003020eef62ee308107cc","64b1092b3d4d4b5751721a45","","","","","","","","","","",""
"survey-html-form","1","9492","0.0-1.0","5ec806f532fe7d2afa2e315b","64b003020eef62ee308107cc","64b1092b3d4d4b5751721a45","6786","{""ID"":""5ec806f532fe7d2afa2e315b""}","","","","","","","","",""
"html-keyboard-response","2","17220","0.0-2.0","5ec806f532fe7d2afa2e315b","64b003020eef62ee308107cc","64b1092b3d4d4b5751721a45","7726"," ","<p style=""font-size: 15px;"">Prima di cominciare, le chiediamo di leggere il modulo di consenso informato e confermare la sua volontà di partecipare all'esperimento.</p>
      <p style=""font-size: 15px;""> La preghiamo di ricordare che questo è un progetto di ricerca e che la sua partecipazione è completamente volontaria. Lei si potra' ritirare in qualunque momento, senza necessariamente dover dare alcuna spiegazione. Lo studio al quale Le si chiede di partecipare ha lo scopo di esaminare come i lettori elaborano le parole scritte. La somministrazione delle prove è individuale. Lei sarà impegnato in una sessione di lavoro della durata media di 10 minuti, e un questionario di 10 minuti. L’ordine delle prove ed il loro svolgimento sono stabiliti in modo tale da evitare un eventuale affaticamento. Tutte le prove saranno precedute da un breve addestramento in modo tale che abbia la possibilità di familiarizzare con il compito. Sono previste alcune pause nel corso dello svolgimento dell’esperimento. Una ricompensa di £4 (£8 per ora) Le verrà consegnata al termine della sessione di testing. Nonostante il testing preveda delle prove cognitive, il presente esperimento non costituisce una prova clinica che permetta la diagnosi di eventuali patologie.</p>
      <p style=""font-size: 15px;"">Tutti i dati raccolti grazie alla partecipazione Sua e di altre persone volontarie saranno custoditi in server sicuri e protetti da password, e non sarà consentito ad alcuna persona non autorizzata di accedervi. Le Sue informazioni personali saranno conservate separatamente dai risultati della presente ricerca, cui saranno associati soltanto attraverso un ID arbitrario. Grazie a questo processo di anonimizzazione dei dati, a nessun ricercatore sarà possibile analizzare i risultati sapendo da quale specifico partecipante essi provengono. Inoltre, questa procedura renderà impossibile la Sua identificazione anche nel momento in cui i risultati della ricerca fossero pubblicati su riviste scientifiche, o presentati a congressi o in qualsiasi altro pubblico consesso. Più in generale, i dati raccolti saranno trattati in accordo con le leggi sulla privacy e in conformità al Decreto Legislativo 30 giugno 2003 n. 196 “Codice in materia di protezione dei dati personali” e al Regolamento Europeo 2016/679 (General Data Protection Regulation - GDPR). Il Responsabile della protezione dei dati (RPD) è l’Avv. Valentina Carollo che può essere contattato ai seguenti indirizzi email: <a href=""mailto:dpo@sissa.it"">dpo@sissa.it</a> oppure <a href=""mailto:rpd@sissa.it"">rpd@sissa.it</a> - PEC: <a href=""mailto:protocollo@pec.sissa.it"">protocollo@pec.sissa.it</a>.</p>
      <p style=""font-size: 15px;""> Prima di esprimere il suo consenso alla partecipazione, Le ricordiamo ancora che in caso Lei abbia bisogno di delucidazioni su qualunque aspetto della procedura sperimentale, il ricercatore è a Sua completa disposizione (<a href=""mailto:aliebelt@sissa.it"">aliebelt@sissa.it</a>, <a href=""mailto:davide.crepaldi@sissa.it"">davide.crepaldi@sissa.it</a>).</p>
      <p style=""font-size: 15px;"">Se vuole scaricare il modulo di consenso informato, clicca qui: <a href=""BASL_modulo_consenso.pdf"" download>modulo di consenso</a>.</p>
      <p style=""font-size: 15px;""> Le chiediamo di premere la barra per continuare al consenso.</p>","","","","","","","",""
"survey-html-form","3","29960","0.0-3.0","5ec806f532fe7d2afa2e315b","64b003020eef62ee308107cc","64b1092b3d4d4b5751721a45","12739","{""consent1"":""YES"",""consent2"":""YES"",""consent3"":""YES"",""consent4"":""YES"",""consent5"":""YES"",""consent6"":""YES""}","","","","","","","","",""
"fullscreen","4","34002","0.0-4.0","5ec806f532fe7d2afa2e315b","64b003020eef62ee308107cc","64b1092b3d4d4b5751721a45","","","","true","","","","","","",""
"html-keyboard-response","5","60676","0.0-5.0","5ec806f532fe7d2afa2e315b","64b003020eef62ee308107cc","64b1092b3d4d4b5751721a45","26674"," ","<p>Benvenuta/o, e grazie mille del tuo tempo!</p>
      <p>In questo esperimento sarai un esperto/un'esperta di linguaggio cui è stato chiesto di dare un'occhiata ad alcuni messaggi che la Terra ha ricevuto dallo spazio. Il tuo compito, in questa prima parte dell'esperimento, sarà di fare molta attenzione alle parole che ti verranno mostrate; più tardi, i leader del mondo ti chiederanno qualche informazione su quello che hai visto. Le parole si susseguiranno abbastanza velocemente; sembra che questi alieni abbiano una certa fretta :-) </p>
      <p>Per favore, chiama lo sperimentatore se ha qualche domanda.</p><p>Premi la barra per continuare.</p>","","","","","","","",""
"html-keyboard-response","6","65625","0.0-6.0","5ec806f532fe7d2afa2e315b","64b003020eef62ee308107cc","64b1092b3d4d4b5751721a45","4947"," ","<p>Ecco un esempio delle parole che vedrai:</p>
      <img src='esempio.png' height='400px'>
      <p>Quando sei pronti per iniziare, premi la barra.</p></div>","","","","","","","",""
"html-keyboard-response","7","66637","0.0-7.0-0.0","5ec806f532fe7d2afa2e315b","64b003020eef62ee308107cc","64b1092b3d4d4b5751721a45","null","null","<p style=""font-size: 60px; font-family: BACS"">lBKtlMck</p>","","","","","","","",""
"html-keyboard-response","8","67640","0.0-7.0-0.1","5ec806f532fe7d2afa2e315b","64b003020eef62ee308107cc","64b1092b3d4d4b5751721a45","null","null","<p style=""font-size: 60px; font-family: BACS"">kCRmRYlD</p>","","","","","","","",""
"html-keyboard-response","9","68641","0.0-7.0-0.2","5ec806f532fe7d2afa2e315b","64b003020eef62ee308107cc","64b1092b3d4d4b5751721a45","null","null","<p style=""font-size: 60px; font-family: BACS"">rvOvUkdrO</p>","","","","","","","",""
"html-keyboard-response","10","69647","0.0-7.0-0.3","5ec806f532fe7d2afa2e315b","64b003020eef62ee308107cc","64b1092b3d4d4b5751721a45","null","null","<p style=""font-size: 60px; font-family: BACS"">vAuNlkuvb</p>","","","","","","","",""
"html-keyboard-response","11","70649","0.0-7.0-0.4","5ec806f532fe7d2afa2e315b","64b003020eef62ee308107cc","64b1092b3d4d4b5751721a45","null","null","<p style=""font-size: 60px; font-family: BACS"">lBKtOdOP</p>","","","","","","","",""
"html-keyboard-response","12","71658","0.0-7.0-0.5","5ec806f532fe7d2afa2e315b","64b003020eef62ee308107cc","64b1092b3d4d4b5751721a45","null","null","<p style=""font-size: 60px; font-family: BACS"">PcBTlMck</p>","","","","","","","",""
"html-keyboard-response","13","72662","0.0-7.0-0.6","5ec806f532fe7d2afa2e315b","64b003020eef62ee308107cc","64b1092b3d4d4b5751721a45","null","null","<p style=""font-size: 60px; font-family: BACS"">mdkKcPK</p>","","","","","","","",""
"html-keyboard-response","14","73663","0.0-7.0-0.7","5ec806f532fe7d2afa2e315b","64b003020eef62ee308107cc","64b1092b3d4d4b5751721a45","null","null","<p style=""font-size: 60px; font-family: BACS"">KBKBEDOk</p>","","","","","","","",""
"html-keyboard-response","15","74667","0.0-7.0-0.8","5ec806f532fe7d2afa2e315b","64b003020eef62ee308107cc","64b1092b3d4d4b5751721a45","null","null","<p style=""font-size: 60px; font-family: BACS"">ALOrlOJlN</p>","","","","","","","",""
"html-keyboard-response","16","75682","0.0-7.0-0.9","5ec806f532fe7d2afa2e315b","64b003020eef62ee308107cc","64b1092b3d4d4b5751721a45","null","null","<p style=""font-size: 60px; font-family: BACS"">kCRmDOk</p>","","","","","","","",""
"html-keyboard-response","17","76683","0.0-7.0-0.10","5ec806f532fe7d2afa2e315b","64b003020eef62ee308107cc","64b1092b3d4d4b5751721a45","null","null","<p style=""font-size: 60px; font-family: BACS"">PcBTRYlD</p>","","","","","","","",""
"html-keyboard-response","18","77695","0.0-7.0-0.11","5ec806f532fe7d2afa2e315b","64b003020eef62ee308107cc","64b1092b3d4d4b5751721a45","null","null","<p style=""font-size: 60px; font-family: BACS"">aONduUY</p>","","","","","","","",""
"html-keyboard-response","19","78701","0.0-7.0-0.12","5ec806f532fe7d2afa2e315b","64b003020eef62ee308107cc","64b1092b3d4d4b5751721a45","null","null","<p style=""font-size: 60px; font-family: BACS"">YadrkdrO</p>","","","","","","","",""
"html-keyboard-response","20","79704","0.0-7.0-0.13","5ec806f532fe7d2afa2e315b","64b003020eef62ee308107cc","64b1092b3d4d4b5751721a45","null","null","<p style=""font-size: 60px; font-family: BACS"">vmuLluUY</p>","","","","","","","",""
"html-keyboard-response","21","80709","0.0-7.0-0.14","5ec806f532fe7d2afa2e315b","64b003020eef62ee308107cc","64b1092b3d4d4b5751721a45","null","null","<p style=""font-size: 60px; font-family: BACS"">NLQGmJUG</p>","","","","","","","",""
"html-keyboard-response","22","81717","0.0-7.0-0.15","5ec806f532fe7d2afa2e315b","64b003020eef62ee308107cc","64b1092b3d4d4b5751721a45","null","null","<p style=""font-size: 60px; font-family: BACS"">YadrOJlN</p>","","","","","","","",""
"html-keyboard-response","23","82721","0.0-7.0-0.16","5ec806f532fe7d2afa2e315b","64b003020eef62ee308107cc","64b1092b3d4d4b5751721a45","null","null","<p style=""font-size: 60px; font-family: BACS"">cdKBYlMck</p>","","","","","","","",""
"html-keyboard-response","24","83736","0.0-7.0-0.17","5ec806f532fe7d2afa2e315b","64b003020eef62ee308107cc","64b1092b3d4d4b5751721a45","null","null","<p style=""font-size: 60px; font-family: BACS"">rvOvUuUY</p>","","","","","","","",""
"html-keyboard-response","25","84741","0.0-7.0-0.18","5ec806f532fe7d2afa2e315b","64b003020eef62ee308107cc","64b1092b3d4d4b5751721a45","null","null","<p style=""font-size: 60px; font-family: BACS"">BMEMAcPK</p>","","","","","","","",""
"html-keyboard-response","26","85752","0.0-7.0-0.19","5ec806f532fe7d2afa2e315b","64b003020eef62ee308107cc","64b1092b3d4d4b5751721a45","null","null","<p style=""font-size: 60px; font-family: BACS"">KBKBElMck</p>","","","","","","","",""
"html-keyboard-response","27","86756","0.0-7.0-0.20","5ec806f532fe7d2afa2e315b","64b003020eef62ee308107cc","64b1092b3d4d4b5751721a45","null","null","<p style=""font-size: 60px; font-family: BACS"">aONdkdrO</p>","","","","","","","",""
"html-keyboard-response","28","87761","0.0-7.0-0.21","5ec806f532fe7d2afa2e315b","64b003020eef62ee308107cc","64b1092b3d4d4b5751721a45","null","null","<p style=""font-size: 60px; font-family: BACS"">muYNOJlN</p>","","","","","","","",""
"html-keyboard-response","29","88770","0.0-7.0-0.22","5ec806f532fe7d2afa2e315b","64b003020eef62ee308107cc","64b1092b3d4d4b5751721a45","null","null","<p style=""font-size: 60px; font-family: BACS"">dRbDbOdOP</p>","","","","","","","",""
"html-keyboard-response","30","89779","0.0-7.0-0.23","5ec806f532fe7d2afa2e315b","64b003020eef62ee308107cc","64b1092b3d4d4b5751721a45","null","null","<p style=""font-size: 60px; font-family: BACS"">lBKtcPK</p>","","","","","","","",""
"html-keyboard-response","31","90785","0.0-7.0-0.24","5ec806f532fe7d2afa2e315b","64b003020eef62ee308107cc","64b1092b3d4d4b5751721a45","null","null","<p style=""font-size: 60px; font-family: BACS"">YNrAmkuvb</p>","","","","","","","",""
"html-keyboard-response","32","91792","0.0-7.0-0.25","5ec806f532fe7d2afa2e315b","64b003020eef62ee308107cc","64b1092b3d4d4b5751721a45","null","null","<p style=""font-size: 60px; font-family: BACS"">rvOvUJUG</p>","","","","","","","",""
"html-keyboard-response","33","92797","0.0-7.0-0.26","5ec806f532fe7d2afa2e315b","64b003020eef62ee308107cc","64b1092b3d4d4b5751721a45","null","null","<p style=""font-size: 60px; font-family: BACS"">dRbDbcPK</p>","","","","","","","",""
"html-keyboard-response","34","93803","0.0-7.0-0.27","5ec806f532fe7d2afa2e315b","64b003020eef62ee308107cc","64b1092b3d4d4b5751721a45","null","null","<p style=""font-size: 60px; font-family: BACS"">ALOrluUY</p>","","","","","","","",""
"html-keyboard-response","35","94807","0.0-7.0-0.28","5ec806f532fe7d2afa2e315b","64b003020eef62ee308107cc","64b1092b3d4d4b5751721a45","null","null","<p style=""font-size: 60px; font-family: BACS"">vAuNlJUG</p>","","","","","","","",""
"html-keyboard-response","36","95810","0.0-7.0-0.29","5ec806f532fe7d2afa2e315b","64b003020eef62ee308107cc","64b1092b3d4d4b5751721a45","null","null","<p style=""font-size: 60px; font-family: BACS"">mdkKDOk</p>","","","","","","","",""
"html-keyboard-response","37","96812","0.0-7.0-0.30","5ec806f532fe7d2afa2e315b","64b003020eef62ee308107cc","64b1092b3d4d4b5751721a45","null","null","<p style=""font-size: 60px; font-family: BACS"">ZYcQUOJlN</p>","","","","","","","",""
"html-keyboard-response","38","97818","0.0-7.0-0.31","5ec806f532fe7d2afa2e315b","64b003020eef62ee308107cc","64b1092b3d4d4b5751721a45","null","null","<p style=""font-size: 60px; font-family: BACS"">BMEMADOk</p>","","","","","","","",""
"html-keyboard-response","39","98821","0.0-7.0-0.32","5ec806f532fe7d2afa2e315b","64b003020eef62ee308107cc","64b1092b3d4d4b5751721a45","null","null","<p style=""font-size: 60px; font-family: BACS"">aONdOJlN</p>","","","","","","","",""
"html-keyboard-response","40","99826","0.0-7.0-0.33","5ec806f532fe7d2afa2e315b","64b003020eef62ee308107cc","64b1092b3d4d4b5751721a45","null","null","<p style=""font-size: 60px; font-family: BACS"">cdKBYcPK</p>","","","","","","","",""
"html-keyboard-response","41","100829","0.0-7.0-0.34","5ec806f532fe7d2afa2e315b","64b003020eef62ee308107cc","64b1092b3d4d4b5751721a45","null","null","<p style=""font-size: 60px; font-family: BACS"">PcBTDOk</p>","","","","","","","",""
"html-keyboard-response","42","101835","0.0-7.0-0.35","5ec806f532fe7d2afa2e315b","64b003020eef62ee308107cc","64b1092b3d4d4b5751721a45","null","null","<p style=""font-size: 60px; font-family: BACS"">cdKBYOdOP</p>","","","","","","","",""
"html-keyboard-response","43","102838","0.0-7.0-0.36","5ec806f532fe7d2afa2e315b","64b003020eef62ee308107cc","64b1092b3d4d4b5751721a45","null","null","<p style=""font-size: 60px; font-family: BACS"">dRbDbDOk</p>","","","","","","","",""
"html-keyboard-response","44","103851","0.0-7.0-0.37","5ec806f532fe7d2afa2e315b","64b003020eef62ee308107cc","64b1092b3d4d4b5751721a45","null","null","<p style=""font-size: 60px; font-family: BACS"">muYNkdrO</p>","","","","","","","",""
"html-keyboard-response","45","104858","0.0-7.0-0.38","5ec806f532fe7d2afa2e315b","64b003020eef62ee308107cc","64b1092b3d4d4b5751721a45","null","null","<p style=""font-size: 60px; font-family: BACS"">tcYbdOdOP</p>","","","","","","","",""
"html-keyboard-response","46","105861","0.0-7.0-0.39","5ec806f532fe7d2afa2e315b","64b003020eef62ee308107cc","64b1092b3d4d4b5751721a45","null","null","<p style=""font-size: 60px; font-family: BACS"">hlbtbRYlD</p>","","","","","","","",""
"html-keyboard-response","47","106873","0.0-7.0-0.40","5ec806f532fe7d2afa2e315b","64b003020eef62ee308107cc","64b1092b3d4d4b5751721a45","null","null","<p style=""font-size: 60px; font-family: BACS"">tcYbdcPK</p>","","","","","","","",""
"html-keyboard-response","48","107876","0.0-7.0-0.41","5ec806f532fe7d2afa2e315b","64b003020eef62ee308107cc","64b1092b3d4d4b5751721a45","null","null","<p style=""font-size: 60px; font-family: BACS"">hlbtbDOk</p>","","","","","","","",""
"html-keyboard-response","49","108884","0.0-7.0-0.42","5ec806f532fe7d2afa2e315b","64b003020eef62ee308107cc","64b1092b3d4d4b5751721a45","null","null","<p style=""font-size: 60px; font-family: BACS"">kCRmlMck</p>","","","","","","","",""
"html-keyboard-response","50","109900","0.0-7.0-0.43","5ec806f532fe7d2afa2e315b","64b003020eef62ee308107cc","64b1092b3d4d4b5751721a45","null","null","<p style=""font-size: 60px; font-family: BACS"">YNrAmuUY</p>","","","","","","","",""
"html-keyboard-response","51","110902","0.0-7.0-0.44","5ec806f532fe7d2afa2e315b","64b003020eef62ee308107cc","64b1092b3d4d4b5751721a45","null","null","<p style=""font-size: 60px; font-family: BACS"">KBKBEOdOP</p>","","","","","","","",""
"html-keyboard-response","52","111917","0.0-7.0-0.45","5ec806f532fe7d2afa2e315b","64b003020eef62ee308107cc","64b1092b3d4d4b5751721a45","null","null","<p style=""font-size: 60px; font-family: BACS"">aONdJUG</p>","","","","","","","",""
"html-keyboard-response","53","112934","0.0-7.0-0.46","5ec806f532fe7d2afa2e315b","64b003020eef62ee308107cc","64b1092b3d4d4b5751721a45","null","null","<p style=""font-size: 60px; font-family: BACS"">KBKBERYlD</p>","","","","","","","",""
"html-keyboard-response","54","113950","0.0-7.0-0.47","5ec806f532fe7d2afa2e315b","64b003020eef62ee308107cc","64b1092b3d4d4b5751721a45","null","null","<p style=""font-size: 60px; font-family: BACS"">vAuNlOJlN</p>","","","","","","","",""
"html-keyboard-response","55","114953","0.0-7.0-0.48","5ec806f532fe7d2afa2e315b","64b003020eef62ee308107cc","64b1092b3d4d4b5751721a45","null","null","<p style=""font-size: 60px; font-family: BACS"">YNrAmkdrO</p>","","","","","","","",""
"html-keyboard-response","56","115967","0.0-7.0-0.49","5ec806f532fe7d2afa2e315b","64b003020eef62ee308107cc","64b1092b3d4d4b5751721a45","null","null","<p style=""font-size: 60px; font-family: BACS"">NLQGmkuvb</p>","","","","","","","",""
"html-keyboard-response","57","116975","0.0-7.0-0.50","5ec806f532fe7d2afa2e315b","64b003020eef62ee308107cc","64b1092b3d4d4b5751721a45","null","null","<p style=""font-size: 60px; font-family: BACS"">BMEMAlMck</p>","","","","","","","",""
"html-keyboard-response","58","117984","0.0-7.0-0.51","5ec806f532fe7d2afa2e315b","64b003020eef62ee308107cc","64b1092b3d4d4b5751721a45","null","null","<p style=""font-size: 60px; font-family: BACS"">dRbDbRYlD</p>","","","","","","","",""
"html-keyboard-response","59","118989","0.0-7.0-0.52","5ec806f532fe7d2afa2e315b","64b003020eef62ee308107cc","64b1092b3d4d4b5751721a45","null","null","<p style=""font-size: 60px; font-family: BACS"">ZYcQUkdrO</p>","","","","","","","",""
"html-keyboard-response","60","119991","0.0-7.0-0.53","5ec806f532fe7d2afa2e315b","64b003020eef62ee308107cc","64b1092b3d4d4b5751721a45","null","null","<p style=""font-size: 60px; font-family: BACS"">rvOvUkuvb</p>","","","","","","","",""
"html-keyboard-response","61","121003","0.0-7.0-0.54","5ec806f532fe7d2afa2e315b","64b003020eef62ee308107cc","64b1092b3d4d4b5751721a45","null","null","<p style=""font-size: 60px; font-family: BACS"">BMEMARYlD</p>","","","","","","","",""
"html-keyboard-response","62","122016","0.0-7.0-0.55","5ec806f532fe7d2afa2e315b","64b003020eef62ee308107cc","64b1092b3d4d4b5751721a45","null","null","<p style=""font-size: 60px; font-family: BACS"">kCRmOdOP</p>","","","","","","","",""
"html-keyboard-response","63","123018","0.0-7.0-0.56","5ec806f532fe7d2afa2e315b","64b003020eef62ee308107cc","64b1092b3d4d4b5751721a45","null","null","<p style=""font-size: 60px; font-family: BACS"">vmuLlkuvb</p>","","","","","","","",""
"html-keyboard-response","64","124024","0.0-7.0-0.57","5ec806f532fe7d2afa2e315b","64b003020eef62ee308107cc","64b1092b3d4d4b5751721a45","null","null","<p style=""font-size: 60px; font-family: BACS"">ALOrlJUG</p>","","","","","","","",""
"html-keyboard-response","65","125030","0.0-7.0-0.58","5ec806f532fe7d2afa2e315b","64b003020eef62ee308107cc","64b1092b3d4d4b5751721a45","null","null","<p style=""font-size: 60px; font-family: BACS"">tcYbdRYlD</p>","","","","","","","",""
"html-keyboard-response","66","126035","0.0-7.0-0.59","5ec806f532fe7d2afa2e315b","64b003020eef62ee308107cc","64b1092b3d4d4b5751721a45","null","null","<p style=""font-size: 60px; font-family: BACS"">ZYcQUkuvb</p>","","","","","","","",""
"html-keyboard-response","67","127042","0.0-7.0-0.60","5ec806f532fe7d2afa2e315b","64b003020eef62ee308107cc","64b1092b3d4d4b5751721a45","null","null","<p style=""font-size: 60px; font-family: BACS"">mdkKOdOP</p>","","","","","","","",""
"html-keyboard-response","68","128046","0.0-7.0-0.61","5ec806f532fe7d2afa2e315b","64b003020eef62ee308107cc","64b1092b3d4d4b5751721a45","null","null","<p style=""font-size: 60px; font-family: BACS"">vmuLlJUG</p>","","","","","","","",""
"html-keyboard-response","69","129050","0.0-7.0-0.62","5ec806f532fe7d2afa2e315b","64b003020eef62ee308107cc","64b1092b3d4d4b5751721a45","null","null","<p style=""font-size: 60px; font-family: BACS"">hlbtbcPK</p>","","","","","","","",""
"html-keyboard-response","70","130062","0.0-7.0-0.63","5ec806f532fe7d2afa2e315b","64b003020eef62ee308107cc","64b1092b3d4d4b5751721a45","null","null","<p style=""font-size: 60px; font-family: BACS"">tcYbdlMck</p>","","","","","","","",""
"html-keyboard-response","71","131068","0.0-7.0-0.64","5ec806f532fe7d2afa2e315b","64b003020eef62ee308107cc","64b1092b3d4d4b5751721a45","null","null","<p style=""font-size: 60px; font-family: BACS"">muYNkuvb</p>","","","","","","","",""
"html-keyboard-response","72","132073","0.0-7.0-0.65","5ec806f532fe7d2afa2e315b","64b003020eef62ee308107cc","64b1092b3d4d4b5751721a45","null","null","<p style=""font-size: 60px; font-family: BACS"">YNrAmJUG</p>","","","","","","","",""
"html-keyboard-response","73","133076","0.0-7.0-0.66","5ec806f532fe7d2afa2e315b","64b003020eef62ee308107cc","64b1092b3d4d4b5751721a45","null","null","<p style=""font-size: 60px; font-family: BACS"">muYNuUY</p>","","","","","","","",""
"html-keyboard-response","74","134083","0.0-7.0-0.67","5ec806f532fe7d2afa2e315b","64b003020eef62ee308107cc","64b1092b3d4d4b5751721a45","null","null","<p style=""font-size: 60px; font-family: BACS"">NLQGmkdrO</p>","","","","","","","",""
"html-keyboard-response","75","135100","0.0-7.0-0.68","5ec806f532fe7d2afa2e315b","64b003020eef62ee308107cc","64b1092b3d4d4b5751721a45","null","null","<p style=""font-size: 60px; font-family: BACS"">PcBTcPK</p>","","","","","","","",""
"html-keyboard-response","76","136104","0.0-7.0-0.69","5ec806f532fe7d2afa2e315b","64b003020eef62ee308107cc","64b1092b3d4d4b5751721a45","null","null","<p style=""font-size: 60px; font-family: BACS"">vmuLlOJlN</p>","","","","","","","",""
"html-keyboard-response","77","137108","0.0-7.0-0.70","5ec806f532fe7d2afa2e315b","64b003020eef62ee308107cc","64b1092b3d4d4b5751721a45","null","null","<p style=""font-size: 60px; font-family: BACS"">vAuNluUY</p>","","","","","","","",""
"html-keyboard-response","78","138118","0.0-7.0-0.71","5ec806f532fe7d2afa2e315b","64b003020eef62ee308107cc","64b1092b3d4d4b5751721a45","null","null","<p style=""font-size: 60px; font-family: BACS"">lBKtRYlD</p>","","","","","","","",""
"html-keyboard-response","79","139122","0.0-7.0-0.72","5ec806f532fe7d2afa2e315b","64b003020eef62ee308107cc","64b1092b3d4d4b5751721a45","null","null","<p style=""font-size: 60px; font-family: BACS"">YadruUY</p>","","","","","","","",""
"html-keyboard-response","80","140129","0.0-7.0-0.73","5ec806f532fe7d2afa2e315b","64b003020eef62ee308107cc","64b1092b3d4d4b5751721a45","null","null","<p style=""font-size: 60px; font-family: BACS"">NLQGmOJlN</p>","","","","","","","",""
"html-keyboard-response","81","141131","0.0-7.0-0.74","5ec806f532fe7d2afa2e315b","64b003020eef62ee308107cc","64b1092b3d4d4b5751721a45","null","null","<p style=""font-size: 60px; font-family: BACS"">hlbtbOdOP</p>","","","","","","","",""
"html-keyboard-response","82","142135","0.0-7.0-0.75","5ec806f532fe7d2afa2e315b","64b003020eef62ee308107cc","64b1092b3d4d4b5751721a45","null","null","<p style=""font-size: 60px; font-family: BACS"">ZYcQUJUG</p>","","","","","","","",""
"html-keyboard-response","83","143150","0.0-7.0-0.76","5ec806f532fe7d2afa2e315b","64b003020eef62ee308107cc","64b1092b3d4d4b5751721a45","null","null","<p style=""font-size: 60px; font-family: BACS"">mdkKlMck</p>","","","","","","","",""
"html-keyboard-response","84","144164","0.0-7.0-0.77","5ec806f532fe7d2afa2e315b","64b003020eef62ee308107cc","64b1092b3d4d4b5751721a45","null","null","<p style=""font-size: 60px; font-family: BACS"">Yadrkuvb</p>","","","","","","","",""
"html-keyboard-response","85","145177","0.0-7.0-0.78","5ec806f532fe7d2afa2e315b","64b003020eef62ee308107cc","64b1092b3d4d4b5751721a45","null","null","<p style=""font-size: 60px; font-family: BACS"">cdKBYDOk</p>","","","","","","","",""
"html-keyboard-response","86","146186","0.0-7.0-0.79","5ec806f532fe7d2afa2e315b","64b003020eef62ee308107cc","64b1092b3d4d4b5751721a45","null","null","<p style=""font-size: 60px; font-family: BACS"">ALOrlkdrO</p>","","","","","","","",""
"html-keyboard-response","87","151778","0.0-8.0","5ec806f532fe7d2afa2e315b","64b003020eef62ee308107cc","64b1092b3d4d4b5751721a45","5591"," ","<p>Ottimo, hai visto il primo blocco di parole. Ora puoi prenderti una piccola pausa.</p>
      <p>Premi la barra quando sei pronta/o per riprendere.</p>","","","","","","","",""
"html-keyboard-response","88","152783","0.0-9.0-0.0","5ec806f532fe7d2afa2e315b","64b003020eef62ee308107cc","64b1092b3d4d4b5751721a45","null","null","<p style=""font-size: 60px; font-family: BACS"">cdKBYlMck</p>","","","","","","","",""
"html-keyboard-response","89","153788","0.0-9.0-0.1","5ec806f532fe7d2afa2e315b","64b003020eef62ee308107cc","64b1092b3d4d4b5751721a45","null","null","<p style=""font-size: 60px; font-family: BACS"">Yadrkuvb</p>","","","","","","","",""
"html-keyboard-response","90","154791","0.0-9.0-0.2","5ec806f532fe7d2afa2e315b","64b003020eef62ee308107cc","64b1092b3d4d4b5751721a45","null","null","<p style=""font-size: 60px; font-family: BACS"">YNrAmuUY</p>","","","","","","","",""
"html-keyboard-response","91","155795","0.0-9.0-0.3","5ec806f532fe7d2afa2e315b","64b003020eef62ee308107cc","64b1092b3d4d4b5751721a45","null","null","<p style=""font-size: 60px; font-family: BACS"">mdkKcPK</p>","","","","","","","",""
"html-keyboard-response","92","156811","0.0-9.0-0.4","5ec806f532fe7d2afa2e315b","64b003020eef62ee308107cc","64b1092b3d4d4b5751721a45","null","null","<p style=""font-size: 60px; font-family: BACS"">vmuLluUY</p>","","","","","","","",""
"html-keyboard-response","93","157818","0.0-9.0-0.5","5ec806f532fe7d2afa2e315b","64b003020eef62ee308107cc","64b1092b3d4d4b5751721a45","null","null","<p style=""font-size: 60px; font-family: BACS"">PcBTRYlD</p>","","","","","","","",""
"html-keyboard-response","94","158823","0.0-9.0-0.6","5ec806f532fe7d2afa2e315b","64b003020eef62ee308107cc","64b1092b3d4d4b5751721a45","null","null","<p style=""font-size: 60px; font-family: BACS"">aONdkdrO</p>","","","","","","","",""
"html-keyboard-response","95","159825","0.0-9.0-0.7","5ec806f532fe7d2afa2e315b","64b003020eef62ee308107cc","64b1092b3d4d4b5751721a45","null","null","<p style=""font-size: 60px; font-family: BACS"">ALOrluUY</p>","","","","","","","",""
"html-keyboard-response","96","160827","0.0-9.0-0.8","5ec806f532fe7d2afa2e315b","64b003020eef62ee308107cc","64b1092b3d4d4b5751721a45","null","null","<p style=""font-size: 60px; font-family: BACS"">tcYbdRYlD</p>","","","","","","","",""
"html-keyboard-response","97","161840","0.0-9.0-0.9","5ec806f532fe7d2afa2e315b","64b003020eef62ee308107cc","64b1092b3d4d4b5751721a45","null","null","<p style=""font-size: 60px; font-family: BACS"">vAuNlJUG</p>","","","","","","","",""
"html-keyboard-response","98","162857","0.0-9.0-0.10","5ec806f532fe7d2afa2e315b","64b003020eef62ee308107cc","64b1092b3d4d4b5751721a45","null","null","<p style=""font-size: 60px; font-family: BACS"">YadruUY</p>","","","","","","","",""
"html-keyboard-response","99","163867","0.0-9.0-0.11","5ec806f532fe7d2afa2e315b","64b003020eef62ee308107cc","64b1092b3d4d4b5751721a45","null","null","<p style=""font-size: 60px; font-family: BACS"">YNrAmkuvb</p>","","","","","","","",""
"html-keyboard-response","100","164871","0.0-9.0-0.12","5ec806f532fe7d2afa2e315b","64b003020eef62ee308107cc","64b1092b3d4d4b5751721a45","null","null","<p style=""font-size: 60px; font-family: BACS"">vmuLlOJlN</p>","","","","","","","",""
"html-keyboard-response","101","165877","0.0-9.0-0.13","5ec806f532fe7d2afa2e315b","64b003020eef62ee308107cc","64b1092b3d4d4b5751721a45","null","null","<p style=""font-size: 60px; font-family: BACS"">lBKtlMck</p>","","","","","","","",""
"html-keyboard-response","102","166881","0.0-9.0-0.14","5ec806f532fe7d2afa2e315b","64b003020eef62ee308107cc","64b1092b3d4d4b5751721a45","null","null","<p style=""font-size: 60px; font-family: BACS"">BMEMAcPK</p>","","","","","","","",""
"html-keyboard-response","103","167886","0.0-9.0-0.15","5ec806f532fe7d2afa2e315b","64b003020eef62ee308107cc","64b1092b3d4d4b5751721a45","null","null","<p style=""font-size: 60px; font-family: BACS"">YadrkdrO</p>","","","","","","","",""
"html-keyboard-response","104","168892","0.0-9.0-0.16","5ec806f532fe7d2afa2e315b","64b003020eef62ee308107cc","64b1092b3d4d4b5751721a45","null","null","<p style=""font-size: 60px; font-family: BACS"">ZYcQUkuvb</p>","","","","","","","",""
"html-keyboard-response","105","169893","0.0-9.0-0.17","5ec806f532fe7d2afa2e315b","64b003020eef62ee308107cc","64b1092b3d4d4b5751721a45","null","null","<p style=""font-size: 60px; font-family: BACS"">rvOvUJUG</p>","","","","","","","",""
"html-keyboard-response","106","170902","0.0-9.0-0.18","5ec806f532fe7d2afa2e315b","64b003020eef62ee308107cc","64b1092b3d4d4b5751721a45","null","null","<p style=""font-size: 60px; font-family: BACS"">tcYbdlMck</p>","","","","","","","",""
"html-keyboard-response","107","171910","0.0-9.0-0.19","5ec806f532fe7d2afa2e315b","64b003020eef62ee308107cc","64b1092b3d4d4b5751721a45","null","null","<p style=""font-size: 60px; font-family: BACS"">aONdOJlN</p>","","","","","","","",""
"html-keyboard-response","108","172915","0.0-9.0-0.20","5ec806f532fe7d2afa2e315b","64b003020eef62ee308107cc","64b1092b3d4d4b5751721a45","null","null","<p style=""font-size: 60px; font-family: BACS"">KBKBEDOk</p>","","","","","","","",""
"html-keyboard-response","109","173918","0.0-9.0-0.21","5ec806f532fe7d2afa2e315b","64b003020eef62ee308107cc","64b1092b3d4d4b5751721a45","null","null","<p style=""font-size: 60px; font-family: BACS"">NLQGmkdrO</p>","","","","","","","",""
"html-keyboard-response","110","174923","0.0-9.0-0.22","5ec806f532fe7d2afa2e315b","64b003020eef62ee308107cc","64b1092b3d4d4b5751721a45","null","null","<p style=""font-size: 60px; font-family: BACS"">aONduUY</p>","","","","","","","",""
"html-keyboard-response","111","175925","0.0-9.0-0.23","5ec806f532fe7d2afa2e315b","64b003020eef62ee308107cc","64b1092b3d4d4b5751721a45","null","null","<p style=""font-size: 60px; font-family: BACS"">ZYcQUkdrO</p>","","","","","","","",""
"html-keyboard-response","112","176931","0.0-9.0-0.24","5ec806f532fe7d2afa2e315b","64b003020eef62ee308107cc","64b1092b3d4d4b5751721a45","null","null","<p style=""font-size: 60px; font-family: BACS"">PcBTlMck</p>","","","","","","","",""
"html-keyboard-response","113","177933","0.0-9.0-0.25","5ec806f532fe7d2afa2e315b","64b003020eef62ee308107cc","64b1092b3d4d4b5751721a45","null","null","<p style=""font-size: 60px; font-family: BACS"">aONdJUG</p>","","","","","","","",""
"html-keyboard-response","114","178936","0.0-9.0-0.26","5ec806f532fe7d2afa2e315b","64b003020eef62ee308107cc","64b1092b3d4d4b5751721a45","null","null","<p style=""font-size: 60px; font-family: BACS"">vmuLlkuvb</p>","","","","","","","",""
"html-keyboard-response","115","179948","0.0-9.0-0.27","5ec806f532fe7d2afa2e315b","64b003020eef62ee308107cc","64b1092b3d4d4b5751721a45","null","null","<p style=""font-size: 60px; font-family: BACS"">BMEMARYlD</p>","","","","","","","",""
"html-keyboard-response","116","180955","0.0-9.0-0.28","5ec806f532fe7d2afa2e315b","64b003020eef62ee308107cc","64b1092b3d4d4b5751721a45","null","null","<p style=""font-size: 60px; font-family: BACS"">lBKtOdOP</p>","","","","","","","",""
"html-keyboard-response","117","181960","0.0-9.0-0.29","5ec806f532fe7d2afa2e315b","64b003020eef62ee308107cc","64b1092b3d4d4b5751721a45","null","null","<p style=""font-size: 60px; font-family: BACS"">hlbtbcPK</p>","","","","","","","",""
"html-keyboard-response","118","182966","0.0-9.0-0.30","5ec806f532fe7d2afa2e315b","64b003020eef62ee308107cc","64b1092b3d4d4b5751721a45","null","null","<p style=""font-size: 60px; font-family: BACS"">kCRmOdOP</p>","","","","","","","",""
"html-keyboard-response","119","183971","0.0-9.0-0.31","5ec806f532fe7d2afa2e315b","64b003020eef62ee308107cc","64b1092b3d4d4b5751721a45","null","null","<p style=""font-size: 60px; font-family: BACS"">rvOvUkuvb</p>","","","","","","","",""
"html-keyboard-response","120","184986","0.0-9.0-0.32","5ec806f532fe7d2afa2e315b","64b003020eef62ee308107cc","64b1092b3d4d4b5751721a45","null","null","<p style=""font-size: 60px; font-family: BACS"">vmuLlJUG</p>","","","","","","","",""
"html-keyboard-response","121","186000","0.0-9.0-0.33","5ec806f532fe7d2afa2e315b","64b003020eef62ee308107cc","64b1092b3d4d4b5751721a45","null","null","<p style=""font-size: 60px; font-family: BACS"">rvOvUuUY</p>","","","","","","","",""
"html-keyboard-response","122","187004","0.0-9.0-0.34","5ec806f532fe7d2afa2e315b","64b003020eef62ee308107cc","64b1092b3d4d4b5751721a45","null","null","<p style=""font-size: 60px; font-family: BACS"">mdkKOdOP</p>","","","","","","","",""
"html-keyboard-response","123","188012","0.0-9.0-0.35","5ec806f532fe7d2afa2e315b","64b003020eef62ee308107cc","64b1092b3d4d4b5751721a45","null","null","<p style=""font-size: 60px; font-family: BACS"">hlbtbRYlD</p>","","","","","","","",""
"html-keyboard-response","124","189021","0.0-9.0-0.36","5ec806f532fe7d2afa2e315b","64b003020eef62ee308107cc","64b1092b3d4d4b5751721a45","null","null","<p style=""font-size: 60px; font-family: BACS"">PcBTcPK</p>","","","","","","","",""
"html-keyboard-response","125","190029","0.0-9.0-0.37","5ec806f532fe7d2afa2e315b","64b003020eef62ee308107cc","64b1092b3d4d4b5751721a45","null","null","<p style=""font-size: 60px; font-family: BACS"">ALOrlOJlN</p>","","","","","","","",""
"html-keyboard-response","126","191035","0.0-9.0-0.38","5ec806f532fe7d2afa2e315b","64b003020eef62ee308107cc","64b1092b3d4d4b5751721a45","null","null","<p style=""font-size: 60px; font-family: BACS"">KBKBEOdOP</p>","","","","","","","",""
"html-keyboard-response","127","192043","0.0-9.0-0.39","5ec806f532fe7d2afa2e315b","64b003020eef62ee308107cc","64b1092b3d4d4b5751721a45","null","null","<p style=""font-size: 60px; font-family: BACS"">ALOrlkdrO</p>","","","","","","","",""
"html-keyboard-response","128","193045","0.0-9.0-0.40","5ec806f532fe7d2afa2e315b","64b003020eef62ee308107cc","64b1092b3d4d4b5751721a45","null","null","<p style=""font-size: 60px; font-family: BACS"">dRbDbcPK</p>","","","","","","","",""
"html-keyboard-response","129","194050","0.0-9.0-0.41","5ec806f532fe7d2afa2e315b","64b003020eef62ee308107cc","64b1092b3d4d4b5751721a45","null","null","<p style=""font-size: 60px; font-family: BACS"">vAuNluUY</p>","","","","","","","",""
"html-keyboard-response","130","195059","0.0-9.0-0.42","5ec806f532fe7d2afa2e315b","64b003020eef62ee308107cc","64b1092b3d4d4b5751721a45","null","null","<p style=""font-size: 60px; font-family: BACS"">YNrAmJUG</p>","","","","","","","",""
"html-keyboard-response","131","196068","0.0-9.0-0.43","5ec806f532fe7d2afa2e315b","64b003020eef62ee308107cc","64b1092b3d4d4b5751721a45","null","null","<p style=""font-size: 60px; font-family: BACS"">dRbDbDOk</p>","","","","","","","",""
"html-keyboard-response","132","197074","0.0-9.0-0.44","5ec806f532fe7d2afa2e315b","64b003020eef62ee308107cc","64b1092b3d4d4b5751721a45","null","null","<p style=""font-size: 60px; font-family: BACS"">mdkKlMck</p>","","","","","","","",""
"html-keyboard-response","133","198087","0.0-9.0-0.45","5ec806f532fe7d2afa2e315b","64b003020eef62ee308107cc","64b1092b3d4d4b5751721a45","null","null","<p style=""font-size: 60px; font-family: BACS"">vAuNlOJlN</p>","","","","","","","",""
"html-keyboard-response","134","199091","0.0-9.0-0.46","5ec806f532fe7d2afa2e315b","64b003020eef62ee308107cc","64b1092b3d4d4b5751721a45","null","null","<p style=""font-size: 60px; font-family: BACS"">BMEMADOk</p>","","","","","","","",""
"html-keyboard-response","135","200098","0.0-9.0-0.47","5ec806f532fe7d2afa2e315b","64b003020eef62ee308107cc","64b1092b3d4d4b5751721a45","null","null","<p style=""font-size: 60px; font-family: BACS"">NLQGmOJlN</p>","","","","","","","",""
"html-keyboard-response","136","201104","0.0-9.0-0.48","5ec806f532fe7d2afa2e315b","64b003020eef62ee308107cc","64b1092b3d4d4b5751721a45","null","null","<p style=""font-size: 60px; font-family: BACS"">dRbDbOdOP</p>","","","","","","","",""
"html-keyboard-response","137","202108","0.0-9.0-0.49","5ec806f532fe7d2afa2e315b","64b003020eef62ee308107cc","64b1092b3d4d4b5751721a45","null","null","<p style=""font-size: 60px; font-family: BACS"">NLQGmJUG</p>","","","","","","","",""
"html-keyboard-response","138","203118","0.0-9.0-0.50","5ec806f532fe7d2afa2e315b","64b003020eef62ee308107cc","64b1092b3d4d4b5751721a45","null","null","<p style=""font-size: 60px; font-family: BACS"">cdKBYDOk</p>","","","","","","","",""
"html-keyboard-response","139","204119","0.0-9.0-0.51","5ec806f532fe7d2afa2e315b","64b003020eef62ee308107cc","64b1092b3d4d4b5751721a45","null","null","<p style=""font-size: 60px; font-family: BACS"">muYNuUY</p>","","","","","","","",""
"html-keyboard-response","140","205127","0.0-9.0-0.52","5ec806f532fe7d2afa2e315b","64b003020eef62ee308107cc","64b1092b3d4d4b5751721a45","null","null","<p style=""font-size: 60px; font-family: BACS"">kCRmDOk</p>","","","","","","","",""
"html-keyboard-response","141","206129","0.0-9.0-0.53","5ec806f532fe7d2afa2e315b","64b003020eef62ee308107cc","64b1092b3d4d4b5751721a45","null","null","<p style=""font-size: 60px; font-family: BACS"">muYNkdrO</p>","","","","","","","",""
"html-keyboard-response","142","207131","0.0-9.0-0.54","5ec806f532fe7d2afa2e315b","64b003020eef62ee308107cc","64b1092b3d4d4b5751721a45","null","null","<p style=""font-size: 60px; font-family: BACS"">lBKtcPK</p>","","","","","","","",""
"html-keyboard-response","143","208135","0.0-9.0-0.55","5ec806f532fe7d2afa2e315b","64b003020eef62ee308107cc","64b1092b3d4d4b5751721a45","null","null","<p style=""font-size: 60px; font-family: BACS"">YNrAmkdrO</p>","","","","","","","",""
"html-keyboard-response","144","209140","0.0-9.0-0.56","5ec806f532fe7d2afa2e315b","64b003020eef62ee308107cc","64b1092b3d4d4b5751721a45","null","null","<p style=""font-size: 60px; font-family: BACS"">ZYcQUOJlN</p>","","","","","","","",""
"html-keyboard-response","145","210142","0.0-9.0-0.57","5ec806f532fe7d2afa2e315b","64b003020eef62ee308107cc","64b1092b3d4d4b5751721a45","null","null","<p style=""font-size: 60px; font-family: BACS"">vAuNlkuvb</p>","","","","","","","",""
"html-keyboard-response","146","211154","0.0-9.0-0.58","5ec806f532fe7d2afa2e315b","64b003020eef62ee308107cc","64b1092b3d4d4b5751721a45","null","null","<p style=""font-size: 60px; font-family: BACS"">mdkKDOk</p>","","","","","","","",""
"html-keyboard-response","147","212165","0.0-9.0-0.59","5ec806f532fe7d2afa2e315b","64b003020eef62ee308107cc","64b1092b3d4d4b5751721a45","null","null","<p style=""font-size: 60px; font-family: BACS"">kCRmlMck</p>","","","","","","","",""
"html-keyboard-response","148","213175","0.0-9.0-0.60","5ec806f532fe7d2afa2e315b","64b003020eef62ee308107cc","64b1092b3d4d4b5751721a45","null","null","<p style=""font-size: 60px; font-family: BACS"">muYNOJlN</p>","","","","","","","",""
"html-keyboard-response","149","214179","0.0-9.0-0.61","5ec806f532fe7d2afa2e315b","64b003020eef62ee308107cc","64b1092b3d4d4b5751721a45","null","null","<p style=""font-size: 60px; font-family: BACS"">lBKtRYlD</p>","","","","","","","",""
"html-keyboard-response","150","215191","0.0-9.0-0.62","5ec806f532fe7d2afa2e315b","64b003020eef62ee308107cc","64b1092b3d4d4b5751721a45","null","null","<p style=""font-size: 60px; font-family: BACS"">KBKBElMck</p>","","","","","","","",""
"html-keyboard-response","151","216198","0.0-9.0-0.63","5ec806f532fe7d2afa2e315b","64b003020eef62ee308107cc","64b1092b3d4d4b5751721a45","null","null","<p style=""font-size: 60px; font-family: BACS"">rvOvUkdrO</p>","","","","","","","",""
"html-keyboard-response","152","217212","0.0-9.0-0.64","5ec806f532fe7d2afa2e315b","64b003020eef62ee308107cc","64b1092b3d4d4b5751721a45","null","null","<p style=""font-size: 60px; font-family: BACS"">ALOrlJUG</p>","","","","","","","",""
"html-keyboard-response","153","218220","0.0-9.0-0.65","5ec806f532fe7d2afa2e315b","64b003020eef62ee308107cc","64b1092b3d4d4b5751721a45","null","null","<p style=""font-size: 60px; font-family: BACS"">muYNkuvb</p>","","","","","","","",""
"html-keyboard-response","154","219223","0.0-9.0-0.66","5ec806f532fe7d2afa2e315b","64b003020eef62ee308107cc","64b1092b3d4d4b5751721a45","null","null","<p style=""font-size: 60px; font-family: BACS"">KBKBERYlD</p>","","","","","","","",""
"html-keyboard-response","155","220226","0.0-9.0-0.67","5ec806f532fe7d2afa2e315b","64b003020eef62ee308107cc","64b1092b3d4d4b5751721a45","null","null","<p style=""font-size: 60px; font-family: BACS"">tcYbdcPK</p>","","","","","","","",""
"html-keyboard-response","156","221234","0.0-9.0-0.68","5ec806f532fe7d2afa2e315b","64b003020eef62ee308107cc","64b1092b3d4d4b5751721a45","null","null","<p style=""font-size: 60px; font-family: BACS"">ZYcQUJUG</p>","","","","","","","",""
"html-keyboard-response","157","222245","0.0-9.0-0.69","5ec806f532fe7d2afa2e315b","64b003020eef62ee308107cc","64b1092b3d4d4b5751721a45","null","null","<p style=""font-size: 60px; font-family: BACS"">hlbtbDOk</p>","","","","","","","",""
"html-keyboard-response","158","223254","0.0-9.0-0.70","5ec806f532fe7d2afa2e315b","64b003020eef62ee308107cc","64b1092b3d4d4b5751721a45","null","null","<p style=""font-size: 60px; font-family: BACS"">dRbDbRYlD</p>","","","","","","","",""
"html-keyboard-response","159","224258","0.0-9.0-0.71","5ec806f532fe7d2afa2e315b","64b003020eef62ee308107cc","64b1092b3d4d4b5751721a45","null","null","<p style=""font-size: 60px; font-family: BACS"">tcYbdOdOP</p>","","","","","","","",""
"html-keyboard-response","160","225259","0.0-9.0-0.72","5ec806f532fe7d2afa2e315b","64b003020eef62ee308107cc","64b1092b3d4d4b5751721a45","null","null","<p style=""font-size: 60px; font-family: BACS"">cdKBYcPK</p>","","","","","","","",""
"html-keyboard-response","161","226264","0.0-9.0-0.73","5ec806f532fe7d2afa2e315b","64b003020eef62ee308107cc","64b1092b3d4d4b5751721a45","null","null","<p style=""font-size: 60px; font-family: BACS"">PcBTDOk</p>","","","","","","","",""
"html-keyboard-response","162","227269","0.0-9.0-0.74","5ec806f532fe7d2afa2e315b","64b003020eef62ee308107cc","64b1092b3d4d4b5751721a45","null","null","<p style=""font-size: 60px; font-family: BACS"">kCRmRYlD</p>","","","","","","","",""
"html-keyboard-response","163","228285","0.0-9.0-0.75","5ec806f532fe7d2afa2e315b","64b003020eef62ee308107cc","64b1092b3d4d4b5751721a45","null","null","<p style=""font-size: 60px; font-family: BACS"">BMEMAlMck</p>","","","","","","","",""
"html-keyboard-response","164","229287","0.0-9.0-0.76","5ec806f532fe7d2afa2e315b","64b003020eef62ee308107cc","64b1092b3d4d4b5751721a45","null","null","<p style=""font-size: 60px; font-family: BACS"">cdKBYOdOP</p>","","","","","","","",""
"html-keyboard-response","165","230290","0.0-9.0-0.77","5ec806f532fe7d2afa2e315b","64b003020eef62ee308107cc","64b1092b3d4d4b5751721a45","null","null","<p style=""font-size: 60px; font-family: BACS"">NLQGmkuvb</p>","","","","","","","",""
"html-keyboard-response","166","231307","0.0-9.0-0.78","5ec806f532fe7d2afa2e315b","64b003020eef62ee308107cc","64b1092b3d4d4b5751721a45","null","null","<p style=""font-size: 60px; font-family: BACS"">hlbtbOdOP</p>","","","","","","","",""
"html-keyboard-response","167","232316","0.0-9.0-0.79","5ec806f532fe7d2afa2e315b","64b003020eef62ee308107cc","64b1092b3d4d4b5751721a45","null","null","<p style=""font-size: 60px; font-family: BACS"">YadrOJlN</p>","","","","","","","",""
"html-keyboard-response","168","240402","0.0-10.0","5ec806f532fe7d2afa2e315b","64b003020eef62ee308107cc","64b1092b3d4d4b5751721a45","8086"," ","<p>Ottimo, hai visto il secondo blocco di parole. Ora puoi prenderti una piccola pausa.</p>
      <p>Premi la barra quando sei pronta/o per riprendere.</p>","","","","","","","",""
"html-keyboard-response","169","241407","0.0-11.0-0.0","5ec806f532fe7d2afa2e315b","64b003020eef62ee308107cc","64b1092b3d4d4b5751721a45","null","null","<p style=""font-size: 60px; font-family: BACS"">aONduUY</p>","","","","","","","",""
"html-keyboard-response","170","242424","0.0-11.0-0.1","5ec806f532fe7d2afa2e315b","64b003020eef62ee308107cc","64b1092b3d4d4b5751721a45","null","null","<p style=""font-size: 60px; font-family: BACS"">KBKBEDOk</p>","","","","","","","",""
"html-keyboard-response","171","243438","0.0-11.0-0.2","5ec806f532fe7d2afa2e315b","64b003020eef62ee308107cc","64b1092b3d4d4b5751721a45","null","null","<p style=""font-size: 60px; font-family: BACS"">BMEMAlMck</p>","","","","","","","",""
"html-keyboard-response","172","244442","0.0-11.0-0.3","5ec806f532fe7d2afa2e315b","64b003020eef62ee308107cc","64b1092b3d4d4b5751721a45","null","null","<p style=""font-size: 60px; font-family: BACS"">vmuLlJUG</p>","","","","","","","",""
"html-keyboard-response","173","245459","0.0-11.0-0.4","5ec806f532fe7d2afa2e315b","64b003020eef62ee308107cc","64b1092b3d4d4b5751721a45","null","null","<p style=""font-size: 60px; font-family: BACS"">hlbtbDOk</p>","","","","","","","",""
"html-keyboard-response","174","246475","0.0-11.0-0.5","5ec806f532fe7d2afa2e315b","64b003020eef62ee308107cc","64b1092b3d4d4b5751721a45","null","null","<p style=""font-size: 60px; font-family: BACS"">YadrOJlN</p>","","","","","","","",""
"html-keyboard-response","175","247486","0.0-11.0-0.6","5ec806f532fe7d2afa2e315b","64b003020eef62ee308107cc","64b1092b3d4d4b5751721a45","null","null","<p style=""font-size: 60px; font-family: BACS"">BMEMAcPK</p>","","","","","","","",""
"html-keyboard-response","176","248501","0.0-11.0-0.7","5ec806f532fe7d2afa2e315b","64b003020eef62ee308107cc","64b1092b3d4d4b5751721a45","null","null","<p style=""font-size: 60px; font-family: BACS"">vAuNlOJlN</p>","","","","","","","",""
"html-keyboard-response","177","249510","0.0-11.0-0.8","5ec806f532fe7d2afa2e315b","64b003020eef62ee308107cc","64b1092b3d4d4b5751721a45","null","null","<p style=""font-size: 60px; font-family: BACS"">aONdJUG</p>","","","","","","","",""
"html-keyboard-response","178","250516","0.0-11.0-0.9","5ec806f532fe7d2afa2e315b","64b003020eef62ee308107cc","64b1092b3d4d4b5751721a45","null","null","<p style=""font-size: 60px; font-family: BACS"">vmuLluUY</p>","","","","","","","",""
"html-keyboard-response","179","251525","0.0-11.0-0.10","5ec806f532fe7d2afa2e315b","64b003020eef62ee308107cc","64b1092b3d4d4b5751721a45","null","null","<p style=""font-size: 60px; font-family: BACS"">mdkKDOk</p>","","","","","","","",""
"html-keyboard-response","180","252530","0.0-11.0-0.11","5ec806f532fe7d2afa2e315b","64b003020eef62ee308107cc","64b1092b3d4d4b5751721a45","null","null","<p style=""font-size: 60px; font-family: BACS"">ALOrlJUG</p>","","","","","","","",""
"html-keyboard-response","181","253542","0.0-11.0-0.12","5ec806f532fe7d2afa2e315b","64b003020eef62ee308107cc","64b1092b3d4d4b5751721a45","null","null","<p style=""font-size: 60px; font-family: BACS"">KBKBElMck</p>","","","","","","","",""
"html-keyboard-response","182","254547","0.0-11.0-0.13","5ec806f532fe7d2afa2e315b","64b003020eef62ee308107cc","64b1092b3d4d4b5751721a45","null","null","<p style=""font-size: 60px; font-family: BACS"">ZYcQUkuvb</p>","","","","","","","",""
"html-keyboard-response","183","255554","0.0-11.0-0.14","5ec806f532fe7d2afa2e315b","64b003020eef62ee308107cc","64b1092b3d4d4b5751721a45","null","null","<p style=""font-size: 60px; font-family: BACS"">lBKtlMck</p>","","","","","","","",""
"html-keyboard-response","184","256557","0.0-11.0-0.15","5ec806f532fe7d2afa2e315b","64b003020eef62ee308107cc","64b1092b3d4d4b5751721a45","null","null","<p style=""font-size: 60px; font-family: BACS"">dRbDbRYlD</p>","","","","","","","",""
"html-keyboard-response","185","257566","0.0-11.0-0.16","5ec806f532fe7d2afa2e315b","64b003020eef62ee308107cc","64b1092b3d4d4b5751721a45","null","null","<p style=""font-size: 60px; font-family: BACS"">tcYbdOdOP</p>","","","","","","","",""
"html-keyboard-response","186","258567","0.0-11.0-0.17","5ec806f532fe7d2afa2e315b","64b003020eef62ee308107cc","64b1092b3d4d4b5751721a45","null","null","<p style=""font-size: 60px; font-family: BACS"">lBKtcPK</p>","","","","","","","",""
"html-keyboard-response","187","259573","0.0-11.0-0.18","5ec806f532fe7d2afa2e315b","64b003020eef62ee308107cc","64b1092b3d4d4b5751721a45","null","null","<p style=""font-size: 60px; font-family: BACS"">vmuLlkuvb</p>","","","","","","","",""
"html-keyboard-response","188","260577","0.0-11.0-0.19","5ec806f532fe7d2afa2e315b","64b003020eef62ee308107cc","64b1092b3d4d4b5751721a45","null","null","<p style=""font-size: 60px; font-family: BACS"">PcBTlMck</p>","","","","","","","",""
"html-keyboard-response","189","261580","0.0-11.0-0.20","5ec806f532fe7d2afa2e315b","64b003020eef62ee308107cc","64b1092b3d4d4b5751721a45","null","null","<p style=""font-size: 60px; font-family: BACS"">ALOrlOJlN</p>","","","","","","","",""
"html-keyboard-response","190","262581","0.0-11.0-0.21","5ec806f532fe7d2afa2e315b","64b003020eef62ee308107cc","64b1092b3d4d4b5751721a45","null","null","<p style=""font-size: 60px; font-family: BACS"">muYNuUY</p>","","","","","","","",""
"html-keyboard-response","191","263586","0.0-11.0-0.22","5ec806f532fe7d2afa2e315b","64b003020eef62ee308107cc","64b1092b3d4d4b5751721a45","null","null","<p style=""font-size: 60px; font-family: BACS"">tcYbdlMck</p>","","","","","","","",""
"html-keyboard-response","192","264598","0.0-11.0-0.23","5ec806f532fe7d2afa2e315b","64b003020eef62ee308107cc","64b1092b3d4d4b5751721a45","null","null","<p style=""font-size: 60px; font-family: BACS"">kCRmOdOP</p>","","","","","","","",""
"html-keyboard-response","193","265600","0.0-11.0-0.24","5ec806f532fe7d2afa2e315b","64b003020eef62ee308107cc","64b1092b3d4d4b5751721a45","null","null","<p style=""font-size: 60px; font-family: BACS"">dRbDbcPK</p>","","","","","","","",""
"html-keyboard-response","194","266604","0.0-11.0-0.25","5ec806f532fe7d2afa2e315b","64b003020eef62ee308107cc","64b1092b3d4d4b5751721a45","null","null","<p style=""font-size: 60px; font-family: BACS"">mdkKlMck</p>","","","","","","","",""
"html-keyboard-response","195","267620","0.0-11.0-0.26","5ec806f532fe7d2afa2e315b","64b003020eef62ee308107cc","64b1092b3d4d4b5751721a45","null","null","<p style=""font-size: 60px; font-family: BACS"">cdKBYcPK</p>","","","","","","","",""
"html-keyboard-response","196","268637","0.0-11.0-0.27","5ec806f532fe7d2afa2e315b","64b003020eef62ee308107cc","64b1092b3d4d4b5751721a45","null","null","<p style=""font-size: 60px; font-family: BACS"">dRbDbOdOP</p>","","","","","","","",""
"html-keyboard-response","197","269646","0.0-11.0-0.28","5ec806f532fe7d2afa2e315b","64b003020eef62ee308107cc","64b1092b3d4d4b5751721a45","null","null","<p style=""font-size: 60px; font-family: BACS"">ZYcQUJUG</p>","","","","","","","",""
"html-keyboard-response","198","270657","0.0-11.0-0.29","5ec806f532fe7d2afa2e315b","64b003020eef62ee308107cc","64b1092b3d4d4b5751721a45","null","null","<p style=""font-size: 60px; font-family: BACS"">vAuNlkuvb</p>","","","","","","","",""
"html-keyboard-response","199","271668","0.0-11.0-0.30","5ec806f532fe7d2afa2e315b","64b003020eef62ee308107cc","64b1092b3d4d4b5751721a45","null","null","<p style=""font-size: 60px; font-family: BACS"">BMEMARYlD</p>","","","","","","","",""
"html-keyboard-response","200","272669","0.0-11.0-0.31","5ec806f532fe7d2afa2e315b","64b003020eef62ee308107cc","64b1092b3d4d4b5751721a45","null","null","<p style=""font-size: 60px; font-family: BACS"">ALOrluUY</p>","","","","","","","",""
"html-keyboard-response","201","273673","0.0-11.0-0.32","5ec806f532fe7d2afa2e315b","64b003020eef62ee308107cc","64b1092b3d4d4b5751721a45","null","null","<p style=""font-size: 60px; font-family: BACS"">YNrAmJUG</p>","","","","","","","",""
"html-keyboard-response","202","274681","0.0-11.0-0.33","5ec806f532fe7d2afa2e315b","64b003020eef62ee308107cc","64b1092b3d4d4b5751721a45","null","null","<p style=""font-size: 60px; font-family: BACS"">hlbtbcPK</p>","","","","","","","",""
"html-keyboard-response","203","275684","0.0-11.0-0.34","5ec806f532fe7d2afa2e315b","64b003020eef62ee308107cc","64b1092b3d4d4b5751721a45","null","null","<p style=""font-size: 60px; font-family: BACS"">rvOvUkdrO</p>","","","","","","","",""
"html-keyboard-response","204","276690","0.0-11.0-0.35","5ec806f532fe7d2afa2e315b","64b003020eef62ee308107cc","64b1092b3d4d4b5751721a45","null","null","<p style=""font-size: 60px; font-family: BACS"">YadruUY</p>","","","","","","","",""
"html-keyboard-response","205","277692","0.0-11.0-0.36","5ec806f532fe7d2afa2e315b","64b003020eef62ee308107cc","64b1092b3d4d4b5751721a45","null","null","<p style=""font-size: 60px; font-family: BACS"">NLQGmJUG</p>","","","","","","","",""
"html-keyboard-response","206","278704","0.0-11.0-0.37","5ec806f532fe7d2afa2e315b","64b003020eef62ee308107cc","64b1092b3d4d4b5751721a45","null","null","<p style=""font-size: 60px; font-family: BACS"">kCRmlMck</p>","","","","","","","",""
"html-keyboard-response","207","279708","0.0-11.0-0.38","5ec806f532fe7d2afa2e315b","64b003020eef62ee308107cc","64b1092b3d4d4b5751721a45","null","null","<p style=""font-size: 60px; font-family: BACS"">muYNkdrO</p>","","","","","","","",""
"html-keyboard-response","208","280722","0.0-11.0-0.39","5ec806f532fe7d2afa2e315b","64b003020eef62ee308107cc","64b1092b3d4d4b5751721a45","null","null","<p style=""font-size: 60px; font-family: BACS"">rvOvUkuvb</p>","","","","","","","",""
"html-keyboard-response","209","281724","0.0-11.0-0.40","5ec806f532fe7d2afa2e315b","64b003020eef62ee308107cc","64b1092b3d4d4b5751721a45","null","null","<p style=""font-size: 60px; font-family: BACS"">mdkKOdOP</p>","","","","","","","",""
"html-keyboard-response","210","282726","0.0-11.0-0.41","5ec806f532fe7d2afa2e315b","64b003020eef62ee308107cc","64b1092b3d4d4b5751721a45","null","null","<p style=""font-size: 60px; font-family: BACS"">aONdOJlN</p>","","","","","","","",""
"html-keyboard-response","211","283736","0.0-11.0-0.42","5ec806f532fe7d2afa2e315b","64b003020eef62ee308107cc","64b1092b3d4d4b5751721a45","null","null","<p style=""font-size: 60px; font-family: BACS"">cdKBYlMck</p>","","","","","","","",""
"html-keyboard-response","212","284739","0.0-11.0-0.43","5ec806f532fe7d2afa2e315b","64b003020eef62ee308107cc","64b1092b3d4d4b5751721a45","null","null","<p style=""font-size: 60px; font-family: BACS"">ZYcQUOJlN</p>","","","","","","","",""
"html-keyboard-response","213","285744","0.0-11.0-0.44","5ec806f532fe7d2afa2e315b","64b003020eef62ee308107cc","64b1092b3d4d4b5751721a45","null","null","<p style=""font-size: 60px; font-family: BACS"">mdkKcPK</p>","","","","","","","",""
"html-keyboard-response","214","286759","0.0-11.0-0.45","5ec806f532fe7d2afa2e315b","64b003020eef62ee308107cc","64b1092b3d4d4b5751721a45","null","null","<p style=""font-size: 60px; font-family: BACS"">rvOvUuUY</p>","","","","","","","",""
"html-keyboard-response","215","287760","0.0-11.0-0.46","5ec806f532fe7d2afa2e315b","64b003020eef62ee308107cc","64b1092b3d4d4b5751721a45","null","null","<p style=""font-size: 60px; font-family: BACS"">muYNkuvb</p>","","","","","","","",""
"html-keyboard-response","216","288761","0.0-11.0-0.47","5ec806f532fe7d2afa2e315b","64b003020eef62ee308107cc","64b1092b3d4d4b5751721a45","null","null","<p style=""font-size: 60px; font-family: BACS"">cdKBYDOk</p>","","","","","","","",""
"html-keyboard-response","217","289763","0.0-11.0-0.48","5ec806f532fe7d2afa2e315b","64b003020eef62ee308107cc","64b1092b3d4d4b5751721a45","null","null","<p style=""font-size: 60px; font-family: BACS"">muYNOJlN</p>","","","","","","","",""
"html-keyboard-response","218","290765","0.0-11.0-0.49","5ec806f532fe7d2afa2e315b","64b003020eef62ee308107cc","64b1092b3d4d4b5751721a45","null","null","<p style=""font-size: 60px; font-family: BACS"">rvOvUJUG</p>","","","","","","","",""
"html-keyboard-response","219","291773","0.0-11.0-0.50","5ec806f532fe7d2afa2e315b","64b003020eef62ee308107cc","64b1092b3d4d4b5751721a45","null","null","<p style=""font-size: 60px; font-family: BACS"">NLQGmkdrO</p>","","","","","","","",""
"html-keyboard-response","220","292775","0.0-11.0-0.51","5ec806f532fe7d2afa2e315b","64b003020eef62ee308107cc","64b1092b3d4d4b5751721a45","null","null","<p style=""font-size: 60px; font-family: BACS"">lBKtOdOP</p>","","","","","","","",""
"html-keyboard-response","221","293784","0.0-11.0-0.52","5ec806f532fe7d2afa2e315b","64b003020eef62ee308107cc","64b1092b3d4d4b5751721a45","null","null","<p style=""font-size: 60px; font-family: BACS"">NLQGmkuvb</p>","","","","","","","",""
"html-keyboard-response","222","294789","0.0-11.0-0.53","5ec806f532fe7d2afa2e315b","64b003020eef62ee308107cc","64b1092b3d4d4b5751721a45","null","null","<p style=""font-size: 60px; font-family: BACS"">kCRmRYlD</p>","","","","","","","",""
"html-keyboard-response","223","295795","0.0-11.0-0.54","5ec806f532fe7d2afa2e315b","64b003020eef62ee308107cc","64b1092b3d4d4b5751721a45","null","null","<p style=""font-size: 60px; font-family: BACS"">PcBTDOk</p>","","","","","","","",""
"html-keyboard-response","224","296799","0.0-11.0-0.55","5ec806f532fe7d2afa2e315b","64b003020eef62ee308107cc","64b1092b3d4d4b5751721a45","null","null","<p style=""font-size: 60px; font-family: BACS"">hlbtbOdOP</p>","","","","","","","",""
"html-keyboard-response","225","297805","0.0-11.0-0.56","5ec806f532fe7d2afa2e315b","64b003020eef62ee308107cc","64b1092b3d4d4b5751721a45","null","null","<p style=""font-size: 60px; font-family: BACS"">YadrkdrO</p>","","","","","","","",""
"html-keyboard-response","226","298810","0.0-11.0-0.57","5ec806f532fe7d2afa2e315b","64b003020eef62ee308107cc","64b1092b3d4d4b5751721a45","null","null","<p style=""font-size: 60px; font-family: BACS"">tcYbdRYlD</p>","","","","","","","",""
"html-keyboard-response","227","299812","0.0-11.0-0.58","5ec806f532fe7d2afa2e315b","64b003020eef62ee308107cc","64b1092b3d4d4b5751721a45","null","null","<p style=""font-size: 60px; font-family: BACS"">PcBTcPK</p>","","","","","","","",""
"html-keyboard-response","228","300815","0.0-11.0-0.59","5ec806f532fe7d2afa2e315b","64b003020eef62ee308107cc","64b1092b3d4d4b5751721a45","null","null","<p style=""font-size: 60px; font-family: BACS"">ALOrlkdrO</p>","","","","","","","",""
"html-keyboard-response","229","301821","0.0-11.0-0.60","5ec806f532fe7d2afa2e315b","64b003020eef62ee308107cc","64b1092b3d4d4b5751721a45","null","null","<p style=""font-size: 60px; font-family: BACS"">dRbDbDOk</p>","","","","","","","",""
"html-keyboard-response","230","302838","0.0-11.0-0.61","5ec806f532fe7d2afa2e315b","64b003020eef62ee308107cc","64b1092b3d4d4b5751721a45","null","null","<p style=""font-size: 60px; font-family: BACS"">vmuLlOJlN</p>","","","","","","","",""
"html-keyboard-response","231","303842","0.0-11.0-0.62","5ec806f532fe7d2afa2e315b","64b003020eef62ee308107cc","64b1092b3d4d4b5751721a45","null","null","<p style=""font-size: 60px; font-family: BACS"">YNrAmuUY</p>","","","","","","","",""
"html-keyboard-response","232","304849","0.0-11.0-0.63","5ec806f532fe7d2afa2e315b","64b003020eef62ee308107cc","64b1092b3d4d4b5751721a45","null","null","<p style=""font-size: 60px; font-family: BACS"">hlbtbRYlD</p>","","","","","","","",""
"html-keyboard-response","233","305856","0.0-11.0-0.64","5ec806f532fe7d2afa2e315b","64b003020eef62ee308107cc","64b1092b3d4d4b5751721a45","null","null","<p style=""font-size: 60px; font-family: BACS"">Yadrkuvb</p>","","","","","","","",""
"html-keyboard-response","234","306858","0.0-11.0-0.65","5ec806f532fe7d2afa2e315b","64b003020eef62ee308107cc","64b1092b3d4d4b5751721a45","null","null","<p style=""font-size: 60px; font-family: BACS"">aONdkdrO</p>","","","","","","","",""
"html-keyboard-response","235","307859","0.0-11.0-0.66","5ec806f532fe7d2afa2e315b","64b003020eef62ee308107cc","64b1092b3d4d4b5751721a45","null","null","<p style=""font-size: 60px; font-family: BACS"">PcBTRYlD</p>","","","","","","","",""
"html-keyboard-response","236","308867","0.0-11.0-0.67","5ec806f532fe7d2afa2e315b","64b003020eef62ee308107cc","64b1092b3d4d4b5751721a45","null","null","<p style=""font-size: 60px; font-family: BACS"">vAuNluUY</p>","","","","","","","",""
"html-keyboard-response","237","309873","0.0-11.0-0.68","5ec806f532fe7d2afa2e315b","64b003020eef62ee308107cc","64b1092b3d4d4b5751721a45","null","null","<p style=""font-size: 60px; font-family: BACS"">KBKBERYlD</p>","","","","","","","",""
"html-keyboard-response","238","310884","0.0-11.0-0.69","5ec806f532fe7d2afa2e315b","64b003020eef62ee308107cc","64b1092b3d4d4b5751721a45","null","null","<p style=""font-size: 60px; font-family: BACS"">YNrAmkuvb</p>","","","","","","","",""
"html-keyboard-response","239","311888","0.0-11.0-0.70","5ec806f532fe7d2afa2e315b","64b003020eef62ee308107cc","64b1092b3d4d4b5751721a45","null","null","<p style=""font-size: 60px; font-family: BACS"">NLQGmOJlN</p>","","","","","","","",""
"html-keyboard-response","240","312892","0.0-11.0-0.71","5ec806f532fe7d2afa2e315b","64b003020eef62ee308107cc","64b1092b3d4d4b5751721a45","null","null","<p style=""font-size: 60px; font-family: BACS"">cdKBYOdOP</p>","","","","","","","",""
"html-keyboard-response","241","313906","0.0-11.0-0.72","5ec806f532fe7d2afa2e315b","64b003020eef62ee308107cc","64b1092b3d4d4b5751721a45","null","null","<p style=""font-size: 60px; font-family: BACS"">tcYbdcPK</p>","","","","","","","",""
"html-keyboard-response","242","314918","0.0-11.0-0.73","5ec806f532fe7d2afa2e315b","64b003020eef62ee308107cc","64b1092b3d4d4b5751721a45","null","null","<p style=""font-size: 60px; font-family: BACS"">KBKBEOdOP</p>","","","","","","","",""
"html-keyboard-response","243","315930","0.0-11.0-0.74","5ec806f532fe7d2afa2e315b","64b003020eef62ee308107cc","64b1092b3d4d4b5751721a45","null","null","<p style=""font-size: 60px; font-family: BACS"">vAuNlJUG</p>","","","","","","","",""
"html-keyboard-response","244","316933","0.0-11.0-0.75","5ec806f532fe7d2afa2e315b","64b003020eef62ee308107cc","64b1092b3d4d4b5751721a45","null","null","<p style=""font-size: 60px; font-family: BACS"">kCRmDOk</p>","","","","","","","",""
"html-keyboard-response","245","317942","0.0-11.0-0.76","5ec806f532fe7d2afa2e315b","64b003020eef62ee308107cc","64b1092b3d4d4b5751721a45","null","null","<p style=""font-size: 60px; font-family: BACS"">ZYcQUkdrO</p>","","","","","","","",""
"html-keyboard-response","246","318959","0.0-11.0-0.77","5ec806f532fe7d2afa2e315b","64b003020eef62ee308107cc","64b1092b3d4d4b5751721a45","null","null","<p style=""font-size: 60px; font-family: BACS"">BMEMADOk</p>","","","","","","","",""
"html-keyboard-response","247","319969","0.0-11.0-0.78","5ec806f532fe7d2afa2e315b","64b003020eef62ee308107cc","64b1092b3d4d4b5751721a45","null","null","<p style=""font-size: 60px; font-family: BACS"">lBKtRYlD</p>","","","","","","","",""
"html-keyboard-response","248","320971","0.0-11.0-0.79","5ec806f532fe7d2afa2e315b","64b003020eef62ee308107cc","64b1092b3d4d4b5751721a45","null","null","<p style=""font-size: 60px; font-family: BACS"">YNrAmkdrO</p>","","","","","","","",""
"html-keyboard-response","249","323385","0.0-12.0","5ec806f532fe7d2afa2e315b","64b003020eef62ee308107cc","64b1092b3d4d4b5751721a45","2413"," ","<p>Ottimo, hai visto il terzo blocco di parole. Ora puoi prenderti una piccola pausa.</p>
      <p>Premi la barra quando sei pronta/o per riprendere.</p>","","","","","","","",""
"html-keyboard-response","250","324389","0.0-13.0-0.0","5ec806f532fe7d2afa2e315b","64b003020eef62ee308107cc","64b1092b3d4d4b5751721a45","null","null","<p style=""font-size: 60px; font-family: BACS"">mdkKOdOP</p>","","","","","","","",""
"html-keyboard-response","251","325400","0.0-13.0-0.1","5ec806f532fe7d2afa2e315b","64b003020eef62ee308107cc","64b1092b3d4d4b5751721a45","null","null","<p style=""font-size: 60px; font-family: BACS"">ZYcQUOJlN</p>","","","","","","","",""
"html-keyboard-response","252","326410","0.0-13.0-0.2","5ec806f532fe7d2afa2e315b","64b003020eef62ee308107cc","64b1092b3d4d4b5751721a45","null","null","<p style=""font-size: 60px; font-family: BACS"">NLQGmJUG</p>","","","","","","","",""
"html-keyboard-response","253","327424","0.0-13.0-0.3","5ec806f532fe7d2afa2e315b","64b003020eef62ee308107cc","64b1092b3d4d4b5751721a45","null","null","<p style=""font-size: 60px; font-family: BACS"">kCRmOdOP</p>","","","","","","","",""
"html-keyboard-response","254","328429","0.0-13.0-0.4","5ec806f532fe7d2afa2e315b","64b003020eef62ee308107cc","64b1092b3d4d4b5751721a45","null","null","<p style=""font-size: 60px; font-family: BACS"">aONdJUG</p>","","","","","","","",""
"html-keyboard-response","255","329439","0.0-13.0-0.5","5ec806f532fe7d2afa2e315b","64b003020eef62ee308107cc","64b1092b3d4d4b5751721a45","null","null","<p style=""font-size: 60px; font-family: BACS"">PcBTcPK</p>","","","","","","","",""
"html-keyboard-response","256","330444","0.0-13.0-0.6","5ec806f532fe7d2afa2e315b","64b003020eef62ee308107cc","64b1092b3d4d4b5751721a45","null","null","<p style=""font-size: 60px; font-family: BACS"">ALOrlJUG</p>","","","","","","","",""
"html-keyboard-response","257","331461","0.0-13.0-0.7","5ec806f532fe7d2afa2e315b","64b003020eef62ee308107cc","64b1092b3d4d4b5751721a45","null","null","<p style=""font-size: 60px; font-family: BACS"">hlbtbRYlD</p>","","","","","","","",""
"html-keyboard-response","258","332463","0.0-13.0-0.8","5ec806f532fe7d2afa2e315b","64b003020eef62ee308107cc","64b1092b3d4d4b5751721a45","null","null","<p style=""font-size: 60px; font-family: BACS"">mdkKDOk</p>","","","","","","","",""
"html-keyboard-response","259","333476","0.0-13.0-0.9","5ec806f532fe7d2afa2e315b","64b003020eef62ee308107cc","64b1092b3d4d4b5751721a45","null","null","<p style=""font-size: 60px; font-family: BACS"">NLQGmOJlN</p>","","","","","","","",""
"html-keyboard-response","260","334479","0.0-13.0-0.10","5ec806f532fe7d2afa2e315b","64b003020eef62ee308107cc","64b1092b3d4d4b5751721a45","null","null","<p style=""font-size: 60px; font-family: BACS"">muYNuUY</p>","","","","","","","",""
"html-keyboard-response","261","335481","0.0-13.0-0.11","5ec806f532fe7d2afa2e315b","64b003020eef62ee308107cc","64b1092b3d4d4b5751721a45","null","null","<p style=""font-size: 60px; font-family: BACS"">hlbtbOdOP</p>","","","","","","","",""
"html-keyboard-response","262","336486","0.0-13.0-0.12","5ec806f532fe7d2afa2e315b","64b003020eef62ee308107cc","64b1092b3d4d4b5751721a45","null","null","<p style=""font-size: 60px; font-family: BACS"">dRbDbcPK</p>","","","","","","","",""
"html-keyboard-response","263","337492","0.0-13.0-0.13","5ec806f532fe7d2afa2e315b","64b003020eef62ee308107cc","64b1092b3d4d4b5751721a45","null","null","<p style=""font-size: 60px; font-family: BACS"">rvOvUuUY</p>","","","","","","","",""
"html-keyboard-response","264","338496","0.0-13.0-0.14","5ec806f532fe7d2afa2e315b","64b003020eef62ee308107cc","64b1092b3d4d4b5751721a45","null","null","<p style=""font-size: 60px; font-family: BACS"">KBKBEDOk</p>","","","","","","","",""
"html-keyboard-response","265","339511","0.0-13.0-0.15","5ec806f532fe7d2afa2e315b","64b003020eef62ee308107cc","64b1092b3d4d4b5751721a45","null","null","<p style=""font-size: 60px; font-family: BACS"">muYNOJlN</p>","","","","","","","",""
"html-keyboard-response","266","340516","0.0-13.0-0.16","5ec806f532fe7d2afa2e315b","64b003020eef62ee308107cc","64b1092b3d4d4b5751721a45","null","null","<p style=""font-size: 60px; font-family: BACS"">dRbDbOdOP</p>","","","","","","","",""
"html-keyboard-response","267","341532","0.0-13.0-0.17","5ec806f532fe7d2afa2e315b","64b003020eef62ee308107cc","64b1092b3d4d4b5751721a45","null","null","<p style=""font-size: 60px; font-family: BACS"">NLQGmkuvb</p>","","","","","","","",""
"html-keyboard-response","268","342538","0.0-13.0-0.18","5ec806f532fe7d2afa2e315b","64b003020eef62ee308107cc","64b1092b3d4d4b5751721a45","null","null","<p style=""font-size: 60px; font-family: BACS"">muYNkdrO</p>","","","","","","","",""
"html-keyboard-response","269","343546","0.0-13.0-0.19","5ec806f532fe7d2afa2e315b","64b003020eef62ee308107cc","64b1092b3d4d4b5751721a45","null","null","<p style=""font-size: 60px; font-family: BACS"">ZYcQUkuvb</p>","","","","","","","",""
"html-keyboard-response","270","344554","0.0-13.0-0.20","5ec806f532fe7d2afa2e315b","64b003020eef62ee308107cc","64b1092b3d4d4b5751721a45","null","null","<p style=""font-size: 60px; font-family: BACS"">KBKBERYlD</p>","","","","","","","",""
"html-keyboard-response","271","345560","0.0-13.0-0.21","5ec806f532fe7d2afa2e315b","64b003020eef62ee308107cc","64b1092b3d4d4b5751721a45","null","null","<p style=""font-size: 60px; font-family: BACS"">vmuLlOJlN</p>","","","","","","","",""
"html-keyboard-response","272","346562","0.0-13.0-0.22","5ec806f532fe7d2afa2e315b","64b003020eef62ee308107cc","64b1092b3d4d4b5751721a45","null","null","<p style=""font-size: 60px; font-family: BACS"">BMEMADOk</p>","","","","","","","",""
"html-keyboard-response","273","347569","0.0-13.0-0.23","5ec806f532fe7d2afa2e315b","64b003020eef62ee308107cc","64b1092b3d4d4b5751721a45","null","null","<p style=""font-size: 60px; font-family: BACS"">YadrOJlN</p>","","","","","","","",""
"html-keyboard-response","274","348584","0.0-13.0-0.24","5ec806f532fe7d2afa2e315b","64b003020eef62ee308107cc","64b1092b3d4d4b5751721a45","null","null","<p style=""font-size: 60px; font-family: BACS"">aONduUY</p>","","","","","","","",""
"html-keyboard-response","275","349597","0.0-13.0-0.25","5ec806f532fe7d2afa2e315b","64b003020eef62ee308107cc","64b1092b3d4d4b5751721a45","null","null","<p style=""font-size: 60px; font-family: BACS"">tcYbdlMck</p>","","","","","","","",""
"html-keyboard-response","276","350601","0.0-13.0-0.26","5ec806f532fe7d2afa2e315b","64b003020eef62ee308107cc","64b1092b3d4d4b5751721a45","null","null","<p style=""font-size: 60px; font-family: BACS"">vAuNlJUG</p>","","","","","","","",""
"html-keyboard-response","277","351611","0.0-13.0-0.27","5ec806f532fe7d2afa2e315b","64b003020eef62ee308107cc","64b1092b3d4d4b5751721a45","null","null","<p style=""font-size: 60px; font-family: BACS"">lBKtcPK</p>","","","","","","","",""
"html-keyboard-response","278","352622","0.0-13.0-0.28","5ec806f532fe7d2afa2e315b","64b003020eef62ee308107cc","64b1092b3d4d4b5751721a45","null","null","<p style=""font-size: 60px; font-family: BACS"">tcYbdRYlD</p>","","","","","","","",""
"html-keyboard-response","279","353625","0.0-13.0-0.29","5ec806f532fe7d2afa2e315b","64b003020eef62ee308107cc","64b1092b3d4d4b5751721a45","null","null","<p style=""font-size: 60px; font-family: BACS"">YNrAmuUY</p>","","","","","","","",""
"html-keyboard-response","280","354632","0.0-13.0-0.30","5ec806f532fe7d2afa2e315b","64b003020eef62ee308107cc","64b1092b3d4d4b5751721a45","null","null","<p style=""font-size: 60px; font-family: BACS"">ZYcQUJUG</p>","","","","","","","",""
"html-keyboard-response","281","355634","0.0-13.0-0.31","5ec806f532fe7d2afa2e315b","64b003020eef62ee308107cc","64b1092b3d4d4b5751721a45","null","null","<p style=""font-size: 60px; font-family: BACS"">KBKBElMck</p>","","","","","","","",""
"html-keyboard-response","282","356640","0.0-13.0-0.32","5ec806f532fe7d2afa2e315b","64b003020eef62ee308107cc","64b1092b3d4d4b5751721a45","null","null","<p style=""font-size: 60px; font-family: BACS"">tcYbdOdOP</p>","","","","","","","",""
"html-keyboard-response","283","357648","0.0-13.0-0.33","5ec806f532fe7d2afa2e315b","64b003020eef62ee308107cc","64b1092b3d4d4b5751721a45","null","null","<p style=""font-size: 60px; font-family: BACS"">cdKBYDOk</p>","","","","","","","",""
"html-keyboard-response","284","358650","0.0-13.0-0.34","5ec806f532fe7d2afa2e315b","64b003020eef62ee308107cc","64b1092b3d4d4b5751721a45","null","null","<p style=""font-size: 60px; font-family: BACS"">rvOvUkdrO</p>","","","","","","","",""
"html-keyboard-response","285","359652","0.0-13.0-0.35","5ec806f532fe7d2afa2e315b","64b003020eef62ee308107cc","64b1092b3d4d4b5751721a45","null","null","<p style=""font-size: 60px; font-family: BACS"">YadruUY</p>","","","","","","","",""
"html-keyboard-response","286","360667","0.0-13.0-0.36","5ec806f532fe7d2afa2e315b","64b003020eef62ee308107cc","64b1092b3d4d4b5751721a45","null","null","<p style=""font-size: 60px; font-family: BACS"">rvOvUJUG</p>","","","","","","","",""
"html-keyboard-response","287","361675","0.0-13.0-0.37","5ec806f532fe7d2afa2e315b","64b003020eef62ee308107cc","64b1092b3d4d4b5751721a45","null","null","<p style=""font-size: 60px; font-family: BACS"">ALOrlOJlN</p>","","","","","","","",""
"html-keyboard-response","288","362680","0.0-13.0-0.38","5ec806f532fe7d2afa2e315b","64b003020eef62ee308107cc","64b1092b3d4d4b5751721a45","null","null","<p style=""font-size: 60px; font-family: BACS"">PcBTlMck</p>","","","","","","","",""
"html-keyboard-response","289","363688","0.0-13.0-0.39","5ec806f532fe7d2afa2e315b","64b003020eef62ee308107cc","64b1092b3d4d4b5751721a45","null","null","<p style=""font-size: 60px; font-family: BACS"">vmuLlkuvb</p>","","","","","","","",""
"html-keyboard-response","290","364691","0.0-13.0-0.40","5ec806f532fe7d2afa2e315b","64b003020eef62ee308107cc","64b1092b3d4d4b5751721a45","null","null","<p style=""font-size: 60px; font-family: BACS"">BMEMARYlD</p>","","","","","","","",""
"html-keyboard-response","291","365698","0.0-13.0-0.41","5ec806f532fe7d2afa2e315b","64b003020eef62ee308107cc","64b1092b3d4d4b5751721a45","null","null","<p style=""font-size: 60px; font-family: BACS"">dRbDbDOk</p>","","","","","","","",""
"html-keyboard-response","292","366701","0.0-13.0-0.42","5ec806f532fe7d2afa2e315b","64b003020eef62ee308107cc","64b1092b3d4d4b5751721a45","null","null","<p style=""font-size: 60px; font-family: BACS"">vmuLlJUG</p>","","","","","","","",""
"html-keyboard-response","293","367704","0.0-13.0-0.43","5ec806f532fe7d2afa2e315b","64b003020eef62ee308107cc","64b1092b3d4d4b5751721a45","null","null","<p style=""font-size: 60px; font-family: BACS"">mdkKlMck</p>","","","","","","","",""
"html-keyboard-response","294","368720","0.0-13.0-0.44","5ec806f532fe7d2afa2e315b","64b003020eef62ee308107cc","64b1092b3d4d4b5751721a45","null","null","<p style=""font-size: 60px; font-family: BACS"">YadrkdrO</p>","","","","","","","",""
"html-keyboard-response","295","369724","0.0-13.0-0.45","5ec806f532fe7d2afa2e315b","64b003020eef62ee308107cc","64b1092b3d4d4b5751721a45","null","null","<p style=""font-size: 60px; font-family: BACS"">PcBTDOk</p>","","","","","","","",""
"html-keyboard-response","296","370735","0.0-13.0-0.46","5ec806f532fe7d2afa2e315b","64b003020eef62ee308107cc","64b1092b3d4d4b5751721a45","null","null","<p style=""font-size: 60px; font-family: BACS"">ALOrlkdrO</p>","","","","","","","",""
"html-keyboard-response","297","371738","0.0-13.0-0.47","5ec806f532fe7d2afa2e315b","64b003020eef62ee308107cc","64b1092b3d4d4b5751721a45","null","null","<p style=""font-size: 60px; font-family: BACS"">cdKBYlMck</p>","","","","","","","",""
"html-keyboard-response","298","372744","0.0-13.0-0.48","5ec806f532fe7d2afa2e315b","64b003020eef62ee308107cc","64b1092b3d4d4b5751721a45","null","null","<p style=""font-size: 60px; font-family: BACS"">BMEMAcPK</p>","","","","","","","",""
"html-keyboard-response","299","373747","0.0-13.0-0.49","5ec806f532fe7d2afa2e315b","64b003020eef62ee308107cc","64b1092b3d4d4b5751721a45","null","null","<p style=""font-size: 60px; font-family: BACS"">NLQGmkdrO</p>","","","","","","","",""
"html-keyboard-response","300","374762","0.0-13.0-0.50","5ec806f532fe7d2afa2e315b","64b003020eef62ee308107cc","64b1092b3d4d4b5751721a45","null","null","<p style=""font-size: 60px; font-family: BACS"">vAuNlOJlN</p>","","","","","","","",""
"html-keyboard-response","301","375774","0.0-13.0-0.51","5ec806f532fe7d2afa2e315b","64b003020eef62ee308107cc","64b1092b3d4d4b5751721a45","null","null","<p style=""font-size: 60px; font-family: BACS"">ALOrluUY</p>","","","","","","","",""
"html-keyboard-response","302","376776","0.0-13.0-0.52","5ec806f532fe7d2afa2e315b","64b003020eef62ee308107cc","64b1092b3d4d4b5751721a45","null","null","<p style=""font-size: 60px; font-family: BACS"">Yadrkuvb</p>","","","","","","","",""
"html-keyboard-response","303","377779","0.0-13.0-0.53","5ec806f532fe7d2afa2e315b","64b003020eef62ee308107cc","64b1092b3d4d4b5751721a45","null","null","<p style=""font-size: 60px; font-family: BACS"">aONdOJlN</p>","","","","","","","",""
"html-keyboard-response","304","378793","0.0-13.0-0.54","5ec806f532fe7d2afa2e315b","64b003020eef62ee308107cc","64b1092b3d4d4b5751721a45","null","null","<p style=""font-size: 60px; font-family: BACS"">YNrAmkuvb</p>","","","","","","","",""
"html-keyboard-response","305","379798","0.0-13.0-0.55","5ec806f532fe7d2afa2e315b","64b003020eef62ee308107cc","64b1092b3d4d4b5751721a45","null","null","<p style=""font-size: 60px; font-family: BACS"">PcBTRYlD</p>","","","","","","","",""
"html-keyboard-response","306","380804","0.0-13.0-0.56","5ec806f532fe7d2afa2e315b","64b003020eef62ee308107cc","64b1092b3d4d4b5751721a45","null","null","<p style=""font-size: 60px; font-family: BACS"">kCRmlMck</p>","","","","","","","",""
"html-keyboard-response","307","381815","0.0-13.0-0.57","5ec806f532fe7d2afa2e315b","64b003020eef62ee308107cc","64b1092b3d4d4b5751721a45","null","null","<p style=""font-size: 60px; font-family: BACS"">vmuLluUY</p>","","","","","","","",""
"html-keyboard-response","308","382831","0.0-13.0-0.58","5ec806f532fe7d2afa2e315b","64b003020eef62ee308107cc","64b1092b3d4d4b5751721a45","null","null","<p style=""font-size: 60px; font-family: BACS"">lBKtOdOP</p>","","","","","","","",""
"html-keyboard-response","309","383833","0.0-13.0-0.59","5ec806f532fe7d2afa2e315b","64b003020eef62ee308107cc","64b1092b3d4d4b5751721a45","null","null","<p style=""font-size: 60px; font-family: BACS"">YNrAmkdrO</p>","","","","","","","",""
"html-keyboard-response","310","384846","0.0-13.0-0.60","5ec806f532fe7d2afa2e315b","64b003020eef62ee308107cc","64b1092b3d4d4b5751721a45","null","null","<p style=""font-size: 60px; font-family: BACS"">lBKtRYlD</p>","","","","","","","",""
"html-keyboard-response","311","385861","0.0-13.0-0.61","5ec806f532fe7d2afa2e315b","64b003020eef62ee308107cc","64b1092b3d4d4b5751721a45","null","null","<p style=""font-size: 60px; font-family: BACS"">KBKBEOdOP</p>","","","","","","","",""
"html-keyboard-response","312","386864","0.0-13.0-0.62","5ec806f532fe7d2afa2e315b","64b003020eef62ee308107cc","64b1092b3d4d4b5751721a45","null","null","<p style=""font-size: 60px; font-family: BACS"">rvOvUkuvb</p>","","","","","","","",""
"html-keyboard-response","313","387865","0.0-13.0-0.63","5ec806f532fe7d2afa2e315b","64b003020eef62ee308107cc","64b1092b3d4d4b5751721a45","null","null","<p style=""font-size: 60px; font-family: BACS"">YNrAmJUG</p>","","","","","","","",""
"html-keyboard-response","314","388872","0.0-13.0-0.64","5ec806f532fe7d2afa2e315b","64b003020eef62ee308107cc","64b1092b3d4d4b5751721a45","null","null","<p style=""font-size: 60px; font-family: BACS"">vAuNluUY</p>","","","","","","","",""
"html-keyboard-response","315","389878","0.0-13.0-0.65","5ec806f532fe7d2afa2e315b","64b003020eef62ee308107cc","64b1092b3d4d4b5751721a45","null","null","<p style=""font-size: 60px; font-family: BACS"">hlbtbcPK</p>","","","","","","","",""
"html-keyboard-response","316","390884","0.0-13.0-0.66","5ec806f532fe7d2afa2e315b","64b003020eef62ee308107cc","64b1092b3d4d4b5751721a45","null","null","<p style=""font-size: 60px; font-family: BACS"">BMEMAlMck</p>","","","","","","","",""
"html-keyboard-response","317","391886","0.0-13.0-0.67","5ec806f532fe7d2afa2e315b","64b003020eef62ee308107cc","64b1092b3d4d4b5751721a45","null","null","<p style=""font-size: 60px; font-family: BACS"">kCRmDOk</p>","","","","","","","",""
"html-keyboard-response","318","392891","0.0-13.0-0.68","5ec806f532fe7d2afa2e315b","64b003020eef62ee308107cc","64b1092b3d4d4b5751721a45","null","null","<p style=""font-size: 60px; font-family: BACS"">ZYcQUkdrO</p>","","","","","","","",""
"html-keyboard-response","319","393899","0.0-13.0-0.69","5ec806f532fe7d2afa2e315b","64b003020eef62ee308107cc","64b1092b3d4d4b5751721a45","null","null","<p style=""font-size: 60px; font-family: BACS"">mdkKcPK</p>","","","","","","","",""
"html-keyboard-response","320","394903","0.0-13.0-0.70","5ec806f532fe7d2afa2e315b","64b003020eef62ee308107cc","64b1092b3d4d4b5751721a45","null","null","<p style=""font-size: 60px; font-family: BACS"">vAuNlkuvb</p>","","","","","","","",""
"html-keyboard-response","321","395918","0.0-13.0-0.71","5ec806f532fe7d2afa2e315b","64b003020eef62ee308107cc","64b1092b3d4d4b5751721a45","null","null","<p style=""font-size: 60px; font-family: BACS"">aONdkdrO</p>","","","","","","","",""
"html-keyboard-response","322","396923","0.0-13.0-0.72","5ec806f532fe7d2afa2e315b","64b003020eef62ee308107cc","64b1092b3d4d4b5751721a45","null","null","<p style=""font-size: 60px; font-family: BACS"">tcYbdcPK</p>","","","","","","","",""
"html-keyboard-response","323","397937","0.0-13.0-0.73","5ec806f532fe7d2afa2e315b","64b003020eef62ee308107cc","64b1092b3d4d4b5751721a45","null","null","<p style=""font-size: 60px; font-family: BACS"">cdKBYOdOP</p>","","","","","","","",""
"html-keyboard-response","324","398938","0.0-13.0-0.74","5ec806f532fe7d2afa2e315b","64b003020eef62ee308107cc","64b1092b3d4d4b5751721a45","null","null","<p style=""font-size: 60px; font-family: BACS"">dRbDbRYlD</p>","","","","","","","",""
"html-keyboard-response","325","399943","0.0-13.0-0.75","5ec806f532fe7d2afa2e315b","64b003020eef62ee308107cc","64b1092b3d4d4b5751721a45","null","null","<p style=""font-size: 60px; font-family: BACS"">muYNkuvb</p>","","","","","","","",""
"html-keyboard-response","326","400949","0.0-13.0-0.76","5ec806f532fe7d2afa2e315b","64b003020eef62ee308107cc","64b1092b3d4d4b5751721a45","null","null","<p style=""font-size: 60px; font-family: BACS"">cdKBYcPK</p>","","","","","","","",""
"html-keyboard-response","327","401954","0.0-13.0-0.77","5ec806f532fe7d2afa2e315b","64b003020eef62ee308107cc","64b1092b3d4d4b5751721a45","null","null","<p style=""font-size: 60px; font-family: BACS"">kCRmRYlD</p>","","","","","","","",""
"html-keyboard-response","328","402969","0.0-13.0-0.78","5ec806f532fe7d2afa2e315b","64b003020eef62ee308107cc","64b1092b3d4d4b5751721a45","null","null","<p style=""font-size: 60px; font-family: BACS"">lBKtlMck</p>","","","","","","","",""
"html-keyboard-response","329","403984","0.0-13.0-0.79","5ec806f532fe7d2afa2e315b","64b003020eef62ee308107cc","64b1092b3d4d4b5751721a45","null","null","<p style=""font-size: 60px; font-family: BACS"">hlbtbDOk</p>","","","","","","","",""
"html-keyboard-response","330","412347","0.0-14.0","5ec806f532fe7d2afa2e315b","64b003020eef62ee308107cc","64b1092b3d4d4b5751721a45","8362"," ","<p>Ottimo, hai visto il quarto blocco di parole. Ora puoi prenderti una piccola pausa.</p>
      <p>Premi la barra quando sei pronta/o per riprendere.</p>","","","","","","","",""
"html-keyboard-response","331","413351","0.0-15.0-0.0","5ec806f532fe7d2afa2e315b","64b003020eef62ee308107cc","64b1092b3d4d4b5751721a45","null","null","<p style=""font-size: 60px; font-family: BACS"">ALOrlkdrO</p>","","","","","","","",""
"html-keyboard-response","332","414360","0.0-15.0-0.1","5ec806f532fe7d2afa2e315b","64b003020eef62ee308107cc","64b1092b3d4d4b5751721a45","null","null","<p style=""font-size: 60px; font-family: BACS"">ALOrlkdrO</p>","","","","","","","",""
"html-keyboard-response","333","415365","0.0-15.0-0.2","5ec806f532fe7d2afa2e315b","64b003020eef62ee308107cc","64b1092b3d4d4b5751721a45","null","null","<p style=""font-size: 60px; font-family: BACS"">ALOrlkdrO</p>","","","","","","","",""
"html-keyboard-response","334","416380","0.0-15.0-0.3","5ec806f532fe7d2afa2e315b","64b003020eef62ee308107cc","64b1092b3d4d4b5751721a45","null","null","<p style=""font-size: 60px; font-family: BACS"">ALOrlkdrO</p>","","","","","","","",""
"html-keyboard-response","335","417382","0.0-15.0-0.4","5ec806f532fe7d2afa2e315b","64b003020eef62ee308107cc","64b1092b3d4d4b5751721a45","null","null","<p style=""font-size: 60px; font-family: BACS"">ALOrlkdrO</p>","","","","","","","",""
"html-keyboard-response","336","418398","0.0-15.0-0.5","5ec806f532fe7d2afa2e315b","64b003020eef62ee308107cc","64b1092b3d4d4b5751721a45","null","null","<p style=""font-size: 60px; font-family: BACS"">ALOrlkdrO</p>","","","","","","","",""
"html-keyboard-response","337","419411","0.0-15.0-0.6","5ec806f532fe7d2afa2e315b","64b003020eef62ee308107cc","64b1092b3d4d4b5751721a45","null","null","<p style=""font-size: 60px; font-family: BACS"">ALOrlkdrO</p>","","","","","","","",""
"html-keyboard-response","338","420426","0.0-15.0-0.7","5ec806f532fe7d2afa2e315b","64b003020eef62ee308107cc","64b1092b3d4d4b5751721a45","null","null","<p style=""font-size: 60px; font-family: BACS"">ALOrlkdrO</p>","","","","","","","",""
"html-keyboard-response","339","421439","0.0-15.0-0.8","5ec806f532fe7d2afa2e315b","64b003020eef62ee308107cc","64b1092b3d4d4b5751721a45","null","null","<p style=""font-size: 60px; font-family: BACS"">ALOrlkdrO</p>","","","","","","","",""
"html-keyboard-response","340","422452","0.0-15.0-0.9","5ec806f532fe7d2afa2e315b","64b003020eef62ee308107cc","64b1092b3d4d4b5751721a45","null","null","<p style=""font-size: 60px; font-family: BACS"">ALOrlkdrO</p>","","","","","","","",""
"html-keyboard-response","341","423468","0.0-15.0-0.10","5ec806f532fe7d2afa2e315b","64b003020eef62ee308107cc","64b1092b3d4d4b5751721a45","null","null","<p style=""font-size: 60px; font-family: BACS"">ALOrlkdrO</p>","","","","","","","",""
"html-keyboard-response","342","424471","0.0-15.0-0.11","5ec806f532fe7d2afa2e315b","64b003020eef62ee308107cc","64b1092b3d4d4b5751721a45","null","null","<p style=""font-size: 60px; font-family: BACS"">ALOrlkdrO</p>","","","","","","","",""
"html-keyboard-response","343","425479","0.0-15.0-0.12","5ec806f532fe7d2afa2e315b","64b003020eef62ee308107cc","64b1092b3d4d4b5751721a45","null","null","<p style=""font-size: 60px; font-family: BACS"">ALOrlkdrO</p>","","","","","","","",""
"html-keyboard-response","344","426487","0.0-15.0-0.13","5ec806f532fe7d2afa2e315b","64b003020eef62ee308107cc","64b1092b3d4d4b5751721a45","null","null","<p style=""font-size: 60px; font-family: BACS"">ALOrlkdrO</p>","","","","","","","",""
"html-keyboard-response","345","427495","0.0-15.0-0.14","5ec806f532fe7d2afa2e315b","64b003020eef62ee308107cc","64b1092b3d4d4b5751721a45","null","null","<p style=""font-size: 60px; font-family: BACS"">ALOrlkdrO</p>","","","","","","","",""
"html-keyboard-response","346","428497","0.0-15.0-0.15","5ec806f532fe7d2afa2e315b","64b003020eef62ee308107cc","64b1092b3d4d4b5751721a45","null","null","<p style=""font-size: 60px; font-family: BACS"">ALOrlkdrO</p>","","","","","","","",""
"html-keyboard-response","347","429501","0.0-15.0-0.16","5ec806f532fe7d2afa2e315b","64b003020eef62ee308107cc","64b1092b3d4d4b5751721a45","null","null","<p style=""font-size: 60px; font-family: BACS"">ALOrlkdrO</p>","","","","","","","",""
"html-keyboard-response","348","430505","0.0-15.0-0.17","5ec806f532fe7d2afa2e315b","64b003020eef62ee308107cc","64b1092b3d4d4b5751721a45","null","null","<p style=""font-size: 60px; font-family: BACS"">ALOrlkdrO</p>","","","","","","","",""
"html-keyboard-response","349","431506","0.0-15.0-0.18","5ec806f532fe7d2afa2e315b","64b003020eef62ee308107cc","64b1092b3d4d4b5751721a45","null","null","<p style=""font-size: 60px; font-family: BACS"">ALOrlkdrO</p>","","","","","","","",""
"html-keyboard-response","350","432518","0.0-15.0-0.19","5ec806f532fe7d2afa2e315b","64b003020eef62ee308107cc","64b1092b3d4d4b5751721a45","null","null","<p style=""font-size: 60px; font-family: BACS"">ALOrlkdrO</p>","","","","","","","",""
"html-keyboard-response","351","433519","0.0-15.0-0.20","5ec806f532fe7d2afa2e315b","64b003020eef62ee308107cc","64b1092b3d4d4b5751721a45","null","null","<p style=""font-size: 60px; font-family: BACS"">ALOrlkdrO</p>","","","","","","","",""
"html-keyboard-response","352","434532","0.0-15.0-0.21","5ec806f532fe7d2afa2e315b","64b003020eef62ee308107cc","64b1092b3d4d4b5751721a45","null","null","<p style=""font-size: 60px; font-family: BACS"">ALOrlkdrO</p>","","","","","","","",""
"html-keyboard-response","353","435540","0.0-15.0-0.22","5ec806f532fe7d2afa2e315b","64b003020eef62ee308107cc","64b1092b3d4d4b5751721a45","null","null","<p style=""font-size: 60px; font-family: BACS"">ALOrlkdrO</p>","","","","","","","",""
"html-keyboard-response","354","436541","0.0-15.0-0.23","5ec806f532fe7d2afa2e315b","64b003020eef62ee308107cc","64b1092b3d4d4b5751721a45","null","null","<p style=""font-size: 60px; font-family: BACS"">ALOrlkdrO</p>","","","","","","","",""
"html-keyboard-response","355","437557","0.0-15.0-0.24","5ec806f532fe7d2afa2e315b","64b003020eef62ee308107cc","64b1092b3d4d4b5751721a45","null","null","<p style=""font-size: 60px; font-family: BACS"">ALOrlkdrO</p>","","","","","","","",""
"html-keyboard-response","356","438559","0.0-15.0-0.25","5ec806f532fe7d2afa2e315b","64b003020eef62ee308107cc","64b1092b3d4d4b5751721a45","null","null","<p style=""font-size: 60px; font-family: BACS"">ALOrlkdrO</p>","","","","","","","",""
"html-keyboard-response","357","439565","0.0-15.0-0.26","5ec806f532fe7d2afa2e315b","64b003020eef62ee308107cc","64b1092b3d4d4b5751721a45","null","null","<p style=""font-size: 60px; font-family: BACS"">ALOrlkdrO</p>","","","","","","","",""
"html-keyboard-response","358","440570","0.0-15.0-0.27","5ec806f532fe7d2afa2e315b","64b003020eef62ee308107cc","64b1092b3d4d4b5751721a45","null","null","<p style=""font-size: 60px; font-family: BACS"">ALOrlkdrO</p>","","","","","","","",""
"html-keyboard-response","359","441577","0.0-15.0-0.28","5ec806f532fe7d2afa2e315b","64b003020eef62ee308107cc","64b1092b3d4d4b5751721a45","null","null","<p style=""font-size: 60px; font-family: BACS"">ALOrlkdrO</p>","","","","","","","",""
"html-keyboard-response","360","442579","0.0-15.0-0.29","5ec806f532fe7d2afa2e315b","64b003020eef62ee308107cc","64b1092b3d4d4b5751721a45","null","null","<p style=""font-size: 60px; font-family: BACS"">ALOrlkdrO</p>","","","","","","","",""
"html-keyboard-response","361","443592","0.0-15.0-0.30","5ec806f532fe7d2afa2e315b","64b003020eef62ee308107cc","64b1092b3d4d4b5751721a45","null","null","<p style=""font-size: 60px; font-family: BACS"">ALOrlkdrO</p>","","","","","","","",""
"html-keyboard-response","362","444597","0.0-15.0-0.31","5ec806f532fe7d2afa2e315b","64b003020eef62ee308107cc","64b1092b3d4d4b5751721a45","null","null","<p style=""font-size: 60px; font-family: BACS"">ALOrlkdrO</p>","","","","","","","",""
"html-keyboard-response","363","445605","0.0-15.0-0.32","5ec806f532fe7d2afa2e315b","64b003020eef62ee308107cc","64b1092b3d4d4b5751721a45","null","null","<p style=""font-size: 60px; font-family: BACS"">ALOrlkdrO</p>","","","","","","","",""
"html-keyboard-response","364","446609","0.0-15.0-0.33","5ec806f532fe7d2afa2e315b","64b003020eef62ee308107cc","64b1092b3d4d4b5751721a45","null","null","<p style=""font-size: 60px; font-family: BACS"">ALOrlkdrO</p>","","","","","","","",""
"html-keyboard-response","365","447618","0.0-15.0-0.34","5ec806f532fe7d2afa2e315b","64b003020eef62ee308107cc","64b1092b3d4d4b5751721a45","null","null","<p style=""font-size: 60px; font-family: BACS"">ALOrlkdrO</p>","","","","","","","",""
"html-keyboard-response","366","448622","0.0-15.0-0.35","5ec806f532fe7d2afa2e315b","64b003020eef62ee308107cc","64b1092b3d4d4b5751721a45","null","null","<p style=""font-size: 60px; font-family: BACS"">ALOrlkdrO</p>","","","","","","","",""
"html-keyboard-response","367","449627","0.0-15.0-0.36","5ec806f532fe7d2afa2e315b","64b003020eef62ee308107cc","64b1092b3d4d4b5751721a45","null","null","<p style=""font-size: 60px; font-family: BACS"">ALOrlkdrO</p>","","","","","","","",""
"html-keyboard-response","368","450631","0.0-15.0-0.37","5ec806f532fe7d2afa2e315b","64b003020eef62ee308107cc","64b1092b3d4d4b5751721a45","null","null","<p style=""font-size: 60px; font-family: BACS"">ALOrlkdrO</p>","","","","","","","",""
"html-keyboard-response","369","451635","0.0-15.0-0.38","5ec806f532fe7d2afa2e315b","64b003020eef62ee308107cc","64b1092b3d4d4b5751721a45","null","null","<p style=""font-size: 60px; font-family: BACS"">ALOrlkdrO</p>","","","","","","","",""
"html-keyboard-response","370","452644","0.0-15.0-0.39","5ec806f532fe7d2afa2e315b","64b003020eef62ee308107cc","64b1092b3d4d4b5751721a45","null","null","<p style=""font-size: 60px; font-family: BACS"">ALOrlkdrO</p>","","","","","","","",""
"html-keyboard-response","371","453654","0.0-15.0-0.40","5ec806f532fe7d2afa2e315b","64b003020eef62ee308107cc","64b1092b3d4d4b5751721a45","null","null","<p style=""font-size: 60px; font-family: BACS"">ALOrlkdrO</p>","","","","","","","",""
"html-keyboard-response","372","454658","0.0-15.0-0.41","5ec806f532fe7d2afa2e315b","64b003020eef62ee308107cc","64b1092b3d4d4b5751721a45","null","null","<p style=""font-size: 60px; font-family: BACS"">ALOrlkdrO</p>","","","","","","","",""
"html-keyboard-response","373","455672","0.0-15.0-0.42","5ec806f532fe7d2afa2e315b","64b003020eef62ee308107cc","64b1092b3d4d4b5751721a45","null","null","<p style=""font-size: 60px; font-family: BACS"">ALOrlkdrO</p>","","","","","","","",""
"html-keyboard-response","374","456676","0.0-15.0-0.43","5ec806f532fe7d2afa2e315b","64b003020eef62ee308107cc","64b1092b3d4d4b5751721a45","null","null","<p style=""font-size: 60px; font-family: BACS"">ALOrlkdrO</p>","","","","","","","",""
"html-keyboard-response","375","457693","0.0-15.0-0.44","5ec806f532fe7d2afa2e315b","64b003020eef62ee308107cc","64b1092b3d4d4b5751721a45","null","null","<p style=""font-size: 60px; font-family: BACS"">ALOrlkdrO</p>","","","","","","","",""
"html-keyboard-response","376","458703","0.0-15.0-0.45","5ec806f532fe7d2afa2e315b","64b003020eef62ee308107cc","64b1092b3d4d4b5751721a45","null","null","<p style=""font-size: 60px; font-family: BACS"">ALOrlkdrO</p>","","","","","","","",""
"html-keyboard-response","377","459709","0.0-15.0-0.46","5ec806f532fe7d2afa2e315b","64b003020eef62ee308107cc","64b1092b3d4d4b5751721a45","null","null","<p style=""font-size: 60px; font-family: BACS"">ALOrlkdrO</p>","","","","","","","",""
"html-keyboard-response","378","460716","0.0-15.0-0.47","5ec806f532fe7d2afa2e315b","64b003020eef62ee308107cc","64b1092b3d4d4b5751721a45","null","null","<p style=""font-size: 60px; font-family: BACS"">ALOrlkdrO</p>","","","","","","","",""
"html-keyboard-response","379","461725","0.0-15.0-0.48","5ec806f532fe7d2afa2e315b","64b003020eef62ee308107cc","64b1092b3d4d4b5751721a45","null","null","<p style=""font-size: 60px; font-family: BACS"">ALOrlkdrO</p>","","","","","","","",""
"html-keyboard-response","380","462741","0.0-15.0-0.49","5ec806f532fe7d2afa2e315b","64b003020eef62ee308107cc","64b1092b3d4d4b5751721a45","null","null","<p style=""font-size: 60px; font-family: BACS"">ALOrlkdrO</p>","","","","","","","",""
"html-keyboard-response","381","463753","0.0-15.0-0.50","5ec806f532fe7d2afa2e315b","64b003020eef62ee308107cc","64b1092b3d4d4b5751721a45","null","null","<p style=""font-size: 60px; font-family: BACS"">ALOrlkdrO</p>","","","","","","","",""
"html-keyboard-response","382","464761","0.0-15.0-0.51","5ec806f532fe7d2afa2e315b","64b003020eef62ee308107cc","64b1092b3d4d4b5751721a45","null","null","<p style=""font-size: 60px; font-family: BACS"">ALOrlkdrO</p>","","","","","","","",""
"html-keyboard-response","383","465764","0.0-15.0-0.52","5ec806f532fe7d2afa2e315b","64b003020eef62ee308107cc","64b1092b3d4d4b5751721a45","null","null","<p style=""font-size: 60px; font-family: BACS"">ALOrlkdrO</p>","","","","","","","",""
"html-keyboard-response","384","466766","0.0-15.0-0.53","5ec806f532fe7d2afa2e315b","64b003020eef62ee308107cc","64b1092b3d4d4b5751721a45","null","null","<p style=""font-size: 60px; font-family: BACS"">ALOrlkdrO</p>","","","","","","","",""
"html-keyboard-response","385","467769","0.0-15.0-0.54","5ec806f532fe7d2afa2e315b","64b003020eef62ee308107cc","64b1092b3d4d4b5751721a45","null","null","<p style=""font-size: 60px; font-family: BACS"">ALOrlkdrO</p>","","","","","","","",""
"html-keyboard-response","386","468773","0.0-15.0-0.55","5ec806f532fe7d2afa2e315b","64b003020eef62ee308107cc","64b1092b3d4d4b5751721a45","null","null","<p style=""font-size: 60px; font-family: BACS"">ALOrlkdrO</p>","","","","","","","",""
"html-keyboard-response","387","469775","0.0-15.0-0.56","5ec806f532fe7d2afa2e315b","64b003020eef62ee308107cc","64b1092b3d4d4b5751721a45","null","null","<p style=""font-size: 60px; font-family: BACS"">ALOrlkdrO</p>","","","","","","","",""
"html-keyboard-response","388","470783","0.0-15.0-0.57","5ec806f532fe7d2afa2e315b","64b003020eef62ee308107cc","64b1092b3d4d4b5751721a45","null","null","<p style=""font-size: 60px; font-family: BACS"">ALOrlkdrO</p>","","","","","","","",""
"html-keyboard-response","389","471791","0.0-15.0-0.58","5ec806f532fe7d2afa2e315b","64b003020eef62ee308107cc","64b1092b3d4d4b5751721a45","null","null","<p style=""font-size: 60px; font-family: BACS"">ALOrlkdrO</p>","","","","","","","",""
"html-keyboard-response","390","472797","0.0-15.0-0.59","5ec806f532fe7d2afa2e315b","64b003020eef62ee308107cc","64b1092b3d4d4b5751721a45","null","null","<p style=""font-size: 60px; font-family: BACS"">ALOrlkdrO</p>","","","","","","","",""
"html-keyboard-response","391","473803","0.0-15.0-0.60","5ec806f532fe7d2afa2e315b","64b003020eef62ee308107cc","64b1092b3d4d4b5751721a45","null","null","<p style=""font-size: 60px; font-family: BACS"">ALOrlkdrO</p>","","","","","","","",""
"html-keyboard-response","392","474811","0.0-15.0-0.61","5ec806f532fe7d2afa2e315b","64b003020eef62ee308107cc","64b1092b3d4d4b5751721a45","null","null","<p style=""font-size: 60px; font-family: BACS"">ALOrlkdrO</p>","","","","","","","",""
"html-keyboard-response","393","475824","0.0-15.0-0.62","5ec806f532fe7d2afa2e315b","64b003020eef62ee308107cc","64b1092b3d4d4b5751721a45","null","null","<p style=""font-size: 60px; font-family: BACS"">ALOrlkdrO</p>","","","","","","","",""
"html-keyboard-response","394","476839","0.0-15.0-0.63","5ec806f532fe7d2afa2e315b","64b003020eef62ee308107cc","64b1092b3d4d4b5751721a45","null","null","<p style=""font-size: 60px; font-family: BACS"">ALOrlkdrO</p>","","","","","","","",""
"html-keyboard-response","395","477854","0.0-15.0-0.64","5ec806f532fe7d2afa2e315b","64b003020eef62ee308107cc","64b1092b3d4d4b5751721a45","null","null","<p style=""font-size: 60px; font-family: BACS"">ALOrlkdrO</p>","","","","","","","",""
"html-keyboard-response","396","478857","0.0-15.0-0.65","5ec806f532fe7d2afa2e315b","64b003020eef62ee308107cc","64b1092b3d4d4b5751721a45","null","null","<p style=""font-size: 60px; font-family: BACS"">ALOrlkdrO</p>","","","","","","","",""
"html-keyboard-response","397","479861","0.0-15.0-0.66","5ec806f532fe7d2afa2e315b","64b003020eef62ee308107cc","64b1092b3d4d4b5751721a45","null","null","<p style=""font-size: 60px; font-family: BACS"">ALOrlkdrO</p>","","","","","","","",""
"html-keyboard-response","398","480865","0.0-15.0-0.67","5ec806f532fe7d2afa2e315b","64b003020eef62ee308107cc","64b1092b3d4d4b5751721a45","null","null","<p style=""font-size: 60px; font-family: BACS"">ALOrlkdrO</p>","","","","","","","",""
"html-keyboard-response","399","481867","0.0-15.0-0.68","5ec806f532fe7d2afa2e315b","64b003020eef62ee308107cc","64b1092b3d4d4b5751721a45","null","null","<p style=""font-size: 60px; font-family: BACS"">ALOrlkdrO</p>","","","","","","","",""
"html-keyboard-response","400","482881","0.0-15.0-0.69","5ec806f532fe7d2afa2e315b","64b003020eef62ee308107cc","64b1092b3d4d4b5751721a45","null","null","<p style=""font-size: 60px; font-family: BACS"">ALOrlkdrO</p>","","","","","","","",""
"html-keyboard-response","401","483889","0.0-15.0-0.70","5ec806f532fe7d2afa2e315b","64b003020eef62ee308107cc","64b1092b3d4d4b5751721a45","null","null","<p style=""font-size: 60px; font-family: BACS"">ALOrlkdrO</p>","","","","","","","",""
