trial_type,trial_index,time_elapsed,internal_node_id,subject_id,study_id,session_id,rt,response,stimulus,success,item,task,correct_response,testing_condition,correct,target,confound,name,view_history
pavlovia,0,813,0.0-0.0,61125e23136464bd2cbbefc9,650c16f0f2faf8d7a0d14c09,651c1dcd2f328e6054a464a9,,,,,,,,,,,,,
survey-html-form,1,28173,0.0-1.0,61125e23136464bd2cbbefc9,650c16f0f2faf8d7a0d14c09,651c1dcd2f328e6054a464a9,27358,"{""ID"":""61125e23136464bd2cbbefc9""}",,,,,,,,,,,
html-keyboard-response,2,48375,0.0-2.0,61125e23136464bd2cbbefc9,650c16f0f2faf8d7a0d14c09,651c1dcd2f328e6054a464a9,20201, ,"<p style=""font-size: 15px;"">Before beginning, we ask that you read the consent information and confirm your agreement to participate in the experiment.</p>
      <p style=""font-size: 15px;""> We ask that you remember that this is a research project and that your participation is entirely voluntary. You can stop your participation at any time, without needing to provide any explanation. The study we're asking you to participate in aims at examining how readers process written words. You will be engaged in a session of apprximately 20 minutes, followed by a brief questionnaire. You will have the opportunity to take a few breaks during the experiment. You will be paid £4 for your participation, corresponding to a rate of £8/hour. While this experiment looks at cognitive faculties, this experiment doesn't constitute clinical proof of eventual pathologies.</p>
      <p style=""font-size: 15px;"">All of the information collected thanks to yours and others' participation will be held in a secure password-protected server, and will not be shared with anyone not authorised to view it. Your personal information will be kept with an arbitrary participant ID. Thanks to this data anonymity process, any researcher analysing the data won't be able to track the information back to a specific participant. Therefore, this process will make identifying you impossibile, even when results from the study will be published in scientific reviews, presented at congresses, or at any other public forum. More generally, the collected data will be treated in accordance with the laws on privacy and conformity to the Legislative Degree n. 196 ""Code regarding the protection of personal data"" of the 30th of June 2003 and to the European Regulation 2016/670 (General Data Protection Regulation - GDPR). The Data Protection Officer is Avv. Valentina Carollo, who can be contacted at the following email addresses: <a href=""mailto:dpo@sissa.it"">dpo@sissa.it</a> or <a href=""mailto:rpd@sissa.it"">rpd@sissa.it</a> - PEC: <a href=""mailto:protocollo@pec.sissa.it"">protocollo@pec.sissa.it</a>.</p>
      <p style=""font-size: 15px;""> Before expressing your consent to participate, we would like to remind you again that in case you need explanations on any aspect of the experimental procedure, the researcher is at your disposition (<a href=""mailto:aliebelt@sissa.it"">aliebelt@sissa.it</a>, <a href=""mailto:davide.crepaldi@sissa.it"">davide.crepaldi@sissa.it</a>).</p>
      <p style=""font-size: 15px;"">If you would like to download the informed consent form, you can do so here: <a href=""BASL-Informed_Consent.pdf"" download>informed consent form</a>.</p>
      <p style=""font-size: 15px;"">We ask that you press the spacebar to proceed to the consent section.</p>",,,,,,,,,,
survey-html-form,3,70523,0.0-3.0,61125e23136464bd2cbbefc9,650c16f0f2faf8d7a0d14c09,651c1dcd2f328e6054a464a9,22146,"{""consent1"":""YES"",""consent2"":""YES"",""consent3"":""YES"",""consent4"":""YES"",""consent5"":""YES"",""consent6"":""YES""}",,,,,,,,,,,
fullscreen,4,78014,0.0-4.0,61125e23136464bd2cbbefc9,650c16f0f2faf8d7a0d14c09,651c1dcd2f328e6054a464a9,,,,TRUE,,,,,,,,,
html-keyboard-response,5,81306,0.0-5.0,61125e23136464bd2cbbefc9,650c16f0f2faf8d7a0d14c09,651c1dcd2f328e6054a464a9,3290, ,"<p>Welcome, and thank you very much for your time!</p>
      <p>In this experiment, you'll be a language expert who's been asked to take a look at words that Earth has received in its first communication with aliens. Your task, in this first part of the experiment, is to pay close attention to the words you'll be shown; later, world leaders will ask you questions on what you saw. The words will be shown to you quite quickly; it seems that the aliens were in a hurry :-)</p>
      <p>Press the spacebar to continue.<p>",,,,,,,,,,
html-keyboard-response,6,81358,0.0-6.0,61125e23136464bd2cbbefc9,650c16f0f2faf8d7a0d14c09,651c1dcd2f328e6054a464a9,null,null,"<p style=""font-size: 120px; font-family: BACS""> </p>",,,,,,,,,,
html-keyboard-response,7,95673,0.0-7.0,61125e23136464bd2cbbefc9,650c16f0f2faf8d7a0d14c09,651c1dcd2f328e6054a464a9,14314, ,"<p>Here is an example of the words you'll see:</p>
      <img src='esempio.png' height='400px'>
      <p>When you're ready to begin, press the spacebar.</p></div>",,,,,,,,,,
html-keyboard-response,8,96676,0.0-8.0-0.0,61125e23136464bd2cbbefc9,650c16f0f2faf8d7a0d14c09,651c1dcd2f328e6054a464a9,null,null,"<p style=""font-size: 60px; font-family: BACS"">rvUblvk</p>",,,,,,,,,,
html-keyboard-response,9,97679,0.0-8.0-0.1,61125e23136464bd2cbbefc9,650c16f0f2faf8d7a0d14c09,651c1dcd2f328e6054a464a9,null,null,"<p style=""font-size: 60px; font-family: BACS"">ckdAmdTAh</p>",,,,,,,,,,
html-keyboard-response,10,98680,0.0-8.0-0.2,61125e23136464bd2cbbefc9,650c16f0f2faf8d7a0d14c09,651c1dcd2f328e6054a464a9,null,null,"<p style=""font-size: 60px; font-family: BACS"">TAdhMRdCc</p>",,,,,,,,,,
html-keyboard-response,11,99681,0.0-8.0-0.3,61125e23136464bd2cbbefc9,650c16f0f2faf8d7a0d14c09,651c1dcd2f328e6054a464a9,null,null,"<p style=""font-size: 60px; font-family: BACS"">ukYZlGc</p>",,,,,,,,,,
html-keyboard-response,12,100682,0.0-8.0-0.4,61125e23136464bd2cbbefc9,650c16f0f2faf8d7a0d14c09,651c1dcd2f328e6054a464a9,null,null,"<p style=""font-size: 60px; font-family: BACS"">mrOdrAJu</p>",,,,,,,,,,
html-keyboard-response,13,101685,0.0-8.0-0.5,61125e23136464bd2cbbefc9,650c16f0f2faf8d7a0d14c09,651c1dcd2f328e6054a464a9,null,null,"<p style=""font-size: 60px; font-family: BACS"">tRdMdTAh</p>",,,,,,,,,,
html-keyboard-response,14,102686,0.0-8.0-0.6,61125e23136464bd2cbbefc9,650c16f0f2faf8d7a0d14c09,651c1dcd2f328e6054a464a9,null,null,"<p style=""font-size: 60px; font-family: BACS"">mrOdAvdk</p>",,,,,,,,,,
html-keyboard-response,15,103687,0.0-8.0-0.7,61125e23136464bd2cbbefc9,650c16f0f2faf8d7a0d14c09,651c1dcd2f328e6054a464a9,null,null,"<p style=""font-size: 60px; font-family: BACS"">khmhBCAd</p>",,,,,,,,,,
html-keyboard-response,16,104688,0.0-8.0-0.8,61125e23136464bd2cbbefc9,650c16f0f2faf8d7a0d14c09,651c1dcd2f328e6054a464a9,null,null,"<p style=""font-size: 60px; font-family: BACS"">AZaJckJdr</p>",,,,,,,,,,
html-keyboard-response,17,105690,0.0-8.0-0.9,61125e23136464bd2cbbefc9,650c16f0f2faf8d7a0d14c09,651c1dcd2f328e6054a464a9,null,null,"<p style=""font-size: 60px; font-family: BACS"">bvuZlvk</p>",,,,,,,,,,
html-keyboard-response,18,107060,0.0-8.0-0.10,61125e23136464bd2cbbefc9,650c16f0f2faf8d7a0d14c09,651c1dcd2f328e6054a464a9,null,null,"<p style=""font-size: 60px; font-family: BACS"">hlbtbOYK</p>",,,,,,,,,,
html-keyboard-response,19,108061,0.0-8.0-0.11,61125e23136464bd2cbbefc9,650c16f0f2faf8d7a0d14c09,651c1dcd2f328e6054a464a9,null,null,"<p style=""font-size: 60px; font-family: BACS"">PCPDhBCAd</p>",,,,,,,,,,
html-keyboard-response,20,109063,0.0-8.0-0.12,61125e23136464bd2cbbefc9,650c16f0f2faf8d7a0d14c09,651c1dcd2f328e6054a464a9,null,null,"<p style=""font-size: 60px; font-family: BACS"">ukYZAvdk</p>",,,,,,,,,,
html-keyboard-response,21,110064,0.0-8.0-0.13,61125e23136464bd2cbbefc9,650c16f0f2faf8d7a0d14c09,651c1dcd2f328e6054a464a9,null,null,"<p style=""font-size: 60px; font-family: BACS"">khmhRdCc</p>",,,,,,,,,,
html-keyboard-response,22,111066,0.0-8.0-0.14,61125e23136464bd2cbbefc9,650c16f0f2faf8d7a0d14c09,651c1dcd2f328e6054a464a9,null,null,"<p style=""font-size: 60px; font-family: BACS"">BATOcdTAh</p>",,,,,,,,,,
html-keyboard-response,23,112068,0.0-8.0-0.15,61125e23136464bd2cbbefc9,650c16f0f2faf8d7a0d14c09,651c1dcd2f328e6054a464a9,null,null,"<p style=""font-size: 60px; font-family: BACS"">QOLmulvk</p>",,,,,,,,,,
html-keyboard-response,24,113070,0.0-8.0-0.16,61125e23136464bd2cbbefc9,650c16f0f2faf8d7a0d14c09,651c1dcd2f328e6054a464a9,null,null,"<p style=""font-size: 60px; font-family: BACS"">TklDYht</p>",,,,,,,,,,
html-keyboard-response,25,114071,0.0-8.0-0.17,61125e23136464bd2cbbefc9,650c16f0f2faf8d7a0d14c09,651c1dcd2f328e6054a464a9,null,null,"<p style=""font-size: 60px; font-family: BACS"">AZaJcrAJu</p>",,,,,,,,,,
html-keyboard-response,26,115073,0.0-8.0-0.18,61125e23136464bd2cbbefc9,650c16f0f2faf8d7a0d14c09,651c1dcd2f328e6054a464a9,null,null,"<p style=""font-size: 60px; font-family: BACS"">TklDBCAd</p>",,,,,,,,,,
html-keyboard-response,27,116074,0.0-8.0-0.19,61125e23136464bd2cbbefc9,650c16f0f2faf8d7a0d14c09,651c1dcd2f328e6054a464a9,null,null,"<p style=""font-size: 60px; font-family: BACS"">QOLmurAJu</p>",,,,,,,,,,
html-keyboard-response,28,117075,0.0-8.0-0.20,61125e23136464bd2cbbefc9,650c16f0f2faf8d7a0d14c09,651c1dcd2f328e6054a464a9,null,null,"<p style=""font-size: 60px; font-family: BACS"">PCPDhRdCc</p>",,,,,,,,,,
html-keyboard-response,29,118076,0.0-8.0-0.21,61125e23136464bd2cbbefc9,650c16f0f2faf8d7a0d14c09,651c1dcd2f328e6054a464a9,null,null,"<p style=""font-size: 60px; font-family: BACS"">AZaJclvk</p>",,,,,,,,,,
html-keyboard-response,30,119077,0.0-8.0-0.22,61125e23136464bd2cbbefc9,650c16f0f2faf8d7a0d14c09,651c1dcd2f328e6054a464a9,null,null,"<p style=""font-size: 60px; font-family: BACS"">kabJbkJdr</p>",,,,,,,,,,
html-keyboard-response,31,120079,0.0-8.0-0.23,61125e23136464bd2cbbefc9,650c16f0f2faf8d7a0d14c09,651c1dcd2f328e6054a464a9,null,null,"<p style=""font-size: 60px; font-family: BACS"">hlkTYht</p>",,,,,,,,,,
html-keyboard-response,32,121080,0.0-8.0-0.24,61125e23136464bd2cbbefc9,650c16f0f2faf8d7a0d14c09,651c1dcd2f328e6054a464a9,null,null,"<p style=""font-size: 60px; font-family: BACS"">cROMtRdCc</p>",,,,,,,,,,
html-keyboard-response,33,122083,0.0-8.0-0.25,61125e23136464bd2cbbefc9,650c16f0f2faf8d7a0d14c09,651c1dcd2f328e6054a464a9,null,null,"<p style=""font-size: 60px; font-family: BACS"">UrOQlGc</p>",,,,,,,,,,
html-keyboard-response,34,123084,0.0-8.0-0.26,61125e23136464bd2cbbefc9,650c16f0f2faf8d7a0d14c09,651c1dcd2f328e6054a464a9,null,null,"<p style=""font-size: 60px; font-family: BACS"">tRdMRdCc</p>",,,,,,,,,,
html-keyboard-response,35,124086,0.0-8.0-0.27,61125e23136464bd2cbbefc9,650c16f0f2faf8d7a0d14c09,651c1dcd2f328e6054a464a9,null,null,"<p style=""font-size: 60px; font-family: BACS"">bvuZkJdr</p>",,,,,,,,,,
html-keyboard-response,36,125088,0.0-8.0-0.28,61125e23136464bd2cbbefc9,650c16f0f2faf8d7a0d14c09,651c1dcd2f328e6054a464a9,null,null,"<p style=""font-size: 60px; font-family: BACS"">QOLmuAvdk</p>",,,,,,,,,,
html-keyboard-response,37,126089,0.0-8.0-0.29,61125e23136464bd2cbbefc9,650c16f0f2faf8d7a0d14c09,651c1dcd2f328e6054a464a9,null,null,"<p style=""font-size: 60px; font-family: BACS"">tRdMYht</p>",,,,,,,,,,
html-keyboard-response,38,127091,0.0-8.0-0.30,61125e23136464bd2cbbefc9,650c16f0f2faf8d7a0d14c09,651c1dcd2f328e6054a464a9,null,null,"<p style=""font-size: 60px; font-family: BACS"">ckdAmOYK</p>",,,,,,,,,,
html-keyboard-response,39,128092,0.0-8.0-0.31,61125e23136464bd2cbbefc9,650c16f0f2faf8d7a0d14c09,651c1dcd2f328e6054a464a9,null,null,"<p style=""font-size: 60px; font-family: BACS"">rvUblGc</p>",,,,,,,,,,
html-keyboard-response,40,129093,0.0-8.0-0.32,61125e23136464bd2cbbefc9,650c16f0f2faf8d7a0d14c09,651c1dcd2f328e6054a464a9,null,null,"<p style=""font-size: 60px; font-family: BACS"">tRdMOYK</p>",,,,,,,,,,
html-keyboard-response,41,130095,0.0-8.0-0.33,61125e23136464bd2cbbefc9,650c16f0f2faf8d7a0d14c09,651c1dcd2f328e6054a464a9,null,null,"<p style=""font-size: 60px; font-family: BACS"">rvUbrAJu</p>",,,,,,,,,,
html-keyboard-response,42,131097,0.0-8.0-0.34,61125e23136464bd2cbbefc9,650c16f0f2faf8d7a0d14c09,651c1dcd2f328e6054a464a9,null,null,"<p style=""font-size: 60px; font-family: BACS"">NLQGmAvdk</p>",,,,,,,,,,
html-keyboard-response,43,132099,0.0-8.0-0.35,61125e23136464bd2cbbefc9,650c16f0f2faf8d7a0d14c09,651c1dcd2f328e6054a464a9,null,null,"<p style=""font-size: 60px; font-family: BACS"">khmhdTAh</p>",,,,,,,,,,
html-keyboard-response,44,133100,0.0-8.0-0.36,61125e23136464bd2cbbefc9,650c16f0f2faf8d7a0d14c09,651c1dcd2f328e6054a464a9,null,null,"<p style=""font-size: 60px; font-family: BACS"">ukYZlvk</p>",,,,,,,,,,
html-keyboard-response,45,134101,0.0-8.0-0.37,61125e23136464bd2cbbefc9,650c16f0f2faf8d7a0d14c09,651c1dcd2f328e6054a464a9,null,null,"<p style=""font-size: 60px; font-family: BACS"">NLQGmkJdr</p>",,,,,,,,,,
html-keyboard-response,46,135103,0.0-8.0-0.38,61125e23136464bd2cbbefc9,650c16f0f2faf8d7a0d14c09,651c1dcd2f328e6054a464a9,null,null,"<p style=""font-size: 60px; font-family: BACS"">BATOcBCAd</p>",,,,,,,,,,
html-keyboard-response,47,136103,0.0-8.0-0.39,61125e23136464bd2cbbefc9,650c16f0f2faf8d7a0d14c09,651c1dcd2f328e6054a464a9,null,null,"<p style=""font-size: 60px; font-family: BACS"">GAcYAvdk</p>",,,,,,,,,,
html-keyboard-response,48,137105,0.0-8.0-0.40,61125e23136464bd2cbbefc9,650c16f0f2faf8d7a0d14c09,651c1dcd2f328e6054a464a9,null,null,"<p style=""font-size: 60px; font-family: BACS"">ukYZkJdr</p>",,,,,,,,,,
html-keyboard-response,49,138107,0.0-8.0-0.41,61125e23136464bd2cbbefc9,650c16f0f2faf8d7a0d14c09,651c1dcd2f328e6054a464a9,null,null,"<p style=""font-size: 60px; font-family: BACS"">cROMtBCAd</p>",,,,,,,,,,
html-keyboard-response,50,139108,0.0-8.0-0.42,61125e23136464bd2cbbefc9,650c16f0f2faf8d7a0d14c09,651c1dcd2f328e6054a464a9,null,null,"<p style=""font-size: 60px; font-family: BACS"">GAcYlvk</p>",,,,,,,,,,
html-keyboard-response,51,140110,0.0-8.0-0.43,61125e23136464bd2cbbefc9,650c16f0f2faf8d7a0d14c09,651c1dcd2f328e6054a464a9,null,null,"<p style=""font-size: 60px; font-family: BACS"">kabJblGc</p>",,,,,,,,,,
html-keyboard-response,52,141111,0.0-8.0-0.44,61125e23136464bd2cbbefc9,650c16f0f2faf8d7a0d14c09,651c1dcd2f328e6054a464a9,null,null,"<p style=""font-size: 60px; font-family: BACS"">hlkTdTAh</p>",,,,,,,,,,
html-keyboard-response,53,142112,0.0-8.0-0.45,61125e23136464bd2cbbefc9,650c16f0f2faf8d7a0d14c09,651c1dcd2f328e6054a464a9,null,null,"<p style=""font-size: 60px; font-family: BACS"">UrOQkJdr</p>",,,,,,,,,,
html-keyboard-response,54,143114,0.0-8.0-0.46,61125e23136464bd2cbbefc9,650c16f0f2faf8d7a0d14c09,651c1dcd2f328e6054a464a9,null,null,"<p style=""font-size: 60px; font-family: BACS"">hlbtbRdCc</p>",,,,,,,,,,
html-keyboard-response,55,144116,0.0-8.0-0.47,61125e23136464bd2cbbefc9,650c16f0f2faf8d7a0d14c09,651c1dcd2f328e6054a464a9,null,null,"<p style=""font-size: 60px; font-family: BACS"">mrOdlvk</p>",,,,,,,,,,
html-keyboard-response,56,145116,0.0-8.0-0.48,61125e23136464bd2cbbefc9,650c16f0f2faf8d7a0d14c09,651c1dcd2f328e6054a464a9,null,null,"<p style=""font-size: 60px; font-family: BACS"">PCPDhOYK</p>",,,,,,,,,,
html-keyboard-response,57,146118,0.0-8.0-0.49,61125e23136464bd2cbbefc9,650c16f0f2faf8d7a0d14c09,651c1dcd2f328e6054a464a9,null,null,"<p style=""font-size: 60px; font-family: BACS"">ckdAmYht</p>",,,,,,,,,,
html-keyboard-response,58,147119,0.0-8.0-0.50,61125e23136464bd2cbbefc9,650c16f0f2faf8d7a0d14c09,651c1dcd2f328e6054a464a9,null,null,"<p style=""font-size: 60px; font-family: BACS"">kabJbAvdk</p>",,,,,,,,,,
html-keyboard-response,59,148125,0.0-8.0-0.51,61125e23136464bd2cbbefc9,650c16f0f2faf8d7a0d14c09,651c1dcd2f328e6054a464a9,null,null,"<p style=""font-size: 60px; font-family: BACS"">ckdAmRdCc</p>",,,,,,,,,,
html-keyboard-response,60,149127,0.0-8.0-0.52,61125e23136464bd2cbbefc9,650c16f0f2faf8d7a0d14c09,651c1dcd2f328e6054a464a9,null,null,"<p style=""font-size: 60px; font-family: BACS"">bvuZAvdk</p>",,,,,,,,,,
html-keyboard-response,61,150129,0.0-8.0-0.53,61125e23136464bd2cbbefc9,650c16f0f2faf8d7a0d14c09,651c1dcd2f328e6054a464a9,null,null,"<p style=""font-size: 60px; font-family: BACS"">hlkTOYK</p>",,,,,,,,,,
html-keyboard-response,62,151131,0.0-8.0-0.54,61125e23136464bd2cbbefc9,650c16f0f2faf8d7a0d14c09,651c1dcd2f328e6054a464a9,null,null,"<p style=""font-size: 60px; font-family: BACS"">kabJbrAJu</p>",,,,,,,,,,
html-keyboard-response,63,152133,0.0-8.0-0.55,61125e23136464bd2cbbefc9,650c16f0f2faf8d7a0d14c09,651c1dcd2f328e6054a464a9,null,null,"<p style=""font-size: 60px; font-family: BACS"">TAdhMYht</p>",,,,,,,,,,
html-keyboard-response,64,153135,0.0-8.0-0.56,61125e23136464bd2cbbefc9,650c16f0f2faf8d7a0d14c09,651c1dcd2f328e6054a464a9,null,null,"<p style=""font-size: 60px; font-family: BACS"">khmhOYK</p>",,,,,,,,,,
html-keyboard-response,65,154137,0.0-8.0-0.57,61125e23136464bd2cbbefc9,650c16f0f2faf8d7a0d14c09,651c1dcd2f328e6054a464a9,null,null,"<p style=""font-size: 60px; font-family: BACS"">cROMtdTAh</p>",,,,,,,,,,
html-keyboard-response,66,155139,0.0-8.0-0.58,61125e23136464bd2cbbefc9,650c16f0f2faf8d7a0d14c09,651c1dcd2f328e6054a464a9,null,null,"<p style=""font-size: 60px; font-family: BACS"">rvUbkJdr</p>",,,,,,,,,,
html-keyboard-response,67,156141,0.0-8.0-0.59,61125e23136464bd2cbbefc9,650c16f0f2faf8d7a0d14c09,651c1dcd2f328e6054a464a9,null,null,"<p style=""font-size: 60px; font-family: BACS"">cROMtYht</p>",,,,,,,,,,
html-keyboard-response,68,157143,0.0-8.0-0.60,61125e23136464bd2cbbefc9,650c16f0f2faf8d7a0d14c09,651c1dcd2f328e6054a464a9,null,null,"<p style=""font-size: 60px; font-family: BACS"">GAcYkJdr</p>",,,,,,,,,,
html-keyboard-response,69,158143,0.0-8.0-0.61,61125e23136464bd2cbbefc9,650c16f0f2faf8d7a0d14c09,651c1dcd2f328e6054a464a9,null,null,"<p style=""font-size: 60px; font-family: BACS"">TklDOYK</p>",,,,,,,,,,
html-keyboard-response,70,159144,0.0-8.0-0.62,61125e23136464bd2cbbefc9,650c16f0f2faf8d7a0d14c09,651c1dcd2f328e6054a464a9,null,null,"<p style=""font-size: 60px; font-family: BACS"">hlbtbdTAh</p>",,,,,,,,,,
html-keyboard-response,71,160145,0.0-8.0-0.63,61125e23136464bd2cbbefc9,650c16f0f2faf8d7a0d14c09,651c1dcd2f328e6054a464a9,null,null,"<p style=""font-size: 60px; font-family: BACS"">BATOcYht</p>",,,,,,,,,,
html-keyboard-response,72,161147,0.0-8.0-0.64,61125e23136464bd2cbbefc9,650c16f0f2faf8d7a0d14c09,651c1dcd2f328e6054a464a9,null,null,"<p style=""font-size: 60px; font-family: BACS"">UrOQAvdk</p>",,,,,,,,,,
html-keyboard-response,73,162148,0.0-8.0-0.65,61125e23136464bd2cbbefc9,650c16f0f2faf8d7a0d14c09,651c1dcd2f328e6054a464a9,null,null,"<p style=""font-size: 60px; font-family: BACS"">NLQGmrAJu</p>",,,,,,,,,,
html-keyboard-response,74,163150,0.0-8.0-0.66,61125e23136464bd2cbbefc9,650c16f0f2faf8d7a0d14c09,651c1dcd2f328e6054a464a9,null,null,"<p style=""font-size: 60px; font-family: BACS"">mrOdlGc</p>",,,,,,,,,,
html-keyboard-response,75,164151,0.0-8.0-0.67,61125e23136464bd2cbbefc9,650c16f0f2faf8d7a0d14c09,651c1dcd2f328e6054a464a9,null,null,"<p style=""font-size: 60px; font-family: BACS"">TAdhMBCAd</p>",,,,,,,,,,
html-keyboard-response,76,165152,0.0-8.0-0.68,61125e23136464bd2cbbefc9,650c16f0f2faf8d7a0d14c09,651c1dcd2f328e6054a464a9,null,null,"<p style=""font-size: 60px; font-family: BACS"">UrOQrAJu</p>",,,,,,,,,,
html-keyboard-response,77,166154,0.0-8.0-0.69,61125e23136464bd2cbbefc9,650c16f0f2faf8d7a0d14c09,651c1dcd2f328e6054a464a9,null,null,"<p style=""font-size: 60px; font-family: BACS"">hlbtbBCAd</p>",,,,,,,,,,
html-keyboard-response,78,167157,0.0-8.0-0.70,61125e23136464bd2cbbefc9,650c16f0f2faf8d7a0d14c09,651c1dcd2f328e6054a464a9,null,null,"<p style=""font-size: 60px; font-family: BACS"">TAdhMOYK</p>",,,,,,,,,,
html-keyboard-response,79,168158,0.0-8.0-0.71,61125e23136464bd2cbbefc9,650c16f0f2faf8d7a0d14c09,651c1dcd2f328e6054a464a9,null,null,"<p style=""font-size: 60px; font-family: BACS"">hlkTBCAd</p>",,,,,,,,,,
html-keyboard-response,80,169159,0.0-8.0-0.72,61125e23136464bd2cbbefc9,650c16f0f2faf8d7a0d14c09,651c1dcd2f328e6054a464a9,null,null,"<p style=""font-size: 60px; font-family: BACS"">NLQGmlvk</p>",,,,,,,,,,
html-keyboard-response,81,170160,0.0-8.0-0.73,61125e23136464bd2cbbefc9,650c16f0f2faf8d7a0d14c09,651c1dcd2f328e6054a464a9,null,null,"<p style=""font-size: 60px; font-family: BACS"">QOLmulGc</p>",,,,,,,,,,
html-keyboard-response,82,171162,0.0-8.0-0.74,61125e23136464bd2cbbefc9,650c16f0f2faf8d7a0d14c09,651c1dcd2f328e6054a464a9,null,null,"<p style=""font-size: 60px; font-family: BACS"">TklDdTAh</p>",,,,,,,,,,
html-keyboard-response,83,172163,0.0-8.0-0.75,61125e23136464bd2cbbefc9,650c16f0f2faf8d7a0d14c09,651c1dcd2f328e6054a464a9,null,null,"<p style=""font-size: 60px; font-family: BACS"">PCPDhYht</p>",,,,,,,,,,
html-keyboard-response,84,173164,0.0-8.0-0.76,61125e23136464bd2cbbefc9,650c16f0f2faf8d7a0d14c09,651c1dcd2f328e6054a464a9,null,null,"<p style=""font-size: 60px; font-family: BACS"">AZaJclGc</p>",,,,,,,,,,
html-keyboard-response,85,174165,0.0-8.0-0.77,61125e23136464bd2cbbefc9,650c16f0f2faf8d7a0d14c09,651c1dcd2f328e6054a464a9,null,null,"<p style=""font-size: 60px; font-family: BACS"">bvuZrAJu</p>",,,,,,,,,,
html-keyboard-response,86,175166,0.0-8.0-0.78,61125e23136464bd2cbbefc9,650c16f0f2faf8d7a0d14c09,651c1dcd2f328e6054a464a9,null,null,"<p style=""font-size: 60px; font-family: BACS"">GAcYlGc</p>",,,,,,,,,,
html-keyboard-response,87,176167,0.0-8.0-0.79,61125e23136464bd2cbbefc9,650c16f0f2faf8d7a0d14c09,651c1dcd2f328e6054a464a9,null,null,"<p style=""font-size: 60px; font-family: BACS"">BATOcRdCc</p>",,,,,,,,,,
html-keyboard-response,88,196195,0.0-9.0,61125e23136464bd2cbbefc9,650c16f0f2faf8d7a0d14c09,651c1dcd2f328e6054a464a9,20026, ,"<p>Great, you've seen the first block of words. You may now take a short break.</p>
      <p>Press the spacebar when you're ready to continue.</p>",,,,,,,,,,
html-keyboard-response,89,197196,0.0-10.0-0.0,61125e23136464bd2cbbefc9,650c16f0f2faf8d7a0d14c09,651c1dcd2f328e6054a464a9,null,null,"<p style=""font-size: 60px; font-family: BACS"">hlkTYht</p>",,,,,,,,,,
html-keyboard-response,90,198198,0.0-10.0-0.1,61125e23136464bd2cbbefc9,650c16f0f2faf8d7a0d14c09,651c1dcd2f328e6054a464a9,null,null,"<p style=""font-size: 60px; font-family: BACS"">UrOQlGc</p>",,,,,,,,,,
html-keyboard-response,91,199199,0.0-10.0-0.2,61125e23136464bd2cbbefc9,650c16f0f2faf8d7a0d14c09,651c1dcd2f328e6054a464a9,null,null,"<p style=""font-size: 60px; font-family: BACS"">cROMtRdCc</p>",,,,,,,,,,
html-keyboard-response,92,200200,0.0-10.0-0.3,61125e23136464bd2cbbefc9,650c16f0f2faf8d7a0d14c09,651c1dcd2f328e6054a464a9,null,null,"<p style=""font-size: 60px; font-family: BACS"">bvuZlvk</p>",,,,,,,,,,
html-keyboard-response,93,201201,0.0-10.0-0.4,61125e23136464bd2cbbefc9,650c16f0f2faf8d7a0d14c09,651c1dcd2f328e6054a464a9,null,null,"<p style=""font-size: 60px; font-family: BACS"">kabJblGc</p>",,,,,,,,,,
html-keyboard-response,94,202204,0.0-10.0-0.5,61125e23136464bd2cbbefc9,650c16f0f2faf8d7a0d14c09,651c1dcd2f328e6054a464a9,null,null,"<p style=""font-size: 60px; font-family: BACS"">PCPDhYht</p>",,,,,,,,,,
html-keyboard-response,95,203206,0.0-10.0-0.6,61125e23136464bd2cbbefc9,650c16f0f2faf8d7a0d14c09,651c1dcd2f328e6054a464a9,null,null,"<p style=""font-size: 60px; font-family: BACS"">NLQGmrAJu</p>",,,,,,,,,,
html-keyboard-response,96,204208,0.0-10.0-0.7,61125e23136464bd2cbbefc9,650c16f0f2faf8d7a0d14c09,651c1dcd2f328e6054a464a9,null,null,"<p style=""font-size: 60px; font-family: BACS"">GAcYlvk</p>",,,,,,,,,,
html-keyboard-response,97,205210,0.0-10.0-0.8,61125e23136464bd2cbbefc9,650c16f0f2faf8d7a0d14c09,651c1dcd2f328e6054a464a9,null,null,"<p style=""font-size: 60px; font-family: BACS"">TAdhMOYK</p>",,,,,,,,,,
html-keyboard-response,98,206213,0.0-10.0-0.9,61125e23136464bd2cbbefc9,650c16f0f2faf8d7a0d14c09,651c1dcd2f328e6054a464a9,null,null,"<p style=""font-size: 60px; font-family: BACS"">BATOcdTAh</p>",,,,,,,,,,
html-keyboard-response,99,207214,0.0-10.0-0.10,61125e23136464bd2cbbefc9,650c16f0f2faf8d7a0d14c09,651c1dcd2f328e6054a464a9,null,null,"<p style=""font-size: 60px; font-family: BACS"">NLQGmlvk</p>",,,,,,,,,,
html-keyboard-response,100,208215,0.0-10.0-0.11,61125e23136464bd2cbbefc9,650c16f0f2faf8d7a0d14c09,651c1dcd2f328e6054a464a9,null,null,"<p style=""font-size: 60px; font-family: BACS"">BATOcRdCc</p>",,,,,,,,,,
html-keyboard-response,101,209216,0.0-10.0-0.12,61125e23136464bd2cbbefc9,650c16f0f2faf8d7a0d14c09,651c1dcd2f328e6054a464a9,null,null,"<p style=""font-size: 60px; font-family: BACS"">TAdhMBCAd</p>",,,,,,,,,,
html-keyboard-response,102,210219,0.0-10.0-0.13,61125e23136464bd2cbbefc9,650c16f0f2faf8d7a0d14c09,651c1dcd2f328e6054a464a9,null,null,"<p style=""font-size: 60px; font-family: BACS"">ukYZkJdr</p>",,,,,,,,,,
html-keyboard-response,103,211220,0.0-10.0-0.14,61125e23136464bd2cbbefc9,650c16f0f2faf8d7a0d14c09,651c1dcd2f328e6054a464a9,null,null,"<p style=""font-size: 60px; font-family: BACS"">hlkTOYK</p>",,,,,,,,,,
html-keyboard-response,104,212222,0.0-10.0-0.15,61125e23136464bd2cbbefc9,650c16f0f2faf8d7a0d14c09,651c1dcd2f328e6054a464a9,null,null,"<p style=""font-size: 60px; font-family: BACS"">BATOcYht</p>",,,,,,,,,,
html-keyboard-response,105,214059,0.0-10.0-0.16,61125e23136464bd2cbbefc9,650c16f0f2faf8d7a0d14c09,651c1dcd2f328e6054a464a9,null,null,"<p style=""font-size: 60px; font-family: BACS"">cROMtdTAh</p>",,,,,,,,,,
html-keyboard-response,106,215061,0.0-10.0-0.17,61125e23136464bd2cbbefc9,650c16f0f2faf8d7a0d14c09,651c1dcd2f328e6054a464a9,null,null,"<p style=""font-size: 60px; font-family: BACS"">rvUblGc</p>",,,,,,,,,,
html-keyboard-response,107,217060,0.0-10.0-0.18,61125e23136464bd2cbbefc9,650c16f0f2faf8d7a0d14c09,651c1dcd2f328e6054a464a9,null,null,"<p style=""font-size: 60px; font-family: BACS"">PCPDhOYK</p>",,,,,,,,,,
html-keyboard-response,108,219478,0.0-10.0-0.19,61125e23136464bd2cbbefc9,650c16f0f2faf8d7a0d14c09,651c1dcd2f328e6054a464a9,null,null,"<p style=""font-size: 60px; font-family: BACS"">AZaJclGc</p>",,,,,,,,,,
html-keyboard-response,109,221113,0.0-10.0-0.20,61125e23136464bd2cbbefc9,650c16f0f2faf8d7a0d14c09,651c1dcd2f328e6054a464a9,null,null,"<p style=""font-size: 60px; font-family: BACS"">QOLmuAvdk</p>",,,,,,,,,,
html-keyboard-response,110,223060,0.0-10.0-0.21,61125e23136464bd2cbbefc9,650c16f0f2faf8d7a0d14c09,651c1dcd2f328e6054a464a9,null,null,"<p style=""font-size: 60px; font-family: BACS"">PCPDhBCAd</p>",,,,,,,,,,
html-keyboard-response,111,224415,0.0-10.0-0.22,61125e23136464bd2cbbefc9,650c16f0f2faf8d7a0d14c09,651c1dcd2f328e6054a464a9,null,null,"<p style=""font-size: 60px; font-family: BACS"">GAcYlGc</p>",,,,,,,,,,
html-keyboard-response,112,226060,0.0-10.0-0.23,61125e23136464bd2cbbefc9,650c16f0f2faf8d7a0d14c09,651c1dcd2f328e6054a464a9,null,null,"<p style=""font-size: 60px; font-family: BACS"">UrOQkJdr</p>",,,,,,,,,,
html-keyboard-response,113,227060,0.0-10.0-0.24,61125e23136464bd2cbbefc9,650c16f0f2faf8d7a0d14c09,651c1dcd2f328e6054a464a9,null,null,"<p style=""font-size: 60px; font-family: BACS"">mrOdAvdk</p>",,,,,,,,,,
html-keyboard-response,114,228062,0.0-10.0-0.25,61125e23136464bd2cbbefc9,650c16f0f2faf8d7a0d14c09,651c1dcd2f328e6054a464a9,null,null,"<p style=""font-size: 60px; font-family: BACS"">ckdAmdTAh</p>",,,,,,,,,,
html-keyboard-response,115,229129,0.0-10.0-0.26,61125e23136464bd2cbbefc9,650c16f0f2faf8d7a0d14c09,651c1dcd2f328e6054a464a9,null,null,"<p style=""font-size: 60px; font-family: BACS"">rvUbrAJu</p>",,,,,,,,,,
html-keyboard-response,116,231059,0.0-10.0-0.27,61125e23136464bd2cbbefc9,650c16f0f2faf8d7a0d14c09,651c1dcd2f328e6054a464a9,null,null,"<p style=""font-size: 60px; font-family: BACS"">tRdMOYK</p>",,,,,,,,,,
html-keyboard-response,117,232079,0.0-10.0-0.28,61125e23136464bd2cbbefc9,650c16f0f2faf8d7a0d14c09,651c1dcd2f328e6054a464a9,null,null,"<p style=""font-size: 60px; font-family: BACS"">hlbtbBCAd</p>",,,,,,,,,,
html-keyboard-response,118,234060,0.0-10.0-0.29,61125e23136464bd2cbbefc9,650c16f0f2faf8d7a0d14c09,651c1dcd2f328e6054a464a9,null,null,"<p style=""font-size: 60px; font-family: BACS"">TklDdTAh</p>",,,,,,,,,,
html-keyboard-response,119,235062,0.0-10.0-0.30,61125e23136464bd2cbbefc9,650c16f0f2faf8d7a0d14c09,651c1dcd2f328e6054a464a9,null,null,"<p style=""font-size: 60px; font-family: BACS"">tRdMYht</p>",,,,,,,,,,
html-keyboard-response,120,236064,0.0-10.0-0.31,61125e23136464bd2cbbefc9,650c16f0f2faf8d7a0d14c09,651c1dcd2f328e6054a464a9,null,null,"<p style=""font-size: 60px; font-family: BACS"">UrOQrAJu</p>",,,,,,,,,,
html-keyboard-response,121,238059,0.0-10.0-0.32,61125e23136464bd2cbbefc9,650c16f0f2faf8d7a0d14c09,651c1dcd2f328e6054a464a9,null,null,"<p style=""font-size: 60px; font-family: BACS"">hlbtbRdCc</p>",,,,,,,,,,
html-keyboard-response,122,239061,0.0-10.0-0.33,61125e23136464bd2cbbefc9,650c16f0f2faf8d7a0d14c09,651c1dcd2f328e6054a464a9,null,null,"<p style=""font-size: 60px; font-family: BACS"">QOLmurAJu</p>",,,,,,,,,,
html-keyboard-response,123,240063,0.0-10.0-0.34,61125e23136464bd2cbbefc9,650c16f0f2faf8d7a0d14c09,651c1dcd2f328e6054a464a9,null,null,"<p style=""font-size: 60px; font-family: BACS"">TAdhMYht</p>",,,,,,,,,,
html-keyboard-response,124,242060,0.0-10.0-0.35,61125e23136464bd2cbbefc9,650c16f0f2faf8d7a0d14c09,651c1dcd2f328e6054a464a9,null,null,"<p style=""font-size: 60px; font-family: BACS"">bvuZAvdk</p>",,,,,,,,,,
html-keyboard-response,125,243061,0.0-10.0-0.36,61125e23136464bd2cbbefc9,650c16f0f2faf8d7a0d14c09,651c1dcd2f328e6054a464a9,null,null,"<p style=""font-size: 60px; font-family: BACS"">khmhBCAd</p>",,,,,,,,,,
html-keyboard-response,126,244063,0.0-10.0-0.37,61125e23136464bd2cbbefc9,650c16f0f2faf8d7a0d14c09,651c1dcd2f328e6054a464a9,null,null,"<p style=""font-size: 60px; font-family: BACS"">kabJbrAJu</p>",,,,,,,,,,
html-keyboard-response,127,246060,0.0-10.0-0.38,61125e23136464bd2cbbefc9,650c16f0f2faf8d7a0d14c09,651c1dcd2f328e6054a464a9,null,null,"<p style=""font-size: 60px; font-family: BACS"">ckdAmYht</p>",,,,,,,,,,
html-keyboard-response,128,247061,0.0-10.0-0.39,61125e23136464bd2cbbefc9,650c16f0f2faf8d7a0d14c09,651c1dcd2f328e6054a464a9,null,null,"<p style=""font-size: 60px; font-family: BACS"">NLQGmkJdr</p>",,,,,,,,,,
html-keyboard-response,129,248074,0.0-10.0-0.40,61125e23136464bd2cbbefc9,650c16f0f2faf8d7a0d14c09,651c1dcd2f328e6054a464a9,null,null,"<p style=""font-size: 60px; font-family: BACS"">cROMtBCAd</p>",,,,,,,,,,
html-keyboard-response,130,249076,0.0-10.0-0.41,61125e23136464bd2cbbefc9,650c16f0f2faf8d7a0d14c09,651c1dcd2f328e6054a464a9,null,null,"<p style=""font-size: 60px; font-family: BACS"">TklDYht</p>",,,,,,,,,,
html-keyboard-response,131,250079,0.0-10.0-0.42,61125e23136464bd2cbbefc9,650c16f0f2faf8d7a0d14c09,651c1dcd2f328e6054a464a9,null,null,"<p style=""font-size: 60px; font-family: BACS"">kabJbAvdk</p>",,,,,,,,,,
html-keyboard-response,132,251081,0.0-10.0-0.43,61125e23136464bd2cbbefc9,650c16f0f2faf8d7a0d14c09,651c1dcd2f328e6054a464a9,null,null,"<p style=""font-size: 60px; font-family: BACS"">TklDBCAd</p>",,,,,,,,,,
html-keyboard-response,133,252082,0.0-10.0-0.44,61125e23136464bd2cbbefc9,650c16f0f2faf8d7a0d14c09,651c1dcd2f328e6054a464a9,null,null,"<p style=""font-size: 60px; font-family: BACS"">ckdAmOYK</p>",,,,,,,,,,
html-keyboard-response,134,253084,0.0-10.0-0.45,61125e23136464bd2cbbefc9,650c16f0f2faf8d7a0d14c09,651c1dcd2f328e6054a464a9,null,null,"<p style=""font-size: 60px; font-family: BACS"">hlkTdTAh</p>",,,,,,,,,,
html-keyboard-response,135,254086,0.0-10.0-0.46,61125e23136464bd2cbbefc9,650c16f0f2faf8d7a0d14c09,651c1dcd2f328e6054a464a9,null,null,"<p style=""font-size: 60px; font-family: BACS"">ukYZAvdk</p>",,,,,,,,,,
html-keyboard-response,136,255088,0.0-10.0-0.47,61125e23136464bd2cbbefc9,650c16f0f2faf8d7a0d14c09,651c1dcd2f328e6054a464a9,null,null,"<p style=""font-size: 60px; font-family: BACS"">AZaJcrAJu</p>",,,,,,,,,,
html-keyboard-response,137,256090,0.0-10.0-0.48,61125e23136464bd2cbbefc9,650c16f0f2faf8d7a0d14c09,651c1dcd2f328e6054a464a9,null,null,"<p style=""font-size: 60px; font-family: BACS"">tRdMdTAh</p>",,,,,,,,,,
html-keyboard-response,138,257091,0.0-10.0-0.49,61125e23136464bd2cbbefc9,650c16f0f2faf8d7a0d14c09,651c1dcd2f328e6054a464a9,null,null,"<p style=""font-size: 60px; font-family: BACS"">hlkTBCAd</p>",,,,,,,,,,
html-keyboard-response,139,258093,0.0-10.0-0.50,61125e23136464bd2cbbefc9,650c16f0f2faf8d7a0d14c09,651c1dcd2f328e6054a464a9,null,null,"<p style=""font-size: 60px; font-family: BACS"">khmhdTAh</p>",,,,,,,,,,
html-keyboard-response,140,259095,0.0-10.0-0.51,61125e23136464bd2cbbefc9,650c16f0f2faf8d7a0d14c09,651c1dcd2f328e6054a464a9,null,null,"<p style=""font-size: 60px; font-family: BACS"">GAcYkJdr</p>",,,,,,,,,,
html-keyboard-response,141,260097,0.0-10.0-0.52,61125e23136464bd2cbbefc9,650c16f0f2faf8d7a0d14c09,651c1dcd2f328e6054a464a9,null,null,"<p style=""font-size: 60px; font-family: BACS"">NLQGmAvdk</p>",,,,,,,,,,
html-keyboard-response,142,261098,0.0-10.0-0.53,61125e23136464bd2cbbefc9,650c16f0f2faf8d7a0d14c09,651c1dcd2f328e6054a464a9,null,null,"<p style=""font-size: 60px; font-family: BACS"">tRdMRdCc</p>",,,,,,,,,,
html-keyboard-response,143,262101,0.0-10.0-0.54,61125e23136464bd2cbbefc9,650c16f0f2faf8d7a0d14c09,651c1dcd2f328e6054a464a9,null,null,"<p style=""font-size: 60px; font-family: BACS"">QOLmulvk</p>",,,,,,,,,,
html-keyboard-response,144,263109,0.0-10.0-0.55,61125e23136464bd2cbbefc9,650c16f0f2faf8d7a0d14c09,651c1dcd2f328e6054a464a9,null,null,"<p style=""font-size: 60px; font-family: BACS"">AZaJckJdr</p>",,,,,,,,,,
html-keyboard-response,145,264111,0.0-10.0-0.56,61125e23136464bd2cbbefc9,650c16f0f2faf8d7a0d14c09,651c1dcd2f328e6054a464a9,null,null,"<p style=""font-size: 60px; font-family: BACS"">QOLmulGc</p>",,,,,,,,,,
html-keyboard-response,146,265113,0.0-10.0-0.57,61125e23136464bd2cbbefc9,650c16f0f2faf8d7a0d14c09,651c1dcd2f328e6054a464a9,null,null,"<p style=""font-size: 60px; font-family: BACS"">cROMtYht</p>",,,,,,,,,,
html-keyboard-response,147,266115,0.0-10.0-0.58,61125e23136464bd2cbbefc9,650c16f0f2faf8d7a0d14c09,651c1dcd2f328e6054a464a9,null,null,"<p style=""font-size: 60px; font-family: BACS"">ckdAmRdCc</p>",,,,,,,,,,
html-keyboard-response,148,267116,0.0-10.0-0.59,61125e23136464bd2cbbefc9,650c16f0f2faf8d7a0d14c09,651c1dcd2f328e6054a464a9,null,null,"<p style=""font-size: 60px; font-family: BACS"">ukYZlGc</p>",,,,,,,,,,
html-keyboard-response,149,268117,0.0-10.0-0.60,61125e23136464bd2cbbefc9,650c16f0f2faf8d7a0d14c09,651c1dcd2f328e6054a464a9,null,null,"<p style=""font-size: 60px; font-family: BACS"">TklDOYK</p>",,,,,,,,,,
html-keyboard-response,150,269119,0.0-10.0-0.61,61125e23136464bd2cbbefc9,650c16f0f2faf8d7a0d14c09,651c1dcd2f328e6054a464a9,null,null,"<p style=""font-size: 60px; font-family: BACS"">kabJbkJdr</p>",,,,,,,,,,
html-keyboard-response,151,270120,0.0-10.0-0.62,61125e23136464bd2cbbefc9,650c16f0f2faf8d7a0d14c09,651c1dcd2f328e6054a464a9,null,null,"<p style=""font-size: 60px; font-family: BACS"">mrOdlGc</p>",,,,,,,,,,
html-keyboard-response,152,271123,0.0-10.0-0.63,61125e23136464bd2cbbefc9,650c16f0f2faf8d7a0d14c09,651c1dcd2f328e6054a464a9,null,null,"<p style=""font-size: 60px; font-family: BACS"">AZaJclvk</p>",,,,,,,,,,
html-keyboard-response,153,272124,0.0-10.0-0.64,61125e23136464bd2cbbefc9,650c16f0f2faf8d7a0d14c09,651c1dcd2f328e6054a464a9,null,null,"<p style=""font-size: 60px; font-family: BACS"">bvuZrAJu</p>",,,,,,,,,,
html-keyboard-response,154,273125,0.0-10.0-0.65,61125e23136464bd2cbbefc9,650c16f0f2faf8d7a0d14c09,651c1dcd2f328e6054a464a9,null,null,"<p style=""font-size: 60px; font-family: BACS"">TAdhMRdCc</p>",,,,,,,,,,
html-keyboard-response,155,274126,0.0-10.0-0.66,61125e23136464bd2cbbefc9,650c16f0f2faf8d7a0d14c09,651c1dcd2f328e6054a464a9,null,null,"<p style=""font-size: 60px; font-family: BACS"">mrOdlvk</p>",,,,,,,,,,
html-keyboard-response,156,275128,0.0-10.0-0.67,61125e23136464bd2cbbefc9,650c16f0f2faf8d7a0d14c09,651c1dcd2f328e6054a464a9,null,null,"<p style=""font-size: 60px; font-family: BACS"">UrOQAvdk</p>",,,,,,,,,,
html-keyboard-response,157,276130,0.0-10.0-0.68,61125e23136464bd2cbbefc9,650c16f0f2faf8d7a0d14c09,651c1dcd2f328e6054a464a9,null,null,"<p style=""font-size: 60px; font-family: BACS"">mrOdrAJu</p>",,,,,,,,,,
html-keyboard-response,158,277130,0.0-10.0-0.69,61125e23136464bd2cbbefc9,650c16f0f2faf8d7a0d14c09,651c1dcd2f328e6054a464a9,null,null,"<p style=""font-size: 60px; font-family: BACS"">khmhRdCc</p>",,,,,,,,,,
html-keyboard-response,159,278132,0.0-10.0-0.70,61125e23136464bd2cbbefc9,650c16f0f2faf8d7a0d14c09,651c1dcd2f328e6054a464a9,null,null,"<p style=""font-size: 60px; font-family: BACS"">GAcYAvdk</p>",,,,,,,,,,
html-keyboard-response,160,279133,0.0-10.0-0.71,61125e23136464bd2cbbefc9,650c16f0f2faf8d7a0d14c09,651c1dcd2f328e6054a464a9,null,null,"<p style=""font-size: 60px; font-family: BACS"">rvUbkJdr</p>",,,,,,,,,,
html-keyboard-response,161,280135,0.0-10.0-0.72,61125e23136464bd2cbbefc9,650c16f0f2faf8d7a0d14c09,651c1dcd2f328e6054a464a9,null,null,"<p style=""font-size: 60px; font-family: BACS"">PCPDhRdCc</p>",,,,,,,,,,
html-keyboard-response,162,281136,0.0-10.0-0.73,61125e23136464bd2cbbefc9,650c16f0f2faf8d7a0d14c09,651c1dcd2f328e6054a464a9,null,null,"<p style=""font-size: 60px; font-family: BACS"">bvuZkJdr</p>",,,,,,,,,,
html-keyboard-response,163,282137,0.0-10.0-0.74,61125e23136464bd2cbbefc9,650c16f0f2faf8d7a0d14c09,651c1dcd2f328e6054a464a9,null,null,"<p style=""font-size: 60px; font-family: BACS"">BATOcBCAd</p>",,,,,,,,,,
html-keyboard-response,164,283139,0.0-10.0-0.75,61125e23136464bd2cbbefc9,650c16f0f2faf8d7a0d14c09,651c1dcd2f328e6054a464a9,null,null,"<p style=""font-size: 60px; font-family: BACS"">khmhOYK</p>",,,,,,,,,,
html-keyboard-response,165,284141,0.0-10.0-0.76,61125e23136464bd2cbbefc9,650c16f0f2faf8d7a0d14c09,651c1dcd2f328e6054a464a9,null,null,"<p style=""font-size: 60px; font-family: BACS"">rvUblvk</p>",,,,,,,,,,
html-keyboard-response,166,285141,0.0-10.0-0.77,61125e23136464bd2cbbefc9,650c16f0f2faf8d7a0d14c09,651c1dcd2f328e6054a464a9,null,null,"<p style=""font-size: 60px; font-family: BACS"">hlbtbdTAh</p>",,,,,,,,,,
html-keyboard-response,167,286143,0.0-10.0-0.78,61125e23136464bd2cbbefc9,650c16f0f2faf8d7a0d14c09,651c1dcd2f328e6054a464a9,null,null,"<p style=""font-size: 60px; font-family: BACS"">ukYZlvk</p>",,,,,,,,,,
html-keyboard-response,168,287143,0.0-10.0-0.79,61125e23136464bd2cbbefc9,650c16f0f2faf8d7a0d14c09,651c1dcd2f328e6054a464a9,null,null,"<p style=""font-size: 60px; font-family: BACS"">hlbtbOYK</p>",,,,,,,,,,
html-keyboard-response,169,308246,0.0-11.0,61125e23136464bd2cbbefc9,650c16f0f2faf8d7a0d14c09,651c1dcd2f328e6054a464a9,21102, ,"<p>Great, you've seen the second block of words. You may now take a short break.</p>
      <p>Press the spacebar when you're ready to continue.</p>",,,,,,,,,,
html-keyboard-response,170,309248,0.0-12.0-0.0,61125e23136464bd2cbbefc9,650c16f0f2faf8d7a0d14c09,651c1dcd2f328e6054a464a9,null,null,"<p style=""font-size: 60px; font-family: BACS"">TAdhMYht</p>",,,,,,,,,,
html-keyboard-response,171,310250,0.0-12.0-0.1,61125e23136464bd2cbbefc9,650c16f0f2faf8d7a0d14c09,651c1dcd2f328e6054a464a9,null,null,"<p style=""font-size: 60px; font-family: BACS"">cROMtRdCc</p>",,,,,,,,,,
html-keyboard-response,172,311253,0.0-12.0-0.2,61125e23136464bd2cbbefc9,650c16f0f2faf8d7a0d14c09,651c1dcd2f328e6054a464a9,null,null,"<p style=""font-size: 60px; font-family: BACS"">ukYZAvdk</p>",,,,,,,,,,
html-keyboard-response,173,312254,0.0-12.0-0.3,61125e23136464bd2cbbefc9,650c16f0f2faf8d7a0d14c09,651c1dcd2f328e6054a464a9,null,null,"<p style=""font-size: 60px; font-family: BACS"">QOLmurAJu</p>",,,,,,,,,,
html-keyboard-response,174,313255,0.0-12.0-0.4,61125e23136464bd2cbbefc9,650c16f0f2faf8d7a0d14c09,651c1dcd2f328e6054a464a9,null,null,"<p style=""font-size: 60px; font-family: BACS"">UrOQAvdk</p>",,,,,,,,,,
html-keyboard-response,175,314256,0.0-12.0-0.5,61125e23136464bd2cbbefc9,650c16f0f2faf8d7a0d14c09,651c1dcd2f328e6054a464a9,null,null,"<p style=""font-size: 60px; font-family: BACS"">AZaJcrAJu</p>",,,,,,,,,,
html-keyboard-response,176,315258,0.0-12.0-0.6,61125e23136464bd2cbbefc9,650c16f0f2faf8d7a0d14c09,651c1dcd2f328e6054a464a9,null,null,"<p style=""font-size: 60px; font-family: BACS"">PCPDhYht</p>",,,,,,,,,,
html-keyboard-response,177,316259,0.0-12.0-0.7,61125e23136464bd2cbbefc9,650c16f0f2faf8d7a0d14c09,651c1dcd2f328e6054a464a9,null,null,"<p style=""font-size: 60px; font-family: BACS"">GAcYAvdk</p>",,,,,,,,,,
html-keyboard-response,178,317260,0.0-12.0-0.8,61125e23136464bd2cbbefc9,650c16f0f2faf8d7a0d14c09,651c1dcd2f328e6054a464a9,null,null,"<p style=""font-size: 60px; font-family: BACS"">rvUblGc</p>",,,,,,,,,,
html-keyboard-response,179,318261,0.0-12.0-0.9,61125e23136464bd2cbbefc9,650c16f0f2faf8d7a0d14c09,651c1dcd2f328e6054a464a9,null,null,"<p style=""font-size: 60px; font-family: BACS"">bvuZAvdk</p>",,,,,,,,,,
html-keyboard-response,180,319263,0.0-12.0-0.10,61125e23136464bd2cbbefc9,650c16f0f2faf8d7a0d14c09,651c1dcd2f328e6054a464a9,null,null,"<p style=""font-size: 60px; font-family: BACS"">kabJblGc</p>",,,,,,,,,,
html-keyboard-response,181,320264,0.0-12.0-0.11,61125e23136464bd2cbbefc9,650c16f0f2faf8d7a0d14c09,651c1dcd2f328e6054a464a9,null,null,"<p style=""font-size: 60px; font-family: BACS"">hlkTOYK</p>",,,,,,,,,,
html-keyboard-response,182,321266,0.0-12.0-0.12,61125e23136464bd2cbbefc9,650c16f0f2faf8d7a0d14c09,651c1dcd2f328e6054a464a9,null,null,"<p style=""font-size: 60px; font-family: BACS"">TklDBCAd</p>",,,,,,,,,,
html-keyboard-response,183,322268,0.0-12.0-0.13,61125e23136464bd2cbbefc9,650c16f0f2faf8d7a0d14c09,651c1dcd2f328e6054a464a9,null,null,"<p style=""font-size: 60px; font-family: BACS"">khmhRdCc</p>",,,,,,,,,,
html-keyboard-response,184,323271,0.0-12.0-0.14,61125e23136464bd2cbbefc9,650c16f0f2faf8d7a0d14c09,651c1dcd2f328e6054a464a9,null,null,"<p style=""font-size: 60px; font-family: BACS"">bvuZkJdr</p>",,,,,,,,,,
html-keyboard-response,185,324272,0.0-12.0-0.15,61125e23136464bd2cbbefc9,650c16f0f2faf8d7a0d14c09,651c1dcd2f328e6054a464a9,null,null,"<p style=""font-size: 60px; font-family: BACS"">AZaJclGc</p>",,,,,,,,,,
html-keyboard-response,186,325273,0.0-12.0-0.16,61125e23136464bd2cbbefc9,650c16f0f2faf8d7a0d14c09,651c1dcd2f328e6054a464a9,null,null,"<p style=""font-size: 60px; font-family: BACS"">NLQGmrAJu</p>",,,,,,,,,,
html-keyboard-response,187,326275,0.0-12.0-0.17,61125e23136464bd2cbbefc9,650c16f0f2faf8d7a0d14c09,651c1dcd2f328e6054a464a9,null,null,"<p style=""font-size: 60px; font-family: BACS"">ckdAmOYK</p>",,,,,,,,,,
html-keyboard-response,188,327277,0.0-12.0-0.18,61125e23136464bd2cbbefc9,650c16f0f2faf8d7a0d14c09,651c1dcd2f328e6054a464a9,null,null,"<p style=""font-size: 60px; font-family: BACS"">cROMtdTAh</p>",,,,,,,,,,
html-keyboard-response,189,328278,0.0-12.0-0.19,61125e23136464bd2cbbefc9,650c16f0f2faf8d7a0d14c09,651c1dcd2f328e6054a464a9,null,null,"<p style=""font-size: 60px; font-family: BACS"">UrOQrAJu</p>",,,,,,,,,,
html-keyboard-response,190,329279,0.0-12.0-0.20,61125e23136464bd2cbbefc9,650c16f0f2faf8d7a0d14c09,651c1dcd2f328e6054a464a9,null,null,"<p style=""font-size: 60px; font-family: BACS"">hlkTdTAh</p>",,,,,,,,,,
html-keyboard-response,191,330281,0.0-12.0-0.21,61125e23136464bd2cbbefc9,650c16f0f2faf8d7a0d14c09,651c1dcd2f328e6054a464a9,null,null,"<p style=""font-size: 60px; font-family: BACS"">AZaJckJdr</p>",,,,,,,,,,
html-keyboard-response,192,331282,0.0-12.0-0.22,61125e23136464bd2cbbefc9,650c16f0f2faf8d7a0d14c09,651c1dcd2f328e6054a464a9,null,null,"<p style=""font-size: 60px; font-family: BACS"">bvuZlvk</p>",,,,,,,,,,
html-keyboard-response,193,332289,0.0-12.0-0.23,61125e23136464bd2cbbefc9,650c16f0f2faf8d7a0d14c09,651c1dcd2f328e6054a464a9,null,null,"<p style=""font-size: 60px; font-family: BACS"">GAcYkJdr</p>",,,,,,,,,,
html-keyboard-response,194,333291,0.0-12.0-0.24,61125e23136464bd2cbbefc9,650c16f0f2faf8d7a0d14c09,651c1dcd2f328e6054a464a9,null,null,"<p style=""font-size: 60px; font-family: BACS"">TAdhMOYK</p>",,,,,,,,,,
html-keyboard-response,195,334292,0.0-12.0-0.25,61125e23136464bd2cbbefc9,650c16f0f2faf8d7a0d14c09,651c1dcd2f328e6054a464a9,null,null,"<p style=""font-size: 60px; font-family: BACS"">tRdMYht</p>",,,,,,,,,,
html-keyboard-response,196,336060,0.0-12.0-0.26,61125e23136464bd2cbbefc9,650c16f0f2faf8d7a0d14c09,651c1dcd2f328e6054a464a9,null,null,"<p style=""font-size: 60px; font-family: BACS"">PCPDhRdCc</p>",,,,,,,,,,
html-keyboard-response,197,337061,0.0-12.0-0.27,61125e23136464bd2cbbefc9,650c16f0f2faf8d7a0d14c09,651c1dcd2f328e6054a464a9,null,null,"<p style=""font-size: 60px; font-family: BACS"">TklDdTAh</p>",,,,,,,,,,
html-keyboard-response,198,338063,0.0-12.0-0.28,61125e23136464bd2cbbefc9,650c16f0f2faf8d7a0d14c09,651c1dcd2f328e6054a464a9,null,null,"<p style=""font-size: 60px; font-family: BACS"">tRdMOYK</p>",,,,,,,,,,
html-keyboard-response,199,339065,0.0-12.0-0.29,61125e23136464bd2cbbefc9,650c16f0f2faf8d7a0d14c09,651c1dcd2f328e6054a464a9,null,null,"<p style=""font-size: 60px; font-family: BACS"">ckdAmYht</p>",,,,,,,,,,
html-keyboard-response,200,340067,0.0-12.0-0.30,61125e23136464bd2cbbefc9,650c16f0f2faf8d7a0d14c09,651c1dcd2f328e6054a464a9,null,null,"<p style=""font-size: 60px; font-family: BACS"">mrOdrAJu</p>",,,,,,,,,,
html-keyboard-response,201,341075,0.0-12.0-0.31,61125e23136464bd2cbbefc9,650c16f0f2faf8d7a0d14c09,651c1dcd2f328e6054a464a9,null,null,"<p style=""font-size: 60px; font-family: BACS"">ukYZlGc</p>",,,,,,,,,,
html-keyboard-response,202,342077,0.0-12.0-0.32,61125e23136464bd2cbbefc9,650c16f0f2faf8d7a0d14c09,651c1dcd2f328e6054a464a9,null,null,"<p style=""font-size: 60px; font-family: BACS"">cROMtYht</p>",,,,,,,,,,
html-keyboard-response,203,343078,0.0-12.0-0.33,61125e23136464bd2cbbefc9,650c16f0f2faf8d7a0d14c09,651c1dcd2f328e6054a464a9,null,null,"<p style=""font-size: 60px; font-family: BACS"">NLQGmkJdr</p>",,,,,,,,,,
html-keyboard-response,204,344080,0.0-12.0-0.34,61125e23136464bd2cbbefc9,650c16f0f2faf8d7a0d14c09,651c1dcd2f328e6054a464a9,null,null,"<p style=""font-size: 60px; font-family: BACS"">khmhOYK</p>",,,,,,,,,,
html-keyboard-response,205,345082,0.0-12.0-0.35,61125e23136464bd2cbbefc9,650c16f0f2faf8d7a0d14c09,651c1dcd2f328e6054a464a9,null,null,"<p style=""font-size: 60px; font-family: BACS"">BATOcYht</p>",,,,,,,,,,
html-keyboard-response,206,346084,0.0-12.0-0.36,61125e23136464bd2cbbefc9,650c16f0f2faf8d7a0d14c09,651c1dcd2f328e6054a464a9,null,null,"<p style=""font-size: 60px; font-family: BACS"">TklDOYK</p>",,,,,,,,,,
html-keyboard-response,207,347086,0.0-12.0-0.37,61125e23136464bd2cbbefc9,650c16f0f2faf8d7a0d14c09,651c1dcd2f328e6054a464a9,null,null,"<p style=""font-size: 60px; font-family: BACS"">tRdMdTAh</p>",,,,,,,,,,
html-keyboard-response,208,348087,0.0-12.0-0.38,61125e23136464bd2cbbefc9,650c16f0f2faf8d7a0d14c09,651c1dcd2f328e6054a464a9,null,null,"<p style=""font-size: 60px; font-family: BACS"">UrOQkJdr</p>",,,,,,,,,,
html-keyboard-response,209,349088,0.0-12.0-0.39,61125e23136464bd2cbbefc9,650c16f0f2faf8d7a0d14c09,651c1dcd2f328e6054a464a9,null,null,"<p style=""font-size: 60px; font-family: BACS"">BATOcBCAd</p>",,,,,,,,,,
html-keyboard-response,210,350089,0.0-12.0-0.40,61125e23136464bd2cbbefc9,650c16f0f2faf8d7a0d14c09,651c1dcd2f328e6054a464a9,null,null,"<p style=""font-size: 60px; font-family: BACS"">kabJbAvdk</p>",,,,,,,,,,
html-keyboard-response,211,351091,0.0-12.0-0.41,61125e23136464bd2cbbefc9,650c16f0f2faf8d7a0d14c09,651c1dcd2f328e6054a464a9,null,null,"<p style=""font-size: 60px; font-family: BACS"">mrOdlvk</p>",,,,,,,,,,
html-keyboard-response,212,352092,0.0-12.0-0.42,61125e23136464bd2cbbefc9,650c16f0f2faf8d7a0d14c09,651c1dcd2f328e6054a464a9,null,null,"<p style=""font-size: 60px; font-family: BACS"">hlkTYht</p>",,,,,,,,,,
html-keyboard-response,213,353093,0.0-12.0-0.43,61125e23136464bd2cbbefc9,650c16f0f2faf8d7a0d14c09,651c1dcd2f328e6054a464a9,null,null,"<p style=""font-size: 60px; font-family: BACS"">mrOdlGc</p>",,,,,,,,,,
html-keyboard-response,214,354094,0.0-12.0-0.44,61125e23136464bd2cbbefc9,650c16f0f2faf8d7a0d14c09,651c1dcd2f328e6054a464a9,null,null,"<p style=""font-size: 60px; font-family: BACS"">PCPDhOYK</p>",,,,,,,,,,
html-keyboard-response,215,355097,0.0-12.0-0.45,61125e23136464bd2cbbefc9,650c16f0f2faf8d7a0d14c09,651c1dcd2f328e6054a464a9,null,null,"<p style=""font-size: 60px; font-family: BACS"">ukYZlvk</p>",,,,,,,,,,
html-keyboard-response,216,356098,0.0-12.0-0.46,61125e23136464bd2cbbefc9,650c16f0f2faf8d7a0d14c09,651c1dcd2f328e6054a464a9,null,null,"<p style=""font-size: 60px; font-family: BACS"">NLQGmAvdk</p>",,,,,,,,,,
html-keyboard-response,217,357101,0.0-12.0-0.47,61125e23136464bd2cbbefc9,650c16f0f2faf8d7a0d14c09,651c1dcd2f328e6054a464a9,null,null,"<p style=""font-size: 60px; font-family: BACS"">cROMtBCAd</p>",,,,,,,,,,
html-keyboard-response,218,358102,0.0-12.0-0.48,61125e23136464bd2cbbefc9,650c16f0f2faf8d7a0d14c09,651c1dcd2f328e6054a464a9,null,null,"<p style=""font-size: 60px; font-family: BACS"">TklDYht</p>",,,,,,,,,,
html-keyboard-response,219,359104,0.0-12.0-0.49,61125e23136464bd2cbbefc9,650c16f0f2faf8d7a0d14c09,651c1dcd2f328e6054a464a9,null,null,"<p style=""font-size: 60px; font-family: BACS"">TAdhMBCAd</p>",,,,,,,,,,
html-keyboard-response,220,360106,0.0-12.0-0.50,61125e23136464bd2cbbefc9,650c16f0f2faf8d7a0d14c09,651c1dcd2f328e6054a464a9,null,null,"<p style=""font-size: 60px; font-family: BACS"">kabJbkJdr</p>",,,,,,,,,,
html-keyboard-response,221,361108,0.0-12.0-0.51,61125e23136464bd2cbbefc9,650c16f0f2faf8d7a0d14c09,651c1dcd2f328e6054a464a9,null,null,"<p style=""font-size: 60px; font-family: BACS"">mrOdAvdk</p>",,,,,,,,,,
html-keyboard-response,222,362110,0.0-12.0-0.52,61125e23136464bd2cbbefc9,650c16f0f2faf8d7a0d14c09,651c1dcd2f328e6054a464a9,null,null,"<p style=""font-size: 60px; font-family: BACS"">PCPDhBCAd</p>",,,,,,,,,,
html-keyboard-response,223,363112,0.0-12.0-0.53,61125e23136464bd2cbbefc9,650c16f0f2faf8d7a0d14c09,651c1dcd2f328e6054a464a9,null,null,"<p style=""font-size: 60px; font-family: BACS"">rvUbrAJu</p>",,,,,,,,,,
html-keyboard-response,224,364114,0.0-12.0-0.54,61125e23136464bd2cbbefc9,650c16f0f2faf8d7a0d14c09,651c1dcd2f328e6054a464a9,null,null,"<p style=""font-size: 60px; font-family: BACS"">QOLmuAvdk</p>",,,,,,,,,,
html-keyboard-response,225,365115,0.0-12.0-0.55,61125e23136464bd2cbbefc9,650c16f0f2faf8d7a0d14c09,651c1dcd2f328e6054a464a9,null,null,"<p style=""font-size: 60px; font-family: BACS"">hlbtbBCAd</p>",,,,,,,,,,
html-keyboard-response,226,366116,0.0-12.0-0.56,61125e23136464bd2cbbefc9,650c16f0f2faf8d7a0d14c09,651c1dcd2f328e6054a464a9,null,null,"<p style=""font-size: 60px; font-family: BACS"">UrOQlGc</p>",,,,,,,,,,
html-keyboard-response,227,367118,0.0-12.0-0.57,61125e23136464bd2cbbefc9,650c16f0f2faf8d7a0d14c09,651c1dcd2f328e6054a464a9,null,null,"<p style=""font-size: 60px; font-family: BACS"">tRdMRdCc</p>",,,,,,,,,,
html-keyboard-response,228,368119,0.0-12.0-0.58,61125e23136464bd2cbbefc9,650c16f0f2faf8d7a0d14c09,651c1dcd2f328e6054a464a9,null,null,"<p style=""font-size: 60px; font-family: BACS"">hlkTBCAd</p>",,,,,,,,,,
html-keyboard-response,229,369119,0.0-12.0-0.59,61125e23136464bd2cbbefc9,650c16f0f2faf8d7a0d14c09,651c1dcd2f328e6054a464a9,null,null,"<p style=""font-size: 60px; font-family: BACS"">ckdAmdTAh</p>",,,,,,,,,,
html-keyboard-response,230,370121,0.0-12.0-0.60,61125e23136464bd2cbbefc9,650c16f0f2faf8d7a0d14c09,651c1dcd2f328e6054a464a9,null,null,"<p style=""font-size: 60px; font-family: BACS"">GAcYlvk</p>",,,,,,,,,,
html-keyboard-response,231,371122,0.0-12.0-0.61,61125e23136464bd2cbbefc9,650c16f0f2faf8d7a0d14c09,651c1dcd2f328e6054a464a9,null,null,"<p style=""font-size: 60px; font-family: BACS"">BATOcRdCc</p>",,,,,,,,,,
html-keyboard-response,232,372124,0.0-12.0-0.62,61125e23136464bd2cbbefc9,650c16f0f2faf8d7a0d14c09,651c1dcd2f328e6054a464a9,null,null,"<p style=""font-size: 60px; font-family: BACS"">khmhdTAh</p>",,,,,,,,,,
html-keyboard-response,233,373125,0.0-12.0-0.63,61125e23136464bd2cbbefc9,650c16f0f2faf8d7a0d14c09,651c1dcd2f328e6054a464a9,null,null,"<p style=""font-size: 60px; font-family: BACS"">NLQGmlvk</p>",,,,,,,,,,
html-keyboard-response,234,374127,0.0-12.0-0.64,61125e23136464bd2cbbefc9,650c16f0f2faf8d7a0d14c09,651c1dcd2f328e6054a464a9,null,null,"<p style=""font-size: 60px; font-family: BACS"">hlbtbRdCc</p>",,,,,,,,,,
html-keyboard-response,235,375129,0.0-12.0-0.65,61125e23136464bd2cbbefc9,650c16f0f2faf8d7a0d14c09,651c1dcd2f328e6054a464a9,null,null,"<p style=""font-size: 60px; font-family: BACS"">QOLmulvk</p>",,,,,,,,,,
html-keyboard-response,236,376130,0.0-12.0-0.66,61125e23136464bd2cbbefc9,650c16f0f2faf8d7a0d14c09,651c1dcd2f328e6054a464a9,null,null,"<p style=""font-size: 60px; font-family: BACS"">hlbtbdTAh</p>",,,,,,,,,,
html-keyboard-response,237,377131,0.0-12.0-0.67,61125e23136464bd2cbbefc9,650c16f0f2faf8d7a0d14c09,651c1dcd2f328e6054a464a9,null,null,"<p style=""font-size: 60px; font-family: BACS"">khmhBCAd</p>",,,,,,,,,,
html-keyboard-response,238,378132,0.0-12.0-0.68,61125e23136464bd2cbbefc9,650c16f0f2faf8d7a0d14c09,651c1dcd2f328e6054a464a9,null,null,"<p style=""font-size: 60px; font-family: BACS"">rvUblvk</p>",,,,,,,,,,
html-keyboard-response,239,379133,0.0-12.0-0.69,61125e23136464bd2cbbefc9,650c16f0f2faf8d7a0d14c09,651c1dcd2f328e6054a464a9,null,null,"<p style=""font-size: 60px; font-family: BACS"">BATOcdTAh</p>",,,,,,,,,,
html-keyboard-response,240,380135,0.0-12.0-0.70,61125e23136464bd2cbbefc9,650c16f0f2faf8d7a0d14c09,651c1dcd2f328e6054a464a9,null,null,"<p style=""font-size: 60px; font-family: BACS"">TAdhMRdCc</p>",,,,,,,,,,
html-keyboard-response,241,381136,0.0-12.0-0.71,61125e23136464bd2cbbefc9,650c16f0f2faf8d7a0d14c09,651c1dcd2f328e6054a464a9,null,null,"<p style=""font-size: 60px; font-family: BACS"">ukYZkJdr</p>",,,,,,,,,,
html-keyboard-response,242,382137,0.0-12.0-0.72,61125e23136464bd2cbbefc9,650c16f0f2faf8d7a0d14c09,651c1dcd2f328e6054a464a9,null,null,"<p style=""font-size: 60px; font-family: BACS"">QOLmulGc</p>",,,,,,,,,,
html-keyboard-response,243,383139,0.0-12.0-0.73,61125e23136464bd2cbbefc9,650c16f0f2faf8d7a0d14c09,651c1dcd2f328e6054a464a9,null,null,"<p style=""font-size: 60px; font-family: BACS"">bvuZrAJu</p>",,,,,,,,,,
html-keyboard-response,244,384140,0.0-12.0-0.74,61125e23136464bd2cbbefc9,650c16f0f2faf8d7a0d14c09,651c1dcd2f328e6054a464a9,null,null,"<p style=""font-size: 60px; font-family: BACS"">ckdAmRdCc</p>",,,,,,,,,,
html-keyboard-response,245,385141,0.0-12.0-0.75,61125e23136464bd2cbbefc9,650c16f0f2faf8d7a0d14c09,651c1dcd2f328e6054a464a9,null,null,"<p style=""font-size: 60px; font-family: BACS"">GAcYlGc</p>",,,,,,,,,,
html-keyboard-response,246,386142,0.0-12.0-0.76,61125e23136464bd2cbbefc9,650c16f0f2faf8d7a0d14c09,651c1dcd2f328e6054a464a9,null,null,"<p style=""font-size: 60px; font-family: BACS"">rvUbkJdr</p>",,,,,,,,,,
html-keyboard-response,247,387144,0.0-12.0-0.77,61125e23136464bd2cbbefc9,650c16f0f2faf8d7a0d14c09,651c1dcd2f328e6054a464a9,null,null,"<p style=""font-size: 60px; font-family: BACS"">hlbtbOYK</p>",,,,,,,,,,
html-keyboard-response,248,389060,0.0-12.0-0.78,61125e23136464bd2cbbefc9,650c16f0f2faf8d7a0d14c09,651c1dcd2f328e6054a464a9,null,null,"<p style=""font-size: 60px; font-family: BACS"">AZaJclvk</p>",,,,,,,,,,
html-keyboard-response,249,390062,0.0-12.0-0.79,61125e23136464bd2cbbefc9,650c16f0f2faf8d7a0d14c09,651c1dcd2f328e6054a464a9,null,null,"<p style=""font-size: 60px; font-family: BACS"">kabJbrAJu</p>",,,,,,,,,,
html-keyboard-response,250,394220,0.0-13.0,61125e23136464bd2cbbefc9,650c16f0f2faf8d7a0d14c09,651c1dcd2f328e6054a464a9,4157, ,"<p>Great, you've seen the third block of words. You may now take a short break.</p>
      <p>Press the spacebar when you're ready to continue.</p>",,,,,,,,,,
html-keyboard-response,251,395221,0.0-14.0-0.0,61125e23136464bd2cbbefc9,650c16f0f2faf8d7a0d14c09,651c1dcd2f328e6054a464a9,null,null,"<p style=""font-size: 60px; font-family: BACS"">kabJbkJdr</p>",,,,,,,,,,
html-keyboard-response,252,396222,0.0-14.0-0.1,61125e23136464bd2cbbefc9,650c16f0f2faf8d7a0d14c09,651c1dcd2f328e6054a464a9,null,null,"<p style=""font-size: 60px; font-family: BACS"">rvUbrAJu</p>",,,,,,,,,,
html-keyboard-response,253,397224,0.0-14.0-0.2,61125e23136464bd2cbbefc9,650c16f0f2faf8d7a0d14c09,651c1dcd2f328e6054a464a9,null,null,"<p style=""font-size: 60px; font-family: BACS"">mrOdlvk</p>",,,,,,,,,,
html-keyboard-response,254,398226,0.0-14.0-0.3,61125e23136464bd2cbbefc9,650c16f0f2faf8d7a0d14c09,651c1dcd2f328e6054a464a9,null,null,"<p style=""font-size: 60px; font-family: BACS"">GAcYAvdk</p>",,,,,,,,,,
html-keyboard-response,255,399228,0.0-14.0-0.4,61125e23136464bd2cbbefc9,650c16f0f2faf8d7a0d14c09,651c1dcd2f328e6054a464a9,null,null,"<p style=""font-size: 60px; font-family: BACS"">hlkTOYK</p>",,,,,,,,,,
html-keyboard-response,256,400230,0.0-14.0-0.5,61125e23136464bd2cbbefc9,650c16f0f2faf8d7a0d14c09,651c1dcd2f328e6054a464a9,null,null,"<p style=""font-size: 60px; font-family: BACS"">tRdMYht</p>",,,,,,,,,,
html-keyboard-response,257,401233,0.0-14.0-0.6,61125e23136464bd2cbbefc9,650c16f0f2faf8d7a0d14c09,651c1dcd2f328e6054a464a9,null,null,"<p style=""font-size: 60px; font-family: BACS"">BATOcdTAh</p>",,,,,,,,,,
html-keyboard-response,258,402234,0.0-14.0-0.7,61125e23136464bd2cbbefc9,650c16f0f2faf8d7a0d14c09,651c1dcd2f328e6054a464a9,null,null,"<p style=""font-size: 60px; font-family: BACS"">TAdhMYht</p>",,,,,,,,,,
html-keyboard-response,259,403236,0.0-14.0-0.8,61125e23136464bd2cbbefc9,650c16f0f2faf8d7a0d14c09,651c1dcd2f328e6054a464a9,null,null,"<p style=""font-size: 60px; font-family: BACS"">rvUbkJdr</p>",,,,,,,,,,
html-keyboard-response,260,404237,0.0-14.0-0.9,61125e23136464bd2cbbefc9,650c16f0f2faf8d7a0d14c09,651c1dcd2f328e6054a464a9,null,null,"<p style=""font-size: 60px; font-family: BACS"">tRdMRdCc</p>",,,,,,,,,,
html-keyboard-response,261,405239,0.0-14.0-0.10,61125e23136464bd2cbbefc9,650c16f0f2faf8d7a0d14c09,651c1dcd2f328e6054a464a9,null,null,"<p style=""font-size: 60px; font-family: BACS"">TAdhMOYK</p>",,,,,,,,,,
html-keyboard-response,262,406241,0.0-14.0-0.11,61125e23136464bd2cbbefc9,650c16f0f2faf8d7a0d14c09,651c1dcd2f328e6054a464a9,null,null,"<p style=""font-size: 60px; font-family: BACS"">bvuZAvdk</p>",,,,,,,,,,
html-keyboard-response,263,407242,0.0-14.0-0.12,61125e23136464bd2cbbefc9,650c16f0f2faf8d7a0d14c09,651c1dcd2f328e6054a464a9,null,null,"<p style=""font-size: 60px; font-family: BACS"">TklDBCAd</p>",,,,,,,,,,
html-keyboard-response,264,408244,0.0-14.0-0.13,61125e23136464bd2cbbefc9,650c16f0f2faf8d7a0d14c09,651c1dcd2f328e6054a464a9,null,null,"<p style=""font-size: 60px; font-family: BACS"">rvUblvk</p>",,,,,,,,,,
html-keyboard-response,265,409246,0.0-14.0-0.14,61125e23136464bd2cbbefc9,650c16f0f2faf8d7a0d14c09,651c1dcd2f328e6054a464a9,null,null,"<p style=""font-size: 60px; font-family: BACS"">PCPDhBCAd</p>",,,,,,,,,,
html-keyboard-response,266,410247,0.0-14.0-0.15,61125e23136464bd2cbbefc9,650c16f0f2faf8d7a0d14c09,651c1dcd2f328e6054a464a9,null,null,"<p style=""font-size: 60px; font-family: BACS"">mrOdlGc</p>",,,,,,,,,,
html-keyboard-response,267,411249,0.0-14.0-0.16,61125e23136464bd2cbbefc9,650c16f0f2faf8d7a0d14c09,651c1dcd2f328e6054a464a9,null,null,"<p style=""font-size: 60px; font-family: BACS"">TklDOYK</p>",,,,,,,,,,
html-keyboard-response,268,412251,0.0-14.0-0.17,61125e23136464bd2cbbefc9,650c16f0f2faf8d7a0d14c09,651c1dcd2f328e6054a464a9,null,null,"<p style=""font-size: 60px; font-family: BACS"">AZaJclGc</p>",,,,,,,,,,
html-keyboard-response,269,413253,0.0-14.0-0.18,61125e23136464bd2cbbefc9,650c16f0f2faf8d7a0d14c09,651c1dcd2f328e6054a464a9,null,null,"<p style=""font-size: 60px; font-family: BACS"">NLQGmlvk</p>",,,,,,,,,,
html-keyboard-response,270,414254,0.0-14.0-0.19,61125e23136464bd2cbbefc9,650c16f0f2faf8d7a0d14c09,651c1dcd2f328e6054a464a9,null,null,"<p style=""font-size: 60px; font-family: BACS"">hlbtbRdCc</p>",,,,,,,,,,
html-keyboard-response,271,415258,0.0-14.0-0.20,61125e23136464bd2cbbefc9,650c16f0f2faf8d7a0d14c09,651c1dcd2f328e6054a464a9,null,null,"<p style=""font-size: 60px; font-family: BACS"">khmhBCAd</p>",,,,,,,,,,
html-keyboard-response,272,417061,0.0-14.0-0.21,61125e23136464bd2cbbefc9,650c16f0f2faf8d7a0d14c09,651c1dcd2f328e6054a464a9,null,null,"<p style=""font-size: 60px; font-family: BACS"">hlkTdTAh</p>",,,,,,,,,,
html-keyboard-response,273,418063,0.0-14.0-0.22,61125e23136464bd2cbbefc9,650c16f0f2faf8d7a0d14c09,651c1dcd2f328e6054a464a9,null,null,"<p style=""font-size: 60px; font-family: BACS"">AZaJclvk</p>",,,,,,,,,,
html-keyboard-response,274,420059,0.0-14.0-0.23,61125e23136464bd2cbbefc9,650c16f0f2faf8d7a0d14c09,651c1dcd2f328e6054a464a9,null,null,"<p style=""font-size: 60px; font-family: BACS"">GAcYlGc</p>",,,,,,,,,,
html-keyboard-response,275,421061,0.0-14.0-0.24,61125e23136464bd2cbbefc9,650c16f0f2faf8d7a0d14c09,651c1dcd2f328e6054a464a9,null,null,"<p style=""font-size: 60px; font-family: BACS"">ukYZkJdr</p>",,,,,,,,,,
html-keyboard-response,276,422063,0.0-14.0-0.25,61125e23136464bd2cbbefc9,650c16f0f2faf8d7a0d14c09,651c1dcd2f328e6054a464a9,null,null,"<p style=""font-size: 60px; font-family: BACS"">kabJblGc</p>",,,,,,,,,,
html-keyboard-response,277,423064,0.0-14.0-0.26,61125e23136464bd2cbbefc9,650c16f0f2faf8d7a0d14c09,651c1dcd2f328e6054a464a9,null,null,"<p style=""font-size: 60px; font-family: BACS"">GAcYkJdr</p>",,,,,,,,,,
html-keyboard-response,278,424067,0.0-14.0-0.27,61125e23136464bd2cbbefc9,650c16f0f2faf8d7a0d14c09,651c1dcd2f328e6054a464a9,null,null,"<p style=""font-size: 60px; font-family: BACS"">TklDYht</p>",,,,,,,,,,
html-keyboard-response,279,425069,0.0-14.0-0.28,61125e23136464bd2cbbefc9,650c16f0f2faf8d7a0d14c09,651c1dcd2f328e6054a464a9,null,null,"<p style=""font-size: 60px; font-family: BACS"">hlbtbOYK</p>",,,,,,,,,,
html-keyboard-response,280,426071,0.0-14.0-0.29,61125e23136464bd2cbbefc9,650c16f0f2faf8d7a0d14c09,651c1dcd2f328e6054a464a9,null,null,"<p style=""font-size: 60px; font-family: BACS"">ukYZlvk</p>",,,,,,,,,,
html-keyboard-response,281,427072,0.0-14.0-0.30,61125e23136464bd2cbbefc9,650c16f0f2faf8d7a0d14c09,651c1dcd2f328e6054a464a9,null,null,"<p style=""font-size: 60px; font-family: BACS"">NLQGmkJdr</p>",,,,,,,,,,
html-keyboard-response,282,428073,0.0-14.0-0.31,61125e23136464bd2cbbefc9,650c16f0f2faf8d7a0d14c09,651c1dcd2f328e6054a464a9,null,null,"<p style=""font-size: 60px; font-family: BACS"">QOLmulGc</p>",,,,,,,,,,
html-keyboard-response,283,429075,0.0-14.0-0.32,61125e23136464bd2cbbefc9,650c16f0f2faf8d7a0d14c09,651c1dcd2f328e6054a464a9,null,null,"<p style=""font-size: 60px; font-family: BACS"">TAdhMRdCc</p>",,,,,,,,,,
html-keyboard-response,284,430076,0.0-14.0-0.33,61125e23136464bd2cbbefc9,650c16f0f2faf8d7a0d14c09,651c1dcd2f328e6054a464a9,null,null,"<p style=""font-size: 60px; font-family: BACS"">GAcYlvk</p>",,,,,,,,,,
html-keyboard-response,285,431078,0.0-14.0-0.34,61125e23136464bd2cbbefc9,650c16f0f2faf8d7a0d14c09,651c1dcd2f328e6054a464a9,null,null,"<p style=""font-size: 60px; font-family: BACS"">UrOQkJdr</p>",,,,,,,,,,
html-keyboard-response,286,432079,0.0-14.0-0.35,61125e23136464bd2cbbefc9,650c16f0f2faf8d7a0d14c09,651c1dcd2f328e6054a464a9,null,null,"<p style=""font-size: 60px; font-family: BACS"">cROMtYht</p>",,,,,,,,,,
html-keyboard-response,287,433080,0.0-14.0-0.36,61125e23136464bd2cbbefc9,650c16f0f2faf8d7a0d14c09,651c1dcd2f328e6054a464a9,null,null,"<p style=""font-size: 60px; font-family: BACS"">hlkTBCAd</p>",,,,,,,,,,
html-keyboard-response,288,434081,0.0-14.0-0.37,61125e23136464bd2cbbefc9,650c16f0f2faf8d7a0d14c09,651c1dcd2f328e6054a464a9,null,null,"<p style=""font-size: 60px; font-family: BACS"">BATOcRdCc</p>",,,,,,,,,,
html-keyboard-response,289,435083,0.0-14.0-0.38,61125e23136464bd2cbbefc9,650c16f0f2faf8d7a0d14c09,651c1dcd2f328e6054a464a9,null,null,"<p style=""font-size: 60px; font-family: BACS"">NLQGmAvdk</p>",,,,,,,,,,
html-keyboard-response,290,436085,0.0-14.0-0.39,61125e23136464bd2cbbefc9,650c16f0f2faf8d7a0d14c09,651c1dcd2f328e6054a464a9,null,null,"<p style=""font-size: 60px; font-family: BACS"">UrOQlGc</p>",,,,,,,,,,
html-keyboard-response,291,437087,0.0-14.0-0.40,61125e23136464bd2cbbefc9,650c16f0f2faf8d7a0d14c09,651c1dcd2f328e6054a464a9,null,null,"<p style=""font-size: 60px; font-family: BACS"">khmhOYK</p>",,,,,,,,,,
html-keyboard-response,292,438090,0.0-14.0-0.41,61125e23136464bd2cbbefc9,650c16f0f2faf8d7a0d14c09,651c1dcd2f328e6054a464a9,null,null,"<p style=""font-size: 60px; font-family: BACS"">ckdAmYht</p>",,,,,,,,,,
html-keyboard-response,293,439092,0.0-14.0-0.42,61125e23136464bd2cbbefc9,650c16f0f2faf8d7a0d14c09,651c1dcd2f328e6054a464a9,null,null,"<p style=""font-size: 60px; font-family: BACS"">UrOQAvdk</p>",,,,,,,,,,
html-keyboard-response,294,441060,0.0-14.0-0.43,61125e23136464bd2cbbefc9,650c16f0f2faf8d7a0d14c09,651c1dcd2f328e6054a464a9,null,null,"<p style=""font-size: 60px; font-family: BACS"">bvuZlvk</p>",,,,,,,,,,
html-keyboard-response,295,442061,0.0-14.0-0.44,61125e23136464bd2cbbefc9,650c16f0f2faf8d7a0d14c09,651c1dcd2f328e6054a464a9,null,null,"<p style=""font-size: 60px; font-family: BACS"">tRdMdTAh</p>",,,,,,,,,,
html-keyboard-response,296,443062,0.0-14.0-0.45,61125e23136464bd2cbbefc9,650c16f0f2faf8d7a0d14c09,651c1dcd2f328e6054a464a9,null,null,"<p style=""font-size: 60px; font-family: BACS"">mrOdrAJu</p>",,,,,,,,,,
html-keyboard-response,297,444063,0.0-14.0-0.46,61125e23136464bd2cbbefc9,650c16f0f2faf8d7a0d14c09,651c1dcd2f328e6054a464a9,null,null,"<p style=""font-size: 60px; font-family: BACS"">rvUblGc</p>",,,,,,,,,,
html-keyboard-response,298,445070,0.0-14.0-0.47,61125e23136464bd2cbbefc9,650c16f0f2faf8d7a0d14c09,651c1dcd2f328e6054a464a9,null,null,"<p style=""font-size: 60px; font-family: BACS"">BATOcYht</p>",,,,,,,,,,
html-keyboard-response,299,447060,0.0-14.0-0.48,61125e23136464bd2cbbefc9,650c16f0f2faf8d7a0d14c09,651c1dcd2f328e6054a464a9,null,null,"<p style=""font-size: 60px; font-family: BACS"">ukYZlGc</p>",,,,,,,,,,
html-keyboard-response,300,448073,0.0-14.0-0.49,61125e23136464bd2cbbefc9,650c16f0f2faf8d7a0d14c09,651c1dcd2f328e6054a464a9,null,null,"<p style=""font-size: 60px; font-family: BACS"">QOLmuAvdk</p>",,,,,,,,,,
html-keyboard-response,301,449074,0.0-14.0-0.50,61125e23136464bd2cbbefc9,650c16f0f2faf8d7a0d14c09,651c1dcd2f328e6054a464a9,null,null,"<p style=""font-size: 60px; font-family: BACS"">ckdAmOYK</p>",,,,,,,,,,
html-keyboard-response,302,451062,0.0-14.0-0.51,61125e23136464bd2cbbefc9,650c16f0f2faf8d7a0d14c09,651c1dcd2f328e6054a464a9,null,null,"<p style=""font-size: 60px; font-family: BACS"">hlkTYht</p>",,,,,,,,,,
html-keyboard-response,303,453060,0.0-14.0-0.52,61125e23136464bd2cbbefc9,650c16f0f2faf8d7a0d14c09,651c1dcd2f328e6054a464a9,null,null,"<p style=""font-size: 60px; font-family: BACS"">QOLmulvk</p>",,,,,,,,,,
html-keyboard-response,304,454060,0.0-14.0-0.53,61125e23136464bd2cbbefc9,650c16f0f2faf8d7a0d14c09,651c1dcd2f328e6054a464a9,null,null,"<p style=""font-size: 60px; font-family: BACS"">NLQGmrAJu</p>",,,,,,,,,,
html-keyboard-response,305,455061,0.0-14.0-0.54,61125e23136464bd2cbbefc9,650c16f0f2faf8d7a0d14c09,651c1dcd2f328e6054a464a9,null,null,"<p style=""font-size: 60px; font-family: BACS"">AZaJckJdr</p>",,,,,,,,,,
html-keyboard-response,306,457059,0.0-14.0-0.55,61125e23136464bd2cbbefc9,650c16f0f2faf8d7a0d14c09,651c1dcd2f328e6054a464a9,null,null,"<p style=""font-size: 60px; font-family: BACS"">bvuZrAJu</p>",,,,,,,,,,
html-keyboard-response,307,458060,0.0-14.0-0.56,61125e23136464bd2cbbefc9,650c16f0f2faf8d7a0d14c09,651c1dcd2f328e6054a464a9,null,null,"<p style=""font-size: 60px; font-family: BACS"">PCPDhYht</p>",,,,,,,,,,
html-keyboard-response,308,460060,0.0-14.0-0.57,61125e23136464bd2cbbefc9,650c16f0f2faf8d7a0d14c09,651c1dcd2f328e6054a464a9,null,null,"<p style=""font-size: 60px; font-family: BACS"">TAdhMBCAd</p>",,,,,,,,,,
html-keyboard-response,309,461062,0.0-14.0-0.58,61125e23136464bd2cbbefc9,650c16f0f2faf8d7a0d14c09,651c1dcd2f328e6054a464a9,null,null,"<p style=""font-size: 60px; font-family: BACS"">ckdAmRdCc</p>",,,,,,,,,,
html-keyboard-response,310,462064,0.0-14.0-0.59,61125e23136464bd2cbbefc9,650c16f0f2faf8d7a0d14c09,651c1dcd2f328e6054a464a9,null,null,"<p style=""font-size: 60px; font-family: BACS"">QOLmurAJu</p>",,,,,,,,,,
html-keyboard-response,311,463067,0.0-14.0-0.60,61125e23136464bd2cbbefc9,650c16f0f2faf8d7a0d14c09,651c1dcd2f328e6054a464a9,null,null,"<p style=""font-size: 60px; font-family: BACS"">khmhdTAh</p>",,,,,,,,,,
html-keyboard-response,312,464069,0.0-14.0-0.61,61125e23136464bd2cbbefc9,650c16f0f2faf8d7a0d14c09,651c1dcd2f328e6054a464a9,null,null,"<p style=""font-size: 60px; font-family: BACS"">BATOcBCAd</p>",,,,,,,,,,
html-keyboard-response,313,465071,0.0-14.0-0.62,61125e23136464bd2cbbefc9,650c16f0f2faf8d7a0d14c09,651c1dcd2f328e6054a464a9,null,null,"<p style=""font-size: 60px; font-family: BACS"">AZaJcrAJu</p>",,,,,,,,,,
html-keyboard-response,314,466072,0.0-14.0-0.63,61125e23136464bd2cbbefc9,650c16f0f2faf8d7a0d14c09,651c1dcd2f328e6054a464a9,null,null,"<p style=""font-size: 60px; font-family: BACS"">mrOdAvdk</p>",,,,,,,,,,
html-keyboard-response,315,467074,0.0-14.0-0.64,61125e23136464bd2cbbefc9,650c16f0f2faf8d7a0d14c09,651c1dcd2f328e6054a464a9,null,null,"<p style=""font-size: 60px; font-family: BACS"">cROMtRdCc</p>",,,,,,,,,,
html-keyboard-response,316,468075,0.0-14.0-0.65,61125e23136464bd2cbbefc9,650c16f0f2faf8d7a0d14c09,651c1dcd2f328e6054a464a9,null,null,"<p style=""font-size: 60px; font-family: BACS"">PCPDhOYK</p>",,,,,,,,,,
html-keyboard-response,317,469077,0.0-14.0-0.66,61125e23136464bd2cbbefc9,650c16f0f2faf8d7a0d14c09,651c1dcd2f328e6054a464a9,null,null,"<p style=""font-size: 60px; font-family: BACS"">kabJbAvdk</p>",,,,,,,,,,
html-keyboard-response,318,470078,0.0-14.0-0.67,61125e23136464bd2cbbefc9,650c16f0f2faf8d7a0d14c09,651c1dcd2f328e6054a464a9,null,null,"<p style=""font-size: 60px; font-family: BACS"">cROMtBCAd</p>",,,,,,,,,,
html-keyboard-response,319,471080,0.0-14.0-0.68,61125e23136464bd2cbbefc9,650c16f0f2faf8d7a0d14c09,651c1dcd2f328e6054a464a9,null,null,"<p style=""font-size: 60px; font-family: BACS"">kabJbrAJu</p>",,,,,,,,,,
html-keyboard-response,320,472082,0.0-14.0-0.69,61125e23136464bd2cbbefc9,650c16f0f2faf8d7a0d14c09,651c1dcd2f328e6054a464a9,null,null,"<p style=""font-size: 60px; font-family: BACS"">tRdMOYK</p>",,,,,,,,,,
html-keyboard-response,321,473084,0.0-14.0-0.70,61125e23136464bd2cbbefc9,650c16f0f2faf8d7a0d14c09,651c1dcd2f328e6054a464a9,null,null,"<p style=""font-size: 60px; font-family: BACS"">bvuZkJdr</p>",,,,,,,,,,
html-keyboard-response,322,474085,0.0-14.0-0.71,61125e23136464bd2cbbefc9,650c16f0f2faf8d7a0d14c09,651c1dcd2f328e6054a464a9,null,null,"<p style=""font-size: 60px; font-family: BACS"">TklDdTAh</p>",,,,,,,,,,
html-keyboard-response,323,475088,0.0-14.0-0.72,61125e23136464bd2cbbefc9,650c16f0f2faf8d7a0d14c09,651c1dcd2f328e6054a464a9,null,null,"<p style=""font-size: 60px; font-family: BACS"">hlbtbBCAd</p>",,,,,,,,,,
html-keyboard-response,324,476090,0.0-14.0-0.73,61125e23136464bd2cbbefc9,650c16f0f2faf8d7a0d14c09,651c1dcd2f328e6054a464a9,null,null,"<p style=""font-size: 60px; font-family: BACS"">PCPDhRdCc</p>",,,,,,,,,,
html-keyboard-response,325,477091,0.0-14.0-0.74,61125e23136464bd2cbbefc9,650c16f0f2faf8d7a0d14c09,651c1dcd2f328e6054a464a9,null,null,"<p style=""font-size: 60px; font-family: BACS"">hlbtbdTAh</p>",,,,,,,,,,
html-keyboard-response,326,478094,0.0-14.0-0.75,61125e23136464bd2cbbefc9,650c16f0f2faf8d7a0d14c09,651c1dcd2f328e6054a464a9,null,null,"<p style=""font-size: 60px; font-family: BACS"">ukYZAvdk</p>",,,,,,,,,,
html-keyboard-response,327,479096,0.0-14.0-0.76,61125e23136464bd2cbbefc9,650c16f0f2faf8d7a0d14c09,651c1dcd2f328e6054a464a9,null,null,"<p style=""font-size: 60px; font-family: BACS"">cROMtdTAh</p>",,,,,,,,,,
html-keyboard-response,328,480099,0.0-14.0-0.77,61125e23136464bd2cbbefc9,650c16f0f2faf8d7a0d14c09,651c1dcd2f328e6054a464a9,null,null,"<p style=""font-size: 60px; font-family: BACS"">UrOQrAJu</p>",,,,,,,,,,
html-keyboard-response,329,481101,0.0-14.0-0.78,61125e23136464bd2cbbefc9,650c16f0f2faf8d7a0d14c09,651c1dcd2f328e6054a464a9,null,null,"<p style=""font-size: 60px; font-family: BACS"">ckdAmdTAh</p>",,,,,,,,,,
html-keyboard-response,330,482103,0.0-14.0-0.79,61125e23136464bd2cbbefc9,650c16f0f2faf8d7a0d14c09,651c1dcd2f328e6054a464a9,null,null,"<p style=""font-size: 60px; font-family: BACS"">khmhRdCc</p>",,,,,,,,,,
html-keyboard-response,331,487523,0.0-15.0,61125e23136464bd2cbbefc9,650c16f0f2faf8d7a0d14c09,651c1dcd2f328e6054a464a9,5420, ,"<p>Great, you've seen the fourth block of words. You may now take a short break.</p>
      <p>Press the spacebar when you're ready to continue.</p>",,,,,,,,,,
html-keyboard-response,332,488525,0.0-16.0-0.0,61125e23136464bd2cbbefc9,650c16f0f2faf8d7a0d14c09,651c1dcd2f328e6054a464a9,null,null,"<p style=""font-size: 60px; font-family: BACS"">BATOcRdCc</p>",,,,,,,,,,
html-keyboard-response,333,489527,0.0-16.0-0.1,61125e23136464bd2cbbefc9,650c16f0f2faf8d7a0d14c09,651c1dcd2f328e6054a464a9,null,null,"<p style=""font-size: 60px; font-family: BACS"">BATOcRdCc</p>",,,,,,,,,,
html-keyboard-response,334,490528,0.0-16.0-0.2,61125e23136464bd2cbbefc9,650c16f0f2faf8d7a0d14c09,651c1dcd2f328e6054a464a9,null,null,"<p style=""font-size: 60px; font-family: BACS"">BATOcRdCc</p>",,,,,,,,,,
html-keyboard-response,335,491529,0.0-16.0-0.3,61125e23136464bd2cbbefc9,650c16f0f2faf8d7a0d14c09,651c1dcd2f328e6054a464a9,null,null,"<p style=""font-size: 60px; font-family: BACS"">BATOcRdCc</p>",,,,,,,,,,
html-keyboard-response,336,492531,0.0-16.0-0.4,61125e23136464bd2cbbefc9,650c16f0f2faf8d7a0d14c09,651c1dcd2f328e6054a464a9,null,null,"<p style=""font-size: 60px; font-family: BACS"">BATOcRdCc</p>",,,,,,,,,,
html-keyboard-response,337,493533,0.0-16.0-0.5,61125e23136464bd2cbbefc9,650c16f0f2faf8d7a0d14c09,651c1dcd2f328e6054a464a9,null,null,"<p style=""font-size: 60px; font-family: BACS"">BATOcRdCc</p>",,,,,,,,,,
html-keyboard-response,338,494534,0.0-16.0-0.6,61125e23136464bd2cbbefc9,650c16f0f2faf8d7a0d14c09,651c1dcd2f328e6054a464a9,null,null,"<p style=""font-size: 60px; font-family: BACS"">BATOcRdCc</p>",,,,,,,,,,
html-keyboard-response,339,495536,0.0-16.0-0.7,61125e23136464bd2cbbefc9,650c16f0f2faf8d7a0d14c09,651c1dcd2f328e6054a464a9,null,null,"<p style=""font-size: 60px; font-family: BACS"">BATOcRdCc</p>",,,,,,,,,,
html-keyboard-response,340,496537,0.0-16.0-0.8,61125e23136464bd2cbbefc9,650c16f0f2faf8d7a0d14c09,651c1dcd2f328e6054a464a9,null,null,"<p style=""font-size: 60px; font-family: BACS"">BATOcRdCc</p>",,,,,,,,,,
html-keyboard-response,341,497539,0.0-16.0-0.9,61125e23136464bd2cbbefc9,650c16f0f2faf8d7a0d14c09,651c1dcd2f328e6054a464a9,null,null,"<p style=""font-size: 60px; font-family: BACS"">BATOcRdCc</p>",,,,,,,,,,
html-keyboard-response,342,498541,0.0-16.0-0.10,61125e23136464bd2cbbefc9,650c16f0f2faf8d7a0d14c09,651c1dcd2f328e6054a464a9,null,null,"<p style=""font-size: 60px; font-family: BACS"">BATOcRdCc</p>",,,,,,,,,,
html-keyboard-response,343,499542,0.0-16.0-0.11,61125e23136464bd2cbbefc9,650c16f0f2faf8d7a0d14c09,651c1dcd2f328e6054a464a9,null,null,"<p style=""font-size: 60px; font-family: BACS"">BATOcRdCc</p>",,,,,,,,,,
html-keyboard-response,344,500544,0.0-16.0-0.12,61125e23136464bd2cbbefc9,650c16f0f2faf8d7a0d14c09,651c1dcd2f328e6054a464a9,null,null,"<p style=""font-size: 60px; font-family: BACS"">BATOcRdCc</p>",,,,,,,,,,
html-keyboard-response,345,501547,0.0-16.0-0.13,61125e23136464bd2cbbefc9,650c16f0f2faf8d7a0d14c09,651c1dcd2f328e6054a464a9,null,null,"<p style=""font-size: 60px; font-family: BACS"">BATOcRdCc</p>",,,,,,,,,,
html-keyboard-response,346,502549,0.0-16.0-0.14,61125e23136464bd2cbbefc9,650c16f0f2faf8d7a0d14c09,651c1dcd2f328e6054a464a9,null,null,"<p style=""font-size: 60px; font-family: BACS"">BATOcRdCc</p>",,,,,,,,,,
html-keyboard-response,347,503550,0.0-16.0-0.15,61125e23136464bd2cbbefc9,650c16f0f2faf8d7a0d14c09,651c1dcd2f328e6054a464a9,null,null,"<p style=""font-size: 60px; font-family: BACS"">BATOcRdCc</p>",,,,,,,,,,
html-keyboard-response,348,504552,0.0-16.0-0.16,61125e23136464bd2cbbefc9,650c16f0f2faf8d7a0d14c09,651c1dcd2f328e6054a464a9,null,null,"<p style=""font-size: 60px; font-family: BACS"">BATOcRdCc</p>",,,,,,,,,,
html-keyboard-response,349,505555,0.0-16.0-0.17,61125e23136464bd2cbbefc9,650c16f0f2faf8d7a0d14c09,651c1dcd2f328e6054a464a9,null,null,"<p style=""font-size: 60px; font-family: BACS"">BATOcRdCc</p>",,,,,,,,,,
html-keyboard-response,350,506557,0.0-16.0-0.18,61125e23136464bd2cbbefc9,650c16f0f2faf8d7a0d14c09,651c1dcd2f328e6054a464a9,null,null,"<p style=""font-size: 60px; font-family: BACS"">BATOcRdCc</p>",,,,,,,,,,
html-keyboard-response,351,507559,0.0-16.0-0.19,61125e23136464bd2cbbefc9,650c16f0f2faf8d7a0d14c09,651c1dcd2f328e6054a464a9,null,null,"<p style=""font-size: 60px; font-family: BACS"">BATOcRdCc</p>",,,,,,,,,,
html-keyboard-response,352,508561,0.0-16.0-0.20,61125e23136464bd2cbbefc9,650c16f0f2faf8d7a0d14c09,651c1dcd2f328e6054a464a9,null,null,"<p style=""font-size: 60px; font-family: BACS"">BATOcRdCc</p>",,,,,,,,,,
html-keyboard-response,353,509563,0.0-16.0-0.21,61125e23136464bd2cbbefc9,650c16f0f2faf8d7a0d14c09,651c1dcd2f328e6054a464a9,null,null,"<p style=""font-size: 60px; font-family: BACS"">BATOcRdCc</p>",,,,,,,,,,
html-keyboard-response,354,510564,0.0-16.0-0.22,61125e23136464bd2cbbefc9,650c16f0f2faf8d7a0d14c09,651c1dcd2f328e6054a464a9,null,null,"<p style=""font-size: 60px; font-family: BACS"">BATOcRdCc</p>",,,,,,,,,,
html-keyboard-response,355,511565,0.0-16.0-0.23,61125e23136464bd2cbbefc9,650c16f0f2faf8d7a0d14c09,651c1dcd2f328e6054a464a9,null,null,"<p style=""font-size: 60px; font-family: BACS"">BATOcRdCc</p>",,,,,,,,,,
html-keyboard-response,356,512566,0.0-16.0-0.24,61125e23136464bd2cbbefc9,650c16f0f2faf8d7a0d14c09,651c1dcd2f328e6054a464a9,null,null,"<p style=""font-size: 60px; font-family: BACS"">BATOcRdCc</p>",,,,,,,,,,
html-keyboard-response,357,513568,0.0-16.0-0.25,61125e23136464bd2cbbefc9,650c16f0f2faf8d7a0d14c09,651c1dcd2f328e6054a464a9,null,null,"<p style=""font-size: 60px; font-family: BACS"">BATOcRdCc</p>",,,,,,,,,,
html-keyboard-response,358,514568,0.0-16.0-0.26,61125e23136464bd2cbbefc9,650c16f0f2faf8d7a0d14c09,651c1dcd2f328e6054a464a9,null,null,"<p style=""font-size: 60px; font-family: BACS"">BATOcRdCc</p>",,,,,,,,,,
html-keyboard-response,359,515571,0.0-16.0-0.27,61125e23136464bd2cbbefc9,650c16f0f2faf8d7a0d14c09,651c1dcd2f328e6054a464a9,null,null,"<p style=""font-size: 60px; font-family: BACS"">BATOcRdCc</p>",,,,,,,,,,
html-keyboard-response,360,516572,0.0-16.0-0.28,61125e23136464bd2cbbefc9,650c16f0f2faf8d7a0d14c09,651c1dcd2f328e6054a464a9,null,null,"<p style=""font-size: 60px; font-family: BACS"">BATOcRdCc</p>",,,,,,,,,,
html-keyboard-response,361,517574,0.0-16.0-0.29,61125e23136464bd2cbbefc9,650c16f0f2faf8d7a0d14c09,651c1dcd2f328e6054a464a9,null,null,"<p style=""font-size: 60px; font-family: BACS"">BATOcRdCc</p>",,,,,,,,,,
html-keyboard-response,362,518576,0.0-16.0-0.30,61125e23136464bd2cbbefc9,650c16f0f2faf8d7a0d14c09,651c1dcd2f328e6054a464a9,null,null,"<p style=""font-size: 60px; font-family: BACS"">BATOcRdCc</p>",,,,,,,,,,
html-keyboard-response,363,519578,0.0-16.0-0.31,61125e23136464bd2cbbefc9,650c16f0f2faf8d7a0d14c09,651c1dcd2f328e6054a464a9,null,null,"<p style=""font-size: 60px; font-family: BACS"">BATOcRdCc</p>",,,,,,,,,,
html-keyboard-response,364,520579,0.0-16.0-0.32,61125e23136464bd2cbbefc9,650c16f0f2faf8d7a0d14c09,651c1dcd2f328e6054a464a9,null,null,"<p style=""font-size: 60px; font-family: BACS"">BATOcRdCc</p>",,,,,,,,,,
html-keyboard-response,365,521580,0.0-16.0-0.33,61125e23136464bd2cbbefc9,650c16f0f2faf8d7a0d14c09,651c1dcd2f328e6054a464a9,null,null,"<p style=""font-size: 60px; font-family: BACS"">BATOcRdCc</p>",,,,,,,,,,
html-keyboard-response,366,522583,0.0-16.0-0.34,61125e23136464bd2cbbefc9,650c16f0f2faf8d7a0d14c09,651c1dcd2f328e6054a464a9,null,null,"<p style=""font-size: 60px; font-family: BACS"">BATOcRdCc</p>",,,,,,,,,,
html-keyboard-response,367,523584,0.0-16.0-0.35,61125e23136464bd2cbbefc9,650c16f0f2faf8d7a0d14c09,651c1dcd2f328e6054a464a9,null,null,"<p style=""font-size: 60px; font-family: BACS"">BATOcRdCc</p>",,,,,,,,,,
html-keyboard-response,368,524586,0.0-16.0-0.36,61125e23136464bd2cbbefc9,650c16f0f2faf8d7a0d14c09,651c1dcd2f328e6054a464a9,null,null,"<p style=""font-size: 60px; font-family: BACS"">BATOcRdCc</p>",,,,,,,,,,
html-keyboard-response,369,525588,0.0-16.0-0.37,61125e23136464bd2cbbefc9,650c16f0f2faf8d7a0d14c09,651c1dcd2f328e6054a464a9,null,null,"<p style=""font-size: 60px; font-family: BACS"">BATOcRdCc</p>",,,,,,,,,,
html-keyboard-response,370,526589,0.0-16.0-0.38,61125e23136464bd2cbbefc9,650c16f0f2faf8d7a0d14c09,651c1dcd2f328e6054a464a9,null,null,"<p style=""font-size: 60px; font-family: BACS"">BATOcRdCc</p>",,,,,,,,,,
html-keyboard-response,371,527590,0.0-16.0-0.39,61125e23136464bd2cbbefc9,650c16f0f2faf8d7a0d14c09,651c1dcd2f328e6054a464a9,null,null,"<p style=""font-size: 60px; font-family: BACS"">BATOcRdCc</p>",,,,,,,,,,
html-keyboard-response,372,528592,0.0-16.0-0.40,61125e23136464bd2cbbefc9,650c16f0f2faf8d7a0d14c09,651c1dcd2f328e6054a464a9,null,null,"<p style=""font-size: 60px; font-family: BACS"">BATOcRdCc</p>",,,,,,,,,,
html-keyboard-response,373,529593,0.0-16.0-0.41,61125e23136464bd2cbbefc9,650c16f0f2faf8d7a0d14c09,651c1dcd2f328e6054a464a9,null,null,"<p style=""font-size: 60px; font-family: BACS"">BATOcRdCc</p>",,,,,,,,,,
html-keyboard-response,374,530595,0.0-16.0-0.42,61125e23136464bd2cbbefc9,650c16f0f2faf8d7a0d14c09,651c1dcd2f328e6054a464a9,null,null,"<p style=""font-size: 60px; font-family: BACS"">BATOcRdCc</p>",,,,,,,,,,
html-keyboard-response,375,531597,0.0-16.0-0.43,61125e23136464bd2cbbefc9,650c16f0f2faf8d7a0d14c09,651c1dcd2f328e6054a464a9,null,null,"<p style=""font-size: 60px; font-family: BACS"">BATOcRdCc</p>",,,,,,,,,,
html-keyboard-response,376,532599,0.0-16.0-0.44,61125e23136464bd2cbbefc9,650c16f0f2faf8d7a0d14c09,651c1dcd2f328e6054a464a9,null,null,"<p style=""font-size: 60px; font-family: BACS"">BATOcRdCc</p>",,,,,,,,,,
html-keyboard-response,377,533600,0.0-16.0-0.45,61125e23136464bd2cbbefc9,650c16f0f2faf8d7a0d14c09,651c1dcd2f328e6054a464a9,null,null,"<p style=""font-size: 60px; font-family: BACS"">BATOcRdCc</p>",,,,,,,,,,
html-keyboard-response,378,534602,0.0-16.0-0.46,61125e23136464bd2cbbefc9,650c16f0f2faf8d7a0d14c09,651c1dcd2f328e6054a464a9,null,null,"<p style=""font-size: 60px; font-family: BACS"">BATOcRdCc</p>",,,,,,,,,,
html-keyboard-response,379,535603,0.0-16.0-0.47,61125e23136464bd2cbbefc9,650c16f0f2faf8d7a0d14c09,651c1dcd2f328e6054a464a9,null,null,"<p style=""font-size: 60px; font-family: BACS"">BATOcRdCc</p>",,,,,,,,,,
html-keyboard-response,380,536604,0.0-16.0-0.48,61125e23136464bd2cbbefc9,650c16f0f2faf8d7a0d14c09,651c1dcd2f328e6054a464a9,null,null,"<p style=""font-size: 60px; font-family: BACS"">BATOcRdCc</p>",,,,,,,,,,
html-keyboard-response,381,537606,0.0-16.0-0.49,61125e23136464bd2cbbefc9,650c16f0f2faf8d7a0d14c09,651c1dcd2f328e6054a464a9,null,null,"<p style=""font-size: 60px; font-family: BACS"">BATOcRdCc</p>",,,,,,,,,,
html-keyboard-response,382,538608,0.0-16.0-0.50,61125e23136464bd2cbbefc9,650c16f0f2faf8d7a0d14c09,651c1dcd2f328e6054a464a9,null,null,"<p style=""font-size: 60px; font-family: BACS"">BATOcRdCc</p>",,,,,,,,,,
html-keyboard-response,383,539610,0.0-16.0-0.51,61125e23136464bd2cbbefc9,650c16f0f2faf8d7a0d14c09,651c1dcd2f328e6054a464a9,null,null,"<p style=""font-size: 60px; font-family: BACS"">BATOcRdCc</p>",,,,,,,,,,
html-keyboard-response,384,540612,0.0-16.0-0.52,61125e23136464bd2cbbefc9,650c16f0f2faf8d7a0d14c09,651c1dcd2f328e6054a464a9,null,null,"<p style=""font-size: 60px; font-family: BACS"">BATOcRdCc</p>",,,,,,,,,,
html-keyboard-response,385,541613,0.0-16.0-0.53,61125e23136464bd2cbbefc9,650c16f0f2faf8d7a0d14c09,651c1dcd2f328e6054a464a9,null,null,"<p style=""font-size: 60px; font-family: BACS"">BATOcRdCc</p>",,,,,,,,,,
html-keyboard-response,386,542615,0.0-16.0-0.54,61125e23136464bd2cbbefc9,650c16f0f2faf8d7a0d14c09,651c1dcd2f328e6054a464a9,null,null,"<p style=""font-size: 60px; font-family: BACS"">BATOcRdCc</p>",,,,,,,,,,
html-keyboard-response,387,543617,0.0-16.0-0.55,61125e23136464bd2cbbefc9,650c16f0f2faf8d7a0d14c09,651c1dcd2f328e6054a464a9,null,null,"<p style=""font-size: 60px; font-family: BACS"">BATOcRdCc</p>",,,,,,,,,,
html-keyboard-response,388,544618,0.0-16.0-0.56,61125e23136464bd2cbbefc9,650c16f0f2faf8d7a0d14c09,651c1dcd2f328e6054a464a9,null,null,"<p style=""font-size: 60px; font-family: BACS"">BATOcRdCc</p>",,,,,,,,,,
html-keyboard-response,389,545621,0.0-16.0-0.57,61125e23136464bd2cbbefc9,650c16f0f2faf8d7a0d14c09,651c1dcd2f328e6054a464a9,null,null,"<p style=""font-size: 60px; font-family: BACS"">BATOcRdCc</p>",,,,,,,,,,
html-keyboard-response,390,546623,0.0-16.0-0.58,61125e23136464bd2cbbefc9,650c16f0f2faf8d7a0d14c09,651c1dcd2f328e6054a464a9,null,null,"<p style=""font-size: 60px; font-family: BACS"">BATOcRdCc</p>",,,,,,,,,,
html-keyboard-response,391,547624,0.0-16.0-0.59,61125e23136464bd2cbbefc9,650c16f0f2faf8d7a0d14c09,651c1dcd2f328e6054a464a9,null,null,"<p style=""font-size: 60px; font-family: BACS"">BATOcRdCc</p>",,,,,,,,,,
html-keyboard-response,392,548626,0.0-16.0-0.60,61125e23136464bd2cbbefc9,650c16f0f2faf8d7a0d14c09,651c1dcd2f328e6054a464a9,null,null,"<p style=""font-size: 60px; font-family: BACS"">BATOcRdCc</p>",,,,,,,,,,
html-keyboard-response,393,549627,0.0-16.0-0.61,61125e23136464bd2cbbefc9,650c16f0f2faf8d7a0d14c09,651c1dcd2f328e6054a464a9,null,null,"<p style=""font-size: 60px; font-family: BACS"">BATOcRdCc</p>",,,,,,,,,,
html-keyboard-response,394,550629,0.0-16.0-0.62,61125e23136464bd2cbbefc9,650c16f0f2faf8d7a0d14c09,651c1dcd2f328e6054a464a9,null,null,"<p style=""font-size: 60px; font-family: BACS"">BATOcRdCc</p>",,,,,,,,,,
html-keyboard-response,395,551629,0.0-16.0-0.63,61125e23136464bd2cbbefc9,650c16f0f2faf8d7a0d14c09,651c1dcd2f328e6054a464a9,null,null,"<p style=""font-size: 60px; font-family: BACS"">BATOcRdCc</p>",,,,,,,,,,
html-keyboard-response,396,552631,0.0-16.0-0.64,61125e23136464bd2cbbefc9,650c16f0f2faf8d7a0d14c09,651c1dcd2f328e6054a464a9,null,null,"<p style=""font-size: 60px; font-family: BACS"">BATOcRdCc</p>",,,,,,,,,,
html-keyboard-response,397,553632,0.0-16.0-0.65,61125e23136464bd2cbbefc9,650c16f0f2faf8d7a0d14c09,651c1dcd2f328e6054a464a9,null,null,"<p style=""font-size: 60px; font-family: BACS"">BATOcRdCc</p>",,,,,,,,,,
html-keyboard-response,398,554634,0.0-16.0-0.66,61125e23136464bd2cbbefc9,650c16f0f2faf8d7a0d14c09,651c1dcd2f328e6054a464a9,null,null,"<p style=""font-size: 60px; font-family: BACS"">BATOcRdCc</p>",,,,,,,,,,
html-keyboard-response,399,555634,0.0-16.0-0.67,61125e23136464bd2cbbefc9,650c16f0f2faf8d7a0d14c09,651c1dcd2f328e6054a464a9,null,null,"<p style=""font-size: 60px; font-family: BACS"">BATOcRdCc</p>",,,,,,,,,,
html-keyboard-response,400,556635,0.0-16.0-0.68,61125e23136464bd2cbbefc9,650c16f0f2faf8d7a0d14c09,651c1dcd2f328e6054a464a9,null,null,"<p style=""font-size: 60px; font-family: BACS"">BATOcRdCc</p>",,,,,,,,,,
html-keyboard-response,401,557637,0.0-16.0-0.69,61125e23136464bd2cbbefc9,650c16f0f2faf8d7a0d14c09,651c1dcd2f328e6054a464a9,null,null,"<p style=""font-size: 60px; font-family: BACS"">BATOcRdCc</p>",,,,,,,,,,
html-keyboard-response,402,558638,0.0-16.0-0.70,61125e23136464bd2cbbefc9,650c16f0f2faf8d7a0d14c09,651c1dcd2f328e6054a464a9,null,null,"<p style=""font-size: 60px; font-family: BACS"">BATOcRdCc</p>",,,,,,,,,,
html-keyboard-response,403,559639,0.0-16.0-0.71,61125e23136464bd2cbbefc9,650c16f0f2faf8d7a0d14c09,651c1dcd2f328e6054a464a9,null,null,"<p style=""font-size: 60px; font-family: BACS"">BATOcRdCc</p>",,,,,,,,,,
html-keyboard-response,404,560641,0.0-16.0-0.72,61125e23136464bd2cbbefc9,650c16f0f2faf8d7a0d14c09,651c1dcd2f328e6054a464a9,null,null,"<p style=""font-size: 60px; font-family: BACS"">BATOcRdCc</p>",,,,,,,,,,
html-keyboard-response,405,561644,0.0-16.0-0.73,61125e23136464bd2cbbefc9,650c16f0f2faf8d7a0d14c09,651c1dcd2f328e6054a464a9,null,null,"<p style=""font-size: 60px; font-family: BACS"">BATOcRdCc</p>",,,,,,,,,,
html-keyboard-response,406,562645,0.0-16.0-0.74,61125e23136464bd2cbbefc9,650c16f0f2faf8d7a0d14c09,651c1dcd2f328e6054a464a9,null,null,"<p style=""font-size: 60px; font-family: BACS"">BATOcRdCc</p>",,,,,,,,,,
html-keyboard-response,407,563647,0.0-16.0-0.75,61125e23136464bd2cbbefc9,650c16f0f2faf8d7a0d14c09,651c1dcd2f328e6054a464a9,null,null,"<p style=""font-size: 60px; font-family: BACS"">BATOcRdCc</p>",,,,,,,,,,
html-keyboard-response,408,564652,0.0-16.0-0.76,61125e23136464bd2cbbefc9,650c16f0f2faf8d7a0d14c09,651c1dcd2f328e6054a464a9,null,null,"<p style=""font-size: 60px; font-family: BACS"">BATOcRdCc</p>",,,,,,,,,,
html-keyboard-response,409,565653,0.0-16.0-0.77,61125e23136464bd2cbbefc9,650c16f0f2faf8d7a0d14c09,651c1dcd2f328e6054a464a9,null,null,"<p style=""font-size: 60px; font-family: BACS"">BATOcRdCc</p>",,,,,,,,,,
html-keyboard-response,410,566655,0.0-16.0-0.78,61125e23136464bd2cbbefc9,650c16f0f2faf8d7a0d14c09,651c1dcd2f328e6054a464a9,null,null,"<p style=""font-size: 60px; font-family: BACS"">BATOcRdCc</p>",,,,,,,,,,
html-keyboard-response,411,567657,0.0-16.0-0.79,61125e23136464bd2cbbefc9,650c16f0f2faf8d7a0d14c09,651c1dcd2f328e6054a464a9,null,null,"<p style=""font-size: 60px; font-family: BACS"">BATOcRdCc</p>",,,,,,,,,,
html-keyboard-response,412,569686,0.0-17.0,61125e23136464bd2cbbefc9,650c16f0f2faf8d7a0d14c09,651c1dcd2f328e6054a464a9,2029, ,"<p>Great, you've seen the fifth block of words. You may now take a short break.</p>
      <p>Press the spacebar when you're ready to continue.</p>",,,,,,,,,,
html-keyboard-response,413,570688,0.0-18.0-0.0,61125e23136464bd2cbbefc9,650c16f0f2faf8d7a0d14c09,651c1dcd2f328e6054a464a9,null,null,"<p style=""font-size: 60px; font-family: BACS"">mrOdlvk</p>",,,,,,,,,,
html-keyboard-response,414,571689,0.0-18.0-0.1,61125e23136464bd2cbbefc9,650c16f0f2faf8d7a0d14c09,651c1dcd2f328e6054a464a9,null,null,"<p style=""font-size: 60px; font-family: BACS"">QOLmuAvdk</p>",,,,,,,,,,
html-keyboard-response,415,572691,0.0-18.0-0.2,61125e23136464bd2cbbefc9,650c16f0f2faf8d7a0d14c09,651c1dcd2f328e6054a464a9,null,null,"<p style=""font-size: 60px; font-family: BACS"">ckdAmYht</p>",,,,,,,,,,
html-keyboard-response,416,573692,0.0-18.0-0.3,61125e23136464bd2cbbefc9,650c16f0f2faf8d7a0d14c09,651c1dcd2f328e6054a464a9,null,null,"<p style=""font-size: 60px; font-family: BACS"">NLQGmrAJu</p>",,,,,,,,,,
html-keyboard-response,417,574694,0.0-18.0-0.4,61125e23136464bd2cbbefc9,650c16f0f2faf8d7a0d14c09,651c1dcd2f328e6054a464a9,null,null,"<p style=""font-size: 60px; font-family: BACS"">GAcYAvdk</p>",,,,,,,,,,
html-keyboard-response,418,575695,0.0-18.0-0.5,61125e23136464bd2cbbefc9,650c16f0f2faf8d7a0d14c09,651c1dcd2f328e6054a464a9,null,null,"<p style=""font-size: 60px; font-family: BACS"">hlbtbRdCc</p>",,,,,,,,,,
html-keyboard-response,419,576696,0.0-18.0-0.6,61125e23136464bd2cbbefc9,650c16f0f2faf8d7a0d14c09,651c1dcd2f328e6054a464a9,null,null,"<p style=""font-size: 60px; font-family: BACS"">khmhdTAh</p>",,,,,,,,,,
html-keyboard-response,420,577699,0.0-18.0-0.7,61125e23136464bd2cbbefc9,650c16f0f2faf8d7a0d14c09,651c1dcd2f328e6054a464a9,null,null,"<p style=""font-size: 60px; font-family: BACS"">tRdMYht</p>",,,,,,,,,,
html-keyboard-response,421,578700,0.0-18.0-0.8,61125e23136464bd2cbbefc9,650c16f0f2faf8d7a0d14c09,651c1dcd2f328e6054a464a9,null,null,"<p style=""font-size: 60px; font-family: BACS"">rvUbkJdr</p>",,,,,,,,,,
html-keyboard-response,422,579701,0.0-18.0-0.9,61125e23136464bd2cbbefc9,650c16f0f2faf8d7a0d14c09,651c1dcd2f328e6054a464a9,null,null,"<p style=""font-size: 60px; font-family: BACS"">mrOdrAJu</p>",,,,,,,,,,
html-keyboard-response,423,580702,0.0-18.0-0.10,61125e23136464bd2cbbefc9,650c16f0f2faf8d7a0d14c09,651c1dcd2f328e6054a464a9,null,null,"<p style=""font-size: 60px; font-family: BACS"">hlbtbOYK</p>",,,,,,,,,,
html-keyboard-response,424,581703,0.0-18.0-0.11,61125e23136464bd2cbbefc9,650c16f0f2faf8d7a0d14c09,651c1dcd2f328e6054a464a9,null,null,"<p style=""font-size: 60px; font-family: BACS"">BATOcdTAh</p>",,,,,,,,,,
html-keyboard-response,425,582705,0.0-18.0-0.12,61125e23136464bd2cbbefc9,650c16f0f2faf8d7a0d14c09,651c1dcd2f328e6054a464a9,null,null,"<p style=""font-size: 60px; font-family: BACS"">rvUblGc</p>",,,,,,,,,,
html-keyboard-response,426,583707,0.0-18.0-0.13,61125e23136464bd2cbbefc9,650c16f0f2faf8d7a0d14c09,651c1dcd2f328e6054a464a9,null,null,"<p style=""font-size: 60px; font-family: BACS"">hlkTdTAh</p>",,,,,,,,,,
html-keyboard-response,427,584709,0.0-18.0-0.14,61125e23136464bd2cbbefc9,650c16f0f2faf8d7a0d14c09,651c1dcd2f328e6054a464a9,null,null,"<p style=""font-size: 60px; font-family: BACS"">rvUbrAJu</p>",,,,,,,,,,
html-keyboard-response,428,585710,0.0-18.0-0.15,61125e23136464bd2cbbefc9,650c16f0f2faf8d7a0d14c09,651c1dcd2f328e6054a464a9,null,null,"<p style=""font-size: 60px; font-family: BACS"">cROMtBCAd</p>",,,,,,,,,,
html-keyboard-response,429,586712,0.0-18.0-0.16,61125e23136464bd2cbbefc9,650c16f0f2faf8d7a0d14c09,651c1dcd2f328e6054a464a9,null,null,"<p style=""font-size: 60px; font-family: BACS"">tRdMRdCc</p>",,,,,,,,,,
html-keyboard-response,430,587715,0.0-18.0-0.17,61125e23136464bd2cbbefc9,650c16f0f2faf8d7a0d14c09,651c1dcd2f328e6054a464a9,null,null,"<p style=""font-size: 60px; font-family: BACS"">kabJblGc</p>",,,,,,,,,,
html-keyboard-response,431,588717,0.0-18.0-0.18,61125e23136464bd2cbbefc9,650c16f0f2faf8d7a0d14c09,651c1dcd2f328e6054a464a9,null,null,"<p style=""font-size: 60px; font-family: BACS"">NLQGmlvk</p>",,,,,,,,,,
html-keyboard-response,432,589719,0.0-18.0-0.19,61125e23136464bd2cbbefc9,650c16f0f2faf8d7a0d14c09,651c1dcd2f328e6054a464a9,null,null,"<p style=""font-size: 60px; font-family: BACS"">UrOQlGc</p>",,,,,,,,,,
html-keyboard-response,433,590721,0.0-18.0-0.20,61125e23136464bd2cbbefc9,650c16f0f2faf8d7a0d14c09,651c1dcd2f328e6054a464a9,null,null,"<p style=""font-size: 60px; font-family: BACS"">TAdhMYht</p>",,,,,,,,,,
html-keyboard-response,434,591722,0.0-18.0-0.21,61125e23136464bd2cbbefc9,650c16f0f2faf8d7a0d14c09,651c1dcd2f328e6054a464a9,null,null,"<p style=""font-size: 60px; font-family: BACS"">ukYZAvdk</p>",,,,,,,,,,
html-keyboard-response,435,592724,0.0-18.0-0.22,61125e23136464bd2cbbefc9,650c16f0f2faf8d7a0d14c09,651c1dcd2f328e6054a464a9,null,null,"<p style=""font-size: 60px; font-family: BACS"">rvUblvk</p>",,,,,,,,,,
html-keyboard-response,436,593725,0.0-18.0-0.23,61125e23136464bd2cbbefc9,650c16f0f2faf8d7a0d14c09,651c1dcd2f328e6054a464a9,null,null,"<p style=""font-size: 60px; font-family: BACS"">khmhBCAd</p>",,,,,,,,,,
html-keyboard-response,437,594727,0.0-18.0-0.24,61125e23136464bd2cbbefc9,650c16f0f2faf8d7a0d14c09,651c1dcd2f328e6054a464a9,null,null,"<p style=""font-size: 60px; font-family: BACS"">hlkTYht</p>",,,,,,,,,,
html-keyboard-response,438,595728,0.0-18.0-0.25,61125e23136464bd2cbbefc9,650c16f0f2faf8d7a0d14c09,651c1dcd2f328e6054a464a9,null,null,"<p style=""font-size: 60px; font-family: BACS"">AZaJcrAJu</p>",,,,,,,,,,
html-keyboard-response,439,596730,0.0-18.0-0.26,61125e23136464bd2cbbefc9,650c16f0f2faf8d7a0d14c09,651c1dcd2f328e6054a464a9,null,null,"<p style=""font-size: 60px; font-family: BACS"">hlbtbBCAd</p>",,,,,,,,,,
html-keyboard-response,440,597732,0.0-18.0-0.27,61125e23136464bd2cbbefc9,650c16f0f2faf8d7a0d14c09,651c1dcd2f328e6054a464a9,null,null,"<p style=""font-size: 60px; font-family: BACS"">bvuZlvk</p>",,,,,,,,,,
html-keyboard-response,441,598733,0.0-18.0-0.28,61125e23136464bd2cbbefc9,650c16f0f2faf8d7a0d14c09,651c1dcd2f328e6054a464a9,null,null,"<p style=""font-size: 60px; font-family: BACS"">mrOdAvdk</p>",,,,,,,,,,
html-keyboard-response,442,599735,0.0-18.0-0.29,61125e23136464bd2cbbefc9,650c16f0f2faf8d7a0d14c09,651c1dcd2f328e6054a464a9,null,null,"<p style=""font-size: 60px; font-family: BACS"">QOLmulGc</p>",,,,,,,,,,
html-keyboard-response,443,600737,0.0-18.0-0.30,61125e23136464bd2cbbefc9,650c16f0f2faf8d7a0d14c09,651c1dcd2f328e6054a464a9,null,null,"<p style=""font-size: 60px; font-family: BACS"">PCPDhBCAd</p>",,,,,,,,,,
html-keyboard-response,444,601739,0.0-18.0-0.31,61125e23136464bd2cbbefc9,650c16f0f2faf8d7a0d14c09,651c1dcd2f328e6054a464a9,null,null,"<p style=""font-size: 60px; font-family: BACS"">tRdMOYK</p>",,,,,,,,,,
html-keyboard-response,445,602739,0.0-18.0-0.32,61125e23136464bd2cbbefc9,650c16f0f2faf8d7a0d14c09,651c1dcd2f328e6054a464a9,null,null,"<p style=""font-size: 60px; font-family: BACS"">QOLmulvk</p>",,,,,,,,,,
html-keyboard-response,446,603741,0.0-18.0-0.33,61125e23136464bd2cbbefc9,650c16f0f2faf8d7a0d14c09,651c1dcd2f328e6054a464a9,null,null,"<p style=""font-size: 60px; font-family: BACS"">PCPDhYht</p>",,,,,,,,,,
html-keyboard-response,447,604742,0.0-18.0-0.34,61125e23136464bd2cbbefc9,650c16f0f2faf8d7a0d14c09,651c1dcd2f328e6054a464a9,null,null,"<p style=""font-size: 60px; font-family: BACS"">hlbtbdTAh</p>",,,,,,,,,,
html-keyboard-response,448,605744,0.0-18.0-0.35,61125e23136464bd2cbbefc9,650c16f0f2faf8d7a0d14c09,651c1dcd2f328e6054a464a9,null,null,"<p style=""font-size: 60px; font-family: BACS"">ukYZlvk</p>",,,,,,,,,,
html-keyboard-response,449,606746,0.0-18.0-0.36,61125e23136464bd2cbbefc9,650c16f0f2faf8d7a0d14c09,651c1dcd2f328e6054a464a9,null,null,"<p style=""font-size: 60px; font-family: BACS"">ckdAmRdCc</p>",,,,,,,,,,
html-keyboard-response,450,607749,0.0-18.0-0.37,61125e23136464bd2cbbefc9,650c16f0f2faf8d7a0d14c09,651c1dcd2f328e6054a464a9,null,null,"<p style=""font-size: 60px; font-family: BACS"">kabJbkJdr</p>",,,,,,,,,,
html-keyboard-response,451,608750,0.0-18.0-0.38,61125e23136464bd2cbbefc9,650c16f0f2faf8d7a0d14c09,651c1dcd2f328e6054a464a9,null,null,"<p style=""font-size: 60px; font-family: BACS"">cROMtYht</p>",,,,,,,,,,
html-keyboard-response,452,609752,0.0-18.0-0.39,61125e23136464bd2cbbefc9,650c16f0f2faf8d7a0d14c09,651c1dcd2f328e6054a464a9,null,null,"<p style=""font-size: 60px; font-family: BACS"">BATOcRdCc</p>",,,,,,,,,,
html-keyboard-response,453,610754,0.0-18.0-0.40,61125e23136464bd2cbbefc9,650c16f0f2faf8d7a0d14c09,651c1dcd2f328e6054a464a9,null,null,"<p style=""font-size: 60px; font-family: BACS"">TAdhMOYK</p>",,,,,,,,,,
html-keyboard-response,454,611756,0.0-18.0-0.41,61125e23136464bd2cbbefc9,650c16f0f2faf8d7a0d14c09,651c1dcd2f328e6054a464a9,null,null,"<p style=""font-size: 60px; font-family: BACS"">kabJbAvdk</p>",,,,,,,,,,
html-keyboard-response,455,612758,0.0-18.0-0.42,61125e23136464bd2cbbefc9,650c16f0f2faf8d7a0d14c09,651c1dcd2f328e6054a464a9,null,null,"<p style=""font-size: 60px; font-family: BACS"">tRdMdTAh</p>",,,,,,,,,,
html-keyboard-response,456,613760,0.0-18.0-0.43,61125e23136464bd2cbbefc9,650c16f0f2faf8d7a0d14c09,651c1dcd2f328e6054a464a9,null,null,"<p style=""font-size: 60px; font-family: BACS"">NLQGmAvdk</p>",,,,,,,,,,
html-keyboard-response,457,614761,0.0-18.0-0.44,61125e23136464bd2cbbefc9,650c16f0f2faf8d7a0d14c09,651c1dcd2f328e6054a464a9,null,null,"<p style=""font-size: 60px; font-family: BACS"">TAdhMBCAd</p>",,,,,,,,,,
html-keyboard-response,458,615763,0.0-18.0-0.45,61125e23136464bd2cbbefc9,650c16f0f2faf8d7a0d14c09,651c1dcd2f328e6054a464a9,null,null,"<p style=""font-size: 60px; font-family: BACS"">GAcYlGc</p>",,,,,,,,,,
html-keyboard-response,459,616766,0.0-18.0-0.46,61125e23136464bd2cbbefc9,650c16f0f2faf8d7a0d14c09,651c1dcd2f328e6054a464a9,null,null,"<p style=""font-size: 60px; font-family: BACS"">hlkTOYK</p>",,,,,,,,,,
html-keyboard-response,460,617767,0.0-18.0-0.47,61125e23136464bd2cbbefc9,650c16f0f2faf8d7a0d14c09,651c1dcd2f328e6054a464a9,null,null,"<p style=""font-size: 60px; font-family: BACS"">mrOdlGc</p>",,,,,,,,,,
html-keyboard-response,461,618769,0.0-18.0-0.48,61125e23136464bd2cbbefc9,650c16f0f2faf8d7a0d14c09,651c1dcd2f328e6054a464a9,null,null,"<p style=""font-size: 60px; font-family: BACS"">GAcYlvk</p>",,,,,,,,,,
html-keyboard-response,462,619770,0.0-18.0-0.49,61125e23136464bd2cbbefc9,650c16f0f2faf8d7a0d14c09,651c1dcd2f328e6054a464a9,null,null,"<p style=""font-size: 60px; font-family: BACS"">TklDOYK</p>",,,,,,,,,,
html-keyboard-response,463,620771,0.0-18.0-0.50,61125e23136464bd2cbbefc9,650c16f0f2faf8d7a0d14c09,651c1dcd2f328e6054a464a9,null,null,"<p style=""font-size: 60px; font-family: BACS"">kabJbrAJu</p>",,,,,,,,,,
html-keyboard-response,464,621774,0.0-18.0-0.51,61125e23136464bd2cbbefc9,650c16f0f2faf8d7a0d14c09,651c1dcd2f328e6054a464a9,null,null,"<p style=""font-size: 60px; font-family: BACS"">ukYZkJdr</p>",,,,,,,,,,
html-keyboard-response,465,623060,0.0-18.0-0.52,61125e23136464bd2cbbefc9,650c16f0f2faf8d7a0d14c09,651c1dcd2f328e6054a464a9,null,null,"<p style=""font-size: 60px; font-family: BACS"">ckdAmOYK</p>",,,,,,,,,,
html-keyboard-response,466,624061,0.0-18.0-0.53,61125e23136464bd2cbbefc9,650c16f0f2faf8d7a0d14c09,651c1dcd2f328e6054a464a9,null,null,"<p style=""font-size: 60px; font-family: BACS"">AZaJckJdr</p>",,,,,,,,,,
html-keyboard-response,467,625064,0.0-18.0-0.54,61125e23136464bd2cbbefc9,650c16f0f2faf8d7a0d14c09,651c1dcd2f328e6054a464a9,null,null,"<p style=""font-size: 60px; font-family: BACS"">khmhOYK</p>",,,,,,,,,,
