"trial_type","trial_index","time_elapsed","internal_node_id","subject_id","study_id","session_id","rt","response","stimulus","success","item","task","correct_response","correct","target","confound","name"
"pavlovia","0","3236","0.0-0.0","5caca6b4a9acb200011a6547","64afc2c9a8732ea92db0087d","64aff81f5492d631bf9b3c3d","","","","","","","","","","",""
"survey-html-form","1","13335","0.0-1.0","5caca6b4a9acb200011a6547","64afc2c9a8732ea92db0087d","64aff81f5492d631bf9b3c3d","10094","{""ID"":""5caca6b4a9acb200011a6547""}","","","","","","","","",""
"html-keyboard-response","2","49642","0.0-2.0","5caca6b4a9acb200011a6547","64afc2c9a8732ea92db0087d","64aff81f5492d631bf9b3c3d","36300"," ","<p style=""font-size: 15px;"">Prima di cominciare, le chiediamo di leggere il modulo di consenso informato e confermare la sua volontà di partecipare all'esperimento.</p>
      <p style=""font-size: 15px;""> La preghiamo di ricordare che questo è un progetto di ricerca e che la sua partecipazione è completamente volontaria. Lei si potra' ritirare in qualunque momento, senza necessariamente dover dare alcuna spiegazione. Lo studio al quale Le si chiede di partecipare ha lo scopo di esaminare come i lettori elaborano le parole scritte. La somministrazione delle prove è individuale. Lei sarà impegnato in una sessione di lavoro della durata media di 10 minuti, e un questionario di 10 minuti. L’ordine delle prove ed il loro svolgimento sono stabiliti in modo tale da evitare un eventuale affaticamento. Tutte le prove saranno precedute da un breve addestramento in modo tale che abbia la possibilità di familiarizzare con il compito. Sono previste alcune pause nel corso dello svolgimento dell’esperimento. Una ricompensa di £4 (£8 per ora) Le verrà consegnata al termine della sessione di testing. Nonostante il testing preveda delle prove cognitive, il presente esperimento non costituisce una prova clinica che permetta la diagnosi di eventuali patologie.</p>
      <p style=""font-size: 15px;"">Tutti i dati raccolti grazie alla partecipazione Sua e di altre persone volontarie saranno custoditi in server sicuri e protetti da password, e non sarà consentito ad alcuna persona non autorizzata di accedervi. Le Sue informazioni personali saranno conservate separatamente dai risultati della presente ricerca, cui saranno associati soltanto attraverso un ID arbitrario. Grazie a questo processo di anonimizzazione dei dati, a nessun ricercatore sarà possibile analizzare i risultati sapendo da quale specifico partecipante essi provengono. Inoltre, questa procedura renderà impossibile la Sua identificazione anche nel momento in cui i risultati della ricerca fossero pubblicati su riviste scientifiche, o presentati a congressi o in qualsiasi altro pubblico consesso. Più in generale, i dati raccolti saranno trattati in accordo con le leggi sulla privacy e in conformità al Decreto Legislativo 30 giugno 2003 n. 196 “Codice in materia di protezione dei dati personali” e al Regolamento Europeo 2016/679 (General Data Protection Regulation - GDPR). Il Responsabile della protezione dei dati (RPD) è l’Avv. Valentina Carollo che può essere contattato ai seguenti indirizzi email: <a href=""mailto:dpo@sissa.it"">dpo@sissa.it</a> oppure <a href=""mailto:rpd@sissa.it"">rpd@sissa.it</a> - PEC: <a href=""mailto:protocollo@pec.sissa.it"">protocollo@pec.sissa.it</a>.</p>
      <p style=""font-size: 15px;""> Prima di esprimere il suo consenso alla partecipazione, Le ricordiamo ancora che in caso Lei abbia bisogno di delucidazioni su qualunque aspetto della procedura sperimentale, il ricercatore è a Sua completa disposizione (<a href=""mailto:aliebelt@sissa.it"">aliebelt@sissa.it</a>, <a href=""mailto:davide.crepaldi@sissa.it"">davide.crepaldi@sissa.it</a>).</p>
      <p style=""font-size: 15px;"">Se vuole scaricare il modulo di consenso informato, clicca qui: <a href=""BASL_modulo_consenso.pdf"" download>modulo di consenso</a>.</p>
      <p style=""font-size: 15px;""> Le chiediamo di premere la barra per continuare al consenso.</p>","","","","","","","",""
"survey-html-form","3","62294","0.0-3.0","5caca6b4a9acb200011a6547","64afc2c9a8732ea92db0087d","64aff81f5492d631bf9b3c3d","12648","{""consent1"":""YES"",""consent2"":""YES"",""consent3"":""YES"",""consent4"":""YES"",""consent5"":""YES"",""consent6"":""YES""}","","","","","","","","",""
"fullscreen","4","68991","0.0-4.0","5caca6b4a9acb200011a6547","64afc2c9a8732ea92db0087d","64aff81f5492d631bf9b3c3d","","","","true","","","","","","",""
"html-keyboard-response","5","91254","0.0-5.0","5caca6b4a9acb200011a6547","64afc2c9a8732ea92db0087d","64aff81f5492d631bf9b3c3d","22260"," ","<p>Benvenuta/o, e grazie mille del tuo tempo!</p>
      <p>In questo esperimento sarai un esperto/un'esperta di linguaggio cui è stato chiesto di dare un'occhiata ad alcuni messaggi che la Terra ha ricevuto dallo spazio. Il tuo compito, in questa prima parte dell'esperimento, sarà di fare molta attenzione alle parole che ti verranno mostrate; più tardi, i leader del mondo ti chiederanno qualche informazione su quello che hai visto. Le parole si susseguiranno abbastanza velocemente; sembra che questi alieni abbiano una certa fretta :-) </p>
      <p>Per favore, chiama lo sperimentatore se ha qualche domanda.</p><p>Premi la barra per continuare.</p>","","","","","","","",""
"html-keyboard-response","6","97442","0.0-6.0","5caca6b4a9acb200011a6547","64afc2c9a8732ea92db0087d","64aff81f5492d631bf9b3c3d","6182"," ","<p>Ecco un esempio delle parole che vedrai:</p>
      <img src='esempio.png' height='400px'>
      <p>Quando sei pronti per iniziare, premi la barra.</p></div>","","","","","","","",""
"html-keyboard-response","7","98446","0.0-7.0-0.0","5caca6b4a9acb200011a6547","64afc2c9a8732ea92db0087d","64aff81f5492d631bf9b3c3d","null","null","<p style=""font-size: 60px; font-family: BACS"">YcdOZAUu</p>","","","","","","","",""
"html-keyboard-response","8","99448","0.0-7.0-0.1","5caca6b4a9acb200011a6547","64afc2c9a8732ea92db0087d","64aff81f5492d631bf9b3c3d","null","null","<p style=""font-size: 60px; font-family: BACS"">OmtlDMKmY</p>","","","","","","","",""
"html-keyboard-response","9","100451","0.0-7.0-0.2","5caca6b4a9acb200011a6547","64afc2c9a8732ea92db0087d","64aff81f5492d631bf9b3c3d","null","null","<p style=""font-size: 60px; font-family: BACS"">kMbTROYK</p>","","","","","","","",""
"html-keyboard-response","10","101453","0.0-7.0-0.3","5caca6b4a9acb200011a6547","64afc2c9a8732ea92db0087d","64aff81f5492d631bf9b3c3d","null","null","<p style=""font-size: 60px; font-family: BACS"">cAZuZAUu</p>","","","","","","","",""
"html-keyboard-response","11","102455","0.0-7.0-0.4","5caca6b4a9acb200011a6547","64afc2c9a8732ea92db0087d","64aff81f5492d631bf9b3c3d","null","null","<p style=""font-size: 60px; font-family: BACS"">ctkthBK</p>","","","","","","","",""
"html-keyboard-response","12","103457","0.0-7.0-0.5","5caca6b4a9acb200011a6547","64afc2c9a8732ea92db0087d","64aff81f5492d631bf9b3c3d","null","null","<p style=""font-size: 60px; font-family: BACS"">UvOGZAUu</p>","","","","","","","",""
"html-keyboard-response","13","104459","0.0-7.0-0.6","5caca6b4a9acb200011a6547","64afc2c9a8732ea92db0087d","64aff81f5492d631bf9b3c3d","null","null","<p style=""font-size: 60px; font-family: BACS"">TEBKMKmY</p>","","","","","","","",""
"html-keyboard-response","14","105461","0.0-7.0-0.7","5caca6b4a9acb200011a6547","64afc2c9a8732ea92db0087d","64aff81f5492d631bf9b3c3d","null","null","<p style=""font-size: 60px; font-family: BACS"">aYQmlGc</p>","","","","","","","",""
"html-keyboard-response","15","106463","0.0-7.0-0.8","5caca6b4a9acb200011a6547","64afc2c9a8732ea92db0087d","64aff81f5492d631bf9b3c3d","null","null","<p style=""font-size: 60px; font-family: BACS"">QcladNYZu</p>","","","","","","","",""
"html-keyboard-response","16","107464","0.0-7.0-0.9","5caca6b4a9acb200011a6547","64afc2c9a8732ea92db0087d","64aff81f5492d631bf9b3c3d","null","null","<p style=""font-size: 60px; font-family: BACS"">UrOQZAUu</p>","","","","","","","",""
"html-keyboard-response","17","108466","0.0-7.0-0.10","5caca6b4a9acb200011a6547","64afc2c9a8732ea92db0087d","64aff81f5492d631bf9b3c3d","null","null","<p style=""font-size: 60px; font-family: BACS"">AmQOYNYZu</p>","","","","","","","",""
"html-keyboard-response","18","109468","0.0-7.0-0.11","5caca6b4a9acb200011a6547","64afc2c9a8732ea92db0087d","64aff81f5492d631bf9b3c3d","null","null","<p style=""font-size: 60px; font-family: BACS"">EYtYRCmYA</p>","","","","","","","",""
"html-keyboard-response","19","110469","0.0-7.0-0.12","5caca6b4a9acb200011a6547","64afc2c9a8732ea92db0087d","64aff81f5492d631bf9b3c3d","null","null","<p style=""font-size: 60px; font-family: BACS"">cAZulGc</p>","","","","","","","",""
"html-keyboard-response","20","111470","0.0-7.0-0.13","5caca6b4a9acb200011a6547","64afc2c9a8732ea92db0087d","64aff81f5492d631bf9b3c3d","null","null","<p style=""font-size: 60px; font-family: BACS"">PcBTPMYm</p>","","","","","","","",""
"html-keyboard-response","21","112472","0.0-7.0-0.14","5caca6b4a9acb200011a6547","64afc2c9a8732ea92db0087d","64aff81f5492d631bf9b3c3d","null","null","<p style=""font-size: 60px; font-family: BACS"">MhKdMKmY</p>","","","","","","","",""
"html-keyboard-response","22","113473","0.0-7.0-0.15","5caca6b4a9acb200011a6547","64afc2c9a8732ea92db0087d","64aff81f5492d631bf9b3c3d","null","null","<p style=""font-size: 60px; font-family: BACS"">OkGYkmU</p>","","","","","","","",""
"html-keyboard-response","23","114474","0.0-7.0-0.16","5caca6b4a9acb200011a6547","64afc2c9a8732ea92db0087d","64aff81f5492d631bf9b3c3d","null","null","<p style=""font-size: 60px; font-family: BACS"">aYQmZAUu</p>","","","","","","","",""
"html-keyboard-response","24","115476","0.0-7.0-0.17","5caca6b4a9acb200011a6547","64afc2c9a8732ea92db0087d","64aff81f5492d631bf9b3c3d","null","null","<p style=""font-size: 60px; font-family: BACS"">PcBTCmYA</p>","","","","","","","",""
"html-keyboard-response","25","116478","0.0-7.0-0.18","5caca6b4a9acb200011a6547","64afc2c9a8732ea92db0087d","64aff81f5492d631bf9b3c3d","null","null","<p style=""font-size: 60px; font-family: BACS"">AmQOYlGc</p>","","","","","","","",""
"html-keyboard-response","26","117479","0.0-7.0-0.19","5caca6b4a9acb200011a6547","64afc2c9a8732ea92db0087d","64aff81f5492d631bf9b3c3d","null","null","<p style=""font-size: 60px; font-family: BACS"">aYQmkmU</p>","","","","","","","",""
"html-keyboard-response","27","118482","0.0-7.0-0.20","5caca6b4a9acb200011a6547","64afc2c9a8732ea92db0087d","64aff81f5492d631bf9b3c3d","null","null","<p style=""font-size: 60px; font-family: BACS"">tmAKMKmY</p>","","","","","","","",""
"html-keyboard-response","28","119484","0.0-7.0-0.21","5caca6b4a9acb200011a6547","64afc2c9a8732ea92db0087d","64aff81f5492d631bf9b3c3d","null","null","<p style=""font-size: 60px; font-family: BACS"">CchtdCmYA</p>","","","","","","","",""
"html-keyboard-response","29","120484","0.0-7.0-0.22","5caca6b4a9acb200011a6547","64afc2c9a8732ea92db0087d","64aff81f5492d631bf9b3c3d","null","null","<p style=""font-size: 60px; font-family: BACS"">lGZvkmU</p>","","","","","","","",""
"html-keyboard-response","30","121486","0.0-7.0-0.23","5caca6b4a9acb200011a6547","64afc2c9a8732ea92db0087d","64aff81f5492d631bf9b3c3d","null","null","<p style=""font-size: 60px; font-family: BACS"">CchtdhBK</p>","","","","","","","",""
"html-keyboard-response","31","122487","0.0-7.0-0.24","5caca6b4a9acb200011a6547","64afc2c9a8732ea92db0087d","64aff81f5492d631bf9b3c3d","null","null","<p style=""font-size: 60px; font-family: BACS"">cAZukmU</p>","","","","","","","",""
"html-keyboard-response","32","123489","0.0-7.0-0.25","5caca6b4a9acb200011a6547","64afc2c9a8732ea92db0087d","64aff81f5492d631bf9b3c3d","null","null","<p style=""font-size: 60px; font-family: BACS"">bNdmGNYZu</p>","","","","","","","",""
"html-keyboard-response","33","124489","0.0-7.0-0.26","5caca6b4a9acb200011a6547","64afc2c9a8732ea92db0087d","64aff81f5492d631bf9b3c3d","null","null","<p style=""font-size: 60px; font-family: BACS"">OmtlDCmYA</p>","","","","","","","",""
"html-keyboard-response","34","125491","0.0-7.0-0.27","5caca6b4a9acb200011a6547","64afc2c9a8732ea92db0087d","64aff81f5492d631bf9b3c3d","null","null","<p style=""font-size: 60px; font-family: BACS"">lbBDEhBK</p>","","","","","","","",""
"html-keyboard-response","35","126493","0.0-7.0-0.28","5caca6b4a9acb200011a6547","64afc2c9a8732ea92db0087d","64aff81f5492d631bf9b3c3d","null","null","<p style=""font-size: 60px; font-family: BACS"">PcBTOYK</p>","","","","","","","",""
"html-keyboard-response","36","127494","0.0-7.0-0.29","5caca6b4a9acb200011a6547","64afc2c9a8732ea92db0087d","64aff81f5492d631bf9b3c3d","null","null","<p style=""font-size: 60px; font-family: BACS"">YcdOkam</p>","","","","","","","",""
"html-keyboard-response","37","128496","0.0-7.0-0.30","5caca6b4a9acb200011a6547","64afc2c9a8732ea92db0087d","64aff81f5492d631bf9b3c3d","null","null","<p style=""font-size: 60px; font-family: BACS"">OkGYZAUu</p>","","","","","","","",""
"html-keyboard-response","38","129497","0.0-7.0-0.31","5caca6b4a9acb200011a6547","64afc2c9a8732ea92db0087d","64aff81f5492d631bf9b3c3d","null","null","<p style=""font-size: 60px; font-family: BACS"">QcladlGc</p>","","","","","","","",""
"html-keyboard-response","39","130498","0.0-7.0-0.32","5caca6b4a9acb200011a6547","64afc2c9a8732ea92db0087d","64aff81f5492d631bf9b3c3d","null","null","<p style=""font-size: 60px; font-family: BACS"">UvOGkam</p>","","","","","","","",""
"html-keyboard-response","40","131499","0.0-7.0-0.33","5caca6b4a9acb200011a6547","64afc2c9a8732ea92db0087d","64aff81f5492d631bf9b3c3d","null","null","<p style=""font-size: 60px; font-family: BACS"">tmAKOYK</p>","","","","","","","",""
"html-keyboard-response","41","132501","0.0-7.0-0.34","5caca6b4a9acb200011a6547","64afc2c9a8732ea92db0087d","64aff81f5492d631bf9b3c3d","null","null","<p style=""font-size: 60px; font-family: BACS"">lbBDEPMYm</p>","","","","","","","",""
"html-keyboard-response","42","133502","0.0-7.0-0.35","5caca6b4a9acb200011a6547","64afc2c9a8732ea92db0087d","64aff81f5492d631bf9b3c3d","null","null","<p style=""font-size: 60px; font-family: BACS"">aYQmNYZu</p>","","","","","","","",""
"html-keyboard-response","43","134504","0.0-7.0-0.36","5caca6b4a9acb200011a6547","64afc2c9a8732ea92db0087d","64aff81f5492d631bf9b3c3d","null","null","<p style=""font-size: 60px; font-family: BACS"">EYtYRPMYm</p>","","","","","","","",""
"html-keyboard-response","44","135505","0.0-7.0-0.37","5caca6b4a9acb200011a6547","64afc2c9a8732ea92db0087d","64aff81f5492d631bf9b3c3d","null","null","<p style=""font-size: 60px; font-family: BACS"">OkGYNYZu</p>","","","","","","","",""
"html-keyboard-response","45","136506","0.0-7.0-0.38","5caca6b4a9acb200011a6547","64afc2c9a8732ea92db0087d","64aff81f5492d631bf9b3c3d","null","null","<p style=""font-size: 60px; font-family: BACS"">kMbTRMKmY</p>","","","","","","","",""
"html-keyboard-response","46","137507","0.0-7.0-0.39","5caca6b4a9acb200011a6547","64afc2c9a8732ea92db0087d","64aff81f5492d631bf9b3c3d","null","null","<p style=""font-size: 60px; font-family: BACS"">tmAKhBK</p>","","","","","","","",""
"html-keyboard-response","47","138509","0.0-7.0-0.40","5caca6b4a9acb200011a6547","64afc2c9a8732ea92db0087d","64aff81f5492d631bf9b3c3d","null","null","<p style=""font-size: 60px; font-family: BACS"">ctktMKmY</p>","","","","","","","",""
"html-keyboard-response","48","139510","0.0-7.0-0.41","5caca6b4a9acb200011a6547","64afc2c9a8732ea92db0087d","64aff81f5492d631bf9b3c3d","null","null","<p style=""font-size: 60px; font-family: BACS"">kMbTRCmYA</p>","","","","","","","",""
"html-keyboard-response","49","140511","0.0-7.0-0.42","5caca6b4a9acb200011a6547","64afc2c9a8732ea92db0087d","64aff81f5492d631bf9b3c3d","null","null","<p style=""font-size: 60px; font-family: BACS"">UrOQNYZu</p>","","","","","","","",""
"html-keyboard-response","50","141512","0.0-7.0-0.43","5caca6b4a9acb200011a6547","64afc2c9a8732ea92db0087d","64aff81f5492d631bf9b3c3d","null","null","<p style=""font-size: 60px; font-family: BACS"">PcBTMKmY</p>","","","","","","","",""
"html-keyboard-response","51","142514","0.0-7.0-0.44","5caca6b4a9acb200011a6547","64afc2c9a8732ea92db0087d","64aff81f5492d631bf9b3c3d","null","null","<p style=""font-size: 60px; font-family: BACS"">UrOQkam</p>","","","","","","","",""
"html-keyboard-response","52","143515","0.0-7.0-0.45","5caca6b4a9acb200011a6547","64afc2c9a8732ea92db0087d","64aff81f5492d631bf9b3c3d","null","null","<p style=""font-size: 60px; font-family: BACS"">YcdONYZu</p>","","","","","","","",""
"html-keyboard-response","53","144516","0.0-7.0-0.46","5caca6b4a9acb200011a6547","64afc2c9a8732ea92db0087d","64aff81f5492d631bf9b3c3d","null","null","<p style=""font-size: 60px; font-family: BACS"">lGZvZAUu</p>","","","","","","","",""
"html-keyboard-response","54","145518","0.0-7.0-0.47","5caca6b4a9acb200011a6547","64afc2c9a8732ea92db0087d","64aff81f5492d631bf9b3c3d","null","null","<p style=""font-size: 60px; font-family: BACS"">OmtlDOYK</p>","","","","","","","",""
"html-keyboard-response","55","146519","0.0-7.0-0.48","5caca6b4a9acb200011a6547","64afc2c9a8732ea92db0087d","64aff81f5492d631bf9b3c3d","null","null","<p style=""font-size: 60px; font-family: BACS"">TEBKhBK</p>","","","","","","","",""
"html-keyboard-response","56","147521","0.0-7.0-0.49","5caca6b4a9acb200011a6547","64afc2c9a8732ea92db0087d","64aff81f5492d631bf9b3c3d","null","null","<p style=""font-size: 60px; font-family: BACS"">YcdOkmU</p>","","","","","","","",""
"html-keyboard-response","57","148522","0.0-7.0-0.50","5caca6b4a9acb200011a6547","64afc2c9a8732ea92db0087d","64aff81f5492d631bf9b3c3d","null","null","<p style=""font-size: 60px; font-family: BACS"">UvOGNYZu</p>","","","","","","","",""
"html-keyboard-response","58","149523","0.0-7.0-0.51","5caca6b4a9acb200011a6547","64afc2c9a8732ea92db0087d","64aff81f5492d631bf9b3c3d","null","null","<p style=""font-size: 60px; font-family: BACS"">lbBDEMKmY</p>","","","","","","","",""
"html-keyboard-response","59","150525","0.0-7.0-0.52","5caca6b4a9acb200011a6547","64afc2c9a8732ea92db0087d","64aff81f5492d631bf9b3c3d","null","null","<p style=""font-size: 60px; font-family: BACS"">tmAKPMYm</p>","","","","","","","",""
"html-keyboard-response","60","151525","0.0-7.0-0.53","5caca6b4a9acb200011a6547","64afc2c9a8732ea92db0087d","64aff81f5492d631bf9b3c3d","null","null","<p style=""font-size: 60px; font-family: BACS"">UrOQlGc</p>","","","","","","","",""
"html-keyboard-response","61","152527","0.0-7.0-0.54","5caca6b4a9acb200011a6547","64afc2c9a8732ea92db0087d","64aff81f5492d631bf9b3c3d","null","null","<p style=""font-size: 60px; font-family: BACS"">EYtYROYK</p>","","","","","","","",""
"html-keyboard-response","62","153528","0.0-7.0-0.55","5caca6b4a9acb200011a6547","64afc2c9a8732ea92db0087d","64aff81f5492d631bf9b3c3d","null","null","<p style=""font-size: 60px; font-family: BACS"">lGZvkam</p>","","","","","","","",""
"html-keyboard-response","63","154529","0.0-7.0-0.56","5caca6b4a9acb200011a6547","64afc2c9a8732ea92db0087d","64aff81f5492d631bf9b3c3d","null","null","<p style=""font-size: 60px; font-family: BACS"">OmtlDhBK</p>","","","","","","","",""
"html-keyboard-response","64","155530","0.0-7.0-0.57","5caca6b4a9acb200011a6547","64afc2c9a8732ea92db0087d","64aff81f5492d631bf9b3c3d","null","null","<p style=""font-size: 60px; font-family: BACS"">Qcladkam</p>","","","","","","","",""
"html-keyboard-response","65","156531","0.0-7.0-0.58","5caca6b4a9acb200011a6547","64afc2c9a8732ea92db0087d","64aff81f5492d631bf9b3c3d","null","null","<p style=""font-size: 60px; font-family: BACS"">bNdmGlGc</p>","","","","","","","",""
"html-keyboard-response","66","157533","0.0-7.0-0.59","5caca6b4a9acb200011a6547","64afc2c9a8732ea92db0087d","64aff81f5492d631bf9b3c3d","null","null","<p style=""font-size: 60px; font-family: BACS"">TEBKCmYA</p>","","","","","","","",""
"html-keyboard-response","67","158533","0.0-7.0-0.60","5caca6b4a9acb200011a6547","64afc2c9a8732ea92db0087d","64aff81f5492d631bf9b3c3d","null","null","<p style=""font-size: 60px; font-family: BACS"">bNdmGkam</p>","","","","","","","",""
"html-keyboard-response","68","159535","0.0-7.0-0.61","5caca6b4a9acb200011a6547","64afc2c9a8732ea92db0087d","64aff81f5492d631bf9b3c3d","null","null","<p style=""font-size: 60px; font-family: BACS"">kMbTRPMYm</p>","","","","","","","",""
"html-keyboard-response","69","160536","0.0-7.0-0.62","5caca6b4a9acb200011a6547","64afc2c9a8732ea92db0087d","64aff81f5492d631bf9b3c3d","null","null","<p style=""font-size: 60px; font-family: BACS"">MhKdOYK</p>","","","","","","","",""
"html-keyboard-response","70","161538","0.0-7.0-0.63","5caca6b4a9acb200011a6547","64afc2c9a8732ea92db0087d","64aff81f5492d631bf9b3c3d","null","null","<p style=""font-size: 60px; font-family: BACS"">CchtdPMYm</p>","","","","","","","",""
"html-keyboard-response","71","162539","0.0-7.0-0.64","5caca6b4a9acb200011a6547","64afc2c9a8732ea92db0087d","64aff81f5492d631bf9b3c3d","null","null","<p style=""font-size: 60px; font-family: BACS"">EYtYRhBK</p>","","","","","","","",""
"html-keyboard-response","72","163540","0.0-7.0-0.65","5caca6b4a9acb200011a6547","64afc2c9a8732ea92db0087d","64aff81f5492d631bf9b3c3d","null","null","<p style=""font-size: 60px; font-family: BACS"">AmQOYZAUu</p>","","","","","","","",""
"html-keyboard-response","73","164542","0.0-7.0-0.66","5caca6b4a9acb200011a6547","64afc2c9a8732ea92db0087d","64aff81f5492d631bf9b3c3d","null","null","<p style=""font-size: 60px; font-family: BACS"">MhKdhBK</p>","","","","","","","",""
"html-keyboard-response","74","165542","0.0-7.0-0.67","5caca6b4a9acb200011a6547","64afc2c9a8732ea92db0087d","64aff81f5492d631bf9b3c3d","null","null","<p style=""font-size: 60px; font-family: BACS"">CchtdOYK</p>","","","","","","","",""
"html-keyboard-response","75","166544","0.0-7.0-0.68","5caca6b4a9acb200011a6547","64afc2c9a8732ea92db0087d","64aff81f5492d631bf9b3c3d","null","null","<p style=""font-size: 60px; font-family: BACS"">QcladkmU</p>","","","","","","","",""
"html-keyboard-response","76","167544","0.0-7.0-0.69","5caca6b4a9acb200011a6547","64afc2c9a8732ea92db0087d","64aff81f5492d631bf9b3c3d","null","null","<p style=""font-size: 60px; font-family: BACS"">ctktPMYm</p>","","","","","","","",""
"html-keyboard-response","77","168546","0.0-7.0-0.70","5caca6b4a9acb200011a6547","64afc2c9a8732ea92db0087d","64aff81f5492d631bf9b3c3d","null","null","<p style=""font-size: 60px; font-family: BACS"">cAZukam</p>","","","","","","","",""
"html-keyboard-response","78","169547","0.0-7.0-0.71","5caca6b4a9acb200011a6547","64afc2c9a8732ea92db0087d","64aff81f5492d631bf9b3c3d","null","null","<p style=""font-size: 60px; font-family: BACS"">lGZvlGc</p>","","","","","","","",""
"html-keyboard-response","79","170549","0.0-7.0-0.72","5caca6b4a9acb200011a6547","64afc2c9a8732ea92db0087d","64aff81f5492d631bf9b3c3d","null","null","<p style=""font-size: 60px; font-family: BACS"">lbBDECmYA</p>","","","","","","","",""
"html-keyboard-response","80","171550","0.0-7.0-0.73","5caca6b4a9acb200011a6547","64afc2c9a8732ea92db0087d","64aff81f5492d631bf9b3c3d","null","null","<p style=""font-size: 60px; font-family: BACS"">bNdmGkmU</p>","","","","","","","",""
"html-keyboard-response","81","172551","0.0-7.0-0.74","5caca6b4a9acb200011a6547","64afc2c9a8732ea92db0087d","64aff81f5492d631bf9b3c3d","null","null","<p style=""font-size: 60px; font-family: BACS"">UvOGlGc</p>","","","","","","","",""
"html-keyboard-response","82","173552","0.0-7.0-0.75","5caca6b4a9acb200011a6547","64afc2c9a8732ea92db0087d","64aff81f5492d631bf9b3c3d","null","null","<p style=""font-size: 60px; font-family: BACS"">TEBKOYK</p>","","","","","","","",""
"html-keyboard-response","83","174554","0.0-7.0-0.76","5caca6b4a9acb200011a6547","64afc2c9a8732ea92db0087d","64aff81f5492d631bf9b3c3d","null","null","<p style=""font-size: 60px; font-family: BACS"">AmQOYkmU</p>","","","","","","","",""
"html-keyboard-response","84","175554","0.0-7.0-0.77","5caca6b4a9acb200011a6547","64afc2c9a8732ea92db0087d","64aff81f5492d631bf9b3c3d","null","null","<p style=""font-size: 60px; font-family: BACS"">MhKdPMYm</p>","","","","","","","",""
"html-keyboard-response","85","176556","0.0-7.0-0.78","5caca6b4a9acb200011a6547","64afc2c9a8732ea92db0087d","64aff81f5492d631bf9b3c3d","null","null","<p style=""font-size: 60px; font-family: BACS"">ctktCmYA</p>","","","","","","","",""
"html-keyboard-response","86","177557","0.0-7.0-0.79","5caca6b4a9acb200011a6547","64afc2c9a8732ea92db0087d","64aff81f5492d631bf9b3c3d","null","null","<p style=""font-size: 60px; font-family: BACS"">OkGYkam</p>","","","","","","","",""
"html-keyboard-response","87","199833","0.0-8.0","5caca6b4a9acb200011a6547","64afc2c9a8732ea92db0087d","64aff81f5492d631bf9b3c3d","22274"," ","<p>Ottimo, hai visto il primo blocco di parole. Ora puoi prenderti una piccola pausa.</p>
      <p>Premi la barra quando sei pronta/o per riprendere.</p>","","","","","","","",""
"html-keyboard-response","88","200834","0.0-9.0-0.0","5caca6b4a9acb200011a6547","64afc2c9a8732ea92db0087d","64aff81f5492d631bf9b3c3d","null","null","<p style=""font-size: 60px; font-family: BACS"">QcladkmU</p>","","","","","","","",""
"html-keyboard-response","89","201835","0.0-9.0-0.1","5caca6b4a9acb200011a6547","64afc2c9a8732ea92db0087d","64aff81f5492d631bf9b3c3d","null","null","<p style=""font-size: 60px; font-family: BACS"">aYQmZAUu</p>","","","","","","","",""
"html-keyboard-response","90","202837","0.0-9.0-0.2","5caca6b4a9acb200011a6547","64afc2c9a8732ea92db0087d","64aff81f5492d631bf9b3c3d","null","null","<p style=""font-size: 60px; font-family: BACS"">UrOQlGc</p>","","","","","","","",""
"html-keyboard-response","91","203838","0.0-9.0-0.3","5caca6b4a9acb200011a6547","64afc2c9a8732ea92db0087d","64aff81f5492d631bf9b3c3d","null","null","<p style=""font-size: 60px; font-family: BACS"">CchtdCmYA</p>","","","","","","","",""
"html-keyboard-response","92","204842","0.0-9.0-0.4","5caca6b4a9acb200011a6547","64afc2c9a8732ea92db0087d","64aff81f5492d631bf9b3c3d","null","null","<p style=""font-size: 60px; font-family: BACS"">lGZvkmU</p>","","","","","","","",""
"html-keyboard-response","93","205850","0.0-9.0-0.5","5caca6b4a9acb200011a6547","64afc2c9a8732ea92db0087d","64aff81f5492d631bf9b3c3d","null","null","<p style=""font-size: 60px; font-family: BACS"">YcdONYZu</p>","","","","","","","",""
"html-keyboard-response","94","206853","0.0-9.0-0.6","5caca6b4a9acb200011a6547","64afc2c9a8732ea92db0087d","64aff81f5492d631bf9b3c3d","null","null","<p style=""font-size: 60px; font-family: BACS"">TEBKOYK</p>","","","","","","","",""
"html-keyboard-response","95","207854","0.0-9.0-0.7","5caca6b4a9acb200011a6547","64afc2c9a8732ea92db0087d","64aff81f5492d631bf9b3c3d","null","null","<p style=""font-size: 60px; font-family: BACS"">UvOGNYZu</p>","","","","","","","",""
"html-keyboard-response","96","208856","0.0-9.0-0.8","5caca6b4a9acb200011a6547","64afc2c9a8732ea92db0087d","64aff81f5492d631bf9b3c3d","null","null","<p style=""font-size: 60px; font-family: BACS"">OmtlDMKmY</p>","","","","","","","",""
"html-keyboard-response","97","209859","0.0-9.0-0.9","5caca6b4a9acb200011a6547","64afc2c9a8732ea92db0087d","64aff81f5492d631bf9b3c3d","null","null","<p style=""font-size: 60px; font-family: BACS"">YcdOZAUu</p>","","","","","","","",""
"html-keyboard-response","98","210861","0.0-9.0-0.10","5caca6b4a9acb200011a6547","64afc2c9a8732ea92db0087d","64aff81f5492d631bf9b3c3d","null","null","<p style=""font-size: 60px; font-family: BACS"">OmtlDhBK</p>","","","","","","","",""
"html-keyboard-response","99","211863","0.0-9.0-0.11","5caca6b4a9acb200011a6547","64afc2c9a8732ea92db0087d","64aff81f5492d631bf9b3c3d","null","null","<p style=""font-size: 60px; font-family: BACS"">AmQOYNYZu</p>","","","","","","","",""
"html-keyboard-response","100","212865","0.0-9.0-0.12","5caca6b4a9acb200011a6547","64afc2c9a8732ea92db0087d","64aff81f5492d631bf9b3c3d","null","null","<p style=""font-size: 60px; font-family: BACS"">lbBDEhBK</p>","","","","","","","",""
"html-keyboard-response","101","213867","0.0-9.0-0.13","5caca6b4a9acb200011a6547","64afc2c9a8732ea92db0087d","64aff81f5492d631bf9b3c3d","null","null","<p style=""font-size: 60px; font-family: BACS"">bNdmGkam</p>","","","","","","","",""
"html-keyboard-response","102","214869","0.0-9.0-0.14","5caca6b4a9acb200011a6547","64afc2c9a8732ea92db0087d","64aff81f5492d631bf9b3c3d","null","null","<p style=""font-size: 60px; font-family: BACS"">UrOQZAUu</p>","","","","","","","",""
"html-keyboard-response","103","215871","0.0-9.0-0.15","5caca6b4a9acb200011a6547","64afc2c9a8732ea92db0087d","64aff81f5492d631bf9b3c3d","null","null","<p style=""font-size: 60px; font-family: BACS"">UvOGkam</p>","","","","","","","",""
"html-keyboard-response","104","216873","0.0-9.0-0.16","5caca6b4a9acb200011a6547","64afc2c9a8732ea92db0087d","64aff81f5492d631bf9b3c3d","null","null","<p style=""font-size: 60px; font-family: BACS"">cAZulGc</p>","","","","","","","",""
"html-keyboard-response","105","217875","0.0-9.0-0.17","5caca6b4a9acb200011a6547","64afc2c9a8732ea92db0087d","64aff81f5492d631bf9b3c3d","null","null","<p style=""font-size: 60px; font-family: BACS"">AmQOYZAUu</p>","","","","","","","",""
"html-keyboard-response","106","218876","0.0-9.0-0.18","5caca6b4a9acb200011a6547","64afc2c9a8732ea92db0087d","64aff81f5492d631bf9b3c3d","null","null","<p style=""font-size: 60px; font-family: BACS"">OmtlDCmYA</p>","","","","","","","",""
"html-keyboard-response","107","219876","0.0-9.0-0.19","5caca6b4a9acb200011a6547","64afc2c9a8732ea92db0087d","64aff81f5492d631bf9b3c3d","null","null","<p style=""font-size: 60px; font-family: BACS"">MhKdMKmY</p>","","","","","","","",""
"html-keyboard-response","108","220879","0.0-9.0-0.20","5caca6b4a9acb200011a6547","64afc2c9a8732ea92db0087d","64aff81f5492d631bf9b3c3d","null","null","<p style=""font-size: 60px; font-family: BACS"">lGZvZAUu</p>","","","","","","","",""
"html-keyboard-response","109","221880","0.0-9.0-0.21","5caca6b4a9acb200011a6547","64afc2c9a8732ea92db0087d","64aff81f5492d631bf9b3c3d","null","null","<p style=""font-size: 60px; font-family: BACS"">EYtYROYK</p>","","","","","","","",""
"html-keyboard-response","110","222881","0.0-9.0-0.22","5caca6b4a9acb200011a6547","64afc2c9a8732ea92db0087d","64aff81f5492d631bf9b3c3d","null","null","<p style=""font-size: 60px; font-family: BACS"">OkGYZAUu</p>","","","","","","","",""
"html-keyboard-response","111","223883","0.0-9.0-0.23","5caca6b4a9acb200011a6547","64afc2c9a8732ea92db0087d","64aff81f5492d631bf9b3c3d","null","null","<p style=""font-size: 60px; font-family: BACS"">tmAKPMYm</p>","","","","","","","",""
"html-keyboard-response","112","224884","0.0-9.0-0.24","5caca6b4a9acb200011a6547","64afc2c9a8732ea92db0087d","64aff81f5492d631bf9b3c3d","null","null","<p style=""font-size: 60px; font-family: BACS"">cAZuZAUu</p>","","","","","","","",""
"html-keyboard-response","113","225886","0.0-9.0-0.25","5caca6b4a9acb200011a6547","64afc2c9a8732ea92db0087d","64aff81f5492d631bf9b3c3d","null","null","<p style=""font-size: 60px; font-family: BACS"">bNdmGkmU</p>","","","","","","","",""
"html-keyboard-response","114","226887","0.0-9.0-0.26","5caca6b4a9acb200011a6547","64afc2c9a8732ea92db0087d","64aff81f5492d631bf9b3c3d","null","null","<p style=""font-size: 60px; font-family: BACS"">UvOGlGc</p>","","","","","","","",""
"html-keyboard-response","115","227888","0.0-9.0-0.27","5caca6b4a9acb200011a6547","64afc2c9a8732ea92db0087d","64aff81f5492d631bf9b3c3d","null","null","<p style=""font-size: 60px; font-family: BACS"">MhKdhBK</p>","","","","","","","",""
"html-keyboard-response","116","228890","0.0-9.0-0.28","5caca6b4a9acb200011a6547","64afc2c9a8732ea92db0087d","64aff81f5492d631bf9b3c3d","null","null","<p style=""font-size: 60px; font-family: BACS"">tmAKMKmY</p>","","","","","","","",""
"html-keyboard-response","117","229891","0.0-9.0-0.29","5caca6b4a9acb200011a6547","64afc2c9a8732ea92db0087d","64aff81f5492d631bf9b3c3d","null","null","<p style=""font-size: 60px; font-family: BACS"">aYQmlGc</p>","","","","","","","",""
"html-keyboard-response","118","230893","0.0-9.0-0.30","5caca6b4a9acb200011a6547","64afc2c9a8732ea92db0087d","64aff81f5492d631bf9b3c3d","null","null","<p style=""font-size: 60px; font-family: BACS"">ctkthBK</p>","","","","","","","",""
"html-keyboard-response","119","231894","0.0-9.0-0.31","5caca6b4a9acb200011a6547","64afc2c9a8732ea92db0087d","64aff81f5492d631bf9b3c3d","null","null","<p style=""font-size: 60px; font-family: BACS"">Qcladkam</p>","","","","","","","",""
"html-keyboard-response","120","232896","0.0-9.0-0.32","5caca6b4a9acb200011a6547","64afc2c9a8732ea92db0087d","64aff81f5492d631bf9b3c3d","null","null","<p style=""font-size: 60px; font-family: BACS"">ctktPMYm</p>","","","","","","","",""
"html-keyboard-response","121","233896","0.0-9.0-0.33","5caca6b4a9acb200011a6547","64afc2c9a8732ea92db0087d","64aff81f5492d631bf9b3c3d","null","null","<p style=""font-size: 60px; font-family: BACS"">aYQmkmU</p>","","","","","","","",""
"html-keyboard-response","122","234898","0.0-9.0-0.34","5caca6b4a9acb200011a6547","64afc2c9a8732ea92db0087d","64aff81f5492d631bf9b3c3d","null","null","<p style=""font-size: 60px; font-family: BACS"">lGZvkam</p>","","","","","","","",""
"html-keyboard-response","123","235899","0.0-9.0-0.35","5caca6b4a9acb200011a6547","64afc2c9a8732ea92db0087d","64aff81f5492d631bf9b3c3d","null","null","<p style=""font-size: 60px; font-family: BACS"">MhKdOYK</p>","","","","","","","",""
"html-keyboard-response","124","236901","0.0-9.0-0.36","5caca6b4a9acb200011a6547","64afc2c9a8732ea92db0087d","64aff81f5492d631bf9b3c3d","null","null","<p style=""font-size: 60px; font-family: BACS"">QcladlGc</p>","","","","","","","",""
"html-keyboard-response","125","237901","0.0-9.0-0.37","5caca6b4a9acb200011a6547","64afc2c9a8732ea92db0087d","64aff81f5492d631bf9b3c3d","null","null","<p style=""font-size: 60px; font-family: BACS"">EYtYRhBK</p>","","","","","","","",""
"html-keyboard-response","126","238903","0.0-9.0-0.38","5caca6b4a9acb200011a6547","64afc2c9a8732ea92db0087d","64aff81f5492d631bf9b3c3d","null","null","<p style=""font-size: 60px; font-family: BACS"">YcdOkmU</p>","","","","","","","",""
"html-keyboard-response","127","239904","0.0-9.0-0.39","5caca6b4a9acb200011a6547","64afc2c9a8732ea92db0087d","64aff81f5492d631bf9b3c3d","null","null","<p style=""font-size: 60px; font-family: BACS"">bNdmGlGc</p>","","","","","","","",""
"html-keyboard-response","128","240906","0.0-9.0-0.40","5caca6b4a9acb200011a6547","64afc2c9a8732ea92db0087d","64aff81f5492d631bf9b3c3d","null","null","<p style=""font-size: 60px; font-family: BACS"">PcBTCmYA</p>","","","","","","","",""
"html-keyboard-response","129","241907","0.0-9.0-0.41","5caca6b4a9acb200011a6547","64afc2c9a8732ea92db0087d","64aff81f5492d631bf9b3c3d","null","null","<p style=""font-size: 60px; font-family: BACS"">kMbTRMKmY</p>","","","","","","","",""
"html-keyboard-response","130","242909","0.0-9.0-0.42","5caca6b4a9acb200011a6547","64afc2c9a8732ea92db0087d","64aff81f5492d631bf9b3c3d","null","null","<p style=""font-size: 60px; font-family: BACS"">OkGYkam</p>","","","","","","","",""
"html-keyboard-response","131","243910","0.0-9.0-0.43","5caca6b4a9acb200011a6547","64afc2c9a8732ea92db0087d","64aff81f5492d631bf9b3c3d","null","null","<p style=""font-size: 60px; font-family: BACS"">kMbTRPMYm</p>","","","","","","","",""
"html-keyboard-response","132","244912","0.0-9.0-0.44","5caca6b4a9acb200011a6547","64afc2c9a8732ea92db0087d","64aff81f5492d631bf9b3c3d","null","null","<p style=""font-size: 60px; font-family: BACS"">TEBKCmYA</p>","","","","","","","",""
"html-keyboard-response","133","245913","0.0-9.0-0.45","5caca6b4a9acb200011a6547","64afc2c9a8732ea92db0087d","64aff81f5492d631bf9b3c3d","null","null","<p style=""font-size: 60px; font-family: BACS"">CchtdPMYm</p>","","","","","","","",""
"html-keyboard-response","134","246915","0.0-9.0-0.46","5caca6b4a9acb200011a6547","64afc2c9a8732ea92db0087d","64aff81f5492d631bf9b3c3d","null","null","<p style=""font-size: 60px; font-family: BACS"">AmQOYkmU</p>","","","","","","","",""
"html-keyboard-response","135","247916","0.0-9.0-0.47","5caca6b4a9acb200011a6547","64afc2c9a8732ea92db0087d","64aff81f5492d631bf9b3c3d","null","null","<p style=""font-size: 60px; font-family: BACS"">PcBTMKmY</p>","","","","","","","",""
"html-keyboard-response","136","248917","0.0-9.0-0.48","5caca6b4a9acb200011a6547","64afc2c9a8732ea92db0087d","64aff81f5492d631bf9b3c3d","null","null","<p style=""font-size: 60px; font-family: BACS"">EYtYRCmYA</p>","","","","","","","",""
"html-keyboard-response","137","249918","0.0-9.0-0.49","5caca6b4a9acb200011a6547","64afc2c9a8732ea92db0087d","64aff81f5492d631bf9b3c3d","null","null","<p style=""font-size: 60px; font-family: BACS"">UrOQNYZu</p>","","","","","","","",""
"html-keyboard-response","138","250920","0.0-9.0-0.50","5caca6b4a9acb200011a6547","64afc2c9a8732ea92db0087d","64aff81f5492d631bf9b3c3d","null","null","<p style=""font-size: 60px; font-family: BACS"">cAZukmU</p>","","","","","","","",""
"html-keyboard-response","139","251921","0.0-9.0-0.51","5caca6b4a9acb200011a6547","64afc2c9a8732ea92db0087d","64aff81f5492d631bf9b3c3d","null","null","<p style=""font-size: 60px; font-family: BACS"">ctktMKmY</p>","","","","","","","",""
"html-keyboard-response","140","252922","0.0-9.0-0.52","5caca6b4a9acb200011a6547","64afc2c9a8732ea92db0087d","64aff81f5492d631bf9b3c3d","null","null","<p style=""font-size: 60px; font-family: BACS"">OkGYkmU</p>","","","","","","","",""
"html-keyboard-response","141","253924","0.0-9.0-0.53","5caca6b4a9acb200011a6547","64afc2c9a8732ea92db0087d","64aff81f5492d631bf9b3c3d","null","null","<p style=""font-size: 60px; font-family: BACS"">TEBKMKmY</p>","","","","","","","",""
"html-keyboard-response","142","254926","0.0-9.0-0.54","5caca6b4a9acb200011a6547","64afc2c9a8732ea92db0087d","64aff81f5492d631bf9b3c3d","null","null","<p style=""font-size: 60px; font-family: BACS"">lbBDEPMYm</p>","","","","","","","",""
"html-keyboard-response","143","255926","0.0-9.0-0.55","5caca6b4a9acb200011a6547","64afc2c9a8732ea92db0087d","64aff81f5492d631bf9b3c3d","null","null","<p style=""font-size: 60px; font-family: BACS"">OkGYNYZu</p>","","","","","","","",""
"html-keyboard-response","144","256928","0.0-9.0-0.56","5caca6b4a9acb200011a6547","64afc2c9a8732ea92db0087d","64aff81f5492d631bf9b3c3d","null","null","<p style=""font-size: 60px; font-family: BACS"">AmQOYlGc</p>","","","","","","","",""
"html-keyboard-response","145","257929","0.0-9.0-0.57","5caca6b4a9acb200011a6547","64afc2c9a8732ea92db0087d","64aff81f5492d631bf9b3c3d","null","null","<p style=""font-size: 60px; font-family: BACS"">UrOQkam</p>","","","","","","","",""
"html-keyboard-response","146","258931","0.0-9.0-0.58","5caca6b4a9acb200011a6547","64afc2c9a8732ea92db0087d","64aff81f5492d631bf9b3c3d","null","null","<p style=""font-size: 60px; font-family: BACS"">TEBKhBK</p>","","","","","","","",""
"html-keyboard-response","147","259932","0.0-9.0-0.59","5caca6b4a9acb200011a6547","64afc2c9a8732ea92db0087d","64aff81f5492d631bf9b3c3d","null","null","<p style=""font-size: 60px; font-family: BACS"">UvOGZAUu</p>","","","","","","","",""
"html-keyboard-response","148","260934","0.0-9.0-0.60","5caca6b4a9acb200011a6547","64afc2c9a8732ea92db0087d","64aff81f5492d631bf9b3c3d","null","null","<p style=""font-size: 60px; font-family: BACS"">CchtdOYK</p>","","","","","","","",""
"html-keyboard-response","149","261935","0.0-9.0-0.61","5caca6b4a9acb200011a6547","64afc2c9a8732ea92db0087d","64aff81f5492d631bf9b3c3d","null","null","<p style=""font-size: 60px; font-family: BACS"">tmAKhBK</p>","","","","","","","",""
"html-keyboard-response","150","262936","0.0-9.0-0.62","5caca6b4a9acb200011a6547","64afc2c9a8732ea92db0087d","64aff81f5492d631bf9b3c3d","null","null","<p style=""font-size: 60px; font-family: BACS"">EYtYRPMYm</p>","","","","","","","",""
"html-keyboard-response","151","263937","0.0-9.0-0.63","5caca6b4a9acb200011a6547","64afc2c9a8732ea92db0087d","64aff81f5492d631bf9b3c3d","null","null","<p style=""font-size: 60px; font-family: BACS"">tmAKOYK</p>","","","","","","","",""
"html-keyboard-response","152","264939","0.0-9.0-0.64","5caca6b4a9acb200011a6547","64afc2c9a8732ea92db0087d","64aff81f5492d631bf9b3c3d","null","null","<p style=""font-size: 60px; font-family: BACS"">kMbTRCmYA</p>","","","","","","","",""
"html-keyboard-response","153","265943","0.0-9.0-0.65","5caca6b4a9acb200011a6547","64afc2c9a8732ea92db0087d","64aff81f5492d631bf9b3c3d","null","null","<p style=""font-size: 60px; font-family: BACS"">lGZvlGc</p>","","","","","","","",""
"html-keyboard-response","154","266946","0.0-9.0-0.66","5caca6b4a9acb200011a6547","64afc2c9a8732ea92db0087d","64aff81f5492d631bf9b3c3d","null","null","<p style=""font-size: 60px; font-family: BACS"">lbBDEMKmY</p>","","","","","","","",""
"html-keyboard-response","155","267948","0.0-9.0-0.67","5caca6b4a9acb200011a6547","64afc2c9a8732ea92db0087d","64aff81f5492d631bf9b3c3d","null","null","<p style=""font-size: 60px; font-family: BACS"">YcdOkam</p>","","","","","","","",""
"html-keyboard-response","156","268950","0.0-9.0-0.68","5caca6b4a9acb200011a6547","64afc2c9a8732ea92db0087d","64aff81f5492d631bf9b3c3d","null","null","<p style=""font-size: 60px; font-family: BACS"">CchtdhBK</p>","","","","","","","",""
"html-keyboard-response","157","269952","0.0-9.0-0.69","5caca6b4a9acb200011a6547","64afc2c9a8732ea92db0087d","64aff81f5492d631bf9b3c3d","null","null","<p style=""font-size: 60px; font-family: BACS"">lbBDECmYA</p>","","","","","","","",""
"html-keyboard-response","158","270954","0.0-9.0-0.70","5caca6b4a9acb200011a6547","64afc2c9a8732ea92db0087d","64aff81f5492d631bf9b3c3d","null","null","<p style=""font-size: 60px; font-family: BACS"">kMbTROYK</p>","","","","","","","",""
"html-keyboard-response","159","271955","0.0-9.0-0.71","5caca6b4a9acb200011a6547","64afc2c9a8732ea92db0087d","64aff81f5492d631bf9b3c3d","null","null","<p style=""font-size: 60px; font-family: BACS"">bNdmGNYZu</p>","","","","","","","",""
"html-keyboard-response","160","272957","0.0-9.0-0.72","5caca6b4a9acb200011a6547","64afc2c9a8732ea92db0087d","64aff81f5492d631bf9b3c3d","null","null","<p style=""font-size: 60px; font-family: BACS"">MhKdPMYm</p>","","","","","","","",""
"html-keyboard-response","161","273959","0.0-9.0-0.73","5caca6b4a9acb200011a6547","64afc2c9a8732ea92db0087d","64aff81f5492d631bf9b3c3d","null","null","<p style=""font-size: 60px; font-family: BACS"">QcladNYZu</p>","","","","","","","",""
"html-keyboard-response","162","274961","0.0-9.0-0.74","5caca6b4a9acb200011a6547","64afc2c9a8732ea92db0087d","64aff81f5492d631bf9b3c3d","null","null","<p style=""font-size: 60px; font-family: BACS"">ctktCmYA</p>","","","","","","","",""
"html-keyboard-response","163","275963","0.0-9.0-0.75","5caca6b4a9acb200011a6547","64afc2c9a8732ea92db0087d","64aff81f5492d631bf9b3c3d","null","null","<p style=""font-size: 60px; font-family: BACS"">aYQmNYZu</p>","","","","","","","",""
"html-keyboard-response","164","276966","0.0-9.0-0.76","5caca6b4a9acb200011a6547","64afc2c9a8732ea92db0087d","64aff81f5492d631bf9b3c3d","null","null","<p style=""font-size: 60px; font-family: BACS"">OmtlDOYK</p>","","","","","","","",""
"html-keyboard-response","165","277966","0.0-9.0-0.77","5caca6b4a9acb200011a6547","64afc2c9a8732ea92db0087d","64aff81f5492d631bf9b3c3d","null","null","<p style=""font-size: 60px; font-family: BACS"">PcBTPMYm</p>","","","","","","","",""
"html-keyboard-response","166","278969","0.0-9.0-0.78","5caca6b4a9acb200011a6547","64afc2c9a8732ea92db0087d","64aff81f5492d631bf9b3c3d","null","null","<p style=""font-size: 60px; font-family: BACS"">cAZukam</p>","","","","","","","",""
"html-keyboard-response","167","279969","0.0-9.0-0.79","5caca6b4a9acb200011a6547","64afc2c9a8732ea92db0087d","64aff81f5492d631bf9b3c3d","null","null","<p style=""font-size: 60px; font-family: BACS"">PcBTOYK</p>","","","","","","","",""
"html-keyboard-response","168","288962","0.0-10.0","5caca6b4a9acb200011a6547","64afc2c9a8732ea92db0087d","64aff81f5492d631bf9b3c3d","8991"," ","<p>Ottimo, hai visto il secondo blocco di parole. Ora puoi prenderti una piccola pausa.</p>
      <p>Premi la barra quando sei pronta/o per riprendere.</p>","","","","","","","",""
"html-keyboard-response","169","289964","0.0-11.0-0.0","5caca6b4a9acb200011a6547","64afc2c9a8732ea92db0087d","64aff81f5492d631bf9b3c3d","null","null","<p style=""font-size: 60px; font-family: BACS"">tmAKMKmY</p>","","","","","","","",""
"html-keyboard-response","170","290965","0.0-11.0-0.1","5caca6b4a9acb200011a6547","64afc2c9a8732ea92db0087d","64aff81f5492d631bf9b3c3d","null","null","<p style=""font-size: 60px; font-family: BACS"">YcdOkmU</p>","","","","","","","",""
"html-keyboard-response","171","291967","0.0-11.0-0.2","5caca6b4a9acb200011a6547","64afc2c9a8732ea92db0087d","64aff81f5492d631bf9b3c3d","null","null","<p style=""font-size: 60px; font-family: BACS"">TEBKOYK</p>","","","","","","","",""
"html-keyboard-response","172","292968","0.0-11.0-0.3","5caca6b4a9acb200011a6547","64afc2c9a8732ea92db0087d","64aff81f5492d631bf9b3c3d","null","null","<p style=""font-size: 60px; font-family: BACS"">bNdmGlGc</p>","","","","","","","",""
"html-keyboard-response","173","293970","0.0-11.0-0.4","5caca6b4a9acb200011a6547","64afc2c9a8732ea92db0087d","64aff81f5492d631bf9b3c3d","null","null","<p style=""font-size: 60px; font-family: BACS"">lbBDEPMYm</p>","","","","","","","",""
"html-keyboard-response","174","294971","0.0-11.0-0.5","5caca6b4a9acb200011a6547","64afc2c9a8732ea92db0087d","64aff81f5492d631bf9b3c3d","null","null","<p style=""font-size: 60px; font-family: BACS"">UrOQZAUu</p>","","","","","","","",""
"html-keyboard-response","175","295973","0.0-11.0-0.6","5caca6b4a9acb200011a6547","64afc2c9a8732ea92db0087d","64aff81f5492d631bf9b3c3d","null","null","<p style=""font-size: 60px; font-family: BACS"">UvOGkam</p>","","","","","","","",""
"html-keyboard-response","176","296974","0.0-11.0-0.7","5caca6b4a9acb200011a6547","64afc2c9a8732ea92db0087d","64aff81f5492d631bf9b3c3d","null","null","<p style=""font-size: 60px; font-family: BACS"">AmQOYkmU</p>","","","","","","","",""
"html-keyboard-response","177","297974","0.0-11.0-0.8","5caca6b4a9acb200011a6547","64afc2c9a8732ea92db0087d","64aff81f5492d631bf9b3c3d","null","null","<p style=""font-size: 60px; font-family: BACS"">UrOQNYZu</p>","","","","","","","",""
"html-keyboard-response","178","298976","0.0-11.0-0.9","5caca6b4a9acb200011a6547","64afc2c9a8732ea92db0087d","64aff81f5492d631bf9b3c3d","null","null","<p style=""font-size: 60px; font-family: BACS"">QcladlGc</p>","","","","","","","",""
"html-keyboard-response","179","299978","0.0-11.0-0.10","5caca6b4a9acb200011a6547","64afc2c9a8732ea92db0087d","64aff81f5492d631bf9b3c3d","null","null","<p style=""font-size: 60px; font-family: BACS"">OkGYkmU</p>","","","","","","","",""
"html-keyboard-response","180","300978","0.0-11.0-0.11","5caca6b4a9acb200011a6547","64afc2c9a8732ea92db0087d","64aff81f5492d631bf9b3c3d","null","null","<p style=""font-size: 60px; font-family: BACS"">QcladNYZu</p>","","","","","","","",""
"html-keyboard-response","181","301980","0.0-11.0-0.12","5caca6b4a9acb200011a6547","64afc2c9a8732ea92db0087d","64aff81f5492d631bf9b3c3d","null","null","<p style=""font-size: 60px; font-family: BACS"">kMbTRPMYm</p>","","","","","","","",""
"html-keyboard-response","182","302981","0.0-11.0-0.13","5caca6b4a9acb200011a6547","64afc2c9a8732ea92db0087d","64aff81f5492d631bf9b3c3d","null","null","<p style=""font-size: 60px; font-family: BACS"">YcdOZAUu</p>","","","","","","","",""
"html-keyboard-response","183","303984","0.0-11.0-0.14","5caca6b4a9acb200011a6547","64afc2c9a8732ea92db0087d","64aff81f5492d631bf9b3c3d","null","null","<p style=""font-size: 60px; font-family: BACS"">tmAKOYK</p>","","","","","","","",""
"html-keyboard-response","184","304985","0.0-11.0-0.15","5caca6b4a9acb200011a6547","64afc2c9a8732ea92db0087d","64aff81f5492d631bf9b3c3d","null","null","<p style=""font-size: 60px; font-family: BACS"">OmtlDhBK</p>","","","","","","","",""
"html-keyboard-response","185","305986","0.0-11.0-0.16","5caca6b4a9acb200011a6547","64afc2c9a8732ea92db0087d","64aff81f5492d631bf9b3c3d","null","null","<p style=""font-size: 60px; font-family: BACS"">CchtdPMYm</p>","","","","","","","",""
"html-keyboard-response","186","306988","0.0-11.0-0.17","5caca6b4a9acb200011a6547","64afc2c9a8732ea92db0087d","64aff81f5492d631bf9b3c3d","null","null","<p style=""font-size: 60px; font-family: BACS"">YcdOkam</p>","","","","","","","",""
"html-keyboard-response","187","307989","0.0-11.0-0.18","5caca6b4a9acb200011a6547","64afc2c9a8732ea92db0087d","64aff81f5492d631bf9b3c3d","null","null","<p style=""font-size: 60px; font-family: BACS"">tmAKhBK</p>","","","","","","","",""
"html-keyboard-response","188","308990","0.0-11.0-0.19","5caca6b4a9acb200011a6547","64afc2c9a8732ea92db0087d","64aff81f5492d631bf9b3c3d","null","null","<p style=""font-size: 60px; font-family: BACS"">OkGYkam</p>","","","","","","","",""
"html-keyboard-response","189","309991","0.0-11.0-0.20","5caca6b4a9acb200011a6547","64afc2c9a8732ea92db0087d","64aff81f5492d631bf9b3c3d","null","null","<p style=""font-size: 60px; font-family: BACS"">MhKdOYK</p>","","","","","","","",""
"html-keyboard-response","190","310993","0.0-11.0-0.21","5caca6b4a9acb200011a6547","64afc2c9a8732ea92db0087d","64aff81f5492d631bf9b3c3d","null","null","<p style=""font-size: 60px; font-family: BACS"">lbBDECmYA</p>","","","","","","","",""
"html-keyboard-response","191","311995","0.0-11.0-0.22","5caca6b4a9acb200011a6547","64afc2c9a8732ea92db0087d","64aff81f5492d631bf9b3c3d","null","null","<p style=""font-size: 60px; font-family: BACS"">QcladkmU</p>","","","","","","","",""
"html-keyboard-response","192","312996","0.0-11.0-0.23","5caca6b4a9acb200011a6547","64afc2c9a8732ea92db0087d","64aff81f5492d631bf9b3c3d","null","null","<p style=""font-size: 60px; font-family: BACS"">AmQOYlGc</p>","","","","","","","",""
"html-keyboard-response","193","313998","0.0-11.0-0.24","5caca6b4a9acb200011a6547","64afc2c9a8732ea92db0087d","64aff81f5492d631bf9b3c3d","null","null","<p style=""font-size: 60px; font-family: BACS"">bNdmGkmU</p>","","","","","","","",""
"html-keyboard-response","194","314999","0.0-11.0-0.25","5caca6b4a9acb200011a6547","64afc2c9a8732ea92db0087d","64aff81f5492d631bf9b3c3d","null","null","<p style=""font-size: 60px; font-family: BACS"">OmtlDCmYA</p>","","","","","","","",""
"html-keyboard-response","195","316000","0.0-11.0-0.26","5caca6b4a9acb200011a6547","64afc2c9a8732ea92db0087d","64aff81f5492d631bf9b3c3d","null","null","<p style=""font-size: 60px; font-family: BACS"">UvOGlGc</p>","","","","","","","",""
"html-keyboard-response","196","317002","0.0-11.0-0.27","5caca6b4a9acb200011a6547","64afc2c9a8732ea92db0087d","64aff81f5492d631bf9b3c3d","null","null","<p style=""font-size: 60px; font-family: BACS"">CchtdhBK</p>","","","","","","","",""
"html-keyboard-response","197","318002","0.0-11.0-0.28","5caca6b4a9acb200011a6547","64afc2c9a8732ea92db0087d","64aff81f5492d631bf9b3c3d","null","null","<p style=""font-size: 60px; font-family: BACS"">AmQOYNYZu</p>","","","","","","","",""
"html-keyboard-response","198","319005","0.0-11.0-0.29","5caca6b4a9acb200011a6547","64afc2c9a8732ea92db0087d","64aff81f5492d631bf9b3c3d","null","null","<p style=""font-size: 60px; font-family: BACS"">OmtlDOYK</p>","","","","","","","",""
"html-keyboard-response","199","320006","0.0-11.0-0.30","5caca6b4a9acb200011a6547","64afc2c9a8732ea92db0087d","64aff81f5492d631bf9b3c3d","null","null","<p style=""font-size: 60px; font-family: BACS"">MhKdMKmY</p>","","","","","","","",""
"html-keyboard-response","200","321007","0.0-11.0-0.31","5caca6b4a9acb200011a6547","64afc2c9a8732ea92db0087d","64aff81f5492d631bf9b3c3d","null","null","<p style=""font-size: 60px; font-family: BACS"">ctkthBK</p>","","","","","","","",""
"html-keyboard-response","201","322009","0.0-11.0-0.32","5caca6b4a9acb200011a6547","64afc2c9a8732ea92db0087d","64aff81f5492d631bf9b3c3d","null","null","<p style=""font-size: 60px; font-family: BACS"">EYtYROYK</p>","","","","","","","",""
"html-keyboard-response","202","323010","0.0-11.0-0.33","5caca6b4a9acb200011a6547","64afc2c9a8732ea92db0087d","64aff81f5492d631bf9b3c3d","null","null","<p style=""font-size: 60px; font-family: BACS"">Qcladkam</p>","","","","","","","",""
"html-keyboard-response","203","324012","0.0-11.0-0.34","5caca6b4a9acb200011a6547","64afc2c9a8732ea92db0087d","64aff81f5492d631bf9b3c3d","null","null","<p style=""font-size: 60px; font-family: BACS"">OkGYNYZu</p>","","","","","","","",""
"html-keyboard-response","204","325014","0.0-11.0-0.35","5caca6b4a9acb200011a6547","64afc2c9a8732ea92db0087d","64aff81f5492d631bf9b3c3d","null","null","<p style=""font-size: 60px; font-family: BACS"">aYQmZAUu</p>","","","","","","","",""
"html-keyboard-response","205","326014","0.0-11.0-0.36","5caca6b4a9acb200011a6547","64afc2c9a8732ea92db0087d","64aff81f5492d631bf9b3c3d","null","null","<p style=""font-size: 60px; font-family: BACS"">PcBTCmYA</p>","","","","","","","",""
"html-keyboard-response","206","327016","0.0-11.0-0.37","5caca6b4a9acb200011a6547","64afc2c9a8732ea92db0087d","64aff81f5492d631bf9b3c3d","null","null","<p style=""font-size: 60px; font-family: BACS"">UvOGZAUu</p>","","","","","","","",""
"html-keyboard-response","207","328017","0.0-11.0-0.38","5caca6b4a9acb200011a6547","64afc2c9a8732ea92db0087d","64aff81f5492d631bf9b3c3d","null","null","<p style=""font-size: 60px; font-family: BACS"">cAZukmU</p>","","","","","","","",""
"html-keyboard-response","208","329018","0.0-11.0-0.39","5caca6b4a9acb200011a6547","64afc2c9a8732ea92db0087d","64aff81f5492d631bf9b3c3d","null","null","<p style=""font-size: 60px; font-family: BACS"">lGZvZAUu</p>","","","","","","","",""
"html-keyboard-response","209","330020","0.0-11.0-0.40","5caca6b4a9acb200011a6547","64afc2c9a8732ea92db0087d","64aff81f5492d631bf9b3c3d","null","null","<p style=""font-size: 60px; font-family: BACS"">cAZulGc</p>","","","","","","","",""
"html-keyboard-response","210","331021","0.0-11.0-0.41","5caca6b4a9acb200011a6547","64afc2c9a8732ea92db0087d","64aff81f5492d631bf9b3c3d","null","null","<p style=""font-size: 60px; font-family: BACS"">PcBTMKmY</p>","","","","","","","",""
"html-keyboard-response","211","332023","0.0-11.0-0.42","5caca6b4a9acb200011a6547","64afc2c9a8732ea92db0087d","64aff81f5492d631bf9b3c3d","null","null","<p style=""font-size: 60px; font-family: BACS"">lGZvkmU</p>","","","","","","","",""
"html-keyboard-response","212","333025","0.0-11.0-0.43","5caca6b4a9acb200011a6547","64afc2c9a8732ea92db0087d","64aff81f5492d631bf9b3c3d","null","null","<p style=""font-size: 60px; font-family: BACS"">AmQOYZAUu</p>","","","","","","","",""
"html-keyboard-response","213","334026","0.0-11.0-0.44","5caca6b4a9acb200011a6547","64afc2c9a8732ea92db0087d","64aff81f5492d631bf9b3c3d","null","null","<p style=""font-size: 60px; font-family: BACS"">lbBDEMKmY</p>","","","","","","","",""
"html-keyboard-response","214","335027","0.0-11.0-0.45","5caca6b4a9acb200011a6547","64afc2c9a8732ea92db0087d","64aff81f5492d631bf9b3c3d","null","null","<p style=""font-size: 60px; font-family: BACS"">OkGYZAUu</p>","","","","","","","",""
"html-keyboard-response","215","336028","0.0-11.0-0.46","5caca6b4a9acb200011a6547","64afc2c9a8732ea92db0087d","64aff81f5492d631bf9b3c3d","null","null","<p style=""font-size: 60px; font-family: BACS"">kMbTROYK</p>","","","","","","","",""
"html-keyboard-response","216","337030","0.0-11.0-0.47","5caca6b4a9acb200011a6547","64afc2c9a8732ea92db0087d","64aff81f5492d631bf9b3c3d","null","null","<p style=""font-size: 60px; font-family: BACS"">aYQmkmU</p>","","","","","","","",""
"html-keyboard-response","217","338032","0.0-11.0-0.48","5caca6b4a9acb200011a6547","64afc2c9a8732ea92db0087d","64aff81f5492d631bf9b3c3d","null","null","<p style=""font-size: 60px; font-family: BACS"">lGZvkam</p>","","","","","","","",""
"html-keyboard-response","218","339033","0.0-11.0-0.49","5caca6b4a9acb200011a6547","64afc2c9a8732ea92db0087d","64aff81f5492d631bf9b3c3d","null","null","<p style=""font-size: 60px; font-family: BACS"">bNdmGNYZu</p>","","","","","","","",""
"html-keyboard-response","219","340035","0.0-11.0-0.50","5caca6b4a9acb200011a6547","64afc2c9a8732ea92db0087d","64aff81f5492d631bf9b3c3d","null","null","<p style=""font-size: 60px; font-family: BACS"">CchtdCmYA</p>","","","","","","","",""
"html-keyboard-response","220","341035","0.0-11.0-0.51","5caca6b4a9acb200011a6547","64afc2c9a8732ea92db0087d","64aff81f5492d631bf9b3c3d","null","null","<p style=""font-size: 60px; font-family: BACS"">aYQmlGc</p>","","","","","","","",""
"html-keyboard-response","221","342036","0.0-11.0-0.52","5caca6b4a9acb200011a6547","64afc2c9a8732ea92db0087d","64aff81f5492d631bf9b3c3d","null","null","<p style=""font-size: 60px; font-family: BACS"">MhKdhBK</p>","","","","","","","",""
"html-keyboard-response","222","343038","0.0-11.0-0.53","5caca6b4a9acb200011a6547","64afc2c9a8732ea92db0087d","64aff81f5492d631bf9b3c3d","null","null","<p style=""font-size: 60px; font-family: BACS"">tmAKPMYm</p>","","","","","","","",""
"html-keyboard-response","223","344040","0.0-11.0-0.54","5caca6b4a9acb200011a6547","64afc2c9a8732ea92db0087d","64aff81f5492d631bf9b3c3d","null","null","<p style=""font-size: 60px; font-family: BACS"">YcdONYZu</p>","","","","","","","",""
"html-keyboard-response","224","345042","0.0-11.0-0.55","5caca6b4a9acb200011a6547","64afc2c9a8732ea92db0087d","64aff81f5492d631bf9b3c3d","null","null","<p style=""font-size: 60px; font-family: BACS"">MhKdPMYm</p>","","","","","","","",""
"html-keyboard-response","225","346042","0.0-11.0-0.56","5caca6b4a9acb200011a6547","64afc2c9a8732ea92db0087d","64aff81f5492d631bf9b3c3d","null","null","<p style=""font-size: 60px; font-family: BACS"">aYQmNYZu</p>","","","","","","","",""
"html-keyboard-response","226","347044","0.0-11.0-0.57","5caca6b4a9acb200011a6547","64afc2c9a8732ea92db0087d","64aff81f5492d631bf9b3c3d","null","null","<p style=""font-size: 60px; font-family: BACS"">UrOQlGc</p>","","","","","","","",""
"html-keyboard-response","227","348046","0.0-11.0-0.58","5caca6b4a9acb200011a6547","64afc2c9a8732ea92db0087d","64aff81f5492d631bf9b3c3d","null","null","<p style=""font-size: 60px; font-family: BACS"">kMbTRMKmY</p>","","","","","","","",""
"html-keyboard-response","228","349047","0.0-11.0-0.59","5caca6b4a9acb200011a6547","64afc2c9a8732ea92db0087d","64aff81f5492d631bf9b3c3d","null","null","<p style=""font-size: 60px; font-family: BACS"">lGZvlGc</p>","","","","","","","",""
"html-keyboard-response","229","350048","0.0-11.0-0.60","5caca6b4a9acb200011a6547","64afc2c9a8732ea92db0087d","64aff81f5492d631bf9b3c3d","null","null","<p style=""font-size: 60px; font-family: BACS"">PcBTPMYm</p>","","","","","","","",""
"html-keyboard-response","230","351050","0.0-11.0-0.61","5caca6b4a9acb200011a6547","64afc2c9a8732ea92db0087d","64aff81f5492d631bf9b3c3d","null","null","<p style=""font-size: 60px; font-family: BACS"">cAZukam</p>","","","","","","","",""
"html-keyboard-response","231","352051","0.0-11.0-0.62","5caca6b4a9acb200011a6547","64afc2c9a8732ea92db0087d","64aff81f5492d631bf9b3c3d","null","null","<p style=""font-size: 60px; font-family: BACS"">EYtYRhBK</p>","","","","","","","",""
"html-keyboard-response","232","353052","0.0-11.0-0.63","5caca6b4a9acb200011a6547","64afc2c9a8732ea92db0087d","64aff81f5492d631bf9b3c3d","null","null","<p style=""font-size: 60px; font-family: BACS"">OmtlDMKmY</p>","","","","","","","",""
"html-keyboard-response","233","354054","0.0-11.0-0.64","5caca6b4a9acb200011a6547","64afc2c9a8732ea92db0087d","64aff81f5492d631bf9b3c3d","null","null","<p style=""font-size: 60px; font-family: BACS"">TEBKhBK</p>","","","","","","","",""
"html-keyboard-response","234","355055","0.0-11.0-0.65","5caca6b4a9acb200011a6547","64afc2c9a8732ea92db0087d","64aff81f5492d631bf9b3c3d","null","null","<p style=""font-size: 60px; font-family: BACS"">ctktCmYA</p>","","","","","","","",""
"html-keyboard-response","235","356057","0.0-11.0-0.66","5caca6b4a9acb200011a6547","64afc2c9a8732ea92db0087d","64aff81f5492d631bf9b3c3d","null","null","<p style=""font-size: 60px; font-family: BACS"">TEBKMKmY</p>","","","","","","","",""
"html-keyboard-response","236","357059","0.0-11.0-0.67","5caca6b4a9acb200011a6547","64afc2c9a8732ea92db0087d","64aff81f5492d631bf9b3c3d","null","null","<p style=""font-size: 60px; font-family: BACS"">UrOQkam</p>","","","","","","","",""
"html-keyboard-response","237","358060","0.0-11.0-0.68","5caca6b4a9acb200011a6547","64afc2c9a8732ea92db0087d","64aff81f5492d631bf9b3c3d","null","null","<p style=""font-size: 60px; font-family: BACS"">UvOGNYZu</p>","","","","","","","",""
"html-keyboard-response","238","359062","0.0-11.0-0.69","5caca6b4a9acb200011a6547","64afc2c9a8732ea92db0087d","64aff81f5492d631bf9b3c3d","null","null","<p style=""font-size: 60px; font-family: BACS"">PcBTOYK</p>","","","","","","","",""
"html-keyboard-response","239","360063","0.0-11.0-0.70","5caca6b4a9acb200011a6547","64afc2c9a8732ea92db0087d","64aff81f5492d631bf9b3c3d","null","null","<p style=""font-size: 60px; font-family: BACS"">cAZuZAUu</p>","","","","","","","",""
"html-keyboard-response","240","361065","0.0-11.0-0.71","5caca6b4a9acb200011a6547","64afc2c9a8732ea92db0087d","64aff81f5492d631bf9b3c3d","null","null","<p style=""font-size: 60px; font-family: BACS"">ctktMKmY</p>","","","","","","","",""
"html-keyboard-response","241","362067","0.0-11.0-0.72","5caca6b4a9acb200011a6547","64afc2c9a8732ea92db0087d","64aff81f5492d631bf9b3c3d","null","null","<p style=""font-size: 60px; font-family: BACS"">kMbTRCmYA</p>","","","","","","","",""
"html-keyboard-response","242","363067","0.0-11.0-0.73","5caca6b4a9acb200011a6547","64afc2c9a8732ea92db0087d","64aff81f5492d631bf9b3c3d","null","null","<p style=""font-size: 60px; font-family: BACS"">lbBDEhBK</p>","","","","","","","",""
"html-keyboard-response","243","364070","0.0-11.0-0.74","5caca6b4a9acb200011a6547","64afc2c9a8732ea92db0087d","64aff81f5492d631bf9b3c3d","null","null","<p style=""font-size: 60px; font-family: BACS"">ctktPMYm</p>","","","","","","","",""
"html-keyboard-response","244","365071","0.0-11.0-0.75","5caca6b4a9acb200011a6547","64afc2c9a8732ea92db0087d","64aff81f5492d631bf9b3c3d","null","null","<p style=""font-size: 60px; font-family: BACS"">TEBKCmYA</p>","","","","","","","",""
"html-keyboard-response","245","366073","0.0-11.0-0.76","5caca6b4a9acb200011a6547","64afc2c9a8732ea92db0087d","64aff81f5492d631bf9b3c3d","null","null","<p style=""font-size: 60px; font-family: BACS"">CchtdOYK</p>","","","","","","","",""
"html-keyboard-response","246","367075","0.0-11.0-0.77","5caca6b4a9acb200011a6547","64afc2c9a8732ea92db0087d","64aff81f5492d631bf9b3c3d","null","null","<p style=""font-size: 60px; font-family: BACS"">EYtYRPMYm</p>","","","","","","","",""
"html-keyboard-response","247","368076","0.0-11.0-0.78","5caca6b4a9acb200011a6547","64afc2c9a8732ea92db0087d","64aff81f5492d631bf9b3c3d","null","null","<p style=""font-size: 60px; font-family: BACS"">bNdmGkam</p>","","","","","","","",""
"html-keyboard-response","248","369078","0.0-11.0-0.79","5caca6b4a9acb200011a6547","64afc2c9a8732ea92db0087d","64aff81f5492d631bf9b3c3d","null","null","<p style=""font-size: 60px; font-family: BACS"">EYtYRCmYA</p>","","","","","","","",""
"html-keyboard-response","249","376194","0.0-12.0","5caca6b4a9acb200011a6547","64afc2c9a8732ea92db0087d","64aff81f5492d631bf9b3c3d","7114"," ","<p>Ottimo, hai visto il terzo blocco di parole. Ora puoi prenderti una piccola pausa.</p>
      <p>Premi la barra quando sei pronta/o per riprendere.</p>","","","","","","","",""
"html-keyboard-response","250","377195","0.0-13.0-0.0","5caca6b4a9acb200011a6547","64afc2c9a8732ea92db0087d","64aff81f5492d631bf9b3c3d","null","null","<p style=""font-size: 60px; font-family: BACS"">ctktMKmY</p>","","","","","","","",""
"html-keyboard-response","251","378197","0.0-13.0-0.1","5caca6b4a9acb200011a6547","64afc2c9a8732ea92db0087d","64aff81f5492d631bf9b3c3d","null","null","<p style=""font-size: 60px; font-family: BACS"">Qcladkam</p>","","","","","","","",""
"html-keyboard-response","252","379200","0.0-13.0-0.2","5caca6b4a9acb200011a6547","64afc2c9a8732ea92db0087d","64aff81f5492d631bf9b3c3d","null","null","<p style=""font-size: 60px; font-family: BACS"">tmAKMKmY</p>","","","","","","","",""
"html-keyboard-response","253","380201","0.0-13.0-0.3","5caca6b4a9acb200011a6547","64afc2c9a8732ea92db0087d","64aff81f5492d631bf9b3c3d","null","null","<p style=""font-size: 60px; font-family: BACS"">lGZvkmU</p>","","","","","","","",""
"html-keyboard-response","254","381203","0.0-13.0-0.4","5caca6b4a9acb200011a6547","64afc2c9a8732ea92db0087d","64aff81f5492d631bf9b3c3d","null","null","<p style=""font-size: 60px; font-family: BACS"">kMbTRMKmY</p>","","","","","","","",""
"html-keyboard-response","255","382204","0.0-13.0-0.5","5caca6b4a9acb200011a6547","64afc2c9a8732ea92db0087d","64aff81f5492d631bf9b3c3d","null","null","<p style=""font-size: 60px; font-family: BACS"">bNdmGkmU</p>","","","","","","","",""
"html-keyboard-response","256","383205","0.0-13.0-0.6","5caca6b4a9acb200011a6547","64afc2c9a8732ea92db0087d","64aff81f5492d631bf9b3c3d","null","null","<p style=""font-size: 60px; font-family: BACS"">lbBDEPMYm</p>","","","","","","","",""
"html-keyboard-response","257","384207","0.0-13.0-0.7","5caca6b4a9acb200011a6547","64afc2c9a8732ea92db0087d","64aff81f5492d631bf9b3c3d","null","null","<p style=""font-size: 60px; font-family: BACS"">OkGYNYZu</p>","","","","","","","",""
"html-keyboard-response","258","385208","0.0-13.0-0.8","5caca6b4a9acb200011a6547","64afc2c9a8732ea92db0087d","64aff81f5492d631bf9b3c3d","null","null","<p style=""font-size: 60px; font-family: BACS"">TEBKCmYA</p>","","","","","","","",""
"html-keyboard-response","259","386209","0.0-13.0-0.9","5caca6b4a9acb200011a6547","64afc2c9a8732ea92db0087d","64aff81f5492d631bf9b3c3d","null","null","<p style=""font-size: 60px; font-family: BACS"">lGZvkam</p>","","","","","","","",""
"html-keyboard-response","260","387211","0.0-13.0-0.10","5caca6b4a9acb200011a6547","64afc2c9a8732ea92db0087d","64aff81f5492d631bf9b3c3d","null","null","<p style=""font-size: 60px; font-family: BACS"">CchtdhBK</p>","","","","","","","",""
"html-keyboard-response","261","388212","0.0-13.0-0.11","5caca6b4a9acb200011a6547","64afc2c9a8732ea92db0087d","64aff81f5492d631bf9b3c3d","null","null","<p style=""font-size: 60px; font-family: BACS"">bNdmGlGc</p>","","","","","","","",""
"html-keyboard-response","262","389214","0.0-13.0-0.12","5caca6b4a9acb200011a6547","64afc2c9a8732ea92db0087d","64aff81f5492d631bf9b3c3d","null","null","<p style=""font-size: 60px; font-family: BACS"">aYQmNYZu</p>","","","","","","","",""
"html-keyboard-response","263","390216","0.0-13.0-0.13","5caca6b4a9acb200011a6547","64afc2c9a8732ea92db0087d","64aff81f5492d631bf9b3c3d","null","null","<p style=""font-size: 60px; font-family: BACS"">YcdOkmU</p>","","","","","","","",""
"html-keyboard-response","264","391217","0.0-13.0-0.14","5caca6b4a9acb200011a6547","64afc2c9a8732ea92db0087d","64aff81f5492d631bf9b3c3d","null","null","<p style=""font-size: 60px; font-family: BACS"">ctkthBK</p>","","","","","","","",""
"html-keyboard-response","265","392219","0.0-13.0-0.15","5caca6b4a9acb200011a6547","64afc2c9a8732ea92db0087d","64aff81f5492d631bf9b3c3d","null","null","<p style=""font-size: 60px; font-family: BACS"">TEBKOYK</p>","","","","","","","",""
"html-keyboard-response","266","393220","0.0-13.0-0.16","5caca6b4a9acb200011a6547","64afc2c9a8732ea92db0087d","64aff81f5492d631bf9b3c3d","null","null","<p style=""font-size: 60px; font-family: BACS"">tmAKhBK</p>","","","","","","","",""
"html-keyboard-response","267","394222","0.0-13.0-0.17","5caca6b4a9acb200011a6547","64afc2c9a8732ea92db0087d","64aff81f5492d631bf9b3c3d","null","null","<p style=""font-size: 60px; font-family: BACS"">bNdmGNYZu</p>","","","","","","","",""
"html-keyboard-response","268","395223","0.0-13.0-0.18","5caca6b4a9acb200011a6547","64afc2c9a8732ea92db0087d","64aff81f5492d631bf9b3c3d","null","null","<p style=""font-size: 60px; font-family: BACS"">OkGYkmU</p>","","","","","","","",""
"html-keyboard-response","269","396225","0.0-13.0-0.19","5caca6b4a9acb200011a6547","64afc2c9a8732ea92db0087d","64aff81f5492d631bf9b3c3d","null","null","<p style=""font-size: 60px; font-family: BACS"">OmtlDCmYA</p>","","","","","","","",""
"html-keyboard-response","270","397226","0.0-13.0-0.20","5caca6b4a9acb200011a6547","64afc2c9a8732ea92db0087d","64aff81f5492d631bf9b3c3d","null","null","<p style=""font-size: 60px; font-family: BACS"">bNdmGkam</p>","","","","","","","",""
"html-keyboard-response","271","398229","0.0-13.0-0.21","5caca6b4a9acb200011a6547","64afc2c9a8732ea92db0087d","64aff81f5492d631bf9b3c3d","null","null","<p style=""font-size: 60px; font-family: BACS"">UrOQlGc</p>","","","","","","","",""
"html-keyboard-response","272","399230","0.0-13.0-0.22","5caca6b4a9acb200011a6547","64afc2c9a8732ea92db0087d","64aff81f5492d631bf9b3c3d","null","null","<p style=""font-size: 60px; font-family: BACS"">PcBTCmYA</p>","","","","","","","",""
"html-keyboard-response","273","400232","0.0-13.0-0.23","5caca6b4a9acb200011a6547","64afc2c9a8732ea92db0087d","64aff81f5492d631bf9b3c3d","null","null","<p style=""font-size: 60px; font-family: BACS"">lGZvlGc</p>","","","","","","","",""
"html-keyboard-response","274","401233","0.0-13.0-0.24","5caca6b4a9acb200011a6547","64afc2c9a8732ea92db0087d","64aff81f5492d631bf9b3c3d","null","null","<p style=""font-size: 60px; font-family: BACS"">EYtYROYK</p>","","","","","","","",""
"html-keyboard-response","275","402234","0.0-13.0-0.25","5caca6b4a9acb200011a6547","64afc2c9a8732ea92db0087d","64aff81f5492d631bf9b3c3d","null","null","<p style=""font-size: 60px; font-family: BACS"">tmAKPMYm</p>","","","","","","","",""
"html-keyboard-response","276","403236","0.0-13.0-0.26","5caca6b4a9acb200011a6547","64afc2c9a8732ea92db0087d","64aff81f5492d631bf9b3c3d","null","null","<p style=""font-size: 60px; font-family: BACS"">QcladlGc</p>","","","","","","","",""
"html-keyboard-response","277","404238","0.0-13.0-0.27","5caca6b4a9acb200011a6547","64afc2c9a8732ea92db0087d","64aff81f5492d631bf9b3c3d","null","null","<p style=""font-size: 60px; font-family: BACS"">PcBTOYK</p>","","","","","","","",""
"html-keyboard-response","278","405239","0.0-13.0-0.28","5caca6b4a9acb200011a6547","64afc2c9a8732ea92db0087d","64aff81f5492d631bf9b3c3d","null","null","<p style=""font-size: 60px; font-family: BACS"">AmQOYlGc</p>","","","","","","","",""
"html-keyboard-response","279","406241","0.0-13.0-0.29","5caca6b4a9acb200011a6547","64afc2c9a8732ea92db0087d","64aff81f5492d631bf9b3c3d","null","null","<p style=""font-size: 60px; font-family: BACS"">OkGYkam</p>","","","","","","","",""
"html-keyboard-response","280","407242","0.0-13.0-0.30","5caca6b4a9acb200011a6547","64afc2c9a8732ea92db0087d","64aff81f5492d631bf9b3c3d","null","null","<p style=""font-size: 60px; font-family: BACS"">EYtYRCmYA</p>","","","","","","","",""
"html-keyboard-response","281","408243","0.0-13.0-0.31","5caca6b4a9acb200011a6547","64afc2c9a8732ea92db0087d","64aff81f5492d631bf9b3c3d","null","null","<p style=""font-size: 60px; font-family: BACS"">QcladNYZu</p>","","","","","","","",""
"html-keyboard-response","282","409246","0.0-13.0-0.32","5caca6b4a9acb200011a6547","64afc2c9a8732ea92db0087d","64aff81f5492d631bf9b3c3d","null","null","<p style=""font-size: 60px; font-family: BACS"">EYtYRhBK</p>","","","","","","","",""
"html-keyboard-response","283","410247","0.0-13.0-0.33","5caca6b4a9acb200011a6547","64afc2c9a8732ea92db0087d","64aff81f5492d631bf9b3c3d","null","null","<p style=""font-size: 60px; font-family: BACS"">UvOGNYZu</p>","","","","","","","",""
"html-keyboard-response","284","411248","0.0-13.0-0.34","5caca6b4a9acb200011a6547","64afc2c9a8732ea92db0087d","64aff81f5492d631bf9b3c3d","null","null","<p style=""font-size: 60px; font-family: BACS"">MhKdMKmY</p>","","","","","","","",""
"html-keyboard-response","285","412249","0.0-13.0-0.35","5caca6b4a9acb200011a6547","64afc2c9a8732ea92db0087d","64aff81f5492d631bf9b3c3d","null","null","<p style=""font-size: 60px; font-family: BACS"">ctktCmYA</p>","","","","","","","",""
"html-keyboard-response","286","413251","0.0-13.0-0.36","5caca6b4a9acb200011a6547","64afc2c9a8732ea92db0087d","64aff81f5492d631bf9b3c3d","null","null","<p style=""font-size: 60px; font-family: BACS"">aYQmkmU</p>","","","","","","","",""
"html-keyboard-response","287","414253","0.0-13.0-0.37","5caca6b4a9acb200011a6547","64afc2c9a8732ea92db0087d","64aff81f5492d631bf9b3c3d","null","null","<p style=""font-size: 60px; font-family: BACS"">tmAKOYK</p>","","","","","","","",""
"html-keyboard-response","288","415254","0.0-13.0-0.38","5caca6b4a9acb200011a6547","64afc2c9a8732ea92db0087d","64aff81f5492d631bf9b3c3d","null","null","<p style=""font-size: 60px; font-family: BACS"">YcdOZAUu</p>","","","","","","","",""
"html-keyboard-response","289","416256","0.0-13.0-0.39","5caca6b4a9acb200011a6547","64afc2c9a8732ea92db0087d","64aff81f5492d631bf9b3c3d","null","null","<p style=""font-size: 60px; font-family: BACS"">CchtdPMYm</p>","","","","","","","",""
"html-keyboard-response","290","417258","0.0-13.0-0.40","5caca6b4a9acb200011a6547","64afc2c9a8732ea92db0087d","64aff81f5492d631bf9b3c3d","null","null","<p style=""font-size: 60px; font-family: BACS"">cAZukam</p>","","","","","","","",""
"html-keyboard-response","291","418259","0.0-13.0-0.41","5caca6b4a9acb200011a6547","64afc2c9a8732ea92db0087d","64aff81f5492d631bf9b3c3d","null","null","<p style=""font-size: 60px; font-family: BACS"">UrOQZAUu</p>","","","","","","","",""
"html-keyboard-response","292","419261","0.0-13.0-0.42","5caca6b4a9acb200011a6547","64afc2c9a8732ea92db0087d","64aff81f5492d631bf9b3c3d","null","null","<p style=""font-size: 60px; font-family: BACS"">kMbTRCmYA</p>","","","","","","","",""
"html-keyboard-response","293","420263","0.0-13.0-0.43","5caca6b4a9acb200011a6547","64afc2c9a8732ea92db0087d","64aff81f5492d631bf9b3c3d","null","null","<p style=""font-size: 60px; font-family: BACS"">OmtlDOYK</p>","","","","","","","",""
"html-keyboard-response","294","421265","0.0-13.0-0.44","5caca6b4a9acb200011a6547","64afc2c9a8732ea92db0087d","64aff81f5492d631bf9b3c3d","null","null","<p style=""font-size: 60px; font-family: BACS"">MhKdPMYm</p>","","","","","","","",""
"html-keyboard-response","295","422266","0.0-13.0-0.45","5caca6b4a9acb200011a6547","64afc2c9a8732ea92db0087d","64aff81f5492d631bf9b3c3d","null","null","<p style=""font-size: 60px; font-family: BACS"">CchtdCmYA</p>","","","","","","","",""
"html-keyboard-response","296","423267","0.0-13.0-0.46","5caca6b4a9acb200011a6547","64afc2c9a8732ea92db0087d","64aff81f5492d631bf9b3c3d","null","null","<p style=""font-size: 60px; font-family: BACS"">AmQOYNYZu</p>","","","","","","","",""
"html-keyboard-response","297","424269","0.0-13.0-0.47","5caca6b4a9acb200011a6547","64afc2c9a8732ea92db0087d","64aff81f5492d631bf9b3c3d","null","null","<p style=""font-size: 60px; font-family: BACS"">ctktPMYm</p>","","","","","","","",""
"html-keyboard-response","298","425270","0.0-13.0-0.48","5caca6b4a9acb200011a6547","64afc2c9a8732ea92db0087d","64aff81f5492d631bf9b3c3d","null","null","<p style=""font-size: 60px; font-family: BACS"">lbBDECmYA</p>","","","","","","","",""
"html-keyboard-response","299","426271","0.0-13.0-0.49","5caca6b4a9acb200011a6547","64afc2c9a8732ea92db0087d","64aff81f5492d631bf9b3c3d","null","null","<p style=""font-size: 60px; font-family: BACS"">aYQmZAUu</p>","","","","","","","",""
"html-keyboard-response","300","427273","0.0-13.0-0.50","5caca6b4a9acb200011a6547","64afc2c9a8732ea92db0087d","64aff81f5492d631bf9b3c3d","null","null","<p style=""font-size: 60px; font-family: BACS"">cAZulGc</p>","","","","","","","",""
"html-keyboard-response","301","428275","0.0-13.0-0.51","5caca6b4a9acb200011a6547","64afc2c9a8732ea92db0087d","64aff81f5492d631bf9b3c3d","null","null","<p style=""font-size: 60px; font-family: BACS"">UvOGZAUu</p>","","","","","","","",""
"html-keyboard-response","302","429276","0.0-13.0-0.52","5caca6b4a9acb200011a6547","64afc2c9a8732ea92db0087d","64aff81f5492d631bf9b3c3d","null","null","<p style=""font-size: 60px; font-family: BACS"">PcBTPMYm</p>","","","","","","","",""
"html-keyboard-response","303","430278","0.0-13.0-0.53","5caca6b4a9acb200011a6547","64afc2c9a8732ea92db0087d","64aff81f5492d631bf9b3c3d","null","null","<p style=""font-size: 60px; font-family: BACS"">OmtlDMKmY</p>","","","","","","","",""
"html-keyboard-response","304","431279","0.0-13.0-0.54","5caca6b4a9acb200011a6547","64afc2c9a8732ea92db0087d","64aff81f5492d631bf9b3c3d","null","null","<p style=""font-size: 60px; font-family: BACS"">EYtYRPMYm</p>","","","","","","","",""
"html-keyboard-response","305","432280","0.0-13.0-0.55","5caca6b4a9acb200011a6547","64afc2c9a8732ea92db0087d","64aff81f5492d631bf9b3c3d","null","null","<p style=""font-size: 60px; font-family: BACS"">UrOQNYZu</p>","","","","","","","",""
"html-keyboard-response","306","433282","0.0-13.0-0.56","5caca6b4a9acb200011a6547","64afc2c9a8732ea92db0087d","64aff81f5492d631bf9b3c3d","null","null","<p style=""font-size: 60px; font-family: BACS"">lbBDEhBK</p>","","","","","","","",""
"html-keyboard-response","307","434283","0.0-13.0-0.57","5caca6b4a9acb200011a6547","64afc2c9a8732ea92db0087d","64aff81f5492d631bf9b3c3d","null","null","<p style=""font-size: 60px; font-family: BACS"">UvOGkam</p>","","","","","","","",""
"html-keyboard-response","308","435286","0.0-13.0-0.58","5caca6b4a9acb200011a6547","64afc2c9a8732ea92db0087d","64aff81f5492d631bf9b3c3d","null","null","<p style=""font-size: 60px; font-family: BACS"">MhKdhBK</p>","","","","","","","",""
"html-keyboard-response","309","436286","0.0-13.0-0.59","5caca6b4a9acb200011a6547","64afc2c9a8732ea92db0087d","64aff81f5492d631bf9b3c3d","null","null","<p style=""font-size: 60px; font-family: BACS"">UvOGlGc</p>","","","","","","","",""
"html-keyboard-response","310","437288","0.0-13.0-0.60","5caca6b4a9acb200011a6547","64afc2c9a8732ea92db0087d","64aff81f5492d631bf9b3c3d","null","null","<p style=""font-size: 60px; font-family: BACS"">YcdOkam</p>","","","","","","","",""
"html-keyboard-response","311","438290","0.0-13.0-0.61","5caca6b4a9acb200011a6547","64afc2c9a8732ea92db0087d","64aff81f5492d631bf9b3c3d","null","null","<p style=""font-size: 60px; font-family: BACS"">AmQOYkmU</p>","","","","","","","",""
"html-keyboard-response","312","439292","0.0-13.0-0.62","5caca6b4a9acb200011a6547","64afc2c9a8732ea92db0087d","64aff81f5492d631bf9b3c3d","null","null","<p style=""font-size: 60px; font-family: BACS"">cAZuZAUu</p>","","","","","","","",""
"html-keyboard-response","313","440293","0.0-13.0-0.63","5caca6b4a9acb200011a6547","64afc2c9a8732ea92db0087d","64aff81f5492d631bf9b3c3d","null","null","<p style=""font-size: 60px; font-family: BACS"">MhKdOYK</p>","","","","","","","",""
"html-keyboard-response","314","441295","0.0-13.0-0.64","5caca6b4a9acb200011a6547","64afc2c9a8732ea92db0087d","64aff81f5492d631bf9b3c3d","null","null","<p style=""font-size: 60px; font-family: BACS"">lGZvZAUu</p>","","","","","","","",""
"html-keyboard-response","315","442295","0.0-13.0-0.65","5caca6b4a9acb200011a6547","64afc2c9a8732ea92db0087d","64aff81f5492d631bf9b3c3d","null","null","<p style=""font-size: 60px; font-family: BACS"">kMbTROYK</p>","","","","","","","",""
"html-keyboard-response","316","443297","0.0-13.0-0.66","5caca6b4a9acb200011a6547","64afc2c9a8732ea92db0087d","64aff81f5492d631bf9b3c3d","null","null","<p style=""font-size: 60px; font-family: BACS"">UrOQkam</p>","","","","","","","",""
"html-keyboard-response","317","444298","0.0-13.0-0.67","5caca6b4a9acb200011a6547","64afc2c9a8732ea92db0087d","64aff81f5492d631bf9b3c3d","null","null","<p style=""font-size: 60px; font-family: BACS"">TEBKhBK</p>","","","","","","","",""
"html-keyboard-response","318","445301","0.0-13.0-0.68","5caca6b4a9acb200011a6547","64afc2c9a8732ea92db0087d","64aff81f5492d631bf9b3c3d","null","null","<p style=""font-size: 60px; font-family: BACS"">YcdONYZu</p>","","","","","","","",""
"html-keyboard-response","319","446302","0.0-13.0-0.69","5caca6b4a9acb200011a6547","64afc2c9a8732ea92db0087d","64aff81f5492d631bf9b3c3d","null","null","<p style=""font-size: 60px; font-family: BACS"">TEBKMKmY</p>","","","","","","","",""
"html-keyboard-response","320","447304","0.0-13.0-0.70","5caca6b4a9acb200011a6547","64afc2c9a8732ea92db0087d","64aff81f5492d631bf9b3c3d","null","null","<p style=""font-size: 60px; font-family: BACS"">kMbTRPMYm</p>","","","","","","","",""
"html-keyboard-response","321","448306","0.0-13.0-0.71","5caca6b4a9acb200011a6547","64afc2c9a8732ea92db0087d","64aff81f5492d631bf9b3c3d","null","null","<p style=""font-size: 60px; font-family: BACS"">AmQOYZAUu</p>","","","","","","","",""
"html-keyboard-response","322","449307","0.0-13.0-0.72","5caca6b4a9acb200011a6547","64afc2c9a8732ea92db0087d","64aff81f5492d631bf9b3c3d","null","null","<p style=""font-size: 60px; font-family: BACS"">QcladkmU</p>","","","","","","","",""
"html-keyboard-response","323","450309","0.0-13.0-0.73","5caca6b4a9acb200011a6547","64afc2c9a8732ea92db0087d","64aff81f5492d631bf9b3c3d","null","null","<p style=""font-size: 60px; font-family: BACS"">PcBTMKmY</p>","","","","","","","",""
"html-keyboard-response","324","451309","0.0-13.0-0.74","5caca6b4a9acb200011a6547","64afc2c9a8732ea92db0087d","64aff81f5492d631bf9b3c3d","null","null","<p style=""font-size: 60px; font-family: BACS"">cAZukmU</p>","","","","","","","",""
"html-keyboard-response","325","452311","0.0-13.0-0.75","5caca6b4a9acb200011a6547","64afc2c9a8732ea92db0087d","64aff81f5492d631bf9b3c3d","null","null","<p style=""font-size: 60px; font-family: BACS"">aYQmlGc</p>","","","","","","","",""
"html-keyboard-response","326","453312","0.0-13.0-0.76","5caca6b4a9acb200011a6547","64afc2c9a8732ea92db0087d","64aff81f5492d631bf9b3c3d","null","null","<p style=""font-size: 60px; font-family: BACS"">OmtlDhBK</p>","","","","","","","",""
"html-keyboard-response","327","454314","0.0-13.0-0.77","5caca6b4a9acb200011a6547","64afc2c9a8732ea92db0087d","64aff81f5492d631bf9b3c3d","null","null","<p style=""font-size: 60px; font-family: BACS"">lbBDEMKmY</p>","","","","","","","",""
"html-keyboard-response","328","455316","0.0-13.0-0.78","5caca6b4a9acb200011a6547","64afc2c9a8732ea92db0087d","64aff81f5492d631bf9b3c3d","null","null","<p style=""font-size: 60px; font-family: BACS"">CchtdOYK</p>","","","","","","","",""
"html-keyboard-response","329","456317","0.0-13.0-0.79","5caca6b4a9acb200011a6547","64afc2c9a8732ea92db0087d","64aff81f5492d631bf9b3c3d","null","null","<p style=""font-size: 60px; font-family: BACS"">OkGYZAUu</p>","","","","","","","",""
"html-keyboard-response","330","463810","0.0-14.0","5caca6b4a9acb200011a6547","64afc2c9a8732ea92db0087d","64aff81f5492d631bf9b3c3d","7492"," ","<p>Ottimo! Hai visto tutte le parole che abbiamo ricevuto dallo spazio.</p>
      <p>Premi la barra quando sei pronta/o per continuare.</p>","","","","","","","",""
"html-keyboard-response","331","501222","0.0-15.0","5caca6b4a9acb200011a6547","64afc2c9a8732ea92db0087d","64aff81f5492d631bf9b3c3d","37410"," ","<p>In questa seconda parte, vedrai delle nuove parole che abbiamo ricevuto dallo stesso gruppo di alieni, e altre che invece provengono da un'altra comunicazione, con un altro gruppo di alieni. Purtroppo le due comunicazioni non arrivano a noi separatamente, per cui le parole sono mescolate tra loro. Il tuo compito sarà quello di individuare le parole che provengono dal gruppo che hai studiato nella prima parte dell'esperimento.</p>
      <p>Questo compito non è per nulla facile; le due comunicazioni infatti usano gli stessi caratteri. Il tuo meeting con i leader mondiali inizia tra poco, per cui non avrai molto tempo per prendere la tua decisione; dovrai essere veloce. Cerca di fare del tuo meglio usando la tua intuizione; non hai tempo di stare a pensare a lungo su ogni singola parola.</p>
      <p>Premi <strong>k</strong> quando pensi che la parola che stai vedendo sia degli stessi alieni che hai studiato prima, e <strong>d</strong> quando invece pensi che la parola che stai vedendo venga dall'altra comunicazione, con il nuovo gruppo di alieni.</p><p>Premi la barra quando sei pronta/o per iniziare.</p>","","","","","","","",""
"html-keyboard-response","332","502331","0.0-16.0-0.0","5caca6b4a9acb200011a6547","64afc2c9a8732ea92db0087d","64aff81f5492d631bf9b3c3d","1108","d","<p style=""font-size: 30px;"">La parola viene del gruppo di alieni che hai studiato prima?</p><br><p style=""font-size: 60px; font-family: BACS"">OmtlDNYZu<p style=""font-size: 15px"">Premi <strong>k</strong> per sì, <strong>d</strong> per no.</p>","","OmtlDNYZu","testing","d","true","","",""
"html-keyboard-response","333","503613","0.0-16.0-0.1","5caca6b4a9acb200011a6547","64afc2c9a8732ea92db0087d","64aff81f5492d631bf9b3c3d","1280","d","<p style=""font-size: 30px;"">La parola viene del gruppo di alieni che hai studiato prima?</p><br><p style=""font-size: 60px; font-family: BACS"">AmQOYkam<p style=""font-size: 15px"">Premi <strong>k</strong> per sì, <strong>d</strong> per no.</p>","","AmQOYkam","testing","k","false","","",""
"html-keyboard-response","334","504280","0.0-16.0-0.2","5caca6b4a9acb200011a6547","64afc2c9a8732ea92db0087d","64aff81f5492d631bf9b3c3d","666","k","<p style=""font-size: 30px;"">La parola viene del gruppo di alieni che hai studiato prima?</p><br><p style=""font-size: 60px; font-family: BACS"">cAZuPMYm<p style=""font-size: 15px"">Premi <strong>k</strong> per sì, <strong>d</strong> per no.</p>","","cAZuPMYm","testing","d","false","","",""
"html-keyboard-response","335","505790","0.0-16.0-0.3","5caca6b4a9acb200011a6547","64afc2c9a8732ea92db0087d","64aff81f5492d631bf9b3c3d","1507","d","<p style=""font-size: 30px"">&emsp;</p><br><p style=""font-size: 60px; font-family: BACS"">PcBTkam<p style=""font-size: 15px"">Premi <strong>k</strong> per sì, <strong>d</strong> per no.</p>","","PcBTkam","testing","d","true","","",""
"html-keyboard-response","336","506560","0.0-16.0-0.4","5caca6b4a9acb200011a6547","64afc2c9a8732ea92db0087d","64aff81f5492d631bf9b3c3d","769","k","<p style=""font-size: 30px"">&emsp;</p><br><p style=""font-size: 60px; font-family: BACS"">lGZvPMYm<p style=""font-size: 15px"">Premi <strong>k</strong> per sì, <strong>d</strong> per no.</p>","","lGZvPMYm","testing","d","false","","",""
"html-keyboard-response","337","507648","0.0-16.0-0.5","5caca6b4a9acb200011a6547","64afc2c9a8732ea92db0087d","64aff81f5492d631bf9b3c3d","1086","k","<p style=""font-size: 30px"">&emsp;</p><br><p style=""font-size: 60px; font-family: BACS"">QcladCmYA<p style=""font-size: 15px"">Premi <strong>k</strong> per sì, <strong>d</strong> per no.</p>","","QcladCmYA","testing","d","false","","",""
"html-keyboard-response","338","508393","0.0-16.0-0.6","5caca6b4a9acb200011a6547","64afc2c9a8732ea92db0087d","64aff81f5492d631bf9b3c3d","741","k","<p style=""font-size: 30px"">&emsp;</p><br><p style=""font-size: 60px; font-family: BACS"">OkGYOYK<p style=""font-size: 15px"">Premi <strong>k</strong> per sì, <strong>d</strong> per no.</p>","","OkGYOYK","testing","d","false","","",""
"html-keyboard-response","339","509337","0.0-16.0-0.7","5caca6b4a9acb200011a6547","64afc2c9a8732ea92db0087d","64aff81f5492d631bf9b3c3d","943","d","<p style=""font-size: 30px"">&emsp;</p><br><p style=""font-size: 60px; font-family: BACS"">kMbTRkam<p style=""font-size: 15px"">Premi <strong>k</strong> per sì, <strong>d</strong> per no.</p>","","kMbTRkam","testing","d","true","","",""
"html-keyboard-response","340","510650","0.0-16.0-0.8","5caca6b4a9acb200011a6547","64afc2c9a8732ea92db0087d","64aff81f5492d631bf9b3c3d","1311","k","<p style=""font-size: 30px"">&emsp;</p><br><p style=""font-size: 60px; font-family: BACS"">YcdOOYK<p style=""font-size: 15px"">Premi <strong>k</strong> per sì, <strong>d</strong> per no.</p>","","YcdOOYK","testing","d","false","","",""
"html-keyboard-response","341","511510","0.0-16.0-0.9","5caca6b4a9acb200011a6547","64afc2c9a8732ea92db0087d","64aff81f5492d631bf9b3c3d","857","d","<p style=""font-size: 30px"">&emsp;</p><br><p style=""font-size: 60px; font-family: BACS"">kMbTRhBK<p style=""font-size: 15px"">Premi <strong>k</strong> per sì, <strong>d</strong> per no.</p>","","kMbTRhBK","testing","k","false","","",""
"html-keyboard-response","342","512879","0.0-16.0-0.10","5caca6b4a9acb200011a6547","64afc2c9a8732ea92db0087d","64aff81f5492d631bf9b3c3d","1366","d","<p style=""font-size: 30px"">&emsp;</p><br><p style=""font-size: 60px; font-family: BACS"">bNdmGZAUu<p style=""font-size: 15px"">Premi <strong>k</strong> per sì, <strong>d</strong> per no.</p>","","bNdmGZAUu","testing","k","false","","",""
"html-keyboard-response","343","514353","0.0-16.0-0.11","5caca6b4a9acb200011a6547","64afc2c9a8732ea92db0087d","64aff81f5492d631bf9b3c3d","1472","k","<p style=""font-size: 30px"">&emsp;</p><br><p style=""font-size: 60px; font-family: BACS"">AmQOYhBK<p style=""font-size: 15px"">Premi <strong>k</strong> per sì, <strong>d</strong> per no.</p>","","AmQOYhBK","testing","d","false","","",""
"html-keyboard-response","344","515467","0.0-16.0-0.12","5caca6b4a9acb200011a6547","64afc2c9a8732ea92db0087d","64aff81f5492d631bf9b3c3d","1112","k","<p style=""font-size: 30px"">&emsp;</p><br><p style=""font-size: 60px; font-family: BACS"">CchtdkmU<p style=""font-size: 15px"">Premi <strong>k</strong> per sì, <strong>d</strong> per no.</p>","","CchtdkmU","testing","d","false","","",""
"html-keyboard-response","345","516350","0.0-16.0-0.13","5caca6b4a9acb200011a6547","64afc2c9a8732ea92db0087d","64aff81f5492d631bf9b3c3d","880","k","<p style=""font-size: 30px"">&emsp;</p><br><p style=""font-size: 60px; font-family: BACS"">bNdmGCmYA<p style=""font-size: 15px"">Premi <strong>k</strong> per sì, <strong>d</strong> per no.</p>","","bNdmGCmYA","testing","d","false","","",""
"html-keyboard-response","346","517112","0.0-16.0-0.14","5caca6b4a9acb200011a6547","64afc2c9a8732ea92db0087d","64aff81f5492d631bf9b3c3d","760","k","<p style=""font-size: 30px"">&emsp;</p><br><p style=""font-size: 60px; font-family: BACS"">aYQmkam<p style=""font-size: 15px"">Premi <strong>k</strong> per sì, <strong>d</strong> per no.</p>","","aYQmkam","testing","k","true","","",""
"html-keyboard-response","347","517885","0.0-16.0-0.15","5caca6b4a9acb200011a6547","64afc2c9a8732ea92db0087d","64aff81f5492d631bf9b3c3d","771","d","<p style=""font-size: 30px"">&emsp;</p><br><p style=""font-size: 60px; font-family: BACS"">lGZvNYZu<p style=""font-size: 15px"">Premi <strong>k</strong> per sì, <strong>d</strong> per no.</p>","","lGZvNYZu","testing","k","false","","",""
"html-keyboard-response","348","518917","0.0-16.0-0.16","5caca6b4a9acb200011a6547","64afc2c9a8732ea92db0087d","64aff81f5492d631bf9b3c3d","1031","d","<p style=""font-size: 30px"">&emsp;</p><br><p style=""font-size: 60px; font-family: BACS"">UrOQMKmY<p style=""font-size: 15px"">Premi <strong>k</strong> per sì, <strong>d</strong> per no.</p>","","UrOQMKmY","testing","d","true","","",""
"html-keyboard-response","349","519954","0.0-16.0-0.17","5caca6b4a9acb200011a6547","64afc2c9a8732ea92db0087d","64aff81f5492d631bf9b3c3d","1036","d","<p style=""font-size: 30px"">&emsp;</p><br><p style=""font-size: 60px; font-family: BACS"">TEBKNYZu<p style=""font-size: 15px"">Premi <strong>k</strong> per sì, <strong>d</strong> per no.</p>","","TEBKNYZu","testing","d","true","","",""
"html-keyboard-response","350","520903","0.0-16.0-0.18","5caca6b4a9acb200011a6547","64afc2c9a8732ea92db0087d","64aff81f5492d631bf9b3c3d","947","k","<p style=""font-size: 30px"">&emsp;</p><br><p style=""font-size: 60px; font-family: BACS"">MhKdCmYA<p style=""font-size: 15px"">Premi <strong>k</strong> per sì, <strong>d</strong> per no.</p>","","MhKdCmYA","testing","k","true","","",""
"html-keyboard-response","351","521638","0.0-16.0-0.19","5caca6b4a9acb200011a6547","64afc2c9a8732ea92db0087d","64aff81f5492d631bf9b3c3d","734","k","<p style=""font-size: 30px"">&emsp;</p><br><p style=""font-size: 60px; font-family: BACS"">cAZuNYZu<p style=""font-size: 15px"">Premi <strong>k</strong> per sì, <strong>d</strong> per no.</p>","","cAZuNYZu","testing","k","true","","",""
"html-keyboard-response","352","522476","0.0-16.0-0.20","5caca6b4a9acb200011a6547","64afc2c9a8732ea92db0087d","64aff81f5492d631bf9b3c3d","837","d","<p style=""font-size: 30px"">&emsp;</p><br><p style=""font-size: 60px; font-family: BACS"">UvOGMKmY<p style=""font-size: 15px"">Premi <strong>k</strong> per sì, <strong>d</strong> per no.</p>","","UvOGMKmY","testing","d","true","","",""
"html-keyboard-response","353","523245","0.0-16.0-0.21","5caca6b4a9acb200011a6547","64afc2c9a8732ea92db0087d","64aff81f5492d631bf9b3c3d","768","k","<p style=""font-size: 30px"">&emsp;</p><br><p style=""font-size: 60px; font-family: BACS"">PcBThBK<p style=""font-size: 15px"">Premi <strong>k</strong> per sì, <strong>d</strong> per no.</p>","","PcBThBK","testing","k","true","","",""
"html-keyboard-response","354","524222","0.0-16.0-0.22","5caca6b4a9acb200011a6547","64afc2c9a8732ea92db0087d","64aff81f5492d631bf9b3c3d","975","d","<p style=""font-size: 30px"">&emsp;</p><br><p style=""font-size: 60px; font-family: BACS"">YcdOlGc<p style=""font-size: 15px"">Premi <strong>k</strong> per sì, <strong>d</strong> per no.</p>","","YcdOlGc","testing","k","false","","",""
"html-keyboard-response","355","525330","0.0-16.0-0.23","5caca6b4a9acb200011a6547","64afc2c9a8732ea92db0087d","64aff81f5492d631bf9b3c3d","1105","k","<p style=""font-size: 30px"">&emsp;</p><br><p style=""font-size: 60px; font-family: BACS"">MhKdZAUu<p style=""font-size: 15px"">Premi <strong>k</strong> per sì, <strong>d</strong> per no.</p>","","MhKdZAUu","testing","d","false","","",""
"html-keyboard-response","356","526849","0.0-16.0-0.24","5caca6b4a9acb200011a6547","64afc2c9a8732ea92db0087d","64aff81f5492d631bf9b3c3d","1518","k","<p style=""font-size: 30px"">&emsp;</p><br><p style=""font-size: 60px; font-family: BACS"">aYQmhBK<p style=""font-size: 15px"">Premi <strong>k</strong> per sì, <strong>d</strong> per no.</p>","","aYQmhBK","testing","d","false","","",""
"html-keyboard-response","357","529532","0.0-16.0-0.25","5caca6b4a9acb200011a6547","64afc2c9a8732ea92db0087d","64aff81f5492d631bf9b3c3d","2682","d","<p style=""font-size: 30px"">&emsp;</p><br><p style=""font-size: 60px; font-family: BACS"">EYtYRkmU<p style=""font-size: 15px"">Premi <strong>k</strong> per sì, <strong>d</strong> per no.</p>","","EYtYRkmU","testing","d","true","","",""
"html-keyboard-response","358","532533","0.0-16.0-1.25-0.25","5caca6b4a9acb200011a6547","64afc2c9a8732ea92db0087d","64aff81f5492d631bf9b3c3d","2998"," ","<p style=""font-size: 30px; color: red"">Attenzione! Sei stato troppo lento con questa parola.</p>
      <p style=""font-size: 30px; color: red"">Cerca di essere più veloce.</p><p></p><p>Premi la barra per continuare.</p>","","","","","","","",""
"html-keyboard-response","359","533432","0.0-16.0-0.26","5caca6b4a9acb200011a6547","64afc2c9a8732ea92db0087d","64aff81f5492d631bf9b3c3d","899","d","<p style=""font-size: 30px"">&emsp;</p><br><p style=""font-size: 60px; font-family: BACS"">TEBKPMYm<p style=""font-size: 15px"">Premi <strong>k</strong> per sì, <strong>d</strong> per no.</p>","","TEBKPMYm","testing","k","false","","",""
"html-keyboard-response","360","534155","0.0-16.0-0.27","5caca6b4a9acb200011a6547","64afc2c9a8732ea92db0087d","64aff81f5492d631bf9b3c3d","721","d","<p style=""font-size: 30px"">&emsp;</p><br><p style=""font-size: 60px; font-family: BACS"">tmAKCmYA<p style=""font-size: 15px"">Premi <strong>k</strong> per sì, <strong>d</strong> per no.</p>","","tmAKCmYA","testing","k","false","","",""
"html-keyboard-response","361","534909","0.0-16.0-0.28","5caca6b4a9acb200011a6547","64afc2c9a8732ea92db0087d","64aff81f5492d631bf9b3c3d","753","k","<p style=""font-size: 30px"">&emsp;</p><br><p style=""font-size: 60px; font-family: BACS"">OkGYlGc<p style=""font-size: 15px"">Premi <strong>k</strong> per sì, <strong>d</strong> per no.</p>","","OkGYlGc","testing","k","true","","",""
"html-keyboard-response","362","535734","0.0-16.0-0.29","5caca6b4a9acb200011a6547","64afc2c9a8732ea92db0087d","64aff81f5492d631bf9b3c3d","822","d","<p style=""font-size: 30px"">&emsp;</p><br><p style=""font-size: 60px; font-family: BACS"">EYtYRMKmY<p style=""font-size: 15px"">Premi <strong>k</strong> per sì, <strong>d</strong> per no.</p>","","EYtYRMKmY","testing","k","false","","",""
"html-keyboard-response","363","536430","0.0-16.0-0.30","5caca6b4a9acb200011a6547","64afc2c9a8732ea92db0087d","64aff81f5492d631bf9b3c3d","696","k","<p style=""font-size: 30px"">&emsp;</p><br><p style=""font-size: 60px; font-family: BACS"">lbBDElGc<p style=""font-size: 15px"">Premi <strong>k</strong> per sì, <strong>d</strong> per no.</p>","","lbBDElGc","testing","d","false","","",""
"html-keyboard-response","364","537288","0.0-16.0-0.31","5caca6b4a9acb200011a6547","64afc2c9a8732ea92db0087d","64aff81f5492d631bf9b3c3d","856","d","<p style=""font-size: 30px"">&emsp;</p><br><p style=""font-size: 60px; font-family: BACS"">tmAKZAUu<p style=""font-size: 15px"">Premi <strong>k</strong> per sì, <strong>d</strong> per no.</p>","","tmAKZAUu","testing","d","true","","",""
"html-keyboard-response","365","537997","0.0-16.0-0.32","5caca6b4a9acb200011a6547","64afc2c9a8732ea92db0087d","64aff81f5492d631bf9b3c3d","706","k","<p style=""font-size: 30px"">&emsp;</p><br><p style=""font-size: 60px; font-family: BACS"">lbBDEOYK<p style=""font-size: 15px"">Premi <strong>k</strong> per sì, <strong>d</strong> per no.</p>","","lbBDEOYK","testing","k","true","","",""
"html-keyboard-response","366","538708","0.0-16.0-0.33","5caca6b4a9acb200011a6547","64afc2c9a8732ea92db0087d","64aff81f5492d631bf9b3c3d","710","k","<p style=""font-size: 30px"">&emsp;</p><br><p style=""font-size: 60px; font-family: BACS"">CchtdMKmY<p style=""font-size: 15px"">Premi <strong>k</strong> per sì, <strong>d</strong> per no.</p>","","CchtdMKmY","testing","k","true","","",""
"html-keyboard-response","367","539466","0.0-16.0-0.34","5caca6b4a9acb200011a6547","64afc2c9a8732ea92db0087d","64aff81f5492d631bf9b3c3d","755","k","<p style=""font-size: 30px"">&emsp;</p><br><p style=""font-size: 60px; font-family: BACS"">QcladZAUu<p style=""font-size: 15px"">Premi <strong>k</strong> per sì, <strong>d</strong> per no.</p>","","QcladZAUu","testing","k","true","","",""
"html-keyboard-response","368","540127","0.0-16.0-0.35","5caca6b4a9acb200011a6547","64afc2c9a8732ea92db0087d","64aff81f5492d631bf9b3c3d","660","k","<p style=""font-size: 30px"">&emsp;</p><br><p style=""font-size: 60px; font-family: BACS"">ctktlGc<p style=""font-size: 15px"">Premi <strong>k</strong> per sì, <strong>d</strong> per no.</p>","","ctktlGc","testing","d","false","","",""
"html-keyboard-response","369","540738","0.0-16.0-0.36","5caca6b4a9acb200011a6547","64afc2c9a8732ea92db0087d","64aff81f5492d631bf9b3c3d","611","d","<p style=""font-size: 30px"">&emsp;</p><br><p style=""font-size: 60px; font-family: BACS"">UrOQkmU<p style=""font-size: 15px"">Premi <strong>k</strong> per sì, <strong>d</strong> per no.</p>","","UrOQkmU","testing","k","false","","",""
"html-keyboard-response","370","541638","0.0-16.0-0.37","5caca6b4a9acb200011a6547","64afc2c9a8732ea92db0087d","64aff81f5492d631bf9b3c3d","898","k","<p style=""font-size: 30px"">&emsp;</p><br><p style=""font-size: 60px; font-family: BACS"">OmtlDPMYm<p style=""font-size: 15px"">Premi <strong>k</strong> per sì, <strong>d</strong> per no.</p>","","OmtlDPMYm","testing","k","true","","",""
"html-keyboard-response","371","542388","0.0-16.0-0.38","5caca6b4a9acb200011a6547","64afc2c9a8732ea92db0087d","64aff81f5492d631bf9b3c3d","748","d","<p style=""font-size: 30px"">&emsp;</p><br><p style=""font-size: 60px; font-family: BACS"">UvOGkmU<p style=""font-size: 15px"">Premi <strong>k</strong> per sì, <strong>d</strong> per no.</p>","","UvOGkmU","testing","k","false","","",""
