trial_type,trial_index,time_elapsed,internal_node_id,subject_id,study_id,session_id,rt,response,stimulus,success,item,task,correct_response,testing_condition,correct,target,confound,name,view_history
pavlovia,0,2571,0.0-0.0,612a98181f4b6d1cf01f926c,650c16f0f2faf8d7a0d14c09,651c1e71371af10733e73990,,,,,,,,,,,,,
survey-html-form,1,15228,0.0-1.0,612a98181f4b6d1cf01f926c,650c16f0f2faf8d7a0d14c09,651c1e71371af10733e73990,12638,"{""ID"":""612a98181f4b6d1cf01f926c""}",,,,,,,,,,,
html-keyboard-response,2,242655,0.0-2.0,612a98181f4b6d1cf01f926c,650c16f0f2faf8d7a0d14c09,651c1e71371af10733e73990,227424, ,"<p style=""font-size: 15px;"">Before beginning, we ask that you read the consent information and confirm your agreement to participate in the experiment.</p>
      <p style=""font-size: 15px;""> We ask that you remember that this is a research project and that your participation is entirely voluntary. You can stop your participation at any time, without needing to provide any explanation. The study we're asking you to participate in aims at examining how readers process written words. You will be engaged in a session of apprximately 20 minutes, followed by a brief questionnaire. You will have the opportunity to take a few breaks during the experiment. You will be paid £4 for your participation, corresponding to a rate of £8/hour. While this experiment looks at cognitive faculties, this experiment doesn't constitute clinical proof of eventual pathologies.</p>
      <p style=""font-size: 15px;"">All of the information collected thanks to yours and others' participation will be held in a secure password-protected server, and will not be shared with anyone not authorised to view it. Your personal information will be kept with an arbitrary participant ID. Thanks to this data anonymity process, any researcher analysing the data won't be able to track the information back to a specific participant. Therefore, this process will make identifying you impossibile, even when results from the study will be published in scientific reviews, presented at congresses, or at any other public forum. More generally, the collected data will be treated in accordance with the laws on privacy and conformity to the Legislative Degree n. 196 ""Code regarding the protection of personal data"" of the 30th of June 2003 and to the European Regulation 2016/670 (General Data Protection Regulation - GDPR). The Data Protection Officer is Avv. Valentina Carollo, who can be contacted at the following email addresses: <a href=""mailto:dpo@sissa.it"">dpo@sissa.it</a> or <a href=""mailto:rpd@sissa.it"">rpd@sissa.it</a> - PEC: <a href=""mailto:protocollo@pec.sissa.it"">protocollo@pec.sissa.it</a>.</p>
      <p style=""font-size: 15px;""> Before expressing your consent to participate, we would like to remind you again that in case you need explanations on any aspect of the experimental procedure, the researcher is at your disposition (<a href=""mailto:aliebelt@sissa.it"">aliebelt@sissa.it</a>, <a href=""mailto:davide.crepaldi@sissa.it"">davide.crepaldi@sissa.it</a>).</p>
      <p style=""font-size: 15px;"">If you would like to download the informed consent form, you can do so here: <a href=""BASL-Informed_Consent.pdf"" download>informed consent form</a>.</p>
      <p style=""font-size: 15px;"">We ask that you press the spacebar to proceed to the consent section.</p>",,,,,,,,,,
survey-html-form,3,1051475,0.0-3.0,612a98181f4b6d1cf01f926c,650c16f0f2faf8d7a0d14c09,651c1e71371af10733e73990,808819,"{""consent1"":""YES"",""consent2"":""YES"",""consent3"":""YES"",""consent4"":""YES"",""consent5"":""YES"",""consent6"":""YES""}",,,,,,,,,,,
fullscreen,4,1462010,0.0-4.0,612a98181f4b6d1cf01f926c,650c16f0f2faf8d7a0d14c09,651c1e71371af10733e73990,,,,TRUE,,,,,,,,,
html-keyboard-response,5,1495033,0.0-5.0,612a98181f4b6d1cf01f926c,650c16f0f2faf8d7a0d14c09,651c1e71371af10733e73990,33019, ,"<p>Welcome, and thank you very much for your time!</p>
      <p>In this experiment, you'll be a language expert who's been asked to take a look at words that Earth has received in its first communication with aliens. Your task, in this first part of the experiment, is to pay close attention to the words you'll be shown; later, world leaders will ask you questions on what you saw. The words will be shown to you quite quickly; it seems that the aliens were in a hurry :-)</p>
      <p>Press the spacebar to continue.<p>",,,,,,,,,,
html-keyboard-response,6,1495085,0.0-6.0,612a98181f4b6d1cf01f926c,650c16f0f2faf8d7a0d14c09,651c1e71371af10733e73990,null,null,"<p style=""font-size: 120px; font-family: BACS""> </p>",,,,,,,,,,
html-keyboard-response,7,1502456,0.0-7.0,612a98181f4b6d1cf01f926c,650c16f0f2faf8d7a0d14c09,651c1e71371af10733e73990,7369, ,"<p>Here is an example of the words you'll see:</p>
      <img src='esempio.png' height='400px'>
      <p>When you're ready to begin, press the spacebar.</p></div>",,,,,,,,,,
html-keyboard-response,8,1503459,0.0-8.0-0.0,612a98181f4b6d1cf01f926c,650c16f0f2faf8d7a0d14c09,651c1e71371af10733e73990,null,null,"<p style=""font-size: 60px; font-family: BACS"">OJGQNUZ</p>",,,,,,,,,,
html-keyboard-response,9,1504460,0.0-8.0-0.1,612a98181f4b6d1cf01f926c,650c16f0f2faf8d7a0d14c09,651c1e71371af10733e73990,null,null,"<p style=""font-size: 60px; font-family: BACS"">OcYMdPc</p>",,,,,,,,,,
html-keyboard-response,10,1505462,0.0-8.0-0.2,612a98181f4b6d1cf01f926c,650c16f0f2faf8d7a0d14c09,651c1e71371af10733e73990,null,null,"<p style=""font-size: 60px; font-family: BACS"">NAacQAOUl</p>",,,,,,,,,,
html-keyboard-response,11,1506462,0.0-8.0-0.3,612a98181f4b6d1cf01f926c,650c16f0f2faf8d7a0d14c09,651c1e71371af10733e73990,null,null,"<p style=""font-size: 60px; font-family: BACS"">tmtEMkKE</p>",,,,,,,,,,
html-keyboard-response,12,1507464,0.0-8.0-0.4,612a98181f4b6d1cf01f926c,650c16f0f2faf8d7a0d14c09,651c1e71371af10733e73990,null,null,"<p style=""font-size: 60px; font-family: BACS"">cRElDdPc</p>",,,,,,,,,,
html-keyboard-response,13,1508465,0.0-8.0-0.5,612a98181f4b6d1cf01f926c,650c16f0f2faf8d7a0d14c09,651c1e71371af10733e73990,null,null,"<p style=""font-size: 60px; font-family: BACS"">cdKBYPMYm</p>",,,,,,,,,,
html-keyboard-response,14,1509466,0.0-8.0-0.6,612a98181f4b6d1cf01f926c,650c16f0f2faf8d7a0d14c09,651c1e71371af10733e73990,null,null,"<p style=""font-size: 60px; font-family: BACS"">JZOAkAZbl</p>",,,,,,,,,,
html-keyboard-response,15,1510467,0.0-8.0-0.7,612a98181f4b6d1cf01f926c,650c16f0f2faf8d7a0d14c09,651c1e71371af10733e73990,null,null,"<p style=""font-size: 60px; font-family: BACS"">cRElDkKE</p>",,,,,,,,,,
html-keyboard-response,16,1511467,0.0-8.0-0.8,612a98181f4b6d1cf01f926c,650c16f0f2faf8d7a0d14c09,651c1e71371af10733e73990,null,null,"<p style=""font-size: 60px; font-family: BACS"">damYbAZbl</p>",,,,,,,,,,
html-keyboard-response,17,1512468,0.0-8.0-0.9,612a98181f4b6d1cf01f926c,650c16f0f2faf8d7a0d14c09,651c1e71371af10733e73990,null,null,"<p style=""font-size: 60px; font-family: BACS"">JZOAkNUZ</p>",,,,,,,,,,
html-keyboard-response,18,1513470,0.0-8.0-0.10,612a98181f4b6d1cf01f926c,650c16f0f2faf8d7a0d14c09,651c1e71371af10733e73990,null,null,"<p style=""font-size: 60px; font-family: BACS"">kZUbark</p>",,,,,,,,,,
html-keyboard-response,19,1514471,0.0-8.0-0.11,612a98181f4b6d1cf01f926c,650c16f0f2faf8d7a0d14c09,651c1e71371af10733e73990,null,null,"<p style=""font-size: 60px; font-family: BACS"">vYLUOcZJ</p>",,,,,,,,,,
html-keyboard-response,20,1515472,0.0-8.0-0.12,612a98181f4b6d1cf01f926c,650c16f0f2faf8d7a0d14c09,651c1e71371af10733e73990,null,null,"<p style=""font-size: 60px; font-family: BACS"">tmYhtcB</p>",,,,,,,,,,
html-keyboard-response,21,1516475,0.0-8.0-0.13,612a98181f4b6d1cf01f926c,650c16f0f2faf8d7a0d14c09,651c1e71371af10733e73990,null,null,"<p style=""font-size: 60px; font-family: BACS"">OJGQOcZJ</p>",,,,,,,,,,
html-keyboard-response,22,1517478,0.0-8.0-0.14,612a98181f4b6d1cf01f926c,650c16f0f2faf8d7a0d14c09,651c1e71371af10733e73990,null,null,"<p style=""font-size: 60px; font-family: BACS"">bcbMkKE</p>",,,,,,,,,,
html-keyboard-response,23,1518481,0.0-8.0-0.15,612a98181f4b6d1cf01f926c,650c16f0f2faf8d7a0d14c09,651c1e71371af10733e73990,null,null,"<p style=""font-size: 60px; font-family: BACS"">cdKBYPTl</p>",,,,,,,,,,
html-keyboard-response,24,1519482,0.0-8.0-0.16,612a98181f4b6d1cf01f926c,650c16f0f2faf8d7a0d14c09,651c1e71371af10733e73990,null,null,"<p style=""font-size: 60px; font-family: BACS"">GZJYAOUl</p>",,,,,,,,,,
html-keyboard-response,25,1520483,0.0-8.0-0.17,612a98181f4b6d1cf01f926c,650c16f0f2faf8d7a0d14c09,651c1e71371af10733e73990,null,null,"<p style=""font-size: 60px; font-family: BACS"">AMkCPTl</p>",,,,,,,,,,
html-keyboard-response,26,1521484,0.0-8.0-0.18,612a98181f4b6d1cf01f926c,650c16f0f2faf8d7a0d14c09,651c1e71371af10733e73990,null,null,"<p style=""font-size: 60px; font-family: BACS"">bcbMPMYm</p>",,,,,,,,,,
html-keyboard-response,27,1522485,0.0-8.0-0.19,612a98181f4b6d1cf01f926c,650c16f0f2faf8d7a0d14c09,651c1e71371af10733e73990,null,null,"<p style=""font-size: 60px; font-family: BACS"">NAacQAZbl</p>",,,,,,,,,,
html-keyboard-response,28,1523486,0.0-8.0-0.20,612a98181f4b6d1cf01f926c,650c16f0f2faf8d7a0d14c09,651c1e71371af10733e73990,null,null,"<p style=""font-size: 60px; font-family: BACS"">ZdNmUNUZ</p>",,,,,,,,,,
html-keyboard-response,29,1524487,0.0-8.0-0.21,612a98181f4b6d1cf01f926c,650c16f0f2faf8d7a0d14c09,651c1e71371af10733e73990,null,null,"<p style=""font-size: 60px; font-family: BACS"">lAOKMPMYm</p>",,,,,,,,,,
html-keyboard-response,30,1525488,0.0-8.0-0.22,612a98181f4b6d1cf01f926c,650c16f0f2faf8d7a0d14c09,651c1e71371af10733e73990,null,null,"<p style=""font-size: 60px; font-family: BACS"">bcbMdPc</p>",,,,,,,,,,
html-keyboard-response,31,1526489,0.0-8.0-0.23,612a98181f4b6d1cf01f926c,650c16f0f2faf8d7a0d14c09,651c1e71371af10733e73990,null,null,"<p style=""font-size: 60px; font-family: BACS"">kZUbAOUl</p>",,,,,,,,,,
html-keyboard-response,32,1527491,0.0-8.0-0.24,612a98181f4b6d1cf01f926c,650c16f0f2faf8d7a0d14c09,651c1e71371af10733e73990,null,null,"<p style=""font-size: 60px; font-family: BACS"">damYbark</p>",,,,,,,,,,
html-keyboard-response,33,1528492,0.0-8.0-0.25,612a98181f4b6d1cf01f926c,650c16f0f2faf8d7a0d14c09,651c1e71371af10733e73990,null,null,"<p style=""font-size: 60px; font-family: BACS"">AMkCtcB</p>",,,,,,,,,,
html-keyboard-response,34,1529493,0.0-8.0-0.26,612a98181f4b6d1cf01f926c,650c16f0f2faf8d7a0d14c09,651c1e71371af10733e73990,null,null,"<p style=""font-size: 60px; font-family: BACS"">ZdNmUark</p>",,,,,,,,,,
html-keyboard-response,35,1530494,0.0-8.0-0.27,612a98181f4b6d1cf01f926c,650c16f0f2faf8d7a0d14c09,651c1e71371af10733e73990,null,null,"<p style=""font-size: 60px; font-family: BACS"">mLdkZNUZ</p>",,,,,,,,,,
html-keyboard-response,36,1531495,0.0-8.0-0.28,612a98181f4b6d1cf01f926c,650c16f0f2faf8d7a0d14c09,651c1e71371af10733e73990,null,null,"<p style=""font-size: 60px; font-family: BACS"">PCMPKdPc</p>",,,,,,,,,,
html-keyboard-response,37,1532496,0.0-8.0-0.29,612a98181f4b6d1cf01f926c,650c16f0f2faf8d7a0d14c09,651c1e71371af10733e73990,null,null,"<p style=""font-size: 60px; font-family: BACS"">cdKBYtcB</p>",,,,,,,,,,
html-keyboard-response,38,1533497,0.0-8.0-0.30,612a98181f4b6d1cf01f926c,650c16f0f2faf8d7a0d14c09,651c1e71371af10733e73990,null,null,"<p style=""font-size: 60px; font-family: BACS"">tmYhPTl</p>",,,,,,,,,,
html-keyboard-response,39,1534498,0.0-8.0-0.31,612a98181f4b6d1cf01f926c,650c16f0f2faf8d7a0d14c09,651c1e71371af10733e73990,null,null,"<p style=""font-size: 60px; font-family: BACS"">vYLUAZbl</p>",,,,,,,,,,
html-keyboard-response,40,1535499,0.0-8.0-0.32,612a98181f4b6d1cf01f926c,650c16f0f2faf8d7a0d14c09,651c1e71371af10733e73990,null,null,"<p style=""font-size: 60px; font-family: BACS"">AMkCPMYm</p>",,,,,,,,,,
html-keyboard-response,41,1536500,0.0-8.0-0.33,612a98181f4b6d1cf01f926c,650c16f0f2faf8d7a0d14c09,651c1e71371af10733e73990,null,null,"<p style=""font-size: 60px; font-family: BACS"">PCMPKkKE</p>",,,,,,,,,,
html-keyboard-response,42,1537501,0.0-8.0-0.34,612a98181f4b6d1cf01f926c,650c16f0f2faf8d7a0d14c09,651c1e71371af10733e73990,null,null,"<p style=""font-size: 60px; font-family: BACS"">kZUbNUZ</p>",,,,,,,,,,
html-keyboard-response,43,1538502,0.0-8.0-0.35,612a98181f4b6d1cf01f926c,650c16f0f2faf8d7a0d14c09,651c1e71371af10733e73990,null,null,"<p style=""font-size: 60px; font-family: BACS"">OcYMtcB</p>",,,,,,,,,,
html-keyboard-response,44,1539503,0.0-8.0-0.36,612a98181f4b6d1cf01f926c,650c16f0f2faf8d7a0d14c09,651c1e71371af10733e73990,null,null,"<p style=""font-size: 60px; font-family: BACS"">damYbOcZJ</p>",,,,,,,,,,
html-keyboard-response,45,1540504,0.0-8.0-0.37,612a98181f4b6d1cf01f926c,650c16f0f2faf8d7a0d14c09,651c1e71371af10733e73990,null,null,"<p style=""font-size: 60px; font-family: BACS"">OJGQark</p>",,,,,,,,,,
html-keyboard-response,46,1541505,0.0-8.0-0.38,612a98181f4b6d1cf01f926c,650c16f0f2faf8d7a0d14c09,651c1e71371af10733e73990,null,null,"<p style=""font-size: 60px; font-family: BACS"">JZOAkAOUl</p>",,,,,,,,,,
html-keyboard-response,47,1542506,0.0-8.0-0.39,612a98181f4b6d1cf01f926c,650c16f0f2faf8d7a0d14c09,651c1e71371af10733e73990,null,null,"<p style=""font-size: 60px; font-family: BACS"">AMkCkKE</p>",,,,,,,,,,
html-keyboard-response,48,1543507,0.0-8.0-0.40,612a98181f4b6d1cf01f926c,650c16f0f2faf8d7a0d14c09,651c1e71371af10733e73990,null,null,"<p style=""font-size: 60px; font-family: BACS"">PCMPKPMYm</p>",,,,,,,,,,
html-keyboard-response,49,1544508,0.0-8.0-0.41,612a98181f4b6d1cf01f926c,650c16f0f2faf8d7a0d14c09,651c1e71371af10733e73990,null,null,"<p style=""font-size: 60px; font-family: BACS"">mBYldPc</p>",,,,,,,,,,
html-keyboard-response,50,1545510,0.0-8.0-0.42,612a98181f4b6d1cf01f926c,650c16f0f2faf8d7a0d14c09,651c1e71371af10733e73990,null,null,"<p style=""font-size: 60px; font-family: BACS"">kZUbOcZJ</p>",,,,,,,,,,
html-keyboard-response,51,1546511,0.0-8.0-0.43,612a98181f4b6d1cf01f926c,650c16f0f2faf8d7a0d14c09,651c1e71371af10733e73990,null,null,"<p style=""font-size: 60px; font-family: BACS"">mLdkZAZbl</p>",,,,,,,,,,
html-keyboard-response,52,1547512,0.0-8.0-0.44,612a98181f4b6d1cf01f926c,650c16f0f2faf8d7a0d14c09,651c1e71371af10733e73990,null,null,"<p style=""font-size: 60px; font-family: BACS"">vblrark</p>",,,,,,,,,,
html-keyboard-response,53,1548513,0.0-8.0-0.45,612a98181f4b6d1cf01f926c,650c16f0f2faf8d7a0d14c09,651c1e71371af10733e73990,null,null,"<p style=""font-size: 60px; font-family: BACS"">damYbNUZ</p>",,,,,,,,,,
html-keyboard-response,54,1549514,0.0-8.0-0.46,612a98181f4b6d1cf01f926c,650c16f0f2faf8d7a0d14c09,651c1e71371af10733e73990,null,null,"<p style=""font-size: 60px; font-family: BACS"">NAacQark</p>",,,,,,,,,,
html-keyboard-response,55,1550515,0.0-8.0-0.47,612a98181f4b6d1cf01f926c,650c16f0f2faf8d7a0d14c09,651c1e71371af10733e73990,null,null,"<p style=""font-size: 60px; font-family: BACS"">vblrNUZ</p>",,,,,,,,,,
html-keyboard-response,56,1551516,0.0-8.0-0.48,612a98181f4b6d1cf01f926c,650c16f0f2faf8d7a0d14c09,651c1e71371af10733e73990,null,null,"<p style=""font-size: 60px; font-family: BACS"">mBYlkKE</p>",,,,,,,,,,
html-keyboard-response,57,1552517,0.0-8.0-0.49,612a98181f4b6d1cf01f926c,650c16f0f2faf8d7a0d14c09,651c1e71371af10733e73990,null,null,"<p style=""font-size: 60px; font-family: BACS"">vblrAOUl</p>",,,,,,,,,,
html-keyboard-response,58,1553518,0.0-8.0-0.50,612a98181f4b6d1cf01f926c,650c16f0f2faf8d7a0d14c09,651c1e71371af10733e73990,null,null,"<p style=""font-size: 60px; font-family: BACS"">GZJYNUZ</p>",,,,,,,,,,
html-keyboard-response,59,1554519,0.0-8.0-0.51,612a98181f4b6d1cf01f926c,650c16f0f2faf8d7a0d14c09,651c1e71371af10733e73990,null,null,"<p style=""font-size: 60px; font-family: BACS"">mLdkZOcZJ</p>",,,,,,,,,,
html-keyboard-response,60,1555520,0.0-8.0-0.52,612a98181f4b6d1cf01f926c,650c16f0f2faf8d7a0d14c09,651c1e71371af10733e73990,null,null,"<p style=""font-size: 60px; font-family: BACS"">tmYhdPc</p>",,,,,,,,,,
html-keyboard-response,61,1556523,0.0-8.0-0.53,612a98181f4b6d1cf01f926c,650c16f0f2faf8d7a0d14c09,651c1e71371af10733e73990,null,null,"<p style=""font-size: 60px; font-family: BACS"">vYLUAOUl</p>",,,,,,,,,,
html-keyboard-response,62,1557524,0.0-8.0-0.54,612a98181f4b6d1cf01f926c,650c16f0f2faf8d7a0d14c09,651c1e71371af10733e73990,null,null,"<p style=""font-size: 60px; font-family: BACS"">bcbMPTl</p>",,,,,,,,,,
html-keyboard-response,63,1558525,0.0-8.0-0.55,612a98181f4b6d1cf01f926c,650c16f0f2faf8d7a0d14c09,651c1e71371af10733e73990,null,null,"<p style=""font-size: 60px; font-family: BACS"">mLdkZAOUl</p>",,,,,,,,,,
html-keyboard-response,64,1559527,0.0-8.0-0.56,612a98181f4b6d1cf01f926c,650c16f0f2faf8d7a0d14c09,651c1e71371af10733e73990,null,null,"<p style=""font-size: 60px; font-family: BACS"">vblrAZbl</p>",,,,,,,,,,
html-keyboard-response,65,1560528,0.0-8.0-0.57,612a98181f4b6d1cf01f926c,650c16f0f2faf8d7a0d14c09,651c1e71371af10733e73990,null,null,"<p style=""font-size: 60px; font-family: BACS"">cRElDPMYm</p>",,,,,,,,,,
html-keyboard-response,66,1561529,0.0-8.0-0.58,612a98181f4b6d1cf01f926c,650c16f0f2faf8d7a0d14c09,651c1e71371af10733e73990,null,null,"<p style=""font-size: 60px; font-family: BACS"">PCMPKPTl</p>",,,,,,,,,,
html-keyboard-response,67,1562530,0.0-8.0-0.59,612a98181f4b6d1cf01f926c,650c16f0f2faf8d7a0d14c09,651c1e71371af10733e73990,null,null,"<p style=""font-size: 60px; font-family: BACS"">JZOAkOcZJ</p>",,,,,,,,,,
html-keyboard-response,68,1563532,0.0-8.0-0.60,612a98181f4b6d1cf01f926c,650c16f0f2faf8d7a0d14c09,651c1e71371af10733e73990,null,null,"<p style=""font-size: 60px; font-family: BACS"">tmYhkKE</p>",,,,,,,,,,
html-keyboard-response,69,1564533,0.0-8.0-0.61,612a98181f4b6d1cf01f926c,650c16f0f2faf8d7a0d14c09,651c1e71371af10733e73990,null,null,"<p style=""font-size: 60px; font-family: BACS"">NAacQOcZJ</p>",,,,,,,,,,
html-keyboard-response,70,1565534,0.0-8.0-0.62,612a98181f4b6d1cf01f926c,650c16f0f2faf8d7a0d14c09,651c1e71371af10733e73990,null,null,"<p style=""font-size: 60px; font-family: BACS"">ZdNmUAOUl</p>",,,,,,,,,,
html-keyboard-response,71,1566535,0.0-8.0-0.63,612a98181f4b6d1cf01f926c,650c16f0f2faf8d7a0d14c09,651c1e71371af10733e73990,null,null,"<p style=""font-size: 60px; font-family: BACS"">OcYMkKE</p>",,,,,,,,,,
html-keyboard-response,72,1567535,0.0-8.0-0.64,612a98181f4b6d1cf01f926c,650c16f0f2faf8d7a0d14c09,651c1e71371af10733e73990,null,null,"<p style=""font-size: 60px; font-family: BACS"">mBYltcB</p>",,,,,,,,,,
html-keyboard-response,73,1568537,0.0-8.0-0.65,612a98181f4b6d1cf01f926c,650c16f0f2faf8d7a0d14c09,651c1e71371af10733e73990,null,null,"<p style=""font-size: 60px; font-family: BACS"">lAOKMdPc</p>",,,,,,,,,,
html-keyboard-response,74,1569538,0.0-8.0-0.66,612a98181f4b6d1cf01f926c,650c16f0f2faf8d7a0d14c09,651c1e71371af10733e73990,null,null,"<p style=""font-size: 60px; font-family: BACS"">tmtEMPTl</p>",,,,,,,,,,
html-keyboard-response,75,1570538,0.0-8.0-0.67,612a98181f4b6d1cf01f926c,650c16f0f2faf8d7a0d14c09,651c1e71371af10733e73990,null,null,"<p style=""font-size: 60px; font-family: BACS"">GZJYark</p>",,,,,,,,,,
html-keyboard-response,76,1571540,0.0-8.0-0.68,612a98181f4b6d1cf01f926c,650c16f0f2faf8d7a0d14c09,651c1e71371af10733e73990,null,null,"<p style=""font-size: 60px; font-family: BACS"">mBYlPMYm</p>",,,,,,,,,,
html-keyboard-response,77,1572541,0.0-8.0-0.69,612a98181f4b6d1cf01f926c,650c16f0f2faf8d7a0d14c09,651c1e71371af10733e73990,null,null,"<p style=""font-size: 60px; font-family: BACS"">ZdNmUAZbl</p>",,,,,,,,,,
html-keyboard-response,78,1573541,0.0-8.0-0.70,612a98181f4b6d1cf01f926c,650c16f0f2faf8d7a0d14c09,651c1e71371af10733e73990,null,null,"<p style=""font-size: 60px; font-family: BACS"">lAOKMtcB</p>",,,,,,,,,,
html-keyboard-response,79,1574542,0.0-8.0-0.71,612a98181f4b6d1cf01f926c,650c16f0f2faf8d7a0d14c09,651c1e71371af10733e73990,null,null,"<p style=""font-size: 60px; font-family: BACS"">GZJYOcZJ</p>",,,,,,,,,,
html-keyboard-response,80,1575544,0.0-8.0-0.72,612a98181f4b6d1cf01f926c,650c16f0f2faf8d7a0d14c09,651c1e71371af10733e73990,null,null,"<p style=""font-size: 60px; font-family: BACS"">cRElDtcB</p>",,,,,,,,,,
html-keyboard-response,81,1576545,0.0-8.0-0.73,612a98181f4b6d1cf01f926c,650c16f0f2faf8d7a0d14c09,651c1e71371af10733e73990,null,null,"<p style=""font-size: 60px; font-family: BACS"">OJGQAZbl</p>",,,,,,,,,,
html-keyboard-response,82,1577546,0.0-8.0-0.74,612a98181f4b6d1cf01f926c,650c16f0f2faf8d7a0d14c09,651c1e71371af10733e73990,null,null,"<p style=""font-size: 60px; font-family: BACS"">tmtEMtcB</p>",,,,,,,,,,
html-keyboard-response,83,1578547,0.0-8.0-0.75,612a98181f4b6d1cf01f926c,650c16f0f2faf8d7a0d14c09,651c1e71371af10733e73990,null,null,"<p style=""font-size: 60px; font-family: BACS"">cdKBYdPc</p>",,,,,,,,,,
html-keyboard-response,84,1579549,0.0-8.0-0.76,612a98181f4b6d1cf01f926c,650c16f0f2faf8d7a0d14c09,651c1e71371af10733e73990,null,null,"<p style=""font-size: 60px; font-family: BACS"">vYLUark</p>",,,,,,,,,,
html-keyboard-response,85,1580550,0.0-8.0-0.77,612a98181f4b6d1cf01f926c,650c16f0f2faf8d7a0d14c09,651c1e71371af10733e73990,null,null,"<p style=""font-size: 60px; font-family: BACS"">OcYMPTl</p>",,,,,,,,,,
html-keyboard-response,86,1581551,0.0-8.0-0.78,612a98181f4b6d1cf01f926c,650c16f0f2faf8d7a0d14c09,651c1e71371af10733e73990,null,null,"<p style=""font-size: 60px; font-family: BACS"">tmtEMPMYm</p>",,,,,,,,,,
html-keyboard-response,87,1582552,0.0-8.0-0.79,612a98181f4b6d1cf01f926c,650c16f0f2faf8d7a0d14c09,651c1e71371af10733e73990,null,null,"<p style=""font-size: 60px; font-family: BACS"">lAOKMPTl</p>",,,,,,,,,,
html-keyboard-response,88,1610192,0.0-9.0,612a98181f4b6d1cf01f926c,650c16f0f2faf8d7a0d14c09,651c1e71371af10733e73990,27640, ,"<p>Great, you've seen the first block of words. You may now take a short break.</p>
      <p>Press the spacebar when you're ready to continue.</p>",,,,,,,,,,
html-keyboard-response,89,1611193,0.0-10.0-0.0,612a98181f4b6d1cf01f926c,650c16f0f2faf8d7a0d14c09,651c1e71371af10733e73990,null,null,"<p style=""font-size: 60px; font-family: BACS"">damYbOcZJ</p>",,,,,,,,,,
html-keyboard-response,90,1612194,0.0-10.0-0.1,612a98181f4b6d1cf01f926c,650c16f0f2faf8d7a0d14c09,651c1e71371af10733e73990,null,null,"<p style=""font-size: 60px; font-family: BACS"">AMkCPMYm</p>",,,,,,,,,,
html-keyboard-response,91,1613195,0.0-10.0-0.2,612a98181f4b6d1cf01f926c,650c16f0f2faf8d7a0d14c09,651c1e71371af10733e73990,null,null,"<p style=""font-size: 60px; font-family: BACS"">OJGQAZbl</p>",,,,,,,,,,
html-keyboard-response,92,1614196,0.0-10.0-0.3,612a98181f4b6d1cf01f926c,650c16f0f2faf8d7a0d14c09,651c1e71371af10733e73990,null,null,"<p style=""font-size: 60px; font-family: BACS"">NAacQark</p>",,,,,,,,,,
html-keyboard-response,93,1615196,0.0-10.0-0.4,612a98181f4b6d1cf01f926c,650c16f0f2faf8d7a0d14c09,651c1e71371af10733e73990,null,null,"<p style=""font-size: 60px; font-family: BACS"">bcbMPTl</p>",,,,,,,,,,
html-keyboard-response,94,1616198,0.0-10.0-0.5,612a98181f4b6d1cf01f926c,650c16f0f2faf8d7a0d14c09,651c1e71371af10733e73990,null,null,"<p style=""font-size: 60px; font-family: BACS"">OJGQark</p>",,,,,,,,,,
html-keyboard-response,95,1617199,0.0-10.0-0.6,612a98181f4b6d1cf01f926c,650c16f0f2faf8d7a0d14c09,651c1e71371af10733e73990,null,null,"<p style=""font-size: 60px; font-family: BACS"">cRElDPMYm</p>",,,,,,,,,,
html-keyboard-response,96,1618201,0.0-10.0-0.7,612a98181f4b6d1cf01f926c,650c16f0f2faf8d7a0d14c09,651c1e71371af10733e73990,null,null,"<p style=""font-size: 60px; font-family: BACS"">OcYMPTl</p>",,,,,,,,,,
html-keyboard-response,97,1619201,0.0-10.0-0.8,612a98181f4b6d1cf01f926c,650c16f0f2faf8d7a0d14c09,651c1e71371af10733e73990,null,null,"<p style=""font-size: 60px; font-family: BACS"">vYLUOcZJ</p>",,,,,,,,,,
html-keyboard-response,98,1620203,0.0-10.0-0.9,612a98181f4b6d1cf01f926c,650c16f0f2faf8d7a0d14c09,651c1e71371af10733e73990,null,null,"<p style=""font-size: 60px; font-family: BACS"">tmtEMPMYm</p>",,,,,,,,,,
html-keyboard-response,99,1621204,0.0-10.0-0.10,612a98181f4b6d1cf01f926c,650c16f0f2faf8d7a0d14c09,651c1e71371af10733e73990,null,null,"<p style=""font-size: 60px; font-family: BACS"">mLdkZNUZ</p>",,,,,,,,,,
html-keyboard-response,100,1622205,0.0-10.0-0.11,612a98181f4b6d1cf01f926c,650c16f0f2faf8d7a0d14c09,651c1e71371af10733e73990,null,null,"<p style=""font-size: 60px; font-family: BACS"">JZOAkAZbl</p>",,,,,,,,,,
html-keyboard-response,101,1623207,0.0-10.0-0.12,612a98181f4b6d1cf01f926c,650c16f0f2faf8d7a0d14c09,651c1e71371af10733e73990,null,null,"<p style=""font-size: 60px; font-family: BACS"">mBYldPc</p>",,,,,,,,,,
html-keyboard-response,102,1624209,0.0-10.0-0.13,612a98181f4b6d1cf01f926c,650c16f0f2faf8d7a0d14c09,651c1e71371af10733e73990,null,null,"<p style=""font-size: 60px; font-family: BACS"">tmYhPTl</p>",,,,,,,,,,
html-keyboard-response,103,1625210,0.0-10.0-0.14,612a98181f4b6d1cf01f926c,650c16f0f2faf8d7a0d14c09,651c1e71371af10733e73990,null,null,"<p style=""font-size: 60px; font-family: BACS"">NAacQAOUl</p>",,,,,,,,,,
html-keyboard-response,104,1626211,0.0-10.0-0.15,612a98181f4b6d1cf01f926c,650c16f0f2faf8d7a0d14c09,651c1e71371af10733e73990,null,null,"<p style=""font-size: 60px; font-family: BACS"">JZOAkNUZ</p>",,,,,,,,,,
html-keyboard-response,105,1627212,0.0-10.0-0.16,612a98181f4b6d1cf01f926c,650c16f0f2faf8d7a0d14c09,651c1e71371af10733e73990,null,null,"<p style=""font-size: 60px; font-family: BACS"">GZJYark</p>",,,,,,,,,,
html-keyboard-response,106,1628212,0.0-10.0-0.17,612a98181f4b6d1cf01f926c,650c16f0f2faf8d7a0d14c09,651c1e71371af10733e73990,null,null,"<p style=""font-size: 60px; font-family: BACS"">JZOAkAOUl</p>",,,,,,,,,,
html-keyboard-response,107,1629214,0.0-10.0-0.18,612a98181f4b6d1cf01f926c,650c16f0f2faf8d7a0d14c09,651c1e71371af10733e73990,null,null,"<p style=""font-size: 60px; font-family: BACS"">tmYhkKE</p>",,,,,,,,,,
html-keyboard-response,108,1630215,0.0-10.0-0.19,612a98181f4b6d1cf01f926c,650c16f0f2faf8d7a0d14c09,651c1e71371af10733e73990,null,null,"<p style=""font-size: 60px; font-family: BACS"">vblrAOUl</p>",,,,,,,,,,
html-keyboard-response,109,1631216,0.0-10.0-0.20,612a98181f4b6d1cf01f926c,650c16f0f2faf8d7a0d14c09,651c1e71371af10733e73990,null,null,"<p style=""font-size: 60px; font-family: BACS"">PCMPKkKE</p>",,,,,,,,,,
html-keyboard-response,110,1632218,0.0-10.0-0.21,612a98181f4b6d1cf01f926c,650c16f0f2faf8d7a0d14c09,651c1e71371af10733e73990,null,null,"<p style=""font-size: 60px; font-family: BACS"">NAacQOcZJ</p>",,,,,,,,,,
html-keyboard-response,111,1633226,0.0-10.0-0.22,612a98181f4b6d1cf01f926c,650c16f0f2faf8d7a0d14c09,651c1e71371af10733e73990,null,null,"<p style=""font-size: 60px; font-family: BACS"">tmtEMkKE</p>",,,,,,,,,,
html-keyboard-response,112,1634229,0.0-10.0-0.23,612a98181f4b6d1cf01f926c,650c16f0f2faf8d7a0d14c09,651c1e71371af10733e73990,null,null,"<p style=""font-size: 60px; font-family: BACS"">JZOAkOcZJ</p>",,,,,,,,,,
html-keyboard-response,113,1635232,0.0-10.0-0.24,612a98181f4b6d1cf01f926c,650c16f0f2faf8d7a0d14c09,651c1e71371af10733e73990,null,null,"<p style=""font-size: 60px; font-family: BACS"">mBYlkKE</p>",,,,,,,,,,
html-keyboard-response,114,1636232,0.0-10.0-0.25,612a98181f4b6d1cf01f926c,650c16f0f2faf8d7a0d14c09,651c1e71371af10733e73990,null,null,"<p style=""font-size: 60px; font-family: BACS"">ZdNmUAOUl</p>",,,,,,,,,,
html-keyboard-response,115,1637250,0.0-10.0-0.26,612a98181f4b6d1cf01f926c,650c16f0f2faf8d7a0d14c09,651c1e71371af10733e73990,null,null,"<p style=""font-size: 60px; font-family: BACS"">tmYhdPc</p>",,,,,,,,,,
html-keyboard-response,116,1638251,0.0-10.0-0.27,612a98181f4b6d1cf01f926c,650c16f0f2faf8d7a0d14c09,651c1e71371af10733e73990,null,null,"<p style=""font-size: 60px; font-family: BACS"">cdKBYPMYm</p>",,,,,,,,,,
html-keyboard-response,117,1639252,0.0-10.0-0.28,612a98181f4b6d1cf01f926c,650c16f0f2faf8d7a0d14c09,651c1e71371af10733e73990,null,null,"<p style=""font-size: 60px; font-family: BACS"">vYLUark</p>",,,,,,,,,,
html-keyboard-response,118,1640254,0.0-10.0-0.29,612a98181f4b6d1cf01f926c,650c16f0f2faf8d7a0d14c09,651c1e71371af10733e73990,null,null,"<p style=""font-size: 60px; font-family: BACS"">AMkCtcB</p>",,,,,,,,,,
html-keyboard-response,119,1641257,0.0-10.0-0.30,612a98181f4b6d1cf01f926c,650c16f0f2faf8d7a0d14c09,651c1e71371af10733e73990,null,null,"<p style=""font-size: 60px; font-family: BACS"">lAOKMPTl</p>",,,,,,,,,,
html-keyboard-response,120,1642258,0.0-10.0-0.31,612a98181f4b6d1cf01f926c,650c16f0f2faf8d7a0d14c09,651c1e71371af10733e73990,null,null,"<p style=""font-size: 60px; font-family: BACS"">kZUbAOUl</p>",,,,,,,,,,
html-keyboard-response,121,1643258,0.0-10.0-0.32,612a98181f4b6d1cf01f926c,650c16f0f2faf8d7a0d14c09,651c1e71371af10733e73990,null,null,"<p style=""font-size: 60px; font-family: BACS"">NAacQAZbl</p>",,,,,,,,,,
html-keyboard-response,122,1644261,0.0-10.0-0.33,612a98181f4b6d1cf01f926c,650c16f0f2faf8d7a0d14c09,651c1e71371af10733e73990,null,null,"<p style=""font-size: 60px; font-family: BACS"">damYbNUZ</p>",,,,,,,,,,
html-keyboard-response,123,1645262,0.0-10.0-0.34,612a98181f4b6d1cf01f926c,650c16f0f2faf8d7a0d14c09,651c1e71371af10733e73990,null,null,"<p style=""font-size: 60px; font-family: BACS"">cRElDkKE</p>",,,,,,,,,,
html-keyboard-response,124,1646263,0.0-10.0-0.35,612a98181f4b6d1cf01f926c,650c16f0f2faf8d7a0d14c09,651c1e71371af10733e73990,null,null,"<p style=""font-size: 60px; font-family: BACS"">mBYltcB</p>",,,,,,,,,,
html-keyboard-response,125,1647264,0.0-10.0-0.36,612a98181f4b6d1cf01f926c,650c16f0f2faf8d7a0d14c09,651c1e71371af10733e73990,null,null,"<p style=""font-size: 60px; font-family: BACS"">vblrNUZ</p>",,,,,,,,,,
html-keyboard-response,126,1648265,0.0-10.0-0.37,612a98181f4b6d1cf01f926c,650c16f0f2faf8d7a0d14c09,651c1e71371af10733e73990,null,null,"<p style=""font-size: 60px; font-family: BACS"">lAOKMtcB</p>",,,,,,,,,,
html-keyboard-response,127,1649265,0.0-10.0-0.38,612a98181f4b6d1cf01f926c,650c16f0f2faf8d7a0d14c09,651c1e71371af10733e73990,null,null,"<p style=""font-size: 60px; font-family: BACS"">kZUbNUZ</p>",,,,,,,,,,
html-keyboard-response,128,1650267,0.0-10.0-0.39,612a98181f4b6d1cf01f926c,650c16f0f2faf8d7a0d14c09,651c1e71371af10733e73990,null,null,"<p style=""font-size: 60px; font-family: BACS"">AMkCPTl</p>",,,,,,,,,,
html-keyboard-response,129,1651268,0.0-10.0-0.40,612a98181f4b6d1cf01f926c,650c16f0f2faf8d7a0d14c09,651c1e71371af10733e73990,null,null,"<p style=""font-size: 60px; font-family: BACS"">ZdNmUark</p>",,,,,,,,,,
html-keyboard-response,130,1652269,0.0-10.0-0.41,612a98181f4b6d1cf01f926c,650c16f0f2faf8d7a0d14c09,651c1e71371af10733e73990,null,null,"<p style=""font-size: 60px; font-family: BACS"">GZJYOcZJ</p>",,,,,,,,,,
html-keyboard-response,131,1653271,0.0-10.0-0.42,612a98181f4b6d1cf01f926c,650c16f0f2faf8d7a0d14c09,651c1e71371af10733e73990,null,null,"<p style=""font-size: 60px; font-family: BACS"">vYLUAOUl</p>",,,,,,,,,,
html-keyboard-response,132,1654271,0.0-10.0-0.43,612a98181f4b6d1cf01f926c,650c16f0f2faf8d7a0d14c09,651c1e71371af10733e73990,null,null,"<p style=""font-size: 60px; font-family: BACS"">vblrAZbl</p>",,,,,,,,,,
html-keyboard-response,133,1655273,0.0-10.0-0.44,612a98181f4b6d1cf01f926c,650c16f0f2faf8d7a0d14c09,651c1e71371af10733e73990,null,null,"<p style=""font-size: 60px; font-family: BACS"">OcYMtcB</p>",,,,,,,,,,
html-keyboard-response,134,1656274,0.0-10.0-0.45,612a98181f4b6d1cf01f926c,650c16f0f2faf8d7a0d14c09,651c1e71371af10733e73990,null,null,"<p style=""font-size: 60px; font-family: BACS"">mBYlPMYm</p>",,,,,,,,,,
html-keyboard-response,135,1657275,0.0-10.0-0.46,612a98181f4b6d1cf01f926c,650c16f0f2faf8d7a0d14c09,651c1e71371af10733e73990,null,null,"<p style=""font-size: 60px; font-family: BACS"">tmYhtcB</p>",,,,,,,,,,
html-keyboard-response,136,1658276,0.0-10.0-0.47,612a98181f4b6d1cf01f926c,650c16f0f2faf8d7a0d14c09,651c1e71371af10733e73990,null,null,"<p style=""font-size: 60px; font-family: BACS"">cdKBYdPc</p>",,,,,,,,,,
html-keyboard-response,137,1659277,0.0-10.0-0.48,612a98181f4b6d1cf01f926c,650c16f0f2faf8d7a0d14c09,651c1e71371af10733e73990,null,null,"<p style=""font-size: 60px; font-family: BACS"">tmtEMtcB</p>",,,,,,,,,,
html-keyboard-response,138,1660278,0.0-10.0-0.49,612a98181f4b6d1cf01f926c,650c16f0f2faf8d7a0d14c09,651c1e71371af10733e73990,null,null,"<p style=""font-size: 60px; font-family: BACS"">damYbAZbl</p>",,,,,,,,,,
html-keyboard-response,139,1661279,0.0-10.0-0.50,612a98181f4b6d1cf01f926c,650c16f0f2faf8d7a0d14c09,651c1e71371af10733e73990,null,null,"<p style=""font-size: 60px; font-family: BACS"">OcYMdPc</p>",,,,,,,,,,
html-keyboard-response,140,1662280,0.0-10.0-0.51,612a98181f4b6d1cf01f926c,650c16f0f2faf8d7a0d14c09,651c1e71371af10733e73990,null,null,"<p style=""font-size: 60px; font-family: BACS"">mLdkZAZbl</p>",,,,,,,,,,
html-keyboard-response,141,1663281,0.0-10.0-0.52,612a98181f4b6d1cf01f926c,650c16f0f2faf8d7a0d14c09,651c1e71371af10733e73990,null,null,"<p style=""font-size: 60px; font-family: BACS"">OJGQOcZJ</p>",,,,,,,,,,
html-keyboard-response,142,1664282,0.0-10.0-0.53,612a98181f4b6d1cf01f926c,650c16f0f2faf8d7a0d14c09,651c1e71371af10733e73990,null,null,"<p style=""font-size: 60px; font-family: BACS"">ZdNmUNUZ</p>",,,,,,,,,,
html-keyboard-response,143,1665283,0.0-10.0-0.54,612a98181f4b6d1cf01f926c,650c16f0f2faf8d7a0d14c09,651c1e71371af10733e73990,null,null,"<p style=""font-size: 60px; font-family: BACS"">cdKBYtcB</p>",,,,,,,,,,
html-keyboard-response,144,1666284,0.0-10.0-0.55,612a98181f4b6d1cf01f926c,650c16f0f2faf8d7a0d14c09,651c1e71371af10733e73990,null,null,"<p style=""font-size: 60px; font-family: BACS"">PCMPKdPc</p>",,,,,,,,,,
html-keyboard-response,145,1667285,0.0-10.0-0.56,612a98181f4b6d1cf01f926c,650c16f0f2faf8d7a0d14c09,651c1e71371af10733e73990,null,null,"<p style=""font-size: 60px; font-family: BACS"">kZUbOcZJ</p>",,,,,,,,,,
html-keyboard-response,146,1668287,0.0-10.0-0.57,612a98181f4b6d1cf01f926c,650c16f0f2faf8d7a0d14c09,651c1e71371af10733e73990,null,null,"<p style=""font-size: 60px; font-family: BACS"">cdKBYPTl</p>",,,,,,,,,,
html-keyboard-response,147,1669288,0.0-10.0-0.58,612a98181f4b6d1cf01f926c,650c16f0f2faf8d7a0d14c09,651c1e71371af10733e73990,null,null,"<p style=""font-size: 60px; font-family: BACS"">ZdNmUAZbl</p>",,,,,,,,,,
html-keyboard-response,148,1670290,0.0-10.0-0.59,612a98181f4b6d1cf01f926c,650c16f0f2faf8d7a0d14c09,651c1e71371af10733e73990,null,null,"<p style=""font-size: 60px; font-family: BACS"">vblrark</p>",,,,,,,,,,
html-keyboard-response,149,1671291,0.0-10.0-0.60,612a98181f4b6d1cf01f926c,650c16f0f2faf8d7a0d14c09,651c1e71371af10733e73990,null,null,"<p style=""font-size: 60px; font-family: BACS"">GZJYAOUl</p>",,,,,,,,,,
html-keyboard-response,150,1672291,0.0-10.0-0.61,612a98181f4b6d1cf01f926c,650c16f0f2faf8d7a0d14c09,651c1e71371af10733e73990,null,null,"<p style=""font-size: 60px; font-family: BACS"">PCMPKPMYm</p>",,,,,,,,,,
html-keyboard-response,151,1673293,0.0-10.0-0.62,612a98181f4b6d1cf01f926c,650c16f0f2faf8d7a0d14c09,651c1e71371af10733e73990,null,null,"<p style=""font-size: 60px; font-family: BACS"">damYbark</p>",,,,,,,,,,
html-keyboard-response,152,1674294,0.0-10.0-0.63,612a98181f4b6d1cf01f926c,650c16f0f2faf8d7a0d14c09,651c1e71371af10733e73990,null,null,"<p style=""font-size: 60px; font-family: BACS"">bcbMkKE</p>",,,,,,,,,,
html-keyboard-response,153,1675294,0.0-10.0-0.64,612a98181f4b6d1cf01f926c,650c16f0f2faf8d7a0d14c09,651c1e71371af10733e73990,null,null,"<p style=""font-size: 60px; font-family: BACS"">lAOKMPMYm</p>",,,,,,,,,,
html-keyboard-response,154,1676296,0.0-10.0-0.65,612a98181f4b6d1cf01f926c,650c16f0f2faf8d7a0d14c09,651c1e71371af10733e73990,null,null,"<p style=""font-size: 60px; font-family: BACS"">vYLUAZbl</p>",,,,,,,,,,
html-keyboard-response,155,1677296,0.0-10.0-0.66,612a98181f4b6d1cf01f926c,650c16f0f2faf8d7a0d14c09,651c1e71371af10733e73990,null,null,"<p style=""font-size: 60px; font-family: BACS"">PCMPKPTl</p>",,,,,,,,,,
html-keyboard-response,156,1678298,0.0-10.0-0.67,612a98181f4b6d1cf01f926c,650c16f0f2faf8d7a0d14c09,651c1e71371af10733e73990,null,null,"<p style=""font-size: 60px; font-family: BACS"">mLdkZAOUl</p>",,,,,,,,,,
html-keyboard-response,157,1679299,0.0-10.0-0.68,612a98181f4b6d1cf01f926c,650c16f0f2faf8d7a0d14c09,651c1e71371af10733e73990,null,null,"<p style=""font-size: 60px; font-family: BACS"">kZUbark</p>",,,,,,,,,,
html-keyboard-response,158,1680302,0.0-10.0-0.69,612a98181f4b6d1cf01f926c,650c16f0f2faf8d7a0d14c09,651c1e71371af10733e73990,null,null,"<p style=""font-size: 60px; font-family: BACS"">cRElDdPc</p>",,,,,,,,,,
html-keyboard-response,159,1681302,0.0-10.0-0.70,612a98181f4b6d1cf01f926c,650c16f0f2faf8d7a0d14c09,651c1e71371af10733e73990,null,null,"<p style=""font-size: 60px; font-family: BACS"">OJGQNUZ</p>",,,,,,,,,,
html-keyboard-response,160,1682305,0.0-10.0-0.71,612a98181f4b6d1cf01f926c,650c16f0f2faf8d7a0d14c09,651c1e71371af10733e73990,null,null,"<p style=""font-size: 60px; font-family: BACS"">cRElDtcB</p>",,,,,,,,,,
html-keyboard-response,161,1683306,0.0-10.0-0.72,612a98181f4b6d1cf01f926c,650c16f0f2faf8d7a0d14c09,651c1e71371af10733e73990,null,null,"<p style=""font-size: 60px; font-family: BACS"">bcbMdPc</p>",,,,,,,,,,
html-keyboard-response,162,1684307,0.0-10.0-0.73,612a98181f4b6d1cf01f926c,650c16f0f2faf8d7a0d14c09,651c1e71371af10733e73990,null,null,"<p style=""font-size: 60px; font-family: BACS"">tmtEMPTl</p>",,,,,,,,,,
html-keyboard-response,163,1685308,0.0-10.0-0.74,612a98181f4b6d1cf01f926c,650c16f0f2faf8d7a0d14c09,651c1e71371af10733e73990,null,null,"<p style=""font-size: 60px; font-family: BACS"">lAOKMdPc</p>",,,,,,,,,,
html-keyboard-response,164,1686310,0.0-10.0-0.75,612a98181f4b6d1cf01f926c,650c16f0f2faf8d7a0d14c09,651c1e71371af10733e73990,null,null,"<p style=""font-size: 60px; font-family: BACS"">mLdkZOcZJ</p>",,,,,,,,,,
html-keyboard-response,165,1687313,0.0-10.0-0.76,612a98181f4b6d1cf01f926c,650c16f0f2faf8d7a0d14c09,651c1e71371af10733e73990,null,null,"<p style=""font-size: 60px; font-family: BACS"">AMkCkKE</p>",,,,,,,,,,
html-keyboard-response,166,1688316,0.0-10.0-0.77,612a98181f4b6d1cf01f926c,650c16f0f2faf8d7a0d14c09,651c1e71371af10733e73990,null,null,"<p style=""font-size: 60px; font-family: BACS"">GZJYNUZ</p>",,,,,,,,,,
html-keyboard-response,167,1689317,0.0-10.0-0.78,612a98181f4b6d1cf01f926c,650c16f0f2faf8d7a0d14c09,651c1e71371af10733e73990,null,null,"<p style=""font-size: 60px; font-family: BACS"">bcbMPMYm</p>",,,,,,,,,,
html-keyboard-response,168,1690319,0.0-10.0-0.79,612a98181f4b6d1cf01f926c,650c16f0f2faf8d7a0d14c09,651c1e71371af10733e73990,null,null,"<p style=""font-size: 60px; font-family: BACS"">OcYMkKE</p>",,,,,,,,,,
html-keyboard-response,169,1696345,0.0-11.0,612a98181f4b6d1cf01f926c,650c16f0f2faf8d7a0d14c09,651c1e71371af10733e73990,6025, ,"<p>Great, you've seen the second block of words. You may now take a short break.</p>
      <p>Press the spacebar when you're ready to continue.</p>",,,,,,,,,,
html-keyboard-response,170,1697346,0.0-12.0-0.0,612a98181f4b6d1cf01f926c,650c16f0f2faf8d7a0d14c09,651c1e71371af10733e73990,null,null,"<p style=""font-size: 60px; font-family: BACS"">AMkCPMYm</p>",,,,,,,,,,
html-keyboard-response,171,1698347,0.0-12.0-0.1,612a98181f4b6d1cf01f926c,650c16f0f2faf8d7a0d14c09,651c1e71371af10733e73990,null,null,"<p style=""font-size: 60px; font-family: BACS"">GZJYOcZJ</p>",,,,,,,,,,
html-keyboard-response,172,1699348,0.0-12.0-0.2,612a98181f4b6d1cf01f926c,650c16f0f2faf8d7a0d14c09,651c1e71371af10733e73990,null,null,"<p style=""font-size: 60px; font-family: BACS"">cRElDPMYm</p>",,,,,,,,,,
html-keyboard-response,173,1700349,0.0-12.0-0.3,612a98181f4b6d1cf01f926c,650c16f0f2faf8d7a0d14c09,651c1e71371af10733e73990,null,null,"<p style=""font-size: 60px; font-family: BACS"">vblrAZbl</p>",,,,,,,,,,
html-keyboard-response,174,1701350,0.0-12.0-0.4,612a98181f4b6d1cf01f926c,650c16f0f2faf8d7a0d14c09,651c1e71371af10733e73990,null,null,"<p style=""font-size: 60px; font-family: BACS"">PCMPKPMYm</p>",,,,,,,,,,
html-keyboard-response,175,1702361,0.0-12.0-0.5,612a98181f4b6d1cf01f926c,650c16f0f2faf8d7a0d14c09,651c1e71371af10733e73990,null,null,"<p style=""font-size: 60px; font-family: BACS"">tmYhtcB</p>",,,,,,,,,,
html-keyboard-response,176,1703362,0.0-12.0-0.6,612a98181f4b6d1cf01f926c,650c16f0f2faf8d7a0d14c09,651c1e71371af10733e73990,null,null,"<p style=""font-size: 60px; font-family: BACS"">ZdNmUNUZ</p>",,,,,,,,,,
html-keyboard-response,177,1704364,0.0-12.0-0.7,612a98181f4b6d1cf01f926c,650c16f0f2faf8d7a0d14c09,651c1e71371af10733e73990,null,null,"<p style=""font-size: 60px; font-family: BACS"">vblrAOUl</p>",,,,,,,,,,
html-keyboard-response,178,1705366,0.0-12.0-0.8,612a98181f4b6d1cf01f926c,650c16f0f2faf8d7a0d14c09,651c1e71371af10733e73990,null,null,"<p style=""font-size: 60px; font-family: BACS"">tmYhPTl</p>",,,,,,,,,,
html-keyboard-response,179,1706367,0.0-12.0-0.9,612a98181f4b6d1cf01f926c,650c16f0f2faf8d7a0d14c09,651c1e71371af10733e73990,null,null,"<p style=""font-size: 60px; font-family: BACS"">AMkCkKE</p>",,,,,,,,,,
html-keyboard-response,180,1707368,0.0-12.0-0.10,612a98181f4b6d1cf01f926c,650c16f0f2faf8d7a0d14c09,651c1e71371af10733e73990,null,null,"<p style=""font-size: 60px; font-family: BACS"">ZdNmUark</p>",,,,,,,,,,
html-keyboard-response,181,1708370,0.0-12.0-0.11,612a98181f4b6d1cf01f926c,650c16f0f2faf8d7a0d14c09,651c1e71371af10733e73990,null,null,"<p style=""font-size: 60px; font-family: BACS"">vblrNUZ</p>",,,,,,,,,,
html-keyboard-response,182,1709371,0.0-12.0-0.12,612a98181f4b6d1cf01f926c,650c16f0f2faf8d7a0d14c09,651c1e71371af10733e73990,null,null,"<p style=""font-size: 60px; font-family: BACS"">JZOAkOcZJ</p>",,,,,,,,,,
html-keyboard-response,183,1710374,0.0-12.0-0.13,612a98181f4b6d1cf01f926c,650c16f0f2faf8d7a0d14c09,651c1e71371af10733e73990,null,null,"<p style=""font-size: 60px; font-family: BACS"">PCMPKkKE</p>",,,,,,,,,,
html-keyboard-response,184,1711375,0.0-12.0-0.14,612a98181f4b6d1cf01f926c,650c16f0f2faf8d7a0d14c09,651c1e71371af10733e73990,null,null,"<p style=""font-size: 60px; font-family: BACS"">mBYltcB</p>",,,,,,,,,,
html-keyboard-response,185,1712375,0.0-12.0-0.15,612a98181f4b6d1cf01f926c,650c16f0f2faf8d7a0d14c09,651c1e71371af10733e73990,null,null,"<p style=""font-size: 60px; font-family: BACS"">tmtEMPTl</p>",,,,,,,,,,
html-keyboard-response,186,1713376,0.0-12.0-0.16,612a98181f4b6d1cf01f926c,650c16f0f2faf8d7a0d14c09,651c1e71371af10733e73990,null,null,"<p style=""font-size: 60px; font-family: BACS"">NAacQAOUl</p>",,,,,,,,,,
html-keyboard-response,187,1714377,0.0-12.0-0.17,612a98181f4b6d1cf01f926c,650c16f0f2faf8d7a0d14c09,651c1e71371af10733e73990,null,null,"<p style=""font-size: 60px; font-family: BACS"">bcbMPMYm</p>",,,,,,,,,,
html-keyboard-response,188,1715379,0.0-12.0-0.18,612a98181f4b6d1cf01f926c,650c16f0f2faf8d7a0d14c09,651c1e71371af10733e73990,null,null,"<p style=""font-size: 60px; font-family: BACS"">PCMPKdPc</p>",,,,,,,,,,
html-keyboard-response,189,1716381,0.0-12.0-0.19,612a98181f4b6d1cf01f926c,650c16f0f2faf8d7a0d14c09,651c1e71371af10733e73990,null,null,"<p style=""font-size: 60px; font-family: BACS"">kZUbAOUl</p>",,,,,,,,,,
html-keyboard-response,190,1717381,0.0-12.0-0.20,612a98181f4b6d1cf01f926c,650c16f0f2faf8d7a0d14c09,651c1e71371af10733e73990,null,null,"<p style=""font-size: 60px; font-family: BACS"">OcYMPTl</p>",,,,,,,,,,
html-keyboard-response,191,1718384,0.0-12.0-0.21,612a98181f4b6d1cf01f926c,650c16f0f2faf8d7a0d14c09,651c1e71371af10733e73990,null,null,"<p style=""font-size: 60px; font-family: BACS"">NAacQark</p>",,,,,,,,,,
html-keyboard-response,192,1719385,0.0-12.0-0.22,612a98181f4b6d1cf01f926c,650c16f0f2faf8d7a0d14c09,651c1e71371af10733e73990,null,null,"<p style=""font-size: 60px; font-family: BACS"">lAOKMdPc</p>",,,,,,,,,,
html-keyboard-response,193,1720387,0.0-12.0-0.23,612a98181f4b6d1cf01f926c,650c16f0f2faf8d7a0d14c09,651c1e71371af10733e73990,null,null,"<p style=""font-size: 60px; font-family: BACS"">cRElDkKE</p>",,,,,,,,,,
html-keyboard-response,194,1721388,0.0-12.0-0.24,612a98181f4b6d1cf01f926c,650c16f0f2faf8d7a0d14c09,651c1e71371af10733e73990,null,null,"<p style=""font-size: 60px; font-family: BACS"">damYbAZbl</p>",,,,,,,,,,
html-keyboard-response,195,1722389,0.0-12.0-0.25,612a98181f4b6d1cf01f926c,650c16f0f2faf8d7a0d14c09,651c1e71371af10733e73990,null,null,"<p style=""font-size: 60px; font-family: BACS"">tmYhkKE</p>",,,,,,,,,,
html-keyboard-response,196,1723390,0.0-12.0-0.26,612a98181f4b6d1cf01f926c,650c16f0f2faf8d7a0d14c09,651c1e71371af10733e73990,null,null,"<p style=""font-size: 60px; font-family: BACS"">OcYMtcB</p>",,,,,,,,,,
html-keyboard-response,197,1724391,0.0-12.0-0.27,612a98181f4b6d1cf01f926c,650c16f0f2faf8d7a0d14c09,651c1e71371af10733e73990,null,null,"<p style=""font-size: 60px; font-family: BACS"">tmtEMkKE</p>",,,,,,,,,,
html-keyboard-response,198,1725392,0.0-12.0-0.28,612a98181f4b6d1cf01f926c,650c16f0f2faf8d7a0d14c09,651c1e71371af10733e73990,null,null,"<p style=""font-size: 60px; font-family: BACS"">cRElDdPc</p>",,,,,,,,,,
html-keyboard-response,199,1726395,0.0-12.0-0.29,612a98181f4b6d1cf01f926c,650c16f0f2faf8d7a0d14c09,651c1e71371af10733e73990,null,null,"<p style=""font-size: 60px; font-family: BACS"">OJGQAZbl</p>",,,,,,,,,,
html-keyboard-response,200,1727396,0.0-12.0-0.30,612a98181f4b6d1cf01f926c,650c16f0f2faf8d7a0d14c09,651c1e71371af10733e73990,null,null,"<p style=""font-size: 60px; font-family: BACS"">mBYlkKE</p>",,,,,,,,,,
html-keyboard-response,201,1728397,0.0-12.0-0.31,612a98181f4b6d1cf01f926c,650c16f0f2faf8d7a0d14c09,651c1e71371af10733e73990,null,null,"<p style=""font-size: 60px; font-family: BACS"">cdKBYdPc</p>",,,,,,,,,,
html-keyboard-response,202,1729398,0.0-12.0-0.32,612a98181f4b6d1cf01f926c,650c16f0f2faf8d7a0d14c09,651c1e71371af10733e73990,null,null,"<p style=""font-size: 60px; font-family: BACS"">kZUbark</p>",,,,,,,,,,
html-keyboard-response,203,1730401,0.0-12.0-0.33,612a98181f4b6d1cf01f926c,650c16f0f2faf8d7a0d14c09,651c1e71371af10733e73990,null,null,"<p style=""font-size: 60px; font-family: BACS"">OJGQOcZJ</p>",,,,,,,,,,
html-keyboard-response,204,1731402,0.0-12.0-0.34,612a98181f4b6d1cf01f926c,650c16f0f2faf8d7a0d14c09,651c1e71371af10733e73990,null,null,"<p style=""font-size: 60px; font-family: BACS"">cRElDtcB</p>",,,,,,,,,,
html-keyboard-response,205,1732403,0.0-12.0-0.35,612a98181f4b6d1cf01f926c,650c16f0f2faf8d7a0d14c09,651c1e71371af10733e73990,null,null,"<p style=""font-size: 60px; font-family: BACS"">AMkCPTl</p>",,,,,,,,,,
html-keyboard-response,206,1733404,0.0-12.0-0.36,612a98181f4b6d1cf01f926c,650c16f0f2faf8d7a0d14c09,651c1e71371af10733e73990,null,null,"<p style=""font-size: 60px; font-family: BACS"">kZUbOcZJ</p>",,,,,,,,,,
html-keyboard-response,207,1734405,0.0-12.0-0.37,612a98181f4b6d1cf01f926c,650c16f0f2faf8d7a0d14c09,651c1e71371af10733e73990,null,null,"<p style=""font-size: 60px; font-family: BACS"">damYbNUZ</p>",,,,,,,,,,
html-keyboard-response,208,1735406,0.0-12.0-0.38,612a98181f4b6d1cf01f926c,650c16f0f2faf8d7a0d14c09,651c1e71371af10733e73990,null,null,"<p style=""font-size: 60px; font-family: BACS"">tmtEMtcB</p>",,,,,,,,,,
html-keyboard-response,209,1736407,0.0-12.0-0.39,612a98181f4b6d1cf01f926c,650c16f0f2faf8d7a0d14c09,651c1e71371af10733e73990,null,null,"<p style=""font-size: 60px; font-family: BACS"">NAacQAZbl</p>",,,,,,,,,,
html-keyboard-response,210,1737410,0.0-12.0-0.40,612a98181f4b6d1cf01f926c,650c16f0f2faf8d7a0d14c09,651c1e71371af10733e73990,null,null,"<p style=""font-size: 60px; font-family: BACS"">GZJYark</p>",,,,,,,,,,
html-keyboard-response,211,1738411,0.0-12.0-0.41,612a98181f4b6d1cf01f926c,650c16f0f2faf8d7a0d14c09,651c1e71371af10733e73990,null,null,"<p style=""font-size: 60px; font-family: BACS"">OcYMdPc</p>",,,,,,,,,,
html-keyboard-response,212,1739412,0.0-12.0-0.42,612a98181f4b6d1cf01f926c,650c16f0f2faf8d7a0d14c09,651c1e71371af10733e73990,null,null,"<p style=""font-size: 60px; font-family: BACS"">bcbMkKE</p>",,,,,,,,,,
html-keyboard-response,213,1740414,0.0-12.0-0.43,612a98181f4b6d1cf01f926c,650c16f0f2faf8d7a0d14c09,651c1e71371af10733e73990,null,null,"<p style=""font-size: 60px; font-family: BACS"">OJGQark</p>",,,,,,,,,,
html-keyboard-response,214,1741415,0.0-12.0-0.44,612a98181f4b6d1cf01f926c,650c16f0f2faf8d7a0d14c09,651c1e71371af10733e73990,null,null,"<p style=""font-size: 60px; font-family: BACS"">AMkCtcB</p>",,,,,,,,,,
html-keyboard-response,215,1742417,0.0-12.0-0.45,612a98181f4b6d1cf01f926c,650c16f0f2faf8d7a0d14c09,651c1e71371af10733e73990,null,null,"<p style=""font-size: 60px; font-family: BACS"">GZJYAOUl</p>",,,,,,,,,,
html-keyboard-response,216,1743418,0.0-12.0-0.46,612a98181f4b6d1cf01f926c,650c16f0f2faf8d7a0d14c09,651c1e71371af10733e73990,null,null,"<p style=""font-size: 60px; font-family: BACS"">cdKBYPMYm</p>",,,,,,,,,,
html-keyboard-response,217,1744419,0.0-12.0-0.47,612a98181f4b6d1cf01f926c,650c16f0f2faf8d7a0d14c09,651c1e71371af10733e73990,null,null,"<p style=""font-size: 60px; font-family: BACS"">vYLUOcZJ</p>",,,,,,,,,,
html-keyboard-response,218,1745420,0.0-12.0-0.48,612a98181f4b6d1cf01f926c,650c16f0f2faf8d7a0d14c09,651c1e71371af10733e73990,null,null,"<p style=""font-size: 60px; font-family: BACS"">damYbark</p>",,,,,,,,,,
html-keyboard-response,219,1746421,0.0-12.0-0.49,612a98181f4b6d1cf01f926c,650c16f0f2faf8d7a0d14c09,651c1e71371af10733e73990,null,null,"<p style=""font-size: 60px; font-family: BACS"">mBYldPc</p>",,,,,,,,,,
html-keyboard-response,220,1747422,0.0-12.0-0.50,612a98181f4b6d1cf01f926c,650c16f0f2faf8d7a0d14c09,651c1e71371af10733e73990,null,null,"<p style=""font-size: 60px; font-family: BACS"">JZOAkAZbl</p>",,,,,,,,,,
html-keyboard-response,221,1748423,0.0-12.0-0.51,612a98181f4b6d1cf01f926c,650c16f0f2faf8d7a0d14c09,651c1e71371af10733e73990,null,null,"<p style=""font-size: 60px; font-family: BACS"">OcYMkKE</p>",,,,,,,,,,
html-keyboard-response,222,1749424,0.0-12.0-0.52,612a98181f4b6d1cf01f926c,650c16f0f2faf8d7a0d14c09,651c1e71371af10733e73990,null,null,"<p style=""font-size: 60px; font-family: BACS"">ZdNmUAOUl</p>",,,,,,,,,,
html-keyboard-response,223,1750425,0.0-12.0-0.53,612a98181f4b6d1cf01f926c,650c16f0f2faf8d7a0d14c09,651c1e71371af10733e73990,null,null,"<p style=""font-size: 60px; font-family: BACS"">mBYlPMYm</p>",,,,,,,,,,
html-keyboard-response,224,1751426,0.0-12.0-0.54,612a98181f4b6d1cf01f926c,650c16f0f2faf8d7a0d14c09,651c1e71371af10733e73990,null,null,"<p style=""font-size: 60px; font-family: BACS"">cdKBYPTl</p>",,,,,,,,,,
html-keyboard-response,225,1752428,0.0-12.0-0.55,612a98181f4b6d1cf01f926c,650c16f0f2faf8d7a0d14c09,651c1e71371af10733e73990,null,null,"<p style=""font-size: 60px; font-family: BACS"">OJGQNUZ</p>",,,,,,,,,,
html-keyboard-response,226,1753429,0.0-12.0-0.56,612a98181f4b6d1cf01f926c,650c16f0f2faf8d7a0d14c09,651c1e71371af10733e73990,null,null,"<p style=""font-size: 60px; font-family: BACS"">tmtEMPMYm</p>",,,,,,,,,,
html-keyboard-response,227,1754430,0.0-12.0-0.57,612a98181f4b6d1cf01f926c,650c16f0f2faf8d7a0d14c09,651c1e71371af10733e73990,null,null,"<p style=""font-size: 60px; font-family: BACS"">mLdkZNUZ</p>",,,,,,,,,,
html-keyboard-response,228,1755431,0.0-12.0-0.58,612a98181f4b6d1cf01f926c,650c16f0f2faf8d7a0d14c09,651c1e71371af10733e73990,null,null,"<p style=""font-size: 60px; font-family: BACS"">NAacQOcZJ</p>",,,,,,,,,,
html-keyboard-response,229,1756432,0.0-12.0-0.59,612a98181f4b6d1cf01f926c,650c16f0f2faf8d7a0d14c09,651c1e71371af10733e73990,null,null,"<p style=""font-size: 60px; font-family: BACS"">vYLUAOUl</p>",,,,,,,,,,
html-keyboard-response,230,1757433,0.0-12.0-0.60,612a98181f4b6d1cf01f926c,650c16f0f2faf8d7a0d14c09,651c1e71371af10733e73990,null,null,"<p style=""font-size: 60px; font-family: BACS"">JZOAkNUZ</p>",,,,,,,,,,
html-keyboard-response,231,1758434,0.0-12.0-0.61,612a98181f4b6d1cf01f926c,650c16f0f2faf8d7a0d14c09,651c1e71371af10733e73990,null,null,"<p style=""font-size: 60px; font-family: BACS"">lAOKMPTl</p>",,,,,,,,,,
html-keyboard-response,232,1759435,0.0-12.0-0.62,612a98181f4b6d1cf01f926c,650c16f0f2faf8d7a0d14c09,651c1e71371af10733e73990,null,null,"<p style=""font-size: 60px; font-family: BACS"">bcbMdPc</p>",,,,,,,,,,
html-keyboard-response,233,1760436,0.0-12.0-0.63,612a98181f4b6d1cf01f926c,650c16f0f2faf8d7a0d14c09,651c1e71371af10733e73990,null,null,"<p style=""font-size: 60px; font-family: BACS"">mLdkZAZbl</p>",,,,,,,,,,
html-keyboard-response,234,1761437,0.0-12.0-0.64,612a98181f4b6d1cf01f926c,650c16f0f2faf8d7a0d14c09,651c1e71371af10733e73990,null,null,"<p style=""font-size: 60px; font-family: BACS"">cdKBYtcB</p>",,,,,,,,,,
html-keyboard-response,235,1762438,0.0-12.0-0.65,612a98181f4b6d1cf01f926c,650c16f0f2faf8d7a0d14c09,651c1e71371af10733e73990,null,null,"<p style=""font-size: 60px; font-family: BACS"">JZOAkAOUl</p>",,,,,,,,,,
html-keyboard-response,236,1763439,0.0-12.0-0.66,612a98181f4b6d1cf01f926c,650c16f0f2faf8d7a0d14c09,651c1e71371af10733e73990,null,null,"<p style=""font-size: 60px; font-family: BACS"">ZdNmUAZbl</p>",,,,,,,,,,
html-keyboard-response,237,1764440,0.0-12.0-0.67,612a98181f4b6d1cf01f926c,650c16f0f2faf8d7a0d14c09,651c1e71371af10733e73990,null,null,"<p style=""font-size: 60px; font-family: BACS"">mLdkZAOUl</p>",,,,,,,,,,
html-keyboard-response,238,1765441,0.0-12.0-0.68,612a98181f4b6d1cf01f926c,650c16f0f2faf8d7a0d14c09,651c1e71371af10733e73990,null,null,"<p style=""font-size: 60px; font-family: BACS"">kZUbNUZ</p>",,,,,,,,,,
html-keyboard-response,239,1766442,0.0-12.0-0.69,612a98181f4b6d1cf01f926c,650c16f0f2faf8d7a0d14c09,651c1e71371af10733e73990,null,null,"<p style=""font-size: 60px; font-family: BACS"">mLdkZOcZJ</p>",,,,,,,,,,
html-keyboard-response,240,1767442,0.0-12.0-0.70,612a98181f4b6d1cf01f926c,650c16f0f2faf8d7a0d14c09,651c1e71371af10733e73990,null,null,"<p style=""font-size: 60px; font-family: BACS"">vblrark</p>",,,,,,,,,,
html-keyboard-response,241,1768444,0.0-12.0-0.71,612a98181f4b6d1cf01f926c,650c16f0f2faf8d7a0d14c09,651c1e71371af10733e73990,null,null,"<p style=""font-size: 60px; font-family: BACS"">lAOKMPMYm</p>",,,,,,,,,,
html-keyboard-response,242,1769445,0.0-12.0-0.72,612a98181f4b6d1cf01f926c,650c16f0f2faf8d7a0d14c09,651c1e71371af10733e73990,null,null,"<p style=""font-size: 60px; font-family: BACS"">bcbMPTl</p>",,,,,,,,,,
html-keyboard-response,243,1770446,0.0-12.0-0.73,612a98181f4b6d1cf01f926c,650c16f0f2faf8d7a0d14c09,651c1e71371af10733e73990,null,null,"<p style=""font-size: 60px; font-family: BACS"">GZJYNUZ</p>",,,,,,,,,,
html-keyboard-response,244,1771448,0.0-12.0-0.74,612a98181f4b6d1cf01f926c,650c16f0f2faf8d7a0d14c09,651c1e71371af10733e73990,null,null,"<p style=""font-size: 60px; font-family: BACS"">PCMPKPTl</p>",,,,,,,,,,
html-keyboard-response,245,1772449,0.0-12.0-0.75,612a98181f4b6d1cf01f926c,650c16f0f2faf8d7a0d14c09,651c1e71371af10733e73990,null,null,"<p style=""font-size: 60px; font-family: BACS"">damYbOcZJ</p>",,,,,,,,,,
html-keyboard-response,246,1773450,0.0-12.0-0.76,612a98181f4b6d1cf01f926c,650c16f0f2faf8d7a0d14c09,651c1e71371af10733e73990,null,null,"<p style=""font-size: 60px; font-family: BACS"">vYLUark</p>",,,,,,,,,,
html-keyboard-response,247,1774451,0.0-12.0-0.77,612a98181f4b6d1cf01f926c,650c16f0f2faf8d7a0d14c09,651c1e71371af10733e73990,null,null,"<p style=""font-size: 60px; font-family: BACS"">lAOKMtcB</p>",,,,,,,,,,
html-keyboard-response,248,1775452,0.0-12.0-0.78,612a98181f4b6d1cf01f926c,650c16f0f2faf8d7a0d14c09,651c1e71371af10733e73990,null,null,"<p style=""font-size: 60px; font-family: BACS"">tmYhdPc</p>",,,,,,,,,,
html-keyboard-response,249,1776453,0.0-12.0-0.79,612a98181f4b6d1cf01f926c,650c16f0f2faf8d7a0d14c09,651c1e71371af10733e73990,null,null,"<p style=""font-size: 60px; font-family: BACS"">vYLUAZbl</p>",,,,,,,,,,
html-keyboard-response,250,1803344,0.0-13.0,612a98181f4b6d1cf01f926c,650c16f0f2faf8d7a0d14c09,651c1e71371af10733e73990,26890, ,"<p>Great, you've seen the third block of words. You may now take a short break.</p>
      <p>Press the spacebar when you're ready to continue.</p>",,,,,,,,,,
html-keyboard-response,251,1804345,0.0-14.0-0.0,612a98181f4b6d1cf01f926c,650c16f0f2faf8d7a0d14c09,651c1e71371af10733e73990,null,null,"<p style=""font-size: 60px; font-family: BACS"">OJGQAZbl</p>",,,,,,,,,,
html-keyboard-response,252,1805346,0.0-14.0-0.1,612a98181f4b6d1cf01f926c,650c16f0f2faf8d7a0d14c09,651c1e71371af10733e73990,null,null,"<p style=""font-size: 60px; font-family: BACS"">damYbark</p>",,,,,,,,,,
html-keyboard-response,253,1806347,0.0-14.0-0.2,612a98181f4b6d1cf01f926c,650c16f0f2faf8d7a0d14c09,651c1e71371af10733e73990,null,null,"<p style=""font-size: 60px; font-family: BACS"">AMkCPTl</p>",,,,,,,,,,
html-keyboard-response,254,1807348,0.0-14.0-0.3,612a98181f4b6d1cf01f926c,650c16f0f2faf8d7a0d14c09,651c1e71371af10733e73990,null,null,"<p style=""font-size: 60px; font-family: BACS"">GZJYNUZ</p>",,,,,,,,,,
html-keyboard-response,255,1808349,0.0-14.0-0.4,612a98181f4b6d1cf01f926c,650c16f0f2faf8d7a0d14c09,651c1e71371af10733e73990,null,null,"<p style=""font-size: 60px; font-family: BACS"">bcbMPMYm</p>",,,,,,,,,,
html-keyboard-response,256,1809350,0.0-14.0-0.5,612a98181f4b6d1cf01f926c,650c16f0f2faf8d7a0d14c09,651c1e71371af10733e73990,null,null,"<p style=""font-size: 60px; font-family: BACS"">vblrAOUl</p>",,,,,,,,,,
html-keyboard-response,257,1810351,0.0-14.0-0.6,612a98181f4b6d1cf01f926c,650c16f0f2faf8d7a0d14c09,651c1e71371af10733e73990,null,null,"<p style=""font-size: 60px; font-family: BACS"">NAacQAZbl</p>",,,,,,,,,,
html-keyboard-response,258,1811352,0.0-14.0-0.7,612a98181f4b6d1cf01f926c,650c16f0f2faf8d7a0d14c09,651c1e71371af10733e73990,null,null,"<p style=""font-size: 60px; font-family: BACS"">tmtEMtcB</p>",,,,,,,,,,
html-keyboard-response,259,1812352,0.0-14.0-0.8,612a98181f4b6d1cf01f926c,650c16f0f2faf8d7a0d14c09,651c1e71371af10733e73990,null,null,"<p style=""font-size: 60px; font-family: BACS"">kZUbOcZJ</p>",,,,,,,,,,
html-keyboard-response,260,1813354,0.0-14.0-0.9,612a98181f4b6d1cf01f926c,650c16f0f2faf8d7a0d14c09,651c1e71371af10733e73990,null,null,"<p style=""font-size: 60px; font-family: BACS"">vYLUark</p>",,,,,,,,,,
html-keyboard-response,261,1814354,0.0-14.0-0.10,612a98181f4b6d1cf01f926c,650c16f0f2faf8d7a0d14c09,651c1e71371af10733e73990,null,null,"<p style=""font-size: 60px; font-family: BACS"">OcYMdPc</p>",,,,,,,,,,
html-keyboard-response,262,1815355,0.0-14.0-0.11,612a98181f4b6d1cf01f926c,650c16f0f2faf8d7a0d14c09,651c1e71371af10733e73990,null,null,"<p style=""font-size: 60px; font-family: BACS"">kZUbNUZ</p>",,,,,,,,,,
html-keyboard-response,263,1816357,0.0-14.0-0.12,612a98181f4b6d1cf01f926c,650c16f0f2faf8d7a0d14c09,651c1e71371af10733e73990,null,null,"<p style=""font-size: 60px; font-family: BACS"">cdKBYtcB</p>",,,,,,,,,,
html-keyboard-response,264,1817359,0.0-14.0-0.13,612a98181f4b6d1cf01f926c,650c16f0f2faf8d7a0d14c09,651c1e71371af10733e73990,null,null,"<p style=""font-size: 60px; font-family: BACS"">GZJYOcZJ</p>",,,,,,,,,,
html-keyboard-response,265,1818359,0.0-14.0-0.14,612a98181f4b6d1cf01f926c,650c16f0f2faf8d7a0d14c09,651c1e71371af10733e73990,null,null,"<p style=""font-size: 60px; font-family: BACS"">ZdNmUNUZ</p>",,,,,,,,,,
html-keyboard-response,266,1819360,0.0-14.0-0.15,612a98181f4b6d1cf01f926c,650c16f0f2faf8d7a0d14c09,651c1e71371af10733e73990,null,null,"<p style=""font-size: 60px; font-family: BACS"">AMkCtcB</p>",,,,,,,,,,
html-keyboard-response,267,1820361,0.0-14.0-0.16,612a98181f4b6d1cf01f926c,650c16f0f2faf8d7a0d14c09,651c1e71371af10733e73990,null,null,"<p style=""font-size: 60px; font-family: BACS"">tmYhdPc</p>",,,,,,,,,,
html-keyboard-response,268,1821362,0.0-14.0-0.17,612a98181f4b6d1cf01f926c,650c16f0f2faf8d7a0d14c09,651c1e71371af10733e73990,null,null,"<p style=""font-size: 60px; font-family: BACS"">AMkCPMYm</p>",,,,,,,,,,
html-keyboard-response,269,1822363,0.0-14.0-0.18,612a98181f4b6d1cf01f926c,650c16f0f2faf8d7a0d14c09,651c1e71371af10733e73990,null,null,"<p style=""font-size: 60px; font-family: BACS"">JZOAkOcZJ</p>",,,,,,,,,,
html-keyboard-response,270,1823364,0.0-14.0-0.19,612a98181f4b6d1cf01f926c,650c16f0f2faf8d7a0d14c09,651c1e71371af10733e73990,null,null,"<p style=""font-size: 60px; font-family: BACS"">GZJYAOUl</p>",,,,,,,,,,
html-keyboard-response,271,1824365,0.0-14.0-0.20,612a98181f4b6d1cf01f926c,650c16f0f2faf8d7a0d14c09,651c1e71371af10733e73990,null,null,"<p style=""font-size: 60px; font-family: BACS"">tmtEMkKE</p>",,,,,,,,,,
html-keyboard-response,272,1825366,0.0-14.0-0.21,612a98181f4b6d1cf01f926c,650c16f0f2faf8d7a0d14c09,651c1e71371af10733e73990,null,null,"<p style=""font-size: 60px; font-family: BACS"">lAOKMdPc</p>",,,,,,,,,,
html-keyboard-response,273,1826367,0.0-14.0-0.22,612a98181f4b6d1cf01f926c,650c16f0f2faf8d7a0d14c09,651c1e71371af10733e73990,null,null,"<p style=""font-size: 60px; font-family: BACS"">vblrark</p>",,,,,,,,,,
html-keyboard-response,274,1827369,0.0-14.0-0.23,612a98181f4b6d1cf01f926c,650c16f0f2faf8d7a0d14c09,651c1e71371af10733e73990,null,null,"<p style=""font-size: 60px; font-family: BACS"">mLdkZOcZJ</p>",,,,,,,,,,
html-keyboard-response,275,1828370,0.0-14.0-0.24,612a98181f4b6d1cf01f926c,650c16f0f2faf8d7a0d14c09,651c1e71371af10733e73990,null,null,"<p style=""font-size: 60px; font-family: BACS"">mBYldPc</p>",,,,,,,,,,
html-keyboard-response,276,1829371,0.0-14.0-0.25,612a98181f4b6d1cf01f926c,650c16f0f2faf8d7a0d14c09,651c1e71371af10733e73990,null,null,"<p style=""font-size: 60px; font-family: BACS"">vblrAZbl</p>",,,,,,,,,,
html-keyboard-response,277,1830372,0.0-14.0-0.26,612a98181f4b6d1cf01f926c,650c16f0f2faf8d7a0d14c09,651c1e71371af10733e73990,null,null,"<p style=""font-size: 60px; font-family: BACS"">mBYltcB</p>",,,,,,,,,,
html-keyboard-response,278,1831373,0.0-14.0-0.27,612a98181f4b6d1cf01f926c,650c16f0f2faf8d7a0d14c09,651c1e71371af10733e73990,null,null,"<p style=""font-size: 60px; font-family: BACS"">bcbMdPc</p>",,,,,,,,,,
html-keyboard-response,279,1832373,0.0-14.0-0.28,612a98181f4b6d1cf01f926c,650c16f0f2faf8d7a0d14c09,651c1e71371af10733e73990,null,null,"<p style=""font-size: 60px; font-family: BACS"">vblrNUZ</p>",,,,,,,,,,
html-keyboard-response,280,1833374,0.0-14.0-0.29,612a98181f4b6d1cf01f926c,650c16f0f2faf8d7a0d14c09,651c1e71371af10733e73990,null,null,"<p style=""font-size: 60px; font-family: BACS"">vYLUAOUl</p>",,,,,,,,,,
html-keyboard-response,281,1834375,0.0-14.0-0.30,612a98181f4b6d1cf01f926c,650c16f0f2faf8d7a0d14c09,651c1e71371af10733e73990,null,null,"<p style=""font-size: 60px; font-family: BACS"">cdKBYPTl</p>",,,,,,,,,,
html-keyboard-response,282,1835376,0.0-14.0-0.31,612a98181f4b6d1cf01f926c,650c16f0f2faf8d7a0d14c09,651c1e71371af10733e73990,null,null,"<p style=""font-size: 60px; font-family: BACS"">GZJYark</p>",,,,,,,,,,
html-keyboard-response,283,1836377,0.0-14.0-0.32,612a98181f4b6d1cf01f926c,650c16f0f2faf8d7a0d14c09,651c1e71371af10733e73990,null,null,"<p style=""font-size: 60px; font-family: BACS"">OJGQOcZJ</p>",,,,,,,,,,
html-keyboard-response,284,1837379,0.0-14.0-0.33,612a98181f4b6d1cf01f926c,650c16f0f2faf8d7a0d14c09,651c1e71371af10733e73990,null,null,"<p style=""font-size: 60px; font-family: BACS"">PCMPKPTl</p>",,,,,,,,,,
html-keyboard-response,285,1838380,0.0-14.0-0.34,612a98181f4b6d1cf01f926c,650c16f0f2faf8d7a0d14c09,651c1e71371af10733e73990,null,null,"<p style=""font-size: 60px; font-family: BACS"">cRElDtcB</p>",,,,,,,,,,
html-keyboard-response,286,1839381,0.0-14.0-0.35,612a98181f4b6d1cf01f926c,650c16f0f2faf8d7a0d14c09,651c1e71371af10733e73990,null,null,"<p style=""font-size: 60px; font-family: BACS"">PCMPKkKE</p>",,,,,,,,,,
html-keyboard-response,287,1840382,0.0-14.0-0.36,612a98181f4b6d1cf01f926c,650c16f0f2faf8d7a0d14c09,651c1e71371af10733e73990,null,null,"<p style=""font-size: 60px; font-family: BACS"">tmYhtcB</p>",,,,,,,,,,
html-keyboard-response,288,1841383,0.0-14.0-0.37,612a98181f4b6d1cf01f926c,650c16f0f2faf8d7a0d14c09,651c1e71371af10733e73990,null,null,"<p style=""font-size: 60px; font-family: BACS"">vYLUOcZJ</p>",,,,,,,,,,
html-keyboard-response,289,1842384,0.0-14.0-0.38,612a98181f4b6d1cf01f926c,650c16f0f2faf8d7a0d14c09,651c1e71371af10733e73990,null,null,"<p style=""font-size: 60px; font-family: BACS"">PCMPKPMYm</p>",,,,,,,,,,
html-keyboard-response,290,1843385,0.0-14.0-0.39,612a98181f4b6d1cf01f926c,650c16f0f2faf8d7a0d14c09,651c1e71371af10733e73990,null,null,"<p style=""font-size: 60px; font-family: BACS"">tmYhPTl</p>",,,,,,,,,,
html-keyboard-response,291,1844386,0.0-14.0-0.40,612a98181f4b6d1cf01f926c,650c16f0f2faf8d7a0d14c09,651c1e71371af10733e73990,null,null,"<p style=""font-size: 60px; font-family: BACS"">mBYlkKE</p>",,,,,,,,,,
html-keyboard-response,292,1845386,0.0-14.0-0.41,612a98181f4b6d1cf01f926c,650c16f0f2faf8d7a0d14c09,651c1e71371af10733e73990,null,null,"<p style=""font-size: 60px; font-family: BACS"">ZdNmUAZbl</p>",,,,,,,,,,
html-keyboard-response,293,1846387,0.0-14.0-0.42,612a98181f4b6d1cf01f926c,650c16f0f2faf8d7a0d14c09,651c1e71371af10733e73990,null,null,"<p style=""font-size: 60px; font-family: BACS"">NAacQAOUl</p>",,,,,,,,,,
html-keyboard-response,294,1847392,0.0-14.0-0.43,612a98181f4b6d1cf01f926c,650c16f0f2faf8d7a0d14c09,651c1e71371af10733e73990,null,null,"<p style=""font-size: 60px; font-family: BACS"">OJGQark</p>",,,,,,,,,,
html-keyboard-response,295,1848393,0.0-14.0-0.44,612a98181f4b6d1cf01f926c,650c16f0f2faf8d7a0d14c09,651c1e71371af10733e73990,null,null,"<p style=""font-size: 60px; font-family: BACS"">OcYMkKE</p>",,,,,,,,,,
html-keyboard-response,296,1849394,0.0-14.0-0.45,612a98181f4b6d1cf01f926c,650c16f0f2faf8d7a0d14c09,651c1e71371af10733e73990,null,null,"<p style=""font-size: 60px; font-family: BACS"">tmtEMPTl</p>",,,,,,,,,,
html-keyboard-response,297,1850395,0.0-14.0-0.46,612a98181f4b6d1cf01f926c,650c16f0f2faf8d7a0d14c09,651c1e71371af10733e73990,null,null,"<p style=""font-size: 60px; font-family: BACS"">cdKBYPMYm</p>",,,,,,,,,,
html-keyboard-response,298,1851397,0.0-14.0-0.47,612a98181f4b6d1cf01f926c,650c16f0f2faf8d7a0d14c09,651c1e71371af10733e73990,null,null,"<p style=""font-size: 60px; font-family: BACS"">cRElDkKE</p>",,,,,,,,,,
html-keyboard-response,299,1852398,0.0-14.0-0.48,612a98181f4b6d1cf01f926c,650c16f0f2faf8d7a0d14c09,651c1e71371af10733e73990,null,null,"<p style=""font-size: 60px; font-family: BACS"">mLdkZNUZ</p>",,,,,,,,,,
html-keyboard-response,300,1853399,0.0-14.0-0.49,612a98181f4b6d1cf01f926c,650c16f0f2faf8d7a0d14c09,651c1e71371af10733e73990,null,null,"<p style=""font-size: 60px; font-family: BACS"">ZdNmUAOUl</p>",,,,,,,,,,
html-keyboard-response,301,1854400,0.0-14.0-0.50,612a98181f4b6d1cf01f926c,650c16f0f2faf8d7a0d14c09,651c1e71371af10733e73990,null,null,"<p style=""font-size: 60px; font-family: BACS"">OcYMtcB</p>",,,,,,,,,,
html-keyboard-response,302,1855401,0.0-14.0-0.51,612a98181f4b6d1cf01f926c,650c16f0f2faf8d7a0d14c09,651c1e71371af10733e73990,null,null,"<p style=""font-size: 60px; font-family: BACS"">mLdkZAOUl</p>",,,,,,,,,,
html-keyboard-response,303,1856402,0.0-14.0-0.52,612a98181f4b6d1cf01f926c,650c16f0f2faf8d7a0d14c09,651c1e71371af10733e73990,null,null,"<p style=""font-size: 60px; font-family: BACS"">NAacQOcZJ</p>",,,,,,,,,,
html-keyboard-response,304,1857403,0.0-14.0-0.53,612a98181f4b6d1cf01f926c,650c16f0f2faf8d7a0d14c09,651c1e71371af10733e73990,null,null,"<p style=""font-size: 60px; font-family: BACS"">tmtEMPMYm</p>",,,,,,,,,,
html-keyboard-response,305,1858404,0.0-14.0-0.54,612a98181f4b6d1cf01f926c,650c16f0f2faf8d7a0d14c09,651c1e71371af10733e73990,null,null,"<p style=""font-size: 60px; font-family: BACS"">damYbOcZJ</p>",,,,,,,,,,
html-keyboard-response,306,1859408,0.0-14.0-0.55,612a98181f4b6d1cf01f926c,650c16f0f2faf8d7a0d14c09,651c1e71371af10733e73990,null,null,"<p style=""font-size: 60px; font-family: BACS"">ZdNmUark</p>",,,,,,,,,,
html-keyboard-response,307,1860411,0.0-14.0-0.56,612a98181f4b6d1cf01f926c,650c16f0f2faf8d7a0d14c09,651c1e71371af10733e73990,null,null,"<p style=""font-size: 60px; font-family: BACS"">JZOAkAOUl</p>",,,,,,,,,,
html-keyboard-response,308,1861412,0.0-14.0-0.57,612a98181f4b6d1cf01f926c,650c16f0f2faf8d7a0d14c09,651c1e71371af10733e73990,null,null,"<p style=""font-size: 60px; font-family: BACS"">cRElDdPc</p>",,,,,,,,,,
html-keyboard-response,309,1862413,0.0-14.0-0.58,612a98181f4b6d1cf01f926c,650c16f0f2faf8d7a0d14c09,651c1e71371af10733e73990,null,null,"<p style=""font-size: 60px; font-family: BACS"">JZOAkAZbl</p>",,,,,,,,,,
html-keyboard-response,310,1863415,0.0-14.0-0.59,612a98181f4b6d1cf01f926c,650c16f0f2faf8d7a0d14c09,651c1e71371af10733e73990,null,null,"<p style=""font-size: 60px; font-family: BACS"">OcYMPTl</p>",,,,,,,,,,
html-keyboard-response,311,1864416,0.0-14.0-0.60,612a98181f4b6d1cf01f926c,650c16f0f2faf8d7a0d14c09,651c1e71371af10733e73990,null,null,"<p style=""font-size: 60px; font-family: BACS"">vYLUAZbl</p>",,,,,,,,,,
html-keyboard-response,312,1865417,0.0-14.0-0.61,612a98181f4b6d1cf01f926c,650c16f0f2faf8d7a0d14c09,651c1e71371af10733e73990,null,null,"<p style=""font-size: 60px; font-family: BACS"">OJGQNUZ</p>",,,,,,,,,,
html-keyboard-response,313,1866418,0.0-14.0-0.62,612a98181f4b6d1cf01f926c,650c16f0f2faf8d7a0d14c09,651c1e71371af10733e73990,null,null,"<p style=""font-size: 60px; font-family: BACS"">bcbMPTl</p>",,,,,,,,,,
html-keyboard-response,314,1867419,0.0-14.0-0.63,612a98181f4b6d1cf01f926c,650c16f0f2faf8d7a0d14c09,651c1e71371af10733e73990,null,null,"<p style=""font-size: 60px; font-family: BACS"">mLdkZAZbl</p>",,,,,,,,,,
html-keyboard-response,315,1868420,0.0-14.0-0.64,612a98181f4b6d1cf01f926c,650c16f0f2faf8d7a0d14c09,651c1e71371af10733e73990,null,null,"<p style=""font-size: 60px; font-family: BACS"">AMkCkKE</p>",,,,,,,,,,
html-keyboard-response,316,1869421,0.0-14.0-0.65,612a98181f4b6d1cf01f926c,650c16f0f2faf8d7a0d14c09,651c1e71371af10733e73990,null,null,"<p style=""font-size: 60px; font-family: BACS"">JZOAkNUZ</p>",,,,,,,,,,
html-keyboard-response,317,1870422,0.0-14.0-0.66,612a98181f4b6d1cf01f926c,650c16f0f2faf8d7a0d14c09,651c1e71371af10733e73990,null,null,"<p style=""font-size: 60px; font-family: BACS"">damYbAZbl</p>",,,,,,,,,,
html-keyboard-response,318,1871424,0.0-14.0-0.67,612a98181f4b6d1cf01f926c,650c16f0f2faf8d7a0d14c09,651c1e71371af10733e73990,null,null,"<p style=""font-size: 60px; font-family: BACS"">PCMPKdPc</p>",,,,,,,,,,
html-keyboard-response,319,1872425,0.0-14.0-0.68,612a98181f4b6d1cf01f926c,650c16f0f2faf8d7a0d14c09,651c1e71371af10733e73990,null,null,"<p style=""font-size: 60px; font-family: BACS"">kZUbark</p>",,,,,,,,,,
html-keyboard-response,320,1873428,0.0-14.0-0.69,612a98181f4b6d1cf01f926c,650c16f0f2faf8d7a0d14c09,651c1e71371af10733e73990,null,null,"<p style=""font-size: 60px; font-family: BACS"">lAOKMtcB</p>",,,,,,,,,,
html-keyboard-response,321,1874429,0.0-14.0-0.70,612a98181f4b6d1cf01f926c,650c16f0f2faf8d7a0d14c09,651c1e71371af10733e73990,null,null,"<p style=""font-size: 60px; font-family: BACS"">tmYhkKE</p>",,,,,,,,,,
html-keyboard-response,322,1875431,0.0-14.0-0.71,612a98181f4b6d1cf01f926c,650c16f0f2faf8d7a0d14c09,651c1e71371af10733e73990,null,null,"<p style=""font-size: 60px; font-family: BACS"">lAOKMPMYm</p>",,,,,,,,,,
html-keyboard-response,323,1876430,0.0-14.0-0.72,612a98181f4b6d1cf01f926c,650c16f0f2faf8d7a0d14c09,651c1e71371af10733e73990,null,null,"<p style=""font-size: 60px; font-family: BACS"">cdKBYdPc</p>",,,,,,,,,,
html-keyboard-response,324,1877432,0.0-14.0-0.73,612a98181f4b6d1cf01f926c,650c16f0f2faf8d7a0d14c09,651c1e71371af10733e73990,null,null,"<p style=""font-size: 60px; font-family: BACS"">damYbNUZ</p>",,,,,,,,,,
html-keyboard-response,325,1878434,0.0-14.0-0.74,612a98181f4b6d1cf01f926c,650c16f0f2faf8d7a0d14c09,651c1e71371af10733e73990,null,null,"<p style=""font-size: 60px; font-family: BACS"">cRElDPMYm</p>",,,,,,,,,,
html-keyboard-response,326,1879436,0.0-14.0-0.75,612a98181f4b6d1cf01f926c,650c16f0f2faf8d7a0d14c09,651c1e71371af10733e73990,null,null,"<p style=""font-size: 60px; font-family: BACS"">kZUbAOUl</p>",,,,,,,,,,
html-keyboard-response,327,1880437,0.0-14.0-0.76,612a98181f4b6d1cf01f926c,650c16f0f2faf8d7a0d14c09,651c1e71371af10733e73990,null,null,"<p style=""font-size: 60px; font-family: BACS"">mBYlPMYm</p>",,,,,,,,,,
html-keyboard-response,328,1881438,0.0-14.0-0.77,612a98181f4b6d1cf01f926c,650c16f0f2faf8d7a0d14c09,651c1e71371af10733e73990,null,null,"<p style=""font-size: 60px; font-family: BACS"">NAacQark</p>",,,,,,,,,,
html-keyboard-response,329,1882438,0.0-14.0-0.78,612a98181f4b6d1cf01f926c,650c16f0f2faf8d7a0d14c09,651c1e71371af10733e73990,null,null,"<p style=""font-size: 60px; font-family: BACS"">lAOKMPTl</p>",,,,,,,,,,
html-keyboard-response,330,1883440,0.0-14.0-0.79,612a98181f4b6d1cf01f926c,650c16f0f2faf8d7a0d14c09,651c1e71371af10733e73990,null,null,"<p style=""font-size: 60px; font-family: BACS"">bcbMkKE</p>",,,,,,,,,,
html-keyboard-response,331,2027969,0.0-15.0,612a98181f4b6d1cf01f926c,650c16f0f2faf8d7a0d14c09,651c1e71371af10733e73990,144527, ,"<p>Great, you've seen the fourth block of words. You may now take a short break.</p>
      <p>Press the spacebar when you're ready to continue.</p>",,,,,,,,,,
html-keyboard-response,332,2028970,0.0-16.0-0.0,612a98181f4b6d1cf01f926c,650c16f0f2faf8d7a0d14c09,651c1e71371af10733e73990,null,null,"<p style=""font-size: 60px; font-family: BACS"">lAOKMPTl</p>",,,,,,,,,,
html-keyboard-response,333,2029971,0.0-16.0-0.1,612a98181f4b6d1cf01f926c,650c16f0f2faf8d7a0d14c09,651c1e71371af10733e73990,null,null,"<p style=""font-size: 60px; font-family: BACS"">lAOKMPTl</p>",,,,,,,,,,
html-keyboard-response,334,2030972,0.0-16.0-0.2,612a98181f4b6d1cf01f926c,650c16f0f2faf8d7a0d14c09,651c1e71371af10733e73990,null,null,"<p style=""font-size: 60px; font-family: BACS"">lAOKMPTl</p>",,,,,,,,,,
html-keyboard-response,335,2031973,0.0-16.0-0.3,612a98181f4b6d1cf01f926c,650c16f0f2faf8d7a0d14c09,651c1e71371af10733e73990,null,null,"<p style=""font-size: 60px; font-family: BACS"">lAOKMPTl</p>",,,,,,,,,,
html-keyboard-response,336,2032974,0.0-16.0-0.4,612a98181f4b6d1cf01f926c,650c16f0f2faf8d7a0d14c09,651c1e71371af10733e73990,null,null,"<p style=""font-size: 60px; font-family: BACS"">lAOKMPTl</p>",,,,,,,,,,
html-keyboard-response,337,2033975,0.0-16.0-0.5,612a98181f4b6d1cf01f926c,650c16f0f2faf8d7a0d14c09,651c1e71371af10733e73990,null,null,"<p style=""font-size: 60px; font-family: BACS"">lAOKMPTl</p>",,,,,,,,,,
html-keyboard-response,338,2034975,0.0-16.0-0.6,612a98181f4b6d1cf01f926c,650c16f0f2faf8d7a0d14c09,651c1e71371af10733e73990,null,null,"<p style=""font-size: 60px; font-family: BACS"">lAOKMPTl</p>",,,,,,,,,,
html-keyboard-response,339,2035977,0.0-16.0-0.7,612a98181f4b6d1cf01f926c,650c16f0f2faf8d7a0d14c09,651c1e71371af10733e73990,null,null,"<p style=""font-size: 60px; font-family: BACS"">lAOKMPTl</p>",,,,,,,,,,
html-keyboard-response,340,2036978,0.0-16.0-0.8,612a98181f4b6d1cf01f926c,650c16f0f2faf8d7a0d14c09,651c1e71371af10733e73990,null,null,"<p style=""font-size: 60px; font-family: BACS"">lAOKMPTl</p>",,,,,,,,,,
html-keyboard-response,341,2037979,0.0-16.0-0.9,612a98181f4b6d1cf01f926c,650c16f0f2faf8d7a0d14c09,651c1e71371af10733e73990,null,null,"<p style=""font-size: 60px; font-family: BACS"">lAOKMPTl</p>",,,,,,,,,,
html-keyboard-response,342,2038979,0.0-16.0-0.10,612a98181f4b6d1cf01f926c,650c16f0f2faf8d7a0d14c09,651c1e71371af10733e73990,null,null,"<p style=""font-size: 60px; font-family: BACS"">lAOKMPTl</p>",,,,,,,,,,
html-keyboard-response,343,2039981,0.0-16.0-0.11,612a98181f4b6d1cf01f926c,650c16f0f2faf8d7a0d14c09,651c1e71371af10733e73990,null,null,"<p style=""font-size: 60px; font-family: BACS"">lAOKMPTl</p>",,,,,,,,,,
html-keyboard-response,344,2040981,0.0-16.0-0.12,612a98181f4b6d1cf01f926c,650c16f0f2faf8d7a0d14c09,651c1e71371af10733e73990,null,null,"<p style=""font-size: 60px; font-family: BACS"">lAOKMPTl</p>",,,,,,,,,,
html-keyboard-response,345,2041983,0.0-16.0-0.13,612a98181f4b6d1cf01f926c,650c16f0f2faf8d7a0d14c09,651c1e71371af10733e73990,null,null,"<p style=""font-size: 60px; font-family: BACS"">lAOKMPTl</p>",,,,,,,,,,
html-keyboard-response,346,2042984,0.0-16.0-0.14,612a98181f4b6d1cf01f926c,650c16f0f2faf8d7a0d14c09,651c1e71371af10733e73990,null,null,"<p style=""font-size: 60px; font-family: BACS"">lAOKMPTl</p>",,,,,,,,,,
html-keyboard-response,347,2043985,0.0-16.0-0.15,612a98181f4b6d1cf01f926c,650c16f0f2faf8d7a0d14c09,651c1e71371af10733e73990,null,null,"<p style=""font-size: 60px; font-family: BACS"">lAOKMPTl</p>",,,,,,,,,,
html-keyboard-response,348,2044986,0.0-16.0-0.16,612a98181f4b6d1cf01f926c,650c16f0f2faf8d7a0d14c09,651c1e71371af10733e73990,null,null,"<p style=""font-size: 60px; font-family: BACS"">lAOKMPTl</p>",,,,,,,,,,
html-keyboard-response,349,2045987,0.0-16.0-0.17,612a98181f4b6d1cf01f926c,650c16f0f2faf8d7a0d14c09,651c1e71371af10733e73990,null,null,"<p style=""font-size: 60px; font-family: BACS"">lAOKMPTl</p>",,,,,,,,,,
html-keyboard-response,350,2046988,0.0-16.0-0.18,612a98181f4b6d1cf01f926c,650c16f0f2faf8d7a0d14c09,651c1e71371af10733e73990,null,null,"<p style=""font-size: 60px; font-family: BACS"">lAOKMPTl</p>",,,,,,,,,,
html-keyboard-response,351,2047989,0.0-16.0-0.19,612a98181f4b6d1cf01f926c,650c16f0f2faf8d7a0d14c09,651c1e71371af10733e73990,null,null,"<p style=""font-size: 60px; font-family: BACS"">lAOKMPTl</p>",,,,,,,,,,
html-keyboard-response,352,2048990,0.0-16.0-0.20,612a98181f4b6d1cf01f926c,650c16f0f2faf8d7a0d14c09,651c1e71371af10733e73990,null,null,"<p style=""font-size: 60px; font-family: BACS"">lAOKMPTl</p>",,,,,,,,,,
html-keyboard-response,353,2049991,0.0-16.0-0.21,612a98181f4b6d1cf01f926c,650c16f0f2faf8d7a0d14c09,651c1e71371af10733e73990,null,null,"<p style=""font-size: 60px; font-family: BACS"">lAOKMPTl</p>",,,,,,,,,,
html-keyboard-response,354,2050992,0.0-16.0-0.22,612a98181f4b6d1cf01f926c,650c16f0f2faf8d7a0d14c09,651c1e71371af10733e73990,null,null,"<p style=""font-size: 60px; font-family: BACS"">lAOKMPTl</p>",,,,,,,,,,
html-keyboard-response,355,2051993,0.0-16.0-0.23,612a98181f4b6d1cf01f926c,650c16f0f2faf8d7a0d14c09,651c1e71371af10733e73990,null,null,"<p style=""font-size: 60px; font-family: BACS"">lAOKMPTl</p>",,,,,,,,,,
html-keyboard-response,356,2052993,0.0-16.0-0.24,612a98181f4b6d1cf01f926c,650c16f0f2faf8d7a0d14c09,651c1e71371af10733e73990,null,null,"<p style=""font-size: 60px; font-family: BACS"">lAOKMPTl</p>",,,,,,,,,,
html-keyboard-response,357,2053995,0.0-16.0-0.25,612a98181f4b6d1cf01f926c,650c16f0f2faf8d7a0d14c09,651c1e71371af10733e73990,null,null,"<p style=""font-size: 60px; font-family: BACS"">lAOKMPTl</p>",,,,,,,,,,
html-keyboard-response,358,2054995,0.0-16.0-0.26,612a98181f4b6d1cf01f926c,650c16f0f2faf8d7a0d14c09,651c1e71371af10733e73990,null,null,"<p style=""font-size: 60px; font-family: BACS"">lAOKMPTl</p>",,,,,,,,,,
html-keyboard-response,359,2055997,0.0-16.0-0.27,612a98181f4b6d1cf01f926c,650c16f0f2faf8d7a0d14c09,651c1e71371af10733e73990,null,null,"<p style=""font-size: 60px; font-family: BACS"">lAOKMPTl</p>",,,,,,,,,,
html-keyboard-response,360,2056997,0.0-16.0-0.28,612a98181f4b6d1cf01f926c,650c16f0f2faf8d7a0d14c09,651c1e71371af10733e73990,null,null,"<p style=""font-size: 60px; font-family: BACS"">lAOKMPTl</p>",,,,,,,,,,
html-keyboard-response,361,2057998,0.0-16.0-0.29,612a98181f4b6d1cf01f926c,650c16f0f2faf8d7a0d14c09,651c1e71371af10733e73990,null,null,"<p style=""font-size: 60px; font-family: BACS"">lAOKMPTl</p>",,,,,,,,,,
html-keyboard-response,362,2059000,0.0-16.0-0.30,612a98181f4b6d1cf01f926c,650c16f0f2faf8d7a0d14c09,651c1e71371af10733e73990,null,null,"<p style=""font-size: 60px; font-family: BACS"">lAOKMPTl</p>",,,,,,,,,,
html-keyboard-response,363,2060001,0.0-16.0-0.31,612a98181f4b6d1cf01f926c,650c16f0f2faf8d7a0d14c09,651c1e71371af10733e73990,null,null,"<p style=""font-size: 60px; font-family: BACS"">lAOKMPTl</p>",,,,,,,,,,
html-keyboard-response,364,2061002,0.0-16.0-0.32,612a98181f4b6d1cf01f926c,650c16f0f2faf8d7a0d14c09,651c1e71371af10733e73990,null,null,"<p style=""font-size: 60px; font-family: BACS"">lAOKMPTl</p>",,,,,,,,,,
html-keyboard-response,365,2062003,0.0-16.0-0.33,612a98181f4b6d1cf01f926c,650c16f0f2faf8d7a0d14c09,651c1e71371af10733e73990,null,null,"<p style=""font-size: 60px; font-family: BACS"">lAOKMPTl</p>",,,,,,,,,,
html-keyboard-response,366,2063003,0.0-16.0-0.34,612a98181f4b6d1cf01f926c,650c16f0f2faf8d7a0d14c09,651c1e71371af10733e73990,null,null,"<p style=""font-size: 60px; font-family: BACS"">lAOKMPTl</p>",,,,,,,,,,
html-keyboard-response,367,2064005,0.0-16.0-0.35,612a98181f4b6d1cf01f926c,650c16f0f2faf8d7a0d14c09,651c1e71371af10733e73990,null,null,"<p style=""font-size: 60px; font-family: BACS"">lAOKMPTl</p>",,,,,,,,,,
html-keyboard-response,368,2065006,0.0-16.0-0.36,612a98181f4b6d1cf01f926c,650c16f0f2faf8d7a0d14c09,651c1e71371af10733e73990,null,null,"<p style=""font-size: 60px; font-family: BACS"">lAOKMPTl</p>",,,,,,,,,,
html-keyboard-response,369,2066007,0.0-16.0-0.37,612a98181f4b6d1cf01f926c,650c16f0f2faf8d7a0d14c09,651c1e71371af10733e73990,null,null,"<p style=""font-size: 60px; font-family: BACS"">lAOKMPTl</p>",,,,,,,,,,
html-keyboard-response,370,2067007,0.0-16.0-0.38,612a98181f4b6d1cf01f926c,650c16f0f2faf8d7a0d14c09,651c1e71371af10733e73990,null,null,"<p style=""font-size: 60px; font-family: BACS"">lAOKMPTl</p>",,,,,,,,,,
html-keyboard-response,371,2068009,0.0-16.0-0.39,612a98181f4b6d1cf01f926c,650c16f0f2faf8d7a0d14c09,651c1e71371af10733e73990,null,null,"<p style=""font-size: 60px; font-family: BACS"">lAOKMPTl</p>",,,,,,,,,,
html-keyboard-response,372,2069009,0.0-16.0-0.40,612a98181f4b6d1cf01f926c,650c16f0f2faf8d7a0d14c09,651c1e71371af10733e73990,null,null,"<p style=""font-size: 60px; font-family: BACS"">lAOKMPTl</p>",,,,,,,,,,
html-keyboard-response,373,2070010,0.0-16.0-0.41,612a98181f4b6d1cf01f926c,650c16f0f2faf8d7a0d14c09,651c1e71371af10733e73990,null,null,"<p style=""font-size: 60px; font-family: BACS"">lAOKMPTl</p>",,,,,,,,,,
html-keyboard-response,374,2071012,0.0-16.0-0.42,612a98181f4b6d1cf01f926c,650c16f0f2faf8d7a0d14c09,651c1e71371af10733e73990,null,null,"<p style=""font-size: 60px; font-family: BACS"">lAOKMPTl</p>",,,,,,,,,,
html-keyboard-response,375,2072028,0.0-16.0-0.43,612a98181f4b6d1cf01f926c,650c16f0f2faf8d7a0d14c09,651c1e71371af10733e73990,null,null,"<p style=""font-size: 60px; font-family: BACS"">lAOKMPTl</p>",,,,,,,,,,
html-keyboard-response,376,2073029,0.0-16.0-0.44,612a98181f4b6d1cf01f926c,650c16f0f2faf8d7a0d14c09,651c1e71371af10733e73990,null,null,"<p style=""font-size: 60px; font-family: BACS"">lAOKMPTl</p>",,,,,,,,,,
html-keyboard-response,377,2074029,0.0-16.0-0.45,612a98181f4b6d1cf01f926c,650c16f0f2faf8d7a0d14c09,651c1e71371af10733e73990,null,null,"<p style=""font-size: 60px; font-family: BACS"">lAOKMPTl</p>",,,,,,,,,,
html-keyboard-response,378,2075032,0.0-16.0-0.46,612a98181f4b6d1cf01f926c,650c16f0f2faf8d7a0d14c09,651c1e71371af10733e73990,null,null,"<p style=""font-size: 60px; font-family: BACS"">lAOKMPTl</p>",,,,,,,,,,
html-keyboard-response,379,2076033,0.0-16.0-0.47,612a98181f4b6d1cf01f926c,650c16f0f2faf8d7a0d14c09,651c1e71371af10733e73990,null,null,"<p style=""font-size: 60px; font-family: BACS"">lAOKMPTl</p>",,,,,,,,,,
html-keyboard-response,380,2077035,0.0-16.0-0.48,612a98181f4b6d1cf01f926c,650c16f0f2faf8d7a0d14c09,651c1e71371af10733e73990,null,null,"<p style=""font-size: 60px; font-family: BACS"">lAOKMPTl</p>",,,,,,,,,,
html-keyboard-response,381,2078036,0.0-16.0-0.49,612a98181f4b6d1cf01f926c,650c16f0f2faf8d7a0d14c09,651c1e71371af10733e73990,null,null,"<p style=""font-size: 60px; font-family: BACS"">lAOKMPTl</p>",,,,,,,,,,
html-keyboard-response,382,2079037,0.0-16.0-0.50,612a98181f4b6d1cf01f926c,650c16f0f2faf8d7a0d14c09,651c1e71371af10733e73990,null,null,"<p style=""font-size: 60px; font-family: BACS"">lAOKMPTl</p>",,,,,,,,,,
html-keyboard-response,383,2080038,0.0-16.0-0.51,612a98181f4b6d1cf01f926c,650c16f0f2faf8d7a0d14c09,651c1e71371af10733e73990,null,null,"<p style=""font-size: 60px; font-family: BACS"">lAOKMPTl</p>",,,,,,,,,,
html-keyboard-response,384,2081039,0.0-16.0-0.52,612a98181f4b6d1cf01f926c,650c16f0f2faf8d7a0d14c09,651c1e71371af10733e73990,null,null,"<p style=""font-size: 60px; font-family: BACS"">lAOKMPTl</p>",,,,,,,,,,
html-keyboard-response,385,2082040,0.0-16.0-0.53,612a98181f4b6d1cf01f926c,650c16f0f2faf8d7a0d14c09,651c1e71371af10733e73990,null,null,"<p style=""font-size: 60px; font-family: BACS"">lAOKMPTl</p>",,,,,,,,,,
html-keyboard-response,386,2083042,0.0-16.0-0.54,612a98181f4b6d1cf01f926c,650c16f0f2faf8d7a0d14c09,651c1e71371af10733e73990,null,null,"<p style=""font-size: 60px; font-family: BACS"">lAOKMPTl</p>",,,,,,,,,,
html-keyboard-response,387,2084043,0.0-16.0-0.55,612a98181f4b6d1cf01f926c,650c16f0f2faf8d7a0d14c09,651c1e71371af10733e73990,null,null,"<p style=""font-size: 60px; font-family: BACS"">lAOKMPTl</p>",,,,,,,,,,
html-keyboard-response,388,2085043,0.0-16.0-0.56,612a98181f4b6d1cf01f926c,650c16f0f2faf8d7a0d14c09,651c1e71371af10733e73990,null,null,"<p style=""font-size: 60px; font-family: BACS"">lAOKMPTl</p>",,,,,,,,,,
html-keyboard-response,389,2086045,0.0-16.0-0.57,612a98181f4b6d1cf01f926c,650c16f0f2faf8d7a0d14c09,651c1e71371af10733e73990,null,null,"<p style=""font-size: 60px; font-family: BACS"">lAOKMPTl</p>",,,,,,,,,,
html-keyboard-response,390,2087046,0.0-16.0-0.58,612a98181f4b6d1cf01f926c,650c16f0f2faf8d7a0d14c09,651c1e71371af10733e73990,null,null,"<p style=""font-size: 60px; font-family: BACS"">lAOKMPTl</p>",,,,,,,,,,
html-keyboard-response,391,2088047,0.0-16.0-0.59,612a98181f4b6d1cf01f926c,650c16f0f2faf8d7a0d14c09,651c1e71371af10733e73990,null,null,"<p style=""font-size: 60px; font-family: BACS"">lAOKMPTl</p>",,,,,,,,,,
html-keyboard-response,392,2089048,0.0-16.0-0.60,612a98181f4b6d1cf01f926c,650c16f0f2faf8d7a0d14c09,651c1e71371af10733e73990,null,null,"<p style=""font-size: 60px; font-family: BACS"">lAOKMPTl</p>",,,,,,,,,,
html-keyboard-response,393,2090050,0.0-16.0-0.61,612a98181f4b6d1cf01f926c,650c16f0f2faf8d7a0d14c09,651c1e71371af10733e73990,null,null,"<p style=""font-size: 60px; font-family: BACS"">lAOKMPTl</p>",,,,,,,,,,
html-keyboard-response,394,2091052,0.0-16.0-0.62,612a98181f4b6d1cf01f926c,650c16f0f2faf8d7a0d14c09,651c1e71371af10733e73990,null,null,"<p style=""font-size: 60px; font-family: BACS"">lAOKMPTl</p>",,,,,,,,,,
html-keyboard-response,395,2092053,0.0-16.0-0.63,612a98181f4b6d1cf01f926c,650c16f0f2faf8d7a0d14c09,651c1e71371af10733e73990,null,null,"<p style=""font-size: 60px; font-family: BACS"">lAOKMPTl</p>",,,,,,,,,,
html-keyboard-response,396,2093053,0.0-16.0-0.64,612a98181f4b6d1cf01f926c,650c16f0f2faf8d7a0d14c09,651c1e71371af10733e73990,null,null,"<p style=""font-size: 60px; font-family: BACS"">lAOKMPTl</p>",,,,,,,,,,
html-keyboard-response,397,2094055,0.0-16.0-0.65,612a98181f4b6d1cf01f926c,650c16f0f2faf8d7a0d14c09,651c1e71371af10733e73990,null,null,"<p style=""font-size: 60px; font-family: BACS"">lAOKMPTl</p>",,,,,,,,,,
html-keyboard-response,398,2095056,0.0-16.0-0.66,612a98181f4b6d1cf01f926c,650c16f0f2faf8d7a0d14c09,651c1e71371af10733e73990,null,null,"<p style=""font-size: 60px; font-family: BACS"">lAOKMPTl</p>",,,,,,,,,,
html-keyboard-response,399,2096057,0.0-16.0-0.67,612a98181f4b6d1cf01f926c,650c16f0f2faf8d7a0d14c09,651c1e71371af10733e73990,null,null,"<p style=""font-size: 60px; font-family: BACS"">lAOKMPTl</p>",,,,,,,,,,
html-keyboard-response,400,2097058,0.0-16.0-0.68,612a98181f4b6d1cf01f926c,650c16f0f2faf8d7a0d14c09,651c1e71371af10733e73990,null,null,"<p style=""font-size: 60px; font-family: BACS"">lAOKMPTl</p>",,,,,,,,,,
html-keyboard-response,401,2098059,0.0-16.0-0.69,612a98181f4b6d1cf01f926c,650c16f0f2faf8d7a0d14c09,651c1e71371af10733e73990,null,null,"<p style=""font-size: 60px; font-family: BACS"">lAOKMPTl</p>",,,,,,,,,,
html-keyboard-response,402,2099062,0.0-16.0-0.70,612a98181f4b6d1cf01f926c,650c16f0f2faf8d7a0d14c09,651c1e71371af10733e73990,null,null,"<p style=""font-size: 60px; font-family: BACS"">lAOKMPTl</p>",,,,,,,,,,
html-keyboard-response,403,2100063,0.0-16.0-0.71,612a98181f4b6d1cf01f926c,650c16f0f2faf8d7a0d14c09,651c1e71371af10733e73990,null,null,"<p style=""font-size: 60px; font-family: BACS"">lAOKMPTl</p>",,,,,,,,,,
html-keyboard-response,404,2101064,0.0-16.0-0.72,612a98181f4b6d1cf01f926c,650c16f0f2faf8d7a0d14c09,651c1e71371af10733e73990,null,null,"<p style=""font-size: 60px; font-family: BACS"">lAOKMPTl</p>",,,,,,,,,,
html-keyboard-response,405,2102065,0.0-16.0-0.73,612a98181f4b6d1cf01f926c,650c16f0f2faf8d7a0d14c09,651c1e71371af10733e73990,null,null,"<p style=""font-size: 60px; font-family: BACS"">lAOKMPTl</p>",,,,,,,,,,
html-keyboard-response,406,2103066,0.0-16.0-0.74,612a98181f4b6d1cf01f926c,650c16f0f2faf8d7a0d14c09,651c1e71371af10733e73990,null,null,"<p style=""font-size: 60px; font-family: BACS"">lAOKMPTl</p>",,,,,,,,,,
html-keyboard-response,407,2104067,0.0-16.0-0.75,612a98181f4b6d1cf01f926c,650c16f0f2faf8d7a0d14c09,651c1e71371af10733e73990,null,null,"<p style=""font-size: 60px; font-family: BACS"">lAOKMPTl</p>",,,,,,,,,,
html-keyboard-response,408,2105068,0.0-16.0-0.76,612a98181f4b6d1cf01f926c,650c16f0f2faf8d7a0d14c09,651c1e71371af10733e73990,null,null,"<p style=""font-size: 60px; font-family: BACS"">lAOKMPTl</p>",,,,,,,,,,
html-keyboard-response,409,2106068,0.0-16.0-0.77,612a98181f4b6d1cf01f926c,650c16f0f2faf8d7a0d14c09,651c1e71371af10733e73990,null,null,"<p style=""font-size: 60px; font-family: BACS"">lAOKMPTl</p>",,,,,,,,,,
html-keyboard-response,410,2107070,0.0-16.0-0.78,612a98181f4b6d1cf01f926c,650c16f0f2faf8d7a0d14c09,651c1e71371af10733e73990,null,null,"<p style=""font-size: 60px; font-family: BACS"">lAOKMPTl</p>",,,,,,,,,,
html-keyboard-response,411,2108071,0.0-16.0-0.79,612a98181f4b6d1cf01f926c,650c16f0f2faf8d7a0d14c09,651c1e71371af10733e73990,null,null,"<p style=""font-size: 60px; font-family: BACS"">lAOKMPTl</p>",,,,,,,,,,
html-keyboard-response,412,2115936,0.0-17.0,612a98181f4b6d1cf01f926c,650c16f0f2faf8d7a0d14c09,651c1e71371af10733e73990,7865, ,"<p>Great, you've seen the fifth block of words. You may now take a short break.</p>
      <p>Press the spacebar when you're ready to continue.</p>",,,,,,,,,,
html-keyboard-response,413,2116937,0.0-18.0-0.0,612a98181f4b6d1cf01f926c,650c16f0f2faf8d7a0d14c09,651c1e71371af10733e73990,null,null,"<p style=""font-size: 60px; font-family: BACS"">mLdkZAOUl</p>",,,,,,,,,,
html-keyboard-response,414,2117939,0.0-18.0-0.1,612a98181f4b6d1cf01f926c,650c16f0f2faf8d7a0d14c09,651c1e71371af10733e73990,null,null,"<p style=""font-size: 60px; font-family: BACS"">cdKBYtcB</p>",,,,,,,,,,
html-keyboard-response,415,2118939,0.0-18.0-0.2,612a98181f4b6d1cf01f926c,650c16f0f2faf8d7a0d14c09,651c1e71371af10733e73990,null,null,"<p style=""font-size: 60px; font-family: BACS"">NAacQark</p>",,,,,,,,,,
html-keyboard-response,416,2119940,0.0-18.0-0.3,612a98181f4b6d1cf01f926c,650c16f0f2faf8d7a0d14c09,651c1e71371af10733e73990,null,null,"<p style=""font-size: 60px; font-family: BACS"">PCMPKPMYm</p>",,,,,,,,,,
html-keyboard-response,417,2120941,0.0-18.0-0.4,612a98181f4b6d1cf01f926c,650c16f0f2faf8d7a0d14c09,651c1e71371af10733e73990,null,null,"<p style=""font-size: 60px; font-family: BACS"">mBYldPc</p>",,,,,,,,,,
html-keyboard-response,418,2121942,0.0-18.0-0.5,612a98181f4b6d1cf01f926c,650c16f0f2faf8d7a0d14c09,651c1e71371af10733e73990,null,null,"<p style=""font-size: 60px; font-family: BACS"">cdKBYPTl</p>",,,,,,,,,,
html-keyboard-response,419,2122944,0.0-18.0-0.6,612a98181f4b6d1cf01f926c,650c16f0f2faf8d7a0d14c09,651c1e71371af10733e73990,null,null,"<p style=""font-size: 60px; font-family: BACS"">mBYltcB</p>",,,,,,,,,,
html-keyboard-response,420,2123945,0.0-18.0-0.7,612a98181f4b6d1cf01f926c,650c16f0f2faf8d7a0d14c09,651c1e71371af10733e73990,null,null,"<p style=""font-size: 60px; font-family: BACS"">vYLUAOUl</p>",,,,,,,,,,
html-keyboard-response,421,2124945,0.0-18.0-0.8,612a98181f4b6d1cf01f926c,650c16f0f2faf8d7a0d14c09,651c1e71371af10733e73990,null,null,"<p style=""font-size: 60px; font-family: BACS"">mLdkZNUZ</p>",,,,,,,,,,
html-keyboard-response,422,2125947,0.0-18.0-0.9,612a98181f4b6d1cf01f926c,650c16f0f2faf8d7a0d14c09,651c1e71371af10733e73990,null,null,"<p style=""font-size: 60px; font-family: BACS"">ZdNmUAOUl</p>",,,,,,,,,,
html-keyboard-response,423,2126948,0.0-18.0-0.10,612a98181f4b6d1cf01f926c,650c16f0f2faf8d7a0d14c09,651c1e71371af10733e73990,null,null,"<p style=""font-size: 60px; font-family: BACS"">bcbMdPc</p>",,,,,,,,,,
html-keyboard-response,424,2127949,0.0-18.0-0.11,612a98181f4b6d1cf01f926c,650c16f0f2faf8d7a0d14c09,651c1e71371af10733e73990,null,null,"<p style=""font-size: 60px; font-family: BACS"">mBYlkKE</p>",,,,,,,,,,
html-keyboard-response,425,2128950,0.0-18.0-0.12,612a98181f4b6d1cf01f926c,650c16f0f2faf8d7a0d14c09,651c1e71371af10733e73990,null,null,"<p style=""font-size: 60px; font-family: BACS"">NAacQOcZJ</p>",,,,,,,,,,
html-keyboard-response,426,2129951,0.0-18.0-0.13,612a98181f4b6d1cf01f926c,650c16f0f2faf8d7a0d14c09,651c1e71371af10733e73990,null,null,"<p style=""font-size: 60px; font-family: BACS"">damYbark</p>",,,,,,,,,,
html-keyboard-response,427,2130952,0.0-18.0-0.14,612a98181f4b6d1cf01f926c,650c16f0f2faf8d7a0d14c09,651c1e71371af10733e73990,null,null,"<p style=""font-size: 60px; font-family: BACS"">bcbMPTl</p>",,,,,,,,,,
html-keyboard-response,428,2131953,0.0-18.0-0.15,612a98181f4b6d1cf01f926c,650c16f0f2faf8d7a0d14c09,651c1e71371af10733e73990,null,null,"<p style=""font-size: 60px; font-family: BACS"">AMkCtcB</p>",,,,,,,,,,
html-keyboard-response,429,2132954,0.0-18.0-0.16,612a98181f4b6d1cf01f926c,650c16f0f2faf8d7a0d14c09,651c1e71371af10733e73990,null,null,"<p style=""font-size: 60px; font-family: BACS"">damYbNUZ</p>",,,,,,,,,,
html-keyboard-response,430,2133954,0.0-18.0-0.17,612a98181f4b6d1cf01f926c,650c16f0f2faf8d7a0d14c09,651c1e71371af10733e73990,null,null,"<p style=""font-size: 60px; font-family: BACS"">tmtEMkKE</p>",,,,,,,,,,
html-keyboard-response,431,2134955,0.0-18.0-0.18,612a98181f4b6d1cf01f926c,650c16f0f2faf8d7a0d14c09,651c1e71371af10733e73990,null,null,"<p style=""font-size: 60px; font-family: BACS"">vYLUOcZJ</p>",,,,,,,,,,
html-keyboard-response,432,2135956,0.0-18.0-0.19,612a98181f4b6d1cf01f926c,650c16f0f2faf8d7a0d14c09,651c1e71371af10733e73990,null,null,"<p style=""font-size: 60px; font-family: BACS"">cRElDtcB</p>",,,,,,,,,,
html-keyboard-response,433,2136957,0.0-18.0-0.20,612a98181f4b6d1cf01f926c,650c16f0f2faf8d7a0d14c09,651c1e71371af10733e73990,null,null,"<p style=""font-size: 60px; font-family: BACS"">OJGQNUZ</p>",,,,,,,,,,
html-keyboard-response,434,2137959,0.0-18.0-0.21,612a98181f4b6d1cf01f926c,650c16f0f2faf8d7a0d14c09,651c1e71371af10733e73990,null,null,"<p style=""font-size: 60px; font-family: BACS"">OcYMkKE</p>",,,,,,,,,,
html-keyboard-response,435,2138959,0.0-18.0-0.22,612a98181f4b6d1cf01f926c,650c16f0f2faf8d7a0d14c09,651c1e71371af10733e73990,null,null,"<p style=""font-size: 60px; font-family: BACS"">vblrAOUl</p>",,,,,,,,,,
html-keyboard-response,436,2139960,0.0-18.0-0.23,612a98181f4b6d1cf01f926c,650c16f0f2faf8d7a0d14c09,651c1e71371af10733e73990,null,null,"<p style=""font-size: 60px; font-family: BACS"">ZdNmUAZbl</p>",,,,,,,,,,
html-keyboard-response,437,2140961,0.0-18.0-0.24,612a98181f4b6d1cf01f926c,650c16f0f2faf8d7a0d14c09,651c1e71371af10733e73990,null,null,"<p style=""font-size: 60px; font-family: BACS"">JZOAkAOUl</p>",,,,,,,,,,
html-keyboard-response,438,2141962,0.0-18.0-0.25,612a98181f4b6d1cf01f926c,650c16f0f2faf8d7a0d14c09,651c1e71371af10733e73990,null,null,"<p style=""font-size: 60px; font-family: BACS"">cdKBYPMYm</p>",,,,,,,,,,
html-keyboard-response,439,2142963,0.0-18.0-0.26,612a98181f4b6d1cf01f926c,650c16f0f2faf8d7a0d14c09,651c1e71371af10733e73990,null,null,"<p style=""font-size: 60px; font-family: BACS"">tmYhtcB</p>",,,,,,,,,,
html-keyboard-response,440,2143964,0.0-18.0-0.27,612a98181f4b6d1cf01f926c,650c16f0f2faf8d7a0d14c09,651c1e71371af10733e73990,null,null,"<p style=""font-size: 60px; font-family: BACS"">bcbMkKE</p>",,,,,,,,,,
html-keyboard-response,441,2144965,0.0-18.0-0.28,612a98181f4b6d1cf01f926c,650c16f0f2faf8d7a0d14c09,651c1e71371af10733e73990,null,null,"<p style=""font-size: 60px; font-family: BACS"">kZUbAOUl</p>",,,,,,,,,,
html-keyboard-response,442,2145966,0.0-18.0-0.29,612a98181f4b6d1cf01f926c,650c16f0f2faf8d7a0d14c09,651c1e71371af10733e73990,null,null,"<p style=""font-size: 60px; font-family: BACS"">OcYMPTl</p>",,,,,,,,,,
html-keyboard-response,443,2146967,0.0-18.0-0.30,612a98181f4b6d1cf01f926c,650c16f0f2faf8d7a0d14c09,651c1e71371af10733e73990,null,null,"<p style=""font-size: 60px; font-family: BACS"">OJGQAZbl</p>",,,,,,,,,,
html-keyboard-response,444,2147969,0.0-18.0-0.31,612a98181f4b6d1cf01f926c,650c16f0f2faf8d7a0d14c09,651c1e71371af10733e73990,null,null,"<p style=""font-size: 60px; font-family: BACS"">PCMPKdPc</p>",,,,,,,,,,
html-keyboard-response,445,2148968,0.0-18.0-0.32,612a98181f4b6d1cf01f926c,650c16f0f2faf8d7a0d14c09,651c1e71371af10733e73990,null,null,"<p style=""font-size: 60px; font-family: BACS"">kZUbNUZ</p>",,,,,,,,,,
html-keyboard-response,446,2149970,0.0-18.0-0.33,612a98181f4b6d1cf01f926c,650c16f0f2faf8d7a0d14c09,651c1e71371af10733e73990,null,null,"<p style=""font-size: 60px; font-family: BACS"">GZJYOcZJ</p>",,,,,,,,,,
html-keyboard-response,447,2150971,0.0-18.0-0.34,612a98181f4b6d1cf01f926c,650c16f0f2faf8d7a0d14c09,651c1e71371af10733e73990,null,null,"<p style=""font-size: 60px; font-family: BACS"">tmtEMPTl</p>",,,,,,,,,,
html-keyboard-response,448,2151972,0.0-18.0-0.35,612a98181f4b6d1cf01f926c,650c16f0f2faf8d7a0d14c09,651c1e71371af10733e73990,null,null,"<p style=""font-size: 60px; font-family: BACS"">kZUbOcZJ</p>",,,,,,,,,,
html-keyboard-response,449,2152973,0.0-18.0-0.36,612a98181f4b6d1cf01f926c,650c16f0f2faf8d7a0d14c09,651c1e71371af10733e73990,null,null,"<p style=""font-size: 60px; font-family: BACS"">GZJYark</p>",,,,,,,,,,
html-keyboard-response,450,2153974,0.0-18.0-0.37,612a98181f4b6d1cf01f926c,650c16f0f2faf8d7a0d14c09,651c1e71371af10733e73990,null,null,"<p style=""font-size: 60px; font-family: BACS"">OcYMdPc</p>",,,,,,,,,,
html-keyboard-response,451,2154975,0.0-18.0-0.38,612a98181f4b6d1cf01f926c,650c16f0f2faf8d7a0d14c09,651c1e71371af10733e73990,null,null,"<p style=""font-size: 60px; font-family: BACS"">GZJYAOUl</p>",,,,,,,,,,
html-keyboard-response,452,2155976,0.0-18.0-0.39,612a98181f4b6d1cf01f926c,650c16f0f2faf8d7a0d14c09,651c1e71371af10733e73990,null,null,"<p style=""font-size: 60px; font-family: BACS"">lAOKMPTl</p>",,,,,,,,,,
html-keyboard-response,453,2156977,0.0-18.0-0.40,612a98181f4b6d1cf01f926c,650c16f0f2faf8d7a0d14c09,651c1e71371af10733e73990,null,null,"<p style=""font-size: 60px; font-family: BACS"">kZUbark</p>",,,,,,,,,,
html-keyboard-response,454,2157980,0.0-18.0-0.41,612a98181f4b6d1cf01f926c,650c16f0f2faf8d7a0d14c09,651c1e71371af10733e73990,null,null,"<p style=""font-size: 60px; font-family: BACS"">lAOKMdPc</p>",,,,,,,,,,
html-keyboard-response,455,2158983,0.0-18.0-0.42,612a98181f4b6d1cf01f926c,650c16f0f2faf8d7a0d14c09,651c1e71371af10733e73990,null,null,"<p style=""font-size: 60px; font-family: BACS"">ZdNmUNUZ</p>",,,,,,,,,,
html-keyboard-response,456,2159984,0.0-18.0-0.43,612a98181f4b6d1cf01f926c,650c16f0f2faf8d7a0d14c09,651c1e71371af10733e73990,null,null,"<p style=""font-size: 60px; font-family: BACS"">OJGQOcZJ</p>",,,,,,,,,,
html-keyboard-response,457,2160985,0.0-18.0-0.44,612a98181f4b6d1cf01f926c,650c16f0f2faf8d7a0d14c09,651c1e71371af10733e73990,null,null,"<p style=""font-size: 60px; font-family: BACS"">lAOKMtcB</p>",,,,,,,,,,
html-keyboard-response,458,2161986,0.0-18.0-0.45,612a98181f4b6d1cf01f926c,650c16f0f2faf8d7a0d14c09,651c1e71371af10733e73990,null,null,"<p style=""font-size: 60px; font-family: BACS"">damYbOcZJ</p>",,,,,,,,,,
html-keyboard-response,459,2162987,0.0-18.0-0.46,612a98181f4b6d1cf01f926c,650c16f0f2faf8d7a0d14c09,651c1e71371af10733e73990,null,null,"<p style=""font-size: 60px; font-family: BACS"">cdKBYdPc</p>",,,,,,,,,,
html-keyboard-response,460,2163988,0.0-18.0-0.47,612a98181f4b6d1cf01f926c,650c16f0f2faf8d7a0d14c09,651c1e71371af10733e73990,null,null,"<p style=""font-size: 60px; font-family: BACS"">mLdkZAZbl</p>",,,,,,,,,,
html-keyboard-response,461,2164989,0.0-18.0-0.48,612a98181f4b6d1cf01f926c,650c16f0f2faf8d7a0d14c09,651c1e71371af10733e73990,null,null,"<p style=""font-size: 60px; font-family: BACS"">bcbMPMYm</p>",,,,,,,,,,
html-keyboard-response,462,2165990,0.0-18.0-0.49,612a98181f4b6d1cf01f926c,650c16f0f2faf8d7a0d14c09,651c1e71371af10733e73990,null,null,"<p style=""font-size: 60px; font-family: BACS"">OJGQark</p>",,,,,,,,,,
html-keyboard-response,463,2166991,0.0-18.0-0.50,612a98181f4b6d1cf01f926c,650c16f0f2faf8d7a0d14c09,651c1e71371af10733e73990,null,null,"<p style=""font-size: 60px; font-family: BACS"">tmYhPTl</p>",,,,,,,,,,
html-keyboard-response,464,2167992,0.0-18.0-0.51,612a98181f4b6d1cf01f926c,650c16f0f2faf8d7a0d14c09,651c1e71371af10733e73990,null,null,"<p style=""font-size: 60px; font-family: BACS"">AMkCPMYm</p>",,,,,,,,,,
html-keyboard-response,465,2168993,0.0-18.0-0.52,612a98181f4b6d1cf01f926c,650c16f0f2faf8d7a0d14c09,651c1e71371af10733e73990,null,null,"<p style=""font-size: 60px; font-family: BACS"">JZOAkOcZJ</p>",,,,,,,,,,
