trial_type,trial_index,time_elapsed,internal_node_id,subject_id,study_id,session_id,rt,response,stimulus,success,item,task,correct_response,testing_condition,correct,target,confound,name,view_history
pavlovia,0,596,0.0-0.0,6156b68cc77b48d6693b361c,650c16f0f2faf8d7a0d14c09,651c1cc12c957af8ec94c3e6,,,,,,,,,,,,,
survey-html-form,1,7341,0.0-1.0,6156b68cc77b48d6693b361c,650c16f0f2faf8d7a0d14c09,651c1cc12c957af8ec94c3e6,6744,"{""ID"":""6156b68cc77b48d6693b361c""}",,,,,,,,,,,
html-keyboard-response,2,19374,0.0-2.0,6156b68cc77b48d6693b361c,650c16f0f2faf8d7a0d14c09,651c1cc12c957af8ec94c3e6,12033, ,"<p style=""font-size: 15px;"">Before beginning, we ask that you read the consent information and confirm your agreement to participate in the experiment.</p>
      <p style=""font-size: 15px;""> We ask that you remember that this is a research project and that your participation is entirely voluntary. You can stop your participation at any time, without needing to provide any explanation. The study we're asking you to participate in aims at examining how readers process written words. You will be engaged in a session of apprximately 20 minutes, followed by a brief questionnaire. You will have the opportunity to take a few breaks during the experiment. You will be paid £4 for your participation, corresponding to a rate of £8/hour. While this experiment looks at cognitive faculties, this experiment doesn't constitute clinical proof of eventual pathologies.</p>
      <p style=""font-size: 15px;"">All of the information collected thanks to yours and others' participation will be held in a secure password-protected server, and will not be shared with anyone not authorised to view it. Your personal information will be kept with an arbitrary participant ID. Thanks to this data anonymity process, any researcher analysing the data won't be able to track the information back to a specific participant. Therefore, this process will make identifying you impossibile, even when results from the study will be published in scientific reviews, presented at congresses, or at any other public forum. More generally, the collected data will be treated in accordance with the laws on privacy and conformity to the Legislative Degree n. 196 ""Code regarding the protection of personal data"" of the 30th of June 2003 and to the European Regulation 2016/670 (General Data Protection Regulation - GDPR). The Data Protection Officer is Avv. Valentina Carollo, who can be contacted at the following email addresses: <a href=""mailto:dpo@sissa.it"">dpo@sissa.it</a> or <a href=""mailto:rpd@sissa.it"">rpd@sissa.it</a> - PEC: <a href=""mailto:protocollo@pec.sissa.it"">protocollo@pec.sissa.it</a>.</p>
      <p style=""font-size: 15px;""> Before expressing your consent to participate, we would like to remind you again that in case you need explanations on any aspect of the experimental procedure, the researcher is at your disposition (<a href=""mailto:aliebelt@sissa.it"">aliebelt@sissa.it</a>, <a href=""mailto:davide.crepaldi@sissa.it"">davide.crepaldi@sissa.it</a>).</p>
      <p style=""font-size: 15px;"">If you would like to download the informed consent form, you can do so here: <a href=""BASL-Informed_Consent.pdf"" download>informed consent form</a>.</p>
      <p style=""font-size: 15px;"">We ask that you press the spacebar to proceed to the consent section.</p>",,,,,,,,,,
survey-html-form,3,39674,0.0-3.0,6156b68cc77b48d6693b361c,650c16f0f2faf8d7a0d14c09,651c1cc12c957af8ec94c3e6,20299,"{""consent1"":""YES"",""consent2"":""YES"",""consent3"":""YES"",""consent4"":""YES"",""consent5"":""YES"",""consent6"":""YES""}",,,,,,,,,,,
fullscreen,4,63529,0.0-4.0,6156b68cc77b48d6693b361c,650c16f0f2faf8d7a0d14c09,651c1cc12c957af8ec94c3e6,,,,TRUE,,,,,,,,,
html-keyboard-response,5,74526,0.0-5.0,6156b68cc77b48d6693b361c,650c16f0f2faf8d7a0d14c09,651c1cc12c957af8ec94c3e6,10997, ,"<p>Welcome, and thank you very much for your time!</p>
      <p>In this experiment, you'll be a language expert who's been asked to take a look at words that Earth has received in its first communication with aliens. Your task, in this first part of the experiment, is to pay close attention to the words you'll be shown; later, world leaders will ask you questions on what you saw. The words will be shown to you quite quickly; it seems that the aliens were in a hurry :-)</p>
      <p>Press the spacebar to continue.<p>",,,,,,,,,,
html-keyboard-response,6,74578,0.0-6.0,6156b68cc77b48d6693b361c,650c16f0f2faf8d7a0d14c09,651c1cc12c957af8ec94c3e6,null,null,"<p style=""font-size: 120px; font-family: BACS""> </p>",,,,,,,,,,
html-keyboard-response,7,79855,0.0-7.0,6156b68cc77b48d6693b361c,650c16f0f2faf8d7a0d14c09,651c1cc12c957af8ec94c3e6,5277, ,"<p>Here is an example of the words you'll see:</p>
      <img src='esempio.png' height='400px'>
      <p>When you're ready to begin, press the spacebar.</p></div>",,,,,,,,,,
html-keyboard-response,8,80858,0.0-8.0-0.0,6156b68cc77b48d6693b361c,650c16f0f2faf8d7a0d14c09,651c1cc12c957af8ec94c3e6,null,null,"<p style=""font-size: 60px; font-family: BACS"">YmBdCMdP</p>",,,,,,,,,,
html-keyboard-response,9,81866,0.0-8.0-0.1,6156b68cc77b48d6693b361c,650c16f0f2faf8d7a0d14c09,651c1cc12c957af8ec94c3e6,null,null,"<p style=""font-size: 60px; font-family: BACS"">MDKPCEM</p>",,,,,,,,,,
html-keyboard-response,10,82874,0.0-8.0-0.2,6156b68cc77b48d6693b361c,650c16f0f2faf8d7a0d14c09,651c1cc12c957af8ec94c3e6,null,null,"<p style=""font-size: 60px; font-family: BACS"">OLJblGUOA</p>",,,,,,,,,,
html-keyboard-response,11,83881,0.0-8.0-0.3,6156b68cc77b48d6693b361c,650c16f0f2faf8d7a0d14c09,651c1cc12c957af8ec94c3e6,null,null,"<p style=""font-size: 60px; font-family: BACS"">DRPkYDKP</p>",,,,,,,,,,
html-keyboard-response,12,85752,0.0-8.0-0.4,6156b68cc77b48d6693b361c,650c16f0f2faf8d7a0d14c09,651c1cc12c957af8ec94c3e6,null,null,"<p style=""font-size: 60px; font-family: BACS"">dYdAbAMO</p>",,,,,,,,,,
html-keyboard-response,13,86760,0.0-8.0-0.5,6156b68cc77b48d6693b361c,650c16f0f2faf8d7a0d14c09,651c1cc12c957af8ec94c3e6,null,null,"<p style=""font-size: 60px; font-family: BACS"">JZOAkOcN</p>",,,,,,,,,,
html-keyboard-response,14,88753,0.0-8.0-0.6,6156b68cc77b48d6693b361c,650c16f0f2faf8d7a0d14c09,651c1cc12c957af8ec94c3e6,null,null,"<p style=""font-size: 60px; font-family: BACS"">LOLkUOcZJ</p>",,,,,,,,,,
html-keyboard-response,15,89761,0.0-8.0-0.7,6156b68cc77b48d6693b361c,650c16f0f2faf8d7a0d14c09,651c1cc12c957af8ec94c3e6,null,null,"<p style=""font-size: 60px; font-family: BACS"">RtRhCEM</p>",,,,,,,,,,
html-keyboard-response,16,90762,0.0-8.0-0.8,6156b68cc77b48d6693b361c,650c16f0f2faf8d7a0d14c09,651c1cc12c957af8ec94c3e6,null,null,"<p style=""font-size: 60px; font-family: BACS"">AYkEhlMck</p>",,,,,,,,,,
html-keyboard-response,17,92754,0.0-8.0-0.9,6156b68cc77b48d6693b361c,650c16f0f2faf8d7a0d14c09,651c1cc12c957af8ec94c3e6,null,null,"<p style=""font-size: 60px; font-family: BACS"">UdlGQOcN</p>",,,,,,,,,,
html-keyboard-response,18,93754,0.0-8.0-0.10,6156b68cc77b48d6693b361c,650c16f0f2faf8d7a0d14c09,651c1cc12c957af8ec94c3e6,null,null,"<p style=""font-size: 60px; font-family: BACS"">KdARDKP</p>",,,,,,,,,,
html-keyboard-response,19,95752,0.0-8.0-0.11,6156b68cc77b48d6693b361c,650c16f0f2faf8d7a0d14c09,651c1cc12c957af8ec94c3e6,null,null,"<p style=""font-size: 60px; font-family: BACS"">YmBdCEM</p>",,,,,,,,,,
html-keyboard-response,20,96759,0.0-8.0-0.12,6156b68cc77b48d6693b361c,650c16f0f2faf8d7a0d14c09,651c1cc12c957af8ec94c3e6,null,null,"<p style=""font-size: 60px; font-family: BACS"">ALOrlYaOk</p>",,,,,,,,,,
html-keyboard-response,21,98756,0.0-8.0-0.13,6156b68cc77b48d6693b361c,650c16f0f2faf8d7a0d14c09,651c1cc12c957af8ec94c3e6,null,null,"<p style=""font-size: 60px; font-family: BACS"">ctktCMdP</p>",,,,,,,,,,
html-keyboard-response,22,99757,0.0-8.0-0.14,6156b68cc77b48d6693b361c,650c16f0f2faf8d7a0d14c09,651c1cc12c957af8ec94c3e6,null,null,"<p style=""font-size: 60px; font-family: BACS"">AYkEhDKP</p>",,,,,,,,,,
html-keyboard-response,23,101757,0.0-8.0-0.15,6156b68cc77b48d6693b361c,650c16f0f2faf8d7a0d14c09,651c1cc12c957af8ec94c3e6,null,null,"<p style=""font-size: 60px; font-family: BACS"">dYdACMdP</p>",,,,,,,,,,
html-keyboard-response,24,102757,0.0-8.0-0.16,6156b68cc77b48d6693b361c,650c16f0f2faf8d7a0d14c09,651c1cc12c957af8ec94c3e6,null,null,"<p style=""font-size: 60px; font-family: BACS"">uAkrOcZJ</p>",,,,,,,,,,
html-keyboard-response,25,104755,0.0-8.0-0.17,6156b68cc77b48d6693b361c,650c16f0f2faf8d7a0d14c09,651c1cc12c957af8ec94c3e6,null,null,"<p style=""font-size: 60px; font-family: BACS"">ctktbAMO</p>",,,,,,,,,,
html-keyboard-response,26,105755,0.0-8.0-0.18,6156b68cc77b48d6693b361c,650c16f0f2faf8d7a0d14c09,651c1cc12c957af8ec94c3e6,null,null,"<p style=""font-size: 60px; font-family: BACS"">dYdADKP</p>",,,,,,,,,,
html-keyboard-response,27,107755,0.0-8.0-0.19,6156b68cc77b48d6693b361c,650c16f0f2faf8d7a0d14c09,651c1cc12c957af8ec94c3e6,null,null,"<p style=""font-size: 60px; font-family: BACS"">LOLkUGUOA</p>",,,,,,,,,,
html-keyboard-response,28,108763,0.0-8.0-0.20,6156b68cc77b48d6693b361c,650c16f0f2faf8d7a0d14c09,651c1cc12c957af8ec94c3e6,null,null,"<p style=""font-size: 60px; font-family: BACS"">mbZlOcZJ</p>",,,,,,,,,,
html-keyboard-response,29,110755,0.0-8.0-0.21,6156b68cc77b48d6693b361c,650c16f0f2faf8d7a0d14c09,651c1cc12c957af8ec94c3e6,null,null,"<p style=""font-size: 60px; font-family: BACS"">AYkEhCMdP</p>",,,,,,,,,,
html-keyboard-response,30,111756,0.0-8.0-0.22,6156b68cc77b48d6693b361c,650c16f0f2faf8d7a0d14c09,651c1cc12c957af8ec94c3e6,null,null,"<p style=""font-size: 60px; font-family: BACS"">TDKhCEM</p>",,,,,,,,,,
html-keyboard-response,31,112762,0.0-8.0-0.23,6156b68cc77b48d6693b361c,650c16f0f2faf8d7a0d14c09,651c1cc12c957af8ec94c3e6,null,null,"<p style=""font-size: 60px; font-family: BACS"">NvYJGUOA</p>",,,,,,,,,,
html-keyboard-response,32,114756,0.0-8.0-0.24,6156b68cc77b48d6693b361c,650c16f0f2faf8d7a0d14c09,651c1cc12c957af8ec94c3e6,null,null,"<p style=""font-size: 60px; font-family: BACS"">ALOrlGUa</p>",,,,,,,,,,
html-keyboard-response,33,115764,0.0-8.0-0.25,6156b68cc77b48d6693b361c,650c16f0f2faf8d7a0d14c09,651c1cc12c957af8ec94c3e6,null,null,"<p style=""font-size: 60px; font-family: BACS"">mbZlGUOA</p>",,,,,,,,,,
html-keyboard-response,34,117756,0.0-8.0-0.26,6156b68cc77b48d6693b361c,650c16f0f2faf8d7a0d14c09,651c1cc12c957af8ec94c3e6,null,null,"<p style=""font-size: 60px; font-family: BACS"">dYdAlMck</p>",,,,,,,,,,
html-keyboard-response,35,118756,0.0-8.0-0.27,6156b68cc77b48d6693b361c,650c16f0f2faf8d7a0d14c09,651c1cc12c957af8ec94c3e6,null,null,"<p style=""font-size: 60px; font-family: BACS"">KdARCMdP</p>",,,,,,,,,,
html-keyboard-response,36,120759,0.0-8.0-0.28,6156b68cc77b48d6693b361c,650c16f0f2faf8d7a0d14c09,651c1cc12c957af8ec94c3e6,null,null,"<p style=""font-size: 60px; font-family: BACS"">LOLkUGUa</p>",,,,,,,,,,
html-keyboard-response,37,121766,0.0-8.0-0.29,6156b68cc77b48d6693b361c,650c16f0f2faf8d7a0d14c09,651c1cc12c957af8ec94c3e6,null,null,"<p style=""font-size: 60px; font-family: BACS"">MDKPlMck</p>",,,,,,,,,,
html-keyboard-response,38,123758,0.0-8.0-0.30,6156b68cc77b48d6693b361c,650c16f0f2faf8d7a0d14c09,651c1cc12c957af8ec94c3e6,null,null,"<p style=""font-size: 60px; font-family: BACS"">OLJblYaOk</p>",,,,,,,,,,
html-keyboard-response,39,124765,0.0-8.0-0.31,6156b68cc77b48d6693b361c,650c16f0f2faf8d7a0d14c09,651c1cc12c957af8ec94c3e6,null,null,"<p style=""font-size: 60px; font-family: BACS"">KdARbAMO</p>",,,,,,,,,,
html-keyboard-response,40,125768,0.0-8.0-0.32,6156b68cc77b48d6693b361c,650c16f0f2faf8d7a0d14c09,651c1cc12c957af8ec94c3e6,null,null,"<p style=""font-size: 60px; font-family: BACS"">JZOAkOcZJ</p>",,,,,,,,,,
html-keyboard-response,41,127759,0.0-8.0-0.33,6156b68cc77b48d6693b361c,650c16f0f2faf8d7a0d14c09,651c1cc12c957af8ec94c3e6,null,null,"<p style=""font-size: 60px; font-family: BACS"">RtRhlMck</p>",,,,,,,,,,
html-keyboard-response,42,128766,0.0-8.0-0.34,6156b68cc77b48d6693b361c,650c16f0f2faf8d7a0d14c09,651c1cc12c957af8ec94c3e6,null,null,"<p style=""font-size: 60px; font-family: BACS"">NvYJOcN</p>",,,,,,,,,,
html-keyboard-response,43,130758,0.0-8.0-0.35,6156b68cc77b48d6693b361c,650c16f0f2faf8d7a0d14c09,651c1cc12c957af8ec94c3e6,null,null,"<p style=""font-size: 60px; font-family: BACS"">UdlGQOcZJ</p>",,,,,,,,,,
html-keyboard-response,44,131759,0.0-8.0-0.36,6156b68cc77b48d6693b361c,650c16f0f2faf8d7a0d14c09,651c1cc12c957af8ec94c3e6,null,null,"<p style=""font-size: 60px; font-family: BACS"">OLJblGUa</p>",,,,,,,,,,
html-keyboard-response,45,133761,0.0-8.0-0.37,6156b68cc77b48d6693b361c,650c16f0f2faf8d7a0d14c09,651c1cc12c957af8ec94c3e6,null,null,"<p style=""font-size: 60px; font-family: BACS"">rvUbOcN</p>",,,,,,,,,,
html-keyboard-response,46,134768,0.0-8.0-0.38,6156b68cc77b48d6693b361c,650c16f0f2faf8d7a0d14c09,651c1cc12c957af8ec94c3e6,null,null,"<p style=""font-size: 60px; font-family: BACS"">TDKhCMdP</p>",,,,,,,,,,
html-keyboard-response,47,136759,0.0-8.0-0.39,6156b68cc77b48d6693b361c,650c16f0f2faf8d7a0d14c09,651c1cc12c957af8ec94c3e6,null,null,"<p style=""font-size: 60px; font-family: BACS"">YJLcAOcN</p>",,,,,,,,,,
html-keyboard-response,48,137764,0.0-8.0-0.40,6156b68cc77b48d6693b361c,650c16f0f2faf8d7a0d14c09,651c1cc12c957af8ec94c3e6,null,null,"<p style=""font-size: 60px; font-family: BACS"">DRPkYlMck</p>",,,,,,,,,,
html-keyboard-response,49,139760,0.0-8.0-0.41,6156b68cc77b48d6693b361c,650c16f0f2faf8d7a0d14c09,651c1cc12c957af8ec94c3e6,null,null,"<p style=""font-size: 60px; font-family: BACS"">rvUbGUOA</p>",,,,,,,,,,
html-keyboard-response,50,140767,0.0-8.0-0.42,6156b68cc77b48d6693b361c,650c16f0f2faf8d7a0d14c09,651c1cc12c957af8ec94c3e6,null,null,"<p style=""font-size: 60px; font-family: BACS"">MDKPbAMO</p>",,,,,,,,,,
html-keyboard-response,51,141769,0.0-8.0-0.43,6156b68cc77b48d6693b361c,650c16f0f2faf8d7a0d14c09,651c1cc12c957af8ec94c3e6,null,null,"<p style=""font-size: 60px; font-family: BACS"">ALOrlOcZJ</p>",,,,,,,,,,
html-keyboard-response,52,143760,0.0-8.0-0.44,6156b68cc77b48d6693b361c,650c16f0f2faf8d7a0d14c09,651c1cc12c957af8ec94c3e6,null,null,"<p style=""font-size: 60px; font-family: BACS"">MDKPDKP</p>",,,,,,,,,,
html-keyboard-response,53,144765,0.0-8.0-0.45,6156b68cc77b48d6693b361c,650c16f0f2faf8d7a0d14c09,651c1cc12c957af8ec94c3e6,null,null,"<p style=""font-size: 60px; font-family: BACS"">YmBdbAMO</p>",,,,,,,,,,
html-keyboard-response,54,146755,0.0-8.0-0.46,6156b68cc77b48d6693b361c,650c16f0f2faf8d7a0d14c09,651c1cc12c957af8ec94c3e6,null,null,"<p style=""font-size: 60px; font-family: BACS"">JZOAkGUa</p>",,,,,,,,,,
html-keyboard-response,55,147763,0.0-8.0-0.47,6156b68cc77b48d6693b361c,650c16f0f2faf8d7a0d14c09,651c1cc12c957af8ec94c3e6,null,null,"<p style=""font-size: 60px; font-family: BACS"">mbZlOcN</p>",,,,,,,,,,
html-keyboard-response,56,149759,0.0-8.0-0.48,6156b68cc77b48d6693b361c,650c16f0f2faf8d7a0d14c09,651c1cc12c957af8ec94c3e6,null,null,"<p style=""font-size: 60px; font-family: BACS"">rvUbGUa</p>",,,,,,,,,,
html-keyboard-response,57,150767,0.0-8.0-0.49,6156b68cc77b48d6693b361c,650c16f0f2faf8d7a0d14c09,651c1cc12c957af8ec94c3e6,null,null,"<p style=""font-size: 60px; font-family: BACS"">OLJblOcZJ</p>",,,,,,,,,,
html-keyboard-response,58,151768,0.0-8.0-0.50,6156b68cc77b48d6693b361c,650c16f0f2faf8d7a0d14c09,651c1cc12c957af8ec94c3e6,null,null,"<p style=""font-size: 60px; font-family: BACS"">UdlGQGUOA</p>",,,,,,,,,,
html-keyboard-response,59,153757,0.0-8.0-0.51,6156b68cc77b48d6693b361c,650c16f0f2faf8d7a0d14c09,651c1cc12c957af8ec94c3e6,null,null,"<p style=""font-size: 60px; font-family: BACS"">ctktCEM</p>",,,,,,,,,,
html-keyboard-response,60,154758,0.0-8.0-0.52,6156b68cc77b48d6693b361c,650c16f0f2faf8d7a0d14c09,651c1cc12c957af8ec94c3e6,null,null,"<p style=""font-size: 60px; font-family: BACS"">TDKhDKP</p>",,,,,,,,,,
html-keyboard-response,61,156757,0.0-8.0-0.53,6156b68cc77b48d6693b361c,650c16f0f2faf8d7a0d14c09,651c1cc12c957af8ec94c3e6,null,null,"<p style=""font-size: 60px; font-family: BACS"">uAkrGUa</p>",,,,,,,,,,
html-keyboard-response,62,157761,0.0-8.0-0.54,6156b68cc77b48d6693b361c,650c16f0f2faf8d7a0d14c09,651c1cc12c957af8ec94c3e6,null,null,"<p style=""font-size: 60px; font-family: BACS"">ctktDKP</p>",,,,,,,,,,
html-keyboard-response,63,159758,0.0-8.0-0.55,6156b68cc77b48d6693b361c,650c16f0f2faf8d7a0d14c09,651c1cc12c957af8ec94c3e6,null,null,"<p style=""font-size: 60px; font-family: BACS"">uAkrOcN</p>",,,,,,,,,,
html-keyboard-response,64,160759,0.0-8.0-0.56,6156b68cc77b48d6693b361c,650c16f0f2faf8d7a0d14c09,651c1cc12c957af8ec94c3e6,null,null,"<p style=""font-size: 60px; font-family: BACS"">YJLcAOcZJ</p>",,,,,,,,,,
html-keyboard-response,65,161761,0.0-8.0-0.57,6156b68cc77b48d6693b361c,650c16f0f2faf8d7a0d14c09,651c1cc12c957af8ec94c3e6,null,null,"<p style=""font-size: 60px; font-family: BACS"">AYkEhCEM</p>",,,,,,,,,,
html-keyboard-response,66,162763,0.0-8.0-0.58,6156b68cc77b48d6693b361c,650c16f0f2faf8d7a0d14c09,651c1cc12c957af8ec94c3e6,null,null,"<p style=""font-size: 60px; font-family: BACS"">NvYJYaOk</p>",,,,,,,,,,
html-keyboard-response,67,164759,0.0-8.0-0.59,6156b68cc77b48d6693b361c,650c16f0f2faf8d7a0d14c09,651c1cc12c957af8ec94c3e6,null,null,"<p style=""font-size: 60px; font-family: BACS"">OAmAdbAMO</p>",,,,,,,,,,
html-keyboard-response,68,165766,0.0-8.0-0.60,6156b68cc77b48d6693b361c,650c16f0f2faf8d7a0d14c09,651c1cc12c957af8ec94c3e6,null,null,"<p style=""font-size: 60px; font-family: BACS"">RtRhCMdP</p>",,,,,,,,,,
html-keyboard-response,69,167759,0.0-8.0-0.61,6156b68cc77b48d6693b361c,650c16f0f2faf8d7a0d14c09,651c1cc12c957af8ec94c3e6,null,null,"<p style=""font-size: 60px; font-family: BACS"">uAkrGUOA</p>",,,,,,,,,,
html-keyboard-response,70,168760,0.0-8.0-0.62,6156b68cc77b48d6693b361c,650c16f0f2faf8d7a0d14c09,651c1cc12c957af8ec94c3e6,null,null,"<p style=""font-size: 60px; font-family: BACS"">YJLcAGUa</p>",,,,,,,,,,
html-keyboard-response,71,170758,0.0-8.0-0.63,6156b68cc77b48d6693b361c,650c16f0f2faf8d7a0d14c09,651c1cc12c957af8ec94c3e6,null,null,"<p style=""font-size: 60px; font-family: BACS"">UdlGQYaOk</p>",,,,,,,,,,
html-keyboard-response,72,171766,0.0-8.0-0.64,6156b68cc77b48d6693b361c,650c16f0f2faf8d7a0d14c09,651c1cc12c957af8ec94c3e6,null,null,"<p style=""font-size: 60px; font-family: BACS"">LOLkUOcN</p>",,,,,,,,,,
html-keyboard-response,73,173757,0.0-8.0-0.65,6156b68cc77b48d6693b361c,650c16f0f2faf8d7a0d14c09,651c1cc12c957af8ec94c3e6,null,null,"<p style=""font-size: 60px; font-family: BACS"">YJLcAYaOk</p>",,,,,,,,,,
html-keyboard-response,74,174765,0.0-8.0-0.66,6156b68cc77b48d6693b361c,650c16f0f2faf8d7a0d14c09,651c1cc12c957af8ec94c3e6,null,null,"<p style=""font-size: 60px; font-family: BACS"">NvYJGUa</p>",,,,,,,,,,
html-keyboard-response,75,175767,0.0-8.0-0.67,6156b68cc77b48d6693b361c,650c16f0f2faf8d7a0d14c09,651c1cc12c957af8ec94c3e6,null,null,"<p style=""font-size: 60px; font-family: BACS"">YmBdlMck</p>",,,,,,,,,,
html-keyboard-response,76,177758,0.0-8.0-0.68,6156b68cc77b48d6693b361c,650c16f0f2faf8d7a0d14c09,651c1cc12c957af8ec94c3e6,null,null,"<p style=""font-size: 60px; font-family: BACS"">JZOAkYaOk</p>",,,,,,,,,,
html-keyboard-response,77,178760,0.0-8.0-0.69,6156b68cc77b48d6693b361c,650c16f0f2faf8d7a0d14c09,651c1cc12c957af8ec94c3e6,null,null,"<p style=""font-size: 60px; font-family: BACS"">OAmAdCMdP</p>",,,,,,,,,,
html-keyboard-response,78,180758,0.0-8.0-0.70,6156b68cc77b48d6693b361c,650c16f0f2faf8d7a0d14c09,651c1cc12c957af8ec94c3e6,null,null,"<p style=""font-size: 60px; font-family: BACS"">DRPkYbAMO</p>",,,,,,,,,,
html-keyboard-response,79,181758,0.0-8.0-0.71,6156b68cc77b48d6693b361c,650c16f0f2faf8d7a0d14c09,651c1cc12c957af8ec94c3e6,null,null,"<p style=""font-size: 60px; font-family: BACS"">TDKhlMck</p>",,,,,,,,,,
html-keyboard-response,80,182760,0.0-8.0-0.72,6156b68cc77b48d6693b361c,650c16f0f2faf8d7a0d14c09,651c1cc12c957af8ec94c3e6,null,null,"<p style=""font-size: 60px; font-family: BACS"">KdARCEM</p>",,,,,,,,,,
html-keyboard-response,81,183767,0.0-8.0-0.73,6156b68cc77b48d6693b361c,650c16f0f2faf8d7a0d14c09,651c1cc12c957af8ec94c3e6,null,null,"<p style=""font-size: 60px; font-family: BACS"">rvUbYaOk</p>",,,,,,,,,,
html-keyboard-response,82,185758,0.0-8.0-0.74,6156b68cc77b48d6693b361c,650c16f0f2faf8d7a0d14c09,651c1cc12c957af8ec94c3e6,null,null,"<p style=""font-size: 60px; font-family: BACS"">DRPkYCEM</p>",,,,,,,,,,
html-keyboard-response,83,186761,0.0-8.0-0.75,6156b68cc77b48d6693b361c,650c16f0f2faf8d7a0d14c09,651c1cc12c957af8ec94c3e6,null,null,"<p style=""font-size: 60px; font-family: BACS"">ALOrlGUOA</p>",,,,,,,,,,
html-keyboard-response,84,187762,0.0-8.0-0.76,6156b68cc77b48d6693b361c,650c16f0f2faf8d7a0d14c09,651c1cc12c957af8ec94c3e6,null,null,"<p style=""font-size: 60px; font-family: BACS"">OAmAdlMck</p>",,,,,,,,,,
html-keyboard-response,85,188769,0.0-8.0-0.77,6156b68cc77b48d6693b361c,650c16f0f2faf8d7a0d14c09,651c1cc12c957af8ec94c3e6,null,null,"<p style=""font-size: 60px; font-family: BACS"">mbZlYaOk</p>",,,,,,,,,,
html-keyboard-response,86,190759,0.0-8.0-0.78,6156b68cc77b48d6693b361c,650c16f0f2faf8d7a0d14c09,651c1cc12c957af8ec94c3e6,null,null,"<p style=""font-size: 60px; font-family: BACS"">RtRhbAMO</p>",,,,,,,,,,
html-keyboard-response,87,191766,0.0-8.0-0.79,6156b68cc77b48d6693b361c,650c16f0f2faf8d7a0d14c09,651c1cc12c957af8ec94c3e6,null,null,"<p style=""font-size: 60px; font-family: BACS"">OAmAdDKP</p>",,,,,,,,,,
html-keyboard-response,88,244531,0.0-9.0,6156b68cc77b48d6693b361c,650c16f0f2faf8d7a0d14c09,651c1cc12c957af8ec94c3e6,52764, ,"<p>Great, you've seen the first block of words. You may now take a short break.</p>
      <p>Press the spacebar when you're ready to continue.</p>",,,,,,,,,,
html-keyboard-response,89,245537,0.0-10.0-0.0,6156b68cc77b48d6693b361c,650c16f0f2faf8d7a0d14c09,651c1cc12c957af8ec94c3e6,null,null,"<p style=""font-size: 60px; font-family: BACS"">UdlGQOcZJ</p>",,,,,,,,,,
html-keyboard-response,90,246545,0.0-10.0-0.1,6156b68cc77b48d6693b361c,650c16f0f2faf8d7a0d14c09,651c1cc12c957af8ec94c3e6,null,null,"<p style=""font-size: 60px; font-family: BACS"">AYkEhlMck</p>",,,,,,,,,,
html-keyboard-response,91,247546,0.0-10.0-0.2,6156b68cc77b48d6693b361c,650c16f0f2faf8d7a0d14c09,651c1cc12c957af8ec94c3e6,null,null,"<p style=""font-size: 60px; font-family: BACS"">ctktCEM</p>",,,,,,,,,,
html-keyboard-response,92,248563,0.0-10.0-0.3,6156b68cc77b48d6693b361c,650c16f0f2faf8d7a0d14c09,651c1cc12c957af8ec94c3e6,null,null,"<p style=""font-size: 60px; font-family: BACS"">TDKhlMck</p>",,,,,,,,,,
html-keyboard-response,93,249757,0.0-10.0-0.4,6156b68cc77b48d6693b361c,650c16f0f2faf8d7a0d14c09,651c1cc12c957af8ec94c3e6,null,null,"<p style=""font-size: 60px; font-family: BACS"">OLJblGUa</p>",,,,,,,,,,
html-keyboard-response,94,250764,0.0-10.0-0.5,6156b68cc77b48d6693b361c,650c16f0f2faf8d7a0d14c09,651c1cc12c957af8ec94c3e6,null,null,"<p style=""font-size: 60px; font-family: BACS"">JZOAkOcZJ</p>",,,,,,,,,,
html-keyboard-response,95,252763,0.0-10.0-0.6,6156b68cc77b48d6693b361c,650c16f0f2faf8d7a0d14c09,651c1cc12c957af8ec94c3e6,null,null,"<p style=""font-size: 60px; font-family: BACS"">YmBdCEM</p>",,,,,,,,,,
html-keyboard-response,96,253766,0.0-10.0-0.7,6156b68cc77b48d6693b361c,650c16f0f2faf8d7a0d14c09,651c1cc12c957af8ec94c3e6,null,null,"<p style=""font-size: 60px; font-family: BACS"">DRPkYDKP</p>",,,,,,,,,,
html-keyboard-response,97,255757,0.0-10.0-0.8,6156b68cc77b48d6693b361c,650c16f0f2faf8d7a0d14c09,651c1cc12c957af8ec94c3e6,null,null,"<p style=""font-size: 60px; font-family: BACS"">uAkrOcN</p>",,,,,,,,,,
html-keyboard-response,98,256764,0.0-10.0-0.9,6156b68cc77b48d6693b361c,650c16f0f2faf8d7a0d14c09,651c1cc12c957af8ec94c3e6,null,null,"<p style=""font-size: 60px; font-family: BACS"">rvUbGUa</p>",,,,,,,,,,
html-keyboard-response,99,257766,0.0-10.0-0.10,6156b68cc77b48d6693b361c,650c16f0f2faf8d7a0d14c09,651c1cc12c957af8ec94c3e6,null,null,"<p style=""font-size: 60px; font-family: BACS"">KdARCEM</p>",,,,,,,,,,
html-keyboard-response,100,259761,0.0-10.0-0.11,6156b68cc77b48d6693b361c,650c16f0f2faf8d7a0d14c09,651c1cc12c957af8ec94c3e6,null,null,"<p style=""font-size: 60px; font-family: BACS"">LOLkUGUa</p>",,,,,,,,,,
html-keyboard-response,101,260766,0.0-10.0-0.12,6156b68cc77b48d6693b361c,650c16f0f2faf8d7a0d14c09,651c1cc12c957af8ec94c3e6,null,null,"<p style=""font-size: 60px; font-family: BACS"">AYkEhDKP</p>",,,,,,,,,,
html-keyboard-response,102,262761,0.0-10.0-0.13,6156b68cc77b48d6693b361c,650c16f0f2faf8d7a0d14c09,651c1cc12c957af8ec94c3e6,null,null,"<p style=""font-size: 60px; font-family: BACS"">mbZlYaOk</p>",,,,,,,,,,
html-keyboard-response,103,263761,0.0-10.0-0.14,6156b68cc77b48d6693b361c,650c16f0f2faf8d7a0d14c09,651c1cc12c957af8ec94c3e6,null,null,"<p style=""font-size: 60px; font-family: BACS"">TDKhDKP</p>",,,,,,,,,,
html-keyboard-response,104,265759,0.0-10.0-0.15,6156b68cc77b48d6693b361c,650c16f0f2faf8d7a0d14c09,651c1cc12c957af8ec94c3e6,null,null,"<p style=""font-size: 60px; font-family: BACS"">uAkrOcZJ</p>",,,,,,,,,,
html-keyboard-response,105,266760,0.0-10.0-0.16,6156b68cc77b48d6693b361c,650c16f0f2faf8d7a0d14c09,651c1cc12c957af8ec94c3e6,null,null,"<p style=""font-size: 60px; font-family: BACS"">dYdAlMck</p>",,,,,,,,,,
html-keyboard-response,106,267766,0.0-10.0-0.17,6156b68cc77b48d6693b361c,650c16f0f2faf8d7a0d14c09,651c1cc12c957af8ec94c3e6,null,null,"<p style=""font-size: 60px; font-family: BACS"">DRPkYCEM</p>",,,,,,,,,,
html-keyboard-response,107,269761,0.0-10.0-0.18,6156b68cc77b48d6693b361c,650c16f0f2faf8d7a0d14c09,651c1cc12c957af8ec94c3e6,null,null,"<p style=""font-size: 60px; font-family: BACS"">JZOAkGUa</p>",,,,,,,,,,
html-keyboard-response,108,270768,0.0-10.0-0.19,6156b68cc77b48d6693b361c,650c16f0f2faf8d7a0d14c09,651c1cc12c957af8ec94c3e6,null,null,"<p style=""font-size: 60px; font-family: BACS"">DRPkYbAMO</p>",,,,,,,,,,
html-keyboard-response,109,272760,0.0-10.0-0.20,6156b68cc77b48d6693b361c,650c16f0f2faf8d7a0d14c09,651c1cc12c957af8ec94c3e6,null,null,"<p style=""font-size: 60px; font-family: BACS"">MDKPCEM</p>",,,,,,,,,,
html-keyboard-response,110,274755,0.0-10.0-0.21,6156b68cc77b48d6693b361c,650c16f0f2faf8d7a0d14c09,651c1cc12c957af8ec94c3e6,null,null,"<p style=""font-size: 60px; font-family: BACS"">NvYJYaOk</p>",,,,,,,,,,
html-keyboard-response,111,275761,0.0-10.0-0.22,6156b68cc77b48d6693b361c,650c16f0f2faf8d7a0d14c09,651c1cc12c957af8ec94c3e6,null,null,"<p style=""font-size: 60px; font-family: BACS"">YJLcAOcZJ</p>",,,,,,,,,,
html-keyboard-response,112,276762,0.0-10.0-0.23,6156b68cc77b48d6693b361c,650c16f0f2faf8d7a0d14c09,651c1cc12c957af8ec94c3e6,null,null,"<p style=""font-size: 60px; font-family: BACS"">JZOAkYaOk</p>",,,,,,,,,,
html-keyboard-response,113,277762,0.0-10.0-0.24,6156b68cc77b48d6693b361c,650c16f0f2faf8d7a0d14c09,651c1cc12c957af8ec94c3e6,null,null,"<p style=""font-size: 60px; font-family: BACS"">YJLcAGUa</p>",,,,,,,,,,
html-keyboard-response,114,279758,0.0-10.0-0.25,6156b68cc77b48d6693b361c,650c16f0f2faf8d7a0d14c09,651c1cc12c957af8ec94c3e6,null,null,"<p style=""font-size: 60px; font-family: BACS"">MDKPbAMO</p>",,,,,,,,,,
html-keyboard-response,115,280765,0.0-10.0-0.26,6156b68cc77b48d6693b361c,650c16f0f2faf8d7a0d14c09,651c1cc12c957af8ec94c3e6,null,null,"<p style=""font-size: 60px; font-family: BACS"">OAmAdlMck</p>",,,,,,,,,,
html-keyboard-response,116,281766,0.0-10.0-0.27,6156b68cc77b48d6693b361c,650c16f0f2faf8d7a0d14c09,651c1cc12c957af8ec94c3e6,null,null,"<p style=""font-size: 60px; font-family: BACS"">ALOrlYaOk</p>",,,,,,,,,,
html-keyboard-response,117,283755,0.0-10.0-0.28,6156b68cc77b48d6693b361c,650c16f0f2faf8d7a0d14c09,651c1cc12c957af8ec94c3e6,null,null,"<p style=""font-size: 60px; font-family: BACS"">UdlGQOcN</p>",,,,,,,,,,
html-keyboard-response,118,284756,0.0-10.0-0.29,6156b68cc77b48d6693b361c,650c16f0f2faf8d7a0d14c09,651c1cc12c957af8ec94c3e6,null,null,"<p style=""font-size: 60px; font-family: BACS"">LOLkUOcZJ</p>",,,,,,,,,,
html-keyboard-response,119,286755,0.0-10.0-0.30,6156b68cc77b48d6693b361c,650c16f0f2faf8d7a0d14c09,651c1cc12c957af8ec94c3e6,null,null,"<p style=""font-size: 60px; font-family: BACS"">YmBdbAMO</p>",,,,,,,,,,
html-keyboard-response,120,287762,0.0-10.0-0.31,6156b68cc77b48d6693b361c,650c16f0f2faf8d7a0d14c09,651c1cc12c957af8ec94c3e6,null,null,"<p style=""font-size: 60px; font-family: BACS"">mbZlOcN</p>",,,,,,,,,,
html-keyboard-response,121,288764,0.0-10.0-0.32,6156b68cc77b48d6693b361c,650c16f0f2faf8d7a0d14c09,651c1cc12c957af8ec94c3e6,null,null,"<p style=""font-size: 60px; font-family: BACS"">OLJblYaOk</p>",,,,,,,,,,
html-keyboard-response,122,289766,0.0-10.0-0.33,6156b68cc77b48d6693b361c,650c16f0f2faf8d7a0d14c09,651c1cc12c957af8ec94c3e6,null,null,"<p style=""font-size: 60px; font-family: BACS"">ctktDKP</p>",,,,,,,,,,
html-keyboard-response,123,291756,0.0-10.0-0.34,6156b68cc77b48d6693b361c,650c16f0f2faf8d7a0d14c09,651c1cc12c957af8ec94c3e6,null,null,"<p style=""font-size: 60px; font-family: BACS"">JZOAkOcN</p>",,,,,,,,,,
html-keyboard-response,124,292756,0.0-10.0-0.35,6156b68cc77b48d6693b361c,650c16f0f2faf8d7a0d14c09,651c1cc12c957af8ec94c3e6,null,null,"<p style=""font-size: 60px; font-family: BACS"">OAmAdDKP</p>",,,,,,,,,,
html-keyboard-response,125,294755,0.0-10.0-0.36,6156b68cc77b48d6693b361c,650c16f0f2faf8d7a0d14c09,651c1cc12c957af8ec94c3e6,null,null,"<p style=""font-size: 60px; font-family: BACS"">LOLkUOcN</p>",,,,,,,,,,
html-keyboard-response,126,295756,0.0-10.0-0.37,6156b68cc77b48d6693b361c,650c16f0f2faf8d7a0d14c09,651c1cc12c957af8ec94c3e6,null,null,"<p style=""font-size: 60px; font-family: BACS"">MDKPlMck</p>",,,,,,,,,,
html-keyboard-response,127,296763,0.0-10.0-0.38,6156b68cc77b48d6693b361c,650c16f0f2faf8d7a0d14c09,651c1cc12c957af8ec94c3e6,null,null,"<p style=""font-size: 60px; font-family: BACS"">OAmAdbAMO</p>",,,,,,,,,,
html-keyboard-response,128,298756,0.0-10.0-0.39,6156b68cc77b48d6693b361c,650c16f0f2faf8d7a0d14c09,651c1cc12c957af8ec94c3e6,null,null,"<p style=""font-size: 60px; font-family: BACS"">dYdACMdP</p>",,,,,,,,,,
html-keyboard-response,129,299756,0.0-10.0-0.40,6156b68cc77b48d6693b361c,650c16f0f2faf8d7a0d14c09,651c1cc12c957af8ec94c3e6,null,null,"<p style=""font-size: 60px; font-family: BACS"">LOLkUGUOA</p>",,,,,,,,,,
html-keyboard-response,130,300757,0.0-10.0-0.41,6156b68cc77b48d6693b361c,650c16f0f2faf8d7a0d14c09,651c1cc12c957af8ec94c3e6,null,null,"<p style=""font-size: 60px; font-family: BACS"">uAkrGUa</p>",,,,,,,,,,
html-keyboard-response,131,301758,0.0-10.0-0.42,6156b68cc77b48d6693b361c,650c16f0f2faf8d7a0d14c09,651c1cc12c957af8ec94c3e6,null,null,"<p style=""font-size: 60px; font-family: BACS"">YmBdCMdP</p>",,,,,,,,,,
html-keyboard-response,132,303757,0.0-10.0-0.43,6156b68cc77b48d6693b361c,650c16f0f2faf8d7a0d14c09,651c1cc12c957af8ec94c3e6,null,null,"<p style=""font-size: 60px; font-family: BACS"">RtRhbAMO</p>",,,,,,,,,,
html-keyboard-response,133,304765,0.0-10.0-0.44,6156b68cc77b48d6693b361c,650c16f0f2faf8d7a0d14c09,651c1cc12c957af8ec94c3e6,null,null,"<p style=""font-size: 60px; font-family: BACS"">OLJblGUOA</p>",,,,,,,,,,
html-keyboard-response,134,305766,0.0-10.0-0.45,6156b68cc77b48d6693b361c,650c16f0f2faf8d7a0d14c09,651c1cc12c957af8ec94c3e6,null,null,"<p style=""font-size: 60px; font-family: BACS"">dYdADKP</p>",,,,,,,,,,
html-keyboard-response,135,307756,0.0-10.0-0.46,6156b68cc77b48d6693b361c,650c16f0f2faf8d7a0d14c09,651c1cc12c957af8ec94c3e6,null,null,"<p style=""font-size: 60px; font-family: BACS"">ALOrlGUa</p>",,,,,,,,,,
html-keyboard-response,136,308758,0.0-10.0-0.47,6156b68cc77b48d6693b361c,650c16f0f2faf8d7a0d14c09,651c1cc12c957af8ec94c3e6,null,null,"<p style=""font-size: 60px; font-family: BACS"">RtRhlMck</p>",,,,,,,,,,
html-keyboard-response,137,310757,0.0-10.0-0.48,6156b68cc77b48d6693b361c,650c16f0f2faf8d7a0d14c09,651c1cc12c957af8ec94c3e6,null,null,"<p style=""font-size: 60px; font-family: BACS"">YJLcAYaOk</p>",,,,,,,,,,
html-keyboard-response,138,311763,0.0-10.0-0.49,6156b68cc77b48d6693b361c,650c16f0f2faf8d7a0d14c09,651c1cc12c957af8ec94c3e6,null,null,"<p style=""font-size: 60px; font-family: BACS"">TDKhCMdP</p>",,,,,,,,,,
html-keyboard-response,139,313758,0.0-10.0-0.50,6156b68cc77b48d6693b361c,650c16f0f2faf8d7a0d14c09,651c1cc12c957af8ec94c3e6,null,null,"<p style=""font-size: 60px; font-family: BACS"">NvYJOcN</p>",,,,,,,,,,
html-keyboard-response,140,314760,0.0-10.0-0.51,6156b68cc77b48d6693b361c,650c16f0f2faf8d7a0d14c09,651c1cc12c957af8ec94c3e6,null,null,"<p style=""font-size: 60px; font-family: BACS"">OLJblOcZJ</p>",,,,,,,,,,
html-keyboard-response,141,316758,0.0-10.0-0.52,6156b68cc77b48d6693b361c,650c16f0f2faf8d7a0d14c09,651c1cc12c957af8ec94c3e6,null,null,"<p style=""font-size: 60px; font-family: BACS"">NvYJGUa</p>",,,,,,,,,,
html-keyboard-response,142,317765,0.0-10.0-0.53,6156b68cc77b48d6693b361c,650c16f0f2faf8d7a0d14c09,651c1cc12c957af8ec94c3e6,null,null,"<p style=""font-size: 60px; font-family: BACS"">AYkEhCMdP</p>",,,,,,,,,,
html-keyboard-response,143,318767,0.0-10.0-0.54,6156b68cc77b48d6693b361c,650c16f0f2faf8d7a0d14c09,651c1cc12c957af8ec94c3e6,null,null,"<p style=""font-size: 60px; font-family: BACS"">KdARbAMO</p>",,,,,,,,,,
html-keyboard-response,144,320758,0.0-10.0-0.55,6156b68cc77b48d6693b361c,650c16f0f2faf8d7a0d14c09,651c1cc12c957af8ec94c3e6,null,null,"<p style=""font-size: 60px; font-family: BACS"">MDKPDKP</p>",,,,,,,,,,
html-keyboard-response,145,321764,0.0-10.0-0.56,6156b68cc77b48d6693b361c,650c16f0f2faf8d7a0d14c09,651c1cc12c957af8ec94c3e6,null,null,"<p style=""font-size: 60px; font-family: BACS"">ALOrlGUOA</p>",,,,,,,,,,
html-keyboard-response,146,323762,0.0-10.0-0.57,6156b68cc77b48d6693b361c,650c16f0f2faf8d7a0d14c09,651c1cc12c957af8ec94c3e6,null,null,"<p style=""font-size: 60px; font-family: BACS"">OAmAdCMdP</p>",,,,,,,,,,
html-keyboard-response,147,324769,0.0-10.0-0.58,6156b68cc77b48d6693b361c,650c16f0f2faf8d7a0d14c09,651c1cc12c957af8ec94c3e6,null,null,"<p style=""font-size: 60px; font-family: BACS"">mbZlGUOA</p>",,,,,,,,,,
html-keyboard-response,148,326758,0.0-10.0-0.59,6156b68cc77b48d6693b361c,650c16f0f2faf8d7a0d14c09,651c1cc12c957af8ec94c3e6,null,null,"<p style=""font-size: 60px; font-family: BACS"">YJLcAOcN</p>",,,,,,,,,,
html-keyboard-response,149,327766,0.0-10.0-0.60,6156b68cc77b48d6693b361c,650c16f0f2faf8d7a0d14c09,651c1cc12c957af8ec94c3e6,null,null,"<p style=""font-size: 60px; font-family: BACS"">mbZlOcZJ</p>",,,,,,,,,,
html-keyboard-response,150,329756,0.0-10.0-0.61,6156b68cc77b48d6693b361c,650c16f0f2faf8d7a0d14c09,651c1cc12c957af8ec94c3e6,null,null,"<p style=""font-size: 60px; font-family: BACS"">YmBdlMck</p>",,,,,,,,,,
html-keyboard-response,151,330763,0.0-10.0-0.62,6156b68cc77b48d6693b361c,650c16f0f2faf8d7a0d14c09,651c1cc12c957af8ec94c3e6,null,null,"<p style=""font-size: 60px; font-family: BACS"">RtRhCMdP</p>",,,,,,,,,,
html-keyboard-response,152,332762,0.0-10.0-0.63,6156b68cc77b48d6693b361c,650c16f0f2faf8d7a0d14c09,651c1cc12c957af8ec94c3e6,null,null,"<p style=""font-size: 60px; font-family: BACS"">rvUbYaOk</p>",,,,,,,,,,
html-keyboard-response,153,333768,0.0-10.0-0.64,6156b68cc77b48d6693b361c,650c16f0f2faf8d7a0d14c09,651c1cc12c957af8ec94c3e6,null,null,"<p style=""font-size: 60px; font-family: BACS"">uAkrGUOA</p>",,,,,,,,,,
html-keyboard-response,154,335759,0.0-10.0-0.65,6156b68cc77b48d6693b361c,650c16f0f2faf8d7a0d14c09,651c1cc12c957af8ec94c3e6,null,null,"<p style=""font-size: 60px; font-family: BACS"">ctktCMdP</p>",,,,,,,,,,
html-keyboard-response,155,336766,0.0-10.0-0.66,6156b68cc77b48d6693b361c,650c16f0f2faf8d7a0d14c09,651c1cc12c957af8ec94c3e6,null,null,"<p style=""font-size: 60px; font-family: BACS"">rvUbGUOA</p>",,,,,,,,,,
html-keyboard-response,156,338758,0.0-10.0-0.67,6156b68cc77b48d6693b361c,650c16f0f2faf8d7a0d14c09,651c1cc12c957af8ec94c3e6,null,null,"<p style=""font-size: 60px; font-family: BACS"">RtRhCEM</p>",,,,,,,,,,
html-keyboard-response,157,339765,0.0-10.0-0.68,6156b68cc77b48d6693b361c,650c16f0f2faf8d7a0d14c09,651c1cc12c957af8ec94c3e6,null,null,"<p style=""font-size: 60px; font-family: BACS"">ctktbAMO</p>",,,,,,,,,,
html-keyboard-response,158,340767,0.0-10.0-0.69,6156b68cc77b48d6693b361c,650c16f0f2faf8d7a0d14c09,651c1cc12c957af8ec94c3e6,null,null,"<p style=""font-size: 60px; font-family: BACS"">KdARCMdP</p>",,,,,,,,,,
html-keyboard-response,159,342761,0.0-10.0-0.70,6156b68cc77b48d6693b361c,650c16f0f2faf8d7a0d14c09,651c1cc12c957af8ec94c3e6,null,null,"<p style=""font-size: 60px; font-family: BACS"">ALOrlOcZJ</p>",,,,,,,,,,
html-keyboard-response,160,343767,0.0-10.0-0.71,6156b68cc77b48d6693b361c,650c16f0f2faf8d7a0d14c09,651c1cc12c957af8ec94c3e6,null,null,"<p style=""font-size: 60px; font-family: BACS"">UdlGQYaOk</p>",,,,,,,,,,
html-keyboard-response,161,345758,0.0-10.0-0.72,6156b68cc77b48d6693b361c,650c16f0f2faf8d7a0d14c09,651c1cc12c957af8ec94c3e6,null,null,"<p style=""font-size: 60px; font-family: BACS"">dYdAbAMO</p>",,,,,,,,,,
html-keyboard-response,162,346758,0.0-10.0-0.73,6156b68cc77b48d6693b361c,650c16f0f2faf8d7a0d14c09,651c1cc12c957af8ec94c3e6,null,null,"<p style=""font-size: 60px; font-family: BACS"">NvYJGUOA</p>",,,,,,,,,,
html-keyboard-response,163,348759,0.0-10.0-0.74,6156b68cc77b48d6693b361c,650c16f0f2faf8d7a0d14c09,651c1cc12c957af8ec94c3e6,null,null,"<p style=""font-size: 60px; font-family: BACS"">KdARDKP</p>",,,,,,,,,,
html-keyboard-response,164,349760,0.0-10.0-0.75,6156b68cc77b48d6693b361c,650c16f0f2faf8d7a0d14c09,651c1cc12c957af8ec94c3e6,null,null,"<p style=""font-size: 60px; font-family: BACS"">DRPkYlMck</p>",,,,,,,,,,
html-keyboard-response,165,350762,0.0-10.0-0.76,6156b68cc77b48d6693b361c,650c16f0f2faf8d7a0d14c09,651c1cc12c957af8ec94c3e6,null,null,"<p style=""font-size: 60px; font-family: BACS"">AYkEhCEM</p>",,,,,,,,,,
html-keyboard-response,166,351769,0.0-10.0-0.77,6156b68cc77b48d6693b361c,650c16f0f2faf8d7a0d14c09,651c1cc12c957af8ec94c3e6,null,null,"<p style=""font-size: 60px; font-family: BACS"">UdlGQGUOA</p>",,,,,,,,,,
html-keyboard-response,167,353759,0.0-10.0-0.78,6156b68cc77b48d6693b361c,650c16f0f2faf8d7a0d14c09,651c1cc12c957af8ec94c3e6,null,null,"<p style=""font-size: 60px; font-family: BACS"">rvUbOcN</p>",,,,,,,,,,
html-keyboard-response,168,354760,0.0-10.0-0.79,6156b68cc77b48d6693b361c,650c16f0f2faf8d7a0d14c09,651c1cc12c957af8ec94c3e6,null,null,"<p style=""font-size: 60px; font-family: BACS"">TDKhCEM</p>",,,,,,,,,,
html-keyboard-response,169,356304,0.0-11.0,6156b68cc77b48d6693b361c,650c16f0f2faf8d7a0d14c09,651c1cc12c957af8ec94c3e6,1543, ,"<p>Great, you've seen the second block of words. You may now take a short break.</p>
      <p>Press the spacebar when you're ready to continue.</p>",,,,,,,,,,
html-keyboard-response,170,357307,0.0-12.0-0.0,6156b68cc77b48d6693b361c,650c16f0f2faf8d7a0d14c09,651c1cc12c957af8ec94c3e6,null,null,"<p style=""font-size: 60px; font-family: BACS"">mbZlYaOk</p>",,,,,,,,,,
html-keyboard-response,171,358315,0.0-12.0-0.1,6156b68cc77b48d6693b361c,650c16f0f2faf8d7a0d14c09,651c1cc12c957af8ec94c3e6,null,null,"<p style=""font-size: 60px; font-family: BACS"">MDKPDKP</p>",,,,,,,,,,
html-keyboard-response,172,359317,0.0-12.0-0.2,6156b68cc77b48d6693b361c,650c16f0f2faf8d7a0d14c09,651c1cc12c957af8ec94c3e6,null,null,"<p style=""font-size: 60px; font-family: BACS"">OAmAdlMck</p>",,,,,,,,,,
html-keyboard-response,173,360324,0.0-12.0-0.3,6156b68cc77b48d6693b361c,650c16f0f2faf8d7a0d14c09,651c1cc12c957af8ec94c3e6,null,null,"<p style=""font-size: 60px; font-family: BACS"">RtRhbAMO</p>",,,,,,,,,,
html-keyboard-response,174,361759,0.0-12.0-0.4,6156b68cc77b48d6693b361c,650c16f0f2faf8d7a0d14c09,651c1cc12c957af8ec94c3e6,null,null,"<p style=""font-size: 60px; font-family: BACS"">ALOrlOcZJ</p>",,,,,,,,,,
html-keyboard-response,175,362766,0.0-12.0-0.5,6156b68cc77b48d6693b361c,650c16f0f2faf8d7a0d14c09,651c1cc12c957af8ec94c3e6,null,null,"<p style=""font-size: 60px; font-family: BACS"">dYdAlMck</p>",,,,,,,,,,
html-keyboard-response,176,364760,0.0-12.0-0.6,6156b68cc77b48d6693b361c,650c16f0f2faf8d7a0d14c09,651c1cc12c957af8ec94c3e6,null,null,"<p style=""font-size: 60px; font-family: BACS"">YJLcAOcZJ</p>",,,,,,,,,,
html-keyboard-response,177,365767,0.0-12.0-0.7,6156b68cc77b48d6693b361c,650c16f0f2faf8d7a0d14c09,651c1cc12c957af8ec94c3e6,null,null,"<p style=""font-size: 60px; font-family: BACS"">rvUbOcN</p>",,,,,,,,,,
html-keyboard-response,178,367760,0.0-12.0-0.8,6156b68cc77b48d6693b361c,650c16f0f2faf8d7a0d14c09,651c1cc12c957af8ec94c3e6,null,null,"<p style=""font-size: 60px; font-family: BACS"">mbZlGUOA</p>",,,,,,,,,,
html-keyboard-response,179,368762,0.0-12.0-0.9,6156b68cc77b48d6693b361c,650c16f0f2faf8d7a0d14c09,651c1cc12c957af8ec94c3e6,null,null,"<p style=""font-size: 60px; font-family: BACS"">DRPkYCEM</p>",,,,,,,,,,
html-keyboard-response,180,369763,0.0-12.0-0.10,6156b68cc77b48d6693b361c,650c16f0f2faf8d7a0d14c09,651c1cc12c957af8ec94c3e6,null,null,"<p style=""font-size: 60px; font-family: BACS"">KdARbAMO</p>",,,,,,,,,,
html-keyboard-response,181,370770,0.0-12.0-0.11,6156b68cc77b48d6693b361c,650c16f0f2faf8d7a0d14c09,651c1cc12c957af8ec94c3e6,null,null,"<p style=""font-size: 60px; font-family: BACS"">UdlGQYaOk</p>",,,,,,,,,,
html-keyboard-response,182,372762,0.0-12.0-0.12,6156b68cc77b48d6693b361c,650c16f0f2faf8d7a0d14c09,651c1cc12c957af8ec94c3e6,null,null,"<p style=""font-size: 60px; font-family: BACS"">KdARDKP</p>",,,,,,,,,,
html-keyboard-response,183,373762,0.0-12.0-0.13,6156b68cc77b48d6693b361c,650c16f0f2faf8d7a0d14c09,651c1cc12c957af8ec94c3e6,null,null,"<p style=""font-size: 60px; font-family: BACS"">TDKhlMck</p>",,,,,,,,,,
html-keyboard-response,184,375762,0.0-12.0-0.14,6156b68cc77b48d6693b361c,650c16f0f2faf8d7a0d14c09,651c1cc12c957af8ec94c3e6,null,null,"<p style=""font-size: 60px; font-family: BACS"">RtRhCEM</p>",,,,,,,,,,
html-keyboard-response,185,376769,0.0-12.0-0.15,6156b68cc77b48d6693b361c,650c16f0f2faf8d7a0d14c09,651c1cc12c957af8ec94c3e6,null,null,"<p style=""font-size: 60px; font-family: BACS"">DRPkYDKP</p>",,,,,,,,,,
html-keyboard-response,186,378755,0.0-12.0-0.16,6156b68cc77b48d6693b361c,650c16f0f2faf8d7a0d14c09,651c1cc12c957af8ec94c3e6,null,null,"<p style=""font-size: 60px; font-family: BACS"">OLJblGUOA</p>",,,,,,,,,,
html-keyboard-response,187,379762,0.0-12.0-0.17,6156b68cc77b48d6693b361c,650c16f0f2faf8d7a0d14c09,651c1cc12c957af8ec94c3e6,null,null,"<p style=""font-size: 60px; font-family: BACS"">TDKhCEM</p>",,,,,,,,,,
html-keyboard-response,188,380763,0.0-12.0-0.18,6156b68cc77b48d6693b361c,650c16f0f2faf8d7a0d14c09,651c1cc12c957af8ec94c3e6,null,null,"<p style=""font-size: 60px; font-family: BACS"">OLJblGUa</p>",,,,,,,,,,
html-keyboard-response,189,382762,0.0-12.0-0.19,6156b68cc77b48d6693b361c,650c16f0f2faf8d7a0d14c09,651c1cc12c957af8ec94c3e6,null,null,"<p style=""font-size: 60px; font-family: BACS"">UdlGQOcZJ</p>",,,,,,,,,,
html-keyboard-response,190,383763,0.0-12.0-0.20,6156b68cc77b48d6693b361c,650c16f0f2faf8d7a0d14c09,651c1cc12c957af8ec94c3e6,null,null,"<p style=""font-size: 60px; font-family: BACS"">AYkEhCMdP</p>",,,,,,,,,,
html-keyboard-response,191,385762,0.0-12.0-0.21,6156b68cc77b48d6693b361c,650c16f0f2faf8d7a0d14c09,651c1cc12c957af8ec94c3e6,null,null,"<p style=""font-size: 60px; font-family: BACS"">mbZlOcN</p>",,,,,,,,,,
html-keyboard-response,192,386763,0.0-12.0-0.22,6156b68cc77b48d6693b361c,650c16f0f2faf8d7a0d14c09,651c1cc12c957af8ec94c3e6,null,null,"<p style=""font-size: 60px; font-family: BACS"">RtRhlMck</p>",,,,,,,,,,
html-keyboard-response,193,388761,0.0-12.0-0.23,6156b68cc77b48d6693b361c,650c16f0f2faf8d7a0d14c09,651c1cc12c957af8ec94c3e6,null,null,"<p style=""font-size: 60px; font-family: BACS"">ctktDKP</p>",,,,,,,,,,
html-keyboard-response,194,389768,0.0-12.0-0.24,6156b68cc77b48d6693b361c,650c16f0f2faf8d7a0d14c09,651c1cc12c957af8ec94c3e6,null,null,"<p style=""font-size: 60px; font-family: BACS"">uAkrOcN</p>",,,,,,,,,,
html-keyboard-response,195,391758,0.0-12.0-0.25,6156b68cc77b48d6693b361c,650c16f0f2faf8d7a0d14c09,651c1cc12c957af8ec94c3e6,null,null,"<p style=""font-size: 60px; font-family: BACS"">MDKPbAMO</p>",,,,,,,,,,
html-keyboard-response,196,392765,0.0-12.0-0.26,6156b68cc77b48d6693b361c,650c16f0f2faf8d7a0d14c09,651c1cc12c957af8ec94c3e6,null,null,"<p style=""font-size: 60px; font-family: BACS"">rvUbYaOk</p>",,,,,,,,,,
html-keyboard-response,197,393770,0.0-12.0-0.27,6156b68cc77b48d6693b361c,650c16f0f2faf8d7a0d14c09,651c1cc12c957af8ec94c3e6,null,null,"<p style=""font-size: 60px; font-family: BACS"">uAkrOcZJ</p>",,,,,,,,,,
html-keyboard-response,198,395760,0.0-12.0-0.28,6156b68cc77b48d6693b361c,650c16f0f2faf8d7a0d14c09,651c1cc12c957af8ec94c3e6,null,null,"<p style=""font-size: 60px; font-family: BACS"">NvYJOcN</p>",,,,,,,,,,
html-keyboard-response,199,396767,0.0-12.0-0.29,6156b68cc77b48d6693b361c,650c16f0f2faf8d7a0d14c09,651c1cc12c957af8ec94c3e6,null,null,"<p style=""font-size: 60px; font-family: BACS"">LOLkUOcZJ</p>",,,,,,,,,,
html-keyboard-response,200,398762,0.0-12.0-0.30,6156b68cc77b48d6693b361c,650c16f0f2faf8d7a0d14c09,651c1cc12c957af8ec94c3e6,null,null,"<p style=""font-size: 60px; font-family: BACS"">ctktCMdP</p>",,,,,,,,,,
html-keyboard-response,201,399763,0.0-12.0-0.31,6156b68cc77b48d6693b361c,650c16f0f2faf8d7a0d14c09,651c1cc12c957af8ec94c3e6,null,null,"<p style=""font-size: 60px; font-family: BACS"">JZOAkYaOk</p>",,,,,,,,,,
html-keyboard-response,202,400771,0.0-12.0-0.32,6156b68cc77b48d6693b361c,650c16f0f2faf8d7a0d14c09,651c1cc12c957af8ec94c3e6,null,null,"<p style=""font-size: 60px; font-family: BACS"">uAkrGUOA</p>",,,,,,,,,,
html-keyboard-response,203,401773,0.0-12.0-0.33,6156b68cc77b48d6693b361c,650c16f0f2faf8d7a0d14c09,651c1cc12c957af8ec94c3e6,null,null,"<p style=""font-size: 60px; font-family: BACS"">LOLkUGUa</p>",,,,,,,,,,
html-keyboard-response,204,403755,0.0-12.0-0.34,6156b68cc77b48d6693b361c,650c16f0f2faf8d7a0d14c09,651c1cc12c957af8ec94c3e6,null,null,"<p style=""font-size: 60px; font-family: BACS"">YmBdCEM</p>",,,,,,,,,,
html-keyboard-response,205,404762,0.0-12.0-0.35,6156b68cc77b48d6693b361c,650c16f0f2faf8d7a0d14c09,651c1cc12c957af8ec94c3e6,null,null,"<p style=""font-size: 60px; font-family: BACS"">rvUbGUa</p>",,,,,,,,,,
html-keyboard-response,206,406760,0.0-12.0-0.36,6156b68cc77b48d6693b361c,650c16f0f2faf8d7a0d14c09,651c1cc12c957af8ec94c3e6,null,null,"<p style=""font-size: 60px; font-family: BACS"">AYkEhDKP</p>",,,,,,,,,,
html-keyboard-response,207,407760,0.0-12.0-0.37,6156b68cc77b48d6693b361c,650c16f0f2faf8d7a0d14c09,651c1cc12c957af8ec94c3e6,null,null,"<p style=""font-size: 60px; font-family: BACS"">YJLcAGUa</p>",,,,,,,,,,
html-keyboard-response,208,408763,0.0-12.0-0.38,6156b68cc77b48d6693b361c,650c16f0f2faf8d7a0d14c09,651c1cc12c957af8ec94c3e6,null,null,"<p style=""font-size: 60px; font-family: BACS"">LOLkUGUOA</p>",,,,,,,,,,
html-keyboard-response,209,410758,0.0-12.0-0.39,6156b68cc77b48d6693b361c,650c16f0f2faf8d7a0d14c09,651c1cc12c957af8ec94c3e6,null,null,"<p style=""font-size: 60px; font-family: BACS"">ALOrlYaOk</p>",,,,,,,,,,
html-keyboard-response,210,411766,0.0-12.0-0.40,6156b68cc77b48d6693b361c,650c16f0f2faf8d7a0d14c09,651c1cc12c957af8ec94c3e6,null,null,"<p style=""font-size: 60px; font-family: BACS"">dYdACMdP</p>",,,,,,,,,,
html-keyboard-response,211,412767,0.0-12.0-0.41,6156b68cc77b48d6693b361c,650c16f0f2faf8d7a0d14c09,651c1cc12c957af8ec94c3e6,null,null,"<p style=""font-size: 60px; font-family: BACS"">NvYJGUa</p>",,,,,,,,,,
html-keyboard-response,212,414759,0.0-12.0-0.42,6156b68cc77b48d6693b361c,650c16f0f2faf8d7a0d14c09,651c1cc12c957af8ec94c3e6,null,null,"<p style=""font-size: 60px; font-family: BACS"">OLJblYaOk</p>",,,,,,,,,,
html-keyboard-response,213,415760,0.0-12.0-0.43,6156b68cc77b48d6693b361c,650c16f0f2faf8d7a0d14c09,651c1cc12c957af8ec94c3e6,null,null,"<p style=""font-size: 60px; font-family: BACS"">RtRhCMdP</p>",,,,,,,,,,
html-keyboard-response,214,416761,0.0-12.0-0.44,6156b68cc77b48d6693b361c,650c16f0f2faf8d7a0d14c09,651c1cc12c957af8ec94c3e6,null,null,"<p style=""font-size: 60px; font-family: BACS"">NvYJGUOA</p>",,,,,,,,,,
html-keyboard-response,215,418762,0.0-12.0-0.45,6156b68cc77b48d6693b361c,650c16f0f2faf8d7a0d14c09,651c1cc12c957af8ec94c3e6,null,null,"<p style=""font-size: 60px; font-family: BACS"">TDKhCMdP</p>",,,,,,,,,,
html-keyboard-response,216,419767,0.0-12.0-0.46,6156b68cc77b48d6693b361c,650c16f0f2faf8d7a0d14c09,651c1cc12c957af8ec94c3e6,null,null,"<p style=""font-size: 60px; font-family: BACS"">YJLcAOcN</p>",,,,,,,,,,
html-keyboard-response,217,421760,0.0-12.0-0.47,6156b68cc77b48d6693b361c,650c16f0f2faf8d7a0d14c09,651c1cc12c957af8ec94c3e6,null,null,"<p style=""font-size: 60px; font-family: BACS"">DRPkYbAMO</p>",,,,,,,,,,
html-keyboard-response,218,422764,0.0-12.0-0.48,6156b68cc77b48d6693b361c,650c16f0f2faf8d7a0d14c09,651c1cc12c957af8ec94c3e6,null,null,"<p style=""font-size: 60px; font-family: BACS"">ALOrlGUOA</p>",,,,,,,,,,
html-keyboard-response,219,423771,0.0-12.0-0.49,6156b68cc77b48d6693b361c,650c16f0f2faf8d7a0d14c09,651c1cc12c957af8ec94c3e6,null,null,"<p style=""font-size: 60px; font-family: BACS"">OAmAdDKP</p>",,,,,,,,,,
html-keyboard-response,220,424771,0.0-12.0-0.50,6156b68cc77b48d6693b361c,650c16f0f2faf8d7a0d14c09,651c1cc12c957af8ec94c3e6,null,null,"<p style=""font-size: 60px; font-family: BACS"">ctktbAMO</p>",,,,,,,,,,
html-keyboard-response,221,426759,0.0-12.0-0.51,6156b68cc77b48d6693b361c,650c16f0f2faf8d7a0d14c09,651c1cc12c957af8ec94c3e6,null,null,"<p style=""font-size: 60px; font-family: BACS"">NvYJYaOk</p>",,,,,,,,,,
html-keyboard-response,222,427765,0.0-12.0-0.52,6156b68cc77b48d6693b361c,650c16f0f2faf8d7a0d14c09,651c1cc12c957af8ec94c3e6,null,null,"<p style=""font-size: 60px; font-family: BACS"">UdlGQGUOA</p>",,,,,,,,,,
html-keyboard-response,223,428770,0.0-12.0-0.53,6156b68cc77b48d6693b361c,650c16f0f2faf8d7a0d14c09,651c1cc12c957af8ec94c3e6,null,null,"<p style=""font-size: 60px; font-family: BACS"">LOLkUOcN</p>",,,,,,,,,,
html-keyboard-response,224,430755,0.0-12.0-0.54,6156b68cc77b48d6693b361c,650c16f0f2faf8d7a0d14c09,651c1cc12c957af8ec94c3e6,null,null,"<p style=""font-size: 60px; font-family: BACS"">uAkrGUa</p>",,,,,,,,,,
html-keyboard-response,225,431756,0.0-12.0-0.55,6156b68cc77b48d6693b361c,650c16f0f2faf8d7a0d14c09,651c1cc12c957af8ec94c3e6,null,null,"<p style=""font-size: 60px; font-family: BACS"">AYkEhCEM</p>",,,,,,,,,,
html-keyboard-response,226,432763,0.0-12.0-0.56,6156b68cc77b48d6693b361c,650c16f0f2faf8d7a0d14c09,651c1cc12c957af8ec94c3e6,null,null,"<p style=""font-size: 60px; font-family: BACS"">JZOAkGUa</p>",,,,,,,,,,
html-keyboard-response,227,434756,0.0-12.0-0.57,6156b68cc77b48d6693b361c,650c16f0f2faf8d7a0d14c09,651c1cc12c957af8ec94c3e6,null,null,"<p style=""font-size: 60px; font-family: BACS"">MDKPlMck</p>",,,,,,,,,,
html-keyboard-response,228,435763,0.0-12.0-0.58,6156b68cc77b48d6693b361c,650c16f0f2faf8d7a0d14c09,651c1cc12c957af8ec94c3e6,null,null,"<p style=""font-size: 60px; font-family: BACS"">dYdADKP</p>",,,,,,,,,,
html-keyboard-response,229,437761,0.0-12.0-0.59,6156b68cc77b48d6693b361c,650c16f0f2faf8d7a0d14c09,651c1cc12c957af8ec94c3e6,null,null,"<p style=""font-size: 60px; font-family: BACS"">ALOrlGUa</p>",,,,,,,,,,
html-keyboard-response,230,439755,0.0-12.0-0.60,6156b68cc77b48d6693b361c,650c16f0f2faf8d7a0d14c09,651c1cc12c957af8ec94c3e6,null,null,"<p style=""font-size: 60px; font-family: BACS"">MDKPCEM</p>",,,,,,,,,,
html-keyboard-response,231,440757,0.0-12.0-0.61,6156b68cc77b48d6693b361c,650c16f0f2faf8d7a0d14c09,651c1cc12c957af8ec94c3e6,null,null,"<p style=""font-size: 60px; font-family: BACS"">OAmAdCMdP</p>",,,,,,,,,,
html-keyboard-response,232,442755,0.0-12.0-0.62,6156b68cc77b48d6693b361c,650c16f0f2faf8d7a0d14c09,651c1cc12c957af8ec94c3e6,null,null,"<p style=""font-size: 60px; font-family: BACS"">YmBdlMck</p>",,,,,,,,,,
html-keyboard-response,233,443762,0.0-12.0-0.63,6156b68cc77b48d6693b361c,650c16f0f2faf8d7a0d14c09,651c1cc12c957af8ec94c3e6,null,null,"<p style=""font-size: 60px; font-family: BACS"">OLJblOcZJ</p>",,,,,,,,,,
html-keyboard-response,234,445761,0.0-12.0-0.64,6156b68cc77b48d6693b361c,650c16f0f2faf8d7a0d14c09,651c1cc12c957af8ec94c3e6,null,null,"<p style=""font-size: 60px; font-family: BACS"">dYdAbAMO</p>",,,,,,,,,,
html-keyboard-response,235,446768,0.0-12.0-0.65,6156b68cc77b48d6693b361c,650c16f0f2faf8d7a0d14c09,651c1cc12c957af8ec94c3e6,null,null,"<p style=""font-size: 60px; font-family: BACS"">ctktCEM</p>",,,,,,,,,,
html-keyboard-response,236,448758,0.0-12.0-0.66,6156b68cc77b48d6693b361c,650c16f0f2faf8d7a0d14c09,651c1cc12c957af8ec94c3e6,null,null,"<p style=""font-size: 60px; font-family: BACS"">JZOAkOcZJ</p>",,,,,,,,,,
html-keyboard-response,237,449762,0.0-12.0-0.67,6156b68cc77b48d6693b361c,650c16f0f2faf8d7a0d14c09,651c1cc12c957af8ec94c3e6,null,null,"<p style=""font-size: 60px; font-family: BACS"">YmBdbAMO</p>",,,,,,,,,,
html-keyboard-response,238,451761,0.0-12.0-0.68,6156b68cc77b48d6693b361c,650c16f0f2faf8d7a0d14c09,651c1cc12c957af8ec94c3e6,null,null,"<p style=""font-size: 60px; font-family: BACS"">KdARCEM</p>",,,,,,,,,,
html-keyboard-response,239,452768,0.0-12.0-0.69,6156b68cc77b48d6693b361c,650c16f0f2faf8d7a0d14c09,651c1cc12c957af8ec94c3e6,null,null,"<p style=""font-size: 60px; font-family: BACS"">UdlGQOcN</p>",,,,,,,,,,
html-keyboard-response,240,454759,0.0-12.0-0.70,6156b68cc77b48d6693b361c,650c16f0f2faf8d7a0d14c09,651c1cc12c957af8ec94c3e6,null,null,"<p style=""font-size: 60px; font-family: BACS"">mbZlOcZJ</p>",,,,,,,,,,
html-keyboard-response,241,455762,0.0-12.0-0.71,6156b68cc77b48d6693b361c,650c16f0f2faf8d7a0d14c09,651c1cc12c957af8ec94c3e6,null,null,"<p style=""font-size: 60px; font-family: BACS"">YmBdCMdP</p>",,,,,,,,,,
html-keyboard-response,242,457755,0.0-12.0-0.72,6156b68cc77b48d6693b361c,650c16f0f2faf8d7a0d14c09,651c1cc12c957af8ec94c3e6,null,null,"<p style=""font-size: 60px; font-family: BACS"">JZOAkOcN</p>",,,,,,,,,,
html-keyboard-response,243,458760,0.0-12.0-0.73,6156b68cc77b48d6693b361c,650c16f0f2faf8d7a0d14c09,651c1cc12c957af8ec94c3e6,null,null,"<p style=""font-size: 60px; font-family: BACS"">rvUbGUOA</p>",,,,,,,,,,
html-keyboard-response,244,460760,0.0-12.0-0.74,6156b68cc77b48d6693b361c,650c16f0f2faf8d7a0d14c09,651c1cc12c957af8ec94c3e6,null,null,"<p style=""font-size: 60px; font-family: BACS"">YJLcAYaOk</p>",,,,,,,,,,
html-keyboard-response,245,461767,0.0-12.0-0.75,6156b68cc77b48d6693b361c,650c16f0f2faf8d7a0d14c09,651c1cc12c957af8ec94c3e6,null,null,"<p style=""font-size: 60px; font-family: BACS"">OAmAdbAMO</p>",,,,,,,,,,
html-keyboard-response,246,463760,0.0-12.0-0.76,6156b68cc77b48d6693b361c,650c16f0f2faf8d7a0d14c09,651c1cc12c957af8ec94c3e6,null,null,"<p style=""font-size: 60px; font-family: BACS"">AYkEhlMck</p>",,,,,,,,,,
html-keyboard-response,247,464767,0.0-12.0-0.77,6156b68cc77b48d6693b361c,650c16f0f2faf8d7a0d14c09,651c1cc12c957af8ec94c3e6,null,null,"<p style=""font-size: 60px; font-family: BACS"">KdARCMdP</p>",,,,,,,,,,
html-keyboard-response,248,466762,0.0-12.0-0.78,6156b68cc77b48d6693b361c,650c16f0f2faf8d7a0d14c09,651c1cc12c957af8ec94c3e6,null,null,"<p style=""font-size: 60px; font-family: BACS"">TDKhDKP</p>",,,,,,,,,,
html-keyboard-response,249,467762,0.0-12.0-0.79,6156b68cc77b48d6693b361c,650c16f0f2faf8d7a0d14c09,651c1cc12c957af8ec94c3e6,null,null,"<p style=""font-size: 60px; font-family: BACS"">DRPkYlMck</p>",,,,,,,,,,
html-keyboard-response,250,471401,0.0-13.0,6156b68cc77b48d6693b361c,650c16f0f2faf8d7a0d14c09,651c1cc12c957af8ec94c3e6,3638, ,"<p>Great, you've seen the third block of words. You may now take a short break.</p>
      <p>Press the spacebar when you're ready to continue.</p>",,,,,,,,,,
html-keyboard-response,251,472406,0.0-14.0-0.0,6156b68cc77b48d6693b361c,650c16f0f2faf8d7a0d14c09,651c1cc12c957af8ec94c3e6,null,null,"<p style=""font-size: 60px; font-family: BACS"">KdARCEM</p>",,,,,,,,,,
html-keyboard-response,252,473414,0.0-14.0-0.1,6156b68cc77b48d6693b361c,650c16f0f2faf8d7a0d14c09,651c1cc12c957af8ec94c3e6,null,null,"<p style=""font-size: 60px; font-family: BACS"">AYkEhDKP</p>",,,,,,,,,,
html-keyboard-response,253,474415,0.0-14.0-0.2,6156b68cc77b48d6693b361c,650c16f0f2faf8d7a0d14c09,651c1cc12c957af8ec94c3e6,null,null,"<p style=""font-size: 60px; font-family: BACS"">YmBdbAMO</p>",,,,,,,,,,
html-keyboard-response,254,475423,0.0-14.0-0.3,6156b68cc77b48d6693b361c,650c16f0f2faf8d7a0d14c09,651c1cc12c957af8ec94c3e6,null,null,"<p style=""font-size: 60px; font-family: BACS"">MDKPCEM</p>",,,,,,,,,,
html-keyboard-response,255,476762,0.0-14.0-0.4,6156b68cc77b48d6693b361c,650c16f0f2faf8d7a0d14c09,651c1cc12c957af8ec94c3e6,null,null,"<p style=""font-size: 60px; font-family: BACS"">DRPkYbAMO</p>",,,,,,,,,,
html-keyboard-response,256,478762,0.0-14.0-0.5,6156b68cc77b48d6693b361c,650c16f0f2faf8d7a0d14c09,651c1cc12c957af8ec94c3e6,null,null,"<p style=""font-size: 60px; font-family: BACS"">dYdAlMck</p>",,,,,,,,,,
html-keyboard-response,257,479762,0.0-14.0-0.6,6156b68cc77b48d6693b361c,650c16f0f2faf8d7a0d14c09,651c1cc12c957af8ec94c3e6,null,null,"<p style=""font-size: 60px; font-family: BACS"">TDKhDKP</p>",,,,,,,,,,
html-keyboard-response,258,481760,0.0-14.0-0.7,6156b68cc77b48d6693b361c,650c16f0f2faf8d7a0d14c09,651c1cc12c957af8ec94c3e6,null,null,"<p style=""font-size: 60px; font-family: BACS"">OLJblYaOk</p>",,,,,,,,,,
html-keyboard-response,259,482768,0.0-14.0-0.8,6156b68cc77b48d6693b361c,650c16f0f2faf8d7a0d14c09,651c1cc12c957af8ec94c3e6,null,null,"<p style=""font-size: 60px; font-family: BACS"">dYdADKP</p>",,,,,,,,,,
html-keyboard-response,260,484759,0.0-14.0-0.9,6156b68cc77b48d6693b361c,650c16f0f2faf8d7a0d14c09,651c1cc12c957af8ec94c3e6,null,null,"<p style=""font-size: 60px; font-family: BACS"">YJLcAOcZJ</p>",,,,,,,,,,
html-keyboard-response,261,485759,0.0-14.0-0.10,6156b68cc77b48d6693b361c,650c16f0f2faf8d7a0d14c09,651c1cc12c957af8ec94c3e6,null,null,"<p style=""font-size: 60px; font-family: BACS"">uAkrGUa</p>",,,,,,,,,,
html-keyboard-response,262,487760,0.0-14.0-0.11,6156b68cc77b48d6693b361c,650c16f0f2faf8d7a0d14c09,651c1cc12c957af8ec94c3e6,null,null,"<p style=""font-size: 60px; font-family: BACS"">LOLkUGUOA</p>",,,,,,,,,,
html-keyboard-response,263,488768,0.0-14.0-0.12,6156b68cc77b48d6693b361c,650c16f0f2faf8d7a0d14c09,651c1cc12c957af8ec94c3e6,null,null,"<p style=""font-size: 60px; font-family: BACS"">NvYJGUa</p>",,,,,,,,,,
html-keyboard-response,264,490760,0.0-14.0-0.13,6156b68cc77b48d6693b361c,650c16f0f2faf8d7a0d14c09,651c1cc12c957af8ec94c3e6,null,null,"<p style=""font-size: 60px; font-family: BACS"">TDKhlMck</p>",,,,,,,,,,
html-keyboard-response,265,491761,0.0-14.0-0.14,6156b68cc77b48d6693b361c,650c16f0f2faf8d7a0d14c09,651c1cc12c957af8ec94c3e6,null,null,"<p style=""font-size: 60px; font-family: BACS"">ALOrlOcZJ</p>",,,,,,,,,,
html-keyboard-response,266,493759,0.0-14.0-0.15,6156b68cc77b48d6693b361c,650c16f0f2faf8d7a0d14c09,651c1cc12c957af8ec94c3e6,null,null,"<p style=""font-size: 60px; font-family: BACS"">JZOAkGUa</p>",,,,,,,,,,
html-keyboard-response,267,494767,0.0-14.0-0.16,6156b68cc77b48d6693b361c,650c16f0f2faf8d7a0d14c09,651c1cc12c957af8ec94c3e6,null,null,"<p style=""font-size: 60px; font-family: BACS"">OLJblOcZJ</p>",,,,,,,,,,
html-keyboard-response,268,496757,0.0-14.0-0.17,6156b68cc77b48d6693b361c,650c16f0f2faf8d7a0d14c09,651c1cc12c957af8ec94c3e6,null,null,"<p style=""font-size: 60px; font-family: BACS"">dYdACMdP</p>",,,,,,,,,,
html-keyboard-response,269,497759,0.0-14.0-0.18,6156b68cc77b48d6693b361c,650c16f0f2faf8d7a0d14c09,651c1cc12c957af8ec94c3e6,null,null,"<p style=""font-size: 60px; font-family: BACS"">YJLcAOcN</p>",,,,,,,,,,
html-keyboard-response,270,498760,0.0-14.0-0.19,6156b68cc77b48d6693b361c,650c16f0f2faf8d7a0d14c09,651c1cc12c957af8ec94c3e6,null,null,"<p style=""font-size: 60px; font-family: BACS"">KdARCMdP</p>",,,,,,,,,,
html-keyboard-response,271,499766,0.0-14.0-0.20,6156b68cc77b48d6693b361c,650c16f0f2faf8d7a0d14c09,651c1cc12c957af8ec94c3e6,null,null,"<p style=""font-size: 60px; font-family: BACS"">UdlGQOcN</p>",,,,,,,,,,
html-keyboard-response,272,500769,0.0-14.0-0.21,6156b68cc77b48d6693b361c,650c16f0f2faf8d7a0d14c09,651c1cc12c957af8ec94c3e6,null,null,"<p style=""font-size: 60px; font-family: BACS"">DRPkYCEM</p>",,,,,,,,,,
html-keyboard-response,273,502756,0.0-14.0-0.22,6156b68cc77b48d6693b361c,650c16f0f2faf8d7a0d14c09,651c1cc12c957af8ec94c3e6,null,null,"<p style=""font-size: 60px; font-family: BACS"">AYkEhCMdP</p>",,,,,,,,,,
html-keyboard-response,274,503756,0.0-14.0-0.23,6156b68cc77b48d6693b361c,650c16f0f2faf8d7a0d14c09,651c1cc12c957af8ec94c3e6,null,null,"<p style=""font-size: 60px; font-family: BACS"">LOLkUGUa</p>",,,,,,,,,,
html-keyboard-response,275,505755,0.0-14.0-0.24,6156b68cc77b48d6693b361c,650c16f0f2faf8d7a0d14c09,651c1cc12c957af8ec94c3e6,null,null,"<p style=""font-size: 60px; font-family: BACS"">JZOAkOcN</p>",,,,,,,,,,
html-keyboard-response,276,506763,0.0-14.0-0.25,6156b68cc77b48d6693b361c,650c16f0f2faf8d7a0d14c09,651c1cc12c957af8ec94c3e6,null,null,"<p style=""font-size: 60px; font-family: BACS"">ALOrlYaOk</p>",,,,,,,,,,
html-keyboard-response,277,507764,0.0-14.0-0.26,6156b68cc77b48d6693b361c,650c16f0f2faf8d7a0d14c09,651c1cc12c957af8ec94c3e6,null,null,"<p style=""font-size: 60px; font-family: BACS"">mbZlOcN</p>",,,,,,,,,,
html-keyboard-response,278,509755,0.0-14.0-0.27,6156b68cc77b48d6693b361c,650c16f0f2faf8d7a0d14c09,651c1cc12c957af8ec94c3e6,null,null,"<p style=""font-size: 60px; font-family: BACS"">dYdAbAMO</p>",,,,,,,,,,
html-keyboard-response,279,510762,0.0-14.0-0.28,6156b68cc77b48d6693b361c,650c16f0f2faf8d7a0d14c09,651c1cc12c957af8ec94c3e6,null,null,"<p style=""font-size: 60px; font-family: BACS"">uAkrOcZJ</p>",,,,,,,,,,
html-keyboard-response,280,512760,0.0-14.0-0.29,6156b68cc77b48d6693b361c,650c16f0f2faf8d7a0d14c09,651c1cc12c957af8ec94c3e6,null,null,"<p style=""font-size: 60px; font-family: BACS"">rvUbOcN</p>",,,,,,,,,,
html-keyboard-response,281,513766,0.0-14.0-0.30,6156b68cc77b48d6693b361c,650c16f0f2faf8d7a0d14c09,651c1cc12c957af8ec94c3e6,null,null,"<p style=""font-size: 60px; font-family: BACS"">YmBdCEM</p>",,,,,,,,,,
html-keyboard-response,282,515757,0.0-14.0-0.31,6156b68cc77b48d6693b361c,650c16f0f2faf8d7a0d14c09,651c1cc12c957af8ec94c3e6,null,null,"<p style=""font-size: 60px; font-family: BACS"">rvUbYaOk</p>",,,,,,,,,,
html-keyboard-response,283,516765,0.0-14.0-0.32,6156b68cc77b48d6693b361c,650c16f0f2faf8d7a0d14c09,651c1cc12c957af8ec94c3e6,null,null,"<p style=""font-size: 60px; font-family: BACS"">ctktbAMO</p>",,,,,,,,,,
html-keyboard-response,284,517767,0.0-14.0-0.33,6156b68cc77b48d6693b361c,650c16f0f2faf8d7a0d14c09,651c1cc12c957af8ec94c3e6,null,null,"<p style=""font-size: 60px; font-family: BACS"">YJLcAGUa</p>",,,,,,,,,,
html-keyboard-response,285,519758,0.0-14.0-0.34,6156b68cc77b48d6693b361c,650c16f0f2faf8d7a0d14c09,651c1cc12c957af8ec94c3e6,null,null,"<p style=""font-size: 60px; font-family: BACS"">NvYJGUOA</p>",,,,,,,,,,
html-keyboard-response,286,520766,0.0-14.0-0.35,6156b68cc77b48d6693b361c,650c16f0f2faf8d7a0d14c09,651c1cc12c957af8ec94c3e6,null,null,"<p style=""font-size: 60px; font-family: BACS"">KdARDKP</p>",,,,,,,,,,
html-keyboard-response,287,521767,0.0-14.0-0.36,6156b68cc77b48d6693b361c,650c16f0f2faf8d7a0d14c09,651c1cc12c957af8ec94c3e6,null,null,"<p style=""font-size: 60px; font-family: BACS"">TDKhCEM</p>",,,,,,,,,,
html-keyboard-response,288,523759,0.0-14.0-0.37,6156b68cc77b48d6693b361c,650c16f0f2faf8d7a0d14c09,651c1cc12c957af8ec94c3e6,null,null,"<p style=""font-size: 60px; font-family: BACS"">ctktCMdP</p>",,,,,,,,,,
html-keyboard-response,289,524767,0.0-14.0-0.38,6156b68cc77b48d6693b361c,650c16f0f2faf8d7a0d14c09,651c1cc12c957af8ec94c3e6,null,null,"<p style=""font-size: 60px; font-family: BACS"">NvYJYaOk</p>",,,,,,,,,,
html-keyboard-response,290,526758,0.0-14.0-0.39,6156b68cc77b48d6693b361c,650c16f0f2faf8d7a0d14c09,651c1cc12c957af8ec94c3e6,null,null,"<p style=""font-size: 60px; font-family: BACS"">OAmAdlMck</p>",,,,,,,,,,
html-keyboard-response,291,527765,0.0-14.0-0.40,6156b68cc77b48d6693b361c,650c16f0f2faf8d7a0d14c09,651c1cc12c957af8ec94c3e6,null,null,"<p style=""font-size: 60px; font-family: BACS"">ALOrlGUa</p>",,,,,,,,,,
html-keyboard-response,292,528768,0.0-14.0-0.41,6156b68cc77b48d6693b361c,650c16f0f2faf8d7a0d14c09,651c1cc12c957af8ec94c3e6,null,null,"<p style=""font-size: 60px; font-family: BACS"">mbZlYaOk</p>",,,,,,,,,,
html-keyboard-response,293,530761,0.0-14.0-0.42,6156b68cc77b48d6693b361c,650c16f0f2faf8d7a0d14c09,651c1cc12c957af8ec94c3e6,null,null,"<p style=""font-size: 60px; font-family: BACS"">TDKhCMdP</p>",,,,,,,,,,
html-keyboard-response,294,531768,0.0-14.0-0.43,6156b68cc77b48d6693b361c,650c16f0f2faf8d7a0d14c09,651c1cc12c957af8ec94c3e6,null,null,"<p style=""font-size: 60px; font-family: BACS"">rvUbGUOA</p>",,,,,,,,,,
html-keyboard-response,295,533760,0.0-14.0-0.44,6156b68cc77b48d6693b361c,650c16f0f2faf8d7a0d14c09,651c1cc12c957af8ec94c3e6,null,null,"<p style=""font-size: 60px; font-family: BACS"">YJLcAYaOk</p>",,,,,,,,,,
html-keyboard-response,296,534767,0.0-14.0-0.45,6156b68cc77b48d6693b361c,650c16f0f2faf8d7a0d14c09,651c1cc12c957af8ec94c3e6,null,null,"<p style=""font-size: 60px; font-family: BACS"">RtRhCMdP</p>",,,,,,,,,,
html-keyboard-response,297,536758,0.0-14.0-0.46,6156b68cc77b48d6693b361c,650c16f0f2faf8d7a0d14c09,651c1cc12c957af8ec94c3e6,null,null,"<p style=""font-size: 60px; font-family: BACS"">mbZlGUOA</p>",,,,,,,,,,
html-keyboard-response,298,537766,0.0-14.0-0.47,6156b68cc77b48d6693b361c,650c16f0f2faf8d7a0d14c09,651c1cc12c957af8ec94c3e6,null,null,"<p style=""font-size: 60px; font-family: BACS"">RtRhlMck</p>",,,,,,,,,,
html-keyboard-response,299,538767,0.0-14.0-0.48,6156b68cc77b48d6693b361c,650c16f0f2faf8d7a0d14c09,651c1cc12c957af8ec94c3e6,null,null,"<p style=""font-size: 60px; font-family: BACS"">JZOAkYaOk</p>",,,,,,,,,,
html-keyboard-response,300,540756,0.0-14.0-0.49,6156b68cc77b48d6693b361c,650c16f0f2faf8d7a0d14c09,651c1cc12c957af8ec94c3e6,null,null,"<p style=""font-size: 60px; font-family: BACS"">MDKPbAMO</p>",,,,,,,,,,
html-keyboard-response,301,541763,0.0-14.0-0.50,6156b68cc77b48d6693b361c,650c16f0f2faf8d7a0d14c09,651c1cc12c957af8ec94c3e6,null,null,"<p style=""font-size: 60px; font-family: BACS"">YmBdlMck</p>",,,,,,,,,,
html-keyboard-response,302,542770,0.0-14.0-0.51,6156b68cc77b48d6693b361c,650c16f0f2faf8d7a0d14c09,651c1cc12c957af8ec94c3e6,null,null,"<p style=""font-size: 60px; font-family: BACS"">OAmAdbAMO</p>",,,,,,,,,,
html-keyboard-response,303,544757,0.0-14.0-0.52,6156b68cc77b48d6693b361c,650c16f0f2faf8d7a0d14c09,651c1cc12c957af8ec94c3e6,null,null,"<p style=""font-size: 60px; font-family: BACS"">AYkEhlMck</p>",,,,,,,,,,
html-keyboard-response,304,545765,0.0-14.0-0.53,6156b68cc77b48d6693b361c,650c16f0f2faf8d7a0d14c09,651c1cc12c957af8ec94c3e6,null,null,"<p style=""font-size: 60px; font-family: BACS"">ALOrlGUOA</p>",,,,,,,,,,
html-keyboard-response,305,547756,0.0-14.0-0.54,6156b68cc77b48d6693b361c,650c16f0f2faf8d7a0d14c09,651c1cc12c957af8ec94c3e6,null,null,"<p style=""font-size: 60px; font-family: BACS"">mbZlOcZJ</p>",,,,,,,,,,
html-keyboard-response,306,548759,0.0-14.0-0.55,6156b68cc77b48d6693b361c,650c16f0f2faf8d7a0d14c09,651c1cc12c957af8ec94c3e6,null,null,"<p style=""font-size: 60px; font-family: BACS"">OLJblGUOA</p>",,,,,,,,,,
html-keyboard-response,307,549759,0.0-14.0-0.56,6156b68cc77b48d6693b361c,650c16f0f2faf8d7a0d14c09,651c1cc12c957af8ec94c3e6,null,null,"<p style=""font-size: 60px; font-family: BACS"">LOLkUOcZJ</p>",,,,,,,,,,
html-keyboard-response,308,550767,0.0-14.0-0.57,6156b68cc77b48d6693b361c,650c16f0f2faf8d7a0d14c09,651c1cc12c957af8ec94c3e6,null,null,"<p style=""font-size: 60px; font-family: BACS"">DRPkYlMck</p>",,,,,,,,,,
html-keyboard-response,309,552758,0.0-14.0-0.58,6156b68cc77b48d6693b361c,650c16f0f2faf8d7a0d14c09,651c1cc12c957af8ec94c3e6,null,null,"<p style=""font-size: 60px; font-family: BACS"">OAmAdCMdP</p>",,,,,,,,,,
html-keyboard-response,310,553760,0.0-14.0-0.59,6156b68cc77b48d6693b361c,650c16f0f2faf8d7a0d14c09,651c1cc12c957af8ec94c3e6,null,null,"<p style=""font-size: 60px; font-family: BACS"">NvYJOcN</p>",,,,,,,,,,
html-keyboard-response,311,554760,0.0-14.0-0.60,6156b68cc77b48d6693b361c,650c16f0f2faf8d7a0d14c09,651c1cc12c957af8ec94c3e6,null,null,"<p style=""font-size: 60px; font-family: BACS"">JZOAkOcZJ</p>",,,,,,,,,,
html-keyboard-response,312,555766,0.0-14.0-0.61,6156b68cc77b48d6693b361c,650c16f0f2faf8d7a0d14c09,651c1cc12c957af8ec94c3e6,null,null,"<p style=""font-size: 60px; font-family: BACS"">uAkrGUOA</p>",,,,,,,,,,
html-keyboard-response,313,557757,0.0-14.0-0.62,6156b68cc77b48d6693b361c,650c16f0f2faf8d7a0d14c09,651c1cc12c957af8ec94c3e6,null,null,"<p style=""font-size: 60px; font-family: BACS"">AYkEhCEM</p>",,,,,,,,,,
html-keyboard-response,314,558760,0.0-14.0-0.63,6156b68cc77b48d6693b361c,650c16f0f2faf8d7a0d14c09,651c1cc12c957af8ec94c3e6,null,null,"<p style=""font-size: 60px; font-family: BACS"">YmBdCMdP</p>",,,,,,,,,,
html-keyboard-response,315,559762,0.0-14.0-0.64,6156b68cc77b48d6693b361c,650c16f0f2faf8d7a0d14c09,651c1cc12c957af8ec94c3e6,null,null,"<p style=""font-size: 60px; font-family: BACS"">rvUbGUa</p>",,,,,,,,,,
html-keyboard-response,316,561755,0.0-14.0-0.65,6156b68cc77b48d6693b361c,650c16f0f2faf8d7a0d14c09,651c1cc12c957af8ec94c3e6,null,null,"<p style=""font-size: 60px; font-family: BACS"">uAkrOcN</p>",,,,,,,,,,
html-keyboard-response,317,562755,0.0-14.0-0.66,6156b68cc77b48d6693b361c,650c16f0f2faf8d7a0d14c09,651c1cc12c957af8ec94c3e6,null,null,"<p style=""font-size: 60px; font-family: BACS"">RtRhbAMO</p>",,,,,,,,,,
html-keyboard-response,318,564755,0.0-14.0-0.67,6156b68cc77b48d6693b361c,650c16f0f2faf8d7a0d14c09,651c1cc12c957af8ec94c3e6,null,null,"<p style=""font-size: 60px; font-family: BACS"">UdlGQYaOk</p>",,,,,,,,,,
html-keyboard-response,319,565763,0.0-14.0-0.68,6156b68cc77b48d6693b361c,650c16f0f2faf8d7a0d14c09,651c1cc12c957af8ec94c3e6,null,null,"<p style=""font-size: 60px; font-family: BACS"">MDKPDKP</p>",,,,,,,,,,
html-keyboard-response,320,567755,0.0-14.0-0.69,6156b68cc77b48d6693b361c,650c16f0f2faf8d7a0d14c09,651c1cc12c957af8ec94c3e6,null,null,"<p style=""font-size: 60px; font-family: BACS"">UdlGQOcZJ</p>",,,,,,,,,,
html-keyboard-response,321,568757,0.0-14.0-0.70,6156b68cc77b48d6693b361c,650c16f0f2faf8d7a0d14c09,651c1cc12c957af8ec94c3e6,null,null,"<p style=""font-size: 60px; font-family: BACS"">LOLkUOcN</p>",,,,,,,,,,
html-keyboard-response,322,570756,0.0-14.0-0.71,6156b68cc77b48d6693b361c,650c16f0f2faf8d7a0d14c09,651c1cc12c957af8ec94c3e6,null,null,"<p style=""font-size: 60px; font-family: BACS"">UdlGQGUOA</p>",,,,,,,,,,
html-keyboard-response,323,571763,0.0-14.0-0.72,6156b68cc77b48d6693b361c,650c16f0f2faf8d7a0d14c09,651c1cc12c957af8ec94c3e6,null,null,"<p style=""font-size: 60px; font-family: BACS"">OLJblGUa</p>",,,,,,,,,,
html-keyboard-response,324,573757,0.0-14.0-0.73,6156b68cc77b48d6693b361c,650c16f0f2faf8d7a0d14c09,651c1cc12c957af8ec94c3e6,null,null,"<p style=""font-size: 60px; font-family: BACS"">DRPkYDKP</p>",,,,,,,,,,
html-keyboard-response,325,574758,0.0-14.0-0.74,6156b68cc77b48d6693b361c,650c16f0f2faf8d7a0d14c09,651c1cc12c957af8ec94c3e6,null,null,"<p style=""font-size: 60px; font-family: BACS"">ctktCEM</p>",,,,,,,,,,
html-keyboard-response,326,575765,0.0-14.0-0.75,6156b68cc77b48d6693b361c,650c16f0f2faf8d7a0d14c09,651c1cc12c957af8ec94c3e6,null,null,"<p style=""font-size: 60px; font-family: BACS"">OAmAdDKP</p>",,,,,,,,,,
html-keyboard-response,327,577756,0.0-14.0-0.76,6156b68cc77b48d6693b361c,650c16f0f2faf8d7a0d14c09,651c1cc12c957af8ec94c3e6,null,null,"<p style=""font-size: 60px; font-family: BACS"">MDKPlMck</p>",,,,,,,,,,
html-keyboard-response,328,578758,0.0-14.0-0.77,6156b68cc77b48d6693b361c,650c16f0f2faf8d7a0d14c09,651c1cc12c957af8ec94c3e6,null,null,"<p style=""font-size: 60px; font-family: BACS"">RtRhCEM</p>",,,,,,,,,,
html-keyboard-response,329,579759,0.0-14.0-0.78,6156b68cc77b48d6693b361c,650c16f0f2faf8d7a0d14c09,651c1cc12c957af8ec94c3e6,null,null,"<p style=""font-size: 60px; font-family: BACS"">KdARbAMO</p>",,,,,,,,,,
html-keyboard-response,330,580759,0.0-14.0-0.79,6156b68cc77b48d6693b361c,650c16f0f2faf8d7a0d14c09,651c1cc12c957af8ec94c3e6,null,null,"<p style=""font-size: 60px; font-family: BACS"">ctktDKP</p>",,,,,,,,,,
html-keyboard-response,331,581976,0.0-15.0,6156b68cc77b48d6693b361c,650c16f0f2faf8d7a0d14c09,651c1cc12c957af8ec94c3e6,1217, ,"<p>Great, you've seen the fourth block of words. You may now take a short break.</p>
      <p>Press the spacebar when you're ready to continue.</p>",,,,,,,,,,
html-keyboard-response,332,582977,0.0-16.0-0.0,6156b68cc77b48d6693b361c,650c16f0f2faf8d7a0d14c09,651c1cc12c957af8ec94c3e6,null,null,"<p style=""font-size: 60px; font-family: BACS"">OAmAdDKP</p>",,,,,,,,,,
html-keyboard-response,333,583984,0.0-16.0-0.1,6156b68cc77b48d6693b361c,650c16f0f2faf8d7a0d14c09,651c1cc12c957af8ec94c3e6,null,null,"<p style=""font-size: 60px; font-family: BACS"">OAmAdDKP</p>",,,,,,,,,,
html-keyboard-response,334,584992,0.0-16.0-0.2,6156b68cc77b48d6693b361c,650c16f0f2faf8d7a0d14c09,651c1cc12c957af8ec94c3e6,null,null,"<p style=""font-size: 60px; font-family: BACS"">OAmAdDKP</p>",,,,,,,,,,
html-keyboard-response,335,585999,0.0-16.0-0.3,6156b68cc77b48d6693b361c,650c16f0f2faf8d7a0d14c09,651c1cc12c957af8ec94c3e6,null,null,"<p style=""font-size: 60px; font-family: BACS"">OAmAdDKP</p>",,,,,,,,,,
html-keyboard-response,336,587754,0.0-16.0-0.4,6156b68cc77b48d6693b361c,650c16f0f2faf8d7a0d14c09,651c1cc12c957af8ec94c3e6,null,null,"<p style=""font-size: 60px; font-family: BACS"">OAmAdDKP</p>",,,,,,,,,,
html-keyboard-response,337,588760,0.0-16.0-0.5,6156b68cc77b48d6693b361c,650c16f0f2faf8d7a0d14c09,651c1cc12c957af8ec94c3e6,null,null,"<p style=""font-size: 60px; font-family: BACS"">OAmAdDKP</p>",,,,,,,,,,
html-keyboard-response,338,590761,0.0-16.0-0.6,6156b68cc77b48d6693b361c,650c16f0f2faf8d7a0d14c09,651c1cc12c957af8ec94c3e6,null,null,"<p style=""font-size: 60px; font-family: BACS"">OAmAdDKP</p>",,,,,,,,,,
html-keyboard-response,339,591768,0.0-16.0-0.7,6156b68cc77b48d6693b361c,650c16f0f2faf8d7a0d14c09,651c1cc12c957af8ec94c3e6,null,null,"<p style=""font-size: 60px; font-family: BACS"">OAmAdDKP</p>",,,,,,,,,,
html-keyboard-response,340,593759,0.0-16.0-0.8,6156b68cc77b48d6693b361c,650c16f0f2faf8d7a0d14c09,651c1cc12c957af8ec94c3e6,null,null,"<p style=""font-size: 60px; font-family: BACS"">OAmAdDKP</p>",,,,,,,,,,
html-keyboard-response,341,594761,0.0-16.0-0.9,6156b68cc77b48d6693b361c,650c16f0f2faf8d7a0d14c09,651c1cc12c957af8ec94c3e6,null,null,"<p style=""font-size: 60px; font-family: BACS"">OAmAdDKP</p>",,,,,,,,,,
html-keyboard-response,342,595767,0.0-16.0-0.10,6156b68cc77b48d6693b361c,650c16f0f2faf8d7a0d14c09,651c1cc12c957af8ec94c3e6,null,null,"<p style=""font-size: 60px; font-family: BACS"">OAmAdDKP</p>",,,,,,,,,,
html-keyboard-response,343,597757,0.0-16.0-0.11,6156b68cc77b48d6693b361c,650c16f0f2faf8d7a0d14c09,651c1cc12c957af8ec94c3e6,null,null,"<p style=""font-size: 60px; font-family: BACS"">OAmAdDKP</p>",,,,,,,,,,
html-keyboard-response,344,598757,0.0-16.0-0.12,6156b68cc77b48d6693b361c,650c16f0f2faf8d7a0d14c09,651c1cc12c957af8ec94c3e6,null,null,"<p style=""font-size: 60px; font-family: BACS"">OAmAdDKP</p>",,,,,,,,,,
html-keyboard-response,345,599761,0.0-16.0-0.13,6156b68cc77b48d6693b361c,650c16f0f2faf8d7a0d14c09,651c1cc12c957af8ec94c3e6,null,null,"<p style=""font-size: 60px; font-family: BACS"">OAmAdDKP</p>",,,,,,,,,,
html-keyboard-response,346,600768,0.0-16.0-0.14,6156b68cc77b48d6693b361c,650c16f0f2faf8d7a0d14c09,651c1cc12c957af8ec94c3e6,null,null,"<p style=""font-size: 60px; font-family: BACS"">OAmAdDKP</p>",,,,,,,,,,
html-keyboard-response,347,602759,0.0-16.0-0.15,6156b68cc77b48d6693b361c,650c16f0f2faf8d7a0d14c09,651c1cc12c957af8ec94c3e6,null,null,"<p style=""font-size: 60px; font-family: BACS"">OAmAdDKP</p>",,,,,,,,,,
html-keyboard-response,348,603760,0.0-16.0-0.16,6156b68cc77b48d6693b361c,650c16f0f2faf8d7a0d14c09,651c1cc12c957af8ec94c3e6,null,null,"<p style=""font-size: 60px; font-family: BACS"">OAmAdDKP</p>",,,,,,,,,,
html-keyboard-response,349,604760,0.0-16.0-0.17,6156b68cc77b48d6693b361c,650c16f0f2faf8d7a0d14c09,651c1cc12c957af8ec94c3e6,null,null,"<p style=""font-size: 60px; font-family: BACS"">OAmAdDKP</p>",,,,,,,,,,
html-keyboard-response,350,606759,0.0-16.0-0.18,6156b68cc77b48d6693b361c,650c16f0f2faf8d7a0d14c09,651c1cc12c957af8ec94c3e6,null,null,"<p style=""font-size: 60px; font-family: BACS"">OAmAdDKP</p>",,,,,,,,,,
html-keyboard-response,351,608759,0.0-16.0-0.19,6156b68cc77b48d6693b361c,650c16f0f2faf8d7a0d14c09,651c1cc12c957af8ec94c3e6,null,null,"<p style=""font-size: 60px; font-family: BACS"">OAmAdDKP</p>",,,,,,,,,,
html-keyboard-response,352,609766,0.0-16.0-0.20,6156b68cc77b48d6693b361c,650c16f0f2faf8d7a0d14c09,651c1cc12c957af8ec94c3e6,null,null,"<p style=""font-size: 60px; font-family: BACS"">OAmAdDKP</p>",,,,,,,,,,
html-keyboard-response,353,611759,0.0-16.0-0.21,6156b68cc77b48d6693b361c,650c16f0f2faf8d7a0d14c09,651c1cc12c957af8ec94c3e6,null,null,"<p style=""font-size: 60px; font-family: BACS"">OAmAdDKP</p>",,,,,,,,,,
html-keyboard-response,354,612759,0.0-16.0-0.22,6156b68cc77b48d6693b361c,650c16f0f2faf8d7a0d14c09,651c1cc12c957af8ec94c3e6,null,null,"<p style=""font-size: 60px; font-family: BACS"">OAmAdDKP</p>",,,,,,,,,,
html-keyboard-response,355,613760,0.0-16.0-0.23,6156b68cc77b48d6693b361c,650c16f0f2faf8d7a0d14c09,651c1cc12c957af8ec94c3e6,null,null,"<p style=""font-size: 60px; font-family: BACS"">OAmAdDKP</p>",,,,,,,,,,
html-keyboard-response,356,614761,0.0-16.0-0.24,6156b68cc77b48d6693b361c,650c16f0f2faf8d7a0d14c09,651c1cc12c957af8ec94c3e6,null,null,"<p style=""font-size: 60px; font-family: BACS"">OAmAdDKP</p>",,,,,,,,,,
html-keyboard-response,357,616756,0.0-16.0-0.25,6156b68cc77b48d6693b361c,650c16f0f2faf8d7a0d14c09,651c1cc12c957af8ec94c3e6,null,null,"<p style=""font-size: 60px; font-family: BACS"">OAmAdDKP</p>",,,,,,,,,,
html-keyboard-response,358,617762,0.0-16.0-0.26,6156b68cc77b48d6693b361c,650c16f0f2faf8d7a0d14c09,651c1cc12c957af8ec94c3e6,null,null,"<p style=""font-size: 60px; font-family: BACS"">OAmAdDKP</p>",,,,,,,,,,
html-keyboard-response,359,618769,0.0-16.0-0.27,6156b68cc77b48d6693b361c,650c16f0f2faf8d7a0d14c09,651c1cc12c957af8ec94c3e6,null,null,"<p style=""font-size: 60px; font-family: BACS"">OAmAdDKP</p>",,,,,,,,,,
html-keyboard-response,360,620758,0.0-16.0-0.28,6156b68cc77b48d6693b361c,650c16f0f2faf8d7a0d14c09,651c1cc12c957af8ec94c3e6,null,null,"<p style=""font-size: 60px; font-family: BACS"">OAmAdDKP</p>",,,,,,,,,,
html-keyboard-response,361,621764,0.0-16.0-0.29,6156b68cc77b48d6693b361c,650c16f0f2faf8d7a0d14c09,651c1cc12c957af8ec94c3e6,null,null,"<p style=""font-size: 60px; font-family: BACS"">OAmAdDKP</p>",,,,,,,,,,
html-keyboard-response,362,623755,0.0-16.0-0.30,6156b68cc77b48d6693b361c,650c16f0f2faf8d7a0d14c09,651c1cc12c957af8ec94c3e6,null,null,"<p style=""font-size: 60px; font-family: BACS"">OAmAdDKP</p>",,,,,,,,,,
html-keyboard-response,363,624757,0.0-16.0-0.31,6156b68cc77b48d6693b361c,650c16f0f2faf8d7a0d14c09,651c1cc12c957af8ec94c3e6,null,null,"<p style=""font-size: 60px; font-family: BACS"">OAmAdDKP</p>",,,,,,,,,,
html-keyboard-response,364,625763,0.0-16.0-0.32,6156b68cc77b48d6693b361c,650c16f0f2faf8d7a0d14c09,651c1cc12c957af8ec94c3e6,null,null,"<p style=""font-size: 60px; font-family: BACS"">OAmAdDKP</p>",,,,,,,,,,
html-keyboard-response,365,627760,0.0-16.0-0.33,6156b68cc77b48d6693b361c,650c16f0f2faf8d7a0d14c09,651c1cc12c957af8ec94c3e6,null,null,"<p style=""font-size: 60px; font-family: BACS"">OAmAdDKP</p>",,,,,,,,,,
html-keyboard-response,366,629758,0.0-16.0-0.34,6156b68cc77b48d6693b361c,650c16f0f2faf8d7a0d14c09,651c1cc12c957af8ec94c3e6,null,null,"<p style=""font-size: 60px; font-family: BACS"">OAmAdDKP</p>",,,,,,,,,,
html-keyboard-response,367,630759,0.0-16.0-0.35,6156b68cc77b48d6693b361c,650c16f0f2faf8d7a0d14c09,651c1cc12c957af8ec94c3e6,null,null,"<p style=""font-size: 60px; font-family: BACS"">OAmAdDKP</p>",,,,,,,,,,
html-keyboard-response,368,631760,0.0-16.0-0.36,6156b68cc77b48d6693b361c,650c16f0f2faf8d7a0d14c09,651c1cc12c957af8ec94c3e6,null,null,"<p style=""font-size: 60px; font-family: BACS"">OAmAdDKP</p>",,,,,,,,,,
html-keyboard-response,369,632760,0.0-16.0-0.37,6156b68cc77b48d6693b361c,650c16f0f2faf8d7a0d14c09,651c1cc12c957af8ec94c3e6,null,null,"<p style=""font-size: 60px; font-family: BACS"">OAmAdDKP</p>",,,,,,,,,,
html-keyboard-response,370,634756,0.0-16.0-0.38,6156b68cc77b48d6693b361c,650c16f0f2faf8d7a0d14c09,651c1cc12c957af8ec94c3e6,null,null,"<p style=""font-size: 60px; font-family: BACS"">OAmAdDKP</p>",,,,,,,,,,
html-keyboard-response,371,635757,0.0-16.0-0.39,6156b68cc77b48d6693b361c,650c16f0f2faf8d7a0d14c09,651c1cc12c957af8ec94c3e6,null,null,"<p style=""font-size: 60px; font-family: BACS"">OAmAdDKP</p>",,,,,,,,,,
html-keyboard-response,372,636764,0.0-16.0-0.40,6156b68cc77b48d6693b361c,650c16f0f2faf8d7a0d14c09,651c1cc12c957af8ec94c3e6,null,null,"<p style=""font-size: 60px; font-family: BACS"">OAmAdDKP</p>",,,,,,,,,,
html-keyboard-response,373,638757,0.0-16.0-0.41,6156b68cc77b48d6693b361c,650c16f0f2faf8d7a0d14c09,651c1cc12c957af8ec94c3e6,null,null,"<p style=""font-size: 60px; font-family: BACS"">OAmAdDKP</p>",,,,,,,,,,
html-keyboard-response,374,639758,0.0-16.0-0.42,6156b68cc77b48d6693b361c,650c16f0f2faf8d7a0d14c09,651c1cc12c957af8ec94c3e6,null,null,"<p style=""font-size: 60px; font-family: BACS"">OAmAdDKP</p>",,,,,,,,,,
html-keyboard-response,375,640764,0.0-16.0-0.43,6156b68cc77b48d6693b361c,650c16f0f2faf8d7a0d14c09,651c1cc12c957af8ec94c3e6,null,null,"<p style=""font-size: 60px; font-family: BACS"">OAmAdDKP</p>",,,,,,,,,,
html-keyboard-response,376,642757,0.0-16.0-0.44,6156b68cc77b48d6693b361c,650c16f0f2faf8d7a0d14c09,651c1cc12c957af8ec94c3e6,null,null,"<p style=""font-size: 60px; font-family: BACS"">OAmAdDKP</p>",,,,,,,,,,
html-keyboard-response,377,643758,0.0-16.0-0.45,6156b68cc77b48d6693b361c,650c16f0f2faf8d7a0d14c09,651c1cc12c957af8ec94c3e6,null,null,"<p style=""font-size: 60px; font-family: BACS"">OAmAdDKP</p>",,,,,,,,,,
html-keyboard-response,378,644759,0.0-16.0-0.46,6156b68cc77b48d6693b361c,650c16f0f2faf8d7a0d14c09,651c1cc12c957af8ec94c3e6,null,null,"<p style=""font-size: 60px; font-family: BACS"">OAmAdDKP</p>",,,,,,,,,,
html-keyboard-response,379,645761,0.0-16.0-0.47,6156b68cc77b48d6693b361c,650c16f0f2faf8d7a0d14c09,651c1cc12c957af8ec94c3e6,null,null,"<p style=""font-size: 60px; font-family: BACS"">OAmAdDKP</p>",,,,,,,,,,
html-keyboard-response,380,647761,0.0-16.0-0.48,6156b68cc77b48d6693b361c,650c16f0f2faf8d7a0d14c09,651c1cc12c957af8ec94c3e6,null,null,"<p style=""font-size: 60px; font-family: BACS"">OAmAdDKP</p>",,,,,,,,,,
html-keyboard-response,381,648766,0.0-16.0-0.49,6156b68cc77b48d6693b361c,650c16f0f2faf8d7a0d14c09,651c1cc12c957af8ec94c3e6,null,null,"<p style=""font-size: 60px; font-family: BACS"">OAmAdDKP</p>",,,,,,,,,,
html-keyboard-response,382,650758,0.0-16.0-0.50,6156b68cc77b48d6693b361c,650c16f0f2faf8d7a0d14c09,651c1cc12c957af8ec94c3e6,null,null,"<p style=""font-size: 60px; font-family: BACS"">OAmAdDKP</p>",,,,,,,,,,
html-keyboard-response,383,651759,0.0-16.0-0.51,6156b68cc77b48d6693b361c,650c16f0f2faf8d7a0d14c09,651c1cc12c957af8ec94c3e6,null,null,"<p style=""font-size: 60px; font-family: BACS"">OAmAdDKP</p>",,,,,,,,,,
html-keyboard-response,384,652764,0.0-16.0-0.52,6156b68cc77b48d6693b361c,650c16f0f2faf8d7a0d14c09,651c1cc12c957af8ec94c3e6,null,null,"<p style=""font-size: 60px; font-family: BACS"">OAmAdDKP</p>",,,,,,,,,,
html-keyboard-response,385,654756,0.0-16.0-0.53,6156b68cc77b48d6693b361c,650c16f0f2faf8d7a0d14c09,651c1cc12c957af8ec94c3e6,null,null,"<p style=""font-size: 60px; font-family: BACS"">OAmAdDKP</p>",,,,,,,,,,
html-keyboard-response,386,655763,0.0-16.0-0.54,6156b68cc77b48d6693b361c,650c16f0f2faf8d7a0d14c09,651c1cc12c957af8ec94c3e6,null,null,"<p style=""font-size: 60px; font-family: BACS"">OAmAdDKP</p>",,,,,,,,,,
html-keyboard-response,387,656769,0.0-16.0-0.55,6156b68cc77b48d6693b361c,650c16f0f2faf8d7a0d14c09,651c1cc12c957af8ec94c3e6,null,null,"<p style=""font-size: 60px; font-family: BACS"">OAmAdDKP</p>",,,,,,,,,,
html-keyboard-response,388,658759,0.0-16.0-0.56,6156b68cc77b48d6693b361c,650c16f0f2faf8d7a0d14c09,651c1cc12c957af8ec94c3e6,null,null,"<p style=""font-size: 60px; font-family: BACS"">OAmAdDKP</p>",,,,,,,,,,
html-keyboard-response,389,659766,0.0-16.0-0.57,6156b68cc77b48d6693b361c,650c16f0f2faf8d7a0d14c09,651c1cc12c957af8ec94c3e6,null,null,"<p style=""font-size: 60px; font-family: BACS"">OAmAdDKP</p>",,,,,,,,,,
html-keyboard-response,390,661756,0.0-16.0-0.58,6156b68cc77b48d6693b361c,650c16f0f2faf8d7a0d14c09,651c1cc12c957af8ec94c3e6,null,null,"<p style=""font-size: 60px; font-family: BACS"">OAmAdDKP</p>",,,,,,,,,,
html-keyboard-response,391,662764,0.0-16.0-0.59,6156b68cc77b48d6693b361c,650c16f0f2faf8d7a0d14c09,651c1cc12c957af8ec94c3e6,null,null,"<p style=""font-size: 60px; font-family: BACS"">OAmAdDKP</p>",,,,,,,,,,
html-keyboard-response,392,664759,0.0-16.0-0.60,6156b68cc77b48d6693b361c,650c16f0f2faf8d7a0d14c09,651c1cc12c957af8ec94c3e6,null,null,"<p style=""font-size: 60px; font-family: BACS"">OAmAdDKP</p>",,,,,,,,,,
html-keyboard-response,393,665759,0.0-16.0-0.61,6156b68cc77b48d6693b361c,650c16f0f2faf8d7a0d14c09,651c1cc12c957af8ec94c3e6,null,null,"<p style=""font-size: 60px; font-family: BACS"">OAmAdDKP</p>",,,,,,,,,,
html-keyboard-response,394,666764,0.0-16.0-0.62,6156b68cc77b48d6693b361c,650c16f0f2faf8d7a0d14c09,651c1cc12c957af8ec94c3e6,null,null,"<p style=""font-size: 60px; font-family: BACS"">OAmAdDKP</p>",,,,,,,,,,
html-keyboard-response,395,668754,0.0-16.0-0.63,6156b68cc77b48d6693b361c,650c16f0f2faf8d7a0d14c09,651c1cc12c957af8ec94c3e6,null,null,"<p style=""font-size: 60px; font-family: BACS"">OAmAdDKP</p>",,,,,,,,,,
html-keyboard-response,396,669755,0.0-16.0-0.64,6156b68cc77b48d6693b361c,650c16f0f2faf8d7a0d14c09,651c1cc12c957af8ec94c3e6,null,null,"<p style=""font-size: 60px; font-family: BACS"">OAmAdDKP</p>",,,,,,,,,,
html-keyboard-response,397,670761,0.0-16.0-0.65,6156b68cc77b48d6693b361c,650c16f0f2faf8d7a0d14c09,651c1cc12c957af8ec94c3e6,null,null,"<p style=""font-size: 60px; font-family: BACS"">OAmAdDKP</p>",,,,,,,,,,
html-keyboard-response,398,672754,0.0-16.0-0.66,6156b68cc77b48d6693b361c,650c16f0f2faf8d7a0d14c09,651c1cc12c957af8ec94c3e6,null,null,"<p style=""font-size: 60px; font-family: BACS"">OAmAdDKP</p>",,,,,,,,,,
html-keyboard-response,399,673764,0.0-16.0-0.67,6156b68cc77b48d6693b361c,650c16f0f2faf8d7a0d14c09,651c1cc12c957af8ec94c3e6,null,null,"<p style=""font-size: 60px; font-family: BACS"">OAmAdDKP</p>",,,,,,,,,,
html-keyboard-response,400,675755,0.0-16.0-0.68,6156b68cc77b48d6693b361c,650c16f0f2faf8d7a0d14c09,651c1cc12c957af8ec94c3e6,null,null,"<p style=""font-size: 60px; font-family: BACS"">OAmAdDKP</p>",,,,,,,,,,
html-keyboard-response,401,676762,0.0-16.0-0.69,6156b68cc77b48d6693b361c,650c16f0f2faf8d7a0d14c09,651c1cc12c957af8ec94c3e6,null,null,"<p style=""font-size: 60px; font-family: BACS"">OAmAdDKP</p>",,,,,,,,,,
html-keyboard-response,402,678754,0.0-16.0-0.70,6156b68cc77b48d6693b361c,650c16f0f2faf8d7a0d14c09,651c1cc12c957af8ec94c3e6,null,null,"<p style=""font-size: 60px; font-family: BACS"">OAmAdDKP</p>",,,,,,,,,,
html-keyboard-response,403,679759,0.0-16.0-0.71,6156b68cc77b48d6693b361c,650c16f0f2faf8d7a0d14c09,651c1cc12c957af8ec94c3e6,null,null,"<p style=""font-size: 60px; font-family: BACS"">OAmAdDKP</p>",,,,,,,,,,
html-keyboard-response,404,681760,0.0-16.0-0.72,6156b68cc77b48d6693b361c,650c16f0f2faf8d7a0d14c09,651c1cc12c957af8ec94c3e6,null,null,"<p style=""font-size: 60px; font-family: BACS"">OAmAdDKP</p>",,,,,,,,,,
html-keyboard-response,405,682767,0.0-16.0-0.73,6156b68cc77b48d6693b361c,650c16f0f2faf8d7a0d14c09,651c1cc12c957af8ec94c3e6,null,null,"<p style=""font-size: 60px; font-family: BACS"">OAmAdDKP</p>",,,,,,,,,,
html-keyboard-response,406,684752,0.0-16.0-0.74,6156b68cc77b48d6693b361c,650c16f0f2faf8d7a0d14c09,651c1cc12c957af8ec94c3e6,null,null,"<p style=""font-size: 60px; font-family: BACS"">OAmAdDKP</p>",,,,,,,,,,
html-keyboard-response,407,685754,0.0-16.0-0.75,6156b68cc77b48d6693b361c,650c16f0f2faf8d7a0d14c09,651c1cc12c957af8ec94c3e6,null,null,"<p style=""font-size: 60px; font-family: BACS"">OAmAdDKP</p>",,,,,,,,,,
html-keyboard-response,408,687758,0.0-16.0-0.76,6156b68cc77b48d6693b361c,650c16f0f2faf8d7a0d14c09,651c1cc12c957af8ec94c3e6,null,null,"<p style=""font-size: 60px; font-family: BACS"">OAmAdDKP</p>",,,,,,,,,,
html-keyboard-response,409,688758,0.0-16.0-0.77,6156b68cc77b48d6693b361c,650c16f0f2faf8d7a0d14c09,651c1cc12c957af8ec94c3e6,null,null,"<p style=""font-size: 60px; font-family: BACS"">OAmAdDKP</p>",,,,,,,,,,
html-keyboard-response,410,689765,0.0-16.0-0.78,6156b68cc77b48d6693b361c,650c16f0f2faf8d7a0d14c09,651c1cc12c957af8ec94c3e6,null,null,"<p style=""font-size: 60px; font-family: BACS"">OAmAdDKP</p>",,,,,,,,,,
html-keyboard-response,411,691756,0.0-16.0-0.79,6156b68cc77b48d6693b361c,650c16f0f2faf8d7a0d14c09,651c1cc12c957af8ec94c3e6,null,null,"<p style=""font-size: 60px; font-family: BACS"">OAmAdDKP</p>",,,,,,,,,,
html-keyboard-response,412,710805,0.0-17.0,6156b68cc77b48d6693b361c,650c16f0f2faf8d7a0d14c09,651c1cc12c957af8ec94c3e6,19048, ,"<p>Great, you've seen the fifth block of words. You may now take a short break.</p>
      <p>Press the spacebar when you're ready to continue.</p>",,,,,,,,,,
html-keyboard-response,413,711809,0.0-18.0-0.0,6156b68cc77b48d6693b361c,650c16f0f2faf8d7a0d14c09,651c1cc12c957af8ec94c3e6,null,null,"<p style=""font-size: 60px; font-family: BACS"">UdlGQOcZJ</p>",,,,,,,,,,
html-keyboard-response,414,712809,0.0-18.0-0.1,6156b68cc77b48d6693b361c,650c16f0f2faf8d7a0d14c09,651c1cc12c957af8ec94c3e6,null,null,"<p style=""font-size: 60px; font-family: BACS"">YmBdbAMO</p>",,,,,,,,,,
html-keyboard-response,415,713812,0.0-18.0-0.2,6156b68cc77b48d6693b361c,650c16f0f2faf8d7a0d14c09,651c1cc12c957af8ec94c3e6,null,null,"<p style=""font-size: 60px; font-family: BACS"">JZOAkGUa</p>",,,,,,,,,,
html-keyboard-response,416,714819,0.0-18.0-0.3,6156b68cc77b48d6693b361c,650c16f0f2faf8d7a0d14c09,651c1cc12c957af8ec94c3e6,null,null,"<p style=""font-size: 60px; font-family: BACS"">ctktDKP</p>",,,,,,,,,,
html-keyboard-response,417,716755,0.0-18.0-0.4,6156b68cc77b48d6693b361c,650c16f0f2faf8d7a0d14c09,651c1cc12c957af8ec94c3e6,null,null,"<p style=""font-size: 60px; font-family: BACS"">OAmAdCMdP</p>",,,,,,,,,,
html-keyboard-response,418,717757,0.0-18.0-0.5,6156b68cc77b48d6693b361c,650c16f0f2faf8d7a0d14c09,651c1cc12c957af8ec94c3e6,null,null,"<p style=""font-size: 60px; font-family: BACS"">TDKhCEM</p>",,,,,,,,,,
html-keyboard-response,419,719756,0.0-18.0-0.6,6156b68cc77b48d6693b361c,650c16f0f2faf8d7a0d14c09,651c1cc12c957af8ec94c3e6,null,null,"<p style=""font-size: 60px; font-family: BACS"">DRPkYlMck</p>",,,,,,,,,,
html-keyboard-response,420,720763,0.0-18.0-0.7,6156b68cc77b48d6693b361c,650c16f0f2faf8d7a0d14c09,651c1cc12c957af8ec94c3e6,null,null,"<p style=""font-size: 60px; font-family: BACS"">uAkrOcN</p>",,,,,,,,,,
html-keyboard-response,421,722755,0.0-18.0-0.8,6156b68cc77b48d6693b361c,650c16f0f2faf8d7a0d14c09,651c1cc12c957af8ec94c3e6,null,null,"<p style=""font-size: 60px; font-family: BACS"">KdARCEM</p>",,,,,,,,,,
html-keyboard-response,422,723755,0.0-18.0-0.9,6156b68cc77b48d6693b361c,650c16f0f2faf8d7a0d14c09,651c1cc12c957af8ec94c3e6,null,null,"<p style=""font-size: 60px; font-family: BACS"">ALOrlGUa</p>",,,,,,,,,,
html-keyboard-response,423,724757,0.0-18.0-0.10,6156b68cc77b48d6693b361c,650c16f0f2faf8d7a0d14c09,651c1cc12c957af8ec94c3e6,null,null,"<p style=""font-size: 60px; font-family: BACS"">DRPkYCEM</p>",,,,,,,,,,
html-keyboard-response,424,726760,0.0-18.0-0.11,6156b68cc77b48d6693b361c,650c16f0f2faf8d7a0d14c09,651c1cc12c957af8ec94c3e6,null,null,"<p style=""font-size: 60px; font-family: BACS"">OLJblGUa</p>",,,,,,,,,,
html-keyboard-response,425,727761,0.0-18.0-0.12,6156b68cc77b48d6693b361c,650c16f0f2faf8d7a0d14c09,651c1cc12c957af8ec94c3e6,null,null,"<p style=""font-size: 60px; font-family: BACS"">AYkEhCEM</p>",,,,,,,,,,
html-keyboard-response,426,729762,0.0-18.0-0.13,6156b68cc77b48d6693b361c,650c16f0f2faf8d7a0d14c09,651c1cc12c957af8ec94c3e6,null,null,"<p style=""font-size: 60px; font-family: BACS"">dYdACMdP</p>",,,,,,,,,,
html-keyboard-response,427,731761,0.0-18.0-0.14,6156b68cc77b48d6693b361c,650c16f0f2faf8d7a0d14c09,651c1cc12c957af8ec94c3e6,null,null,"<p style=""font-size: 60px; font-family: BACS"">OLJblYaOk</p>",,,,,,,,,,
html-keyboard-response,428,732762,0.0-18.0-0.15,6156b68cc77b48d6693b361c,650c16f0f2faf8d7a0d14c09,651c1cc12c957af8ec94c3e6,null,null,"<p style=""font-size: 60px; font-family: BACS"">ctktCMdP</p>",,,,,,,,,,
html-keyboard-response,429,734760,0.0-18.0-0.16,6156b68cc77b48d6693b361c,650c16f0f2faf8d7a0d14c09,651c1cc12c957af8ec94c3e6,null,null,"<p style=""font-size: 60px; font-family: BACS"">rvUbGUa</p>",,,,,,,,,,
html-keyboard-response,430,735761,0.0-18.0-0.17,6156b68cc77b48d6693b361c,650c16f0f2faf8d7a0d14c09,651c1cc12c957af8ec94c3e6,null,null,"<p style=""font-size: 60px; font-family: BACS"">mbZlOcZJ</p>",,,,,,,,,,
html-keyboard-response,431,736767,0.0-18.0-0.18,6156b68cc77b48d6693b361c,650c16f0f2faf8d7a0d14c09,651c1cc12c957af8ec94c3e6,null,null,"<p style=""font-size: 60px; font-family: BACS"">RtRhlMck</p>",,,,,,,,,,
html-keyboard-response,432,738758,0.0-18.0-0.19,6156b68cc77b48d6693b361c,650c16f0f2faf8d7a0d14c09,651c1cc12c957af8ec94c3e6,null,null,"<p style=""font-size: 60px; font-family: BACS"">KdARCMdP</p>",,,,,,,,,,
html-keyboard-response,433,739760,0.0-18.0-0.20,6156b68cc77b48d6693b361c,650c16f0f2faf8d7a0d14c09,651c1cc12c957af8ec94c3e6,null,null,"<p style=""font-size: 60px; font-family: BACS"">YJLcAGUa</p>",,,,,,,,,,
html-keyboard-response,434,740763,0.0-18.0-0.21,6156b68cc77b48d6693b361c,650c16f0f2faf8d7a0d14c09,651c1cc12c957af8ec94c3e6,null,null,"<p style=""font-size: 60px; font-family: BACS"">OAmAdlMck</p>",,,,,,,,,,
html-keyboard-response,435,741770,0.0-18.0-0.22,6156b68cc77b48d6693b361c,650c16f0f2faf8d7a0d14c09,651c1cc12c957af8ec94c3e6,null,null,"<p style=""font-size: 60px; font-family: BACS"">MDKPCEM</p>",,,,,,,,,,
html-keyboard-response,436,743763,0.0-18.0-0.23,6156b68cc77b48d6693b361c,650c16f0f2faf8d7a0d14c09,651c1cc12c957af8ec94c3e6,null,null,"<p style=""font-size: 60px; font-family: BACS"">RtRhbAMO</p>",,,,,,,,,,
html-keyboard-response,437,745758,0.0-18.0-0.24,6156b68cc77b48d6693b361c,650c16f0f2faf8d7a0d14c09,651c1cc12c957af8ec94c3e6,null,null,"<p style=""font-size: 60px; font-family: BACS"">UdlGQGUOA</p>",,,,,,,,,,
html-keyboard-response,438,746758,0.0-18.0-0.25,6156b68cc77b48d6693b361c,650c16f0f2faf8d7a0d14c09,651c1cc12c957af8ec94c3e6,null,null,"<p style=""font-size: 60px; font-family: BACS"">NvYJYaOk</p>",,,,,,,,,,
html-keyboard-response,439,748759,0.0-18.0-0.26,6156b68cc77b48d6693b361c,650c16f0f2faf8d7a0d14c09,651c1cc12c957af8ec94c3e6,null,null,"<p style=""font-size: 60px; font-family: BACS"">KdARDKP</p>",,,,,,,,,,
html-keyboard-response,440,750756,0.0-18.0-0.27,6156b68cc77b48d6693b361c,650c16f0f2faf8d7a0d14c09,651c1cc12c957af8ec94c3e6,null,null,"<p style=""font-size: 60px; font-family: BACS"">YmBdlMck</p>",,,,,,,,,,
html-keyboard-response,441,751756,0.0-18.0-0.28,6156b68cc77b48d6693b361c,650c16f0f2faf8d7a0d14c09,651c1cc12c957af8ec94c3e6,null,null,"<p style=""font-size: 60px; font-family: BACS"">rvUbOcN</p>",,,,,,,,,,
html-keyboard-response,442,753756,0.0-18.0-0.29,6156b68cc77b48d6693b361c,650c16f0f2faf8d7a0d14c09,651c1cc12c957af8ec94c3e6,null,null,"<p style=""font-size: 60px; font-family: BACS"">RtRhCEM</p>",,,,,,,,,,
html-keyboard-response,443,754756,0.0-18.0-0.30,6156b68cc77b48d6693b361c,650c16f0f2faf8d7a0d14c09,651c1cc12c957af8ec94c3e6,null,null,"<p style=""font-size: 60px; font-family: BACS"">NvYJGUOA</p>",,,,,,,,,,
html-keyboard-response,444,755763,0.0-18.0-0.31,6156b68cc77b48d6693b361c,650c16f0f2faf8d7a0d14c09,651c1cc12c957af8ec94c3e6,null,null,"<p style=""font-size: 60px; font-family: BACS"">rvUbYaOk</p>",,,,,,,,,,
html-keyboard-response,445,757755,0.0-18.0-0.32,6156b68cc77b48d6693b361c,650c16f0f2faf8d7a0d14c09,651c1cc12c957af8ec94c3e6,null,null,"<p style=""font-size: 60px; font-family: BACS"">uAkrOcZJ</p>",,,,,,,,,,
html-keyboard-response,446,758761,0.0-18.0-0.33,6156b68cc77b48d6693b361c,650c16f0f2faf8d7a0d14c09,651c1cc12c957af8ec94c3e6,null,null,"<p style=""font-size: 60px; font-family: BACS"">YJLcAYaOk</p>",,,,,,,,,,
html-keyboard-response,447,760756,0.0-18.0-0.34,6156b68cc77b48d6693b361c,650c16f0f2faf8d7a0d14c09,651c1cc12c957af8ec94c3e6,null,null,"<p style=""font-size: 60px; font-family: BACS"">NvYJGUa</p>",,,,,,,,,,
html-keyboard-response,448,761756,0.0-18.0-0.35,6156b68cc77b48d6693b361c,650c16f0f2faf8d7a0d14c09,651c1cc12c957af8ec94c3e6,null,null,"<p style=""font-size: 60px; font-family: BACS"">JZOAkYaOk</p>",,,,,,,,,,
html-keyboard-response,449,762757,0.0-18.0-0.36,6156b68cc77b48d6693b361c,650c16f0f2faf8d7a0d14c09,651c1cc12c957af8ec94c3e6,null,null,"<p style=""font-size: 60px; font-family: BACS"">ALOrlGUOA</p>",,,,,,,,,,
html-keyboard-response,450,763757,0.0-18.0-0.37,6156b68cc77b48d6693b361c,650c16f0f2faf8d7a0d14c09,651c1cc12c957af8ec94c3e6,null,null,"<p style=""font-size: 60px; font-family: BACS"">YmBdCMdP</p>",,,,,,,,,,
html-keyboard-response,451,765756,0.0-18.0-0.38,6156b68cc77b48d6693b361c,650c16f0f2faf8d7a0d14c09,651c1cc12c957af8ec94c3e6,null,null,"<p style=""font-size: 60px; font-family: BACS"">AYkEhDKP</p>",,,,,,,,,,
html-keyboard-response,452,766763,0.0-18.0-0.39,6156b68cc77b48d6693b361c,650c16f0f2faf8d7a0d14c09,651c1cc12c957af8ec94c3e6,null,null,"<p style=""font-size: 60px; font-family: BACS"">NvYJOcN</p>",,,,,,,,,,
html-keyboard-response,453,767770,0.0-18.0-0.40,6156b68cc77b48d6693b361c,650c16f0f2faf8d7a0d14c09,651c1cc12c957af8ec94c3e6,null,null,"<p style=""font-size: 60px; font-family: BACS"">dYdADKP</p>",,,,,,,,,,
html-keyboard-response,454,769757,0.0-18.0-0.41,6156b68cc77b48d6693b361c,650c16f0f2faf8d7a0d14c09,651c1cc12c957af8ec94c3e6,null,null,"<p style=""font-size: 60px; font-family: BACS"">RtRhCMdP</p>",,,,,,,,,,
html-keyboard-response,455,770764,0.0-18.0-0.42,6156b68cc77b48d6693b361c,650c16f0f2faf8d7a0d14c09,651c1cc12c957af8ec94c3e6,null,null,"<p style=""font-size: 60px; font-family: BACS"">ALOrlOcZJ</p>",,,,,,,,,,
html-keyboard-response,456,772757,0.0-18.0-0.43,6156b68cc77b48d6693b361c,650c16f0f2faf8d7a0d14c09,651c1cc12c957af8ec94c3e6,null,null,"<p style=""font-size: 60px; font-family: BACS"">TDKhCMdP</p>",,,,,,,,,,
html-keyboard-response,457,773761,0.0-18.0-0.44,6156b68cc77b48d6693b361c,650c16f0f2faf8d7a0d14c09,651c1cc12c957af8ec94c3e6,null,null,"<p style=""font-size: 60px; font-family: BACS"">OLJblOcZJ</p>",,,,,,,,,,
html-keyboard-response,458,775761,0.0-18.0-0.45,6156b68cc77b48d6693b361c,650c16f0f2faf8d7a0d14c09,651c1cc12c957af8ec94c3e6,null,null,"<p style=""font-size: 60px; font-family: BACS"">dYdAbAMO</p>",,,,,,,,,,
html-keyboard-response,459,776762,0.0-18.0-0.46,6156b68cc77b48d6693b361c,650c16f0f2faf8d7a0d14c09,651c1cc12c957af8ec94c3e6,null,null,"<p style=""font-size: 60px; font-family: BACS"">YJLcAOcZJ</p>",,,,,,,,,,
html-keyboard-response,460,777763,0.0-18.0-0.47,6156b68cc77b48d6693b361c,650c16f0f2faf8d7a0d14c09,651c1cc12c957af8ec94c3e6,null,null,"<p style=""font-size: 60px; font-family: BACS"">UdlGQOcN</p>",,,,,,,,,,
html-keyboard-response,461,779758,0.0-18.0-0.48,6156b68cc77b48d6693b361c,650c16f0f2faf8d7a0d14c09,651c1cc12c957af8ec94c3e6,null,null,"<p style=""font-size: 60px; font-family: BACS"">JZOAkOcZJ</p>",,,,,,,,,,
html-keyboard-response,462,780765,0.0-18.0-0.49,6156b68cc77b48d6693b361c,650c16f0f2faf8d7a0d14c09,651c1cc12c957af8ec94c3e6,null,null,"<p style=""font-size: 60px; font-family: BACS"">UdlGQYaOk</p>",,,,,,,,,,
html-keyboard-response,463,782756,0.0-18.0-0.50,6156b68cc77b48d6693b361c,650c16f0f2faf8d7a0d14c09,651c1cc12c957af8ec94c3e6,null,null,"<p style=""font-size: 60px; font-family: BACS"">OAmAdbAMO</p>",,,,,,,,,,
html-keyboard-response,464,783757,0.0-18.0-0.51,6156b68cc77b48d6693b361c,650c16f0f2faf8d7a0d14c09,651c1cc12c957af8ec94c3e6,null,null,"<p style=""font-size: 60px; font-family: BACS"">mbZlOcN</p>",,,,,,,,,,
html-keyboard-response,465,784761,0.0-18.0-0.52,6156b68cc77b48d6693b361c,650c16f0f2faf8d7a0d14c09,651c1cc12c957af8ec94c3e6,null,null,"<p style=""font-size: 60px; font-family: BACS"">MDKPlMck</p>",,,,,,,,,,
html-keyboard-response,466,786761,0.0-18.0-0.53,6156b68cc77b48d6693b361c,650c16f0f2faf8d7a0d14c09,651c1cc12c957af8ec94c3e6,null,null,"<p style=""font-size: 60px; font-family: BACS"">rvUbGUOA</p>",,,,,,,,,,
html-keyboard-response,467,787761,0.0-18.0-0.54,6156b68cc77b48d6693b361c,650c16f0f2faf8d7a0d14c09,651c1cc12c957af8ec94c3e6,null,null,"<p style=""font-size: 60px; font-family: BACS"">YJLcAOcN</p>",,,,,,,,,,
