"trial_type","trial_index","time_elapsed","internal_node_id","subject_id","study_id","session_id","rt","response","stimulus","success","item","task","correct_response","testing_condition","correct","target","confound","name"
"pavlovia","0","779","0.0-0.0","60f88d7fef1959734061e5a7","650c16f0f2faf8d7a0d14c09","651c1c05a4af61b043313426","","","","","","","","","","","",""
"survey-html-form","1","8686","0.0-1.0","60f88d7fef1959734061e5a7","650c16f0f2faf8d7a0d14c09","651c1c05a4af61b043313426","7906","{""ID"":""60f88d7fef1959734061e5a7""}","","","","","","","","","",""
"html-keyboard-response","2","54340","0.0-2.0","60f88d7fef1959734061e5a7","650c16f0f2faf8d7a0d14c09","651c1c05a4af61b043313426","45653"," ","<p style=""font-size: 15px;"">Before beginning, we ask that you read the consent information and confirm your agreement to participate in the experiment.</p>
      <p style=""font-size: 15px;""> We ask that you remember that this is a research project and that your participation is entirely voluntary. You can stop your participation at any time, without needing to provide any explanation. The study we're asking you to participate in aims at examining how readers process written words. You will be engaged in a session of apprximately 20 minutes, followed by a brief questionnaire. You will have the opportunity to take a few breaks during the experiment. You will be paid £4 for your participation, corresponding to a rate of £8/hour. While this experiment looks at cognitive faculties, this experiment doesn't constitute clinical proof of eventual pathologies.</p>
      <p style=""font-size: 15px;"">All of the information collected thanks to yours and others' participation will be held in a secure password-protected server, and will not be shared with anyone not authorised to view it. Your personal information will be kept with an arbitrary participant ID. Thanks to this data anonymity process, any researcher analysing the data won't be able to track the information back to a specific participant. Therefore, this process will make identifying you impossibile, even when results from the study will be published in scientific reviews, presented at congresses, or at any other public forum. More generally, the collected data will be treated in accordance with the laws on privacy and conformity to the Legislative Degree n. 196 ""Code regarding the protection of personal data"" of the 30th of June 2003 and to the European Regulation 2016/670 (General Data Protection Regulation - GDPR). The Data Protection Officer is Avv. Valentina Carollo, who can be contacted at the following email addresses: <a href=""mailto:dpo@sissa.it"">dpo@sissa.it</a> or <a href=""mailto:rpd@sissa.it"">rpd@sissa.it</a> - PEC: <a href=""mailto:protocollo@pec.sissa.it"">protocollo@pec.sissa.it</a>.</p>
      <p style=""font-size: 15px;""> Before expressing your consent to participate, we would like to remind you again that in case you need explanations on any aspect of the experimental procedure, the researcher is at your disposition (<a href=""mailto:aliebelt@sissa.it"">aliebelt@sissa.it</a>, <a href=""mailto:davide.crepaldi@sissa.it"">davide.crepaldi@sissa.it</a>).</p>
      <p style=""font-size: 15px;"">If you would like to download the informed consent form, you can do so here: <a href=""BASL-Informed_Consent.pdf"" download>informed consent form</a>.</p>
      <p style=""font-size: 15px;"">We ask that you press the spacebar to proceed to the consent section.</p>","","","","","","","","",""
"survey-html-form","3","71349","0.0-3.0","60f88d7fef1959734061e5a7","650c16f0f2faf8d7a0d14c09","651c1c05a4af61b043313426","17008","{""consent1"":""YES"",""consent2"":""YES"",""consent3"":""YES"",""consent4"":""YES"",""consent5"":""YES"",""consent6"":""YES""}","","","","","","","","","",""
"fullscreen","4","75519","0.0-4.0","60f88d7fef1959734061e5a7","650c16f0f2faf8d7a0d14c09","651c1c05a4af61b043313426","","","","true","","","","","","","",""
"html-keyboard-response","5","91120","0.0-5.0","60f88d7fef1959734061e5a7","650c16f0f2faf8d7a0d14c09","651c1c05a4af61b043313426","15600"," ","<p>Welcome, and thank you very much for your time!</p>
      <p>In this experiment, you'll be a language expert who's been asked to take a look at words that Earth has received in its first communication with aliens. Your task, in this first part of the experiment, is to pay close attention to the words you'll be shown; later, world leaders will ask you questions on what you saw. The words will be shown to you quite quickly; it seems that the aliens were in a hurry :-)</p>
      <p>Press the spacebar to continue.<p>","","","","","","","","",""
"html-keyboard-response","6","91174","0.0-6.0","60f88d7fef1959734061e5a7","650c16f0f2faf8d7a0d14c09","651c1c05a4af61b043313426","null","null","<p style=""font-size: 120px; font-family: BACS""> </p>","","","","","","","","",""
"html-keyboard-response","7","97596","0.0-7.0","60f88d7fef1959734061e5a7","650c16f0f2faf8d7a0d14c09","651c1c05a4af61b043313426","6421"," ","<p>Here is an example of the words you'll see:</p>
      <img src='esempio.png' height='400px'>
      <p>When you're ready to begin, press the spacebar.</p></div>","","","","","","","","",""
"html-keyboard-response","8","98602","0.0-8.0-0.0","60f88d7fef1959734061e5a7","650c16f0f2faf8d7a0d14c09","651c1c05a4af61b043313426","null","null","<p style=""font-size: 60px; font-family: BACS"">NaAQdrNlZ</p>","","","","","","","","",""
"html-keyboard-response","9","99612","0.0-8.0-0.1","60f88d7fef1959734061e5a7","650c16f0f2faf8d7a0d14c09","651c1c05a4af61b043313426","null","null","<p style=""font-size: 60px; font-family: BACS"">EdBbYKPB</p>","","","","","","","","",""
"html-keyboard-response","10","100618","0.0-8.0-0.2","60f88d7fef1959734061e5a7","650c16f0f2faf8d7a0d14c09","651c1c05a4af61b043313426","null","null","<p style=""font-size: 60px; font-family: BACS"">kGlUaQr</p>","","","","","","","","",""
"html-keyboard-response","11","101622","0.0-8.0-0.3","60f88d7fef1959734061e5a7","650c16f0f2faf8d7a0d14c09","651c1c05a4af61b043313426","null","null","<p style=""font-size: 60px; font-family: BACS"">lhCTChEct</p>","","","","","","","","",""
"html-keyboard-response","12","102627","0.0-8.0-0.4","60f88d7fef1959734061e5a7","650c16f0f2faf8d7a0d14c09","651c1c05a4af61b043313426","null","null","<p style=""font-size: 60px; font-family: BACS"">kGlUQGb</p>","","","","","","","","",""
"html-keyboard-response","13","103636","0.0-8.0-0.5","60f88d7fef1959734061e5a7","650c16f0f2faf8d7a0d14c09","651c1c05a4af61b043313426","null","null","<p style=""font-size: 60px; font-family: BACS"">DMRPKlkD</p>","","","","","","","","",""
"html-keyboard-response","14","104645","0.0-8.0-0.6","60f88d7fef1959734061e5a7","650c16f0f2faf8d7a0d14c09","651c1c05a4af61b043313426","null","null","<p style=""font-size: 60px; font-family: BACS"">UJkGcbm</p>","","","","","","","","",""
"html-keyboard-response","15","105652","0.0-8.0-0.7","60f88d7fef1959734061e5a7","650c16f0f2faf8d7a0d14c09","651c1c05a4af61b043313426","null","null","<p style=""font-size: 60px; font-family: BACS"">JvaArNlZ</p>","","","","","","","","",""
"html-keyboard-response","16","106657","0.0-8.0-0.8","60f88d7fef1959734061e5a7","650c16f0f2faf8d7a0d14c09","651c1c05a4af61b043313426","null","null","<p style=""font-size: 60px; font-family: BACS"">dMThkBbM</p>","","","","","","","","",""
"html-keyboard-response","17","107673","0.0-8.0-0.9","60f88d7fef1959734061e5a7","650c16f0f2faf8d7a0d14c09","651c1c05a4af61b043313426","null","null","<p style=""font-size: 60px; font-family: BACS"">kbmZOaQr</p>","","","","","","","","",""
"html-keyboard-response","18","108678","0.0-8.0-0.10","60f88d7fef1959734061e5a7","650c16f0f2faf8d7a0d14c09","651c1c05a4af61b043313426","null","null","<p style=""font-size: 60px; font-family: BACS"">AlNUQGb</p>","","","","","","","","",""
"html-keyboard-response","19","109684","0.0-8.0-0.11","60f88d7fef1959734061e5a7","650c16f0f2faf8d7a0d14c09","651c1c05a4af61b043313426","null","null","<p style=""font-size: 60px; font-family: BACS"">DMRPdEPD</p>","","","","","","","","",""
"html-keyboard-response","20","110691","0.0-8.0-0.12","60f88d7fef1959734061e5a7","650c16f0f2faf8d7a0d14c09","651c1c05a4af61b043313426","null","null","<p style=""font-size: 60px; font-family: BACS"">dMThkYKPB</p>","","","","","","","","",""
"html-keyboard-response","21","111703","0.0-8.0-0.13","60f88d7fef1959734061e5a7","650c16f0f2faf8d7a0d14c09","651c1c05a4af61b043313426","null","null","<p style=""font-size: 60px; font-family: BACS"">rkJuaQr</p>","","","","","","","","",""
"html-keyboard-response","22","112719","0.0-8.0-0.14","60f88d7fef1959734061e5a7","650c16f0f2faf8d7a0d14c09","651c1c05a4af61b043313426","null","null","<p style=""font-size: 60px; font-family: BACS"">JvaAQGb</p>","","","","","","","","",""
"html-keyboard-response","23","113720","0.0-8.0-0.15","60f88d7fef1959734061e5a7","650c16f0f2faf8d7a0d14c09","651c1c05a4af61b043313426","null","null","<p style=""font-size: 60px; font-family: BACS"">DMRPhEct</p>","","","","","","","","",""
"html-keyboard-response","24","114736","0.0-8.0-0.16","60f88d7fef1959734061e5a7","650c16f0f2faf8d7a0d14c09","651c1c05a4af61b043313426","null","null","<p style=""font-size: 60px; font-family: BACS"">UYZlZrNlZ</p>","","","","","","","","",""
"html-keyboard-response","25","115750","0.0-8.0-0.17","60f88d7fef1959734061e5a7","650c16f0f2faf8d7a0d14c09","651c1c05a4af61b043313426","null","null","<p style=""font-size: 60px; font-family: BACS"">ukcYQGb</p>","","","","","","","","",""
"html-keyboard-response","26","116752","0.0-8.0-0.18","60f88d7fef1959734061e5a7","650c16f0f2faf8d7a0d14c09","651c1c05a4af61b043313426","null","null","<p style=""font-size: 60px; font-family: BACS"">UJkGrNlZ</p>","","","","","","","","",""
"html-keyboard-response","27","117759","0.0-8.0-0.19","60f88d7fef1959734061e5a7","650c16f0f2faf8d7a0d14c09","651c1c05a4af61b043313426","null","null","<p style=""font-size: 60px; font-family: BACS"">lhCTCdEPD</p>","","","","","","","","",""
"html-keyboard-response","28","118761","0.0-8.0-0.20","60f88d7fef1959734061e5a7","650c16f0f2faf8d7a0d14c09","651c1c05a4af61b043313426","null","null","<p style=""font-size: 60px; font-family: BACS"">AlNUrNlZ</p>","","","","","","","","",""
"html-keyboard-response","29","119762","0.0-8.0-0.21","60f88d7fef1959734061e5a7","650c16f0f2faf8d7a0d14c09","651c1c05a4af61b043313426","null","null","<p style=""font-size: 60px; font-family: BACS"">JvaAaQr</p>","","","","","","","","",""
"html-keyboard-response","30","120775","0.0-8.0-0.22","60f88d7fef1959734061e5a7","650c16f0f2faf8d7a0d14c09","651c1c05a4af61b043313426","null","null","<p style=""font-size: 60px; font-family: BACS"">rkJurNlZ</p>","","","","","","","","",""
"html-keyboard-response","31","121791","0.0-8.0-0.23","60f88d7fef1959734061e5a7","650c16f0f2faf8d7a0d14c09","651c1c05a4af61b043313426","null","null","<p style=""font-size: 60px; font-family: BACS"">EdBbhEct</p>","","","","","","","","",""
"html-keyboard-response","32","122795","0.0-8.0-0.24","60f88d7fef1959734061e5a7","650c16f0f2faf8d7a0d14c09","651c1c05a4af61b043313426","null","null","<p style=""font-size: 60px; font-family: BACS"">NaAQdJQA</p>","","","","","","","","",""
"html-keyboard-response","33","123804","0.0-8.0-0.25","60f88d7fef1959734061e5a7","650c16f0f2faf8d7a0d14c09","651c1c05a4af61b043313426","null","null","<p style=""font-size: 60px; font-family: BACS"">kbmZOQGb</p>","","","","","","","","",""
"html-keyboard-response","34","124807","0.0-8.0-0.26","60f88d7fef1959734061e5a7","650c16f0f2faf8d7a0d14c09","651c1c05a4af61b043313426","null","null","<p style=""font-size: 60px; font-family: BACS"">kCRmBbM</p>","","","","","","","","",""
"html-keyboard-response","35","125809","0.0-8.0-0.27","60f88d7fef1959734061e5a7","650c16f0f2faf8d7a0d14c09","651c1c05a4af61b043313426","null","null","<p style=""font-size: 60px; font-family: BACS"">kGlUJQA</p>","","","","","","","","",""
"html-keyboard-response","36","126810","0.0-8.0-0.28","60f88d7fef1959734061e5a7","650c16f0f2faf8d7a0d14c09","651c1c05a4af61b043313426","null","null","<p style=""font-size: 60px; font-family: BACS"">UYZlZaQr</p>","","","","","","","","",""
"html-keyboard-response","37","127813","0.0-8.0-0.29","60f88d7fef1959734061e5a7","650c16f0f2faf8d7a0d14c09","651c1c05a4af61b043313426","null","null","<p style=""font-size: 60px; font-family: BACS"">DMRPBbM</p>","","","","","","","","",""
"html-keyboard-response","38","128819","0.0-8.0-0.30","60f88d7fef1959734061e5a7","650c16f0f2faf8d7a0d14c09","651c1c05a4af61b043313426","null","null","<p style=""font-size: 60px; font-family: BACS"">EPMDkhEct</p>","","","","","","","","",""
"html-keyboard-response","39","129828","0.0-8.0-0.31","60f88d7fef1959734061e5a7","650c16f0f2faf8d7a0d14c09","651c1c05a4af61b043313426","null","null","<p style=""font-size: 60px; font-family: BACS"">rkJucbm</p>","","","","","","","","",""
"html-keyboard-response","40","130839","0.0-8.0-0.32","60f88d7fef1959734061e5a7","650c16f0f2faf8d7a0d14c09","651c1c05a4af61b043313426","null","null","<p style=""font-size: 60px; font-family: BACS"">AdDbKlkD</p>","","","","","","","","",""
"html-keyboard-response","41","131849","0.0-8.0-0.33","60f88d7fef1959734061e5a7","650c16f0f2faf8d7a0d14c09","651c1c05a4af61b043313426","null","null","<p style=""font-size: 60px; font-family: BACS"">UJkGJQA</p>","","","","","","","","",""
"html-keyboard-response","42","132853","0.0-8.0-0.34","60f88d7fef1959734061e5a7","650c16f0f2faf8d7a0d14c09","651c1c05a4af61b043313426","null","null","<p style=""font-size: 60px; font-family: BACS"">dMYBPYKPB</p>","","","","","","","","",""
"html-keyboard-response","43","133860","0.0-8.0-0.35","60f88d7fef1959734061e5a7","650c16f0f2faf8d7a0d14c09","651c1c05a4af61b043313426","null","null","<p style=""font-size: 60px; font-family: BACS"">kbmZOcbm</p>","","","","","","","","",""
"html-keyboard-response","44","134872","0.0-8.0-0.36","60f88d7fef1959734061e5a7","650c16f0f2faf8d7a0d14c09","651c1c05a4af61b043313426","null","null","<p style=""font-size: 60px; font-family: BACS"">BMEMAKlkD</p>","","","","","","","","",""
"html-keyboard-response","45","135880","0.0-8.0-0.37","60f88d7fef1959734061e5a7","650c16f0f2faf8d7a0d14c09","651c1c05a4af61b043313426","null","null","<p style=""font-size: 60px; font-family: BACS"">kCRmdEPD</p>","","","","","","","","",""
"html-keyboard-response","46","136886","0.0-8.0-0.38","60f88d7fef1959734061e5a7","650c16f0f2faf8d7a0d14c09","651c1c05a4af61b043313426","null","null","<p style=""font-size: 60px; font-family: BACS"">aYaNcbm</p>","","","","","","","","",""
"html-keyboard-response","47","137891","0.0-8.0-0.39","60f88d7fef1959734061e5a7","650c16f0f2faf8d7a0d14c09","651c1c05a4af61b043313426","null","null","<p style=""font-size: 60px; font-family: BACS"">PEkhAhEct</p>","","","","","","","","",""
"html-keyboard-response","48","138899","0.0-8.0-0.40","60f88d7fef1959734061e5a7","650c16f0f2faf8d7a0d14c09","651c1c05a4af61b043313426","null","null","<p style=""font-size: 60px; font-family: BACS"">NaAQdcbm</p>","","","","","","","","",""
"html-keyboard-response","49","139905","0.0-8.0-0.41","60f88d7fef1959734061e5a7","650c16f0f2faf8d7a0d14c09","651c1c05a4af61b043313426","null","null","<p style=""font-size: 60px; font-family: BACS"">lhCTCYKPB</p>","","","","","","","","",""
"html-keyboard-response","50","140907","0.0-8.0-0.42","60f88d7fef1959734061e5a7","650c16f0f2faf8d7a0d14c09","651c1c05a4af61b043313426","null","null","<p style=""font-size: 60px; font-family: BACS"">AdDbBbM</p>","","","","","","","","",""
"html-keyboard-response","51","141916","0.0-8.0-0.43","60f88d7fef1959734061e5a7","650c16f0f2faf8d7a0d14c09","651c1c05a4af61b043313426","null","null","<p style=""font-size: 60px; font-family: BACS"">dMYBPKlkD</p>","","","","","","","","",""
"html-keyboard-response","52","142922","0.0-8.0-0.44","60f88d7fef1959734061e5a7","650c16f0f2faf8d7a0d14c09","651c1c05a4af61b043313426","null","null","<p style=""font-size: 60px; font-family: BACS"">BMEMAYKPB</p>","","","","","","","","",""
"html-keyboard-response","53","143932","0.0-8.0-0.45","60f88d7fef1959734061e5a7","650c16f0f2faf8d7a0d14c09","651c1c05a4af61b043313426","null","null","<p style=""font-size: 60px; font-family: BACS"">JvaAJQA</p>","","","","","","","","",""
"html-keyboard-response","54","144933","0.0-8.0-0.46","60f88d7fef1959734061e5a7","650c16f0f2faf8d7a0d14c09","651c1c05a4af61b043313426","null","null","<p style=""font-size: 60px; font-family: BACS"">aYaNaQr</p>","","","","","","","","",""
"html-keyboard-response","55","145944","0.0-8.0-0.47","60f88d7fef1959734061e5a7","650c16f0f2faf8d7a0d14c09","651c1c05a4af61b043313426","null","null","<p style=""font-size: 60px; font-family: BACS"">kbmZOJQA</p>","","","","","","","","",""
"html-keyboard-response","56","146960","0.0-8.0-0.48","60f88d7fef1959734061e5a7","650c16f0f2faf8d7a0d14c09","651c1c05a4af61b043313426","null","null","<p style=""font-size: 60px; font-family: BACS"">NaAQdQGb</p>","","","","","","","","",""
"html-keyboard-response","57","147976","0.0-8.0-0.49","60f88d7fef1959734061e5a7","650c16f0f2faf8d7a0d14c09","651c1c05a4af61b043313426","null","null","<p style=""font-size: 60px; font-family: BACS"">kCRmhEct</p>","","","","","","","","",""
"html-keyboard-response","58","148988","0.0-8.0-0.50","60f88d7fef1959734061e5a7","650c16f0f2faf8d7a0d14c09","651c1c05a4af61b043313426","null","null","<p style=""font-size: 60px; font-family: BACS"">dMYBPdEPD</p>","","","","","","","","",""
"html-keyboard-response","59","149993","0.0-8.0-0.51","60f88d7fef1959734061e5a7","650c16f0f2faf8d7a0d14c09","651c1c05a4af61b043313426","null","null","<p style=""font-size: 60px; font-family: BACS"">aYaNJQA</p>","","","","","","","","",""
"html-keyboard-response","60","151001","0.0-8.0-0.52","60f88d7fef1959734061e5a7","650c16f0f2faf8d7a0d14c09","651c1c05a4af61b043313426","null","null","<p style=""font-size: 60px; font-family: BACS"">AdDbdEPD</p>","","","","","","","","",""
"html-keyboard-response","61","152007","0.0-8.0-0.53","60f88d7fef1959734061e5a7","650c16f0f2faf8d7a0d14c09","651c1c05a4af61b043313426","null","null","<p style=""font-size: 60px; font-family: BACS"">EPMDkBbM</p>","","","","","","","","",""
"html-keyboard-response","62","153015","0.0-8.0-0.54","60f88d7fef1959734061e5a7","650c16f0f2faf8d7a0d14c09","651c1c05a4af61b043313426","null","null","<p style=""font-size: 60px; font-family: BACS"">EdBbKlkD</p>","","","","","","","","",""
"html-keyboard-response","63","154019","0.0-8.0-0.55","60f88d7fef1959734061e5a7","650c16f0f2faf8d7a0d14c09","651c1c05a4af61b043313426","null","null","<p style=""font-size: 60px; font-family: BACS"">ukcYaQr</p>","","","","","","","","",""
"html-keyboard-response","64","155026","0.0-8.0-0.56","60f88d7fef1959734061e5a7","650c16f0f2faf8d7a0d14c09","651c1c05a4af61b043313426","null","null","<p style=""font-size: 60px; font-family: BACS"">UJkGQGb</p>","","","","","","","","",""
"html-keyboard-response","65","156033","0.0-8.0-0.57","60f88d7fef1959734061e5a7","650c16f0f2faf8d7a0d14c09","651c1c05a4af61b043313426","null","null","<p style=""font-size: 60px; font-family: BACS"">EPMDkdEPD</p>","","","","","","","","",""
"html-keyboard-response","66","157037","0.0-8.0-0.58","60f88d7fef1959734061e5a7","650c16f0f2faf8d7a0d14c09","651c1c05a4af61b043313426","null","null","<p style=""font-size: 60px; font-family: BACS"">dMYBPBbM</p>","","","","","","","","",""
"html-keyboard-response","67","158053","0.0-8.0-0.59","60f88d7fef1959734061e5a7","650c16f0f2faf8d7a0d14c09","651c1c05a4af61b043313426","null","null","<p style=""font-size: 60px; font-family: BACS"">rkJuJQA</p>","","","","","","","","",""
"html-keyboard-response","68","159066","0.0-8.0-0.60","60f88d7fef1959734061e5a7","650c16f0f2faf8d7a0d14c09","651c1c05a4af61b043313426","null","null","<p style=""font-size: 60px; font-family: BACS"">UYZlZcbm</p>","","","","","","","","",""
"html-keyboard-response","69","160075","0.0-8.0-0.61","60f88d7fef1959734061e5a7","650c16f0f2faf8d7a0d14c09","651c1c05a4af61b043313426","null","null","<p style=""font-size: 60px; font-family: BACS"">aYaNrNlZ</p>","","","","","","","","",""
"html-keyboard-response","70","161083","0.0-8.0-0.62","60f88d7fef1959734061e5a7","650c16f0f2faf8d7a0d14c09","651c1c05a4af61b043313426","null","null","<p style=""font-size: 60px; font-family: BACS"">kGlUcbm</p>","","","","","","","","",""
"html-keyboard-response","71","162087","0.0-8.0-0.63","60f88d7fef1959734061e5a7","650c16f0f2faf8d7a0d14c09","651c1c05a4af61b043313426","null","null","<p style=""font-size: 60px; font-family: BACS"">UYZlZQGb</p>","","","","","","","","",""
"html-keyboard-response","72","163101","0.0-8.0-0.64","60f88d7fef1959734061e5a7","650c16f0f2faf8d7a0d14c09","651c1c05a4af61b043313426","null","null","<p style=""font-size: 60px; font-family: BACS"">EPMDkYKPB</p>","","","","","","","","",""
"html-keyboard-response","73","164114","0.0-8.0-0.65","60f88d7fef1959734061e5a7","650c16f0f2faf8d7a0d14c09","651c1c05a4af61b043313426","null","null","<p style=""font-size: 60px; font-family: BACS"">PEkhAKlkD</p>","","","","","","","","",""
"html-keyboard-response","74","165117","0.0-8.0-0.66","60f88d7fef1959734061e5a7","650c16f0f2faf8d7a0d14c09","651c1c05a4af61b043313426","null","null","<p style=""font-size: 60px; font-family: BACS"">dMThkhEct</p>","","","","","","","","",""
"html-keyboard-response","75","166123","0.0-8.0-0.67","60f88d7fef1959734061e5a7","650c16f0f2faf8d7a0d14c09","651c1c05a4af61b043313426","null","null","<p style=""font-size: 60px; font-family: BACS"">PEkhAYKPB</p>","","","","","","","","",""
"html-keyboard-response","76","167124","0.0-8.0-0.68","60f88d7fef1959734061e5a7","650c16f0f2faf8d7a0d14c09","651c1c05a4af61b043313426","null","null","<p style=""font-size: 60px; font-family: BACS"">AlNUaQr</p>","","","","","","","","",""
"html-keyboard-response","77","168132","0.0-8.0-0.69","60f88d7fef1959734061e5a7","650c16f0f2faf8d7a0d14c09","651c1c05a4af61b043313426","null","null","<p style=""font-size: 60px; font-family: BACS"">PEkhABbM</p>","","","","","","","","",""
"html-keyboard-response","78","169138","0.0-8.0-0.70","60f88d7fef1959734061e5a7","650c16f0f2faf8d7a0d14c09","651c1c05a4af61b043313426","null","null","<p style=""font-size: 60px; font-family: BACS"">lhCTCKlkD</p>","","","","","","","","",""
"html-keyboard-response","79","170142","0.0-8.0-0.71","60f88d7fef1959734061e5a7","650c16f0f2faf8d7a0d14c09","651c1c05a4af61b043313426","null","null","<p style=""font-size: 60px; font-family: BACS"">dMThkdEPD</p>","","","","","","","","",""
"html-keyboard-response","80","171148","0.0-8.0-0.72","60f88d7fef1959734061e5a7","650c16f0f2faf8d7a0d14c09","651c1c05a4af61b043313426","null","null","<p style=""font-size: 60px; font-family: BACS"">BMEMABbM</p>","","","","","","","","",""
"html-keyboard-response","81","172154","0.0-8.0-0.73","60f88d7fef1959734061e5a7","650c16f0f2faf8d7a0d14c09","651c1c05a4af61b043313426","null","null","<p style=""font-size: 60px; font-family: BACS"">ukcYrNlZ</p>","","","","","","","","",""
"html-keyboard-response","82","173160","0.0-8.0-0.74","60f88d7fef1959734061e5a7","650c16f0f2faf8d7a0d14c09","651c1c05a4af61b043313426","null","null","<p style=""font-size: 60px; font-family: BACS"">AdDbYKPB</p>","","","","","","","","",""
"html-keyboard-response","83","174163","0.0-8.0-0.75","60f88d7fef1959734061e5a7","650c16f0f2faf8d7a0d14c09","651c1c05a4af61b043313426","null","null","<p style=""font-size: 60px; font-family: BACS"">AlNUcbm</p>","","","","","","","","",""
"html-keyboard-response","84","175179","0.0-8.0-0.76","60f88d7fef1959734061e5a7","650c16f0f2faf8d7a0d14c09","651c1c05a4af61b043313426","null","null","<p style=""font-size: 60px; font-family: BACS"">kCRmKlkD</p>","","","","","","","","",""
"html-keyboard-response","85","176182","0.0-8.0-0.77","60f88d7fef1959734061e5a7","650c16f0f2faf8d7a0d14c09","651c1c05a4af61b043313426","null","null","<p style=""font-size: 60px; font-family: BACS"">ukcYJQA</p>","","","","","","","","",""
"html-keyboard-response","86","177188","0.0-8.0-0.78","60f88d7fef1959734061e5a7","650c16f0f2faf8d7a0d14c09","651c1c05a4af61b043313426","null","null","<p style=""font-size: 60px; font-family: BACS"">BMEMAhEct</p>","","","","","","","","",""
"html-keyboard-response","87","178200","0.0-8.0-0.79","60f88d7fef1959734061e5a7","650c16f0f2faf8d7a0d14c09","651c1c05a4af61b043313426","null","null","<p style=""font-size: 60px; font-family: BACS"">EdBbdEPD</p>","","","","","","","","",""
"html-keyboard-response","88","237575","0.0-9.0","60f88d7fef1959734061e5a7","650c16f0f2faf8d7a0d14c09","651c1c05a4af61b043313426","59374"," ","<p>Great, you've seen the first block of words. You may now take a short break.</p>
      <p>Press the spacebar when you're ready to continue.</p>","","","","","","","","",""
"html-keyboard-response","89","238584","0.0-10.0-0.0","60f88d7fef1959734061e5a7","650c16f0f2faf8d7a0d14c09","651c1c05a4af61b043313426","null","null","<p style=""font-size: 60px; font-family: BACS"">rkJuJQA</p>","","","","","","","","",""
"html-keyboard-response","90","239590","0.0-10.0-0.1","60f88d7fef1959734061e5a7","650c16f0f2faf8d7a0d14c09","651c1c05a4af61b043313426","null","null","<p style=""font-size: 60px; font-family: BACS"">EdBbKlkD</p>","","","","","","","","",""
"html-keyboard-response","91","240593","0.0-10.0-0.2","60f88d7fef1959734061e5a7","650c16f0f2faf8d7a0d14c09","651c1c05a4af61b043313426","null","null","<p style=""font-size: 60px; font-family: BACS"">ukcYJQA</p>","","","","","","","","",""
"html-keyboard-response","92","241609","0.0-10.0-0.3","60f88d7fef1959734061e5a7","650c16f0f2faf8d7a0d14c09","651c1c05a4af61b043313426","null","null","<p style=""font-size: 60px; font-family: BACS"">EdBbdEPD</p>","","","","","","","","",""
"html-keyboard-response","93","242613","0.0-10.0-0.4","60f88d7fef1959734061e5a7","650c16f0f2faf8d7a0d14c09","651c1c05a4af61b043313426","null","null","<p style=""font-size: 60px; font-family: BACS"">AlNUrNlZ</p>","","","","","","","","",""
"html-keyboard-response","94","243627","0.0-10.0-0.5","60f88d7fef1959734061e5a7","650c16f0f2faf8d7a0d14c09","651c1c05a4af61b043313426","null","null","<p style=""font-size: 60px; font-family: BACS"">kGlUQGb</p>","","","","","","","","",""
"html-keyboard-response","95","244630","0.0-10.0-0.6","60f88d7fef1959734061e5a7","650c16f0f2faf8d7a0d14c09","651c1c05a4af61b043313426","null","null","<p style=""font-size: 60px; font-family: BACS"">EPMDkYKPB</p>","","","","","","","","",""
"html-keyboard-response","96","245640","0.0-10.0-0.7","60f88d7fef1959734061e5a7","650c16f0f2faf8d7a0d14c09","651c1c05a4af61b043313426","null","null","<p style=""font-size: 60px; font-family: BACS"">dMThkdEPD</p>","","","","","","","","",""
"html-keyboard-response","97","246647","0.0-10.0-0.8","60f88d7fef1959734061e5a7","650c16f0f2faf8d7a0d14c09","651c1c05a4af61b043313426","null","null","<p style=""font-size: 60px; font-family: BACS"">NaAQdrNlZ</p>","","","","","","","","",""
"html-keyboard-response","98","247662","0.0-10.0-0.9","60f88d7fef1959734061e5a7","650c16f0f2faf8d7a0d14c09","651c1c05a4af61b043313426","null","null","<p style=""font-size: 60px; font-family: BACS"">ukcYaQr</p>","","","","","","","","",""
"html-keyboard-response","99","248664","0.0-10.0-0.10","60f88d7fef1959734061e5a7","650c16f0f2faf8d7a0d14c09","651c1c05a4af61b043313426","null","null","<p style=""font-size: 60px; font-family: BACS"">JvaAQGb</p>","","","","","","","","",""
"html-keyboard-response","100","249669","0.0-10.0-0.11","60f88d7fef1959734061e5a7","650c16f0f2faf8d7a0d14c09","651c1c05a4af61b043313426","null","null","<p style=""font-size: 60px; font-family: BACS"">DMRPBbM</p>","","","","","","","","",""
"html-keyboard-response","101","250673","0.0-10.0-0.12","60f88d7fef1959734061e5a7","650c16f0f2faf8d7a0d14c09","651c1c05a4af61b043313426","null","null","<p style=""font-size: 60px; font-family: BACS"">EdBbhEct</p>","","","","","","","","",""
"html-keyboard-response","102","251686","0.0-10.0-0.13","60f88d7fef1959734061e5a7","650c16f0f2faf8d7a0d14c09","651c1c05a4af61b043313426","null","null","<p style=""font-size: 60px; font-family: BACS"">PEkhAKlkD</p>","","","","","","","","",""
"html-keyboard-response","103","252693","0.0-10.0-0.14","60f88d7fef1959734061e5a7","650c16f0f2faf8d7a0d14c09","651c1c05a4af61b043313426","null","null","<p style=""font-size: 60px; font-family: BACS"">lhCTCYKPB</p>","","","","","","","","",""
"html-keyboard-response","104","253697","0.0-10.0-0.15","60f88d7fef1959734061e5a7","650c16f0f2faf8d7a0d14c09","651c1c05a4af61b043313426","null","null","<p style=""font-size: 60px; font-family: BACS"">kGlUaQr</p>","","","","","","","","",""
"html-keyboard-response","105","254713","0.0-10.0-0.16","60f88d7fef1959734061e5a7","650c16f0f2faf8d7a0d14c09","651c1c05a4af61b043313426","null","null","<p style=""font-size: 60px; font-family: BACS"">kCRmdEPD</p>","","","","","","","","",""
"html-keyboard-response","106","255716","0.0-10.0-0.17","60f88d7fef1959734061e5a7","650c16f0f2faf8d7a0d14c09","651c1c05a4af61b043313426","null","null","<p style=""font-size: 60px; font-family: BACS"">aYaNrNlZ</p>","","","","","","","","",""
"html-keyboard-response","107","256724","0.0-10.0-0.18","60f88d7fef1959734061e5a7","650c16f0f2faf8d7a0d14c09","651c1c05a4af61b043313426","null","null","<p style=""font-size: 60px; font-family: BACS"">kGlUJQA</p>","","","","","","","","",""
"html-keyboard-response","108","257730","0.0-10.0-0.19","60f88d7fef1959734061e5a7","650c16f0f2faf8d7a0d14c09","651c1c05a4af61b043313426","null","null","<p style=""font-size: 60px; font-family: BACS"">AdDbKlkD</p>","","","","","","","","",""
"html-keyboard-response","109","258738","0.0-10.0-0.20","60f88d7fef1959734061e5a7","650c16f0f2faf8d7a0d14c09","651c1c05a4af61b043313426","null","null","<p style=""font-size: 60px; font-family: BACS"">AlNUaQr</p>","","","","","","","","",""
"html-keyboard-response","110","259740","0.0-10.0-0.21","60f88d7fef1959734061e5a7","650c16f0f2faf8d7a0d14c09","651c1c05a4af61b043313426","null","null","<p style=""font-size: 60px; font-family: BACS"">rkJucbm</p>","","","","","","","","",""
"html-keyboard-response","111","260743","0.0-10.0-0.22","60f88d7fef1959734061e5a7","650c16f0f2faf8d7a0d14c09","651c1c05a4af61b043313426","null","null","<p style=""font-size: 60px; font-family: BACS"">JvaAaQr</p>","","","","","","","","",""
"html-keyboard-response","112","261758","0.0-10.0-0.23","60f88d7fef1959734061e5a7","650c16f0f2faf8d7a0d14c09","651c1c05a4af61b043313426","null","null","<p style=""font-size: 60px; font-family: BACS"">lhCTCKlkD</p>","","","","","","","","",""
"html-keyboard-response","113","262761","0.0-10.0-0.24","60f88d7fef1959734061e5a7","650c16f0f2faf8d7a0d14c09","651c1c05a4af61b043313426","null","null","<p style=""font-size: 60px; font-family: BACS"">dMThkYKPB</p>","","","","","","","","",""
"html-keyboard-response","114","263762","0.0-10.0-0.25","60f88d7fef1959734061e5a7","650c16f0f2faf8d7a0d14c09","651c1c05a4af61b043313426","null","null","<p style=""font-size: 60px; font-family: BACS"">BMEMAKlkD</p>","","","","","","","","",""
"html-keyboard-response","115","264769","0.0-10.0-0.26","60f88d7fef1959734061e5a7","650c16f0f2faf8d7a0d14c09","651c1c05a4af61b043313426","null","null","<p style=""font-size: 60px; font-family: BACS"">EPMDkBbM</p>","","","","","","","","",""
"html-keyboard-response","116","265784","0.0-10.0-0.27","60f88d7fef1959734061e5a7","650c16f0f2faf8d7a0d14c09","651c1c05a4af61b043313426","null","null","<p style=""font-size: 60px; font-family: BACS"">JvaArNlZ</p>","","","","","","","","",""
"html-keyboard-response","117","266790","0.0-10.0-0.28","60f88d7fef1959734061e5a7","650c16f0f2faf8d7a0d14c09","651c1c05a4af61b043313426","null","null","<p style=""font-size: 60px; font-family: BACS"">PEkhAhEct</p>","","","","","","","","",""
"html-keyboard-response","118","267797","0.0-10.0-0.29","60f88d7fef1959734061e5a7","650c16f0f2faf8d7a0d14c09","651c1c05a4af61b043313426","null","null","<p style=""font-size: 60px; font-family: BACS"">aYaNcbm</p>","","","","","","","","",""
"html-keyboard-response","119","268800","0.0-10.0-0.30","60f88d7fef1959734061e5a7","650c16f0f2faf8d7a0d14c09","651c1c05a4af61b043313426","null","null","<p style=""font-size: 60px; font-family: BACS"">dMYBPKlkD</p>","","","","","","","","",""
"html-keyboard-response","120","269804","0.0-10.0-0.31","60f88d7fef1959734061e5a7","650c16f0f2faf8d7a0d14c09","651c1c05a4af61b043313426","null","null","<p style=""font-size: 60px; font-family: BACS"">kbmZOJQA</p>","","","","","","","","",""
"html-keyboard-response","121","270812","0.0-10.0-0.32","60f88d7fef1959734061e5a7","650c16f0f2faf8d7a0d14c09","651c1c05a4af61b043313426","null","null","<p style=""font-size: 60px; font-family: BACS"">UJkGcbm</p>","","","","","","","","",""
"html-keyboard-response","122","271821","0.0-10.0-0.33","60f88d7fef1959734061e5a7","650c16f0f2faf8d7a0d14c09","651c1c05a4af61b043313426","null","null","<p style=""font-size: 60px; font-family: BACS"">AlNUQGb</p>","","","","","","","","",""
"html-keyboard-response","123","272825","0.0-10.0-0.34","60f88d7fef1959734061e5a7","650c16f0f2faf8d7a0d14c09","651c1c05a4af61b043313426","null","null","<p style=""font-size: 60px; font-family: BACS"">rkJurNlZ</p>","","","","","","","","",""
"html-keyboard-response","124","273833","0.0-10.0-0.35","60f88d7fef1959734061e5a7","650c16f0f2faf8d7a0d14c09","651c1c05a4af61b043313426","null","null","<p style=""font-size: 60px; font-family: BACS"">BMEMAhEct</p>","","","","","","","","",""
"html-keyboard-response","125","274836","0.0-10.0-0.36","60f88d7fef1959734061e5a7","650c16f0f2faf8d7a0d14c09","651c1c05a4af61b043313426","null","null","<p style=""font-size: 60px; font-family: BACS"">kCRmKlkD</p>","","","","","","","","",""
"html-keyboard-response","126","275841","0.0-10.0-0.37","60f88d7fef1959734061e5a7","650c16f0f2faf8d7a0d14c09","651c1c05a4af61b043313426","null","null","<p style=""font-size: 60px; font-family: BACS"">PEkhABbM</p>","","","","","","","","",""
"html-keyboard-response","127","276844","0.0-10.0-0.38","60f88d7fef1959734061e5a7","650c16f0f2faf8d7a0d14c09","651c1c05a4af61b043313426","null","null","<p style=""font-size: 60px; font-family: BACS"">EPMDkhEct</p>","","","","","","","","",""
"html-keyboard-response","128","277858","0.0-10.0-0.39","60f88d7fef1959734061e5a7","650c16f0f2faf8d7a0d14c09","651c1c05a4af61b043313426","null","null","<p style=""font-size: 60px; font-family: BACS"">kbmZOQGb</p>","","","","","","","","",""
"html-keyboard-response","129","278864","0.0-10.0-0.40","60f88d7fef1959734061e5a7","650c16f0f2faf8d7a0d14c09","651c1c05a4af61b043313426","null","null","<p style=""font-size: 60px; font-family: BACS"">DMRPhEct</p>","","","","","","","","",""
"html-keyboard-response","130","279865","0.0-10.0-0.41","60f88d7fef1959734061e5a7","650c16f0f2faf8d7a0d14c09","651c1c05a4af61b043313426","null","null","<p style=""font-size: 60px; font-family: BACS"">dMYBPYKPB</p>","","","","","","","","",""
"html-keyboard-response","131","280870","0.0-10.0-0.42","60f88d7fef1959734061e5a7","650c16f0f2faf8d7a0d14c09","651c1c05a4af61b043313426","null","null","<p style=""font-size: 60px; font-family: BACS"">UJkGJQA</p>","","","","","","","","",""
"html-keyboard-response","132","281872","0.0-10.0-0.43","60f88d7fef1959734061e5a7","650c16f0f2faf8d7a0d14c09","651c1c05a4af61b043313426","null","null","<p style=""font-size: 60px; font-family: BACS"">rkJuaQr</p>","","","","","","","","",""
"html-keyboard-response","133","282874","0.0-10.0-0.44","60f88d7fef1959734061e5a7","650c16f0f2faf8d7a0d14c09","651c1c05a4af61b043313426","null","null","<p style=""font-size: 60px; font-family: BACS"">kCRmhEct</p>","","","","","","","","",""
"html-keyboard-response","134","283881","0.0-10.0-0.45","60f88d7fef1959734061e5a7","650c16f0f2faf8d7a0d14c09","651c1c05a4af61b043313426","null","null","<p style=""font-size: 60px; font-family: BACS"">EdBbYKPB</p>","","","","","","","","",""
"html-keyboard-response","135","284889","0.0-10.0-0.46","60f88d7fef1959734061e5a7","650c16f0f2faf8d7a0d14c09","651c1c05a4af61b043313426","null","null","<p style=""font-size: 60px; font-family: BACS"">lhCTChEct</p>","","","","","","","","",""
"html-keyboard-response","136","285898","0.0-10.0-0.47","60f88d7fef1959734061e5a7","650c16f0f2faf8d7a0d14c09","651c1c05a4af61b043313426","null","null","<p style=""font-size: 60px; font-family: BACS"">UYZlZQGb</p>","","","","","","","","",""
"html-keyboard-response","137","286900","0.0-10.0-0.48","60f88d7fef1959734061e5a7","650c16f0f2faf8d7a0d14c09","651c1c05a4af61b043313426","null","null","<p style=""font-size: 60px; font-family: BACS"">DMRPKlkD</p>","","","","","","","","",""
"html-keyboard-response","138","287909","0.0-10.0-0.49","60f88d7fef1959734061e5a7","650c16f0f2faf8d7a0d14c09","651c1c05a4af61b043313426","null","null","<p style=""font-size: 60px; font-family: BACS"">kbmZOcbm</p>","","","","","","","","",""
"html-keyboard-response","139","288914","0.0-10.0-0.50","60f88d7fef1959734061e5a7","650c16f0f2faf8d7a0d14c09","651c1c05a4af61b043313426","null","null","<p style=""font-size: 60px; font-family: BACS"">NaAQdJQA</p>","","","","","","","","",""
"html-keyboard-response","140","289919","0.0-10.0-0.51","60f88d7fef1959734061e5a7","650c16f0f2faf8d7a0d14c09","651c1c05a4af61b043313426","null","null","<p style=""font-size: 60px; font-family: BACS"">DMRPdEPD</p>","","","","","","","","",""
"html-keyboard-response","141","290923","0.0-10.0-0.52","60f88d7fef1959734061e5a7","650c16f0f2faf8d7a0d14c09","651c1c05a4af61b043313426","null","null","<p style=""font-size: 60px; font-family: BACS"">dMYBPBbM</p>","","","","","","","","",""
"html-keyboard-response","142","291939","0.0-10.0-0.53","60f88d7fef1959734061e5a7","650c16f0f2faf8d7a0d14c09","651c1c05a4af61b043313426","null","null","<p style=""font-size: 60px; font-family: BACS"">UYZlZcbm</p>","","","","","","","","",""
"html-keyboard-response","143","292942","0.0-10.0-0.54","60f88d7fef1959734061e5a7","650c16f0f2faf8d7a0d14c09","651c1c05a4af61b043313426","null","null","<p style=""font-size: 60px; font-family: BACS"">lhCTCdEPD</p>","","","","","","","","",""
"html-keyboard-response","144","293949","0.0-10.0-0.55","60f88d7fef1959734061e5a7","650c16f0f2faf8d7a0d14c09","651c1c05a4af61b043313426","null","null","<p style=""font-size: 60px; font-family: BACS"">dMThkBbM</p>","","","","","","","","",""
"html-keyboard-response","145","294962","0.0-10.0-0.56","60f88d7fef1959734061e5a7","650c16f0f2faf8d7a0d14c09","651c1c05a4af61b043313426","null","null","<p style=""font-size: 60px; font-family: BACS"">UYZlZrNlZ</p>","","","","","","","","",""
"html-keyboard-response","146","295965","0.0-10.0-0.57","60f88d7fef1959734061e5a7","650c16f0f2faf8d7a0d14c09","651c1c05a4af61b043313426","null","null","<p style=""font-size: 60px; font-family: BACS"">dMThkhEct</p>","","","","","","","","",""
"html-keyboard-response","147","296981","0.0-10.0-0.58","60f88d7fef1959734061e5a7","650c16f0f2faf8d7a0d14c09","651c1c05a4af61b043313426","null","null","<p style=""font-size: 60px; font-family: BACS"">ukcYQGb</p>","","","","","","","","",""
"html-keyboard-response","148","297996","0.0-10.0-0.59","60f88d7fef1959734061e5a7","650c16f0f2faf8d7a0d14c09","651c1c05a4af61b043313426","null","null","<p style=""font-size: 60px; font-family: BACS"">AdDbdEPD</p>","","","","","","","","",""
"html-keyboard-response","149","298999","0.0-10.0-0.60","60f88d7fef1959734061e5a7","650c16f0f2faf8d7a0d14c09","651c1c05a4af61b043313426","null","null","<p style=""font-size: 60px; font-family: BACS"">UJkGQGb</p>","","","","","","","","",""
"html-keyboard-response","150","300004","0.0-10.0-0.61","60f88d7fef1959734061e5a7","650c16f0f2faf8d7a0d14c09","651c1c05a4af61b043313426","null","null","<p style=""font-size: 60px; font-family: BACS"">aYaNaQr</p>","","","","","","","","",""
"html-keyboard-response","151","301019","0.0-10.0-0.62","60f88d7fef1959734061e5a7","650c16f0f2faf8d7a0d14c09","651c1c05a4af61b043313426","null","null","<p style=""font-size: 60px; font-family: BACS"">NaAQdcbm</p>","","","","","","","","",""
"html-keyboard-response","152","302021","0.0-10.0-0.63","60f88d7fef1959734061e5a7","650c16f0f2faf8d7a0d14c09","651c1c05a4af61b043313426","null","null","<p style=""font-size: 60px; font-family: BACS"">aYaNJQA</p>","","","","","","","","",""
"html-keyboard-response","153","303026","0.0-10.0-0.64","60f88d7fef1959734061e5a7","650c16f0f2faf8d7a0d14c09","651c1c05a4af61b043313426","null","null","<p style=""font-size: 60px; font-family: BACS"">kCRmBbM</p>","","","","","","","","",""
"html-keyboard-response","154","304031","0.0-10.0-0.65","60f88d7fef1959734061e5a7","650c16f0f2faf8d7a0d14c09","651c1c05a4af61b043313426","null","null","<p style=""font-size: 60px; font-family: BACS"">kGlUcbm</p>","","","","","","","","",""
"html-keyboard-response","155","305035","0.0-10.0-0.66","60f88d7fef1959734061e5a7","650c16f0f2faf8d7a0d14c09","651c1c05a4af61b043313426","null","null","<p style=""font-size: 60px; font-family: BACS"">UJkGrNlZ</p>","","","","","","","","",""
"html-keyboard-response","156","306050","0.0-10.0-0.67","60f88d7fef1959734061e5a7","650c16f0f2faf8d7a0d14c09","651c1c05a4af61b043313426","null","null","<p style=""font-size: 60px; font-family: BACS"">kbmZOaQr</p>","","","","","","","","",""
"html-keyboard-response","157","307064","0.0-10.0-0.68","60f88d7fef1959734061e5a7","650c16f0f2faf8d7a0d14c09","651c1c05a4af61b043313426","null","null","<p style=""font-size: 60px; font-family: BACS"">dMYBPdEPD</p>","","","","","","","","",""
"html-keyboard-response","158","308066","0.0-10.0-0.69","60f88d7fef1959734061e5a7","650c16f0f2faf8d7a0d14c09","651c1c05a4af61b043313426","null","null","<p style=""font-size: 60px; font-family: BACS"">BMEMAYKPB</p>","","","","","","","","",""
"html-keyboard-response","159","309076","0.0-10.0-0.70","60f88d7fef1959734061e5a7","650c16f0f2faf8d7a0d14c09","651c1c05a4af61b043313426","null","null","<p style=""font-size: 60px; font-family: BACS"">EPMDkdEPD</p>","","","","","","","","",""
"html-keyboard-response","160","310079","0.0-10.0-0.71","60f88d7fef1959734061e5a7","650c16f0f2faf8d7a0d14c09","651c1c05a4af61b043313426","null","null","<p style=""font-size: 60px; font-family: BACS"">BMEMABbM</p>","","","","","","","","",""
"html-keyboard-response","161","311081","0.0-10.0-0.72","60f88d7fef1959734061e5a7","650c16f0f2faf8d7a0d14c09","651c1c05a4af61b043313426","null","null","<p style=""font-size: 60px; font-family: BACS"">AdDbYKPB</p>","","","","","","","","",""
"html-keyboard-response","162","312091","0.0-10.0-0.73","60f88d7fef1959734061e5a7","650c16f0f2faf8d7a0d14c09","651c1c05a4af61b043313426","null","null","<p style=""font-size: 60px; font-family: BACS"">AlNUcbm</p>","","","","","","","","",""
"html-keyboard-response","163","313098","0.0-10.0-0.74","60f88d7fef1959734061e5a7","650c16f0f2faf8d7a0d14c09","651c1c05a4af61b043313426","null","null","<p style=""font-size: 60px; font-family: BACS"">PEkhAYKPB</p>","","","","","","","","",""
"html-keyboard-response","164","314104","0.0-10.0-0.75","60f88d7fef1959734061e5a7","650c16f0f2faf8d7a0d14c09","651c1c05a4af61b043313426","null","null","<p style=""font-size: 60px; font-family: BACS"">JvaAJQA</p>","","","","","","","","",""
"html-keyboard-response","165","315108","0.0-10.0-0.76","60f88d7fef1959734061e5a7","650c16f0f2faf8d7a0d14c09","651c1c05a4af61b043313426","null","null","<p style=""font-size: 60px; font-family: BACS"">ukcYrNlZ</p>","","","","","","","","",""
"html-keyboard-response","166","316114","0.0-10.0-0.77","60f88d7fef1959734061e5a7","650c16f0f2faf8d7a0d14c09","651c1c05a4af61b043313426","null","null","<p style=""font-size: 60px; font-family: BACS"">UYZlZaQr</p>","","","","","","","","",""
"html-keyboard-response","167","317115","0.0-10.0-0.78","60f88d7fef1959734061e5a7","650c16f0f2faf8d7a0d14c09","651c1c05a4af61b043313426","null","null","<p style=""font-size: 60px; font-family: BACS"">NaAQdQGb</p>","","","","","","","","",""
"html-keyboard-response","168","318121","0.0-10.0-0.79","60f88d7fef1959734061e5a7","650c16f0f2faf8d7a0d14c09","651c1c05a4af61b043313426","null","null","<p style=""font-size: 60px; font-family: BACS"">AdDbBbM</p>","","","","","","","","",""
"html-keyboard-response","169","341237","0.0-11.0","60f88d7fef1959734061e5a7","650c16f0f2faf8d7a0d14c09","651c1c05a4af61b043313426","23115"," ","<p>Great, you've seen the second block of words. You may now take a short break.</p>
      <p>Press the spacebar when you're ready to continue.</p>","","","","","","","","",""
"html-keyboard-response","170","342246","0.0-12.0-0.0","60f88d7fef1959734061e5a7","650c16f0f2faf8d7a0d14c09","651c1c05a4af61b043313426","null","null","<p style=""font-size: 60px; font-family: BACS"">ukcYJQA</p>","","","","","","","","",""
"html-keyboard-response","171","343249","0.0-12.0-0.1","60f88d7fef1959734061e5a7","650c16f0f2faf8d7a0d14c09","651c1c05a4af61b043313426","null","null","<p style=""font-size: 60px; font-family: BACS"">DMRPBbM</p>","","","","","","","","",""
"html-keyboard-response","172","344252","0.0-12.0-0.2","60f88d7fef1959734061e5a7","650c16f0f2faf8d7a0d14c09","651c1c05a4af61b043313426","null","null","<p style=""font-size: 60px; font-family: BACS"">NaAQdJQA</p>","","","","","","","","",""
"html-keyboard-response","173","345262","0.0-12.0-0.3","60f88d7fef1959734061e5a7","650c16f0f2faf8d7a0d14c09","651c1c05a4af61b043313426","null","null","<p style=""font-size: 60px; font-family: BACS"">kbmZOQGb</p>","","","","","","","","",""
"html-keyboard-response","174","346278","0.0-12.0-0.4","60f88d7fef1959734061e5a7","650c16f0f2faf8d7a0d14c09","651c1c05a4af61b043313426","null","null","<p style=""font-size: 60px; font-family: BACS"">EPMDkdEPD</p>","","","","","","","","",""
"html-keyboard-response","175","347291","0.0-12.0-0.5","60f88d7fef1959734061e5a7","650c16f0f2faf8d7a0d14c09","651c1c05a4af61b043313426","null","null","<p style=""font-size: 60px; font-family: BACS"">PEkhAKlkD</p>","","","","","","","","",""
"html-keyboard-response","176","348299","0.0-12.0-0.6","60f88d7fef1959734061e5a7","650c16f0f2faf8d7a0d14c09","651c1c05a4af61b043313426","null","null","<p style=""font-size: 60px; font-family: BACS"">JvaArNlZ</p>","","","","","","","","",""
"html-keyboard-response","177","349304","0.0-12.0-0.7","60f88d7fef1959734061e5a7","650c16f0f2faf8d7a0d14c09","651c1c05a4af61b043313426","null","null","<p style=""font-size: 60px; font-family: BACS"">UYZlZQGb</p>","","","","","","","","",""
"html-keyboard-response","178","350310","0.0-12.0-0.8","60f88d7fef1959734061e5a7","650c16f0f2faf8d7a0d14c09","651c1c05a4af61b043313426","null","null","<p style=""font-size: 60px; font-family: BACS"">EdBbKlkD</p>","","","","","","","","",""
"html-keyboard-response","179","351317","0.0-12.0-0.9","60f88d7fef1959734061e5a7","650c16f0f2faf8d7a0d14c09","651c1c05a4af61b043313426","null","null","<p style=""font-size: 60px; font-family: BACS"">PEkhAYKPB</p>","","","","","","","","",""
"html-keyboard-response","180","352326","0.0-12.0-0.10","60f88d7fef1959734061e5a7","650c16f0f2faf8d7a0d14c09","651c1c05a4af61b043313426","null","null","<p style=""font-size: 60px; font-family: BACS"">NaAQdQGb</p>","","","","","","","","",""
"html-keyboard-response","181","353339","0.0-12.0-0.11","60f88d7fef1959734061e5a7","650c16f0f2faf8d7a0d14c09","651c1c05a4af61b043313426","null","null","<p style=""font-size: 60px; font-family: BACS"">kGlUaQr</p>","","","","","","","","",""
"html-keyboard-response","182","354340","0.0-12.0-0.12","60f88d7fef1959734061e5a7","650c16f0f2faf8d7a0d14c09","651c1c05a4af61b043313426","null","null","<p style=""font-size: 60px; font-family: BACS"">DMRPKlkD</p>","","","","","","","","",""
"html-keyboard-response","183","355347","0.0-12.0-0.13","60f88d7fef1959734061e5a7","650c16f0f2faf8d7a0d14c09","651c1c05a4af61b043313426","null","null","<p style=""font-size: 60px; font-family: BACS"">dMThkdEPD</p>","","","","","","","","",""
"html-keyboard-response","184","356360","0.0-12.0-0.14","60f88d7fef1959734061e5a7","650c16f0f2faf8d7a0d14c09","651c1c05a4af61b043313426","null","null","<p style=""font-size: 60px; font-family: BACS"">ukcYaQr</p>","","","","","","","","",""
"html-keyboard-response","185","357362","0.0-12.0-0.15","60f88d7fef1959734061e5a7","650c16f0f2faf8d7a0d14c09","651c1c05a4af61b043313426","null","null","<p style=""font-size: 60px; font-family: BACS"">kGlUcbm</p>","","","","","","","","",""
"html-keyboard-response","186","358371","0.0-12.0-0.16","60f88d7fef1959734061e5a7","650c16f0f2faf8d7a0d14c09","651c1c05a4af61b043313426","null","null","<p style=""font-size: 60px; font-family: BACS"">rkJuaQr</p>","","","","","","","","",""
"html-keyboard-response","187","359379","0.0-12.0-0.17","60f88d7fef1959734061e5a7","650c16f0f2faf8d7a0d14c09","651c1c05a4af61b043313426","null","null","<p style=""font-size: 60px; font-family: BACS"">BMEMABbM</p>","","","","","","","","",""
"html-keyboard-response","188","360395","0.0-12.0-0.18","60f88d7fef1959734061e5a7","650c16f0f2faf8d7a0d14c09","651c1c05a4af61b043313426","null","null","<p style=""font-size: 60px; font-family: BACS"">AdDbYKPB</p>","","","","","","","","",""
"html-keyboard-response","189","361411","0.0-12.0-0.19","60f88d7fef1959734061e5a7","650c16f0f2faf8d7a0d14c09","651c1c05a4af61b043313426","null","null","<p style=""font-size: 60px; font-family: BACS"">NaAQdrNlZ</p>","","","","","","","","",""
"html-keyboard-response","190","362417","0.0-12.0-0.20","60f88d7fef1959734061e5a7","650c16f0f2faf8d7a0d14c09","651c1c05a4af61b043313426","null","null","<p style=""font-size: 60px; font-family: BACS"">kGlUQGb</p>","","","","","","","","",""
"html-keyboard-response","191","363430","0.0-12.0-0.21","60f88d7fef1959734061e5a7","650c16f0f2faf8d7a0d14c09","651c1c05a4af61b043313426","null","null","<p style=""font-size: 60px; font-family: BACS"">EdBbhEct</p>","","","","","","","","",""
"html-keyboard-response","192","364433","0.0-12.0-0.22","60f88d7fef1959734061e5a7","650c16f0f2faf8d7a0d14c09","651c1c05a4af61b043313426","null","null","<p style=""font-size: 60px; font-family: BACS"">UJkGrNlZ</p>","","","","","","","","",""
"html-keyboard-response","193","365442","0.0-12.0-0.23","60f88d7fef1959734061e5a7","650c16f0f2faf8d7a0d14c09","651c1c05a4af61b043313426","null","null","<p style=""font-size: 60px; font-family: BACS"">rkJucbm</p>","","","","","","","","",""
"html-keyboard-response","194","366458","0.0-12.0-0.24","60f88d7fef1959734061e5a7","650c16f0f2faf8d7a0d14c09","651c1c05a4af61b043313426","null","null","<p style=""font-size: 60px; font-family: BACS"">PEkhABbM</p>","","","","","","","","",""
"html-keyboard-response","195","367461","0.0-12.0-0.25","60f88d7fef1959734061e5a7","650c16f0f2faf8d7a0d14c09","651c1c05a4af61b043313426","null","null","<p style=""font-size: 60px; font-family: BACS"">ukcYrNlZ</p>","","","","","","","","",""
"html-keyboard-response","196","368476","0.0-12.0-0.26","60f88d7fef1959734061e5a7","650c16f0f2faf8d7a0d14c09","651c1c05a4af61b043313426","null","null","<p style=""font-size: 60px; font-family: BACS"">lhCTCYKPB</p>","","","","","","","","",""
"html-keyboard-response","197","369482","0.0-12.0-0.27","60f88d7fef1959734061e5a7","650c16f0f2faf8d7a0d14c09","651c1c05a4af61b043313426","null","null","<p style=""font-size: 60px; font-family: BACS"">JvaAQGb</p>","","","","","","","","",""
"html-keyboard-response","198","370486","0.0-12.0-0.28","60f88d7fef1959734061e5a7","650c16f0f2faf8d7a0d14c09","651c1c05a4af61b043313426","null","null","<p style=""font-size: 60px; font-family: BACS"">BMEMAKlkD</p>","","","","","","","","",""
"html-keyboard-response","199","371489","0.0-12.0-0.29","60f88d7fef1959734061e5a7","650c16f0f2faf8d7a0d14c09","651c1c05a4af61b043313426","null","null","<p style=""font-size: 60px; font-family: BACS"">dMYBPBbM</p>","","","","","","","","",""
"html-keyboard-response","200","372496","0.0-12.0-0.30","60f88d7fef1959734061e5a7","650c16f0f2faf8d7a0d14c09","651c1c05a4af61b043313426","null","null","<p style=""font-size: 60px; font-family: BACS"">kbmZOaQr</p>","","","","","","","","",""
"html-keyboard-response","201","373500","0.0-12.0-0.31","60f88d7fef1959734061e5a7","650c16f0f2faf8d7a0d14c09","651c1c05a4af61b043313426","null","null","<p style=""font-size: 60px; font-family: BACS"">dMYBPdEPD</p>","","","","","","","","",""
"html-keyboard-response","202","374505","0.0-12.0-0.32","60f88d7fef1959734061e5a7","650c16f0f2faf8d7a0d14c09","651c1c05a4af61b043313426","null","null","<p style=""font-size: 60px; font-family: BACS"">UJkGQGb</p>","","","","","","","","",""
"html-keyboard-response","203","375508","0.0-12.0-0.33","60f88d7fef1959734061e5a7","650c16f0f2faf8d7a0d14c09","651c1c05a4af61b043313426","null","null","<p style=""font-size: 60px; font-family: BACS"">BMEMAYKPB</p>","","","","","","","","",""
"html-keyboard-response","204","376513","0.0-12.0-0.34","60f88d7fef1959734061e5a7","650c16f0f2faf8d7a0d14c09","651c1c05a4af61b043313426","null","null","<p style=""font-size: 60px; font-family: BACS"">NaAQdcbm</p>","","","","","","","","",""
"html-keyboard-response","205","377523","0.0-12.0-0.35","60f88d7fef1959734061e5a7","650c16f0f2faf8d7a0d14c09","651c1c05a4af61b043313426","null","null","<p style=""font-size: 60px; font-family: BACS"">PEkhAhEct</p>","","","","","","","","",""
"html-keyboard-response","206","378528","0.0-12.0-0.36","60f88d7fef1959734061e5a7","650c16f0f2faf8d7a0d14c09","651c1c05a4af61b043313426","null","null","<p style=""font-size: 60px; font-family: BACS"">EPMDkBbM</p>","","","","","","","","",""
"html-keyboard-response","207","379542","0.0-12.0-0.37","60f88d7fef1959734061e5a7","650c16f0f2faf8d7a0d14c09","651c1c05a4af61b043313426","null","null","<p style=""font-size: 60px; font-family: BACS"">lhCTCKlkD</p>","","","","","","","","",""
"html-keyboard-response","208","380547","0.0-12.0-0.38","60f88d7fef1959734061e5a7","650c16f0f2faf8d7a0d14c09","651c1c05a4af61b043313426","null","null","<p style=""font-size: 60px; font-family: BACS"">EPMDkhEct</p>","","","","","","","","",""
"html-keyboard-response","209","381553","0.0-12.0-0.39","60f88d7fef1959734061e5a7","650c16f0f2faf8d7a0d14c09","651c1c05a4af61b043313426","null","null","<p style=""font-size: 60px; font-family: BACS"">UYZlZcbm</p>","","","","","","","","",""
"html-keyboard-response","210","382566","0.0-12.0-0.40","60f88d7fef1959734061e5a7","650c16f0f2faf8d7a0d14c09","651c1c05a4af61b043313426","null","null","<p style=""font-size: 60px; font-family: BACS"">EdBbdEPD</p>","","","","","","","","",""
"html-keyboard-response","211","383573","0.0-12.0-0.41","60f88d7fef1959734061e5a7","650c16f0f2faf8d7a0d14c09","651c1c05a4af61b043313426","null","null","<p style=""font-size: 60px; font-family: BACS"">AlNUQGb</p>","","","","","","","","",""
"html-keyboard-response","212","384589","0.0-12.0-0.42","60f88d7fef1959734061e5a7","650c16f0f2faf8d7a0d14c09","651c1c05a4af61b043313426","null","null","<p style=""font-size: 60px; font-family: BACS"">UYZlZrNlZ</p>","","","","","","","","",""
"html-keyboard-response","213","385599","0.0-12.0-0.43","60f88d7fef1959734061e5a7","650c16f0f2faf8d7a0d14c09","651c1c05a4af61b043313426","null","null","<p style=""font-size: 60px; font-family: BACS"">UJkGcbm</p>","","","","","","","","",""
"html-keyboard-response","214","386614","0.0-12.0-0.44","60f88d7fef1959734061e5a7","650c16f0f2faf8d7a0d14c09","651c1c05a4af61b043313426","null","null","<p style=""font-size: 60px; font-family: BACS"">kCRmdEPD</p>","","","","","","","","",""
"html-keyboard-response","215","387627","0.0-12.0-0.45","60f88d7fef1959734061e5a7","650c16f0f2faf8d7a0d14c09","651c1c05a4af61b043313426","null","null","<p style=""font-size: 60px; font-family: BACS"">dMThkBbM</p>","","","","","","","","",""
"html-keyboard-response","216","388643","0.0-12.0-0.46","60f88d7fef1959734061e5a7","650c16f0f2faf8d7a0d14c09","651c1c05a4af61b043313426","null","null","<p style=""font-size: 60px; font-family: BACS"">AlNUaQr</p>","","","","","","","","",""
"html-keyboard-response","217","389650","0.0-12.0-0.47","60f88d7fef1959734061e5a7","650c16f0f2faf8d7a0d14c09","651c1c05a4af61b043313426","null","null","<p style=""font-size: 60px; font-family: BACS"">rkJuJQA</p>","","","","","","","","",""
"html-keyboard-response","218","390664","0.0-12.0-0.48","60f88d7fef1959734061e5a7","650c16f0f2faf8d7a0d14c09","651c1c05a4af61b043313426","null","null","<p style=""font-size: 60px; font-family: BACS"">UYZlZaQr</p>","","","","","","","","",""
"html-keyboard-response","219","391672","0.0-12.0-0.49","60f88d7fef1959734061e5a7","650c16f0f2faf8d7a0d14c09","651c1c05a4af61b043313426","null","null","<p style=""font-size: 60px; font-family: BACS"">EdBbYKPB</p>","","","","","","","","",""
"html-keyboard-response","220","392680","0.0-12.0-0.50","60f88d7fef1959734061e5a7","650c16f0f2faf8d7a0d14c09","651c1c05a4af61b043313426","null","null","<p style=""font-size: 60px; font-family: BACS"">aYaNcbm</p>","","","","","","","","",""
"html-keyboard-response","221","393697","0.0-12.0-0.51","60f88d7fef1959734061e5a7","650c16f0f2faf8d7a0d14c09","651c1c05a4af61b043313426","null","null","<p style=""font-size: 60px; font-family: BACS"">kGlUJQA</p>","","","","","","","","",""
"html-keyboard-response","222","394699","0.0-12.0-0.52","60f88d7fef1959734061e5a7","650c16f0f2faf8d7a0d14c09","651c1c05a4af61b043313426","null","null","<p style=""font-size: 60px; font-family: BACS"">kCRmhEct</p>","","","","","","","","",""
"html-keyboard-response","223","395707","0.0-12.0-0.53","60f88d7fef1959734061e5a7","650c16f0f2faf8d7a0d14c09","651c1c05a4af61b043313426","null","null","<p style=""font-size: 60px; font-family: BACS"">UJkGJQA</p>","","","","","","","","",""
"html-keyboard-response","224","396712","0.0-12.0-0.54","60f88d7fef1959734061e5a7","650c16f0f2faf8d7a0d14c09","651c1c05a4af61b043313426","null","null","<p style=""font-size: 60px; font-family: BACS"">AlNUrNlZ</p>","","","","","","","","",""
"html-keyboard-response","225","397727","0.0-12.0-0.55","60f88d7fef1959734061e5a7","650c16f0f2faf8d7a0d14c09","651c1c05a4af61b043313426","null","null","<p style=""font-size: 60px; font-family: BACS"">BMEMAhEct</p>","","","","","","","","",""
"html-keyboard-response","226","398741","0.0-12.0-0.56","60f88d7fef1959734061e5a7","650c16f0f2faf8d7a0d14c09","651c1c05a4af61b043313426","null","null","<p style=""font-size: 60px; font-family: BACS"">kbmZOJQA</p>","","","","","","","","",""
"html-keyboard-response","227","399753","0.0-12.0-0.57","60f88d7fef1959734061e5a7","650c16f0f2faf8d7a0d14c09","651c1c05a4af61b043313426","null","null","<p style=""font-size: 60px; font-family: BACS"">EPMDkYKPB</p>","","","","","","","","",""
"html-keyboard-response","228","400756","0.0-12.0-0.58","60f88d7fef1959734061e5a7","650c16f0f2faf8d7a0d14c09","651c1c05a4af61b043313426","null","null","<p style=""font-size: 60px; font-family: BACS"">lhCTChEct</p>","","","","","","","","",""
"html-keyboard-response","229","401771","0.0-12.0-0.59","60f88d7fef1959734061e5a7","650c16f0f2faf8d7a0d14c09","651c1c05a4af61b043313426","null","null","<p style=""font-size: 60px; font-family: BACS"">kCRmKlkD</p>","","","","","","","","",""
"html-keyboard-response","230","402776","0.0-12.0-0.60","60f88d7fef1959734061e5a7","650c16f0f2faf8d7a0d14c09","651c1c05a4af61b043313426","null","null","<p style=""font-size: 60px; font-family: BACS"">lhCTCdEPD</p>","","","","","","","","",""
"html-keyboard-response","231","403791","0.0-12.0-0.61","60f88d7fef1959734061e5a7","650c16f0f2faf8d7a0d14c09","651c1c05a4af61b043313426","null","null","<p style=""font-size: 60px; font-family: BACS"">aYaNaQr</p>","","","","","","","","",""
"html-keyboard-response","232","404797","0.0-12.0-0.62","60f88d7fef1959734061e5a7","650c16f0f2faf8d7a0d14c09","651c1c05a4af61b043313426","null","null","<p style=""font-size: 60px; font-family: BACS"">DMRPhEct</p>","","","","","","","","",""
"html-keyboard-response","233","405809","0.0-12.0-0.63","60f88d7fef1959734061e5a7","650c16f0f2faf8d7a0d14c09","651c1c05a4af61b043313426","null","null","<p style=""font-size: 60px; font-family: BACS"">dMYBPKlkD</p>","","","","","","","","",""
"html-keyboard-response","234","406818","0.0-12.0-0.64","60f88d7fef1959734061e5a7","650c16f0f2faf8d7a0d14c09","651c1c05a4af61b043313426","null","null","<p style=""font-size: 60px; font-family: BACS"">AlNUcbm</p>","","","","","","","","",""
"html-keyboard-response","235","407825","0.0-12.0-0.65","60f88d7fef1959734061e5a7","650c16f0f2faf8d7a0d14c09","651c1c05a4af61b043313426","null","null","<p style=""font-size: 60px; font-family: BACS"">AdDbKlkD</p>","","","","","","","","",""
"html-keyboard-response","236","408831","0.0-12.0-0.66","60f88d7fef1959734061e5a7","650c16f0f2faf8d7a0d14c09","651c1c05a4af61b043313426","null","null","<p style=""font-size: 60px; font-family: BACS"">kbmZOcbm</p>","","","","","","","","",""
"html-keyboard-response","237","409841","0.0-12.0-0.67","60f88d7fef1959734061e5a7","650c16f0f2faf8d7a0d14c09","651c1c05a4af61b043313426","null","null","<p style=""font-size: 60px; font-family: BACS"">dMThkYKPB</p>","","","","","","","","",""
"html-keyboard-response","238","410848","0.0-12.0-0.68","60f88d7fef1959734061e5a7","650c16f0f2faf8d7a0d14c09","651c1c05a4af61b043313426","null","null","<p style=""font-size: 60px; font-family: BACS"">rkJurNlZ</p>","","","","","","","","",""
"html-keyboard-response","239","411850","0.0-12.0-0.69","60f88d7fef1959734061e5a7","650c16f0f2faf8d7a0d14c09","651c1c05a4af61b043313426","null","null","<p style=""font-size: 60px; font-family: BACS"">kCRmBbM</p>","","","","","","","","",""
"html-keyboard-response","240","412858","0.0-12.0-0.70","60f88d7fef1959734061e5a7","650c16f0f2faf8d7a0d14c09","651c1c05a4af61b043313426","null","null","<p style=""font-size: 60px; font-family: BACS"">AdDbdEPD</p>","","","","","","","","",""
"html-keyboard-response","241","413870","0.0-12.0-0.71","60f88d7fef1959734061e5a7","650c16f0f2faf8d7a0d14c09","651c1c05a4af61b043313426","null","null","<p style=""font-size: 60px; font-family: BACS"">aYaNJQA</p>","","","","","","","","",""
"html-keyboard-response","242","414877","0.0-12.0-0.72","60f88d7fef1959734061e5a7","650c16f0f2faf8d7a0d14c09","651c1c05a4af61b043313426","null","null","<p style=""font-size: 60px; font-family: BACS"">JvaAaQr</p>","","","","","","","","",""
"html-keyboard-response","243","415881","0.0-12.0-0.73","60f88d7fef1959734061e5a7","650c16f0f2faf8d7a0d14c09","651c1c05a4af61b043313426","null","null","<p style=""font-size: 60px; font-family: BACS"">DMRPdEPD</p>","","","","","","","","",""
"html-keyboard-response","244","416894","0.0-12.0-0.74","60f88d7fef1959734061e5a7","650c16f0f2faf8d7a0d14c09","651c1c05a4af61b043313426","null","null","<p style=""font-size: 60px; font-family: BACS"">JvaAJQA</p>","","","","","","","","",""
"html-keyboard-response","245","417898","0.0-12.0-0.75","60f88d7fef1959734061e5a7","650c16f0f2faf8d7a0d14c09","651c1c05a4af61b043313426","null","null","<p style=""font-size: 60px; font-family: BACS"">AdDbBbM</p>","","","","","","","","",""
"html-keyboard-response","246","418908","0.0-12.0-0.76","60f88d7fef1959734061e5a7","650c16f0f2faf8d7a0d14c09","651c1c05a4af61b043313426","null","null","<p style=""font-size: 60px; font-family: BACS"">ukcYQGb</p>","","","","","","","","",""
"html-keyboard-response","247","419913","0.0-12.0-0.77","60f88d7fef1959734061e5a7","650c16f0f2faf8d7a0d14c09","651c1c05a4af61b043313426","null","null","<p style=""font-size: 60px; font-family: BACS"">dMThkhEct</p>","","","","","","","","",""
"html-keyboard-response","248","420928","0.0-12.0-0.78","60f88d7fef1959734061e5a7","650c16f0f2faf8d7a0d14c09","651c1c05a4af61b043313426","null","null","<p style=""font-size: 60px; font-family: BACS"">aYaNrNlZ</p>","","","","","","","","",""
"html-keyboard-response","249","421934","0.0-12.0-0.79","60f88d7fef1959734061e5a7","650c16f0f2faf8d7a0d14c09","651c1c05a4af61b043313426","null","null","<p style=""font-size: 60px; font-family: BACS"">dMYBPYKPB</p>","","","","","","","","",""
"html-keyboard-response","250","431083","0.0-13.0","60f88d7fef1959734061e5a7","650c16f0f2faf8d7a0d14c09","651c1c05a4af61b043313426","9149"," ","<p>Great, you've seen the third block of words. You may now take a short break.</p>
      <p>Press the spacebar when you're ready to continue.</p>","","","","","","","","",""
"html-keyboard-response","251","432084","0.0-14.0-0.0","60f88d7fef1959734061e5a7","650c16f0f2faf8d7a0d14c09","651c1c05a4af61b043313426","null","null","<p style=""font-size: 60px; font-family: BACS"">NaAQdcbm</p>","","","","","","","","",""
"html-keyboard-response","252","433087","0.0-14.0-0.1","60f88d7fef1959734061e5a7","650c16f0f2faf8d7a0d14c09","651c1c05a4af61b043313426","null","null","<p style=""font-size: 60px; font-family: BACS"">kCRmBbM</p>","","","","","","","","",""
"html-keyboard-response","253","434098","0.0-14.0-0.2","60f88d7fef1959734061e5a7","650c16f0f2faf8d7a0d14c09","651c1c05a4af61b043313426","null","null","<p style=""font-size: 60px; font-family: BACS"">UYZlZaQr</p>","","","","","","","","",""
"html-keyboard-response","254","435105","0.0-14.0-0.3","60f88d7fef1959734061e5a7","650c16f0f2faf8d7a0d14c09","651c1c05a4af61b043313426","null","null","<p style=""font-size: 60px; font-family: BACS"">DMRPdEPD</p>","","","","","","","","",""
"html-keyboard-response","255","436113","0.0-14.0-0.4","60f88d7fef1959734061e5a7","650c16f0f2faf8d7a0d14c09","651c1c05a4af61b043313426","null","null","<p style=""font-size: 60px; font-family: BACS"">AlNUrNlZ</p>","","","","","","","","",""
"html-keyboard-response","256","437120","0.0-14.0-0.5","60f88d7fef1959734061e5a7","650c16f0f2faf8d7a0d14c09","651c1c05a4af61b043313426","null","null","<p style=""font-size: 60px; font-family: BACS"">AdDbBbM</p>","","","","","","","","",""
"html-keyboard-response","257","438123","0.0-14.0-0.6","60f88d7fef1959734061e5a7","650c16f0f2faf8d7a0d14c09","651c1c05a4af61b043313426","null","null","<p style=""font-size: 60px; font-family: BACS"">dMThkdEPD</p>","","","","","","","","",""
"html-keyboard-response","258","439137","0.0-14.0-0.7","60f88d7fef1959734061e5a7","650c16f0f2faf8d7a0d14c09","651c1c05a4af61b043313426","null","null","<p style=""font-size: 60px; font-family: BACS"">AlNUQGb</p>","","","","","","","","",""
"html-keyboard-response","259","440151","0.0-14.0-0.8","60f88d7fef1959734061e5a7","650c16f0f2faf8d7a0d14c09","651c1c05a4af61b043313426","null","null","<p style=""font-size: 60px; font-family: BACS"">kbmZOaQr</p>","","","","","","","","",""
"html-keyboard-response","260","441164","0.0-14.0-0.9","60f88d7fef1959734061e5a7","650c16f0f2faf8d7a0d14c09","651c1c05a4af61b043313426","null","null","<p style=""font-size: 60px; font-family: BACS"">BMEMAYKPB</p>","","","","","","","","",""
"html-keyboard-response","261","442169","0.0-14.0-0.10","60f88d7fef1959734061e5a7","650c16f0f2faf8d7a0d14c09","651c1c05a4af61b043313426","null","null","<p style=""font-size: 60px; font-family: BACS"">UYZlZrNlZ</p>","","","","","","","","",""
"html-keyboard-response","262","443184","0.0-14.0-0.11","60f88d7fef1959734061e5a7","650c16f0f2faf8d7a0d14c09","651c1c05a4af61b043313426","null","null","<p style=""font-size: 60px; font-family: BACS"">lhCTChEct</p>","","","","","","","","",""
"html-keyboard-response","263","444197","0.0-14.0-0.12","60f88d7fef1959734061e5a7","650c16f0f2faf8d7a0d14c09","651c1c05a4af61b043313426","null","null","<p style=""font-size: 60px; font-family: BACS"">NaAQdQGb</p>","","","","","","","","",""
"html-keyboard-response","264","445203","0.0-14.0-0.13","60f88d7fef1959734061e5a7","650c16f0f2faf8d7a0d14c09","651c1c05a4af61b043313426","null","null","<p style=""font-size: 60px; font-family: BACS"">ukcYrNlZ</p>","","","","","","","","",""
"html-keyboard-response","265","446218","0.0-14.0-0.14","60f88d7fef1959734061e5a7","650c16f0f2faf8d7a0d14c09","651c1c05a4af61b043313426","null","null","<p style=""font-size: 60px; font-family: BACS"">EdBbYKPB</p>","","","","","","","","",""
"html-keyboard-response","266","447233","0.0-14.0-0.15","60f88d7fef1959734061e5a7","650c16f0f2faf8d7a0d14c09","651c1c05a4af61b043313426","null","null","<p style=""font-size: 60px; font-family: BACS"">AlNUaQr</p>","","","","","","","","",""
"html-keyboard-response","267","448248","0.0-14.0-0.16","60f88d7fef1959734061e5a7","650c16f0f2faf8d7a0d14c09","651c1c05a4af61b043313426","null","null","<p style=""font-size: 60px; font-family: BACS"">lhCTCdEPD</p>","","","","","","","","",""
"html-keyboard-response","268","449263","0.0-14.0-0.17","60f88d7fef1959734061e5a7","650c16f0f2faf8d7a0d14c09","651c1c05a4af61b043313426","null","null","<p style=""font-size: 60px; font-family: BACS"">AdDbKlkD</p>","","","","","","","","",""
"html-keyboard-response","269","450270","0.0-14.0-0.18","60f88d7fef1959734061e5a7","650c16f0f2faf8d7a0d14c09","651c1c05a4af61b043313426","null","null","<p style=""font-size: 60px; font-family: BACS"">dMThkBbM</p>","","","","","","","","",""
"html-keyboard-response","270","451275","0.0-14.0-0.19","60f88d7fef1959734061e5a7","650c16f0f2faf8d7a0d14c09","651c1c05a4af61b043313426","null","null","<p style=""font-size: 60px; font-family: BACS"">kCRmKlkD</p>","","","","","","","","",""
"html-keyboard-response","271","452281","0.0-14.0-0.20","60f88d7fef1959734061e5a7","650c16f0f2faf8d7a0d14c09","651c1c05a4af61b043313426","null","null","<p style=""font-size: 60px; font-family: BACS"">aYaNaQr</p>","","","","","","","","",""
"html-keyboard-response","272","453288","0.0-14.0-0.21","60f88d7fef1959734061e5a7","650c16f0f2faf8d7a0d14c09","651c1c05a4af61b043313426","null","null","<p style=""font-size: 60px; font-family: BACS"">DMRPhEct</p>","","","","","","","","",""
"html-keyboard-response","273","454294","0.0-14.0-0.22","60f88d7fef1959734061e5a7","650c16f0f2faf8d7a0d14c09","651c1c05a4af61b043313426","null","null","<p style=""font-size: 60px; font-family: BACS"">PEkhAKlkD</p>","","","","","","","","",""
"html-keyboard-response","274","455309","0.0-14.0-0.23","60f88d7fef1959734061e5a7","650c16f0f2faf8d7a0d14c09","651c1c05a4af61b043313426","null","null","<p style=""font-size: 60px; font-family: BACS"">kbmZOcbm</p>","","","","","","","","",""
"html-keyboard-response","275","456315","0.0-14.0-0.24","60f88d7fef1959734061e5a7","650c16f0f2faf8d7a0d14c09","651c1c05a4af61b043313426","null","null","<p style=""font-size: 60px; font-family: BACS"">UJkGrNlZ</p>","","","","","","","","",""
"html-keyboard-response","276","457327","0.0-14.0-0.25","60f88d7fef1959734061e5a7","650c16f0f2faf8d7a0d14c09","651c1c05a4af61b043313426","null","null","<p style=""font-size: 60px; font-family: BACS"">EdBbdEPD</p>","","","","","","","","",""
"html-keyboard-response","277","458330","0.0-14.0-0.26","60f88d7fef1959734061e5a7","650c16f0f2faf8d7a0d14c09","651c1c05a4af61b043313426","null","null","<p style=""font-size: 60px; font-family: BACS"">aYaNcbm</p>","","","","","","","","",""
"html-keyboard-response","278","459341","0.0-14.0-0.27","60f88d7fef1959734061e5a7","650c16f0f2faf8d7a0d14c09","651c1c05a4af61b043313426","null","null","<p style=""font-size: 60px; font-family: BACS"">UJkGQGb</p>","","","","","","","","",""
"html-keyboard-response","279","460344","0.0-14.0-0.28","60f88d7fef1959734061e5a7","650c16f0f2faf8d7a0d14c09","651c1c05a4af61b043313426","null","null","<p style=""font-size: 60px; font-family: BACS"">AdDbYKPB</p>","","","","","","","","",""
"html-keyboard-response","280","461353","0.0-14.0-0.29","60f88d7fef1959734061e5a7","650c16f0f2faf8d7a0d14c09","651c1c05a4af61b043313426","null","null","<p style=""font-size: 60px; font-family: BACS"">EdBbhEct</p>","","","","","","","","",""
"html-keyboard-response","281","462356","0.0-14.0-0.30","60f88d7fef1959734061e5a7","650c16f0f2faf8d7a0d14c09","651c1c05a4af61b043313426","null","null","<p style=""font-size: 60px; font-family: BACS"">NaAQdrNlZ</p>","","","","","","","","",""
"html-keyboard-response","282","463359","0.0-14.0-0.31","60f88d7fef1959734061e5a7","650c16f0f2faf8d7a0d14c09","651c1c05a4af61b043313426","null","null","<p style=""font-size: 60px; font-family: BACS"">EPMDkhEct</p>","","","","","","","","",""
"html-keyboard-response","283","464376","0.0-14.0-0.32","60f88d7fef1959734061e5a7","650c16f0f2faf8d7a0d14c09","651c1c05a4af61b043313426","null","null","<p style=""font-size: 60px; font-family: BACS"">lhCTCKlkD</p>","","","","","","","","",""
"html-keyboard-response","284","465382","0.0-14.0-0.33","60f88d7fef1959734061e5a7","650c16f0f2faf8d7a0d14c09","651c1c05a4af61b043313426","null","null","<p style=""font-size: 60px; font-family: BACS"">kGlUQGb</p>","","","","","","","","",""
"html-keyboard-response","285","466387","0.0-14.0-0.34","60f88d7fef1959734061e5a7","650c16f0f2faf8d7a0d14c09","651c1c05a4af61b043313426","null","null","<p style=""font-size: 60px; font-family: BACS"">kCRmdEPD</p>","","","","","","","","",""
"html-keyboard-response","286","467402","0.0-14.0-0.35","60f88d7fef1959734061e5a7","650c16f0f2faf8d7a0d14c09","651c1c05a4af61b043313426","null","null","<p style=""font-size: 60px; font-family: BACS"">BMEMAKlkD</p>","","","","","","","","",""
"html-keyboard-response","287","468407","0.0-14.0-0.36","60f88d7fef1959734061e5a7","650c16f0f2faf8d7a0d14c09","651c1c05a4af61b043313426","null","null","<p style=""font-size: 60px; font-family: BACS"">JvaAJQA</p>","","","","","","","","",""
"html-keyboard-response","288","469412","0.0-14.0-0.37","60f88d7fef1959734061e5a7","650c16f0f2faf8d7a0d14c09","651c1c05a4af61b043313426","null","null","<p style=""font-size: 60px; font-family: BACS"">kbmZOQGb</p>","","","","","","","","",""
"html-keyboard-response","289","470418","0.0-14.0-0.38","60f88d7fef1959734061e5a7","650c16f0f2faf8d7a0d14c09","651c1c05a4af61b043313426","null","null","<p style=""font-size: 60px; font-family: BACS"">kGlUaQr</p>","","","","","","","","",""
"html-keyboard-response","290","471430","0.0-14.0-0.39","60f88d7fef1959734061e5a7","650c16f0f2faf8d7a0d14c09","651c1c05a4af61b043313426","null","null","<p style=""font-size: 60px; font-family: BACS"">DMRPBbM</p>","","","","","","","","",""
"html-keyboard-response","291","472445","0.0-14.0-0.40","60f88d7fef1959734061e5a7","650c16f0f2faf8d7a0d14c09","651c1c05a4af61b043313426","null","null","<p style=""font-size: 60px; font-family: BACS"">lhCTCYKPB</p>","","","","","","","","",""
"html-keyboard-response","292","473448","0.0-14.0-0.41","60f88d7fef1959734061e5a7","650c16f0f2faf8d7a0d14c09","651c1c05a4af61b043313426","null","null","<p style=""font-size: 60px; font-family: BACS"">UYZlZcbm</p>","","","","","","","","",""
"html-keyboard-response","293","474454","0.0-14.0-0.42","60f88d7fef1959734061e5a7","650c16f0f2faf8d7a0d14c09","651c1c05a4af61b043313426","null","null","<p style=""font-size: 60px; font-family: BACS"">aYaNJQA</p>","","","","","","","","",""
"html-keyboard-response","294","475463","0.0-14.0-0.43","60f88d7fef1959734061e5a7","650c16f0f2faf8d7a0d14c09","651c1c05a4af61b043313426","null","null","<p style=""font-size: 60px; font-family: BACS"">rkJucbm</p>","","","","","","","","",""
"html-keyboard-response","295","476465","0.0-14.0-0.44","60f88d7fef1959734061e5a7","650c16f0f2faf8d7a0d14c09","651c1c05a4af61b043313426","null","null","<p style=""font-size: 60px; font-family: BACS"">aYaNrNlZ</p>","","","","","","","","",""
"html-keyboard-response","296","477476","0.0-14.0-0.45","60f88d7fef1959734061e5a7","650c16f0f2faf8d7a0d14c09","651c1c05a4af61b043313426","null","null","<p style=""font-size: 60px; font-family: BACS"">JvaAQGb</p>","","","","","","","","",""
"html-keyboard-response","297","478477","0.0-14.0-0.46","60f88d7fef1959734061e5a7","650c16f0f2faf8d7a0d14c09","651c1c05a4af61b043313426","null","null","<p style=""font-size: 60px; font-family: BACS"">dMYBPKlkD</p>","","","","","","","","",""
"html-keyboard-response","298","479488","0.0-14.0-0.47","60f88d7fef1959734061e5a7","650c16f0f2faf8d7a0d14c09","651c1c05a4af61b043313426","null","null","<p style=""font-size: 60px; font-family: BACS"">AdDbdEPD</p>","","","","","","","","",""
"html-keyboard-response","299","480493","0.0-14.0-0.48","60f88d7fef1959734061e5a7","650c16f0f2faf8d7a0d14c09","651c1c05a4af61b043313426","null","null","<p style=""font-size: 60px; font-family: BACS"">kGlUJQA</p>","","","","","","","","",""
"html-keyboard-response","300","481494","0.0-14.0-0.49","60f88d7fef1959734061e5a7","650c16f0f2faf8d7a0d14c09","651c1c05a4af61b043313426","null","null","<p style=""font-size: 60px; font-family: BACS"">rkJuaQr</p>","","","","","","","","",""
"html-keyboard-response","301","482498","0.0-14.0-0.50","60f88d7fef1959734061e5a7","650c16f0f2faf8d7a0d14c09","651c1c05a4af61b043313426","null","null","<p style=""font-size: 60px; font-family: BACS"">UJkGcbm</p>","","","","","","","","",""
"html-keyboard-response","302","483503","0.0-14.0-0.51","60f88d7fef1959734061e5a7","650c16f0f2faf8d7a0d14c09","651c1c05a4af61b043313426","null","null","<p style=""font-size: 60px; font-family: BACS"">DMRPKlkD</p>","","","","","","","","",""
"html-keyboard-response","303","484518","0.0-14.0-0.52","60f88d7fef1959734061e5a7","650c16f0f2faf8d7a0d14c09","651c1c05a4af61b043313426","null","null","<p style=""font-size: 60px; font-family: BACS"">PEkhAYKPB</p>","","","","","","","","",""
"html-keyboard-response","304","485521","0.0-14.0-0.53","60f88d7fef1959734061e5a7","650c16f0f2faf8d7a0d14c09","651c1c05a4af61b043313426","null","null","<p style=""font-size: 60px; font-family: BACS"">EPMDkdEPD</p>","","","","","","","","",""
"html-keyboard-response","305","486523","0.0-14.0-0.54","60f88d7fef1959734061e5a7","650c16f0f2faf8d7a0d14c09","651c1c05a4af61b043313426","null","null","<p style=""font-size: 60px; font-family: BACS"">PEkhABbM</p>","","","","","","","","",""
"html-keyboard-response","306","487530","0.0-14.0-0.55","60f88d7fef1959734061e5a7","650c16f0f2faf8d7a0d14c09","651c1c05a4af61b043313426","null","null","<p style=""font-size: 60px; font-family: BACS"">ukcYaQr</p>","","","","","","","","",""
"html-keyboard-response","307","488532","0.0-14.0-0.56","60f88d7fef1959734061e5a7","650c16f0f2faf8d7a0d14c09","651c1c05a4af61b043313426","null","null","<p style=""font-size: 60px; font-family: BACS"">EPMDkYKPB</p>","","","","","","","","",""
"html-keyboard-response","308","489539","0.0-14.0-0.57","60f88d7fef1959734061e5a7","650c16f0f2faf8d7a0d14c09","651c1c05a4af61b043313426","null","null","<p style=""font-size: 60px; font-family: BACS"">dMThkhEct</p>","","","","","","","","",""
"html-keyboard-response","309","490542","0.0-14.0-0.58","60f88d7fef1959734061e5a7","650c16f0f2faf8d7a0d14c09","651c1c05a4af61b043313426","null","null","<p style=""font-size: 60px; font-family: BACS"">UYZlZQGb</p>","","","","","","","","",""
"html-keyboard-response","310","491557","0.0-14.0-0.59","60f88d7fef1959734061e5a7","650c16f0f2faf8d7a0d14c09","651c1c05a4af61b043313426","null","null","<p style=""font-size: 60px; font-family: BACS"">EdBbKlkD</p>","","","","","","","","",""
"html-keyboard-response","311","492564","0.0-14.0-0.60","60f88d7fef1959734061e5a7","650c16f0f2faf8d7a0d14c09","651c1c05a4af61b043313426","null","null","<p style=""font-size: 60px; font-family: BACS"">ukcYQGb</p>","","","","","","","","",""
"html-keyboard-response","312","493577","0.0-14.0-0.61","60f88d7fef1959734061e5a7","650c16f0f2faf8d7a0d14c09","651c1c05a4af61b043313426","null","null","<p style=""font-size: 60px; font-family: BACS"">dMThkYKPB</p>","","","","","","","","",""
"html-keyboard-response","313","494580","0.0-14.0-0.62","60f88d7fef1959734061e5a7","650c16f0f2faf8d7a0d14c09","651c1c05a4af61b043313426","null","null","<p style=""font-size: 60px; font-family: BACS"">JvaAaQr</p>","","","","","","","","",""
"html-keyboard-response","314","495585","0.0-14.0-0.63","60f88d7fef1959734061e5a7","650c16f0f2faf8d7a0d14c09","651c1c05a4af61b043313426","null","null","<p style=""font-size: 60px; font-family: BACS"">rkJurNlZ</p>","","","","","","","","",""
"html-keyboard-response","315","496587","0.0-14.0-0.64","60f88d7fef1959734061e5a7","650c16f0f2faf8d7a0d14c09","651c1c05a4af61b043313426","null","null","<p style=""font-size: 60px; font-family: BACS"">dMYBPBbM</p>","","","","","","","","",""
"html-keyboard-response","316","497593","0.0-14.0-0.65","60f88d7fef1959734061e5a7","650c16f0f2faf8d7a0d14c09","651c1c05a4af61b043313426","null","null","<p style=""font-size: 60px; font-family: BACS"">rkJuJQA</p>","","","","","","","","",""
"html-keyboard-response","317","498595","0.0-14.0-0.66","60f88d7fef1959734061e5a7","650c16f0f2faf8d7a0d14c09","651c1c05a4af61b043313426","null","null","<p style=""font-size: 60px; font-family: BACS"">JvaArNlZ</p>","","","","","","","","",""
"html-keyboard-response","318","499598","0.0-14.0-0.67","60f88d7fef1959734061e5a7","650c16f0f2faf8d7a0d14c09","651c1c05a4af61b043313426","null","null","<p style=""font-size: 60px; font-family: BACS"">BMEMAhEct</p>","","","","","","","","",""
"html-keyboard-response","319","500603","0.0-14.0-0.68","60f88d7fef1959734061e5a7","650c16f0f2faf8d7a0d14c09","651c1c05a4af61b043313426","null","null","<p style=""font-size: 60px; font-family: BACS"">EPMDkBbM</p>","","","","","","","","",""
"html-keyboard-response","320","501611","0.0-14.0-0.69","60f88d7fef1959734061e5a7","650c16f0f2faf8d7a0d14c09","651c1c05a4af61b043313426","null","null","<p style=""font-size: 60px; font-family: BACS"">kbmZOJQA</p>","","","","","","","","",""
"html-keyboard-response","321","502617","0.0-14.0-0.70","60f88d7fef1959734061e5a7","650c16f0f2faf8d7a0d14c09","651c1c05a4af61b043313426","null","null","<p style=""font-size: 60px; font-family: BACS"">dMYBPdEPD</p>","","","","","","","","",""
"html-keyboard-response","322","503625","0.0-14.0-0.71","60f88d7fef1959734061e5a7","650c16f0f2faf8d7a0d14c09","651c1c05a4af61b043313426","null","null","<p style=""font-size: 60px; font-family: BACS"">kCRmhEct</p>","","","","","","","","",""
"html-keyboard-response","323","504633","0.0-14.0-0.72","60f88d7fef1959734061e5a7","650c16f0f2faf8d7a0d14c09","651c1c05a4af61b043313426","null","null","<p style=""font-size: 60px; font-family: BACS"">AlNUcbm</p>","","","","","","","","",""
"html-keyboard-response","324","505637","0.0-14.0-0.73","60f88d7fef1959734061e5a7","650c16f0f2faf8d7a0d14c09","651c1c05a4af61b043313426","null","null","<p style=""font-size: 60px; font-family: BACS"">dMYBPYKPB</p>","","","","","","","","",""
"html-keyboard-response","325","506640","0.0-14.0-0.74","60f88d7fef1959734061e5a7","650c16f0f2faf8d7a0d14c09","651c1c05a4af61b043313426","null","null","<p style=""font-size: 60px; font-family: BACS"">BMEMABbM</p>","","","","","","","","",""
"html-keyboard-response","326","507650","0.0-14.0-0.75","60f88d7fef1959734061e5a7","650c16f0f2faf8d7a0d14c09","651c1c05a4af61b043313426","null","null","<p style=""font-size: 60px; font-family: BACS"">UJkGJQA</p>","","","","","","","","",""
"html-keyboard-response","327","508654","0.0-14.0-0.76","60f88d7fef1959734061e5a7","650c16f0f2faf8d7a0d14c09","651c1c05a4af61b043313426","null","null","<p style=""font-size: 60px; font-family: BACS"">PEkhAhEct</p>","","","","","","","","",""
"html-keyboard-response","328","509655","0.0-14.0-0.77","60f88d7fef1959734061e5a7","650c16f0f2faf8d7a0d14c09","651c1c05a4af61b043313426","null","null","<p style=""font-size: 60px; font-family: BACS"">ukcYJQA</p>","","","","","","","","",""
"html-keyboard-response","329","510666","0.0-14.0-0.78","60f88d7fef1959734061e5a7","650c16f0f2faf8d7a0d14c09","651c1c05a4af61b043313426","null","null","<p style=""font-size: 60px; font-family: BACS"">kGlUcbm</p>","","","","","","","","",""
"html-keyboard-response","330","511673","0.0-14.0-0.79","60f88d7fef1959734061e5a7","650c16f0f2faf8d7a0d14c09","651c1c05a4af61b043313426","null","null","<p style=""font-size: 60px; font-family: BACS"">NaAQdJQA</p>","","","","","","","","",""
"html-keyboard-response","331","520501","0.0-15.0","60f88d7fef1959734061e5a7","650c16f0f2faf8d7a0d14c09","651c1c05a4af61b043313426","8827"," ","<p>Great, you've seen the fourth block of words. You may now take a short break.</p>
      <p>Press the spacebar when you're ready to continue.</p>","","","","","","","","",""
"html-keyboard-response","332","521510","0.0-16.0-0.0","60f88d7fef1959734061e5a7","650c16f0f2faf8d7a0d14c09","651c1c05a4af61b043313426","null","null","<p style=""font-size: 60px; font-family: BACS"">EdBbdEPD</p>","","","","","","","","",""
"html-keyboard-response","333","522511","0.0-16.0-0.1","60f88d7fef1959734061e5a7","650c16f0f2faf8d7a0d14c09","651c1c05a4af61b043313426","null","null","<p style=""font-size: 60px; font-family: BACS"">EdBbdEPD</p>","","","","","","","","",""
"html-keyboard-response","334","523514","0.0-16.0-0.2","60f88d7fef1959734061e5a7","650c16f0f2faf8d7a0d14c09","651c1c05a4af61b043313426","null","null","<p style=""font-size: 60px; font-family: BACS"">EdBbdEPD</p>","","","","","","","","",""
"html-keyboard-response","335","524522","0.0-16.0-0.3","60f88d7fef1959734061e5a7","650c16f0f2faf8d7a0d14c09","651c1c05a4af61b043313426","null","null","<p style=""font-size: 60px; font-family: BACS"">EdBbdEPD</p>","","","","","","","","",""
"html-keyboard-response","336","525529","0.0-16.0-0.4","60f88d7fef1959734061e5a7","650c16f0f2faf8d7a0d14c09","651c1c05a4af61b043313426","null","null","<p style=""font-size: 60px; font-family: BACS"">EdBbdEPD</p>","","","","","","","","",""
"html-keyboard-response","337","526543","0.0-16.0-0.5","60f88d7fef1959734061e5a7","650c16f0f2faf8d7a0d14c09","651c1c05a4af61b043313426","null","null","<p style=""font-size: 60px; font-family: BACS"">EdBbdEPD</p>","","","","","","","","",""
"html-keyboard-response","338","527556","0.0-16.0-0.6","60f88d7fef1959734061e5a7","650c16f0f2faf8d7a0d14c09","651c1c05a4af61b043313426","null","null","<p style=""font-size: 60px; font-family: BACS"">EdBbdEPD</p>","","","","","","","","",""
"html-keyboard-response","339","528562","0.0-16.0-0.7","60f88d7fef1959734061e5a7","650c16f0f2faf8d7a0d14c09","651c1c05a4af61b043313426","null","null","<p style=""font-size: 60px; font-family: BACS"">EdBbdEPD</p>","","","","","","","","",""
"html-keyboard-response","340","529568","0.0-16.0-0.8","60f88d7fef1959734061e5a7","650c16f0f2faf8d7a0d14c09","651c1c05a4af61b043313426","null","null","<p style=""font-size: 60px; font-family: BACS"">EdBbdEPD</p>","","","","","","","","",""
"html-keyboard-response","341","530573","0.0-16.0-0.9","60f88d7fef1959734061e5a7","650c16f0f2faf8d7a0d14c09","651c1c05a4af61b043313426","null","null","<p style=""font-size: 60px; font-family: BACS"">EdBbdEPD</p>","","","","","","","","",""
"html-keyboard-response","342","531583","0.0-16.0-0.10","60f88d7fef1959734061e5a7","650c16f0f2faf8d7a0d14c09","651c1c05a4af61b043313426","null","null","<p style=""font-size: 60px; font-family: BACS"">EdBbdEPD</p>","","","","","","","","",""
"html-keyboard-response","343","532586","0.0-16.0-0.11","60f88d7fef1959734061e5a7","650c16f0f2faf8d7a0d14c09","651c1c05a4af61b043313426","null","null","<p style=""font-size: 60px; font-family: BACS"">EdBbdEPD</p>","","","","","","","","",""
"html-keyboard-response","344","533590","0.0-16.0-0.12","60f88d7fef1959734061e5a7","650c16f0f2faf8d7a0d14c09","651c1c05a4af61b043313426","null","null","<p style=""font-size: 60px; font-family: BACS"">EdBbdEPD</p>","","","","","","","","",""
"html-keyboard-response","345","534591","0.0-16.0-0.13","60f88d7fef1959734061e5a7","650c16f0f2faf8d7a0d14c09","651c1c05a4af61b043313426","null","null","<p style=""font-size: 60px; font-family: BACS"">EdBbdEPD</p>","","","","","","","","",""
"html-keyboard-response","346","535599","0.0-16.0-0.14","60f88d7fef1959734061e5a7","650c16f0f2faf8d7a0d14c09","651c1c05a4af61b043313426","null","null","<p style=""font-size: 60px; font-family: BACS"">EdBbdEPD</p>","","","","","","","","",""
"html-keyboard-response","347","536603","0.0-16.0-0.15","60f88d7fef1959734061e5a7","650c16f0f2faf8d7a0d14c09","651c1c05a4af61b043313426","null","null","<p style=""font-size: 60px; font-family: BACS"">EdBbdEPD</p>","","","","","","","","",""
"html-keyboard-response","348","537614","0.0-16.0-0.16","60f88d7fef1959734061e5a7","650c16f0f2faf8d7a0d14c09","651c1c05a4af61b043313426","null","null","<p style=""font-size: 60px; font-family: BACS"">EdBbdEPD</p>","","","","","","","","",""
"html-keyboard-response","349","538630","0.0-16.0-0.17","60f88d7fef1959734061e5a7","650c16f0f2faf8d7a0d14c09","651c1c05a4af61b043313426","null","null","<p style=""font-size: 60px; font-family: BACS"">EdBbdEPD</p>","","","","","","","","",""
"html-keyboard-response","350","539635","0.0-16.0-0.18","60f88d7fef1959734061e5a7","650c16f0f2faf8d7a0d14c09","651c1c05a4af61b043313426","null","null","<p style=""font-size: 60px; font-family: BACS"">EdBbdEPD</p>","","","","","","","","",""
"html-keyboard-response","351","540638","0.0-16.0-0.19","60f88d7fef1959734061e5a7","650c16f0f2faf8d7a0d14c09","651c1c05a4af61b043313426","null","null","<p style=""font-size: 60px; font-family: BACS"">EdBbdEPD</p>","","","","","","","","",""
"html-keyboard-response","352","541640","0.0-16.0-0.20","60f88d7fef1959734061e5a7","650c16f0f2faf8d7a0d14c09","651c1c05a4af61b043313426","null","null","<p style=""font-size: 60px; font-family: BACS"">EdBbdEPD</p>","","","","","","","","",""
"html-keyboard-response","353","542646","0.0-16.0-0.21","60f88d7fef1959734061e5a7","650c16f0f2faf8d7a0d14c09","651c1c05a4af61b043313426","null","null","<p style=""font-size: 60px; font-family: BACS"">EdBbdEPD</p>","","","","","","","","",""
"html-keyboard-response","354","543654","0.0-16.0-0.22","60f88d7fef1959734061e5a7","650c16f0f2faf8d7a0d14c09","651c1c05a4af61b043313426","null","null","<p style=""font-size: 60px; font-family: BACS"">EdBbdEPD</p>","","","","","","","","",""
"html-keyboard-response","355","544656","0.0-16.0-0.23","60f88d7fef1959734061e5a7","650c16f0f2faf8d7a0d14c09","651c1c05a4af61b043313426","null","null","<p style=""font-size: 60px; font-family: BACS"">EdBbdEPD</p>","","","","","","","","",""
"html-keyboard-response","356","545670","0.0-16.0-0.24","60f88d7fef1959734061e5a7","650c16f0f2faf8d7a0d14c09","651c1c05a4af61b043313426","null","null","<p style=""font-size: 60px; font-family: BACS"">EdBbdEPD</p>","","","","","","","","",""
"html-keyboard-response","357","546684","0.0-16.0-0.25","60f88d7fef1959734061e5a7","650c16f0f2faf8d7a0d14c09","651c1c05a4af61b043313426","null","null","<p style=""font-size: 60px; font-family: BACS"">EdBbdEPD</p>","","","","","","","","",""
"html-keyboard-response","358","547685","0.0-16.0-0.26","60f88d7fef1959734061e5a7","650c16f0f2faf8d7a0d14c09","651c1c05a4af61b043313426","null","null","<p style=""font-size: 60px; font-family: BACS"">EdBbdEPD</p>","","","","","","","","",""
"html-keyboard-response","359","548696","0.0-16.0-0.27","60f88d7fef1959734061e5a7","650c16f0f2faf8d7a0d14c09","651c1c05a4af61b043313426","null","null","<p style=""font-size: 60px; font-family: BACS"">EdBbdEPD</p>","","","","","","","","",""
"html-keyboard-response","360","549701","0.0-16.0-0.28","60f88d7fef1959734061e5a7","650c16f0f2faf8d7a0d14c09","651c1c05a4af61b043313426","null","null","<p style=""font-size: 60px; font-family: BACS"">EdBbdEPD</p>","","","","","","","","",""
"html-keyboard-response","361","550709","0.0-16.0-0.29","60f88d7fef1959734061e5a7","650c16f0f2faf8d7a0d14c09","651c1c05a4af61b043313426","null","null","<p style=""font-size: 60px; font-family: BACS"">EdBbdEPD</p>","","","","","","","","",""
"html-keyboard-response","362","551717","0.0-16.0-0.30","60f88d7fef1959734061e5a7","650c16f0f2faf8d7a0d14c09","651c1c05a4af61b043313426","null","null","<p style=""font-size: 60px; font-family: BACS"">EdBbdEPD</p>","","","","","","","","",""
"html-keyboard-response","363","552720","0.0-16.0-0.31","60f88d7fef1959734061e5a7","650c16f0f2faf8d7a0d14c09","651c1c05a4af61b043313426","null","null","<p style=""font-size: 60px; font-family: BACS"">EdBbdEPD</p>","","","","","","","","",""
"html-keyboard-response","364","553721","0.0-16.0-0.32","60f88d7fef1959734061e5a7","650c16f0f2faf8d7a0d14c09","651c1c05a4af61b043313426","null","null","<p style=""font-size: 60px; font-family: BACS"">EdBbdEPD</p>","","","","","","","","",""
"html-keyboard-response","365","554737","0.0-16.0-0.33","60f88d7fef1959734061e5a7","650c16f0f2faf8d7a0d14c09","651c1c05a4af61b043313426","null","null","<p style=""font-size: 60px; font-family: BACS"">EdBbdEPD</p>","","","","","","","","",""
"html-keyboard-response","366","555745","0.0-16.0-0.34","60f88d7fef1959734061e5a7","650c16f0f2faf8d7a0d14c09","651c1c05a4af61b043313426","null","null","<p style=""font-size: 60px; font-family: BACS"">EdBbdEPD</p>","","","","","","","","",""
"html-keyboard-response","367","556750","0.0-16.0-0.35","60f88d7fef1959734061e5a7","650c16f0f2faf8d7a0d14c09","651c1c05a4af61b043313426","null","null","<p style=""font-size: 60px; font-family: BACS"">EdBbdEPD</p>","","","","","","","","",""
"html-keyboard-response","368","557756","0.0-16.0-0.36","60f88d7fef1959734061e5a7","650c16f0f2faf8d7a0d14c09","651c1c05a4af61b043313426","null","null","<p style=""font-size: 60px; font-family: BACS"">EdBbdEPD</p>","","","","","","","","",""
"html-keyboard-response","369","558759","0.0-16.0-0.37","60f88d7fef1959734061e5a7","650c16f0f2faf8d7a0d14c09","651c1c05a4af61b043313426","null","null","<p style=""font-size: 60px; font-family: BACS"">EdBbdEPD</p>","","","","","","","","",""
"html-keyboard-response","370","559764","0.0-16.0-0.38","60f88d7fef1959734061e5a7","650c16f0f2faf8d7a0d14c09","651c1c05a4af61b043313426","null","null","<p style=""font-size: 60px; font-family: BACS"">EdBbdEPD</p>","","","","","","","","",""
"html-keyboard-response","371","560774","0.0-16.0-0.39","60f88d7fef1959734061e5a7","650c16f0f2faf8d7a0d14c09","651c1c05a4af61b043313426","null","null","<p style=""font-size: 60px; font-family: BACS"">EdBbdEPD</p>","","","","","","","","",""
"html-keyboard-response","372","561784","0.0-16.0-0.40","60f88d7fef1959734061e5a7","650c16f0f2faf8d7a0d14c09","651c1c05a4af61b043313426","null","null","<p style=""font-size: 60px; font-family: BACS"">EdBbdEPD</p>","","","","","","","","",""
"html-keyboard-response","373","562789","0.0-16.0-0.41","60f88d7fef1959734061e5a7","650c16f0f2faf8d7a0d14c09","651c1c05a4af61b043313426","null","null","<p style=""font-size: 60px; font-family: BACS"">EdBbdEPD</p>","","","","","","","","",""
"html-keyboard-response","374","563804","0.0-16.0-0.42","60f88d7fef1959734061e5a7","650c16f0f2faf8d7a0d14c09","651c1c05a4af61b043313426","null","null","<p style=""font-size: 60px; font-family: BACS"">EdBbdEPD</p>","","","","","","","","",""
"html-keyboard-response","375","564805","0.0-16.0-0.43","60f88d7fef1959734061e5a7","650c16f0f2faf8d7a0d14c09","651c1c05a4af61b043313426","null","null","<p style=""font-size: 60px; font-family: BACS"">EdBbdEPD</p>","","","","","","","","",""
"html-keyboard-response","376","565811","0.0-16.0-0.44","60f88d7fef1959734061e5a7","650c16f0f2faf8d7a0d14c09","651c1c05a4af61b043313426","null","null","<p style=""font-size: 60px; font-family: BACS"">EdBbdEPD</p>","","","","","","","","",""
"html-keyboard-response","377","566815","0.0-16.0-0.45","60f88d7fef1959734061e5a7","650c16f0f2faf8d7a0d14c09","651c1c05a4af61b043313426","null","null","<p style=""font-size: 60px; font-family: BACS"">EdBbdEPD</p>","","","","","","","","",""
"html-keyboard-response","378","567820","0.0-16.0-0.46","60f88d7fef1959734061e5a7","650c16f0f2faf8d7a0d14c09","651c1c05a4af61b043313426","null","null","<p style=""font-size: 60px; font-family: BACS"">EdBbdEPD</p>","","","","","","","","",""
"html-keyboard-response","379","568834","0.0-16.0-0.47","60f88d7fef1959734061e5a7","650c16f0f2faf8d7a0d14c09","651c1c05a4af61b043313426","null","null","<p style=""font-size: 60px; font-family: BACS"">EdBbdEPD</p>","","","","","","","","",""
"html-keyboard-response","380","569839","0.0-16.0-0.48","60f88d7fef1959734061e5a7","650c16f0f2faf8d7a0d14c09","651c1c05a4af61b043313426","null","null","<p style=""font-size: 60px; font-family: BACS"">EdBbdEPD</p>","","","","","","","","",""
"html-keyboard-response","381","570843","0.0-16.0-0.49","60f88d7fef1959734061e5a7","650c16f0f2faf8d7a0d14c09","651c1c05a4af61b043313426","null","null","<p style=""font-size: 60px; font-family: BACS"">EdBbdEPD</p>","","","","","","","","",""
"html-keyboard-response","382","571852","0.0-16.0-0.50","60f88d7fef1959734061e5a7","650c16f0f2faf8d7a0d14c09","651c1c05a4af61b043313426","null","null","<p style=""font-size: 60px; font-family: BACS"">EdBbdEPD</p>","","","","","","","","",""
"html-keyboard-response","383","572855","0.0-16.0-0.51","60f88d7fef1959734061e5a7","650c16f0f2faf8d7a0d14c09","651c1c05a4af61b043313426","null","null","<p style=""font-size: 60px; font-family: BACS"">EdBbdEPD</p>","","","","","","","","",""
"html-keyboard-response","384","573864","0.0-16.0-0.52","60f88d7fef1959734061e5a7","650c16f0f2faf8d7a0d14c09","651c1c05a4af61b043313426","null","null","<p style=""font-size: 60px; font-family: BACS"">EdBbdEPD</p>","","","","","","","","",""
"html-keyboard-response","385","574870","0.0-16.0-0.53","60f88d7fef1959734061e5a7","650c16f0f2faf8d7a0d14c09","651c1c05a4af61b043313426","null","null","<p style=""font-size: 60px; font-family: BACS"">EdBbdEPD</p>","","","","","","","","",""
"html-keyboard-response","386","575879","0.0-16.0-0.54","60f88d7fef1959734061e5a7","650c16f0f2faf8d7a0d14c09","651c1c05a4af61b043313426","null","null","<p style=""font-size: 60px; font-family: BACS"">EdBbdEPD</p>","","","","","","","","",""
"html-keyboard-response","387","576882","0.0-16.0-0.55","60f88d7fef1959734061e5a7","650c16f0f2faf8d7a0d14c09","651c1c05a4af61b043313426","null","null","<p style=""font-size: 60px; font-family: BACS"">EdBbdEPD</p>","","","","","","","","",""
"html-keyboard-response","388","577886","0.0-16.0-0.56","60f88d7fef1959734061e5a7","650c16f0f2faf8d7a0d14c09","651c1c05a4af61b043313426","null","null","<p style=""font-size: 60px; font-family: BACS"">EdBbdEPD</p>","","","","","","","","",""
"html-keyboard-response","389","578902","0.0-16.0-0.57","60f88d7fef1959734061e5a7","650c16f0f2faf8d7a0d14c09","651c1c05a4af61b043313426","null","null","<p style=""font-size: 60px; font-family: BACS"">EdBbdEPD</p>","","","","","","","","",""
"html-keyboard-response","390","579910","0.0-16.0-0.58","60f88d7fef1959734061e5a7","650c16f0f2faf8d7a0d14c09","651c1c05a4af61b043313426","null","null","<p style=""font-size: 60px; font-family: BACS"">EdBbdEPD</p>","","","","","","","","",""
"html-keyboard-response","391","580911","0.0-16.0-0.59","60f88d7fef1959734061e5a7","650c16f0f2faf8d7a0d14c09","651c1c05a4af61b043313426","null","null","<p style=""font-size: 60px; font-family: BACS"">EdBbdEPD</p>","","","","","","","","",""
"html-keyboard-response","392","581914","0.0-16.0-0.60","60f88d7fef1959734061e5a7","650c16f0f2faf8d7a0d14c09","651c1c05a4af61b043313426","null","null","<p style=""font-size: 60px; font-family: BACS"">EdBbdEPD</p>","","","","","","","","",""
"html-keyboard-response","393","582918","0.0-16.0-0.61","60f88d7fef1959734061e5a7","650c16f0f2faf8d7a0d14c09","651c1c05a4af61b043313426","null","null","<p style=""font-size: 60px; font-family: BACS"">EdBbdEPD</p>","","","","","","","","",""
"html-keyboard-response","394","583919","0.0-16.0-0.62","60f88d7fef1959734061e5a7","650c16f0f2faf8d7a0d14c09","651c1c05a4af61b043313426","null","null","<p style=""font-size: 60px; font-family: BACS"">EdBbdEPD</p>","","","","","","","","",""
"html-keyboard-response","395","584929","0.0-16.0-0.63","60f88d7fef1959734061e5a7","650c16f0f2faf8d7a0d14c09","651c1c05a4af61b043313426","null","null","<p style=""font-size: 60px; font-family: BACS"">EdBbdEPD</p>","","","","","","","","",""
"html-keyboard-response","396","585934","0.0-16.0-0.64","60f88d7fef1959734061e5a7","650c16f0f2faf8d7a0d14c09","651c1c05a4af61b043313426","null","null","<p style=""font-size: 60px; font-family: BACS"">EdBbdEPD</p>","","","","","","","","",""
"html-keyboard-response","397","586936","0.0-16.0-0.65","60f88d7fef1959734061e5a7","650c16f0f2faf8d7a0d14c09","651c1c05a4af61b043313426","null","null","<p style=""font-size: 60px; font-family: BACS"">EdBbdEPD</p>","","","","","","","","",""
"html-keyboard-response","398","587940","0.0-16.0-0.66","60f88d7fef1959734061e5a7","650c16f0f2faf8d7a0d14c09","651c1c05a4af61b043313426","null","null","<p style=""font-size: 60px; font-family: BACS"">EdBbdEPD</p>","","","","","","","","",""
"html-keyboard-response","399","588952","0.0-16.0-0.67","60f88d7fef1959734061e5a7","650c16f0f2faf8d7a0d14c09","651c1c05a4af61b043313426","null","null","<p style=""font-size: 60px; font-family: BACS"">EdBbdEPD</p>","","","","","","","","",""
"html-keyboard-response","400","589955","0.0-16.0-0.68","60f88d7fef1959734061e5a7","650c16f0f2faf8d7a0d14c09","651c1c05a4af61b043313426","null","null","<p style=""font-size: 60px; font-family: BACS"">EdBbdEPD</p>","","","","","","","","",""
