trial_type,trial_index,time_elapsed,internal_node_id,subject_id,study_id,session_id,rt,response,stimulus,success,item,task,correct_response,testing_condition,correct,target,confound,name,view_history
pavlovia,0,1412,0.0-0.0,613a73d06cf1fcfef304d3fa,650c16f0f2faf8d7a0d14c09,651c357654d122dddd1c01bd,,,,,,,,,,,,,
survey-html-form,1,11008,0.0-1.0,613a73d06cf1fcfef304d3fa,650c16f0f2faf8d7a0d14c09,651c357654d122dddd1c01bd,9591,"{""ID"":""613a73d06cf1fcfef304d3fa""}",,,,,,,,,,,
html-keyboard-response,2,21109,0.0-2.0,613a73d06cf1fcfef304d3fa,650c16f0f2faf8d7a0d14c09,651c357654d122dddd1c01bd,10100, ,"<p style=""font-size: 15px;"">Before beginning, we ask that you read the consent information and confirm your agreement to participate in the experiment.</p>
      <p style=""font-size: 15px;""> We ask that you remember that this is a research project and that your participation is entirely voluntary. You can stop your participation at any time, without needing to provide any explanation. The study we're asking you to participate in aims at examining how readers process written words. You will be engaged in a session of apprximately 20 minutes, followed by a brief questionnaire. You will have the opportunity to take a few breaks during the experiment. You will be paid £4 for your participation, corresponding to a rate of £8/hour. While this experiment looks at cognitive faculties, this experiment doesn't constitute clinical proof of eventual pathologies.</p>
      <p style=""font-size: 15px;"">All of the information collected thanks to yours and others' participation will be held in a secure password-protected server, and will not be shared with anyone not authorised to view it. Your personal information will be kept with an arbitrary participant ID. Thanks to this data anonymity process, any researcher analysing the data won't be able to track the information back to a specific participant. Therefore, this process will make identifying you impossibile, even when results from the study will be published in scientific reviews, presented at congresses, or at any other public forum. More generally, the collected data will be treated in accordance with the laws on privacy and conformity to the Legislative Degree n. 196 ""Code regarding the protection of personal data"" of the 30th of June 2003 and to the European Regulation 2016/670 (General Data Protection Regulation - GDPR). The Data Protection Officer is Avv. Valentina Carollo, who can be contacted at the following email addresses: <a href=""mailto:dpo@sissa.it"">dpo@sissa.it</a> or <a href=""mailto:rpd@sissa.it"">rpd@sissa.it</a> - PEC: <a href=""mailto:protocollo@pec.sissa.it"">protocollo@pec.sissa.it</a>.</p>
      <p style=""font-size: 15px;""> Before expressing your consent to participate, we would like to remind you again that in case you need explanations on any aspect of the experimental procedure, the researcher is at your disposition (<a href=""mailto:aliebelt@sissa.it"">aliebelt@sissa.it</a>, <a href=""mailto:davide.crepaldi@sissa.it"">davide.crepaldi@sissa.it</a>).</p>
      <p style=""font-size: 15px;"">If you would like to download the informed consent form, you can do so here: <a href=""BASL-Informed_Consent.pdf"" download>informed consent form</a>.</p>
      <p style=""font-size: 15px;"">We ask that you press the spacebar to proceed to the consent section.</p>",,,,,,,,,,
survey-html-form,3,34423,0.0-3.0,613a73d06cf1fcfef304d3fa,650c16f0f2faf8d7a0d14c09,651c357654d122dddd1c01bd,13310,"{""consent1"":""YES"",""consent2"":""YES"",""consent3"":""YES"",""consent4"":""YES"",""consent5"":""YES"",""consent6"":""YES""}",,,,,,,,,,,
fullscreen,4,42876,0.0-4.0,613a73d06cf1fcfef304d3fa,650c16f0f2faf8d7a0d14c09,651c357654d122dddd1c01bd,,,,TRUE,,,,,,,,,
html-keyboard-response,5,66725,0.0-5.0,613a73d06cf1fcfef304d3fa,650c16f0f2faf8d7a0d14c09,651c357654d122dddd1c01bd,23847, ,"<p>Welcome, and thank you very much for your time!</p>
      <p>In this experiment, you'll be a language expert who's been asked to take a look at words that Earth has received in its first communication with aliens. Your task, in this first part of the experiment, is to pay close attention to the words you'll be shown; later, world leaders will ask you questions on what you saw. The words will be shown to you quite quickly; it seems that the aliens were in a hurry :-)</p>
      <p>Press the spacebar to continue.<p>",,,,,,,,,,
html-keyboard-response,6,66779,0.0-6.0,613a73d06cf1fcfef304d3fa,650c16f0f2faf8d7a0d14c09,651c357654d122dddd1c01bd,null,null,"<p style=""font-size: 120px; font-family: BACS""> </p>",,,,,,,,,,
html-keyboard-response,7,74334,0.0-7.0,613a73d06cf1fcfef304d3fa,650c16f0f2faf8d7a0d14c09,651c357654d122dddd1c01bd,7553, ,"<p>Here is an example of the words you'll see:</p>
      <img src='esempio.png' height='400px'>
      <p>When you're ready to begin, press the spacebar.</p></div>",,,,,,,,,,
html-keyboard-response,8,75345,0.0-8.0-0.0,613a73d06cf1fcfef304d3fa,650c16f0f2faf8d7a0d14c09,651c357654d122dddd1c01bd,null,null,"<p style=""font-size: 60px; font-family: BACS"">laYmrYaOk</p>",,,,,,,,,,
html-keyboard-response,9,76362,0.0-8.0-0.1,613a73d06cf1fcfef304d3fa,650c16f0f2faf8d7a0d14c09,651c357654d122dddd1c01bd,null,null,"<p style=""font-size: 60px; font-family: BACS"">DmAMEYbBT</p>",,,,,,,,,,
html-keyboard-response,10,77370,0.0-8.0-0.2,613a73d06cf1fcfef304d3fa,650c16f0f2faf8d7a0d14c09,651c357654d122dddd1c01bd,null,null,"<p style=""font-size: 60px; font-family: BACS"">chEDOmKcD</p>",,,,,,,,,,
html-keyboard-response,11,78379,0.0-8.0-0.3,613a73d06cf1fcfef304d3fa,650c16f0f2faf8d7a0d14c09,651c357654d122dddd1c01bd,null,null,"<p style=""font-size: 60px; font-family: BACS"">MkmEdYbBT</p>",,,,,,,,,,
html-keyboard-response,12,79393,0.0-8.0-0.4,613a73d06cf1fcfef304d3fa,650c16f0f2faf8d7a0d14c09,651c357654d122dddd1c01bd,null,null,"<p style=""font-size: 60px; font-family: BACS"">uauOYaum</p>",,,,,,,,,,
html-keyboard-response,13,80409,0.0-8.0-0.5,613a73d06cf1fcfef304d3fa,650c16f0f2faf8d7a0d14c09,651c357654d122dddd1c01bd,null,null,"<p style=""font-size: 60px; font-family: BACS"">AZlLNZAUu</p>",,,,,,,,,,
html-keyboard-response,14,81421,0.0-8.0-0.6,613a73d06cf1fcfef304d3fa,650c16f0f2faf8d7a0d14c09,651c357654d122dddd1c01bd,null,null,"<p style=""font-size: 60px; font-family: BACS"">RKYkCKOb</p>",,,,,,,,,,
html-keyboard-response,15,82438,0.0-8.0-0.7,613a73d06cf1fcfef304d3fa,650c16f0f2faf8d7a0d14c09,651c357654d122dddd1c01bd,null,null,"<p style=""font-size: 60px; font-family: BACS"">vYLUZAUu</p>",,,,,,,,,,
html-keyboard-response,16,83452,0.0-8.0-0.8,613a73d06cf1fcfef304d3fa,650c16f0f2faf8d7a0d14c09,651c357654d122dddd1c01bd,null,null,"<p style=""font-size: 60px; font-family: BACS"">MBmEAPEM</p>",,,,,,,,,,
html-keyboard-response,17,84469,0.0-8.0-0.9,613a73d06cf1fcfef304d3fa,650c16f0f2faf8d7a0d14c09,651c357654d122dddd1c01bd,null,null,"<p style=""font-size: 60px; font-family: BACS"">laYmrYaum</p>",,,,,,,,,,
html-keyboard-response,18,85486,0.0-8.0-0.10,613a73d06cf1fcfef304d3fa,650c16f0f2faf8d7a0d14c09,651c357654d122dddd1c01bd,null,null,"<p style=""font-size: 60px; font-family: BACS"">chEDOAPEM</p>",,,,,,,,,,
html-keyboard-response,19,86499,0.0-8.0-0.11,613a73d06cf1fcfef304d3fa,650c16f0f2faf8d7a0d14c09,651c357654d122dddd1c01bd,null,null,"<p style=""font-size: 60px; font-family: BACS"">uauOuvJ</p>",,,,,,,,,,
html-keyboard-response,20,87511,0.0-8.0-0.12,613a73d06cf1fcfef304d3fa,650c16f0f2faf8d7a0d14c09,651c357654d122dddd1c01bd,null,null,"<p style=""font-size: 60px; font-family: BACS"">MBmEYBO</p>",,,,,,,,,,
html-keyboard-response,21,88525,0.0-8.0-0.13,613a73d06cf1fcfef304d3fa,650c16f0f2faf8d7a0d14c09,651c357654d122dddd1c01bd,null,null,"<p style=""font-size: 60px; font-family: BACS"">mrOdYaum</p>",,,,,,,,,,
html-keyboard-response,22,89531,0.0-8.0-0.14,613a73d06cf1fcfef304d3fa,650c16f0f2faf8d7a0d14c09,651c357654d122dddd1c01bd,null,null,"<p style=""font-size: 60px; font-family: BACS"">MkmEdYBO</p>",,,,,,,,,,
html-keyboard-response,23,90534,0.0-8.0-0.15,613a73d06cf1fcfef304d3fa,650c16f0f2faf8d7a0d14c09,651c357654d122dddd1c01bd,null,null,"<p style=""font-size: 60px; font-family: BACS"">mrOdYaOk</p>",,,,,,,,,,
html-keyboard-response,24,91540,0.0-8.0-0.16,613a73d06cf1fcfef304d3fa,650c16f0f2faf8d7a0d14c09,651c357654d122dddd1c01bd,null,null,"<p style=""font-size: 60px; font-family: BACS"">ZNLOvYaum</p>",,,,,,,,,,
html-keyboard-response,25,92545,0.0-8.0-0.17,613a73d06cf1fcfef304d3fa,650c16f0f2faf8d7a0d14c09,651c357654d122dddd1c01bd,null,null,"<p style=""font-size: 60px; font-family: BACS"">cRElDmKcD</p>",,,,,,,,,,
html-keyboard-response,26,93557,0.0-8.0-0.18,613a73d06cf1fcfef304d3fa,650c16f0f2faf8d7a0d14c09,651c357654d122dddd1c01bd,null,null,"<p style=""font-size: 60px; font-family: BACS"">YKRkYbBT</p>",,,,,,,,,,
html-keyboard-response,27,94562,0.0-8.0-0.19,613a73d06cf1fcfef304d3fa,650c16f0f2faf8d7a0d14c09,651c357654d122dddd1c01bd,null,null,"<p style=""font-size: 60px; font-family: BACS"">cRElDYBO</p>",,,,,,,,,,
html-keyboard-response,28,95573,0.0-8.0-0.20,613a73d06cf1fcfef304d3fa,650c16f0f2faf8d7a0d14c09,651c357654d122dddd1c01bd,null,null,"<p style=""font-size: 60px; font-family: BACS"">lcOcZvkL</p>",,,,,,,,,,
html-keyboard-response,29,96581,0.0-8.0-0.21,613a73d06cf1fcfef304d3fa,650c16f0f2faf8d7a0d14c09,651c357654d122dddd1c01bd,null,null,"<p style=""font-size: 60px; font-family: BACS"">vYLUuvJ</p>",,,,,,,,,,
html-keyboard-response,30,97591,0.0-8.0-0.22,613a73d06cf1fcfef304d3fa,650c16f0f2faf8d7a0d14c09,651c357654d122dddd1c01bd,null,null,"<p style=""font-size: 60px; font-family: BACS"">EPERdAPEM</p>",,,,,,,,,,
html-keyboard-response,31,98596,0.0-8.0-0.23,613a73d06cf1fcfef304d3fa,650c16f0f2faf8d7a0d14c09,651c357654d122dddd1c01bd,null,null,"<p style=""font-size: 60px; font-family: BACS"">RKYkmKcD</p>",,,,,,,,,,
html-keyboard-response,32,99610,0.0-8.0-0.24,613a73d06cf1fcfef304d3fa,650c16f0f2faf8d7a0d14c09,651c357654d122dddd1c01bd,null,null,"<p style=""font-size: 60px; font-family: BACS"">AbkaYaum</p>",,,,,,,,,,
html-keyboard-response,33,100614,0.0-8.0-0.25,613a73d06cf1fcfef304d3fa,650c16f0f2faf8d7a0d14c09,651c357654d122dddd1c01bd,null,null,"<p style=""font-size: 60px; font-family: BACS"">laYmruvJ</p>",,,,,,,,,,
html-keyboard-response,34,101619,0.0-8.0-0.26,613a73d06cf1fcfef304d3fa,650c16f0f2faf8d7a0d14c09,651c357654d122dddd1c01bd,null,null,"<p style=""font-size: 60px; font-family: BACS"">MBmEYbBT</p>",,,,,,,,,,
html-keyboard-response,35,102636,0.0-8.0-0.27,613a73d06cf1fcfef304d3fa,650c16f0f2faf8d7a0d14c09,651c357654d122dddd1c01bd,null,null,"<p style=""font-size: 60px; font-family: BACS"">uauOYaOk</p>",,,,,,,,,,
html-keyboard-response,36,103645,0.0-8.0-0.28,613a73d06cf1fcfef304d3fa,650c16f0f2faf8d7a0d14c09,651c357654d122dddd1c01bd,null,null,"<p style=""font-size: 60px; font-family: BACS"">YKRkmKcD</p>",,,,,,,,,,
html-keyboard-response,37,104660,0.0-8.0-0.29,613a73d06cf1fcfef304d3fa,650c16f0f2faf8d7a0d14c09,651c357654d122dddd1c01bd,null,null,"<p style=""font-size: 60px; font-family: BACS"">CYPcYbBT</p>",,,,,,,,,,
html-keyboard-response,38,105674,0.0-8.0-0.30,613a73d06cf1fcfef304d3fa,650c16f0f2faf8d7a0d14c09,651c357654d122dddd1c01bd,null,null,"<p style=""font-size: 60px; font-family: BACS"">lcOcYaum</p>",,,,,,,,,,
html-keyboard-response,39,106678,0.0-8.0-0.31,613a73d06cf1fcfef304d3fa,650c16f0f2faf8d7a0d14c09,651c357654d122dddd1c01bd,null,null,"<p style=""font-size: 60px; font-family: BACS"">YKRkYBO</p>",,,,,,,,,,
html-keyboard-response,40,107682,0.0-8.0-0.32,613a73d06cf1fcfef304d3fa,650c16f0f2faf8d7a0d14c09,651c357654d122dddd1c01bd,null,null,"<p style=""font-size: 60px; font-family: BACS"">EPERdYbBT</p>",,,,,,,,,,
html-keyboard-response,41,108687,0.0-8.0-0.33,613a73d06cf1fcfef304d3fa,650c16f0f2faf8d7a0d14c09,651c357654d122dddd1c01bd,null,null,"<p style=""font-size: 60px; font-family: BACS"">MkmEdmKcD</p>",,,,,,,,,,
html-keyboard-response,42,109692,0.0-8.0-0.34,613a73d06cf1fcfef304d3fa,650c16f0f2faf8d7a0d14c09,651c357654d122dddd1c01bd,null,null,"<p style=""font-size: 60px; font-family: BACS"">AbkaZAUu</p>",,,,,,,,,,
html-keyboard-response,43,110696,0.0-8.0-0.35,613a73d06cf1fcfef304d3fa,650c16f0f2faf8d7a0d14c09,651c357654d122dddd1c01bd,null,null,"<p style=""font-size: 60px; font-family: BACS"">RKYkYbBT</p>",,,,,,,,,,
html-keyboard-response,44,111701,0.0-8.0-0.36,613a73d06cf1fcfef304d3fa,650c16f0f2faf8d7a0d14c09,651c357654d122dddd1c01bd,null,null,"<p style=""font-size: 60px; font-family: BACS"">EPERdYBO</p>",,,,,,,,,,
html-keyboard-response,45,112705,0.0-8.0-0.37,613a73d06cf1fcfef304d3fa,650c16f0f2faf8d7a0d14c09,651c357654d122dddd1c01bd,null,null,"<p style=""font-size: 60px; font-family: BACS"">ckduAZAUu</p>",,,,,,,,,,
html-keyboard-response,46,113719,0.0-8.0-0.38,613a73d06cf1fcfef304d3fa,650c16f0f2faf8d7a0d14c09,651c357654d122dddd1c01bd,null,null,"<p style=""font-size: 60px; font-family: BACS"">ZNLOvYaOk</p>",,,,,,,,,,
html-keyboard-response,47,114729,0.0-8.0-0.39,613a73d06cf1fcfef304d3fa,650c16f0f2faf8d7a0d14c09,651c357654d122dddd1c01bd,null,null,"<p style=""font-size: 60px; font-family: BACS"">cRElDCKOb</p>",,,,,,,,,,
html-keyboard-response,48,115741,0.0-8.0-0.40,613a73d06cf1fcfef304d3fa,650c16f0f2faf8d7a0d14c09,651c357654d122dddd1c01bd,null,null,"<p style=""font-size: 60px; font-family: BACS"">OLJblZAUu</p>",,,,,,,,,,
html-keyboard-response,49,116754,0.0-8.0-0.41,613a73d06cf1fcfef304d3fa,650c16f0f2faf8d7a0d14c09,651c357654d122dddd1c01bd,null,null,"<p style=""font-size: 60px; font-family: BACS"">DmAMEAPEM</p>",,,,,,,,,,
html-keyboard-response,50,117759,0.0-8.0-0.42,613a73d06cf1fcfef304d3fa,650c16f0f2faf8d7a0d14c09,651c357654d122dddd1c01bd,null,null,"<p style=""font-size: 60px; font-family: BACS"">mrOduvJ</p>",,,,,,,,,,
html-keyboard-response,51,118774,0.0-8.0-0.43,613a73d06cf1fcfef304d3fa,650c16f0f2faf8d7a0d14c09,651c357654d122dddd1c01bd,null,null,"<p style=""font-size: 60px; font-family: BACS"">YKRkAPEM</p>",,,,,,,,,,
html-keyboard-response,52,119784,0.0-8.0-0.44,613a73d06cf1fcfef304d3fa,650c16f0f2faf8d7a0d14c09,651c357654d122dddd1c01bd,null,null,"<p style=""font-size: 60px; font-family: BACS"">vYLUYaOk</p>",,,,,,,,,,
html-keyboard-response,53,120789,0.0-8.0-0.45,613a73d06cf1fcfef304d3fa,650c16f0f2faf8d7a0d14c09,651c357654d122dddd1c01bd,null,null,"<p style=""font-size: 60px; font-family: BACS"">OLJblZvkL</p>",,,,,,,,,,
html-keyboard-response,54,121802,0.0-8.0-0.46,613a73d06cf1fcfef304d3fa,650c16f0f2faf8d7a0d14c09,651c357654d122dddd1c01bd,null,null,"<p style=""font-size: 60px; font-family: BACS"">lcOcZAUu</p>",,,,,,,,,,
html-keyboard-response,55,122808,0.0-8.0-0.47,613a73d06cf1fcfef304d3fa,650c16f0f2faf8d7a0d14c09,651c357654d122dddd1c01bd,null,null,"<p style=""font-size: 60px; font-family: BACS"">DmAMEYBO</p>",,,,,,,,,,
html-keyboard-response,56,123818,0.0-8.0-0.48,613a73d06cf1fcfef304d3fa,650c16f0f2faf8d7a0d14c09,651c357654d122dddd1c01bd,null,null,"<p style=""font-size: 60px; font-family: BACS"">mrOdZvkL</p>",,,,,,,,,,
html-keyboard-response,57,124832,0.0-8.0-0.49,613a73d06cf1fcfef304d3fa,650c16f0f2faf8d7a0d14c09,651c357654d122dddd1c01bd,null,null,"<p style=""font-size: 60px; font-family: BACS"">cRElDAPEM</p>",,,,,,,,,,
html-keyboard-response,58,125846,0.0-8.0-0.50,613a73d06cf1fcfef304d3fa,650c16f0f2faf8d7a0d14c09,651c357654d122dddd1c01bd,null,null,"<p style=""font-size: 60px; font-family: BACS"">vYLUZvkL</p>",,,,,,,,,,
html-keyboard-response,59,126860,0.0-8.0-0.51,613a73d06cf1fcfef304d3fa,650c16f0f2faf8d7a0d14c09,651c357654d122dddd1c01bd,null,null,"<p style=""font-size: 60px; font-family: BACS"">OLJblYaum</p>",,,,,,,,,,
html-keyboard-response,60,127866,0.0-8.0-0.52,613a73d06cf1fcfef304d3fa,650c16f0f2faf8d7a0d14c09,651c357654d122dddd1c01bd,null,null,"<p style=""font-size: 60px; font-family: BACS"">uauOZvkL</p>",,,,,,,,,,
html-keyboard-response,61,128870,0.0-8.0-0.53,613a73d06cf1fcfef304d3fa,650c16f0f2faf8d7a0d14c09,651c357654d122dddd1c01bd,null,null,"<p style=""font-size: 60px; font-family: BACS"">ckduAuvJ</p>",,,,,,,,,,
html-keyboard-response,62,129885,0.0-8.0-0.54,613a73d06cf1fcfef304d3fa,650c16f0f2faf8d7a0d14c09,651c357654d122dddd1c01bd,null,null,"<p style=""font-size: 60px; font-family: BACS"">chEDOYBO</p>",,,,,,,,,,
html-keyboard-response,63,130895,0.0-8.0-0.55,613a73d06cf1fcfef304d3fa,650c16f0f2faf8d7a0d14c09,651c357654d122dddd1c01bd,null,null,"<p style=""font-size: 60px; font-family: BACS"">ckduAYaOk</p>",,,,,,,,,,
html-keyboard-response,64,131899,0.0-8.0-0.56,613a73d06cf1fcfef304d3fa,650c16f0f2faf8d7a0d14c09,651c357654d122dddd1c01bd,null,null,"<p style=""font-size: 60px; font-family: BACS"">COtBDCKOb</p>",,,,,,,,,,
html-keyboard-response,65,132902,0.0-8.0-0.57,613a73d06cf1fcfef304d3fa,650c16f0f2faf8d7a0d14c09,651c357654d122dddd1c01bd,null,null,"<p style=""font-size: 60px; font-family: BACS"">AbkaYaOk</p>",,,,,,,,,,
html-keyboard-response,66,133908,0.0-8.0-0.58,613a73d06cf1fcfef304d3fa,650c16f0f2faf8d7a0d14c09,651c357654d122dddd1c01bd,null,null,"<p style=""font-size: 60px; font-family: BACS"">AZlLNuvJ</p>",,,,,,,,,,
html-keyboard-response,67,134913,0.0-8.0-0.59,613a73d06cf1fcfef304d3fa,650c16f0f2faf8d7a0d14c09,651c357654d122dddd1c01bd,null,null,"<p style=""font-size: 60px; font-family: BACS"">EPERdCKOb</p>",,,,,,,,,,
html-keyboard-response,68,135925,0.0-8.0-0.60,613a73d06cf1fcfef304d3fa,650c16f0f2faf8d7a0d14c09,651c357654d122dddd1c01bd,null,null,"<p style=""font-size: 60px; font-family: BACS"">AZlLNZvkL</p>",,,,,,,,,,
html-keyboard-response,69,136932,0.0-8.0-0.61,613a73d06cf1fcfef304d3fa,650c16f0f2faf8d7a0d14c09,651c357654d122dddd1c01bd,null,null,"<p style=""font-size: 60px; font-family: BACS"">CYPcAPEM</p>",,,,,,,,,,
html-keyboard-response,70,137936,0.0-8.0-0.62,613a73d06cf1fcfef304d3fa,650c16f0f2faf8d7a0d14c09,651c357654d122dddd1c01bd,null,null,"<p style=""font-size: 60px; font-family: BACS"">COtBDYbBT</p>",,,,,,,,,,
html-keyboard-response,71,138941,0.0-8.0-0.63,613a73d06cf1fcfef304d3fa,650c16f0f2faf8d7a0d14c09,651c357654d122dddd1c01bd,null,null,"<p style=""font-size: 60px; font-family: BACS"">OLJblYaOk</p>",,,,,,,,,,
html-keyboard-response,72,139955,0.0-8.0-0.64,613a73d06cf1fcfef304d3fa,650c16f0f2faf8d7a0d14c09,651c357654d122dddd1c01bd,null,null,"<p style=""font-size: 60px; font-family: BACS"">CYPcmKcD</p>",,,,,,,,,,
html-keyboard-response,73,140971,0.0-8.0-0.65,613a73d06cf1fcfef304d3fa,650c16f0f2faf8d7a0d14c09,651c357654d122dddd1c01bd,null,null,"<p style=""font-size: 60px; font-family: BACS"">DmAMECKOb</p>",,,,,,,,,,
html-keyboard-response,74,141987,0.0-8.0-0.66,613a73d06cf1fcfef304d3fa,650c16f0f2faf8d7a0d14c09,651c357654d122dddd1c01bd,null,null,"<p style=""font-size: 60px; font-family: BACS"">ZNLOvZvkL</p>",,,,,,,,,,
html-keyboard-response,75,143000,0.0-8.0-0.67,613a73d06cf1fcfef304d3fa,650c16f0f2faf8d7a0d14c09,651c357654d122dddd1c01bd,null,null,"<p style=""font-size: 60px; font-family: BACS"">CYPcCKOb</p>",,,,,,,,,,
html-keyboard-response,76,144015,0.0-8.0-0.68,613a73d06cf1fcfef304d3fa,650c16f0f2faf8d7a0d14c09,651c357654d122dddd1c01bd,null,null,"<p style=""font-size: 60px; font-family: BACS"">laYmrZAUu</p>",,,,,,,,,,
html-keyboard-response,77,145018,0.0-8.0-0.69,613a73d06cf1fcfef304d3fa,650c16f0f2faf8d7a0d14c09,651c357654d122dddd1c01bd,null,null,"<p style=""font-size: 60px; font-family: BACS"">lcOcuvJ</p>",,,,,,,,,,
html-keyboard-response,78,146023,0.0-8.0-0.70,613a73d06cf1fcfef304d3fa,650c16f0f2faf8d7a0d14c09,651c357654d122dddd1c01bd,null,null,"<p style=""font-size: 60px; font-family: BACS"">MkmEdCKOb</p>",,,,,,,,,,
html-keyboard-response,79,147029,0.0-8.0-0.71,613a73d06cf1fcfef304d3fa,650c16f0f2faf8d7a0d14c09,651c357654d122dddd1c01bd,null,null,"<p style=""font-size: 60px; font-family: BACS"">COtBDAPEM</p>",,,,,,,,,,
html-keyboard-response,80,148032,0.0-8.0-0.72,613a73d06cf1fcfef304d3fa,650c16f0f2faf8d7a0d14c09,651c357654d122dddd1c01bd,null,null,"<p style=""font-size: 60px; font-family: BACS"">ZNLOvZAUu</p>",,,,,,,,,,
html-keyboard-response,81,149038,0.0-8.0-0.73,613a73d06cf1fcfef304d3fa,650c16f0f2faf8d7a0d14c09,651c357654d122dddd1c01bd,null,null,"<p style=""font-size: 60px; font-family: BACS"">AbkauvJ</p>",,,,,,,,,,
html-keyboard-response,82,150042,0.0-8.0-0.74,613a73d06cf1fcfef304d3fa,650c16f0f2faf8d7a0d14c09,651c357654d122dddd1c01bd,null,null,"<p style=""font-size: 60px; font-family: BACS"">ckduAZvkL</p>",,,,,,,,,,
html-keyboard-response,83,151052,0.0-8.0-0.75,613a73d06cf1fcfef304d3fa,650c16f0f2faf8d7a0d14c09,651c357654d122dddd1c01bd,null,null,"<p style=""font-size: 60px; font-family: BACS"">MBmEmKcD</p>",,,,,,,,,,
html-keyboard-response,84,152066,0.0-8.0-0.76,613a73d06cf1fcfef304d3fa,650c16f0f2faf8d7a0d14c09,651c357654d122dddd1c01bd,null,null,"<p style=""font-size: 60px; font-family: BACS"">AZlLNYaum</p>",,,,,,,,,,
html-keyboard-response,85,153082,0.0-8.0-0.77,613a73d06cf1fcfef304d3fa,650c16f0f2faf8d7a0d14c09,651c357654d122dddd1c01bd,null,null,"<p style=""font-size: 60px; font-family: BACS"">COtBDmKcD</p>",,,,,,,,,,
html-keyboard-response,86,154091,0.0-8.0-0.78,613a73d06cf1fcfef304d3fa,650c16f0f2faf8d7a0d14c09,651c357654d122dddd1c01bd,null,null,"<p style=""font-size: 60px; font-family: BACS"">chEDOCKOb</p>",,,,,,,,,,
html-keyboard-response,87,155105,0.0-8.0-0.79,613a73d06cf1fcfef304d3fa,650c16f0f2faf8d7a0d14c09,651c357654d122dddd1c01bd,null,null,"<p style=""font-size: 60px; font-family: BACS"">RKYkYBO</p>",,,,,,,,,,
html-keyboard-response,88,160874,0.0-9.0,613a73d06cf1fcfef304d3fa,650c16f0f2faf8d7a0d14c09,651c357654d122dddd1c01bd,5766, ,"<p>Great, you've seen the first block of words. You may now take a short break.</p>
      <p>Press the spacebar when you're ready to continue.</p>",,,,,,,,,,
html-keyboard-response,89,161880,0.0-10.0-0.0,613a73d06cf1fcfef304d3fa,650c16f0f2faf8d7a0d14c09,651c357654d122dddd1c01bd,null,null,"<p style=""font-size: 60px; font-family: BACS"">laYmruvJ</p>",,,,,,,,,,
html-keyboard-response,90,162891,0.0-10.0-0.1,613a73d06cf1fcfef304d3fa,650c16f0f2faf8d7a0d14c09,651c357654d122dddd1c01bd,null,null,"<p style=""font-size: 60px; font-family: BACS"">EPERdCKOb</p>",,,,,,,,,,
html-keyboard-response,91,163896,0.0-10.0-0.2,613a73d06cf1fcfef304d3fa,650c16f0f2faf8d7a0d14c09,651c357654d122dddd1c01bd,null,null,"<p style=""font-size: 60px; font-family: BACS"">AbkaZAUu</p>",,,,,,,,,,
html-keyboard-response,92,164904,0.0-10.0-0.3,613a73d06cf1fcfef304d3fa,650c16f0f2faf8d7a0d14c09,651c357654d122dddd1c01bd,null,null,"<p style=""font-size: 60px; font-family: BACS"">MkmEdmKcD</p>",,,,,,,,,,
html-keyboard-response,93,165915,0.0-10.0-0.4,613a73d06cf1fcfef304d3fa,650c16f0f2faf8d7a0d14c09,651c357654d122dddd1c01bd,null,null,"<p style=""font-size: 60px; font-family: BACS"">AZlLNuvJ</p>",,,,,,,,,,
html-keyboard-response,94,166919,0.0-10.0-0.5,613a73d06cf1fcfef304d3fa,650c16f0f2faf8d7a0d14c09,651c357654d122dddd1c01bd,null,null,"<p style=""font-size: 60px; font-family: BACS"">COtBDAPEM</p>",,,,,,,,,,
html-keyboard-response,95,167935,0.0-10.0-0.6,613a73d06cf1fcfef304d3fa,650c16f0f2faf8d7a0d14c09,651c357654d122dddd1c01bd,null,null,"<p style=""font-size: 60px; font-family: BACS"">vYLUYaOk</p>",,,,,,,,,,
html-keyboard-response,96,168943,0.0-10.0-0.7,613a73d06cf1fcfef304d3fa,650c16f0f2faf8d7a0d14c09,651c357654d122dddd1c01bd,null,null,"<p style=""font-size: 60px; font-family: BACS"">uauOYaum</p>",,,,,,,,,,
html-keyboard-response,97,169949,0.0-10.0-0.8,613a73d06cf1fcfef304d3fa,650c16f0f2faf8d7a0d14c09,651c357654d122dddd1c01bd,null,null,"<p style=""font-size: 60px; font-family: BACS"">chEDOAPEM</p>",,,,,,,,,,
html-keyboard-response,98,170954,0.0-10.0-0.9,613a73d06cf1fcfef304d3fa,650c16f0f2faf8d7a0d14c09,651c357654d122dddd1c01bd,null,null,"<p style=""font-size: 60px; font-family: BACS"">lcOcZAUu</p>",,,,,,,,,,
html-keyboard-response,99,171958,0.0-10.0-0.10,613a73d06cf1fcfef304d3fa,650c16f0f2faf8d7a0d14c09,651c357654d122dddd1c01bd,null,null,"<p style=""font-size: 60px; font-family: BACS"">cRElDAPEM</p>",,,,,,,,,,
html-keyboard-response,100,172962,0.0-10.0-0.11,613a73d06cf1fcfef304d3fa,650c16f0f2faf8d7a0d14c09,651c357654d122dddd1c01bd,null,null,"<p style=""font-size: 60px; font-family: BACS"">MkmEdYbBT</p>",,,,,,,,,,
html-keyboard-response,101,173966,0.0-10.0-0.12,613a73d06cf1fcfef304d3fa,650c16f0f2faf8d7a0d14c09,651c357654d122dddd1c01bd,null,null,"<p style=""font-size: 60px; font-family: BACS"">cRElDmKcD</p>",,,,,,,,,,
html-keyboard-response,102,174971,0.0-10.0-0.13,613a73d06cf1fcfef304d3fa,650c16f0f2faf8d7a0d14c09,651c357654d122dddd1c01bd,null,null,"<p style=""font-size: 60px; font-family: BACS"">AbkaYaOk</p>",,,,,,,,,,
html-keyboard-response,103,175976,0.0-10.0-0.14,613a73d06cf1fcfef304d3fa,650c16f0f2faf8d7a0d14c09,651c357654d122dddd1c01bd,null,null,"<p style=""font-size: 60px; font-family: BACS"">vYLUuvJ</p>",,,,,,,,,,
html-keyboard-response,104,176981,0.0-10.0-0.15,613a73d06cf1fcfef304d3fa,650c16f0f2faf8d7a0d14c09,651c357654d122dddd1c01bd,null,null,"<p style=""font-size: 60px; font-family: BACS"">ckduAZvkL</p>",,,,,,,,,,
html-keyboard-response,105,177986,0.0-10.0-0.16,613a73d06cf1fcfef304d3fa,650c16f0f2faf8d7a0d14c09,651c357654d122dddd1c01bd,null,null,"<p style=""font-size: 60px; font-family: BACS"">chEDOYBO</p>",,,,,,,,,,
html-keyboard-response,106,179000,0.0-10.0-0.17,613a73d06cf1fcfef304d3fa,650c16f0f2faf8d7a0d14c09,651c357654d122dddd1c01bd,null,null,"<p style=""font-size: 60px; font-family: BACS"">AZlLNYaum</p>",,,,,,,,,,
html-keyboard-response,107,180004,0.0-10.0-0.18,613a73d06cf1fcfef304d3fa,650c16f0f2faf8d7a0d14c09,651c357654d122dddd1c01bd,null,null,"<p style=""font-size: 60px; font-family: BACS"">ZNLOvZAUu</p>",,,,,,,,,,
html-keyboard-response,108,181011,0.0-10.0-0.19,613a73d06cf1fcfef304d3fa,650c16f0f2faf8d7a0d14c09,651c357654d122dddd1c01bd,null,null,"<p style=""font-size: 60px; font-family: BACS"">lcOcZvkL</p>",,,,,,,,,,
html-keyboard-response,109,182019,0.0-10.0-0.20,613a73d06cf1fcfef304d3fa,650c16f0f2faf8d7a0d14c09,651c357654d122dddd1c01bd,null,null,"<p style=""font-size: 60px; font-family: BACS"">uauOuvJ</p>",,,,,,,,,,
html-keyboard-response,110,183033,0.0-10.0-0.21,613a73d06cf1fcfef304d3fa,650c16f0f2faf8d7a0d14c09,651c357654d122dddd1c01bd,null,null,"<p style=""font-size: 60px; font-family: BACS"">MBmEmKcD</p>",,,,,,,,,,
html-keyboard-response,111,184040,0.0-10.0-0.22,613a73d06cf1fcfef304d3fa,650c16f0f2faf8d7a0d14c09,651c357654d122dddd1c01bd,null,null,"<p style=""font-size: 60px; font-family: BACS"">AZlLNZvkL</p>",,,,,,,,,,
html-keyboard-response,112,185052,0.0-10.0-0.23,613a73d06cf1fcfef304d3fa,650c16f0f2faf8d7a0d14c09,651c357654d122dddd1c01bd,null,null,"<p style=""font-size: 60px; font-family: BACS"">cRElDYBO</p>",,,,,,,,,,
html-keyboard-response,113,186056,0.0-10.0-0.24,613a73d06cf1fcfef304d3fa,650c16f0f2faf8d7a0d14c09,651c357654d122dddd1c01bd,null,null,"<p style=""font-size: 60px; font-family: BACS"">CYPcCKOb</p>",,,,,,,,,,
html-keyboard-response,114,187067,0.0-10.0-0.25,613a73d06cf1fcfef304d3fa,650c16f0f2faf8d7a0d14c09,651c357654d122dddd1c01bd,null,null,"<p style=""font-size: 60px; font-family: BACS"">MBmEYbBT</p>",,,,,,,,,,
html-keyboard-response,115,188082,0.0-10.0-0.26,613a73d06cf1fcfef304d3fa,650c16f0f2faf8d7a0d14c09,651c357654d122dddd1c01bd,null,null,"<p style=""font-size: 60px; font-family: BACS"">YKRkmKcD</p>",,,,,,,,,,
html-keyboard-response,116,189087,0.0-10.0-0.27,613a73d06cf1fcfef304d3fa,650c16f0f2faf8d7a0d14c09,651c357654d122dddd1c01bd,null,null,"<p style=""font-size: 60px; font-family: BACS"">mrOdZvkL</p>",,,,,,,,,,
html-keyboard-response,117,190091,0.0-10.0-0.28,613a73d06cf1fcfef304d3fa,650c16f0f2faf8d7a0d14c09,651c357654d122dddd1c01bd,null,null,"<p style=""font-size: 60px; font-family: BACS"">uauOYaOk</p>",,,,,,,,,,
html-keyboard-response,118,191096,0.0-10.0-0.29,613a73d06cf1fcfef304d3fa,650c16f0f2faf8d7a0d14c09,651c357654d122dddd1c01bd,null,null,"<p style=""font-size: 60px; font-family: BACS"">MkmEdYBO</p>",,,,,,,,,,
html-keyboard-response,119,192100,0.0-10.0-0.30,613a73d06cf1fcfef304d3fa,650c16f0f2faf8d7a0d14c09,651c357654d122dddd1c01bd,null,null,"<p style=""font-size: 60px; font-family: BACS"">chEDOCKOb</p>",,,,,,,,,,
html-keyboard-response,120,193104,0.0-10.0-0.31,613a73d06cf1fcfef304d3fa,650c16f0f2faf8d7a0d14c09,651c357654d122dddd1c01bd,null,null,"<p style=""font-size: 60px; font-family: BACS"">laYmrYaOk</p>",,,,,,,,,,
html-keyboard-response,121,194109,0.0-10.0-0.32,613a73d06cf1fcfef304d3fa,650c16f0f2faf8d7a0d14c09,651c357654d122dddd1c01bd,null,null,"<p style=""font-size: 60px; font-family: BACS"">COtBDmKcD</p>",,,,,,,,,,
html-keyboard-response,122,195113,0.0-10.0-0.33,613a73d06cf1fcfef304d3fa,650c16f0f2faf8d7a0d14c09,651c357654d122dddd1c01bd,null,null,"<p style=""font-size: 60px; font-family: BACS"">DmAMEYBO</p>",,,,,,,,,,
html-keyboard-response,123,196119,0.0-10.0-0.34,613a73d06cf1fcfef304d3fa,650c16f0f2faf8d7a0d14c09,651c357654d122dddd1c01bd,null,null,"<p style=""font-size: 60px; font-family: BACS"">EPERdYbBT</p>",,,,,,,,,,
html-keyboard-response,124,197124,0.0-10.0-0.35,613a73d06cf1fcfef304d3fa,650c16f0f2faf8d7a0d14c09,651c357654d122dddd1c01bd,null,null,"<p style=""font-size: 60px; font-family: BACS"">ckduAZAUu</p>",,,,,,,,,,
html-keyboard-response,125,198131,0.0-10.0-0.36,613a73d06cf1fcfef304d3fa,650c16f0f2faf8d7a0d14c09,651c357654d122dddd1c01bd,null,null,"<p style=""font-size: 60px; font-family: BACS"">DmAMECKOb</p>",,,,,,,,,,
html-keyboard-response,126,199148,0.0-10.0-0.37,613a73d06cf1fcfef304d3fa,650c16f0f2faf8d7a0d14c09,651c357654d122dddd1c01bd,null,null,"<p style=""font-size: 60px; font-family: BACS"">MBmEAPEM</p>",,,,,,,,,,
html-keyboard-response,127,200162,0.0-10.0-0.38,613a73d06cf1fcfef304d3fa,650c16f0f2faf8d7a0d14c09,651c357654d122dddd1c01bd,null,null,"<p style=""font-size: 60px; font-family: BACS"">uauOZvkL</p>",,,,,,,,,,
html-keyboard-response,128,201167,0.0-10.0-0.39,613a73d06cf1fcfef304d3fa,650c16f0f2faf8d7a0d14c09,651c357654d122dddd1c01bd,null,null,"<p style=""font-size: 60px; font-family: BACS"">YKRkYbBT</p>",,,,,,,,,,
html-keyboard-response,129,202170,0.0-10.0-0.40,613a73d06cf1fcfef304d3fa,650c16f0f2faf8d7a0d14c09,651c357654d122dddd1c01bd,null,null,"<p style=""font-size: 60px; font-family: BACS"">laYmrZAUu</p>",,,,,,,,,,
html-keyboard-response,130,203176,0.0-10.0-0.41,613a73d06cf1fcfef304d3fa,650c16f0f2faf8d7a0d14c09,651c357654d122dddd1c01bd,null,null,"<p style=""font-size: 60px; font-family: BACS"">ckduAYaOk</p>",,,,,,,,,,
html-keyboard-response,131,204192,0.0-10.0-0.42,613a73d06cf1fcfef304d3fa,650c16f0f2faf8d7a0d14c09,651c357654d122dddd1c01bd,null,null,"<p style=""font-size: 60px; font-family: BACS"">DmAMEYbBT</p>",,,,,,,,,,
html-keyboard-response,132,205210,0.0-10.0-0.43,613a73d06cf1fcfef304d3fa,650c16f0f2faf8d7a0d14c09,651c357654d122dddd1c01bd,null,null,"<p style=""font-size: 60px; font-family: BACS"">AZlLNZAUu</p>",,,,,,,,,,
html-keyboard-response,133,206224,0.0-10.0-0.44,613a73d06cf1fcfef304d3fa,650c16f0f2faf8d7a0d14c09,651c357654d122dddd1c01bd,null,null,"<p style=""font-size: 60px; font-family: BACS"">DmAMEAPEM</p>",,,,,,,,,,
html-keyboard-response,134,207229,0.0-10.0-0.45,613a73d06cf1fcfef304d3fa,650c16f0f2faf8d7a0d14c09,651c357654d122dddd1c01bd,null,null,"<p style=""font-size: 60px; font-family: BACS"">COtBDCKOb</p>",,,,,,,,,,
html-keyboard-response,135,208245,0.0-10.0-0.46,613a73d06cf1fcfef304d3fa,650c16f0f2faf8d7a0d14c09,651c357654d122dddd1c01bd,null,null,"<p style=""font-size: 60px; font-family: BACS"">chEDOmKcD</p>",,,,,,,,,,
html-keyboard-response,136,209257,0.0-10.0-0.47,613a73d06cf1fcfef304d3fa,650c16f0f2faf8d7a0d14c09,651c357654d122dddd1c01bd,null,null,"<p style=""font-size: 60px; font-family: BACS"">mrOduvJ</p>",,,,,,,,,,
html-keyboard-response,137,210259,0.0-10.0-0.48,613a73d06cf1fcfef304d3fa,650c16f0f2faf8d7a0d14c09,651c357654d122dddd1c01bd,null,null,"<p style=""font-size: 60px; font-family: BACS"">CYPcYbBT</p>",,,,,,,,,,
html-keyboard-response,138,211263,0.0-10.0-0.49,613a73d06cf1fcfef304d3fa,650c16f0f2faf8d7a0d14c09,651c357654d122dddd1c01bd,null,null,"<p style=""font-size: 60px; font-family: BACS"">vYLUZAUu</p>",,,,,,,,,,
html-keyboard-response,139,212277,0.0-10.0-0.50,613a73d06cf1fcfef304d3fa,650c16f0f2faf8d7a0d14c09,651c357654d122dddd1c01bd,null,null,"<p style=""font-size: 60px; font-family: BACS"">ZNLOvYaOk</p>",,,,,,,,,,
html-keyboard-response,140,213282,0.0-10.0-0.51,613a73d06cf1fcfef304d3fa,650c16f0f2faf8d7a0d14c09,651c357654d122dddd1c01bd,null,null,"<p style=""font-size: 60px; font-family: BACS"">MBmEYBO</p>",,,,,,,,,,
html-keyboard-response,141,214296,0.0-10.0-0.52,613a73d06cf1fcfef304d3fa,650c16f0f2faf8d7a0d14c09,651c357654d122dddd1c01bd,null,null,"<p style=""font-size: 60px; font-family: BACS"">EPERdAPEM</p>",,,,,,,,,,
html-keyboard-response,142,215307,0.0-10.0-0.53,613a73d06cf1fcfef304d3fa,650c16f0f2faf8d7a0d14c09,651c357654d122dddd1c01bd,null,null,"<p style=""font-size: 60px; font-family: BACS"">AbkauvJ</p>",,,,,,,,,,
html-keyboard-response,143,216311,0.0-10.0-0.54,613a73d06cf1fcfef304d3fa,650c16f0f2faf8d7a0d14c09,651c357654d122dddd1c01bd,null,null,"<p style=""font-size: 60px; font-family: BACS"">ZNLOvZvkL</p>",,,,,,,,,,
html-keyboard-response,144,217316,0.0-10.0-0.55,613a73d06cf1fcfef304d3fa,650c16f0f2faf8d7a0d14c09,651c357654d122dddd1c01bd,null,null,"<p style=""font-size: 60px; font-family: BACS"">RKYkYbBT</p>",,,,,,,,,,
html-keyboard-response,145,218331,0.0-10.0-0.56,613a73d06cf1fcfef304d3fa,650c16f0f2faf8d7a0d14c09,651c357654d122dddd1c01bd,null,null,"<p style=""font-size: 60px; font-family: BACS"">OLJblZvkL</p>",,,,,,,,,,
html-keyboard-response,146,219334,0.0-10.0-0.57,613a73d06cf1fcfef304d3fa,650c16f0f2faf8d7a0d14c09,651c357654d122dddd1c01bd,null,null,"<p style=""font-size: 60px; font-family: BACS"">RKYkmKcD</p>",,,,,,,,,,
html-keyboard-response,147,220346,0.0-10.0-0.58,613a73d06cf1fcfef304d3fa,650c16f0f2faf8d7a0d14c09,651c357654d122dddd1c01bd,null,null,"<p style=""font-size: 60px; font-family: BACS"">CYPcAPEM</p>",,,,,,,,,,
html-keyboard-response,148,221359,0.0-10.0-0.59,613a73d06cf1fcfef304d3fa,650c16f0f2faf8d7a0d14c09,651c357654d122dddd1c01bd,null,null,"<p style=""font-size: 60px; font-family: BACS"">COtBDYbBT</p>",,,,,,,,,,
html-keyboard-response,149,222364,0.0-10.0-0.60,613a73d06cf1fcfef304d3fa,650c16f0f2faf8d7a0d14c09,651c357654d122dddd1c01bd,null,null,"<p style=""font-size: 60px; font-family: BACS"">lcOcYaum</p>",,,,,,,,,,
html-keyboard-response,150,223366,0.0-10.0-0.61,613a73d06cf1fcfef304d3fa,650c16f0f2faf8d7a0d14c09,651c357654d122dddd1c01bd,null,null,"<p style=""font-size: 60px; font-family: BACS"">YKRkYBO</p>",,,,,,,,,,
html-keyboard-response,151,224372,0.0-10.0-0.62,613a73d06cf1fcfef304d3fa,650c16f0f2faf8d7a0d14c09,651c357654d122dddd1c01bd,null,null,"<p style=""font-size: 60px; font-family: BACS"">vYLUZvkL</p>",,,,,,,,,,
html-keyboard-response,152,225376,0.0-10.0-0.63,613a73d06cf1fcfef304d3fa,650c16f0f2faf8d7a0d14c09,651c357654d122dddd1c01bd,null,null,"<p style=""font-size: 60px; font-family: BACS"">ZNLOvYaum</p>",,,,,,,,,,
html-keyboard-response,153,226382,0.0-10.0-0.64,613a73d06cf1fcfef304d3fa,650c16f0f2faf8d7a0d14c09,651c357654d122dddd1c01bd,null,null,"<p style=""font-size: 60px; font-family: BACS"">EPERdYBO</p>",,,,,,,,,,
html-keyboard-response,154,227397,0.0-10.0-0.65,613a73d06cf1fcfef304d3fa,650c16f0f2faf8d7a0d14c09,651c357654d122dddd1c01bd,null,null,"<p style=""font-size: 60px; font-family: BACS"">OLJblZAUu</p>",,,,,,,,,,
html-keyboard-response,155,228401,0.0-10.0-0.66,613a73d06cf1fcfef304d3fa,650c16f0f2faf8d7a0d14c09,651c357654d122dddd1c01bd,null,null,"<p style=""font-size: 60px; font-family: BACS"">laYmrYaum</p>",,,,,,,,,,
html-keyboard-response,156,229415,0.0-10.0-0.67,613a73d06cf1fcfef304d3fa,650c16f0f2faf8d7a0d14c09,651c357654d122dddd1c01bd,null,null,"<p style=""font-size: 60px; font-family: BACS"">RKYkCKOb</p>",,,,,,,,,,
html-keyboard-response,157,230419,0.0-10.0-0.68,613a73d06cf1fcfef304d3fa,650c16f0f2faf8d7a0d14c09,651c357654d122dddd1c01bd,null,null,"<p style=""font-size: 60px; font-family: BACS"">lcOcuvJ</p>",,,,,,,,,,
html-keyboard-response,158,231431,0.0-10.0-0.69,613a73d06cf1fcfef304d3fa,650c16f0f2faf8d7a0d14c09,651c357654d122dddd1c01bd,null,null,"<p style=""font-size: 60px; font-family: BACS"">CYPcmKcD</p>",,,,,,,,,,
html-keyboard-response,159,232445,0.0-10.0-0.70,613a73d06cf1fcfef304d3fa,650c16f0f2faf8d7a0d14c09,651c357654d122dddd1c01bd,null,null,"<p style=""font-size: 60px; font-family: BACS"">mrOdYaum</p>",,,,,,,,,,
html-keyboard-response,160,233455,0.0-10.0-0.71,613a73d06cf1fcfef304d3fa,650c16f0f2faf8d7a0d14c09,651c357654d122dddd1c01bd,null,null,"<p style=""font-size: 60px; font-family: BACS"">ckduAuvJ</p>",,,,,,,,,,
html-keyboard-response,161,234470,0.0-10.0-0.72,613a73d06cf1fcfef304d3fa,650c16f0f2faf8d7a0d14c09,651c357654d122dddd1c01bd,null,null,"<p style=""font-size: 60px; font-family: BACS"">AbkaYaum</p>",,,,,,,,,,
html-keyboard-response,162,235485,0.0-10.0-0.73,613a73d06cf1fcfef304d3fa,650c16f0f2faf8d7a0d14c09,651c357654d122dddd1c01bd,null,null,"<p style=""font-size: 60px; font-family: BACS"">mrOdYaOk</p>",,,,,,,,,,
html-keyboard-response,163,236501,0.0-10.0-0.74,613a73d06cf1fcfef304d3fa,650c16f0f2faf8d7a0d14c09,651c357654d122dddd1c01bd,null,null,"<p style=""font-size: 60px; font-family: BACS"">MkmEdCKOb</p>",,,,,,,,,,
html-keyboard-response,164,237508,0.0-10.0-0.75,613a73d06cf1fcfef304d3fa,650c16f0f2faf8d7a0d14c09,651c357654d122dddd1c01bd,null,null,"<p style=""font-size: 60px; font-family: BACS"">OLJblYaOk</p>",,,,,,,,,,
html-keyboard-response,165,238513,0.0-10.0-0.76,613a73d06cf1fcfef304d3fa,650c16f0f2faf8d7a0d14c09,651c357654d122dddd1c01bd,null,null,"<p style=""font-size: 60px; font-family: BACS"">YKRkAPEM</p>",,,,,,,,,,
html-keyboard-response,166,239518,0.0-10.0-0.77,613a73d06cf1fcfef304d3fa,650c16f0f2faf8d7a0d14c09,651c357654d122dddd1c01bd,null,null,"<p style=""font-size: 60px; font-family: BACS"">cRElDCKOb</p>",,,,,,,,,,
html-keyboard-response,167,240520,0.0-10.0-0.78,613a73d06cf1fcfef304d3fa,650c16f0f2faf8d7a0d14c09,651c357654d122dddd1c01bd,null,null,"<p style=""font-size: 60px; font-family: BACS"">RKYkYBO</p>",,,,,,,,,,
html-keyboard-response,168,241527,0.0-10.0-0.79,613a73d06cf1fcfef304d3fa,650c16f0f2faf8d7a0d14c09,651c357654d122dddd1c01bd,null,null,"<p style=""font-size: 60px; font-family: BACS"">OLJblYaum</p>",,,,,,,,,,
html-keyboard-response,169,245478,0.0-11.0,613a73d06cf1fcfef304d3fa,650c16f0f2faf8d7a0d14c09,651c357654d122dddd1c01bd,3948, ,"<p>Great, you've seen the second block of words. You may now take a short break.</p>
      <p>Press the spacebar when you're ready to continue.</p>",,,,,,,,,,
html-keyboard-response,170,246494,0.0-12.0-0.0,613a73d06cf1fcfef304d3fa,650c16f0f2faf8d7a0d14c09,651c357654d122dddd1c01bd,null,null,"<p style=""font-size: 60px; font-family: BACS"">AbkaZAUu</p>",,,,,,,,,,
html-keyboard-response,171,247505,0.0-12.0-0.1,613a73d06cf1fcfef304d3fa,650c16f0f2faf8d7a0d14c09,651c357654d122dddd1c01bd,null,null,"<p style=""font-size: 60px; font-family: BACS"">laYmruvJ</p>",,,,,,,,,,
html-keyboard-response,172,248508,0.0-12.0-0.2,613a73d06cf1fcfef304d3fa,650c16f0f2faf8d7a0d14c09,651c357654d122dddd1c01bd,null,null,"<p style=""font-size: 60px; font-family: BACS"">CYPcCKOb</p>",,,,,,,,,,
html-keyboard-response,173,249522,0.0-12.0-0.3,613a73d06cf1fcfef304d3fa,650c16f0f2faf8d7a0d14c09,651c357654d122dddd1c01bd,null,null,"<p style=""font-size: 60px; font-family: BACS"">AZlLNZvkL</p>",,,,,,,,,,
html-keyboard-response,174,250527,0.0-12.0-0.4,613a73d06cf1fcfef304d3fa,650c16f0f2faf8d7a0d14c09,651c357654d122dddd1c01bd,null,null,"<p style=""font-size: 60px; font-family: BACS"">laYmrYaOk</p>",,,,,,,,,,
html-keyboard-response,175,251533,0.0-12.0-0.5,613a73d06cf1fcfef304d3fa,650c16f0f2faf8d7a0d14c09,651c357654d122dddd1c01bd,null,null,"<p style=""font-size: 60px; font-family: BACS"">chEDOYBO</p>",,,,,,,,,,
html-keyboard-response,176,252540,0.0-12.0-0.6,613a73d06cf1fcfef304d3fa,650c16f0f2faf8d7a0d14c09,651c357654d122dddd1c01bd,null,null,"<p style=""font-size: 60px; font-family: BACS"">mrOdYaOk</p>",,,,,,,,,,
html-keyboard-response,177,253556,0.0-12.0-0.7,613a73d06cf1fcfef304d3fa,650c16f0f2faf8d7a0d14c09,651c357654d122dddd1c01bd,null,null,"<p style=""font-size: 60px; font-family: BACS"">MBmEmKcD</p>",,,,,,,,,,
html-keyboard-response,178,254562,0.0-12.0-0.8,613a73d06cf1fcfef304d3fa,650c16f0f2faf8d7a0d14c09,651c357654d122dddd1c01bd,null,null,"<p style=""font-size: 60px; font-family: BACS"">laYmrYaum</p>",,,,,,,,,,
html-keyboard-response,179,255566,0.0-12.0-0.9,613a73d06cf1fcfef304d3fa,650c16f0f2faf8d7a0d14c09,651c357654d122dddd1c01bd,null,null,"<p style=""font-size: 60px; font-family: BACS"">COtBDAPEM</p>",,,,,,,,,,
html-keyboard-response,180,256571,0.0-12.0-0.10,613a73d06cf1fcfef304d3fa,650c16f0f2faf8d7a0d14c09,651c357654d122dddd1c01bd,null,null,"<p style=""font-size: 60px; font-family: BACS"">OLJblZvkL</p>",,,,,,,,,,
html-keyboard-response,181,257584,0.0-12.0-0.11,613a73d06cf1fcfef304d3fa,650c16f0f2faf8d7a0d14c09,651c357654d122dddd1c01bd,null,null,"<p style=""font-size: 60px; font-family: BACS"">YKRkmKcD</p>",,,,,,,,,,
html-keyboard-response,182,258590,0.0-12.0-0.12,613a73d06cf1fcfef304d3fa,650c16f0f2faf8d7a0d14c09,651c357654d122dddd1c01bd,null,null,"<p style=""font-size: 60px; font-family: BACS"">MkmEdCKOb</p>",,,,,,,,,,
html-keyboard-response,183,259594,0.0-12.0-0.13,613a73d06cf1fcfef304d3fa,650c16f0f2faf8d7a0d14c09,651c357654d122dddd1c01bd,null,null,"<p style=""font-size: 60px; font-family: BACS"">cRElDAPEM</p>",,,,,,,,,,
html-keyboard-response,184,260604,0.0-12.0-0.14,613a73d06cf1fcfef304d3fa,650c16f0f2faf8d7a0d14c09,651c357654d122dddd1c01bd,null,null,"<p style=""font-size: 60px; font-family: BACS"">MBmEYbBT</p>",,,,,,,,,,
html-keyboard-response,185,261618,0.0-12.0-0.15,613a73d06cf1fcfef304d3fa,650c16f0f2faf8d7a0d14c09,651c357654d122dddd1c01bd,null,null,"<p style=""font-size: 60px; font-family: BACS"">YKRkYBO</p>",,,,,,,,,,
html-keyboard-response,186,262634,0.0-12.0-0.16,613a73d06cf1fcfef304d3fa,650c16f0f2faf8d7a0d14c09,651c357654d122dddd1c01bd,null,null,"<p style=""font-size: 60px; font-family: BACS"">CYPcYbBT</p>",,,,,,,,,,
html-keyboard-response,187,263637,0.0-12.0-0.17,613a73d06cf1fcfef304d3fa,650c16f0f2faf8d7a0d14c09,651c357654d122dddd1c01bd,null,null,"<p style=""font-size: 60px; font-family: BACS"">uauOZvkL</p>",,,,,,,,,,
html-keyboard-response,188,264648,0.0-12.0-0.18,613a73d06cf1fcfef304d3fa,650c16f0f2faf8d7a0d14c09,651c357654d122dddd1c01bd,null,null,"<p style=""font-size: 60px; font-family: BACS"">CYPcmKcD</p>",,,,,,,,,,
html-keyboard-response,189,265658,0.0-12.0-0.19,613a73d06cf1fcfef304d3fa,650c16f0f2faf8d7a0d14c09,651c357654d122dddd1c01bd,null,null,"<p style=""font-size: 60px; font-family: BACS"">RKYkYbBT</p>",,,,,,,,,,
html-keyboard-response,190,266662,0.0-12.0-0.20,613a73d06cf1fcfef304d3fa,650c16f0f2faf8d7a0d14c09,651c357654d122dddd1c01bd,null,null,"<p style=""font-size: 60px; font-family: BACS"">ckduAZAUu</p>",,,,,,,,,,
html-keyboard-response,191,267671,0.0-12.0-0.21,613a73d06cf1fcfef304d3fa,650c16f0f2faf8d7a0d14c09,651c357654d122dddd1c01bd,null,null,"<p style=""font-size: 60px; font-family: BACS"">DmAMEYbBT</p>",,,,,,,,,,
html-keyboard-response,192,268685,0.0-12.0-0.22,613a73d06cf1fcfef304d3fa,650c16f0f2faf8d7a0d14c09,651c357654d122dddd1c01bd,null,null,"<p style=""font-size: 60px; font-family: BACS"">AbkaYaum</p>",,,,,,,,,,
html-keyboard-response,193,269696,0.0-12.0-0.23,613a73d06cf1fcfef304d3fa,650c16f0f2faf8d7a0d14c09,651c357654d122dddd1c01bd,null,null,"<p style=""font-size: 60px; font-family: BACS"">ckduAuvJ</p>",,,,,,,,,,
html-keyboard-response,194,270711,0.0-12.0-0.24,613a73d06cf1fcfef304d3fa,650c16f0f2faf8d7a0d14c09,651c357654d122dddd1c01bd,null,null,"<p style=""font-size: 60px; font-family: BACS"">MkmEdYBO</p>",,,,,,,,,,
html-keyboard-response,195,271715,0.0-12.0-0.25,613a73d06cf1fcfef304d3fa,650c16f0f2faf8d7a0d14c09,651c357654d122dddd1c01bd,null,null,"<p style=""font-size: 60px; font-family: BACS"">chEDOAPEM</p>",,,,,,,,,,
html-keyboard-response,196,272720,0.0-12.0-0.26,613a73d06cf1fcfef304d3fa,650c16f0f2faf8d7a0d14c09,651c357654d122dddd1c01bd,null,null,"<p style=""font-size: 60px; font-family: BACS"">MBmEYBO</p>",,,,,,,,,,
html-keyboard-response,197,273724,0.0-12.0-0.27,613a73d06cf1fcfef304d3fa,650c16f0f2faf8d7a0d14c09,651c357654d122dddd1c01bd,null,null,"<p style=""font-size: 60px; font-family: BACS"">CYPcAPEM</p>",,,,,,,,,,
html-keyboard-response,198,274730,0.0-12.0-0.28,613a73d06cf1fcfef304d3fa,650c16f0f2faf8d7a0d14c09,651c357654d122dddd1c01bd,null,null,"<p style=""font-size: 60px; font-family: BACS"">AZlLNuvJ</p>",,,,,,,,,,
html-keyboard-response,199,275733,0.0-12.0-0.29,613a73d06cf1fcfef304d3fa,650c16f0f2faf8d7a0d14c09,651c357654d122dddd1c01bd,null,null,"<p style=""font-size: 60px; font-family: BACS"">OLJblYaum</p>",,,,,,,,,,
html-keyboard-response,200,276738,0.0-12.0-0.30,613a73d06cf1fcfef304d3fa,650c16f0f2faf8d7a0d14c09,651c357654d122dddd1c01bd,null,null,"<p style=""font-size: 60px; font-family: BACS"">cRElDmKcD</p>",,,,,,,,,,
html-keyboard-response,201,277752,0.0-12.0-0.31,613a73d06cf1fcfef304d3fa,650c16f0f2faf8d7a0d14c09,651c357654d122dddd1c01bd,null,null,"<p style=""font-size: 60px; font-family: BACS"">vYLUZAUu</p>",,,,,,,,,,
html-keyboard-response,202,278756,0.0-12.0-0.32,613a73d06cf1fcfef304d3fa,650c16f0f2faf8d7a0d14c09,651c357654d122dddd1c01bd,null,null,"<p style=""font-size: 60px; font-family: BACS"">EPERdYBO</p>",,,,,,,,,,
html-keyboard-response,203,279766,0.0-12.0-0.33,613a73d06cf1fcfef304d3fa,650c16f0f2faf8d7a0d14c09,651c357654d122dddd1c01bd,null,null,"<p style=""font-size: 60px; font-family: BACS"">lcOcYaum</p>",,,,,,,,,,
html-keyboard-response,204,280782,0.0-12.0-0.34,613a73d06cf1fcfef304d3fa,650c16f0f2faf8d7a0d14c09,651c357654d122dddd1c01bd,null,null,"<p style=""font-size: 60px; font-family: BACS"">ZNLOvZAUu</p>",,,,,,,,,,
html-keyboard-response,205,281795,0.0-12.0-0.35,613a73d06cf1fcfef304d3fa,650c16f0f2faf8d7a0d14c09,651c357654d122dddd1c01bd,null,null,"<p style=""font-size: 60px; font-family: BACS"">DmAMECKOb</p>",,,,,,,,,,
html-keyboard-response,206,282797,0.0-12.0-0.36,613a73d06cf1fcfef304d3fa,650c16f0f2faf8d7a0d14c09,651c357654d122dddd1c01bd,null,null,"<p style=""font-size: 60px; font-family: BACS"">mrOdYaum</p>",,,,,,,,,,
html-keyboard-response,207,283805,0.0-12.0-0.37,613a73d06cf1fcfef304d3fa,650c16f0f2faf8d7a0d14c09,651c357654d122dddd1c01bd,null,null,"<p style=""font-size: 60px; font-family: BACS"">RKYkYBO</p>",,,,,,,,,,
html-keyboard-response,208,284811,0.0-12.0-0.38,613a73d06cf1fcfef304d3fa,650c16f0f2faf8d7a0d14c09,651c357654d122dddd1c01bd,null,null,"<p style=""font-size: 60px; font-family: BACS"">YKRkAPEM</p>",,,,,,,,,,
html-keyboard-response,209,285826,0.0-12.0-0.39,613a73d06cf1fcfef304d3fa,650c16f0f2faf8d7a0d14c09,651c357654d122dddd1c01bd,null,null,"<p style=""font-size: 60px; font-family: BACS"">lcOcZAUu</p>",,,,,,,,,,
html-keyboard-response,210,286833,0.0-12.0-0.40,613a73d06cf1fcfef304d3fa,650c16f0f2faf8d7a0d14c09,651c357654d122dddd1c01bd,null,null,"<p style=""font-size: 60px; font-family: BACS"">EPERdCKOb</p>",,,,,,,,,,
html-keyboard-response,211,287839,0.0-12.0-0.41,613a73d06cf1fcfef304d3fa,650c16f0f2faf8d7a0d14c09,651c357654d122dddd1c01bd,null,null,"<p style=""font-size: 60px; font-family: BACS"">laYmrZAUu</p>",,,,,,,,,,
html-keyboard-response,212,288856,0.0-12.0-0.42,613a73d06cf1fcfef304d3fa,650c16f0f2faf8d7a0d14c09,651c357654d122dddd1c01bd,null,null,"<p style=""font-size: 60px; font-family: BACS"">uauOYaum</p>",,,,,,,,,,
html-keyboard-response,213,289873,0.0-12.0-0.43,613a73d06cf1fcfef304d3fa,650c16f0f2faf8d7a0d14c09,651c357654d122dddd1c01bd,null,null,"<p style=""font-size: 60px; font-family: BACS"">OLJblYaOk</p>",,,,,,,,,,
html-keyboard-response,214,290877,0.0-12.0-0.44,613a73d06cf1fcfef304d3fa,650c16f0f2faf8d7a0d14c09,651c357654d122dddd1c01bd,null,null,"<p style=""font-size: 60px; font-family: BACS"">DmAMEYBO</p>",,,,,,,,,,
html-keyboard-response,215,291891,0.0-12.0-0.45,613a73d06cf1fcfef304d3fa,650c16f0f2faf8d7a0d14c09,651c357654d122dddd1c01bd,null,null,"<p style=""font-size: 60px; font-family: BACS"">EPERdAPEM</p>",,,,,,,,,,
html-keyboard-response,216,292896,0.0-12.0-0.46,613a73d06cf1fcfef304d3fa,650c16f0f2faf8d7a0d14c09,651c357654d122dddd1c01bd,null,null,"<p style=""font-size: 60px; font-family: BACS"">vYLUuvJ</p>",,,,,,,,,,
html-keyboard-response,217,293902,0.0-12.0-0.47,613a73d06cf1fcfef304d3fa,650c16f0f2faf8d7a0d14c09,651c357654d122dddd1c01bd,null,null,"<p style=""font-size: 60px; font-family: BACS"">uauOYaOk</p>",,,,,,,,,,
html-keyboard-response,218,294916,0.0-12.0-0.48,613a73d06cf1fcfef304d3fa,650c16f0f2faf8d7a0d14c09,651c357654d122dddd1c01bd,null,null,"<p style=""font-size: 60px; font-family: BACS"">YKRkYbBT</p>",,,,,,,,,,
html-keyboard-response,219,295926,0.0-12.0-0.49,613a73d06cf1fcfef304d3fa,650c16f0f2faf8d7a0d14c09,651c357654d122dddd1c01bd,null,null,"<p style=""font-size: 60px; font-family: BACS"">ckduAYaOk</p>",,,,,,,,,,
html-keyboard-response,220,296939,0.0-12.0-0.50,613a73d06cf1fcfef304d3fa,650c16f0f2faf8d7a0d14c09,651c357654d122dddd1c01bd,null,null,"<p style=""font-size: 60px; font-family: BACS"">MkmEdmKcD</p>",,,,,,,,,,
html-keyboard-response,221,297947,0.0-12.0-0.51,613a73d06cf1fcfef304d3fa,650c16f0f2faf8d7a0d14c09,651c357654d122dddd1c01bd,null,null,"<p style=""font-size: 60px; font-family: BACS"">AbkauvJ</p>",,,,,,,,,,
html-keyboard-response,222,298955,0.0-12.0-0.52,613a73d06cf1fcfef304d3fa,650c16f0f2faf8d7a0d14c09,651c357654d122dddd1c01bd,null,null,"<p style=""font-size: 60px; font-family: BACS"">chEDOmKcD</p>",,,,,,,,,,
html-keyboard-response,223,299970,0.0-12.0-0.53,613a73d06cf1fcfef304d3fa,650c16f0f2faf8d7a0d14c09,651c357654d122dddd1c01bd,null,null,"<p style=""font-size: 60px; font-family: BACS"">AZlLNYaum</p>",,,,,,,,,,
html-keyboard-response,224,300974,0.0-12.0-0.54,613a73d06cf1fcfef304d3fa,650c16f0f2faf8d7a0d14c09,651c357654d122dddd1c01bd,null,null,"<p style=""font-size: 60px; font-family: BACS"">DmAMEAPEM</p>",,,,,,,,,,
html-keyboard-response,225,301984,0.0-12.0-0.55,613a73d06cf1fcfef304d3fa,650c16f0f2faf8d7a0d14c09,651c357654d122dddd1c01bd,null,null,"<p style=""font-size: 60px; font-family: BACS"">EPERdYbBT</p>",,,,,,,,,,
html-keyboard-response,226,302994,0.0-12.0-0.56,613a73d06cf1fcfef304d3fa,650c16f0f2faf8d7a0d14c09,651c357654d122dddd1c01bd,null,null,"<p style=""font-size: 60px; font-family: BACS"">chEDOCKOb</p>",,,,,,,,,,
html-keyboard-response,227,304008,0.0-12.0-0.57,613a73d06cf1fcfef304d3fa,650c16f0f2faf8d7a0d14c09,651c357654d122dddd1c01bd,null,null,"<p style=""font-size: 60px; font-family: BACS"">ckduAZvkL</p>",,,,,,,,,,
html-keyboard-response,228,305015,0.0-12.0-0.58,613a73d06cf1fcfef304d3fa,650c16f0f2faf8d7a0d14c09,651c357654d122dddd1c01bd,null,null,"<p style=""font-size: 60px; font-family: BACS"">MkmEdYbBT</p>",,,,,,,,,,
html-keyboard-response,229,306022,0.0-12.0-0.59,613a73d06cf1fcfef304d3fa,650c16f0f2faf8d7a0d14c09,651c357654d122dddd1c01bd,null,null,"<p style=""font-size: 60px; font-family: BACS"">vYLUZvkL</p>",,,,,,,,,,
html-keyboard-response,230,307030,0.0-12.0-0.60,613a73d06cf1fcfef304d3fa,650c16f0f2faf8d7a0d14c09,651c357654d122dddd1c01bd,null,null,"<p style=""font-size: 60px; font-family: BACS"">RKYkmKcD</p>",,,,,,,,,,
html-keyboard-response,231,308048,0.0-12.0-0.61,613a73d06cf1fcfef304d3fa,650c16f0f2faf8d7a0d14c09,651c357654d122dddd1c01bd,null,null,"<p style=""font-size: 60px; font-family: BACS"">uauOuvJ</p>",,,,,,,,,,
html-keyboard-response,232,309062,0.0-12.0-0.62,613a73d06cf1fcfef304d3fa,650c16f0f2faf8d7a0d14c09,651c357654d122dddd1c01bd,null,null,"<p style=""font-size: 60px; font-family: BACS"">MBmEAPEM</p>",,,,,,,,,,
html-keyboard-response,233,310066,0.0-12.0-0.63,613a73d06cf1fcfef304d3fa,650c16f0f2faf8d7a0d14c09,651c357654d122dddd1c01bd,null,null,"<p style=""font-size: 60px; font-family: BACS"">COtBDCKOb</p>",,,,,,,,,,
html-keyboard-response,234,311078,0.0-12.0-0.64,613a73d06cf1fcfef304d3fa,650c16f0f2faf8d7a0d14c09,651c357654d122dddd1c01bd,null,null,"<p style=""font-size: 60px; font-family: BACS"">lcOcZvkL</p>",,,,,,,,,,
html-keyboard-response,235,312085,0.0-12.0-0.65,613a73d06cf1fcfef304d3fa,650c16f0f2faf8d7a0d14c09,651c357654d122dddd1c01bd,null,null,"<p style=""font-size: 60px; font-family: BACS"">RKYkCKOb</p>",,,,,,,,,,
html-keyboard-response,236,313099,0.0-12.0-0.66,613a73d06cf1fcfef304d3fa,650c16f0f2faf8d7a0d14c09,651c357654d122dddd1c01bd,null,null,"<p style=""font-size: 60px; font-family: BACS"">ZNLOvZvkL</p>",,,,,,,,,,
html-keyboard-response,237,314110,0.0-12.0-0.67,613a73d06cf1fcfef304d3fa,650c16f0f2faf8d7a0d14c09,651c357654d122dddd1c01bd,null,null,"<p style=""font-size: 60px; font-family: BACS"">lcOcuvJ</p>",,,,,,,,,,
html-keyboard-response,238,315115,0.0-12.0-0.68,613a73d06cf1fcfef304d3fa,650c16f0f2faf8d7a0d14c09,651c357654d122dddd1c01bd,null,null,"<p style=""font-size: 60px; font-family: BACS"">COtBDYbBT</p>",,,,,,,,,,
html-keyboard-response,239,316120,0.0-12.0-0.69,613a73d06cf1fcfef304d3fa,650c16f0f2faf8d7a0d14c09,651c357654d122dddd1c01bd,null,null,"<p style=""font-size: 60px; font-family: BACS"">mrOdZvkL</p>",,,,,,,,,,
html-keyboard-response,240,317124,0.0-12.0-0.70,613a73d06cf1fcfef304d3fa,650c16f0f2faf8d7a0d14c09,651c357654d122dddd1c01bd,null,null,"<p style=""font-size: 60px; font-family: BACS"">AZlLNZAUu</p>",,,,,,,,,,
html-keyboard-response,241,318129,0.0-12.0-0.71,613a73d06cf1fcfef304d3fa,650c16f0f2faf8d7a0d14c09,651c357654d122dddd1c01bd,null,null,"<p style=""font-size: 60px; font-family: BACS"">AbkaYaOk</p>",,,,,,,,,,
html-keyboard-response,242,319132,0.0-12.0-0.72,613a73d06cf1fcfef304d3fa,650c16f0f2faf8d7a0d14c09,651c357654d122dddd1c01bd,null,null,"<p style=""font-size: 60px; font-family: BACS"">cRElDCKOb</p>",,,,,,,,,,
html-keyboard-response,243,320138,0.0-12.0-0.73,613a73d06cf1fcfef304d3fa,650c16f0f2faf8d7a0d14c09,651c357654d122dddd1c01bd,null,null,"<p style=""font-size: 60px; font-family: BACS"">ZNLOvYaOk</p>",,,,,,,,,,
html-keyboard-response,244,321142,0.0-12.0-0.74,613a73d06cf1fcfef304d3fa,650c16f0f2faf8d7a0d14c09,651c357654d122dddd1c01bd,null,null,"<p style=""font-size: 60px; font-family: BACS"">OLJblZAUu</p>",,,,,,,,,,
html-keyboard-response,245,322158,0.0-12.0-0.75,613a73d06cf1fcfef304d3fa,650c16f0f2faf8d7a0d14c09,651c357654d122dddd1c01bd,null,null,"<p style=""font-size: 60px; font-family: BACS"">ZNLOvYaum</p>",,,,,,,,,,
html-keyboard-response,246,323162,0.0-12.0-0.76,613a73d06cf1fcfef304d3fa,650c16f0f2faf8d7a0d14c09,651c357654d122dddd1c01bd,null,null,"<p style=""font-size: 60px; font-family: BACS"">mrOduvJ</p>",,,,,,,,,,
html-keyboard-response,247,324171,0.0-12.0-0.77,613a73d06cf1fcfef304d3fa,650c16f0f2faf8d7a0d14c09,651c357654d122dddd1c01bd,null,null,"<p style=""font-size: 60px; font-family: BACS"">cRElDYBO</p>",,,,,,,,,,
html-keyboard-response,248,325186,0.0-12.0-0.78,613a73d06cf1fcfef304d3fa,650c16f0f2faf8d7a0d14c09,651c357654d122dddd1c01bd,null,null,"<p style=""font-size: 60px; font-family: BACS"">COtBDmKcD</p>",,,,,,,,,,
html-keyboard-response,249,326191,0.0-12.0-0.79,613a73d06cf1fcfef304d3fa,650c16f0f2faf8d7a0d14c09,651c357654d122dddd1c01bd,null,null,"<p style=""font-size: 60px; font-family: BACS"">vYLUYaOk</p>",,,,,,,,,,
html-keyboard-response,250,329552,0.0-13.0,613a73d06cf1fcfef304d3fa,650c16f0f2faf8d7a0d14c09,651c357654d122dddd1c01bd,3359, ,"<p>Great, you've seen the third block of words. You may now take a short break.</p>
      <p>Press the spacebar when you're ready to continue.</p>",,,,,,,,,,
html-keyboard-response,251,330555,0.0-14.0-0.0,613a73d06cf1fcfef304d3fa,650c16f0f2faf8d7a0d14c09,651c357654d122dddd1c01bd,null,null,"<p style=""font-size: 60px; font-family: BACS"">EPERdCKOb</p>",,,,,,,,,,
html-keyboard-response,252,331561,0.0-14.0-0.1,613a73d06cf1fcfef304d3fa,650c16f0f2faf8d7a0d14c09,651c357654d122dddd1c01bd,null,null,"<p style=""font-size: 60px; font-family: BACS"">MkmEdYbBT</p>",,,,,,,,,,
html-keyboard-response,253,332574,0.0-14.0-0.2,613a73d06cf1fcfef304d3fa,650c16f0f2faf8d7a0d14c09,651c357654d122dddd1c01bd,null,null,"<p style=""font-size: 60px; font-family: BACS"">uauOuvJ</p>",,,,,,,,,,
html-keyboard-response,254,333584,0.0-14.0-0.3,613a73d06cf1fcfef304d3fa,650c16f0f2faf8d7a0d14c09,651c357654d122dddd1c01bd,null,null,"<p style=""font-size: 60px; font-family: BACS"">MBmEYbBT</p>",,,,,,,,,,
html-keyboard-response,255,334588,0.0-14.0-0.4,613a73d06cf1fcfef304d3fa,650c16f0f2faf8d7a0d14c09,651c357654d122dddd1c01bd,null,null,"<p style=""font-size: 60px; font-family: BACS"">lcOcZvkL</p>",,,,,,,,,,
html-keyboard-response,256,335593,0.0-14.0-0.5,613a73d06cf1fcfef304d3fa,650c16f0f2faf8d7a0d14c09,651c357654d122dddd1c01bd,null,null,"<p style=""font-size: 60px; font-family: BACS"">ZNLOvYaOk</p>",,,,,,,,,,
html-keyboard-response,257,336597,0.0-14.0-0.6,613a73d06cf1fcfef304d3fa,650c16f0f2faf8d7a0d14c09,651c357654d122dddd1c01bd,null,null,"<p style=""font-size: 60px; font-family: BACS"">AZlLNuvJ</p>",,,,,,,,,,
html-keyboard-response,258,337601,0.0-14.0-0.7,613a73d06cf1fcfef304d3fa,650c16f0f2faf8d7a0d14c09,651c357654d122dddd1c01bd,null,null,"<p style=""font-size: 60px; font-family: BACS"">mrOdZvkL</p>",,,,,,,,,,
html-keyboard-response,259,338607,0.0-14.0-0.8,613a73d06cf1fcfef304d3fa,650c16f0f2faf8d7a0d14c09,651c357654d122dddd1c01bd,null,null,"<p style=""font-size: 60px; font-family: BACS"">MBmEYBO</p>",,,,,,,,,,
html-keyboard-response,260,339622,0.0-14.0-0.9,613a73d06cf1fcfef304d3fa,650c16f0f2faf8d7a0d14c09,651c357654d122dddd1c01bd,null,null,"<p style=""font-size: 60px; font-family: BACS"">uauOZvkL</p>",,,,,,,,,,
html-keyboard-response,261,340638,0.0-14.0-0.10,613a73d06cf1fcfef304d3fa,650c16f0f2faf8d7a0d14c09,651c357654d122dddd1c01bd,null,null,"<p style=""font-size: 60px; font-family: BACS"">DmAMEYbBT</p>",,,,,,,,,,
html-keyboard-response,262,341646,0.0-14.0-0.11,613a73d06cf1fcfef304d3fa,650c16f0f2faf8d7a0d14c09,651c357654d122dddd1c01bd,null,null,"<p style=""font-size: 60px; font-family: BACS"">cRElDCKOb</p>",,,,,,,,,,
html-keyboard-response,263,342652,0.0-14.0-0.12,613a73d06cf1fcfef304d3fa,650c16f0f2faf8d7a0d14c09,651c357654d122dddd1c01bd,null,null,"<p style=""font-size: 60px; font-family: BACS"">ZNLOvZvkL</p>",,,,,,,,,,
html-keyboard-response,264,343661,0.0-14.0-0.13,613a73d06cf1fcfef304d3fa,650c16f0f2faf8d7a0d14c09,651c357654d122dddd1c01bd,null,null,"<p style=""font-size: 60px; font-family: BACS"">YKRkmKcD</p>",,,,,,,,,,
html-keyboard-response,265,344670,0.0-14.0-0.14,613a73d06cf1fcfef304d3fa,650c16f0f2faf8d7a0d14c09,651c357654d122dddd1c01bd,null,null,"<p style=""font-size: 60px; font-family: BACS"">AZlLNZAUu</p>",,,,,,,,,,
html-keyboard-response,266,345680,0.0-14.0-0.15,613a73d06cf1fcfef304d3fa,650c16f0f2faf8d7a0d14c09,651c357654d122dddd1c01bd,null,null,"<p style=""font-size: 60px; font-family: BACS"">ckduAZvkL</p>",,,,,,,,,,
html-keyboard-response,267,346684,0.0-14.0-0.16,613a73d06cf1fcfef304d3fa,650c16f0f2faf8d7a0d14c09,651c357654d122dddd1c01bd,null,null,"<p style=""font-size: 60px; font-family: BACS"">uauOYaOk</p>",,,,,,,,,,
html-keyboard-response,268,347690,0.0-14.0-0.17,613a73d06cf1fcfef304d3fa,650c16f0f2faf8d7a0d14c09,651c357654d122dddd1c01bd,null,null,"<p style=""font-size: 60px; font-family: BACS"">RKYkYBO</p>",,,,,,,,,,
html-keyboard-response,269,348694,0.0-14.0-0.18,613a73d06cf1fcfef304d3fa,650c16f0f2faf8d7a0d14c09,651c357654d122dddd1c01bd,null,null,"<p style=""font-size: 60px; font-family: BACS"">YKRkAPEM</p>",,,,,,,,,,
html-keyboard-response,270,349698,0.0-14.0-0.19,613a73d06cf1fcfef304d3fa,650c16f0f2faf8d7a0d14c09,651c357654d122dddd1c01bd,null,null,"<p style=""font-size: 60px; font-family: BACS"">DmAMECKOb</p>",,,,,,,,,,
html-keyboard-response,271,350714,0.0-14.0-0.20,613a73d06cf1fcfef304d3fa,650c16f0f2faf8d7a0d14c09,651c357654d122dddd1c01bd,null,null,"<p style=""font-size: 60px; font-family: BACS"">vYLUYaOk</p>",,,,,,,,,,
html-keyboard-response,272,351717,0.0-14.0-0.21,613a73d06cf1fcfef304d3fa,650c16f0f2faf8d7a0d14c09,651c357654d122dddd1c01bd,null,null,"<p style=""font-size: 60px; font-family: BACS"">AbkaYaum</p>",,,,,,,,,,
html-keyboard-response,273,352728,0.0-14.0-0.22,613a73d06cf1fcfef304d3fa,650c16f0f2faf8d7a0d14c09,651c357654d122dddd1c01bd,null,null,"<p style=""font-size: 60px; font-family: BACS"">COtBDCKOb</p>",,,,,,,,,,
html-keyboard-response,274,353730,0.0-14.0-0.23,613a73d06cf1fcfef304d3fa,650c16f0f2faf8d7a0d14c09,651c357654d122dddd1c01bd,null,null,"<p style=""font-size: 60px; font-family: BACS"">AZlLNYaum</p>",,,,,,,,,,
html-keyboard-response,275,354747,0.0-14.0-0.24,613a73d06cf1fcfef304d3fa,650c16f0f2faf8d7a0d14c09,651c357654d122dddd1c01bd,null,null,"<p style=""font-size: 60px; font-family: BACS"">OLJblZAUu</p>",,,,,,,,,,
html-keyboard-response,276,355761,0.0-14.0-0.25,613a73d06cf1fcfef304d3fa,650c16f0f2faf8d7a0d14c09,651c357654d122dddd1c01bd,null,null,"<p style=""font-size: 60px; font-family: BACS"">EPERdYBO</p>",,,,,,,,,,
html-keyboard-response,277,356766,0.0-14.0-0.26,613a73d06cf1fcfef304d3fa,650c16f0f2faf8d7a0d14c09,651c357654d122dddd1c01bd,null,null,"<p style=""font-size: 60px; font-family: BACS"">chEDOCKOb</p>",,,,,,,,,,
html-keyboard-response,278,357782,0.0-14.0-0.27,613a73d06cf1fcfef304d3fa,650c16f0f2faf8d7a0d14c09,651c357654d122dddd1c01bd,null,null,"<p style=""font-size: 60px; font-family: BACS"">ckduAZAUu</p>",,,,,,,,,,
html-keyboard-response,279,358784,0.0-14.0-0.28,613a73d06cf1fcfef304d3fa,650c16f0f2faf8d7a0d14c09,651c357654d122dddd1c01bd,null,null,"<p style=""font-size: 60px; font-family: BACS"">OLJblYaum</p>",,,,,,,,,,
html-keyboard-response,280,359794,0.0-14.0-0.29,613a73d06cf1fcfef304d3fa,650c16f0f2faf8d7a0d14c09,651c357654d122dddd1c01bd,null,null,"<p style=""font-size: 60px; font-family: BACS"">vYLUuvJ</p>",,,,,,,,,,
html-keyboard-response,281,360797,0.0-14.0-0.30,613a73d06cf1fcfef304d3fa,650c16f0f2faf8d7a0d14c09,651c357654d122dddd1c01bd,null,null,"<p style=""font-size: 60px; font-family: BACS"">EPERdYbBT</p>",,,,,,,,,,
html-keyboard-response,282,361814,0.0-14.0-0.31,613a73d06cf1fcfef304d3fa,650c16f0f2faf8d7a0d14c09,651c357654d122dddd1c01bd,null,null,"<p style=""font-size: 60px; font-family: BACS"">chEDOYBO</p>",,,,,,,,,,
html-keyboard-response,283,362818,0.0-14.0-0.32,613a73d06cf1fcfef304d3fa,650c16f0f2faf8d7a0d14c09,651c357654d122dddd1c01bd,null,null,"<p style=""font-size: 60px; font-family: BACS"">cRElDmKcD</p>",,,,,,,,,,
html-keyboard-response,284,363834,0.0-14.0-0.33,613a73d06cf1fcfef304d3fa,650c16f0f2faf8d7a0d14c09,651c357654d122dddd1c01bd,null,null,"<p style=""font-size: 60px; font-family: BACS"">CYPcAPEM</p>",,,,,,,,,,
html-keyboard-response,285,364838,0.0-14.0-0.34,613a73d06cf1fcfef304d3fa,650c16f0f2faf8d7a0d14c09,651c357654d122dddd1c01bd,null,null,"<p style=""font-size: 60px; font-family: BACS"">MkmEdmKcD</p>",,,,,,,,,,
html-keyboard-response,286,365847,0.0-14.0-0.35,613a73d06cf1fcfef304d3fa,650c16f0f2faf8d7a0d14c09,651c357654d122dddd1c01bd,null,null,"<p style=""font-size: 60px; font-family: BACS"">cRElDYBO</p>",,,,,,,,,,
html-keyboard-response,287,366852,0.0-14.0-0.36,613a73d06cf1fcfef304d3fa,650c16f0f2faf8d7a0d14c09,651c357654d122dddd1c01bd,null,null,"<p style=""font-size: 60px; font-family: BACS"">laYmrYaOk</p>",,,,,,,,,,
html-keyboard-response,288,367857,0.0-14.0-0.37,613a73d06cf1fcfef304d3fa,650c16f0f2faf8d7a0d14c09,651c357654d122dddd1c01bd,null,null,"<p style=""font-size: 60px; font-family: BACS"">DmAMEYBO</p>",,,,,,,,,,
html-keyboard-response,289,368861,0.0-14.0-0.38,613a73d06cf1fcfef304d3fa,650c16f0f2faf8d7a0d14c09,651c357654d122dddd1c01bd,null,null,"<p style=""font-size: 60px; font-family: BACS"">vYLUZAUu</p>",,,,,,,,,,
html-keyboard-response,290,369866,0.0-14.0-0.39,613a73d06cf1fcfef304d3fa,650c16f0f2faf8d7a0d14c09,651c357654d122dddd1c01bd,null,null,"<p style=""font-size: 60px; font-family: BACS"">laYmruvJ</p>",,,,,,,,,,
html-keyboard-response,291,370870,0.0-14.0-0.40,613a73d06cf1fcfef304d3fa,650c16f0f2faf8d7a0d14c09,651c357654d122dddd1c01bd,null,null,"<p style=""font-size: 60px; font-family: BACS"">MBmEmKcD</p>",,,,,,,,,,
html-keyboard-response,292,371885,0.0-14.0-0.41,613a73d06cf1fcfef304d3fa,650c16f0f2faf8d7a0d14c09,651c357654d122dddd1c01bd,null,null,"<p style=""font-size: 60px; font-family: BACS"">COtBDYbBT</p>",,,,,,,,,,
html-keyboard-response,293,372895,0.0-14.0-0.42,613a73d06cf1fcfef304d3fa,650c16f0f2faf8d7a0d14c09,651c357654d122dddd1c01bd,null,null,"<p style=""font-size: 60px; font-family: BACS"">AbkaZAUu</p>",,,,,,,,,,
html-keyboard-response,294,373909,0.0-14.0-0.43,613a73d06cf1fcfef304d3fa,650c16f0f2faf8d7a0d14c09,651c357654d122dddd1c01bd,null,null,"<p style=""font-size: 60px; font-family: BACS"">ckduAYaOk</p>",,,,,,,,,,
html-keyboard-response,295,374913,0.0-14.0-0.44,613a73d06cf1fcfef304d3fa,650c16f0f2faf8d7a0d14c09,651c357654d122dddd1c01bd,null,null,"<p style=""font-size: 60px; font-family: BACS"">RKYkCKOb</p>",,,,,,,,,,
html-keyboard-response,296,375918,0.0-14.0-0.45,613a73d06cf1fcfef304d3fa,650c16f0f2faf8d7a0d14c09,651c357654d122dddd1c01bd,null,null,"<p style=""font-size: 60px; font-family: BACS"">mrOdYaum</p>",,,,,,,,,,
html-keyboard-response,297,376923,0.0-14.0-0.46,613a73d06cf1fcfef304d3fa,650c16f0f2faf8d7a0d14c09,651c357654d122dddd1c01bd,null,null,"<p style=""font-size: 60px; font-family: BACS"">lcOcuvJ</p>",,,,,,,,,,
html-keyboard-response,298,377928,0.0-14.0-0.47,613a73d06cf1fcfef304d3fa,650c16f0f2faf8d7a0d14c09,651c357654d122dddd1c01bd,null,null,"<p style=""font-size: 60px; font-family: BACS"">CYPcCKOb</p>",,,,,,,,,,
html-keyboard-response,299,378932,0.0-14.0-0.48,613a73d06cf1fcfef304d3fa,650c16f0f2faf8d7a0d14c09,651c357654d122dddd1c01bd,null,null,"<p style=""font-size: 60px; font-family: BACS"">AbkaYaOk</p>",,,,,,,,,,
html-keyboard-response,300,379937,0.0-14.0-0.49,613a73d06cf1fcfef304d3fa,650c16f0f2faf8d7a0d14c09,651c357654d122dddd1c01bd,null,null,"<p style=""font-size: 60px; font-family: BACS"">lcOcYaum</p>",,,,,,,,,,
html-keyboard-response,301,380954,0.0-14.0-0.50,613a73d06cf1fcfef304d3fa,650c16f0f2faf8d7a0d14c09,651c357654d122dddd1c01bd,null,null,"<p style=""font-size: 60px; font-family: BACS"">DmAMEAPEM</p>",,,,,,,,,,
html-keyboard-response,302,381972,0.0-14.0-0.51,613a73d06cf1fcfef304d3fa,650c16f0f2faf8d7a0d14c09,651c357654d122dddd1c01bd,null,null,"<p style=""font-size: 60px; font-family: BACS"">mrOduvJ</p>",,,,,,,,,,
html-keyboard-response,303,382987,0.0-14.0-0.52,613a73d06cf1fcfef304d3fa,650c16f0f2faf8d7a0d14c09,651c357654d122dddd1c01bd,null,null,"<p style=""font-size: 60px; font-family: BACS"">RKYkmKcD</p>",,,,,,,,,,
html-keyboard-response,304,384000,0.0-14.0-0.53,613a73d06cf1fcfef304d3fa,650c16f0f2faf8d7a0d14c09,651c357654d122dddd1c01bd,null,null,"<p style=""font-size: 60px; font-family: BACS"">ZNLOvYaum</p>",,,,,,,,,,
html-keyboard-response,305,385009,0.0-14.0-0.54,613a73d06cf1fcfef304d3fa,650c16f0f2faf8d7a0d14c09,651c357654d122dddd1c01bd,null,null,"<p style=""font-size: 60px; font-family: BACS"">CYPcmKcD</p>",,,,,,,,,,
html-keyboard-response,306,386014,0.0-14.0-0.55,613a73d06cf1fcfef304d3fa,650c16f0f2faf8d7a0d14c09,651c357654d122dddd1c01bd,null,null,"<p style=""font-size: 60px; font-family: BACS"">YKRkYbBT</p>",,,,,,,,,,
html-keyboard-response,307,387029,0.0-14.0-0.56,613a73d06cf1fcfef304d3fa,650c16f0f2faf8d7a0d14c09,651c357654d122dddd1c01bd,null,null,"<p style=""font-size: 60px; font-family: BACS"">uauOYaum</p>",,,,,,,,,,
html-keyboard-response,308,388034,0.0-14.0-0.57,613a73d06cf1fcfef304d3fa,650c16f0f2faf8d7a0d14c09,651c357654d122dddd1c01bd,null,null,"<p style=""font-size: 60px; font-family: BACS"">cRElDAPEM</p>",,,,,,,,,,
html-keyboard-response,309,389050,0.0-14.0-0.58,613a73d06cf1fcfef304d3fa,650c16f0f2faf8d7a0d14c09,651c357654d122dddd1c01bd,null,null,"<p style=""font-size: 60px; font-family: BACS"">ckduAuvJ</p>",,,,,,,,,,
html-keyboard-response,310,390059,0.0-14.0-0.59,613a73d06cf1fcfef304d3fa,650c16f0f2faf8d7a0d14c09,651c357654d122dddd1c01bd,null,null,"<p style=""font-size: 60px; font-family: BACS"">CYPcYbBT</p>",,,,,,,,,,
html-keyboard-response,311,391063,0.0-14.0-0.60,613a73d06cf1fcfef304d3fa,650c16f0f2faf8d7a0d14c09,651c357654d122dddd1c01bd,null,null,"<p style=""font-size: 60px; font-family: BACS"">ZNLOvZAUu</p>",,,,,,,,,,
html-keyboard-response,312,392077,0.0-14.0-0.61,613a73d06cf1fcfef304d3fa,650c16f0f2faf8d7a0d14c09,651c357654d122dddd1c01bd,null,null,"<p style=""font-size: 60px; font-family: BACS"">COtBDmKcD</p>",,,,,,,,,,
html-keyboard-response,313,393082,0.0-14.0-0.62,613a73d06cf1fcfef304d3fa,650c16f0f2faf8d7a0d14c09,651c357654d122dddd1c01bd,null,null,"<p style=""font-size: 60px; font-family: BACS"">laYmrYaum</p>",,,,,,,,,,
html-keyboard-response,314,394086,0.0-14.0-0.63,613a73d06cf1fcfef304d3fa,650c16f0f2faf8d7a0d14c09,651c357654d122dddd1c01bd,null,null,"<p style=""font-size: 60px; font-family: BACS"">YKRkYBO</p>",,,,,,,,,,
html-keyboard-response,315,395090,0.0-14.0-0.64,613a73d06cf1fcfef304d3fa,650c16f0f2faf8d7a0d14c09,651c357654d122dddd1c01bd,null,null,"<p style=""font-size: 60px; font-family: BACS"">RKYkYbBT</p>",,,,,,,,,,
html-keyboard-response,316,396095,0.0-14.0-0.65,613a73d06cf1fcfef304d3fa,650c16f0f2faf8d7a0d14c09,651c357654d122dddd1c01bd,null,null,"<p style=""font-size: 60px; font-family: BACS"">AbkauvJ</p>",,,,,,,,,,
html-keyboard-response,317,397106,0.0-14.0-0.66,613a73d06cf1fcfef304d3fa,650c16f0f2faf8d7a0d14c09,651c357654d122dddd1c01bd,null,null,"<p style=""font-size: 60px; font-family: BACS"">laYmrZAUu</p>",,,,,,,,,,
html-keyboard-response,318,398114,0.0-14.0-0.67,613a73d06cf1fcfef304d3fa,650c16f0f2faf8d7a0d14c09,651c357654d122dddd1c01bd,null,null,"<p style=""font-size: 60px; font-family: BACS"">EPERdAPEM</p>",,,,,,,,,,
html-keyboard-response,319,399124,0.0-14.0-0.68,613a73d06cf1fcfef304d3fa,650c16f0f2faf8d7a0d14c09,651c357654d122dddd1c01bd,null,null,"<p style=""font-size: 60px; font-family: BACS"">MkmEdYBO</p>",,,,,,,,,,
html-keyboard-response,320,400129,0.0-14.0-0.69,613a73d06cf1fcfef304d3fa,650c16f0f2faf8d7a0d14c09,651c357654d122dddd1c01bd,null,null,"<p style=""font-size: 60px; font-family: BACS"">chEDOAPEM</p>",,,,,,,,,,
html-keyboard-response,321,401143,0.0-14.0-0.70,613a73d06cf1fcfef304d3fa,650c16f0f2faf8d7a0d14c09,651c357654d122dddd1c01bd,null,null,"<p style=""font-size: 60px; font-family: BACS"">mrOdYaOk</p>",,,,,,,,,,
html-keyboard-response,322,402147,0.0-14.0-0.71,613a73d06cf1fcfef304d3fa,650c16f0f2faf8d7a0d14c09,651c357654d122dddd1c01bd,null,null,"<p style=""font-size: 60px; font-family: BACS"">AZlLNZvkL</p>",,,,,,,,,,
html-keyboard-response,323,403157,0.0-14.0-0.72,613a73d06cf1fcfef304d3fa,650c16f0f2faf8d7a0d14c09,651c357654d122dddd1c01bd,null,null,"<p style=""font-size: 60px; font-family: BACS"">OLJblYaOk</p>",,,,,,,,,,
html-keyboard-response,324,404172,0.0-14.0-0.73,613a73d06cf1fcfef304d3fa,650c16f0f2faf8d7a0d14c09,651c357654d122dddd1c01bd,null,null,"<p style=""font-size: 60px; font-family: BACS"">chEDOmKcD</p>",,,,,,,,,,
html-keyboard-response,325,405188,0.0-14.0-0.74,613a73d06cf1fcfef304d3fa,650c16f0f2faf8d7a0d14c09,651c357654d122dddd1c01bd,null,null,"<p style=""font-size: 60px; font-family: BACS"">OLJblZvkL</p>",,,,,,,,,,
html-keyboard-response,326,406191,0.0-14.0-0.75,613a73d06cf1fcfef304d3fa,650c16f0f2faf8d7a0d14c09,651c357654d122dddd1c01bd,null,null,"<p style=""font-size: 60px; font-family: BACS"">MBmEAPEM</p>",,,,,,,,,,
html-keyboard-response,327,407206,0.0-14.0-0.76,613a73d06cf1fcfef304d3fa,650c16f0f2faf8d7a0d14c09,651c357654d122dddd1c01bd,null,null,"<p style=""font-size: 60px; font-family: BACS"">lcOcZAUu</p>",,,,,,,,,,
html-keyboard-response,328,408216,0.0-14.0-0.77,613a73d06cf1fcfef304d3fa,650c16f0f2faf8d7a0d14c09,651c357654d122dddd1c01bd,null,null,"<p style=""font-size: 60px; font-family: BACS"">MkmEdCKOb</p>",,,,,,,,,,
html-keyboard-response,329,409222,0.0-14.0-0.78,613a73d06cf1fcfef304d3fa,650c16f0f2faf8d7a0d14c09,651c357654d122dddd1c01bd,null,null,"<p style=""font-size: 60px; font-family: BACS"">vYLUZvkL</p>",,,,,,,,,,
html-keyboard-response,330,410226,0.0-14.0-0.79,613a73d06cf1fcfef304d3fa,650c16f0f2faf8d7a0d14c09,651c357654d122dddd1c01bd,null,null,"<p style=""font-size: 60px; font-family: BACS"">COtBDAPEM</p>",,,,,,,,,,
html-keyboard-response,331,416759,0.0-15.0,613a73d06cf1fcfef304d3fa,650c16f0f2faf8d7a0d14c09,651c357654d122dddd1c01bd,6531, ,"<p>Great, you've seen the fourth block of words. You may now take a short break.</p>
      <p>Press the spacebar when you're ready to continue.</p>",,,,,,,,,,
html-keyboard-response,332,417771,0.0-16.0-0.0,613a73d06cf1fcfef304d3fa,650c16f0f2faf8d7a0d14c09,651c357654d122dddd1c01bd,null,null,"<p style=""font-size: 60px; font-family: BACS"">RKYkYBO</p>",,,,,,,,,,
html-keyboard-response,333,418774,0.0-16.0-0.1,613a73d06cf1fcfef304d3fa,650c16f0f2faf8d7a0d14c09,651c357654d122dddd1c01bd,null,null,"<p style=""font-size: 60px; font-family: BACS"">RKYkYBO</p>",,,,,,,,,,
html-keyboard-response,334,419779,0.0-16.0-0.2,613a73d06cf1fcfef304d3fa,650c16f0f2faf8d7a0d14c09,651c357654d122dddd1c01bd,null,null,"<p style=""font-size: 60px; font-family: BACS"">RKYkYBO</p>",,,,,,,,,,
html-keyboard-response,335,420789,0.0-16.0-0.3,613a73d06cf1fcfef304d3fa,650c16f0f2faf8d7a0d14c09,651c357654d122dddd1c01bd,null,null,"<p style=""font-size: 60px; font-family: BACS"">RKYkYBO</p>",,,,,,,,,,
html-keyboard-response,336,421804,0.0-16.0-0.4,613a73d06cf1fcfef304d3fa,650c16f0f2faf8d7a0d14c09,651c357654d122dddd1c01bd,null,null,"<p style=""font-size: 60px; font-family: BACS"">RKYkYBO</p>",,,,,,,,,,
html-keyboard-response,337,422808,0.0-16.0-0.5,613a73d06cf1fcfef304d3fa,650c16f0f2faf8d7a0d14c09,651c357654d122dddd1c01bd,null,null,"<p style=""font-size: 60px; font-family: BACS"">RKYkYBO</p>",,,,,,,,,,
html-keyboard-response,338,423813,0.0-16.0-0.6,613a73d06cf1fcfef304d3fa,650c16f0f2faf8d7a0d14c09,651c357654d122dddd1c01bd,null,null,"<p style=""font-size: 60px; font-family: BACS"">RKYkYBO</p>",,,,,,,,,,
html-keyboard-response,339,424817,0.0-16.0-0.7,613a73d06cf1fcfef304d3fa,650c16f0f2faf8d7a0d14c09,651c357654d122dddd1c01bd,null,null,"<p style=""font-size: 60px; font-family: BACS"">RKYkYBO</p>",,,,,,,,,,
html-keyboard-response,340,425832,0.0-16.0-0.8,613a73d06cf1fcfef304d3fa,650c16f0f2faf8d7a0d14c09,651c357654d122dddd1c01bd,null,null,"<p style=""font-size: 60px; font-family: BACS"">RKYkYBO</p>",,,,,,,,,,
html-keyboard-response,341,426846,0.0-16.0-0.9,613a73d06cf1fcfef304d3fa,650c16f0f2faf8d7a0d14c09,651c357654d122dddd1c01bd,null,null,"<p style=""font-size: 60px; font-family: BACS"">RKYkYBO</p>",,,,,,,,,,
html-keyboard-response,342,427857,0.0-16.0-0.10,613a73d06cf1fcfef304d3fa,650c16f0f2faf8d7a0d14c09,651c357654d122dddd1c01bd,null,null,"<p style=""font-size: 60px; font-family: BACS"">RKYkYBO</p>",,,,,,,,,,
html-keyboard-response,343,428870,0.0-16.0-0.11,613a73d06cf1fcfef304d3fa,650c16f0f2faf8d7a0d14c09,651c357654d122dddd1c01bd,null,null,"<p style=""font-size: 60px; font-family: BACS"">RKYkYBO</p>",,,,,,,,,,
html-keyboard-response,344,429875,0.0-16.0-0.12,613a73d06cf1fcfef304d3fa,650c16f0f2faf8d7a0d14c09,651c357654d122dddd1c01bd,null,null,"<p style=""font-size: 60px; font-family: BACS"">RKYkYBO</p>",,,,,,,,,,
html-keyboard-response,345,430880,0.0-16.0-0.13,613a73d06cf1fcfef304d3fa,650c16f0f2faf8d7a0d14c09,651c357654d122dddd1c01bd,null,null,"<p style=""font-size: 60px; font-family: BACS"">RKYkYBO</p>",,,,,,,,,,
html-keyboard-response,346,431884,0.0-16.0-0.14,613a73d06cf1fcfef304d3fa,650c16f0f2faf8d7a0d14c09,651c357654d122dddd1c01bd,null,null,"<p style=""font-size: 60px; font-family: BACS"">RKYkYBO</p>",,,,,,,,,,
html-keyboard-response,347,432898,0.0-16.0-0.15,613a73d06cf1fcfef304d3fa,650c16f0f2faf8d7a0d14c09,651c357654d122dddd1c01bd,null,null,"<p style=""font-size: 60px; font-family: BACS"">RKYkYBO</p>",,,,,,,,,,
html-keyboard-response,348,433905,0.0-16.0-0.16,613a73d06cf1fcfef304d3fa,650c16f0f2faf8d7a0d14c09,651c357654d122dddd1c01bd,null,null,"<p style=""font-size: 60px; font-family: BACS"">RKYkYBO</p>",,,,,,,,,,
html-keyboard-response,349,434915,0.0-16.0-0.17,613a73d06cf1fcfef304d3fa,650c16f0f2faf8d7a0d14c09,651c357654d122dddd1c01bd,null,null,"<p style=""font-size: 60px; font-family: BACS"">RKYkYBO</p>",,,,,,,,,,
html-keyboard-response,350,435919,0.0-16.0-0.18,613a73d06cf1fcfef304d3fa,650c16f0f2faf8d7a0d14c09,651c357654d122dddd1c01bd,null,null,"<p style=""font-size: 60px; font-family: BACS"">RKYkYBO</p>",,,,,,,,,,
html-keyboard-response,351,436928,0.0-16.0-0.19,613a73d06cf1fcfef304d3fa,650c16f0f2faf8d7a0d14c09,651c357654d122dddd1c01bd,null,null,"<p style=""font-size: 60px; font-family: BACS"">RKYkYBO</p>",,,,,,,,,,
html-keyboard-response,352,437943,0.0-16.0-0.20,613a73d06cf1fcfef304d3fa,650c16f0f2faf8d7a0d14c09,651c357654d122dddd1c01bd,null,null,"<p style=""font-size: 60px; font-family: BACS"">RKYkYBO</p>",,,,,,,,,,
html-keyboard-response,353,438957,0.0-16.0-0.21,613a73d06cf1fcfef304d3fa,650c16f0f2faf8d7a0d14c09,651c357654d122dddd1c01bd,null,null,"<p style=""font-size: 60px; font-family: BACS"">RKYkYBO</p>",,,,,,,,,,
html-keyboard-response,354,439972,0.0-16.0-0.22,613a73d06cf1fcfef304d3fa,650c16f0f2faf8d7a0d14c09,651c357654d122dddd1c01bd,null,null,"<p style=""font-size: 60px; font-family: BACS"">RKYkYBO</p>",,,,,,,,,,
html-keyboard-response,355,440983,0.0-16.0-0.23,613a73d06cf1fcfef304d3fa,650c16f0f2faf8d7a0d14c09,651c357654d122dddd1c01bd,null,null,"<p style=""font-size: 60px; font-family: BACS"">RKYkYBO</p>",,,,,,,,,,
html-keyboard-response,356,441997,0.0-16.0-0.24,613a73d06cf1fcfef304d3fa,650c16f0f2faf8d7a0d14c09,651c357654d122dddd1c01bd,null,null,"<p style=""font-size: 60px; font-family: BACS"">RKYkYBO</p>",,,,,,,,,,
html-keyboard-response,357,443011,0.0-16.0-0.25,613a73d06cf1fcfef304d3fa,650c16f0f2faf8d7a0d14c09,651c357654d122dddd1c01bd,null,null,"<p style=""font-size: 60px; font-family: BACS"">RKYkYBO</p>",,,,,,,,,,
html-keyboard-response,358,444015,0.0-16.0-0.26,613a73d06cf1fcfef304d3fa,650c16f0f2faf8d7a0d14c09,651c357654d122dddd1c01bd,null,null,"<p style=""font-size: 60px; font-family: BACS"">RKYkYBO</p>",,,,,,,,,,
html-keyboard-response,359,445032,0.0-16.0-0.27,613a73d06cf1fcfef304d3fa,650c16f0f2faf8d7a0d14c09,651c357654d122dddd1c01bd,null,null,"<p style=""font-size: 60px; font-family: BACS"">RKYkYBO</p>",,,,,,,,,,
html-keyboard-response,360,446040,0.0-16.0-0.28,613a73d06cf1fcfef304d3fa,650c16f0f2faf8d7a0d14c09,651c357654d122dddd1c01bd,null,null,"<p style=""font-size: 60px; font-family: BACS"">RKYkYBO</p>",,,,,,,,,,
html-keyboard-response,361,447045,0.0-16.0-0.29,613a73d06cf1fcfef304d3fa,650c16f0f2faf8d7a0d14c09,651c357654d122dddd1c01bd,null,null,"<p style=""font-size: 60px; font-family: BACS"">RKYkYBO</p>",,,,,,,,,,
html-keyboard-response,362,448059,0.0-16.0-0.30,613a73d06cf1fcfef304d3fa,650c16f0f2faf8d7a0d14c09,651c357654d122dddd1c01bd,null,null,"<p style=""font-size: 60px; font-family: BACS"">RKYkYBO</p>",,,,,,,,,,
html-keyboard-response,363,449063,0.0-16.0-0.31,613a73d06cf1fcfef304d3fa,650c16f0f2faf8d7a0d14c09,651c357654d122dddd1c01bd,null,null,"<p style=""font-size: 60px; font-family: BACS"">RKYkYBO</p>",,,,,,,,,,
html-keyboard-response,364,450078,0.0-16.0-0.32,613a73d06cf1fcfef304d3fa,650c16f0f2faf8d7a0d14c09,651c357654d122dddd1c01bd,null,null,"<p style=""font-size: 60px; font-family: BACS"">RKYkYBO</p>",,,,,,,,,,
html-keyboard-response,365,451089,0.0-16.0-0.33,613a73d06cf1fcfef304d3fa,650c16f0f2faf8d7a0d14c09,651c357654d122dddd1c01bd,null,null,"<p style=""font-size: 60px; font-family: BACS"">RKYkYBO</p>",,,,,,,,,,
html-keyboard-response,366,452107,0.0-16.0-0.34,613a73d06cf1fcfef304d3fa,650c16f0f2faf8d7a0d14c09,651c357654d122dddd1c01bd,null,null,"<p style=""font-size: 60px; font-family: BACS"">RKYkYBO</p>",,,,,,,,,,
html-keyboard-response,367,453122,0.0-16.0-0.35,613a73d06cf1fcfef304d3fa,650c16f0f2faf8d7a0d14c09,651c357654d122dddd1c01bd,null,null,"<p style=""font-size: 60px; font-family: BACS"">RKYkYBO</p>",,,,,,,,,,
html-keyboard-response,368,454138,0.0-16.0-0.36,613a73d06cf1fcfef304d3fa,650c16f0f2faf8d7a0d14c09,651c357654d122dddd1c01bd,null,null,"<p style=""font-size: 60px; font-family: BACS"">RKYkYBO</p>",,,,,,,,,,
html-keyboard-response,369,455141,0.0-16.0-0.37,613a73d06cf1fcfef304d3fa,650c16f0f2faf8d7a0d14c09,651c357654d122dddd1c01bd,null,null,"<p style=""font-size: 60px; font-family: BACS"">RKYkYBO</p>",,,,,,,,,,
html-keyboard-response,370,456146,0.0-16.0-0.38,613a73d06cf1fcfef304d3fa,650c16f0f2faf8d7a0d14c09,651c357654d122dddd1c01bd,null,null,"<p style=""font-size: 60px; font-family: BACS"">RKYkYBO</p>",,,,,,,,,,
html-keyboard-response,371,457151,0.0-16.0-0.39,613a73d06cf1fcfef304d3fa,650c16f0f2faf8d7a0d14c09,651c357654d122dddd1c01bd,null,null,"<p style=""font-size: 60px; font-family: BACS"">RKYkYBO</p>",,,,,,,,,,
html-keyboard-response,372,458156,0.0-16.0-0.40,613a73d06cf1fcfef304d3fa,650c16f0f2faf8d7a0d14c09,651c357654d122dddd1c01bd,null,null,"<p style=""font-size: 60px; font-family: BACS"">RKYkYBO</p>",,,,,,,,,,
html-keyboard-response,373,459160,0.0-16.0-0.41,613a73d06cf1fcfef304d3fa,650c16f0f2faf8d7a0d14c09,651c357654d122dddd1c01bd,null,null,"<p style=""font-size: 60px; font-family: BACS"">RKYkYBO</p>",,,,,,,,,,
html-keyboard-response,374,460171,0.0-16.0-0.42,613a73d06cf1fcfef304d3fa,650c16f0f2faf8d7a0d14c09,651c357654d122dddd1c01bd,null,null,"<p style=""font-size: 60px; font-family: BACS"">RKYkYBO</p>",,,,,,,,,,
html-keyboard-response,375,461185,0.0-16.0-0.43,613a73d06cf1fcfef304d3fa,650c16f0f2faf8d7a0d14c09,651c357654d122dddd1c01bd,null,null,"<p style=""font-size: 60px; font-family: BACS"">RKYkYBO</p>",,,,,,,,,,
html-keyboard-response,376,462189,0.0-16.0-0.44,613a73d06cf1fcfef304d3fa,650c16f0f2faf8d7a0d14c09,651c357654d122dddd1c01bd,null,null,"<p style=""font-size: 60px; font-family: BACS"">RKYkYBO</p>",,,,,,,,,,
html-keyboard-response,377,463205,0.0-16.0-0.45,613a73d06cf1fcfef304d3fa,650c16f0f2faf8d7a0d14c09,651c357654d122dddd1c01bd,null,null,"<p style=""font-size: 60px; font-family: BACS"">RKYkYBO</p>",,,,,,,,,,
html-keyboard-response,378,464208,0.0-16.0-0.46,613a73d06cf1fcfef304d3fa,650c16f0f2faf8d7a0d14c09,651c357654d122dddd1c01bd,null,null,"<p style=""font-size: 60px; font-family: BACS"">RKYkYBO</p>",,,,,,,,,,
html-keyboard-response,379,465220,0.0-16.0-0.47,613a73d06cf1fcfef304d3fa,650c16f0f2faf8d7a0d14c09,651c357654d122dddd1c01bd,null,null,"<p style=""font-size: 60px; font-family: BACS"">RKYkYBO</p>",,,,,,,,,,
html-keyboard-response,380,466235,0.0-16.0-0.48,613a73d06cf1fcfef304d3fa,650c16f0f2faf8d7a0d14c09,651c357654d122dddd1c01bd,null,null,"<p style=""font-size: 60px; font-family: BACS"">RKYkYBO</p>",,,,,,,,,,
html-keyboard-response,381,467252,0.0-16.0-0.49,613a73d06cf1fcfef304d3fa,650c16f0f2faf8d7a0d14c09,651c357654d122dddd1c01bd,null,null,"<p style=""font-size: 60px; font-family: BACS"">RKYkYBO</p>",,,,,,,,,,
html-keyboard-response,382,468267,0.0-16.0-0.50,613a73d06cf1fcfef304d3fa,650c16f0f2faf8d7a0d14c09,651c357654d122dddd1c01bd,null,null,"<p style=""font-size: 60px; font-family: BACS"">RKYkYBO</p>",,,,,,,,,,
html-keyboard-response,383,469272,0.0-16.0-0.51,613a73d06cf1fcfef304d3fa,650c16f0f2faf8d7a0d14c09,651c357654d122dddd1c01bd,null,null,"<p style=""font-size: 60px; font-family: BACS"">RKYkYBO</p>",,,,,,,,,,
html-keyboard-response,384,470276,0.0-16.0-0.52,613a73d06cf1fcfef304d3fa,650c16f0f2faf8d7a0d14c09,651c357654d122dddd1c01bd,null,null,"<p style=""font-size: 60px; font-family: BACS"">RKYkYBO</p>",,,,,,,,,,
html-keyboard-response,385,471291,0.0-16.0-0.53,613a73d06cf1fcfef304d3fa,650c16f0f2faf8d7a0d14c09,651c357654d122dddd1c01bd,null,null,"<p style=""font-size: 60px; font-family: BACS"">RKYkYBO</p>",,,,,,,,,,
html-keyboard-response,386,472296,0.0-16.0-0.54,613a73d06cf1fcfef304d3fa,650c16f0f2faf8d7a0d14c09,651c357654d122dddd1c01bd,null,null,"<p style=""font-size: 60px; font-family: BACS"">RKYkYBO</p>",,,,,,,,,,
html-keyboard-response,387,473301,0.0-16.0-0.55,613a73d06cf1fcfef304d3fa,650c16f0f2faf8d7a0d14c09,651c357654d122dddd1c01bd,null,null,"<p style=""font-size: 60px; font-family: BACS"">RKYkYBO</p>",,,,,,,,,,
html-keyboard-response,388,474305,0.0-16.0-0.56,613a73d06cf1fcfef304d3fa,650c16f0f2faf8d7a0d14c09,651c357654d122dddd1c01bd,null,null,"<p style=""font-size: 60px; font-family: BACS"">RKYkYBO</p>",,,,,,,,,,
html-keyboard-response,389,475309,0.0-16.0-0.57,613a73d06cf1fcfef304d3fa,650c16f0f2faf8d7a0d14c09,651c357654d122dddd1c01bd,null,null,"<p style=""font-size: 60px; font-family: BACS"">RKYkYBO</p>",,,,,,,,,,
html-keyboard-response,390,476313,0.0-16.0-0.58,613a73d06cf1fcfef304d3fa,650c16f0f2faf8d7a0d14c09,651c357654d122dddd1c01bd,null,null,"<p style=""font-size: 60px; font-family: BACS"">RKYkYBO</p>",,,,,,,,,,
html-keyboard-response,391,477318,0.0-16.0-0.59,613a73d06cf1fcfef304d3fa,650c16f0f2faf8d7a0d14c09,651c357654d122dddd1c01bd,null,null,"<p style=""font-size: 60px; font-family: BACS"">RKYkYBO</p>",,,,,,,,,,
html-keyboard-response,392,478328,0.0-16.0-0.60,613a73d06cf1fcfef304d3fa,650c16f0f2faf8d7a0d14c09,651c357654d122dddd1c01bd,null,null,"<p style=""font-size: 60px; font-family: BACS"">RKYkYBO</p>",,,,,,,,,,
html-keyboard-response,393,479342,0.0-16.0-0.61,613a73d06cf1fcfef304d3fa,650c16f0f2faf8d7a0d14c09,651c357654d122dddd1c01bd,null,null,"<p style=""font-size: 60px; font-family: BACS"">RKYkYBO</p>",,,,,,,,,,
html-keyboard-response,394,480349,0.0-16.0-0.62,613a73d06cf1fcfef304d3fa,650c16f0f2faf8d7a0d14c09,651c357654d122dddd1c01bd,null,null,"<p style=""font-size: 60px; font-family: BACS"">RKYkYBO</p>",,,,,,,,,,
html-keyboard-response,395,481352,0.0-16.0-0.63,613a73d06cf1fcfef304d3fa,650c16f0f2faf8d7a0d14c09,651c357654d122dddd1c01bd,null,null,"<p style=""font-size: 60px; font-family: BACS"">RKYkYBO</p>",,,,,,,,,,
html-keyboard-response,396,482357,0.0-16.0-0.64,613a73d06cf1fcfef304d3fa,650c16f0f2faf8d7a0d14c09,651c357654d122dddd1c01bd,null,null,"<p style=""font-size: 60px; font-family: BACS"">RKYkYBO</p>",,,,,,,,,,
html-keyboard-response,397,483361,0.0-16.0-0.65,613a73d06cf1fcfef304d3fa,650c16f0f2faf8d7a0d14c09,651c357654d122dddd1c01bd,null,null,"<p style=""font-size: 60px; font-family: BACS"">RKYkYBO</p>",,,,,,,,,,
html-keyboard-response,398,484373,0.0-16.0-0.66,613a73d06cf1fcfef304d3fa,650c16f0f2faf8d7a0d14c09,651c357654d122dddd1c01bd,null,null,"<p style=""font-size: 60px; font-family: BACS"">RKYkYBO</p>",,,,,,,,,,
html-keyboard-response,399,485386,0.0-16.0-0.67,613a73d06cf1fcfef304d3fa,650c16f0f2faf8d7a0d14c09,651c357654d122dddd1c01bd,null,null,"<p style=""font-size: 60px; font-family: BACS"">RKYkYBO</p>",,,,,,,,,,
html-keyboard-response,400,486402,0.0-16.0-0.68,613a73d06cf1fcfef304d3fa,650c16f0f2faf8d7a0d14c09,651c357654d122dddd1c01bd,null,null,"<p style=""font-size: 60px; font-family: BACS"">RKYkYBO</p>",,,,,,,,,,
html-keyboard-response,401,487419,0.0-16.0-0.69,613a73d06cf1fcfef304d3fa,650c16f0f2faf8d7a0d14c09,651c357654d122dddd1c01bd,null,null,"<p style=""font-size: 60px; font-family: BACS"">RKYkYBO</p>",,,,,,,,,,
html-keyboard-response,402,488434,0.0-16.0-0.70,613a73d06cf1fcfef304d3fa,650c16f0f2faf8d7a0d14c09,651c357654d122dddd1c01bd,null,null,"<p style=""font-size: 60px; font-family: BACS"">RKYkYBO</p>",,,,,,,,,,
html-keyboard-response,403,489438,0.0-16.0-0.71,613a73d06cf1fcfef304d3fa,650c16f0f2faf8d7a0d14c09,651c357654d122dddd1c01bd,null,null,"<p style=""font-size: 60px; font-family: BACS"">RKYkYBO</p>",,,,,,,,,,
html-keyboard-response,404,490444,0.0-16.0-0.72,613a73d06cf1fcfef304d3fa,650c16f0f2faf8d7a0d14c09,651c357654d122dddd1c01bd,null,null,"<p style=""font-size: 60px; font-family: BACS"">RKYkYBO</p>",,,,,,,,,,
html-keyboard-response,405,491457,0.0-16.0-0.73,613a73d06cf1fcfef304d3fa,650c16f0f2faf8d7a0d14c09,651c357654d122dddd1c01bd,null,null,"<p style=""font-size: 60px; font-family: BACS"">RKYkYBO</p>",,,,,,,,,,
html-keyboard-response,406,492472,0.0-16.0-0.74,613a73d06cf1fcfef304d3fa,650c16f0f2faf8d7a0d14c09,651c357654d122dddd1c01bd,null,null,"<p style=""font-size: 60px; font-family: BACS"">RKYkYBO</p>",,,,,,,,,,
html-keyboard-response,407,493482,0.0-16.0-0.75,613a73d06cf1fcfef304d3fa,650c16f0f2faf8d7a0d14c09,651c357654d122dddd1c01bd,null,null,"<p style=""font-size: 60px; font-family: BACS"">RKYkYBO</p>",,,,,,,,,,
html-keyboard-response,408,494487,0.0-16.0-0.76,613a73d06cf1fcfef304d3fa,650c16f0f2faf8d7a0d14c09,651c357654d122dddd1c01bd,null,null,"<p style=""font-size: 60px; font-family: BACS"">RKYkYBO</p>",,,,,,,,,,
html-keyboard-response,409,495491,0.0-16.0-0.77,613a73d06cf1fcfef304d3fa,650c16f0f2faf8d7a0d14c09,651c357654d122dddd1c01bd,null,null,"<p style=""font-size: 60px; font-family: BACS"">RKYkYBO</p>",,,,,,,,,,
html-keyboard-response,410,496496,0.0-16.0-0.78,613a73d06cf1fcfef304d3fa,650c16f0f2faf8d7a0d14c09,651c357654d122dddd1c01bd,null,null,"<p style=""font-size: 60px; font-family: BACS"">RKYkYBO</p>",,,,,,,,,,
html-keyboard-response,411,497511,0.0-16.0-0.79,613a73d06cf1fcfef304d3fa,650c16f0f2faf8d7a0d14c09,651c357654d122dddd1c01bd,null,null,"<p style=""font-size: 60px; font-family: BACS"">RKYkYBO</p>",,,,,,,,,,
html-keyboard-response,412,500417,0.0-17.0,613a73d06cf1fcfef304d3fa,650c16f0f2faf8d7a0d14c09,651c357654d122dddd1c01bd,2905, ,"<p>Great, you've seen the fifth block of words. You may now take a short break.</p>
      <p>Press the spacebar when you're ready to continue.</p>",,,,,,,,,,
html-keyboard-response,413,501420,0.0-18.0-0.0,613a73d06cf1fcfef304d3fa,650c16f0f2faf8d7a0d14c09,651c357654d122dddd1c01bd,null,null,"<p style=""font-size: 60px; font-family: BACS"">chEDOYBO</p>",,,,,,,,,,
html-keyboard-response,414,502424,0.0-18.0-0.1,613a73d06cf1fcfef304d3fa,650c16f0f2faf8d7a0d14c09,651c357654d122dddd1c01bd,null,null,"<p style=""font-size: 60px; font-family: BACS"">lcOcZvkL</p>",,,,,,,,,,
html-keyboard-response,415,503435,0.0-18.0-0.2,613a73d06cf1fcfef304d3fa,650c16f0f2faf8d7a0d14c09,651c357654d122dddd1c01bd,null,null,"<p style=""font-size: 60px; font-family: BACS"">YKRkmKcD</p>",,,,,,,,,,
html-keyboard-response,416,504442,0.0-18.0-0.3,613a73d06cf1fcfef304d3fa,650c16f0f2faf8d7a0d14c09,651c357654d122dddd1c01bd,null,null,"<p style=""font-size: 60px; font-family: BACS"">lcOcYaum</p>",,,,,,,,,,
html-keyboard-response,417,505447,0.0-18.0-0.4,613a73d06cf1fcfef304d3fa,650c16f0f2faf8d7a0d14c09,651c357654d122dddd1c01bd,null,null,"<p style=""font-size: 60px; font-family: BACS"">YKRkAPEM</p>",,,,,,,,,,
html-keyboard-response,418,506451,0.0-18.0-0.5,613a73d06cf1fcfef304d3fa,650c16f0f2faf8d7a0d14c09,651c357654d122dddd1c01bd,null,null,"<p style=""font-size: 60px; font-family: BACS"">cRElDmKcD</p>",,,,,,,,,,
html-keyboard-response,419,507467,0.0-18.0-0.6,613a73d06cf1fcfef304d3fa,650c16f0f2faf8d7a0d14c09,651c357654d122dddd1c01bd,null,null,"<p style=""font-size: 60px; font-family: BACS"">vYLUZAUu</p>",,,,,,,,,,
html-keyboard-response,420,508475,0.0-18.0-0.7,613a73d06cf1fcfef304d3fa,650c16f0f2faf8d7a0d14c09,651c357654d122dddd1c01bd,null,null,"<p style=""font-size: 60px; font-family: BACS"">lcOcuvJ</p>",,,,,,,,,,
html-keyboard-response,421,509480,0.0-18.0-0.8,613a73d06cf1fcfef304d3fa,650c16f0f2faf8d7a0d14c09,651c357654d122dddd1c01bd,null,null,"<p style=""font-size: 60px; font-family: BACS"">COtBDYbBT</p>",,,,,,,,,,
html-keyboard-response,422,510485,0.0-18.0-0.9,613a73d06cf1fcfef304d3fa,650c16f0f2faf8d7a0d14c09,651c357654d122dddd1c01bd,null,null,"<p style=""font-size: 60px; font-family: BACS"">chEDOAPEM</p>",,,,,,,,,,
html-keyboard-response,423,511494,0.0-18.0-0.10,613a73d06cf1fcfef304d3fa,650c16f0f2faf8d7a0d14c09,651c357654d122dddd1c01bd,null,null,"<p style=""font-size: 60px; font-family: BACS"">laYmruvJ</p>",,,,,,,,,,
html-keyboard-response,424,512510,0.0-18.0-0.11,613a73d06cf1fcfef304d3fa,650c16f0f2faf8d7a0d14c09,651c357654d122dddd1c01bd,null,null,"<p style=""font-size: 60px; font-family: BACS"">CYPcAPEM</p>",,,,,,,,,,
html-keyboard-response,425,513524,0.0-18.0-0.12,613a73d06cf1fcfef304d3fa,650c16f0f2faf8d7a0d14c09,651c357654d122dddd1c01bd,null,null,"<p style=""font-size: 60px; font-family: BACS"">EPERdCKOb</p>",,,,,,,,,,
html-keyboard-response,426,514528,0.0-18.0-0.13,613a73d06cf1fcfef304d3fa,650c16f0f2faf8d7a0d14c09,651c357654d122dddd1c01bd,null,null,"<p style=""font-size: 60px; font-family: BACS"">AbkaYaum</p>",,,,,,,,,,
html-keyboard-response,427,515535,0.0-18.0-0.14,613a73d06cf1fcfef304d3fa,650c16f0f2faf8d7a0d14c09,651c357654d122dddd1c01bd,null,null,"<p style=""font-size: 60px; font-family: BACS"">DmAMEAPEM</p>",,,,,,,,,,
html-keyboard-response,428,516544,0.0-18.0-0.15,613a73d06cf1fcfef304d3fa,650c16f0f2faf8d7a0d14c09,651c357654d122dddd1c01bd,null,null,"<p style=""font-size: 60px; font-family: BACS"">CYPcmKcD</p>",,,,,,,,,,
html-keyboard-response,429,517552,0.0-18.0-0.16,613a73d06cf1fcfef304d3fa,650c16f0f2faf8d7a0d14c09,651c357654d122dddd1c01bd,null,null,"<p style=""font-size: 60px; font-family: BACS"">AZlLNYaum</p>",,,,,,,,,,
html-keyboard-response,430,518556,0.0-18.0-0.17,613a73d06cf1fcfef304d3fa,650c16f0f2faf8d7a0d14c09,651c357654d122dddd1c01bd,null,null,"<p style=""font-size: 60px; font-family: BACS"">COtBDmKcD</p>",,,,,,,,,,
html-keyboard-response,431,519561,0.0-18.0-0.18,613a73d06cf1fcfef304d3fa,650c16f0f2faf8d7a0d14c09,651c357654d122dddd1c01bd,null,null,"<p style=""font-size: 60px; font-family: BACS"">CYPcYbBT</p>",,,,,,,,,,
html-keyboard-response,432,520565,0.0-18.0-0.19,613a73d06cf1fcfef304d3fa,650c16f0f2faf8d7a0d14c09,651c357654d122dddd1c01bd,null,null,"<p style=""font-size: 60px; font-family: BACS"">ZNLOvZAUu</p>",,,,,,,,,,
html-keyboard-response,433,521571,0.0-18.0-0.20,613a73d06cf1fcfef304d3fa,650c16f0f2faf8d7a0d14c09,651c357654d122dddd1c01bd,null,null,"<p style=""font-size: 60px; font-family: BACS"">MBmEAPEM</p>",,,,,,,,,,
html-keyboard-response,434,522575,0.0-18.0-0.21,613a73d06cf1fcfef304d3fa,650c16f0f2faf8d7a0d14c09,651c357654d122dddd1c01bd,null,null,"<p style=""font-size: 60px; font-family: BACS"">AZlLNuvJ</p>",,,,,,,,,,
html-keyboard-response,435,523580,0.0-18.0-0.22,613a73d06cf1fcfef304d3fa,650c16f0f2faf8d7a0d14c09,651c357654d122dddd1c01bd,null,null,"<p style=""font-size: 60px; font-family: BACS"">AbkaYaOk</p>",,,,,,,,,,
html-keyboard-response,436,524594,0.0-18.0-0.23,613a73d06cf1fcfef304d3fa,650c16f0f2faf8d7a0d14c09,651c357654d122dddd1c01bd,null,null,"<p style=""font-size: 60px; font-family: BACS"">COtBDAPEM</p>",,,,,,,,,,
html-keyboard-response,437,525599,0.0-18.0-0.24,613a73d06cf1fcfef304d3fa,650c16f0f2faf8d7a0d14c09,651c357654d122dddd1c01bd,null,null,"<p style=""font-size: 60px; font-family: BACS"">chEDOCKOb</p>",,,,,,,,,,
html-keyboard-response,438,526609,0.0-18.0-0.25,613a73d06cf1fcfef304d3fa,650c16f0f2faf8d7a0d14c09,651c357654d122dddd1c01bd,null,null,"<p style=""font-size: 60px; font-family: BACS"">YKRkYbBT</p>",,,,,,,,,,
html-keyboard-response,439,527614,0.0-18.0-0.26,613a73d06cf1fcfef304d3fa,650c16f0f2faf8d7a0d14c09,651c357654d122dddd1c01bd,null,null,"<p style=""font-size: 60px; font-family: BACS"">vYLUuvJ</p>",,,,,,,,,,
html-keyboard-response,440,528624,0.0-18.0-0.27,613a73d06cf1fcfef304d3fa,650c16f0f2faf8d7a0d14c09,651c357654d122dddd1c01bd,null,null,"<p style=""font-size: 60px; font-family: BACS"">OLJblYaOk</p>",,,,,,,,,,
html-keyboard-response,441,529636,0.0-18.0-0.28,613a73d06cf1fcfef304d3fa,650c16f0f2faf8d7a0d14c09,651c357654d122dddd1c01bd,null,null,"<p style=""font-size: 60px; font-family: BACS"">mrOduvJ</p>",,,,,,,,,,
html-keyboard-response,442,530653,0.0-18.0-0.29,613a73d06cf1fcfef304d3fa,650c16f0f2faf8d7a0d14c09,651c357654d122dddd1c01bd,null,null,"<p style=""font-size: 60px; font-family: BACS"">YKRkYBO</p>",,,,,,,,,,
html-keyboard-response,443,531668,0.0-18.0-0.30,613a73d06cf1fcfef304d3fa,650c16f0f2faf8d7a0d14c09,651c357654d122dddd1c01bd,null,null,"<p style=""font-size: 60px; font-family: BACS"">MBmEmKcD</p>",,,,,,,,,,
html-keyboard-response,444,532684,0.0-18.0-0.31,613a73d06cf1fcfef304d3fa,650c16f0f2faf8d7a0d14c09,651c357654d122dddd1c01bd,null,null,"<p style=""font-size: 60px; font-family: BACS"">MkmEdCKOb</p>",,,,,,,,,,
html-keyboard-response,445,533700,0.0-18.0-0.32,613a73d06cf1fcfef304d3fa,650c16f0f2faf8d7a0d14c09,651c357654d122dddd1c01bd,null,null,"<p style=""font-size: 60px; font-family: BACS"">ckduAuvJ</p>",,,,,,,,,,
html-keyboard-response,446,534705,0.0-18.0-0.33,613a73d06cf1fcfef304d3fa,650c16f0f2faf8d7a0d14c09,651c357654d122dddd1c01bd,null,null,"<p style=""font-size: 60px; font-family: BACS"">AZlLNZvkL</p>",,,,,,,,,,
html-keyboard-response,447,535711,0.0-18.0-0.34,613a73d06cf1fcfef304d3fa,650c16f0f2faf8d7a0d14c09,651c357654d122dddd1c01bd,null,null,"<p style=""font-size: 60px; font-family: BACS"">MBmEYBO</p>",,,,,,,,,,
html-keyboard-response,448,536715,0.0-18.0-0.35,613a73d06cf1fcfef304d3fa,650c16f0f2faf8d7a0d14c09,651c357654d122dddd1c01bd,null,null,"<p style=""font-size: 60px; font-family: BACS"">OLJblYaum</p>",,,,,,,,,,
html-keyboard-response,449,537730,0.0-18.0-0.36,613a73d06cf1fcfef304d3fa,650c16f0f2faf8d7a0d14c09,651c357654d122dddd1c01bd,null,null,"<p style=""font-size: 60px; font-family: BACS"">vYLUYaOk</p>",,,,,,,,,,
html-keyboard-response,450,538740,0.0-18.0-0.37,613a73d06cf1fcfef304d3fa,650c16f0f2faf8d7a0d14c09,651c357654d122dddd1c01bd,null,null,"<p style=""font-size: 60px; font-family: BACS"">MkmEdYbBT</p>",,,,,,,,,,
html-keyboard-response,451,539753,0.0-18.0-0.38,613a73d06cf1fcfef304d3fa,650c16f0f2faf8d7a0d14c09,651c357654d122dddd1c01bd,null,null,"<p style=""font-size: 60px; font-family: BACS"">OLJblZAUu</p>",,,,,,,,,,
html-keyboard-response,452,540769,0.0-18.0-0.39,613a73d06cf1fcfef304d3fa,650c16f0f2faf8d7a0d14c09,651c357654d122dddd1c01bd,null,null,"<p style=""font-size: 60px; font-family: BACS"">RKYkmKcD</p>",,,,,,,,,,
html-keyboard-response,453,541778,0.0-18.0-0.40,613a73d06cf1fcfef304d3fa,650c16f0f2faf8d7a0d14c09,651c357654d122dddd1c01bd,null,null,"<p style=""font-size: 60px; font-family: BACS"">mrOdYaOk</p>",,,,,,,,,,
html-keyboard-response,454,542794,0.0-18.0-0.41,613a73d06cf1fcfef304d3fa,650c16f0f2faf8d7a0d14c09,651c357654d122dddd1c01bd,null,null,"<p style=""font-size: 60px; font-family: BACS"">MBmEYbBT</p>",,,,,,,,,,
html-keyboard-response,455,543797,0.0-18.0-0.42,613a73d06cf1fcfef304d3fa,650c16f0f2faf8d7a0d14c09,651c357654d122dddd1c01bd,null,null,"<p style=""font-size: 60px; font-family: BACS"">ZNLOvYaum</p>",,,,,,,,,,
html-keyboard-response,456,544802,0.0-18.0-0.43,613a73d06cf1fcfef304d3fa,650c16f0f2faf8d7a0d14c09,651c357654d122dddd1c01bd,null,null,"<p style=""font-size: 60px; font-family: BACS"">MkmEdmKcD</p>",,,,,,,,,,
html-keyboard-response,457,545808,0.0-18.0-0.44,613a73d06cf1fcfef304d3fa,650c16f0f2faf8d7a0d14c09,651c357654d122dddd1c01bd,null,null,"<p style=""font-size: 60px; font-family: BACS"">cRElDAPEM</p>",,,,,,,,,,
html-keyboard-response,458,546811,0.0-18.0-0.45,613a73d06cf1fcfef304d3fa,650c16f0f2faf8d7a0d14c09,651c357654d122dddd1c01bd,null,null,"<p style=""font-size: 60px; font-family: BACS"">OLJblZvkL</p>",,,,,,,,,,
html-keyboard-response,459,547822,0.0-18.0-0.46,613a73d06cf1fcfef304d3fa,650c16f0f2faf8d7a0d14c09,651c357654d122dddd1c01bd,null,null,"<p style=""font-size: 60px; font-family: BACS"">EPERdYBO</p>",,,,,,,,,,
html-keyboard-response,460,548832,0.0-18.0-0.47,613a73d06cf1fcfef304d3fa,650c16f0f2faf8d7a0d14c09,651c357654d122dddd1c01bd,null,null,"<p style=""font-size: 60px; font-family: BACS"">AZlLNZAUu</p>",,,,,,,,,,
html-keyboard-response,461,549840,0.0-18.0-0.48,613a73d06cf1fcfef304d3fa,650c16f0f2faf8d7a0d14c09,651c357654d122dddd1c01bd,null,null,"<p style=""font-size: 60px; font-family: BACS"">uauOYaum</p>",,,,,,,,,,
html-keyboard-response,462,550845,0.0-18.0-0.49,613a73d06cf1fcfef304d3fa,650c16f0f2faf8d7a0d14c09,651c357654d122dddd1c01bd,null,null,"<p style=""font-size: 60px; font-family: BACS"">chEDOmKcD</p>",,,,,,,,,,
html-keyboard-response,463,551850,0.0-18.0-0.50,613a73d06cf1fcfef304d3fa,650c16f0f2faf8d7a0d14c09,651c357654d122dddd1c01bd,null,null,"<p style=""font-size: 60px; font-family: BACS"">ckduAZAUu</p>",,,,,,,,,,
html-keyboard-response,464,552855,0.0-18.0-0.51,613a73d06cf1fcfef304d3fa,650c16f0f2faf8d7a0d14c09,651c357654d122dddd1c01bd,null,null,"<p style=""font-size: 60px; font-family: BACS"">CYPcCKOb</p>",,,,,,,,,,
html-keyboard-response,465,553859,0.0-18.0-0.52,613a73d06cf1fcfef304d3fa,650c16f0f2faf8d7a0d14c09,651c357654d122dddd1c01bd,null,null,"<p style=""font-size: 60px; font-family: BACS"">AbkaZAUu</p>",,,,,,,,,,
html-keyboard-response,466,554874,0.0-18.0-0.53,613a73d06cf1fcfef304d3fa,650c16f0f2faf8d7a0d14c09,651c357654d122dddd1c01bd,null,null,"<p style=""font-size: 60px; font-family: BACS"">vYLUZvkL</p>",,,,,,,,,,
html-keyboard-response,467,555888,0.0-18.0-0.54,613a73d06cf1fcfef304d3fa,650c16f0f2faf8d7a0d14c09,651c357654d122dddd1c01bd,null,null,"<p style=""font-size: 60px; font-family: BACS"">RKYkYBO</p>",,,,,,,,,,
