"trial_type","trial_index","time_elapsed","internal_node_id","subject_id","study_id","session_id","rt","response","stimulus","success","item","task","correct_response","testing_condition","correct","target","confound","name"
"pavlovia","0","2689","0.0-0.0","60d478e72e8251287b641b2d","650c16f0f2faf8d7a0d14c09","651c1e4a1e344958f6551b42","","","","","","","","","","","",""
"survey-html-form","1","17598","0.0-1.0","60d478e72e8251287b641b2d","650c16f0f2faf8d7a0d14c09","651c1e4a1e344958f6551b42","14906","{""ID"":""60d478e72e8251287b641b2d""}","","","","","","","","","",""
"html-keyboard-response","2","29016","0.0-2.0","60d478e72e8251287b641b2d","650c16f0f2faf8d7a0d14c09","651c1e4a1e344958f6551b42","11415"," ","<p style=""font-size: 15px;"">Before beginning, we ask that you read the consent information and confirm your agreement to participate in the experiment.</p>
      <p style=""font-size: 15px;""> We ask that you remember that this is a research project and that your participation is entirely voluntary. You can stop your participation at any time, without needing to provide any explanation. The study we're asking you to participate in aims at examining how readers process written words. You will be engaged in a session of apprximately 20 minutes, followed by a brief questionnaire. You will have the opportunity to take a few breaks during the experiment. You will be paid £4 for your participation, corresponding to a rate of £8/hour. While this experiment looks at cognitive faculties, this experiment doesn't constitute clinical proof of eventual pathologies.</p>
      <p style=""font-size: 15px;"">All of the information collected thanks to yours and others' participation will be held in a secure password-protected server, and will not be shared with anyone not authorised to view it. Your personal information will be kept with an arbitrary participant ID. Thanks to this data anonymity process, any researcher analysing the data won't be able to track the information back to a specific participant. Therefore, this process will make identifying you impossibile, even when results from the study will be published in scientific reviews, presented at congresses, or at any other public forum. More generally, the collected data will be treated in accordance with the laws on privacy and conformity to the Legislative Degree n. 196 ""Code regarding the protection of personal data"" of the 30th of June 2003 and to the European Regulation 2016/670 (General Data Protection Regulation - GDPR). The Data Protection Officer is Avv. Valentina Carollo, who can be contacted at the following email addresses: <a href=""mailto:dpo@sissa.it"">dpo@sissa.it</a> or <a href=""mailto:rpd@sissa.it"">rpd@sissa.it</a> - PEC: <a href=""mailto:protocollo@pec.sissa.it"">protocollo@pec.sissa.it</a>.</p>
      <p style=""font-size: 15px;""> Before expressing your consent to participate, we would like to remind you again that in case you need explanations on any aspect of the experimental procedure, the researcher is at your disposition (<a href=""mailto:aliebelt@sissa.it"">aliebelt@sissa.it</a>, <a href=""mailto:davide.crepaldi@sissa.it"">davide.crepaldi@sissa.it</a>).</p>
      <p style=""font-size: 15px;"">If you would like to download the informed consent form, you can do so here: <a href=""BASL-Informed_Consent.pdf"" download>informed consent form</a>.</p>
      <p style=""font-size: 15px;"">We ask that you press the spacebar to proceed to the consent section.</p>","","","","","","","","",""
"survey-html-form","3","185910","0.0-3.0","60d478e72e8251287b641b2d","650c16f0f2faf8d7a0d14c09","651c1e4a1e344958f6551b42","156893","{""consent1"":""YES"",""consent2"":""YES"",""consent3"":""YES"",""consent4"":""YES"",""consent5"":""YES"",""consent6"":""YES""}","","","","","","","","","",""
"fullscreen","4","190995","0.0-4.0","60d478e72e8251287b641b2d","650c16f0f2faf8d7a0d14c09","651c1e4a1e344958f6551b42","","","","true","","","","","","","",""
"html-keyboard-response","5","201486","0.0-5.0","60d478e72e8251287b641b2d","650c16f0f2faf8d7a0d14c09","651c1e4a1e344958f6551b42","10490"," ","<p>Welcome, and thank you very much for your time!</p>
      <p>In this experiment, you'll be a language expert who's been asked to take a look at words that Earth has received in its first communication with aliens. Your task, in this first part of the experiment, is to pay close attention to the words you'll be shown; later, world leaders will ask you questions on what you saw. The words will be shown to you quite quickly; it seems that the aliens were in a hurry :-)</p>
      <p>Press the spacebar to continue.<p>","","","","","","","","",""
"html-keyboard-response","6","201538","0.0-6.0","60d478e72e8251287b641b2d","650c16f0f2faf8d7a0d14c09","651c1e4a1e344958f6551b42","null","null","<p style=""font-size: 120px; font-family: BACS""> </p>","","","","","","","","",""
"html-keyboard-response","7","206323","0.0-7.0","60d478e72e8251287b641b2d","650c16f0f2faf8d7a0d14c09","651c1e4a1e344958f6551b42","4784"," ","<p>Here is an example of the words you'll see:</p>
      <img src='esempio.png' height='400px'>
      <p>When you're ready to begin, press the spacebar.</p></div>","","","","","","","","",""
"html-keyboard-response","8","207329","0.0-8.0-0.0","60d478e72e8251287b641b2d","650c16f0f2faf8d7a0d14c09","651c1e4a1e344958f6551b42","null","null","<p style=""font-size: 60px; font-family: BACS"">ZdNmUvJQ</p>","","","","","","","","",""
"html-keyboard-response","9","208338","0.0-8.0-0.1","60d478e72e8251287b641b2d","650c16f0f2faf8d7a0d14c09","651c1e4a1e344958f6551b42","null","null","<p style=""font-size: 60px; font-family: BACS"">mLdkZAld</p>","","","","","","","","",""
"html-keyboard-response","10","209353","0.0-8.0-0.2","60d478e72e8251287b641b2d","650c16f0f2faf8d7a0d14c09","651c1e4a1e344958f6551b42","null","null","<p style=""font-size: 60px; font-family: BACS"">hTtBbDbMR</p>","","","","","","","","",""
"html-keyboard-response","11","210358","0.0-8.0-0.3","60d478e72e8251287b641b2d","650c16f0f2faf8d7a0d14c09","651c1e4a1e344958f6551b42","null","null","<p style=""font-size: 60px; font-family: BACS"">ZdNmUcUN</p>","","","","","","","","",""
"html-keyboard-response","12","211367","0.0-8.0-0.4","60d478e72e8251287b641b2d","650c16f0f2faf8d7a0d14c09","651c1e4a1e344958f6551b42","null","null","<p style=""font-size: 60px; font-family: BACS"">aOLZUlGc</p>","","","","","","","","",""
"html-keyboard-response","13","212378","0.0-8.0-0.5","60d478e72e8251287b641b2d","650c16f0f2faf8d7a0d14c09","651c1e4a1e344958f6551b42","null","null","<p style=""font-size: 60px; font-family: BACS"">EtMDMdTAh</p>","","","","","","","","",""
"html-keyboard-response","14","213387","0.0-8.0-0.6","60d478e72e8251287b641b2d","650c16f0f2faf8d7a0d14c09","651c1e4a1e344958f6551b42","null","null","<p style=""font-size: 60px; font-family: BACS"">hTtBbOtM</p>","","","","","","","","",""
"html-keyboard-response","15","214400","0.0-8.0-0.7","60d478e72e8251287b641b2d","650c16f0f2faf8d7a0d14c09","651c1e4a1e344958f6551b42","null","null","<p style=""font-size: 60px; font-family: BACS"">uQkrdAld</p>","","","","","","","","",""
"html-keyboard-response","16","215402","0.0-8.0-0.8","60d478e72e8251287b641b2d","650c16f0f2faf8d7a0d14c09","651c1e4a1e344958f6551b42","null","null","<p style=""font-size: 60px; font-family: BACS"">hTtBbdTAh</p>","","","","","","","","",""
"html-keyboard-response","17","216414","0.0-8.0-0.9","60d478e72e8251287b641b2d","650c16f0f2faf8d7a0d14c09","651c1e4a1e344958f6551b42","null","null","<p style=""font-size: 60px; font-family: BACS"">aOLZUcUN</p>","","","","","","","","",""
"html-keyboard-response","18","217424","0.0-8.0-0.10","60d478e72e8251287b641b2d","650c16f0f2faf8d7a0d14c09","651c1e4a1e344958f6551b42","null","null","<p style=""font-size: 60px; font-family: BACS"">mLdkZJcL</p>","","","","","","","","",""
"html-keyboard-response","19","218427","0.0-8.0-0.11","60d478e72e8251287b641b2d","650c16f0f2faf8d7a0d14c09","651c1e4a1e344958f6551b42","null","null","<p style=""font-size: 60px; font-family: BACS"">EtMDMDbMR</p>","","","","","","","","",""
"html-keyboard-response","20","219429","0.0-8.0-0.12","60d478e72e8251287b641b2d","650c16f0f2faf8d7a0d14c09","651c1e4a1e344958f6551b42","null","null","<p style=""font-size: 60px; font-family: BACS"">bYGOZAld</p>","","","","","","","","",""
"html-keyboard-response","21","220442","0.0-8.0-0.13","60d478e72e8251287b641b2d","650c16f0f2faf8d7a0d14c09","651c1e4a1e344958f6551b42","null","null","<p style=""font-size: 60px; font-family: BACS"">bAdkTmc</p>","","","","","","","","",""
"html-keyboard-response","22","221451","0.0-8.0-0.14","60d478e72e8251287b641b2d","650c16f0f2faf8d7a0d14c09","651c1e4a1e344958f6551b42","null","null","<p style=""font-size: 60px; font-family: BACS"">lBlEdTAh</p>","","","","","","","","",""
"html-keyboard-response","23","222461","0.0-8.0-0.15","60d478e72e8251287b641b2d","650c16f0f2faf8d7a0d14c09","651c1e4a1e344958f6551b42","null","null","<p style=""font-size: 60px; font-family: BACS"">bAdkDbMR</p>","","","","","","","","",""
"html-keyboard-response","24","223477","0.0-8.0-0.16","60d478e72e8251287b641b2d","650c16f0f2faf8d7a0d14c09","651c1e4a1e344958f6551b42","null","null","<p style=""font-size: 60px; font-family: BACS"">mLdkZlGc</p>","","","","","","","","",""
"html-keyboard-response","25","224479","0.0-8.0-0.17","60d478e72e8251287b641b2d","650c16f0f2faf8d7a0d14c09","651c1e4a1e344958f6551b42","null","null","<p style=""font-size: 60px; font-family: BACS"">RCcETmc</p>","","","","","","","","",""
"html-keyboard-response","26","225489","0.0-8.0-0.18","60d478e72e8251287b641b2d","650c16f0f2faf8d7a0d14c09","651c1e4a1e344958f6551b42","null","null","<p style=""font-size: 60px; font-family: BACS"">mZUrQAld</p>","","","","","","","","",""
"html-keyboard-response","27","226503","0.0-8.0-0.19","60d478e72e8251287b641b2d","650c16f0f2faf8d7a0d14c09","651c1e4a1e344958f6551b42","null","null","<p style=""font-size: 60px; font-family: BACS"">bYGOZcUN</p>","","","","","","","","",""
"html-keyboard-response","28","227505","0.0-8.0-0.20","60d478e72e8251287b641b2d","650c16f0f2faf8d7a0d14c09","651c1e4a1e344958f6551b42","null","null","<p style=""font-size: 60px; font-family: BACS"">uQkrdJcL</p>","","","","","","","","",""
"html-keyboard-response","29","228507","0.0-8.0-0.21","60d478e72e8251287b641b2d","650c16f0f2faf8d7a0d14c09","651c1e4a1e344958f6551b42","null","null","<p style=""font-size: 60px; font-family: BACS"">mZUrQcUN</p>","","","","","","","","",""
"html-keyboard-response","30","229515","0.0-8.0-0.22","60d478e72e8251287b641b2d","650c16f0f2faf8d7a0d14c09","651c1e4a1e344958f6551b42","null","null","<p style=""font-size: 60px; font-family: BACS"">RCcEOtM</p>","","","","","","","","",""
"html-keyboard-response","31","230527","0.0-8.0-0.23","60d478e72e8251287b641b2d","650c16f0f2faf8d7a0d14c09","651c1e4a1e344958f6551b42","null","null","<p style=""font-size: 60px; font-family: BACS"">uQkrdvJQ</p>","","","","","","","","",""
"html-keyboard-response","32","231531","0.0-8.0-0.24","60d478e72e8251287b641b2d","650c16f0f2faf8d7a0d14c09","651c1e4a1e344958f6551b42","null","null","<p style=""font-size: 60px; font-family: BACS"">JdGmAld</p>","","","","","","","","",""
"html-keyboard-response","33","232540","0.0-8.0-0.25","60d478e72e8251287b641b2d","650c16f0f2faf8d7a0d14c09","651c1e4a1e344958f6551b42","null","null","<p style=""font-size: 60px; font-family: BACS"">lBlETmc</p>","","","","","","","","",""
"html-keyboard-response","34","233544","0.0-8.0-0.26","60d478e72e8251287b641b2d","650c16f0f2faf8d7a0d14c09","651c1e4a1e344958f6551b42","null","null","<p style=""font-size: 60px; font-family: BACS"">DBkldTAh</p>","","","","","","","","",""
"html-keyboard-response","35","234548","0.0-8.0-0.27","60d478e72e8251287b641b2d","650c16f0f2faf8d7a0d14c09","651c1e4a1e344958f6551b42","null","null","<p style=""font-size: 60px; font-family: BACS"">cROMtDbMR</p>","","","","","","","","",""
"html-keyboard-response","36","235561","0.0-8.0-0.28","60d478e72e8251287b641b2d","650c16f0f2faf8d7a0d14c09","651c1e4a1e344958f6551b42","null","null","<p style=""font-size: 60px; font-family: BACS"">MTdYOtM</p>","","","","","","","","",""
"html-keyboard-response","37","236577","0.0-8.0-0.29","60d478e72e8251287b641b2d","650c16f0f2faf8d7a0d14c09","651c1e4a1e344958f6551b42","null","null","<p style=""font-size: 60px; font-family: BACS"">AMkCTmc</p>","","","","","","","","",""
"html-keyboard-response","38","237590","0.0-8.0-0.30","60d478e72e8251287b641b2d","650c16f0f2faf8d7a0d14c09","651c1e4a1e344958f6551b42","null","null","<p style=""font-size: 60px; font-family: BACS"">LOLkUcUN</p>","","","","","","","","",""
"html-keyboard-response","39","238599","0.0-8.0-0.31","60d478e72e8251287b641b2d","650c16f0f2faf8d7a0d14c09","651c1e4a1e344958f6551b42","null","null","<p style=""font-size: 60px; font-family: BACS"">lBlEOtM</p>","","","","","","","","",""
"html-keyboard-response","40","239603","0.0-8.0-0.32","60d478e72e8251287b641b2d","650c16f0f2faf8d7a0d14c09","651c1e4a1e344958f6551b42","null","null","<p style=""font-size: 60px; font-family: BACS"">RCcEDbMR</p>","","","","","","","","",""
"html-keyboard-response","41","240607","0.0-8.0-0.33","60d478e72e8251287b641b2d","650c16f0f2faf8d7a0d14c09","651c1e4a1e344958f6551b42","null","null","<p style=""font-size: 60px; font-family: BACS"">cROMtTmc</p>","","","","","","","","",""
"html-keyboard-response","42","241623","0.0-8.0-0.34","60d478e72e8251287b641b2d","650c16f0f2faf8d7a0d14c09","651c1e4a1e344958f6551b42","null","null","<p style=""font-size: 60px; font-family: BACS"">AMkCdTAh</p>","","","","","","","","",""
"html-keyboard-response","43","242638","0.0-8.0-0.35","60d478e72e8251287b641b2d","650c16f0f2faf8d7a0d14c09","651c1e4a1e344958f6551b42","null","null","<p style=""font-size: 60px; font-family: BACS"">DBklOtM</p>","","","","","","","","",""
"html-keyboard-response","44","243648","0.0-8.0-0.36","60d478e72e8251287b641b2d","650c16f0f2faf8d7a0d14c09","651c1e4a1e344958f6551b42","null","null","<p style=""font-size: 60px; font-family: BACS"">bYGOZvJQ</p>","","","","","","","","",""
"html-keyboard-response","45","244656","0.0-8.0-0.37","60d478e72e8251287b641b2d","650c16f0f2faf8d7a0d14c09","651c1e4a1e344958f6551b42","null","null","<p style=""font-size: 60px; font-family: BACS"">EtMDMTPOM</p>","","","","","","","","",""
"html-keyboard-response","46","245662","0.0-8.0-0.38","60d478e72e8251287b641b2d","650c16f0f2faf8d7a0d14c09","651c1e4a1e344958f6551b42","null","null","<p style=""font-size: 60px; font-family: BACS"">cROMtOtM</p>","","","","","","","","",""
"html-keyboard-response","47","246668","0.0-8.0-0.39","60d478e72e8251287b641b2d","650c16f0f2faf8d7a0d14c09","651c1e4a1e344958f6551b42","null","null","<p style=""font-size: 60px; font-family: BACS"">laYmrJcL</p>","","","","","","","","",""
"html-keyboard-response","48","247670","0.0-8.0-0.40","60d478e72e8251287b641b2d","650c16f0f2faf8d7a0d14c09","651c1e4a1e344958f6551b42","null","null","<p style=""font-size: 60px; font-family: BACS"">JdGmlGc</p>","","","","","","","","",""
"html-keyboard-response","49","248679","0.0-8.0-0.41","60d478e72e8251287b641b2d","650c16f0f2faf8d7a0d14c09","651c1e4a1e344958f6551b42","null","null","<p style=""font-size: 60px; font-family: BACS"">YuaNdvJQ</p>","","","","","","","","",""
"html-keyboard-response","50","249684","0.0-8.0-0.42","60d478e72e8251287b641b2d","650c16f0f2faf8d7a0d14c09","651c1e4a1e344958f6551b42","null","null","<p style=""font-size: 60px; font-family: BACS"">bAdkTPOM</p>","","","","","","","","",""
"html-keyboard-response","51","250692","0.0-8.0-0.43","60d478e72e8251287b641b2d","650c16f0f2faf8d7a0d14c09","651c1e4a1e344958f6551b42","null","null","<p style=""font-size: 60px; font-family: BACS"">dOYmlTmc</p>","","","","","","","","",""
"html-keyboard-response","52","251695","0.0-8.0-0.44","60d478e72e8251287b641b2d","650c16f0f2faf8d7a0d14c09","651c1e4a1e344958f6551b42","null","null","<p style=""font-size: 60px; font-family: BACS"">LOLkUvJQ</p>","","","","","","","","",""
"html-keyboard-response","53","252707","0.0-8.0-0.45","60d478e72e8251287b641b2d","650c16f0f2faf8d7a0d14c09","651c1e4a1e344958f6551b42","null","null","<p style=""font-size: 60px; font-family: BACS"">MTdYTmc</p>","","","","","","","","",""
"html-keyboard-response","54","253713","0.0-8.0-0.46","60d478e72e8251287b641b2d","650c16f0f2faf8d7a0d14c09","651c1e4a1e344958f6551b42","null","null","<p style=""font-size: 60px; font-family: BACS"">dOYmlOtM</p>","","","","","","","","",""
"html-keyboard-response","55","254722","0.0-8.0-0.47","60d478e72e8251287b641b2d","650c16f0f2faf8d7a0d14c09","651c1e4a1e344958f6551b42","null","null","<p style=""font-size: 60px; font-family: BACS"">ZdNmUAld</p>","","","","","","","","",""
"html-keyboard-response","56","255726","0.0-8.0-0.48","60d478e72e8251287b641b2d","650c16f0f2faf8d7a0d14c09","651c1e4a1e344958f6551b42","null","null","<p style=""font-size: 60px; font-family: BACS"">MTdYdTAh</p>","","","","","","","","",""
"html-keyboard-response","57","256741","0.0-8.0-0.49","60d478e72e8251287b641b2d","650c16f0f2faf8d7a0d14c09","651c1e4a1e344958f6551b42","null","null","<p style=""font-size: 60px; font-family: BACS"">laYmrlGc</p>","","","","","","","","",""
"html-keyboard-response","58","257755","0.0-8.0-0.50","60d478e72e8251287b641b2d","650c16f0f2faf8d7a0d14c09","651c1e4a1e344958f6551b42","null","null","<p style=""font-size: 60px; font-family: BACS"">mLdkZcUN</p>","","","","","","","","",""
"html-keyboard-response","59","258771","0.0-8.0-0.51","60d478e72e8251287b641b2d","650c16f0f2faf8d7a0d14c09","651c1e4a1e344958f6551b42","null","null","<p style=""font-size: 60px; font-family: BACS"">ZdNmUlGc</p>","","","","","","","","",""
"html-keyboard-response","60","259776","0.0-8.0-0.52","60d478e72e8251287b641b2d","650c16f0f2faf8d7a0d14c09","651c1e4a1e344958f6551b42","null","null","<p style=""font-size: 60px; font-family: BACS"">RCcEdTAh</p>","","","","","","","","",""
"html-keyboard-response","61","260790","0.0-8.0-0.53","60d478e72e8251287b641b2d","650c16f0f2faf8d7a0d14c09","651c1e4a1e344958f6551b42","null","null","<p style=""font-size: 60px; font-family: BACS"">laYmrcUN</p>","","","","","","","","",""
"html-keyboard-response","62","261799","0.0-8.0-0.54","60d478e72e8251287b641b2d","650c16f0f2faf8d7a0d14c09","651c1e4a1e344958f6551b42","null","null","<p style=""font-size: 60px; font-family: BACS"">AMkCTPOM</p>","","","","","","","","",""
"html-keyboard-response","63","262806","0.0-8.0-0.55","60d478e72e8251287b641b2d","650c16f0f2faf8d7a0d14c09","651c1e4a1e344958f6551b42","null","null","<p style=""font-size: 60px; font-family: BACS"">JdGmJcL</p>","","","","","","","","",""
"html-keyboard-response","64","263819","0.0-8.0-0.56","60d478e72e8251287b641b2d","650c16f0f2faf8d7a0d14c09","651c1e4a1e344958f6551b42","null","null","<p style=""font-size: 60px; font-family: BACS"">cROMtdTAh</p>","","","","","","","","",""
"html-keyboard-response","65","264834","0.0-8.0-0.57","60d478e72e8251287b641b2d","650c16f0f2faf8d7a0d14c09","651c1e4a1e344958f6551b42","null","null","<p style=""font-size: 60px; font-family: BACS"">bAdkOtM</p>","","","","","","","","",""
"html-keyboard-response","66","265839","0.0-8.0-0.58","60d478e72e8251287b641b2d","650c16f0f2faf8d7a0d14c09","651c1e4a1e344958f6551b42","null","null","<p style=""font-size: 60px; font-family: BACS"">aOLZUJcL</p>","","","","","","","","",""
"html-keyboard-response","67","266849","0.0-8.0-0.59","60d478e72e8251287b641b2d","650c16f0f2faf8d7a0d14c09","651c1e4a1e344958f6551b42","null","null","<p style=""font-size: 60px; font-family: BACS"">laYmrAld</p>","","","","","","","","",""
"html-keyboard-response","68","267858","0.0-8.0-0.60","60d478e72e8251287b641b2d","650c16f0f2faf8d7a0d14c09","651c1e4a1e344958f6551b42","null","null","<p style=""font-size: 60px; font-family: BACS"">MTdYTPOM</p>","","","","","","","","",""
"html-keyboard-response","69","268872","0.0-8.0-0.61","60d478e72e8251287b641b2d","650c16f0f2faf8d7a0d14c09","651c1e4a1e344958f6551b42","null","null","<p style=""font-size: 60px; font-family: BACS"">DBklDbMR</p>","","","","","","","","",""
"html-keyboard-response","70","269876","0.0-8.0-0.62","60d478e72e8251287b641b2d","650c16f0f2faf8d7a0d14c09","651c1e4a1e344958f6551b42","null","null","<p style=""font-size: 60px; font-family: BACS"">mZUrQvJQ</p>","","","","","","","","",""
"html-keyboard-response","71","270878","0.0-8.0-0.63","60d478e72e8251287b641b2d","650c16f0f2faf8d7a0d14c09","651c1e4a1e344958f6551b42","null","null","<p style=""font-size: 60px; font-family: BACS"">AMkCDbMR</p>","","","","","","","","",""
"html-keyboard-response","72","271887","0.0-8.0-0.64","60d478e72e8251287b641b2d","650c16f0f2faf8d7a0d14c09","651c1e4a1e344958f6551b42","null","null","<p style=""font-size: 60px; font-family: BACS"">lBlETPOM</p>","","","","","","","","",""
"html-keyboard-response","73","272894","0.0-8.0-0.65","60d478e72e8251287b641b2d","650c16f0f2faf8d7a0d14c09","651c1e4a1e344958f6551b42","null","null","<p style=""font-size: 60px; font-family: BACS"">EtMDMTmc</p>","","","","","","","","",""
"html-keyboard-response","74","273896","0.0-8.0-0.66","60d478e72e8251287b641b2d","650c16f0f2faf8d7a0d14c09","651c1e4a1e344958f6551b42","null","null","<p style=""font-size: 60px; font-family: BACS"">DBklTPOM</p>","","","","","","","","",""
"html-keyboard-response","75","274910","0.0-8.0-0.67","60d478e72e8251287b641b2d","650c16f0f2faf8d7a0d14c09","651c1e4a1e344958f6551b42","null","null","<p style=""font-size: 60px; font-family: BACS"">YuaNdcUN</p>","","","","","","","","",""
"html-keyboard-response","76","275912","0.0-8.0-0.68","60d478e72e8251287b641b2d","650c16f0f2faf8d7a0d14c09","651c1e4a1e344958f6551b42","null","null","<p style=""font-size: 60px; font-family: BACS"">bYGOZJcL</p>","","","","","","","","",""
"html-keyboard-response","77","276914","0.0-8.0-0.69","60d478e72e8251287b641b2d","650c16f0f2faf8d7a0d14c09","651c1e4a1e344958f6551b42","null","null","<p style=""font-size: 60px; font-family: BACS"">aOLZUvJQ</p>","","","","","","","","",""
"html-keyboard-response","78","277924","0.0-8.0-0.70","60d478e72e8251287b641b2d","650c16f0f2faf8d7a0d14c09","651c1e4a1e344958f6551b42","null","null","<p style=""font-size: 60px; font-family: BACS"">dOYmlTPOM</p>","","","","","","","","",""
"html-keyboard-response","79","278925","0.0-8.0-0.71","60d478e72e8251287b641b2d","650c16f0f2faf8d7a0d14c09","651c1e4a1e344958f6551b42","null","null","<p style=""font-size: 60px; font-family: BACS"">mZUrQJcL</p>","","","","","","","","",""
"html-keyboard-response","80","279933","0.0-8.0-0.72","60d478e72e8251287b641b2d","650c16f0f2faf8d7a0d14c09","651c1e4a1e344958f6551b42","null","null","<p style=""font-size: 60px; font-family: BACS"">YuaNdlGc</p>","","","","","","","","",""
"html-keyboard-response","81","280949","0.0-8.0-0.73","60d478e72e8251287b641b2d","650c16f0f2faf8d7a0d14c09","651c1e4a1e344958f6551b42","null","null","<p style=""font-size: 60px; font-family: BACS"">dOYmlDbMR</p>","","","","","","","","",""
"html-keyboard-response","82","281950","0.0-8.0-0.74","60d478e72e8251287b641b2d","650c16f0f2faf8d7a0d14c09","651c1e4a1e344958f6551b42","null","null","<p style=""font-size: 60px; font-family: BACS"">YuaNdAld</p>","","","","","","","","",""
"html-keyboard-response","83","282957","0.0-8.0-0.75","60d478e72e8251287b641b2d","650c16f0f2faf8d7a0d14c09","651c1e4a1e344958f6551b42","null","null","<p style=""font-size: 60px; font-family: BACS"">LOLkUJcL</p>","","","","","","","","",""
"html-keyboard-response","84","283959","0.0-8.0-0.76","60d478e72e8251287b641b2d","650c16f0f2faf8d7a0d14c09","651c1e4a1e344958f6551b42","null","null","<p style=""font-size: 60px; font-family: BACS"">hTtBbTPOM</p>","","","","","","","","",""
"html-keyboard-response","85","284966","0.0-8.0-0.77","60d478e72e8251287b641b2d","650c16f0f2faf8d7a0d14c09","651c1e4a1e344958f6551b42","null","null","<p style=""font-size: 60px; font-family: BACS"">LOLkUlGc</p>","","","","","","","","",""
"html-keyboard-response","86","285980","0.0-8.0-0.78","60d478e72e8251287b641b2d","650c16f0f2faf8d7a0d14c09","651c1e4a1e344958f6551b42","null","null","<p style=""font-size: 60px; font-family: BACS"">JdGmvJQ</p>","","","","","","","","",""
"html-keyboard-response","87","286993","0.0-8.0-0.79","60d478e72e8251287b641b2d","650c16f0f2faf8d7a0d14c09","651c1e4a1e344958f6551b42","null","null","<p style=""font-size: 60px; font-family: BACS"">uQkrdlGc</p>","","","","","","","","",""
"html-keyboard-response","88","290351","0.0-9.0","60d478e72e8251287b641b2d","650c16f0f2faf8d7a0d14c09","651c1e4a1e344958f6551b42","3357"," ","<p>Great, you've seen the first block of words. You may now take a short break.</p>
      <p>Press the spacebar when you're ready to continue.</p>","","","","","","","","",""
"html-keyboard-response","89","291358","0.0-10.0-0.0","60d478e72e8251287b641b2d","650c16f0f2faf8d7a0d14c09","651c1e4a1e344958f6551b42","null","null","<p style=""font-size: 60px; font-family: BACS"">aOLZUcUN</p>","","","","","","","","",""
"html-keyboard-response","90","292366","0.0-10.0-0.1","60d478e72e8251287b641b2d","650c16f0f2faf8d7a0d14c09","651c1e4a1e344958f6551b42","null","null","<p style=""font-size: 60px; font-family: BACS"">cROMtdTAh</p>","","","","","","","","",""
"html-keyboard-response","91","293374","0.0-10.0-0.2","60d478e72e8251287b641b2d","650c16f0f2faf8d7a0d14c09","651c1e4a1e344958f6551b42","null","null","<p style=""font-size: 60px; font-family: BACS"">dOYmlTmc</p>","","","","","","","","",""
"html-keyboard-response","92","294379","0.0-10.0-0.3","60d478e72e8251287b641b2d","650c16f0f2faf8d7a0d14c09","651c1e4a1e344958f6551b42","null","null","<p style=""font-size: 60px; font-family: BACS"">ZdNmUcUN</p>","","","","","","","","",""
"html-keyboard-response","93","295388","0.0-10.0-0.4","60d478e72e8251287b641b2d","650c16f0f2faf8d7a0d14c09","651c1e4a1e344958f6551b42","null","null","<p style=""font-size: 60px; font-family: BACS"">YuaNdvJQ</p>","","","","","","","","",""
"html-keyboard-response","94","296392","0.0-10.0-0.5","60d478e72e8251287b641b2d","650c16f0f2faf8d7a0d14c09","651c1e4a1e344958f6551b42","null","null","<p style=""font-size: 60px; font-family: BACS"">mLdkZcUN</p>","","","","","","","","",""
"html-keyboard-response","95","297403","0.0-10.0-0.6","60d478e72e8251287b641b2d","650c16f0f2faf8d7a0d14c09","651c1e4a1e344958f6551b42","null","null","<p style=""font-size: 60px; font-family: BACS"">JdGmAld</p>","","","","","","","","",""
"html-keyboard-response","96","298404","0.0-10.0-0.7","60d478e72e8251287b641b2d","650c16f0f2faf8d7a0d14c09","651c1e4a1e344958f6551b42","null","null","<p style=""font-size: 60px; font-family: BACS"">dOYmlOtM</p>","","","","","","","","",""
"html-keyboard-response","97","299418","0.0-10.0-0.8","60d478e72e8251287b641b2d","650c16f0f2faf8d7a0d14c09","651c1e4a1e344958f6551b42","null","null","<p style=""font-size: 60px; font-family: BACS"">mLdkZAld</p>","","","","","","","","",""
"html-keyboard-response","98","300426","0.0-10.0-0.9","60d478e72e8251287b641b2d","650c16f0f2faf8d7a0d14c09","651c1e4a1e344958f6551b42","null","null","<p style=""font-size: 60px; font-family: BACS"">uQkrdlGc</p>","","","","","","","","",""
"html-keyboard-response","99","301429","0.0-10.0-0.10","60d478e72e8251287b641b2d","650c16f0f2faf8d7a0d14c09","651c1e4a1e344958f6551b42","null","null","<p style=""font-size: 60px; font-family: BACS"">bYGOZAld</p>","","","","","","","","",""
"html-keyboard-response","100","302442","0.0-10.0-0.11","60d478e72e8251287b641b2d","650c16f0f2faf8d7a0d14c09","651c1e4a1e344958f6551b42","null","null","<p style=""font-size: 60px; font-family: BACS"">lBlEdTAh</p>","","","","","","","","",""
"html-keyboard-response","101","303447","0.0-10.0-0.12","60d478e72e8251287b641b2d","650c16f0f2faf8d7a0d14c09","651c1e4a1e344958f6551b42","null","null","<p style=""font-size: 60px; font-family: BACS"">cROMtOtM</p>","","","","","","","","",""
"html-keyboard-response","102","304452","0.0-10.0-0.13","60d478e72e8251287b641b2d","650c16f0f2faf8d7a0d14c09","651c1e4a1e344958f6551b42","null","null","<p style=""font-size: 60px; font-family: BACS"">laYmrJcL</p>","","","","","","","","",""
"html-keyboard-response","103","305459","0.0-10.0-0.14","60d478e72e8251287b641b2d","650c16f0f2faf8d7a0d14c09","651c1e4a1e344958f6551b42","null","null","<p style=""font-size: 60px; font-family: BACS"">LOLkUlGc</p>","","","","","","","","",""
"html-keyboard-response","104","306475","0.0-10.0-0.15","60d478e72e8251287b641b2d","650c16f0f2faf8d7a0d14c09","651c1e4a1e344958f6551b42","null","null","<p style=""font-size: 60px; font-family: BACS"">RCcEDbMR</p>","","","","","","","","",""
"html-keyboard-response","105","307476","0.0-10.0-0.16","60d478e72e8251287b641b2d","650c16f0f2faf8d7a0d14c09","651c1e4a1e344958f6551b42","null","null","<p style=""font-size: 60px; font-family: BACS"">mLdkZJcL</p>","","","","","","","","",""
"html-keyboard-response","106","308482","0.0-10.0-0.17","60d478e72e8251287b641b2d","650c16f0f2faf8d7a0d14c09","651c1e4a1e344958f6551b42","null","null","<p style=""font-size: 60px; font-family: BACS"">AMkCTPOM</p>","","","","","","","","",""
"html-keyboard-response","107","309493","0.0-10.0-0.18","60d478e72e8251287b641b2d","650c16f0f2faf8d7a0d14c09","651c1e4a1e344958f6551b42","null","null","<p style=""font-size: 60px; font-family: BACS"">aOLZUJcL</p>","","","","","","","","",""
"html-keyboard-response","108","310498","0.0-10.0-0.19","60d478e72e8251287b641b2d","650c16f0f2faf8d7a0d14c09","651c1e4a1e344958f6551b42","null","null","<p style=""font-size: 60px; font-family: BACS"">hTtBbDbMR</p>","","","","","","","","",""
"html-keyboard-response","109","311508","0.0-10.0-0.20","60d478e72e8251287b641b2d","650c16f0f2faf8d7a0d14c09","651c1e4a1e344958f6551b42","null","null","<p style=""font-size: 60px; font-family: BACS"">mZUrQJcL</p>","","","","","","","","",""
"html-keyboard-response","110","312522","0.0-10.0-0.21","60d478e72e8251287b641b2d","650c16f0f2faf8d7a0d14c09","651c1e4a1e344958f6551b42","null","null","<p style=""font-size: 60px; font-family: BACS"">JdGmvJQ</p>","","","","","","","","",""
"html-keyboard-response","111","313539","0.0-10.0-0.22","60d478e72e8251287b641b2d","650c16f0f2faf8d7a0d14c09","651c1e4a1e344958f6551b42","null","null","<p style=""font-size: 60px; font-family: BACS"">laYmrcUN</p>","","","","","","","","",""
"html-keyboard-response","112","314541","0.0-10.0-0.23","60d478e72e8251287b641b2d","650c16f0f2faf8d7a0d14c09","651c1e4a1e344958f6551b42","null","null","<p style=""font-size: 60px; font-family: BACS"">uQkrdAld</p>","","","","","","","","",""
"html-keyboard-response","113","315549","0.0-10.0-0.24","60d478e72e8251287b641b2d","650c16f0f2faf8d7a0d14c09","651c1e4a1e344958f6551b42","null","null","<p style=""font-size: 60px; font-family: BACS"">DBklTPOM</p>","","","","","","","","",""
"html-keyboard-response","114","316555","0.0-10.0-0.25","60d478e72e8251287b641b2d","650c16f0f2faf8d7a0d14c09","651c1e4a1e344958f6551b42","null","null","<p style=""font-size: 60px; font-family: BACS"">RCcEOtM</p>","","","","","","","","",""
"html-keyboard-response","115","317569","0.0-10.0-0.26","60d478e72e8251287b641b2d","650c16f0f2faf8d7a0d14c09","651c1e4a1e344958f6551b42","null","null","<p style=""font-size: 60px; font-family: BACS"">lBlETPOM</p>","","","","","","","","",""
"html-keyboard-response","116","318581","0.0-10.0-0.27","60d478e72e8251287b641b2d","650c16f0f2faf8d7a0d14c09","651c1e4a1e344958f6551b42","null","null","<p style=""font-size: 60px; font-family: BACS"">aOLZUvJQ</p>","","","","","","","","",""
"html-keyboard-response","117","319590","0.0-10.0-0.28","60d478e72e8251287b641b2d","650c16f0f2faf8d7a0d14c09","651c1e4a1e344958f6551b42","null","null","<p style=""font-size: 60px; font-family: BACS"">MTdYOtM</p>","","","","","","","","",""
"html-keyboard-response","118","320602","0.0-10.0-0.29","60d478e72e8251287b641b2d","650c16f0f2faf8d7a0d14c09","651c1e4a1e344958f6551b42","null","null","<p style=""font-size: 60px; font-family: BACS"">AMkCDbMR</p>","","","","","","","","",""
"html-keyboard-response","119","321605","0.0-10.0-0.30","60d478e72e8251287b641b2d","650c16f0f2faf8d7a0d14c09","651c1e4a1e344958f6551b42","null","null","<p style=""font-size: 60px; font-family: BACS"">LOLkUJcL</p>","","","","","","","","",""
"html-keyboard-response","120","322615","0.0-10.0-0.31","60d478e72e8251287b641b2d","650c16f0f2faf8d7a0d14c09","651c1e4a1e344958f6551b42","null","null","<p style=""font-size: 60px; font-family: BACS"">laYmrlGc</p>","","","","","","","","",""
"html-keyboard-response","121","323628","0.0-10.0-0.32","60d478e72e8251287b641b2d","650c16f0f2faf8d7a0d14c09","651c1e4a1e344958f6551b42","null","null","<p style=""font-size: 60px; font-family: BACS"">AMkCTmc</p>","","","","","","","","",""
"html-keyboard-response","122","324636","0.0-10.0-0.33","60d478e72e8251287b641b2d","650c16f0f2faf8d7a0d14c09","651c1e4a1e344958f6551b42","null","null","<p style=""font-size: 60px; font-family: BACS"">bYGOZvJQ</p>","","","","","","","","",""
"html-keyboard-response","123","325646","0.0-10.0-0.34","60d478e72e8251287b641b2d","650c16f0f2faf8d7a0d14c09","651c1e4a1e344958f6551b42","null","null","<p style=""font-size: 60px; font-family: BACS"">RCcETmc</p>","","","","","","","","",""
"html-keyboard-response","124","326659","0.0-10.0-0.35","60d478e72e8251287b641b2d","650c16f0f2faf8d7a0d14c09","651c1e4a1e344958f6551b42","null","null","<p style=""font-size: 60px; font-family: BACS"">hTtBbOtM</p>","","","","","","","","",""
"html-keyboard-response","125","327675","0.0-10.0-0.36","60d478e72e8251287b641b2d","650c16f0f2faf8d7a0d14c09","651c1e4a1e344958f6551b42","null","null","<p style=""font-size: 60px; font-family: BACS"">MTdYTPOM</p>","","","","","","","","",""
"html-keyboard-response","126","328688","0.0-10.0-0.37","60d478e72e8251287b641b2d","650c16f0f2faf8d7a0d14c09","651c1e4a1e344958f6551b42","null","null","<p style=""font-size: 60px; font-family: BACS"">ZdNmUvJQ</p>","","","","","","","","",""
"html-keyboard-response","127","329694","0.0-10.0-0.38","60d478e72e8251287b641b2d","650c16f0f2faf8d7a0d14c09","651c1e4a1e344958f6551b42","null","null","<p style=""font-size: 60px; font-family: BACS"">lBlEOtM</p>","","","","","","","","",""
"html-keyboard-response","128","330704","0.0-10.0-0.39","60d478e72e8251287b641b2d","650c16f0f2faf8d7a0d14c09","651c1e4a1e344958f6551b42","null","null","<p style=""font-size: 60px; font-family: BACS"">RCcEdTAh</p>","","","","","","","","",""
"html-keyboard-response","129","331716","0.0-10.0-0.40","60d478e72e8251287b641b2d","650c16f0f2faf8d7a0d14c09","651c1e4a1e344958f6551b42","null","null","<p style=""font-size: 60px; font-family: BACS"">bYGOZcUN</p>","","","","","","","","",""
"html-keyboard-response","130","332717","0.0-10.0-0.41","60d478e72e8251287b641b2d","650c16f0f2faf8d7a0d14c09","651c1e4a1e344958f6551b42","null","null","<p style=""font-size: 60px; font-family: BACS"">uQkrdJcL</p>","","","","","","","","",""
"html-keyboard-response","131","333721","0.0-10.0-0.42","60d478e72e8251287b641b2d","650c16f0f2faf8d7a0d14c09","651c1e4a1e344958f6551b42","null","null","<p style=""font-size: 60px; font-family: BACS"">cROMtTmc</p>","","","","","","","","",""
"html-keyboard-response","132","334724","0.0-10.0-0.43","60d478e72e8251287b641b2d","650c16f0f2faf8d7a0d14c09","651c1e4a1e344958f6551b42","null","null","<p style=""font-size: 60px; font-family: BACS"">bYGOZJcL</p>","","","","","","","","",""
"html-keyboard-response","133","335736","0.0-10.0-0.44","60d478e72e8251287b641b2d","650c16f0f2faf8d7a0d14c09","651c1e4a1e344958f6551b42","null","null","<p style=""font-size: 60px; font-family: BACS"">YuaNdcUN</p>","","","","","","","","",""
"html-keyboard-response","134","336738","0.0-10.0-0.45","60d478e72e8251287b641b2d","650c16f0f2faf8d7a0d14c09","651c1e4a1e344958f6551b42","null","null","<p style=""font-size: 60px; font-family: BACS"">mZUrQvJQ</p>","","","","","","","","",""
"html-keyboard-response","135","337742","0.0-10.0-0.46","60d478e72e8251287b641b2d","650c16f0f2faf8d7a0d14c09","651c1e4a1e344958f6551b42","null","null","<p style=""font-size: 60px; font-family: BACS"">EtMDMTPOM</p>","","","","","","","","",""
"html-keyboard-response","136","338755","0.0-10.0-0.47","60d478e72e8251287b641b2d","650c16f0f2faf8d7a0d14c09","651c1e4a1e344958f6551b42","null","null","<p style=""font-size: 60px; font-family: BACS"">cROMtDbMR</p>","","","","","","","","",""
"html-keyboard-response","137","339770","0.0-10.0-0.48","60d478e72e8251287b641b2d","650c16f0f2faf8d7a0d14c09","651c1e4a1e344958f6551b42","null","null","<p style=""font-size: 60px; font-family: BACS"">YuaNdlGc</p>","","","","","","","","",""
"html-keyboard-response","138","340773","0.0-10.0-0.49","60d478e72e8251287b641b2d","650c16f0f2faf8d7a0d14c09","651c1e4a1e344958f6551b42","null","null","<p style=""font-size: 60px; font-family: BACS"">MTdYdTAh</p>","","","","","","","","",""
"html-keyboard-response","139","341779","0.0-10.0-0.50","60d478e72e8251287b641b2d","650c16f0f2faf8d7a0d14c09","651c1e4a1e344958f6551b42","null","null","<p style=""font-size: 60px; font-family: BACS"">mZUrQAld</p>","","","","","","","","",""
"html-keyboard-response","140","342791","0.0-10.0-0.51","60d478e72e8251287b641b2d","650c16f0f2faf8d7a0d14c09","651c1e4a1e344958f6551b42","null","null","<p style=""font-size: 60px; font-family: BACS"">DBkldTAh</p>","","","","","","","","",""
"html-keyboard-response","141","343795","0.0-10.0-0.52","60d478e72e8251287b641b2d","650c16f0f2faf8d7a0d14c09","651c1e4a1e344958f6551b42","null","null","<p style=""font-size: 60px; font-family: BACS"">bAdkDbMR</p>","","","","","","","","",""
"html-keyboard-response","142","344798","0.0-10.0-0.53","60d478e72e8251287b641b2d","650c16f0f2faf8d7a0d14c09","651c1e4a1e344958f6551b42","null","null","<p style=""font-size: 60px; font-family: BACS"">mLdkZlGc</p>","","","","","","","","",""
"html-keyboard-response","143","345801","0.0-10.0-0.54","60d478e72e8251287b641b2d","650c16f0f2faf8d7a0d14c09","651c1e4a1e344958f6551b42","null","null","<p style=""font-size: 60px; font-family: BACS"">dOYmlTPOM</p>","","","","","","","","",""
"html-keyboard-response","144","346815","0.0-10.0-0.55","60d478e72e8251287b641b2d","650c16f0f2faf8d7a0d14c09","651c1e4a1e344958f6551b42","null","null","<p style=""font-size: 60px; font-family: BACS"">mZUrQcUN</p>","","","","","","","","",""
"html-keyboard-response","145","347828","0.0-10.0-0.56","60d478e72e8251287b641b2d","650c16f0f2faf8d7a0d14c09","651c1e4a1e344958f6551b42","null","null","<p style=""font-size: 60px; font-family: BACS"">bAdkOtM</p>","","","","","","","","",""
"html-keyboard-response","146","348830","0.0-10.0-0.57","60d478e72e8251287b641b2d","650c16f0f2faf8d7a0d14c09","651c1e4a1e344958f6551b42","null","null","<p style=""font-size: 60px; font-family: BACS"">AMkCdTAh</p>","","","","","","","","",""
"html-keyboard-response","147","349842","0.0-10.0-0.58","60d478e72e8251287b641b2d","650c16f0f2faf8d7a0d14c09","651c1e4a1e344958f6551b42","null","null","<p style=""font-size: 60px; font-family: BACS"">dOYmlDbMR</p>","","","","","","","","",""
"html-keyboard-response","148","350848","0.0-10.0-0.59","60d478e72e8251287b641b2d","650c16f0f2faf8d7a0d14c09","651c1e4a1e344958f6551b42","null","null","<p style=""font-size: 60px; font-family: BACS"">lBlETmc</p>","","","","","","","","",""
"html-keyboard-response","149","351854","0.0-10.0-0.60","60d478e72e8251287b641b2d","650c16f0f2faf8d7a0d14c09","651c1e4a1e344958f6551b42","null","null","<p style=""font-size: 60px; font-family: BACS"">ZdNmUlGc</p>","","","","","","","","",""
"html-keyboard-response","150","352862","0.0-10.0-0.61","60d478e72e8251287b641b2d","650c16f0f2faf8d7a0d14c09","651c1e4a1e344958f6551b42","null","null","<p style=""font-size: 60px; font-family: BACS"">EtMDMDbMR</p>","","","","","","","","",""
"html-keyboard-response","151","353873","0.0-10.0-0.62","60d478e72e8251287b641b2d","650c16f0f2faf8d7a0d14c09","651c1e4a1e344958f6551b42","null","null","<p style=""font-size: 60px; font-family: BACS"">YuaNdAld</p>","","","","","","","","",""
"html-keyboard-response","152","354884","0.0-10.0-0.63","60d478e72e8251287b641b2d","650c16f0f2faf8d7a0d14c09","651c1e4a1e344958f6551b42","null","null","<p style=""font-size: 60px; font-family: BACS"">aOLZUlGc</p>","","","","","","","","",""
"html-keyboard-response","153","355896","0.0-10.0-0.64","60d478e72e8251287b641b2d","650c16f0f2faf8d7a0d14c09","651c1e4a1e344958f6551b42","null","null","<p style=""font-size: 60px; font-family: BACS"">LOLkUcUN</p>","","","","","","","","",""
"html-keyboard-response","154","356910","0.0-10.0-0.65","60d478e72e8251287b641b2d","650c16f0f2faf8d7a0d14c09","651c1e4a1e344958f6551b42","null","null","<p style=""font-size: 60px; font-family: BACS"">JdGmlGc</p>","","","","","","","","",""
"html-keyboard-response","155","357912","0.0-10.0-0.66","60d478e72e8251287b641b2d","650c16f0f2faf8d7a0d14c09","651c1e4a1e344958f6551b42","null","null","<p style=""font-size: 60px; font-family: BACS"">bAdkTmc</p>","","","","","","","","",""
"html-keyboard-response","156","358928","0.0-10.0-0.67","60d478e72e8251287b641b2d","650c16f0f2faf8d7a0d14c09","651c1e4a1e344958f6551b42","null","null","<p style=""font-size: 60px; font-family: BACS"">hTtBbTPOM</p>","","","","","","","","",""
"html-keyboard-response","157","359933","0.0-10.0-0.68","60d478e72e8251287b641b2d","650c16f0f2faf8d7a0d14c09","651c1e4a1e344958f6551b42","null","null","<p style=""font-size: 60px; font-family: BACS"">uQkrdvJQ</p>","","","","","","","","",""
"html-keyboard-response","158","360946","0.0-10.0-0.69","60d478e72e8251287b641b2d","650c16f0f2faf8d7a0d14c09","651c1e4a1e344958f6551b42","null","null","<p style=""font-size: 60px; font-family: BACS"">EtMDMdTAh</p>","","","","","","","","",""
"html-keyboard-response","159","361952","0.0-10.0-0.70","60d478e72e8251287b641b2d","650c16f0f2faf8d7a0d14c09","651c1e4a1e344958f6551b42","null","null","<p style=""font-size: 60px; font-family: BACS"">JdGmJcL</p>","","","","","","","","",""
"html-keyboard-response","160","362958","0.0-10.0-0.71","60d478e72e8251287b641b2d","650c16f0f2faf8d7a0d14c09","651c1e4a1e344958f6551b42","null","null","<p style=""font-size: 60px; font-family: BACS"">hTtBbdTAh</p>","","","","","","","","",""
"html-keyboard-response","161","363963","0.0-10.0-0.72","60d478e72e8251287b641b2d","650c16f0f2faf8d7a0d14c09","651c1e4a1e344958f6551b42","null","null","<p style=""font-size: 60px; font-family: BACS"">ZdNmUAld</p>","","","","","","","","",""
"html-keyboard-response","162","364976","0.0-10.0-0.73","60d478e72e8251287b641b2d","650c16f0f2faf8d7a0d14c09","651c1e4a1e344958f6551b42","null","null","<p style=""font-size: 60px; font-family: BACS"">DBklOtM</p>","","","","","","","","",""
"html-keyboard-response","163","365985","0.0-10.0-0.74","60d478e72e8251287b641b2d","650c16f0f2faf8d7a0d14c09","651c1e4a1e344958f6551b42","null","null","<p style=""font-size: 60px; font-family: BACS"">laYmrAld</p>","","","","","","","","",""
"html-keyboard-response","164","366996","0.0-10.0-0.75","60d478e72e8251287b641b2d","650c16f0f2faf8d7a0d14c09","651c1e4a1e344958f6551b42","null","null","<p style=""font-size: 60px; font-family: BACS"">EtMDMTmc</p>","","","","","","","","",""
"html-keyboard-response","165","368000","0.0-10.0-0.76","60d478e72e8251287b641b2d","650c16f0f2faf8d7a0d14c09","651c1e4a1e344958f6551b42","null","null","<p style=""font-size: 60px; font-family: BACS"">bAdkTPOM</p>","","","","","","","","",""
"html-keyboard-response","166","369006","0.0-10.0-0.77","60d478e72e8251287b641b2d","650c16f0f2faf8d7a0d14c09","651c1e4a1e344958f6551b42","null","null","<p style=""font-size: 60px; font-family: BACS"">MTdYTmc</p>","","","","","","","","",""
"html-keyboard-response","167","370010","0.0-10.0-0.78","60d478e72e8251287b641b2d","650c16f0f2faf8d7a0d14c09","651c1e4a1e344958f6551b42","null","null","<p style=""font-size: 60px; font-family: BACS"">DBklDbMR</p>","","","","","","","","",""
"html-keyboard-response","168","371024","0.0-10.0-0.79","60d478e72e8251287b641b2d","650c16f0f2faf8d7a0d14c09","651c1e4a1e344958f6551b42","null","null","<p style=""font-size: 60px; font-family: BACS"">LOLkUvJQ</p>","","","","","","","","",""
"html-keyboard-response","169","447178","0.0-11.0","60d478e72e8251287b641b2d","650c16f0f2faf8d7a0d14c09","651c1e4a1e344958f6551b42","76154"," ","<p>Great, you've seen the second block of words. You may now take a short break.</p>
      <p>Press the spacebar when you're ready to continue.</p>","","","","","","","","",""
"html-keyboard-response","170","448181","0.0-12.0-0.0","60d478e72e8251287b641b2d","650c16f0f2faf8d7a0d14c09","651c1e4a1e344958f6551b42","null","null","<p style=""font-size: 60px; font-family: BACS"">ZdNmUAld</p>","","","","","","","","",""
"html-keyboard-response","171","449194","0.0-12.0-0.1","60d478e72e8251287b641b2d","650c16f0f2faf8d7a0d14c09","651c1e4a1e344958f6551b42","null","null","<p style=""font-size: 60px; font-family: BACS"">dOYmlDbMR</p>","","","","","","","","",""
"html-keyboard-response","172","450208","0.0-12.0-0.2","60d478e72e8251287b641b2d","650c16f0f2faf8d7a0d14c09","651c1e4a1e344958f6551b42","null","null","<p style=""font-size: 60px; font-family: BACS"">ZdNmUvJQ</p>","","","","","","","","",""
"html-keyboard-response","173","451212","0.0-12.0-0.3","60d478e72e8251287b641b2d","650c16f0f2faf8d7a0d14c09","651c1e4a1e344958f6551b42","null","null","<p style=""font-size: 60px; font-family: BACS"">mLdkZlGc</p>","","","","","","","","",""
"html-keyboard-response","174","452214","0.0-12.0-0.4","60d478e72e8251287b641b2d","650c16f0f2faf8d7a0d14c09","651c1e4a1e344958f6551b42","null","null","<p style=""font-size: 60px; font-family: BACS"">uQkrdAld</p>","","","","","","","","",""
"html-keyboard-response","175","453220","0.0-12.0-0.5","60d478e72e8251287b641b2d","650c16f0f2faf8d7a0d14c09","651c1e4a1e344958f6551b42","null","null","<p style=""font-size: 60px; font-family: BACS"">aOLZUJcL</p>","","","","","","","","",""
"html-keyboard-response","176","454229","0.0-12.0-0.6","60d478e72e8251287b641b2d","650c16f0f2faf8d7a0d14c09","651c1e4a1e344958f6551b42","null","null","<p style=""font-size: 60px; font-family: BACS"">YuaNdlGc</p>","","","","","","","","",""
"html-keyboard-response","177","455239","0.0-12.0-0.7","60d478e72e8251287b641b2d","650c16f0f2faf8d7a0d14c09","651c1e4a1e344958f6551b42","null","null","<p style=""font-size: 60px; font-family: BACS"">laYmrAld</p>","","","","","","","","",""
"html-keyboard-response","178","456255","0.0-12.0-0.8","60d478e72e8251287b641b2d","650c16f0f2faf8d7a0d14c09","651c1e4a1e344958f6551b42","null","null","<p style=""font-size: 60px; font-family: BACS"">RCcEOtM</p>","","","","","","","","",""
"html-keyboard-response","179","457264","0.0-12.0-0.9","60d478e72e8251287b641b2d","650c16f0f2faf8d7a0d14c09","651c1e4a1e344958f6551b42","null","null","<p style=""font-size: 60px; font-family: BACS"">uQkrdJcL</p>","","","","","","","","",""
"html-keyboard-response","180","458274","0.0-12.0-0.10","60d478e72e8251287b641b2d","650c16f0f2faf8d7a0d14c09","651c1e4a1e344958f6551b42","null","null","<p style=""font-size: 60px; font-family: BACS"">RCcETmc</p>","","","","","","","","",""
"html-keyboard-response","181","459277","0.0-12.0-0.11","60d478e72e8251287b641b2d","650c16f0f2faf8d7a0d14c09","651c1e4a1e344958f6551b42","null","null","<p style=""font-size: 60px; font-family: BACS"">bYGOZvJQ</p>","","","","","","","","",""
"html-keyboard-response","182","460280","0.0-12.0-0.12","60d478e72e8251287b641b2d","650c16f0f2faf8d7a0d14c09","651c1e4a1e344958f6551b42","null","null","<p style=""font-size: 60px; font-family: BACS"">LOLkUJcL</p>","","","","","","","","",""
"html-keyboard-response","183","461297","0.0-12.0-0.13","60d478e72e8251287b641b2d","650c16f0f2faf8d7a0d14c09","651c1e4a1e344958f6551b42","null","null","<p style=""font-size: 60px; font-family: BACS"">EtMDMDbMR</p>","","","","","","","","",""
"html-keyboard-response","184","462301","0.0-12.0-0.14","60d478e72e8251287b641b2d","650c16f0f2faf8d7a0d14c09","651c1e4a1e344958f6551b42","null","null","<p style=""font-size: 60px; font-family: BACS"">bYGOZJcL</p>","","","","","","","","",""
"html-keyboard-response","185","463313","0.0-12.0-0.15","60d478e72e8251287b641b2d","650c16f0f2faf8d7a0d14c09","651c1e4a1e344958f6551b42","null","null","<p style=""font-size: 60px; font-family: BACS"">RCcEDbMR</p>","","","","","","","","",""
"html-keyboard-response","186","464327","0.0-12.0-0.16","60d478e72e8251287b641b2d","650c16f0f2faf8d7a0d14c09","651c1e4a1e344958f6551b42","null","null","<p style=""font-size: 60px; font-family: BACS"">dOYmlTPOM</p>","","","","","","","","",""
"html-keyboard-response","187","465341","0.0-12.0-0.17","60d478e72e8251287b641b2d","650c16f0f2faf8d7a0d14c09","651c1e4a1e344958f6551b42","null","null","<p style=""font-size: 60px; font-family: BACS"">mLdkZJcL</p>","","","","","","","","",""
"html-keyboard-response","188","466343","0.0-12.0-0.18","60d478e72e8251287b641b2d","650c16f0f2faf8d7a0d14c09","651c1e4a1e344958f6551b42","null","null","<p style=""font-size: 60px; font-family: BACS"">DBklTPOM</p>","","","","","","","","",""
"html-keyboard-response","189","467356","0.0-12.0-0.19","60d478e72e8251287b641b2d","650c16f0f2faf8d7a0d14c09","651c1e4a1e344958f6551b42","null","null","<p style=""font-size: 60px; font-family: BACS"">laYmrlGc</p>","","","","","","","","",""
"html-keyboard-response","190","468358","0.0-12.0-0.20","60d478e72e8251287b641b2d","650c16f0f2faf8d7a0d14c09","651c1e4a1e344958f6551b42","null","null","<p style=""font-size: 60px; font-family: BACS"">cROMtDbMR</p>","","","","","","","","",""
"html-keyboard-response","191","469373","0.0-12.0-0.21","60d478e72e8251287b641b2d","650c16f0f2faf8d7a0d14c09","651c1e4a1e344958f6551b42","null","null","<p style=""font-size: 60px; font-family: BACS"">LOLkUvJQ</p>","","","","","","","","",""
"html-keyboard-response","192","470388","0.0-12.0-0.22","60d478e72e8251287b641b2d","650c16f0f2faf8d7a0d14c09","651c1e4a1e344958f6551b42","null","null","<p style=""font-size: 60px; font-family: BACS"">DBklDbMR</p>","","","","","","","","",""
"html-keyboard-response","193","471404","0.0-12.0-0.23","60d478e72e8251287b641b2d","650c16f0f2faf8d7a0d14c09","651c1e4a1e344958f6551b42","null","null","<p style=""font-size: 60px; font-family: BACS"">cROMtTmc</p>","","","","","","","","",""
"html-keyboard-response","194","472413","0.0-12.0-0.24","60d478e72e8251287b641b2d","650c16f0f2faf8d7a0d14c09","651c1e4a1e344958f6551b42","null","null","<p style=""font-size: 60px; font-family: BACS"">mZUrQcUN</p>","","","","","","","","",""
"html-keyboard-response","195","473415","0.0-12.0-0.25","60d478e72e8251287b641b2d","650c16f0f2faf8d7a0d14c09","651c1e4a1e344958f6551b42","null","null","<p style=""font-size: 60px; font-family: BACS"">hTtBbDbMR</p>","","","","","","","","",""
"html-keyboard-response","196","474429","0.0-12.0-0.26","60d478e72e8251287b641b2d","650c16f0f2faf8d7a0d14c09","651c1e4a1e344958f6551b42","null","null","<p style=""font-size: 60px; font-family: BACS"">JdGmvJQ</p>","","","","","","","","",""
"html-keyboard-response","197","475442","0.0-12.0-0.27","60d478e72e8251287b641b2d","650c16f0f2faf8d7a0d14c09","651c1e4a1e344958f6551b42","null","null","<p style=""font-size: 60px; font-family: BACS"">lBlEdTAh</p>","","","","","","","","",""
"html-keyboard-response","198","476445","0.0-12.0-0.28","60d478e72e8251287b641b2d","650c16f0f2faf8d7a0d14c09","651c1e4a1e344958f6551b42","null","null","<p style=""font-size: 60px; font-family: BACS"">laYmrJcL</p>","","","","","","","","",""
"html-keyboard-response","199","477453","0.0-12.0-0.29","60d478e72e8251287b641b2d","650c16f0f2faf8d7a0d14c09","651c1e4a1e344958f6551b42","null","null","<p style=""font-size: 60px; font-family: BACS"">bYGOZAld</p>","","","","","","","","",""
"html-keyboard-response","200","478468","0.0-12.0-0.30","60d478e72e8251287b641b2d","650c16f0f2faf8d7a0d14c09","651c1e4a1e344958f6551b42","null","null","<p style=""font-size: 60px; font-family: BACS"">mZUrQJcL</p>","","","","","","","","",""
"html-keyboard-response","201","479482","0.0-12.0-0.31","60d478e72e8251287b641b2d","650c16f0f2faf8d7a0d14c09","651c1e4a1e344958f6551b42","null","null","<p style=""font-size: 60px; font-family: BACS"">bAdkTmc</p>","","","","","","","","",""
"html-keyboard-response","202","480487","0.0-12.0-0.32","60d478e72e8251287b641b2d","650c16f0f2faf8d7a0d14c09","651c1e4a1e344958f6551b42","null","null","<p style=""font-size: 60px; font-family: BACS"">ZdNmUcUN</p>","","","","","","","","",""
"html-keyboard-response","203","481491","0.0-12.0-0.33","60d478e72e8251287b641b2d","650c16f0f2faf8d7a0d14c09","651c1e4a1e344958f6551b42","null","null","<p style=""font-size: 60px; font-family: BACS"">aOLZUvJQ</p>","","","","","","","","",""
"html-keyboard-response","204","482496","0.0-12.0-0.34","60d478e72e8251287b641b2d","650c16f0f2faf8d7a0d14c09","651c1e4a1e344958f6551b42","null","null","<p style=""font-size: 60px; font-family: BACS"">AMkCTPOM</p>","","","","","","","","",""
"html-keyboard-response","205","483500","0.0-12.0-0.35","60d478e72e8251287b641b2d","650c16f0f2faf8d7a0d14c09","651c1e4a1e344958f6551b42","null","null","<p style=""font-size: 60px; font-family: BACS"">mZUrQvJQ</p>","","","","","","","","",""
"html-keyboard-response","206","484507","0.0-12.0-0.36","60d478e72e8251287b641b2d","650c16f0f2faf8d7a0d14c09","651c1e4a1e344958f6551b42","null","null","<p style=""font-size: 60px; font-family: BACS"">lBlETmc</p>","","","","","","","","",""
"html-keyboard-response","207","485518","0.0-12.0-0.37","60d478e72e8251287b641b2d","650c16f0f2faf8d7a0d14c09","651c1e4a1e344958f6551b42","null","null","<p style=""font-size: 60px; font-family: BACS"">cROMtOtM</p>","","","","","","","","",""
"html-keyboard-response","208","486527","0.0-12.0-0.38","60d478e72e8251287b641b2d","650c16f0f2faf8d7a0d14c09","651c1e4a1e344958f6551b42","null","null","<p style=""font-size: 60px; font-family: BACS"">uQkrdvJQ</p>","","","","","","","","",""
"html-keyboard-response","209","487530","0.0-12.0-0.39","60d478e72e8251287b641b2d","650c16f0f2faf8d7a0d14c09","651c1e4a1e344958f6551b42","null","null","<p style=""font-size: 60px; font-family: BACS"">hTtBbOtM</p>","","","","","","","","",""
"html-keyboard-response","210","488533","0.0-12.0-0.40","60d478e72e8251287b641b2d","650c16f0f2faf8d7a0d14c09","651c1e4a1e344958f6551b42","null","null","<p style=""font-size: 60px; font-family: BACS"">YuaNdcUN</p>","","","","","","","","",""
"html-keyboard-response","211","489542","0.0-12.0-0.41","60d478e72e8251287b641b2d","650c16f0f2faf8d7a0d14c09","651c1e4a1e344958f6551b42","null","null","<p style=""font-size: 60px; font-family: BACS"">AMkCdTAh</p>","","","","","","","","",""
"html-keyboard-response","212","490545","0.0-12.0-0.42","60d478e72e8251287b641b2d","650c16f0f2faf8d7a0d14c09","651c1e4a1e344958f6551b42","null","null","<p style=""font-size: 60px; font-family: BACS"">aOLZUlGc</p>","","","","","","","","",""
"html-keyboard-response","213","491560","0.0-12.0-0.43","60d478e72e8251287b641b2d","650c16f0f2faf8d7a0d14c09","651c1e4a1e344958f6551b42","null","null","<p style=""font-size: 60px; font-family: BACS"">cROMtdTAh</p>","","","","","","","","",""
"html-keyboard-response","214","492573","0.0-12.0-0.44","60d478e72e8251287b641b2d","650c16f0f2faf8d7a0d14c09","651c1e4a1e344958f6551b42","null","null","<p style=""font-size: 60px; font-family: BACS"">EtMDMTmc</p>","","","","","","","","",""
"html-keyboard-response","215","493583","0.0-12.0-0.45","60d478e72e8251287b641b2d","650c16f0f2faf8d7a0d14c09","651c1e4a1e344958f6551b42","null","null","<p style=""font-size: 60px; font-family: BACS"">ZdNmUlGc</p>","","","","","","","","",""
"html-keyboard-response","216","494589","0.0-12.0-0.46","60d478e72e8251287b641b2d","650c16f0f2faf8d7a0d14c09","651c1e4a1e344958f6551b42","null","null","<p style=""font-size: 60px; font-family: BACS"">JdGmAld</p>","","","","","","","","",""
"html-keyboard-response","217","495603","0.0-12.0-0.47","60d478e72e8251287b641b2d","650c16f0f2faf8d7a0d14c09","651c1e4a1e344958f6551b42","null","null","<p style=""font-size: 60px; font-family: BACS"">DBklOtM</p>","","","","","","","","",""
"html-keyboard-response","218","496614","0.0-12.0-0.48","60d478e72e8251287b641b2d","650c16f0f2faf8d7a0d14c09","651c1e4a1e344958f6551b42","null","null","<p style=""font-size: 60px; font-family: BACS"">hTtBbTPOM</p>","","","","","","","","",""
"html-keyboard-response","219","497623","0.0-12.0-0.49","60d478e72e8251287b641b2d","650c16f0f2faf8d7a0d14c09","651c1e4a1e344958f6551b42","null","null","<p style=""font-size: 60px; font-family: BACS"">bAdkDbMR</p>","","","","","","","","",""
"html-keyboard-response","220","498633","0.0-12.0-0.50","60d478e72e8251287b641b2d","650c16f0f2faf8d7a0d14c09","651c1e4a1e344958f6551b42","null","null","<p style=""font-size: 60px; font-family: BACS"">dOYmlOtM</p>","","","","","","","","",""
"html-keyboard-response","221","499635","0.0-12.0-0.51","60d478e72e8251287b641b2d","650c16f0f2faf8d7a0d14c09","651c1e4a1e344958f6551b42","null","null","<p style=""font-size: 60px; font-family: BACS"">hTtBbdTAh</p>","","","","","","","","",""
"html-keyboard-response","222","500647","0.0-12.0-0.52","60d478e72e8251287b641b2d","650c16f0f2faf8d7a0d14c09","651c1e4a1e344958f6551b42","null","null","<p style=""font-size: 60px; font-family: BACS"">YuaNdvJQ</p>","","","","","","","","",""
"html-keyboard-response","223","501659","0.0-12.0-0.53","60d478e72e8251287b641b2d","650c16f0f2faf8d7a0d14c09","651c1e4a1e344958f6551b42","null","null","<p style=""font-size: 60px; font-family: BACS"">AMkCTmc</p>","","","","","","","","",""
"html-keyboard-response","224","502667","0.0-12.0-0.54","60d478e72e8251287b641b2d","650c16f0f2faf8d7a0d14c09","651c1e4a1e344958f6551b42","null","null","<p style=""font-size: 60px; font-family: BACS"">EtMDMdTAh</p>","","","","","","","","",""
"html-keyboard-response","225","503683","0.0-12.0-0.55","60d478e72e8251287b641b2d","650c16f0f2faf8d7a0d14c09","651c1e4a1e344958f6551b42","null","null","<p style=""font-size: 60px; font-family: BACS"">mLdkZcUN</p>","","","","","","","","",""
"html-keyboard-response","226","504693","0.0-12.0-0.56","60d478e72e8251287b641b2d","650c16f0f2faf8d7a0d14c09","651c1e4a1e344958f6551b42","null","null","<p style=""font-size: 60px; font-family: BACS"">RCcEdTAh</p>","","","","","","","","",""
"html-keyboard-response","227","505698","0.0-12.0-0.57","60d478e72e8251287b641b2d","650c16f0f2faf8d7a0d14c09","651c1e4a1e344958f6551b42","null","null","<p style=""font-size: 60px; font-family: BACS"">bYGOZcUN</p>","","","","","","","","",""
"html-keyboard-response","228","506709","0.0-12.0-0.58","60d478e72e8251287b641b2d","650c16f0f2faf8d7a0d14c09","651c1e4a1e344958f6551b42","null","null","<p style=""font-size: 60px; font-family: BACS"">lBlEOtM</p>","","","","","","","","",""
"html-keyboard-response","229","507722","0.0-12.0-0.59","60d478e72e8251287b641b2d","650c16f0f2faf8d7a0d14c09","651c1e4a1e344958f6551b42","null","null","<p style=""font-size: 60px; font-family: BACS"">LOLkUcUN</p>","","","","","","","","",""
"html-keyboard-response","230","508740","0.0-12.0-0.60","60d478e72e8251287b641b2d","650c16f0f2faf8d7a0d14c09","651c1e4a1e344958f6551b42","null","null","<p style=""font-size: 60px; font-family: BACS"">MTdYdTAh</p>","","","","","","","","",""
"html-keyboard-response","231","509754","0.0-12.0-0.61","60d478e72e8251287b641b2d","650c16f0f2faf8d7a0d14c09","651c1e4a1e344958f6551b42","null","null","<p style=""font-size: 60px; font-family: BACS"">bAdkTPOM</p>","","","","","","","","",""
"html-keyboard-response","232","510756","0.0-12.0-0.62","60d478e72e8251287b641b2d","650c16f0f2faf8d7a0d14c09","651c1e4a1e344958f6551b42","null","null","<p style=""font-size: 60px; font-family: BACS"">LOLkUlGc</p>","","","","","","","","",""
"html-keyboard-response","233","511764","0.0-12.0-0.63","60d478e72e8251287b641b2d","650c16f0f2faf8d7a0d14c09","651c1e4a1e344958f6551b42","null","null","<p style=""font-size: 60px; font-family: BACS"">bAdkOtM</p>","","","","","","","","",""
"html-keyboard-response","234","512768","0.0-12.0-0.64","60d478e72e8251287b641b2d","650c16f0f2faf8d7a0d14c09","651c1e4a1e344958f6551b42","null","null","<p style=""font-size: 60px; font-family: BACS"">mZUrQAld</p>","","","","","","","","",""
"html-keyboard-response","235","513782","0.0-12.0-0.65","60d478e72e8251287b641b2d","650c16f0f2faf8d7a0d14c09","651c1e4a1e344958f6551b42","null","null","<p style=""font-size: 60px; font-family: BACS"">EtMDMTPOM</p>","","","","","","","","",""
"html-keyboard-response","236","514785","0.0-12.0-0.66","60d478e72e8251287b641b2d","650c16f0f2faf8d7a0d14c09","651c1e4a1e344958f6551b42","null","null","<p style=""font-size: 60px; font-family: BACS"">DBkldTAh</p>","","","","","","","","",""
"html-keyboard-response","237","515799","0.0-12.0-0.67","60d478e72e8251287b641b2d","650c16f0f2faf8d7a0d14c09","651c1e4a1e344958f6551b42","null","null","<p style=""font-size: 60px; font-family: BACS"">AMkCDbMR</p>","","","","","","","","",""
"html-keyboard-response","238","516800","0.0-12.0-0.68","60d478e72e8251287b641b2d","650c16f0f2faf8d7a0d14c09","651c1e4a1e344958f6551b42","null","null","<p style=""font-size: 60px; font-family: BACS"">MTdYTPOM</p>","","","","","","","","",""
"html-keyboard-response","239","517815","0.0-12.0-0.69","60d478e72e8251287b641b2d","650c16f0f2faf8d7a0d14c09","651c1e4a1e344958f6551b42","null","null","<p style=""font-size: 60px; font-family: BACS"">mLdkZAld</p>","","","","","","","","",""
"html-keyboard-response","240","518828","0.0-12.0-0.70","60d478e72e8251287b641b2d","650c16f0f2faf8d7a0d14c09","651c1e4a1e344958f6551b42","null","null","<p style=""font-size: 60px; font-family: BACS"">uQkrdlGc</p>","","","","","","","","",""
"html-keyboard-response","241","519842","0.0-12.0-0.71","60d478e72e8251287b641b2d","650c16f0f2faf8d7a0d14c09","651c1e4a1e344958f6551b42","null","null","<p style=""font-size: 60px; font-family: BACS"">MTdYTmc</p>","","","","","","","","",""
"html-keyboard-response","242","520857","0.0-12.0-0.72","60d478e72e8251287b641b2d","650c16f0f2faf8d7a0d14c09","651c1e4a1e344958f6551b42","null","null","<p style=""font-size: 60px; font-family: BACS"">YuaNdAld</p>","","","","","","","","",""
"html-keyboard-response","243","521864","0.0-12.0-0.73","60d478e72e8251287b641b2d","650c16f0f2faf8d7a0d14c09","651c1e4a1e344958f6551b42","null","null","<p style=""font-size: 60px; font-family: BACS"">dOYmlTmc</p>","","","","","","","","",""
"html-keyboard-response","244","522877","0.0-12.0-0.74","60d478e72e8251287b641b2d","650c16f0f2faf8d7a0d14c09","651c1e4a1e344958f6551b42","null","null","<p style=""font-size: 60px; font-family: BACS"">MTdYOtM</p>","","","","","","","","",""
"html-keyboard-response","245","523888","0.0-12.0-0.75","60d478e72e8251287b641b2d","650c16f0f2faf8d7a0d14c09","651c1e4a1e344958f6551b42","null","null","<p style=""font-size: 60px; font-family: BACS"">JdGmlGc</p>","","","","","","","","",""
"html-keyboard-response","246","524898","0.0-12.0-0.76","60d478e72e8251287b641b2d","650c16f0f2faf8d7a0d14c09","651c1e4a1e344958f6551b42","null","null","<p style=""font-size: 60px; font-family: BACS"">lBlETPOM</p>","","","","","","","","",""
"html-keyboard-response","247","525910","0.0-12.0-0.77","60d478e72e8251287b641b2d","650c16f0f2faf8d7a0d14c09","651c1e4a1e344958f6551b42","null","null","<p style=""font-size: 60px; font-family: BACS"">laYmrcUN</p>","","","","","","","","",""
"html-keyboard-response","248","526921","0.0-12.0-0.78","60d478e72e8251287b641b2d","650c16f0f2faf8d7a0d14c09","651c1e4a1e344958f6551b42","null","null","<p style=""font-size: 60px; font-family: BACS"">JdGmJcL</p>","","","","","","","","",""
"html-keyboard-response","249","527922","0.0-12.0-0.79","60d478e72e8251287b641b2d","650c16f0f2faf8d7a0d14c09","651c1e4a1e344958f6551b42","null","null","<p style=""font-size: 60px; font-family: BACS"">aOLZUcUN</p>","","","","","","","","",""
"html-keyboard-response","250","546100","0.0-13.0","60d478e72e8251287b641b2d","650c16f0f2faf8d7a0d14c09","651c1e4a1e344958f6551b42","18176"," ","<p>Great, you've seen the third block of words. You may now take a short break.</p>
      <p>Press the spacebar when you're ready to continue.</p>","","","","","","","","",""
"html-keyboard-response","251","547103","0.0-14.0-0.0","60d478e72e8251287b641b2d","650c16f0f2faf8d7a0d14c09","651c1e4a1e344958f6551b42","null","null","<p style=""font-size: 60px; font-family: BACS"">dOYmlOtM</p>","","","","","","","","",""
"html-keyboard-response","252","548118","0.0-14.0-0.1","60d478e72e8251287b641b2d","650c16f0f2faf8d7a0d14c09","651c1e4a1e344958f6551b42","null","null","<p style=""font-size: 60px; font-family: BACS"">bAdkTmc</p>","","","","","","","","",""
"html-keyboard-response","253","549120","0.0-14.0-0.2","60d478e72e8251287b641b2d","650c16f0f2faf8d7a0d14c09","651c1e4a1e344958f6551b42","null","null","<p style=""font-size: 60px; font-family: BACS"">mZUrQcUN</p>","","","","","","","","",""
"html-keyboard-response","254","550122","0.0-14.0-0.3","60d478e72e8251287b641b2d","650c16f0f2faf8d7a0d14c09","651c1e4a1e344958f6551b42","null","null","<p style=""font-size: 60px; font-family: BACS"">hTtBbOtM</p>","","","","","","","","",""
"html-keyboard-response","255","551136","0.0-14.0-0.4","60d478e72e8251287b641b2d","650c16f0f2faf8d7a0d14c09","651c1e4a1e344958f6551b42","null","null","<p style=""font-size: 60px; font-family: BACS"">mZUrQvJQ</p>","","","","","","","","",""
"html-keyboard-response","256","552141","0.0-14.0-0.5","60d478e72e8251287b641b2d","650c16f0f2faf8d7a0d14c09","651c1e4a1e344958f6551b42","null","null","<p style=""font-size: 60px; font-family: BACS"">MTdYTmc</p>","","","","","","","","",""
"html-keyboard-response","257","553149","0.0-14.0-0.6","60d478e72e8251287b641b2d","650c16f0f2faf8d7a0d14c09","651c1e4a1e344958f6551b42","null","null","<p style=""font-size: 60px; font-family: BACS"">AMkCDbMR</p>","","","","","","","","",""
"html-keyboard-response","258","554160","0.0-14.0-0.7","60d478e72e8251287b641b2d","650c16f0f2faf8d7a0d14c09","651c1e4a1e344958f6551b42","null","null","<p style=""font-size: 60px; font-family: BACS"">aOLZUcUN</p>","","","","","","","","",""
"html-keyboard-response","259","555175","0.0-14.0-0.8","60d478e72e8251287b641b2d","650c16f0f2faf8d7a0d14c09","651c1e4a1e344958f6551b42","null","null","<p style=""font-size: 60px; font-family: BACS"">bAdkTPOM</p>","","","","","","","","",""
"html-keyboard-response","260","556184","0.0-14.0-0.9","60d478e72e8251287b641b2d","650c16f0f2faf8d7a0d14c09","651c1e4a1e344958f6551b42","null","null","<p style=""font-size: 60px; font-family: BACS"">cROMtdTAh</p>","","","","","","","","",""
"html-keyboard-response","261","557190","0.0-14.0-0.10","60d478e72e8251287b641b2d","650c16f0f2faf8d7a0d14c09","651c1e4a1e344958f6551b42","null","null","<p style=""font-size: 60px; font-family: BACS"">JdGmvJQ</p>","","","","","","","","",""
"html-keyboard-response","262","558194","0.0-14.0-0.11","60d478e72e8251287b641b2d","650c16f0f2faf8d7a0d14c09","651c1e4a1e344958f6551b42","null","null","<p style=""font-size: 60px; font-family: BACS"">uQkrdAld</p>","","","","","","","","",""
"html-keyboard-response","263","559209","0.0-14.0-0.12","60d478e72e8251287b641b2d","650c16f0f2faf8d7a0d14c09","651c1e4a1e344958f6551b42","null","null","<p style=""font-size: 60px; font-family: BACS"">YuaNdvJQ</p>","","","","","","","","",""
"html-keyboard-response","264","560223","0.0-14.0-0.13","60d478e72e8251287b641b2d","650c16f0f2faf8d7a0d14c09","651c1e4a1e344958f6551b42","null","null","<p style=""font-size: 60px; font-family: BACS"">aOLZUlGc</p>","","","","","","","","",""
"html-keyboard-response","265","561229","0.0-14.0-0.14","60d478e72e8251287b641b2d","650c16f0f2faf8d7a0d14c09","651c1e4a1e344958f6551b42","null","null","<p style=""font-size: 60px; font-family: BACS"">laYmrcUN</p>","","","","","","","","",""
"html-keyboard-response","266","562239","0.0-14.0-0.15","60d478e72e8251287b641b2d","650c16f0f2faf8d7a0d14c09","651c1e4a1e344958f6551b42","null","null","<p style=""font-size: 60px; font-family: BACS"">bAdkDbMR</p>","","","","","","","","",""
"html-keyboard-response","267","563242","0.0-14.0-0.16","60d478e72e8251287b641b2d","650c16f0f2faf8d7a0d14c09","651c1e4a1e344958f6551b42","null","null","<p style=""font-size: 60px; font-family: BACS"">dOYmlTPOM</p>","","","","","","","","",""
"html-keyboard-response","268","564254","0.0-14.0-0.17","60d478e72e8251287b641b2d","650c16f0f2faf8d7a0d14c09","651c1e4a1e344958f6551b42","null","null","<p style=""font-size: 60px; font-family: BACS"">EtMDMTmc</p>","","","","","","","","",""
"html-keyboard-response","269","565270","0.0-14.0-0.18","60d478e72e8251287b641b2d","650c16f0f2faf8d7a0d14c09","651c1e4a1e344958f6551b42","null","null","<p style=""font-size: 60px; font-family: BACS"">LOLkUlGc</p>","","","","","","","","",""
"html-keyboard-response","270","566272","0.0-14.0-0.19","60d478e72e8251287b641b2d","650c16f0f2faf8d7a0d14c09","651c1e4a1e344958f6551b42","null","null","<p style=""font-size: 60px; font-family: BACS"">DBklDbMR</p>","","","","","","","","",""
"html-keyboard-response","271","567288","0.0-14.0-0.20","60d478e72e8251287b641b2d","650c16f0f2faf8d7a0d14c09","651c1e4a1e344958f6551b42","null","null","<p style=""font-size: 60px; font-family: BACS"">RCcEdTAh</p>","","","","","","","","",""
"html-keyboard-response","272","568300","0.0-14.0-0.21","60d478e72e8251287b641b2d","650c16f0f2faf8d7a0d14c09","651c1e4a1e344958f6551b42","null","null","<p style=""font-size: 60px; font-family: BACS"">cROMtTmc</p>","","","","","","","","",""
"html-keyboard-response","273","569315","0.0-14.0-0.22","60d478e72e8251287b641b2d","650c16f0f2faf8d7a0d14c09","651c1e4a1e344958f6551b42","null","null","<p style=""font-size: 60px; font-family: BACS"">DBkldTAh</p>","","","","","","","","",""
"html-keyboard-response","274","570331","0.0-14.0-0.23","60d478e72e8251287b641b2d","650c16f0f2faf8d7a0d14c09","651c1e4a1e344958f6551b42","null","null","<p style=""font-size: 60px; font-family: BACS"">lBlETmc</p>","","","","","","","","",""
"html-keyboard-response","275","571332","0.0-14.0-0.24","60d478e72e8251287b641b2d","650c16f0f2faf8d7a0d14c09","651c1e4a1e344958f6551b42","null","null","<p style=""font-size: 60px; font-family: BACS"">mLdkZJcL</p>","","","","","","","","",""
"html-keyboard-response","276","572341","0.0-14.0-0.25","60d478e72e8251287b641b2d","650c16f0f2faf8d7a0d14c09","651c1e4a1e344958f6551b42","null","null","<p style=""font-size: 60px; font-family: BACS"">LOLkUcUN</p>","","","","","","","","",""
"html-keyboard-response","277","573346","0.0-14.0-0.26","60d478e72e8251287b641b2d","650c16f0f2faf8d7a0d14c09","651c1e4a1e344958f6551b42","null","null","<p style=""font-size: 60px; font-family: BACS"">DBklOtM</p>","","","","","","","","",""
"html-keyboard-response","278","574362","0.0-14.0-0.27","60d478e72e8251287b641b2d","650c16f0f2faf8d7a0d14c09","651c1e4a1e344958f6551b42","null","null","<p style=""font-size: 60px; font-family: BACS"">hTtBbdTAh</p>","","","","","","","","",""
"html-keyboard-response","279","575378","0.0-14.0-0.28","60d478e72e8251287b641b2d","650c16f0f2faf8d7a0d14c09","651c1e4a1e344958f6551b42","null","null","<p style=""font-size: 60px; font-family: BACS"">LOLkUJcL</p>","","","","","","","","",""
"html-keyboard-response","280","576387","0.0-14.0-0.29","60d478e72e8251287b641b2d","650c16f0f2faf8d7a0d14c09","651c1e4a1e344958f6551b42","null","null","<p style=""font-size: 60px; font-family: BACS"">EtMDMdTAh</p>","","","","","","","","",""
"html-keyboard-response","281","577396","0.0-14.0-0.30","60d478e72e8251287b641b2d","650c16f0f2faf8d7a0d14c09","651c1e4a1e344958f6551b42","null","null","<p style=""font-size: 60px; font-family: BACS"">aOLZUvJQ</p>","","","","","","","","",""
"html-keyboard-response","282","578408","0.0-14.0-0.31","60d478e72e8251287b641b2d","650c16f0f2faf8d7a0d14c09","651c1e4a1e344958f6551b42","null","null","<p style=""font-size: 60px; font-family: BACS"">AMkCTPOM</p>","","","","","","","","",""
"html-keyboard-response","283","579411","0.0-14.0-0.32","60d478e72e8251287b641b2d","650c16f0f2faf8d7a0d14c09","651c1e4a1e344958f6551b42","null","null","<p style=""font-size: 60px; font-family: BACS"">JdGmlGc</p>","","","","","","","","",""
"html-keyboard-response","284","580420","0.0-14.0-0.33","60d478e72e8251287b641b2d","650c16f0f2faf8d7a0d14c09","651c1e4a1e344958f6551b42","null","null","<p style=""font-size: 60px; font-family: BACS"">EtMDMTPOM</p>","","","","","","","","",""
"html-keyboard-response","285","581434","0.0-14.0-0.34","60d478e72e8251287b641b2d","650c16f0f2faf8d7a0d14c09","651c1e4a1e344958f6551b42","null","null","<p style=""font-size: 60px; font-family: BACS"">mZUrQAld</p>","","","","","","","","",""
"html-keyboard-response","286","582439","0.0-14.0-0.35","60d478e72e8251287b641b2d","650c16f0f2faf8d7a0d14c09","651c1e4a1e344958f6551b42","null","null","<p style=""font-size: 60px; font-family: BACS"">dOYmlDbMR</p>","","","","","","","","",""
"html-keyboard-response","287","583443","0.0-14.0-0.36","60d478e72e8251287b641b2d","650c16f0f2faf8d7a0d14c09","651c1e4a1e344958f6551b42","null","null","<p style=""font-size: 60px; font-family: BACS"">ZdNmUvJQ</p>","","","","","","","","",""
"html-keyboard-response","288","584456","0.0-14.0-0.37","60d478e72e8251287b641b2d","650c16f0f2faf8d7a0d14c09","651c1e4a1e344958f6551b42","null","null","<p style=""font-size: 60px; font-family: BACS"">AMkCTmc</p>","","","","","","","","",""
"html-keyboard-response","289","585468","0.0-14.0-0.38","60d478e72e8251287b641b2d","650c16f0f2faf8d7a0d14c09","651c1e4a1e344958f6551b42","null","null","<p style=""font-size: 60px; font-family: BACS"">laYmrlGc</p>","","","","","","","","",""
"html-keyboard-response","290","586481","0.0-14.0-0.39","60d478e72e8251287b641b2d","650c16f0f2faf8d7a0d14c09","651c1e4a1e344958f6551b42","null","null","<p style=""font-size: 60px; font-family: BACS"">DBklTPOM</p>","","","","","","","","",""
"html-keyboard-response","291","587483","0.0-14.0-0.40","60d478e72e8251287b641b2d","650c16f0f2faf8d7a0d14c09","651c1e4a1e344958f6551b42","null","null","<p style=""font-size: 60px; font-family: BACS"">bYGOZvJQ</p>","","","","","","","","",""
"html-keyboard-response","292","588495","0.0-14.0-0.41","60d478e72e8251287b641b2d","650c16f0f2faf8d7a0d14c09","651c1e4a1e344958f6551b42","null","null","<p style=""font-size: 60px; font-family: BACS"">hTtBbDbMR</p>","","","","","","","","",""
"html-keyboard-response","293","589504","0.0-14.0-0.42","60d478e72e8251287b641b2d","650c16f0f2faf8d7a0d14c09","651c1e4a1e344958f6551b42","null","null","<p style=""font-size: 60px; font-family: BACS"">AMkCdTAh</p>","","","","","","","","",""
"html-keyboard-response","294","590509","0.0-14.0-0.43","60d478e72e8251287b641b2d","650c16f0f2faf8d7a0d14c09","651c1e4a1e344958f6551b42","null","null","<p style=""font-size: 60px; font-family: BACS"">RCcEDbMR</p>","","","","","","","","",""
"html-keyboard-response","295","591515","0.0-14.0-0.44","60d478e72e8251287b641b2d","650c16f0f2faf8d7a0d14c09","651c1e4a1e344958f6551b42","null","null","<p style=""font-size: 60px; font-family: BACS"">ZdNmUlGc</p>","","","","","","","","",""
"html-keyboard-response","296","592529","0.0-14.0-0.45","60d478e72e8251287b641b2d","650c16f0f2faf8d7a0d14c09","651c1e4a1e344958f6551b42","null","null","<p style=""font-size: 60px; font-family: BACS"">laYmrJcL</p>","","","","","","","","",""
"html-keyboard-response","297","593532","0.0-14.0-0.46","60d478e72e8251287b641b2d","650c16f0f2faf8d7a0d14c09","651c1e4a1e344958f6551b42","null","null","<p style=""font-size: 60px; font-family: BACS"">bYGOZAld</p>","","","","","","","","",""
"html-keyboard-response","298","594545","0.0-14.0-0.47","60d478e72e8251287b641b2d","650c16f0f2faf8d7a0d14c09","651c1e4a1e344958f6551b42","null","null","<p style=""font-size: 60px; font-family: BACS"">mLdkZlGc</p>","","","","","","","","",""
"html-keyboard-response","299","595547","0.0-14.0-0.48","60d478e72e8251287b641b2d","650c16f0f2faf8d7a0d14c09","651c1e4a1e344958f6551b42","null","null","<p style=""font-size: 60px; font-family: BACS"">YuaNdcUN</p>","","","","","","","","",""
"html-keyboard-response","300","596555","0.0-14.0-0.49","60d478e72e8251287b641b2d","650c16f0f2faf8d7a0d14c09","651c1e4a1e344958f6551b42","null","null","<p style=""font-size: 60px; font-family: BACS"">RCcETmc</p>","","","","","","","","",""
"html-keyboard-response","301","597569","0.0-14.0-0.50","60d478e72e8251287b641b2d","650c16f0f2faf8d7a0d14c09","651c1e4a1e344958f6551b42","null","null","<p style=""font-size: 60px; font-family: BACS"">hTtBbTPOM</p>","","","","","","","","",""
"html-keyboard-response","302","598575","0.0-14.0-0.51","60d478e72e8251287b641b2d","650c16f0f2faf8d7a0d14c09","651c1e4a1e344958f6551b42","null","null","<p style=""font-size: 60px; font-family: BACS"">cROMtDbMR</p>","","","","","","","","",""
"html-keyboard-response","303","599579","0.0-14.0-0.52","60d478e72e8251287b641b2d","650c16f0f2faf8d7a0d14c09","651c1e4a1e344958f6551b42","null","null","<p style=""font-size: 60px; font-family: BACS"">bYGOZcUN</p>","","","","","","","","",""
"html-keyboard-response","304","600590","0.0-14.0-0.53","60d478e72e8251287b641b2d","650c16f0f2faf8d7a0d14c09","651c1e4a1e344958f6551b42","null","null","<p style=""font-size: 60px; font-family: BACS"">JdGmJcL</p>","","","","","","","","",""
"html-keyboard-response","305","601598","0.0-14.0-0.54","60d478e72e8251287b641b2d","650c16f0f2faf8d7a0d14c09","651c1e4a1e344958f6551b42","null","null","<p style=""font-size: 60px; font-family: BACS"">uQkrdlGc</p>","","","","","","","","",""
"html-keyboard-response","306","602601","0.0-14.0-0.55","60d478e72e8251287b641b2d","650c16f0f2faf8d7a0d14c09","651c1e4a1e344958f6551b42","null","null","<p style=""font-size: 60px; font-family: BACS"">MTdYTPOM</p>","","","","","","","","",""
"html-keyboard-response","307","603606","0.0-14.0-0.56","60d478e72e8251287b641b2d","650c16f0f2faf8d7a0d14c09","651c1e4a1e344958f6551b42","null","null","<p style=""font-size: 60px; font-family: BACS"">laYmrAld</p>","","","","","","","","",""
"html-keyboard-response","308","604617","0.0-14.0-0.57","60d478e72e8251287b641b2d","650c16f0f2faf8d7a0d14c09","651c1e4a1e344958f6551b42","null","null","<p style=""font-size: 60px; font-family: BACS"">cROMtOtM</p>","","","","","","","","",""
"html-keyboard-response","309","605625","0.0-14.0-0.58","60d478e72e8251287b641b2d","650c16f0f2faf8d7a0d14c09","651c1e4a1e344958f6551b42","null","null","<p style=""font-size: 60px; font-family: BACS"">LOLkUvJQ</p>","","","","","","","","",""
"html-keyboard-response","310","606633","0.0-14.0-0.59","60d478e72e8251287b641b2d","650c16f0f2faf8d7a0d14c09","651c1e4a1e344958f6551b42","null","null","<p style=""font-size: 60px; font-family: BACS"">bYGOZJcL</p>","","","","","","","","",""
"html-keyboard-response","311","607647","0.0-14.0-0.60","60d478e72e8251287b641b2d","650c16f0f2faf8d7a0d14c09","651c1e4a1e344958f6551b42","null","null","<p style=""font-size: 60px; font-family: BACS"">ZdNmUcUN</p>","","","","","","","","",""
"html-keyboard-response","312","608648","0.0-14.0-0.61","60d478e72e8251287b641b2d","650c16f0f2faf8d7a0d14c09","651c1e4a1e344958f6551b42","null","null","<p style=""font-size: 60px; font-family: BACS"">YuaNdAld</p>","","","","","","","","",""
"html-keyboard-response","313","609652","0.0-14.0-0.62","60d478e72e8251287b641b2d","650c16f0f2faf8d7a0d14c09","651c1e4a1e344958f6551b42","null","null","<p style=""font-size: 60px; font-family: BACS"">RCcEOtM</p>","","","","","","","","",""
"html-keyboard-response","314","610662","0.0-14.0-0.63","60d478e72e8251287b641b2d","650c16f0f2faf8d7a0d14c09","651c1e4a1e344958f6551b42","null","null","<p style=""font-size: 60px; font-family: BACS"">YuaNdlGc</p>","","","","","","","","",""
"html-keyboard-response","315","611663","0.0-14.0-0.64","60d478e72e8251287b641b2d","650c16f0f2faf8d7a0d14c09","651c1e4a1e344958f6551b42","null","null","<p style=""font-size: 60px; font-family: BACS"">aOLZUJcL</p>","","","","","","","","",""
"html-keyboard-response","316","612675","0.0-14.0-0.65","60d478e72e8251287b641b2d","650c16f0f2faf8d7a0d14c09","651c1e4a1e344958f6551b42","null","null","<p style=""font-size: 60px; font-family: BACS"">lBlEdTAh</p>","","","","","","","","",""
"html-keyboard-response","317","613687","0.0-14.0-0.66","60d478e72e8251287b641b2d","650c16f0f2faf8d7a0d14c09","651c1e4a1e344958f6551b42","null","null","<p style=""font-size: 60px; font-family: BACS"">dOYmlTmc</p>","","","","","","","","",""
"html-keyboard-response","318","614699","0.0-14.0-0.67","60d478e72e8251287b641b2d","650c16f0f2faf8d7a0d14c09","651c1e4a1e344958f6551b42","null","null","<p style=""font-size: 60px; font-family: BACS"">ZdNmUAld</p>","","","","","","","","",""
"html-keyboard-response","319","615711","0.0-14.0-0.68","60d478e72e8251287b641b2d","650c16f0f2faf8d7a0d14c09","651c1e4a1e344958f6551b42","null","null","<p style=""font-size: 60px; font-family: BACS"">uQkrdJcL</p>","","","","","","","","",""
"html-keyboard-response","320","616723","0.0-14.0-0.69","60d478e72e8251287b641b2d","650c16f0f2faf8d7a0d14c09","651c1e4a1e344958f6551b42","null","null","<p style=""font-size: 60px; font-family: BACS"">JdGmAld</p>","","","","","","","","",""
"html-keyboard-response","321","617724","0.0-14.0-0.70","60d478e72e8251287b641b2d","650c16f0f2faf8d7a0d14c09","651c1e4a1e344958f6551b42","null","null","<p style=""font-size: 60px; font-family: BACS"">lBlETPOM</p>","","","","","","","","",""
"html-keyboard-response","322","618738","0.0-14.0-0.71","60d478e72e8251287b641b2d","650c16f0f2faf8d7a0d14c09","651c1e4a1e344958f6551b42","null","null","<p style=""font-size: 60px; font-family: BACS"">mLdkZAld</p>","","","","","","","","",""
"html-keyboard-response","323","619753","0.0-14.0-0.72","60d478e72e8251287b641b2d","650c16f0f2faf8d7a0d14c09","651c1e4a1e344958f6551b42","null","null","<p style=""font-size: 60px; font-family: BACS"">EtMDMDbMR</p>","","","","","","","","",""
"html-keyboard-response","324","620768","0.0-14.0-0.73","60d478e72e8251287b641b2d","650c16f0f2faf8d7a0d14c09","651c1e4a1e344958f6551b42","null","null","<p style=""font-size: 60px; font-family: BACS"">bAdkOtM</p>","","","","","","","","",""
"html-keyboard-response","325","621783","0.0-14.0-0.74","60d478e72e8251287b641b2d","650c16f0f2faf8d7a0d14c09","651c1e4a1e344958f6551b42","null","null","<p style=""font-size: 60px; font-family: BACS"">mZUrQJcL</p>","","","","","","","","",""
"html-keyboard-response","326","622799","0.0-14.0-0.75","60d478e72e8251287b641b2d","650c16f0f2faf8d7a0d14c09","651c1e4a1e344958f6551b42","null","null","<p style=""font-size: 60px; font-family: BACS"">MTdYOtM</p>","","","","","","","","",""
"html-keyboard-response","327","623805","0.0-14.0-0.76","60d478e72e8251287b641b2d","650c16f0f2faf8d7a0d14c09","651c1e4a1e344958f6551b42","null","null","<p style=""font-size: 60px; font-family: BACS"">mLdkZcUN</p>","","","","","","","","",""
"html-keyboard-response","328","624807","0.0-14.0-0.77","60d478e72e8251287b641b2d","650c16f0f2faf8d7a0d14c09","651c1e4a1e344958f6551b42","null","null","<p style=""font-size: 60px; font-family: BACS"">uQkrdvJQ</p>","","","","","","","","",""
"html-keyboard-response","329","625813","0.0-14.0-0.78","60d478e72e8251287b641b2d","650c16f0f2faf8d7a0d14c09","651c1e4a1e344958f6551b42","null","null","<p style=""font-size: 60px; font-family: BACS"">lBlEOtM</p>","","","","","","","","",""
"html-keyboard-response","330","626829","0.0-14.0-0.79","60d478e72e8251287b641b2d","650c16f0f2faf8d7a0d14c09","651c1e4a1e344958f6551b42","null","null","<p style=""font-size: 60px; font-family: BACS"">MTdYdTAh</p>","","","","","","","","",""
"html-keyboard-response","331","737433","0.0-15.0","60d478e72e8251287b641b2d","650c16f0f2faf8d7a0d14c09","651c1e4a1e344958f6551b42","110603"," ","<p>Great, you've seen the fourth block of words. You may now take a short break.</p>
      <p>Press the spacebar when you're ready to continue.</p>","","","","","","","","",""
"html-keyboard-response","332","738440","0.0-16.0-0.0","60d478e72e8251287b641b2d","650c16f0f2faf8d7a0d14c09","651c1e4a1e344958f6551b42","null","null","<p style=""font-size: 60px; font-family: BACS"">uQkrdlGc</p>","","","","","","","","",""
"html-keyboard-response","333","739443","0.0-16.0-0.1","60d478e72e8251287b641b2d","650c16f0f2faf8d7a0d14c09","651c1e4a1e344958f6551b42","null","null","<p style=""font-size: 60px; font-family: BACS"">uQkrdlGc</p>","","","","","","","","",""
"html-keyboard-response","334","740447","0.0-16.0-0.2","60d478e72e8251287b641b2d","650c16f0f2faf8d7a0d14c09","651c1e4a1e344958f6551b42","null","null","<p style=""font-size: 60px; font-family: BACS"">uQkrdlGc</p>","","","","","","","","",""
"html-keyboard-response","335","741453","0.0-16.0-0.3","60d478e72e8251287b641b2d","650c16f0f2faf8d7a0d14c09","651c1e4a1e344958f6551b42","null","null","<p style=""font-size: 60px; font-family: BACS"">uQkrdlGc</p>","","","","","","","","",""
"html-keyboard-response","336","742469","0.0-16.0-0.4","60d478e72e8251287b641b2d","650c16f0f2faf8d7a0d14c09","651c1e4a1e344958f6551b42","null","null","<p style=""font-size: 60px; font-family: BACS"">uQkrdlGc</p>","","","","","","","","",""
"html-keyboard-response","337","743472","0.0-16.0-0.5","60d478e72e8251287b641b2d","650c16f0f2faf8d7a0d14c09","651c1e4a1e344958f6551b42","null","null","<p style=""font-size: 60px; font-family: BACS"">uQkrdlGc</p>","","","","","","","","",""
"html-keyboard-response","338","744483","0.0-16.0-0.6","60d478e72e8251287b641b2d","650c16f0f2faf8d7a0d14c09","651c1e4a1e344958f6551b42","null","null","<p style=""font-size: 60px; font-family: BACS"">uQkrdlGc</p>","","","","","","","","",""
"html-keyboard-response","339","745487","0.0-16.0-0.7","60d478e72e8251287b641b2d","650c16f0f2faf8d7a0d14c09","651c1e4a1e344958f6551b42","null","null","<p style=""font-size: 60px; font-family: BACS"">uQkrdlGc</p>","","","","","","","","",""
"html-keyboard-response","340","746500","0.0-16.0-0.8","60d478e72e8251287b641b2d","650c16f0f2faf8d7a0d14c09","651c1e4a1e344958f6551b42","null","null","<p style=""font-size: 60px; font-family: BACS"">uQkrdlGc</p>","","","","","","","","",""
"html-keyboard-response","341","747515","0.0-16.0-0.9","60d478e72e8251287b641b2d","650c16f0f2faf8d7a0d14c09","651c1e4a1e344958f6551b42","null","null","<p style=""font-size: 60px; font-family: BACS"">uQkrdlGc</p>","","","","","","","","",""
"html-keyboard-response","342","748526","0.0-16.0-0.10","60d478e72e8251287b641b2d","650c16f0f2faf8d7a0d14c09","651c1e4a1e344958f6551b42","null","null","<p style=""font-size: 60px; font-family: BACS"">uQkrdlGc</p>","","","","","","","","",""
"html-keyboard-response","343","749532","0.0-16.0-0.11","60d478e72e8251287b641b2d","650c16f0f2faf8d7a0d14c09","651c1e4a1e344958f6551b42","null","null","<p style=""font-size: 60px; font-family: BACS"">uQkrdlGc</p>","","","","","","","","",""
"html-keyboard-response","344","750544","0.0-16.0-0.12","60d478e72e8251287b641b2d","650c16f0f2faf8d7a0d14c09","651c1e4a1e344958f6551b42","null","null","<p style=""font-size: 60px; font-family: BACS"">uQkrdlGc</p>","","","","","","","","",""
"html-keyboard-response","345","751549","0.0-16.0-0.13","60d478e72e8251287b641b2d","650c16f0f2faf8d7a0d14c09","651c1e4a1e344958f6551b42","null","null","<p style=""font-size: 60px; font-family: BACS"">uQkrdlGc</p>","","","","","","","","",""
"html-keyboard-response","346","752559","0.0-16.0-0.14","60d478e72e8251287b641b2d","650c16f0f2faf8d7a0d14c09","651c1e4a1e344958f6551b42","null","null","<p style=""font-size: 60px; font-family: BACS"">uQkrdlGc</p>","","","","","","","","",""
"html-keyboard-response","347","753563","0.0-16.0-0.15","60d478e72e8251287b641b2d","650c16f0f2faf8d7a0d14c09","651c1e4a1e344958f6551b42","null","null","<p style=""font-size: 60px; font-family: BACS"">uQkrdlGc</p>","","","","","","","","",""
"html-keyboard-response","348","754565","0.0-16.0-0.16","60d478e72e8251287b641b2d","650c16f0f2faf8d7a0d14c09","651c1e4a1e344958f6551b42","null","null","<p style=""font-size: 60px; font-family: BACS"">uQkrdlGc</p>","","","","","","","","",""
"html-keyboard-response","349","755572","0.0-16.0-0.17","60d478e72e8251287b641b2d","650c16f0f2faf8d7a0d14c09","651c1e4a1e344958f6551b42","null","null","<p style=""font-size: 60px; font-family: BACS"">uQkrdlGc</p>","","","","","","","","",""
"html-keyboard-response","350","756578","0.0-16.0-0.18","60d478e72e8251287b641b2d","650c16f0f2faf8d7a0d14c09","651c1e4a1e344958f6551b42","null","null","<p style=""font-size: 60px; font-family: BACS"">uQkrdlGc</p>","","","","","","","","",""
"html-keyboard-response","351","757584","0.0-16.0-0.19","60d478e72e8251287b641b2d","650c16f0f2faf8d7a0d14c09","651c1e4a1e344958f6551b42","null","null","<p style=""font-size: 60px; font-family: BACS"">uQkrdlGc</p>","","","","","","","","",""
"html-keyboard-response","352","758589","0.0-16.0-0.20","60d478e72e8251287b641b2d","650c16f0f2faf8d7a0d14c09","651c1e4a1e344958f6551b42","null","null","<p style=""font-size: 60px; font-family: BACS"">uQkrdlGc</p>","","","","","","","","",""
"html-keyboard-response","353","759597","0.0-16.0-0.21","60d478e72e8251287b641b2d","650c16f0f2faf8d7a0d14c09","651c1e4a1e344958f6551b42","null","null","<p style=""font-size: 60px; font-family: BACS"">uQkrdlGc</p>","","","","","","","","",""
"html-keyboard-response","354","760603","0.0-16.0-0.22","60d478e72e8251287b641b2d","650c16f0f2faf8d7a0d14c09","651c1e4a1e344958f6551b42","null","null","<p style=""font-size: 60px; font-family: BACS"">uQkrdlGc</p>","","","","","","","","",""
"html-keyboard-response","355","761605","0.0-16.0-0.23","60d478e72e8251287b641b2d","650c16f0f2faf8d7a0d14c09","651c1e4a1e344958f6551b42","null","null","<p style=""font-size: 60px; font-family: BACS"">uQkrdlGc</p>","","","","","","","","",""
"html-keyboard-response","356","762606","0.0-16.0-0.24","60d478e72e8251287b641b2d","650c16f0f2faf8d7a0d14c09","651c1e4a1e344958f6551b42","null","null","<p style=""font-size: 60px; font-family: BACS"">uQkrdlGc</p>","","","","","","","","",""
"html-keyboard-response","357","763622","0.0-16.0-0.25","60d478e72e8251287b641b2d","650c16f0f2faf8d7a0d14c09","651c1e4a1e344958f6551b42","null","null","<p style=""font-size: 60px; font-family: BACS"">uQkrdlGc</p>","","","","","","","","",""
"html-keyboard-response","358","764635","0.0-16.0-0.26","60d478e72e8251287b641b2d","650c16f0f2faf8d7a0d14c09","651c1e4a1e344958f6551b42","null","null","<p style=""font-size: 60px; font-family: BACS"">uQkrdlGc</p>","","","","","","","","",""
"html-keyboard-response","359","765647","0.0-16.0-0.27","60d478e72e8251287b641b2d","650c16f0f2faf8d7a0d14c09","651c1e4a1e344958f6551b42","null","null","<p style=""font-size: 60px; font-family: BACS"">uQkrdlGc</p>","","","","","","","","",""
"html-keyboard-response","360","766657","0.0-16.0-0.28","60d478e72e8251287b641b2d","650c16f0f2faf8d7a0d14c09","651c1e4a1e344958f6551b42","null","null","<p style=""font-size: 60px; font-family: BACS"">uQkrdlGc</p>","","","","","","","","",""
"html-keyboard-response","361","767666","0.0-16.0-0.29","60d478e72e8251287b641b2d","650c16f0f2faf8d7a0d14c09","651c1e4a1e344958f6551b42","null","null","<p style=""font-size: 60px; font-family: BACS"">uQkrdlGc</p>","","","","","","","","",""
"html-keyboard-response","362","768676","0.0-16.0-0.30","60d478e72e8251287b641b2d","650c16f0f2faf8d7a0d14c09","651c1e4a1e344958f6551b42","null","null","<p style=""font-size: 60px; font-family: BACS"">uQkrdlGc</p>","","","","","","","","",""
"html-keyboard-response","363","769682","0.0-16.0-0.31","60d478e72e8251287b641b2d","650c16f0f2faf8d7a0d14c09","651c1e4a1e344958f6551b42","null","null","<p style=""font-size: 60px; font-family: BACS"">uQkrdlGc</p>","","","","","","","","",""
"html-keyboard-response","364","770694","0.0-16.0-0.32","60d478e72e8251287b641b2d","650c16f0f2faf8d7a0d14c09","651c1e4a1e344958f6551b42","null","null","<p style=""font-size: 60px; font-family: BACS"">uQkrdlGc</p>","","","","","","","","",""
"html-keyboard-response","365","771697","0.0-16.0-0.33","60d478e72e8251287b641b2d","650c16f0f2faf8d7a0d14c09","651c1e4a1e344958f6551b42","null","null","<p style=""font-size: 60px; font-family: BACS"">uQkrdlGc</p>","","","","","","","","",""
"html-keyboard-response","366","772700","0.0-16.0-0.34","60d478e72e8251287b641b2d","650c16f0f2faf8d7a0d14c09","651c1e4a1e344958f6551b42","null","null","<p style=""font-size: 60px; font-family: BACS"">uQkrdlGc</p>","","","","","","","","",""
"html-keyboard-response","367","773709","0.0-16.0-0.35","60d478e72e8251287b641b2d","650c16f0f2faf8d7a0d14c09","651c1e4a1e344958f6551b42","null","null","<p style=""font-size: 60px; font-family: BACS"">uQkrdlGc</p>","","","","","","","","",""
"html-keyboard-response","368","774714","0.0-16.0-0.36","60d478e72e8251287b641b2d","650c16f0f2faf8d7a0d14c09","651c1e4a1e344958f6551b42","null","null","<p style=""font-size: 60px; font-family: BACS"">uQkrdlGc</p>","","","","","","","","",""
"html-keyboard-response","369","775722","0.0-16.0-0.37","60d478e72e8251287b641b2d","650c16f0f2faf8d7a0d14c09","651c1e4a1e344958f6551b42","null","null","<p style=""font-size: 60px; font-family: BACS"">uQkrdlGc</p>","","","","","","","","",""
"html-keyboard-response","370","776730","0.0-16.0-0.38","60d478e72e8251287b641b2d","650c16f0f2faf8d7a0d14c09","651c1e4a1e344958f6551b42","null","null","<p style=""font-size: 60px; font-family: BACS"">uQkrdlGc</p>","","","","","","","","",""
"html-keyboard-response","371","777744","0.0-16.0-0.39","60d478e72e8251287b641b2d","650c16f0f2faf8d7a0d14c09","651c1e4a1e344958f6551b42","null","null","<p style=""font-size: 60px; font-family: BACS"">uQkrdlGc</p>","","","","","","","","",""
"html-keyboard-response","372","778754","0.0-16.0-0.40","60d478e72e8251287b641b2d","650c16f0f2faf8d7a0d14c09","651c1e4a1e344958f6551b42","null","null","<p style=""font-size: 60px; font-family: BACS"">uQkrdlGc</p>","","","","","","","","",""
"html-keyboard-response","373","779770","0.0-16.0-0.41","60d478e72e8251287b641b2d","650c16f0f2faf8d7a0d14c09","651c1e4a1e344958f6551b42","null","null","<p style=""font-size: 60px; font-family: BACS"">uQkrdlGc</p>","","","","","","","","",""
"html-keyboard-response","374","780773","0.0-16.0-0.42","60d478e72e8251287b641b2d","650c16f0f2faf8d7a0d14c09","651c1e4a1e344958f6551b42","null","null","<p style=""font-size: 60px; font-family: BACS"">uQkrdlGc</p>","","","","","","","","",""
"html-keyboard-response","375","781780","0.0-16.0-0.43","60d478e72e8251287b641b2d","650c16f0f2faf8d7a0d14c09","651c1e4a1e344958f6551b42","null","null","<p style=""font-size: 60px; font-family: BACS"">uQkrdlGc</p>","","","","","","","","",""
"html-keyboard-response","376","782785","0.0-16.0-0.44","60d478e72e8251287b641b2d","650c16f0f2faf8d7a0d14c09","651c1e4a1e344958f6551b42","null","null","<p style=""font-size: 60px; font-family: BACS"">uQkrdlGc</p>","","","","","","","","",""
"html-keyboard-response","377","783797","0.0-16.0-0.45","60d478e72e8251287b641b2d","650c16f0f2faf8d7a0d14c09","651c1e4a1e344958f6551b42","null","null","<p style=""font-size: 60px; font-family: BACS"">uQkrdlGc</p>","","","","","","","","",""
"html-keyboard-response","378","784799","0.0-16.0-0.46","60d478e72e8251287b641b2d","650c16f0f2faf8d7a0d14c09","651c1e4a1e344958f6551b42","null","null","<p style=""font-size: 60px; font-family: BACS"">uQkrdlGc</p>","","","","","","","","",""
"html-keyboard-response","379","785800","0.0-16.0-0.47","60d478e72e8251287b641b2d","650c16f0f2faf8d7a0d14c09","651c1e4a1e344958f6551b42","null","null","<p style=""font-size: 60px; font-family: BACS"">uQkrdlGc</p>","","","","","","","","",""
"html-keyboard-response","380","786813","0.0-16.0-0.48","60d478e72e8251287b641b2d","650c16f0f2faf8d7a0d14c09","651c1e4a1e344958f6551b42","null","null","<p style=""font-size: 60px; font-family: BACS"">uQkrdlGc</p>","","","","","","","","",""
"html-keyboard-response","381","787829","0.0-16.0-0.49","60d478e72e8251287b641b2d","650c16f0f2faf8d7a0d14c09","651c1e4a1e344958f6551b42","null","null","<p style=""font-size: 60px; font-family: BACS"">uQkrdlGc</p>","","","","","","","","",""
"html-keyboard-response","382","788840","0.0-16.0-0.50","60d478e72e8251287b641b2d","650c16f0f2faf8d7a0d14c09","651c1e4a1e344958f6551b42","null","null","<p style=""font-size: 60px; font-family: BACS"">uQkrdlGc</p>","","","","","","","","",""
"html-keyboard-response","383","789853","0.0-16.0-0.51","60d478e72e8251287b641b2d","650c16f0f2faf8d7a0d14c09","651c1e4a1e344958f6551b42","null","null","<p style=""font-size: 60px; font-family: BACS"">uQkrdlGc</p>","","","","","","","","",""
"html-keyboard-response","384","790856","0.0-16.0-0.52","60d478e72e8251287b641b2d","650c16f0f2faf8d7a0d14c09","651c1e4a1e344958f6551b42","null","null","<p style=""font-size: 60px; font-family: BACS"">uQkrdlGc</p>","","","","","","","","",""
"html-keyboard-response","385","791858","0.0-16.0-0.53","60d478e72e8251287b641b2d","650c16f0f2faf8d7a0d14c09","651c1e4a1e344958f6551b42","null","null","<p style=""font-size: 60px; font-family: BACS"">uQkrdlGc</p>","","","","","","","","",""
"html-keyboard-response","386","792874","0.0-16.0-0.54","60d478e72e8251287b641b2d","650c16f0f2faf8d7a0d14c09","651c1e4a1e344958f6551b42","null","null","<p style=""font-size: 60px; font-family: BACS"">uQkrdlGc</p>","","","","","","","","",""
"html-keyboard-response","387","793884","0.0-16.0-0.55","60d478e72e8251287b641b2d","650c16f0f2faf8d7a0d14c09","651c1e4a1e344958f6551b42","null","null","<p style=""font-size: 60px; font-family: BACS"">uQkrdlGc</p>","","","","","","","","",""
"html-keyboard-response","388","794888","0.0-16.0-0.56","60d478e72e8251287b641b2d","650c16f0f2faf8d7a0d14c09","651c1e4a1e344958f6551b42","null","null","<p style=""font-size: 60px; font-family: BACS"">uQkrdlGc</p>","","","","","","","","",""
"html-keyboard-response","389","795895","0.0-16.0-0.57","60d478e72e8251287b641b2d","650c16f0f2faf8d7a0d14c09","651c1e4a1e344958f6551b42","null","null","<p style=""font-size: 60px; font-family: BACS"">uQkrdlGc</p>","","","","","","","","",""
"html-keyboard-response","390","796904","0.0-16.0-0.58","60d478e72e8251287b641b2d","650c16f0f2faf8d7a0d14c09","651c1e4a1e344958f6551b42","null","null","<p style=""font-size: 60px; font-family: BACS"">uQkrdlGc</p>","","","","","","","","",""
"html-keyboard-response","391","797906","0.0-16.0-0.59","60d478e72e8251287b641b2d","650c16f0f2faf8d7a0d14c09","651c1e4a1e344958f6551b42","null","null","<p style=""font-size: 60px; font-family: BACS"">uQkrdlGc</p>","","","","","","","","",""
"html-keyboard-response","392","798917","0.0-16.0-0.60","60d478e72e8251287b641b2d","650c16f0f2faf8d7a0d14c09","651c1e4a1e344958f6551b42","null","null","<p style=""font-size: 60px; font-family: BACS"">uQkrdlGc</p>","","","","","","","","",""
"html-keyboard-response","393","799920","0.0-16.0-0.61","60d478e72e8251287b641b2d","650c16f0f2faf8d7a0d14c09","651c1e4a1e344958f6551b42","null","null","<p style=""font-size: 60px; font-family: BACS"">uQkrdlGc</p>","","","","","","","","",""
"html-keyboard-response","394","800929","0.0-16.0-0.62","60d478e72e8251287b641b2d","650c16f0f2faf8d7a0d14c09","651c1e4a1e344958f6551b42","null","null","<p style=""font-size: 60px; font-family: BACS"">uQkrdlGc</p>","","","","","","","","",""
"html-keyboard-response","395","801933","0.0-16.0-0.63","60d478e72e8251287b641b2d","650c16f0f2faf8d7a0d14c09","651c1e4a1e344958f6551b42","null","null","<p style=""font-size: 60px; font-family: BACS"">uQkrdlGc</p>","","","","","","","","",""
"html-keyboard-response","396","802937","0.0-16.0-0.64","60d478e72e8251287b641b2d","650c16f0f2faf8d7a0d14c09","651c1e4a1e344958f6551b42","null","null","<p style=""font-size: 60px; font-family: BACS"">uQkrdlGc</p>","","","","","","","","",""
"html-keyboard-response","397","803942","0.0-16.0-0.65","60d478e72e8251287b641b2d","650c16f0f2faf8d7a0d14c09","651c1e4a1e344958f6551b42","null","null","<p style=""font-size: 60px; font-family: BACS"">uQkrdlGc</p>","","","","","","","","",""
"html-keyboard-response","398","804948","0.0-16.0-0.66","60d478e72e8251287b641b2d","650c16f0f2faf8d7a0d14c09","651c1e4a1e344958f6551b42","null","null","<p style=""font-size: 60px; font-family: BACS"">uQkrdlGc</p>","","","","","","","","",""
"html-keyboard-response","399","805963","0.0-16.0-0.67","60d478e72e8251287b641b2d","650c16f0f2faf8d7a0d14c09","651c1e4a1e344958f6551b42","null","null","<p style=""font-size: 60px; font-family: BACS"">uQkrdlGc</p>","","","","","","","","",""
