"trial_type","trial_index","time_elapsed","internal_node_id","subject_id","study_id","session_id","rt","response","stimulus","success","item","task","correct_response","testing_condition","correct","target","confound","name"
"pavlovia","0","639","0.0-0.0","64a288758b7c82ff2d18da75","650c16f0f2faf8d7a0d14c09","651c1de66e83f0736452ce2b","","","","","","","","","","","",""
"survey-html-form","1","3879","0.0-1.0","64a288758b7c82ff2d18da75","650c16f0f2faf8d7a0d14c09","651c1de66e83f0736452ce2b","3238","{""ID"":""64a288758b7c82ff2d18da75""}","","","","","","","","","",""
"html-keyboard-response","2","12645","0.0-2.0","64a288758b7c82ff2d18da75","650c16f0f2faf8d7a0d14c09","651c1de66e83f0736452ce2b","8766"," ","<p style=""font-size: 15px;"">Before beginning, we ask that you read the consent information and confirm your agreement to participate in the experiment.</p>
      <p style=""font-size: 15px;""> We ask that you remember that this is a research project and that your participation is entirely voluntary. You can stop your participation at any time, without needing to provide any explanation. The study we're asking you to participate in aims at examining how readers process written words. You will be engaged in a session of apprximately 20 minutes, followed by a brief questionnaire. You will have the opportunity to take a few breaks during the experiment. You will be paid £4 for your participation, corresponding to a rate of £8/hour. While this experiment looks at cognitive faculties, this experiment doesn't constitute clinical proof of eventual pathologies.</p>
      <p style=""font-size: 15px;"">All of the information collected thanks to yours and others' participation will be held in a secure password-protected server, and will not be shared with anyone not authorised to view it. Your personal information will be kept with an arbitrary participant ID. Thanks to this data anonymity process, any researcher analysing the data won't be able to track the information back to a specific participant. Therefore, this process will make identifying you impossibile, even when results from the study will be published in scientific reviews, presented at congresses, or at any other public forum. More generally, the collected data will be treated in accordance with the laws on privacy and conformity to the Legislative Degree n. 196 ""Code regarding the protection of personal data"" of the 30th of June 2003 and to the European Regulation 2016/670 (General Data Protection Regulation - GDPR). The Data Protection Officer is Avv. Valentina Carollo, who can be contacted at the following email addresses: <a href=""mailto:dpo@sissa.it"">dpo@sissa.it</a> or <a href=""mailto:rpd@sissa.it"">rpd@sissa.it</a> - PEC: <a href=""mailto:protocollo@pec.sissa.it"">protocollo@pec.sissa.it</a>.</p>
      <p style=""font-size: 15px;""> Before expressing your consent to participate, we would like to remind you again that in case you need explanations on any aspect of the experimental procedure, the researcher is at your disposition (<a href=""mailto:aliebelt@sissa.it"">aliebelt@sissa.it</a>, <a href=""mailto:davide.crepaldi@sissa.it"">davide.crepaldi@sissa.it</a>).</p>
      <p style=""font-size: 15px;"">If you would like to download the informed consent form, you can do so here: <a href=""BASL-Informed_Consent.pdf"" download>informed consent form</a>.</p>
      <p style=""font-size: 15px;"">We ask that you press the spacebar to proceed to the consent section.</p>","","","","","","","","",""
"survey-html-form","3","31173","0.0-3.0","64a288758b7c82ff2d18da75","650c16f0f2faf8d7a0d14c09","651c1de66e83f0736452ce2b","18526","{""consent1"":""YES"",""consent2"":""YES"",""consent3"":""YES"",""consent4"":""YES"",""consent5"":""YES"",""consent6"":""YES""}","","","","","","","","","",""
"fullscreen","4","38388","0.0-4.0","64a288758b7c82ff2d18da75","650c16f0f2faf8d7a0d14c09","651c1de66e83f0736452ce2b","","","","true","","","","","","","",""
"html-keyboard-response","5","41367","0.0-5.0","64a288758b7c82ff2d18da75","650c16f0f2faf8d7a0d14c09","651c1de66e83f0736452ce2b","2977"," ","<p>Welcome, and thank you very much for your time!</p>
      <p>In this experiment, you'll be a language expert who's been asked to take a look at words that Earth has received in its first communication with aliens. Your task, in this first part of the experiment, is to pay close attention to the words you'll be shown; later, world leaders will ask you questions on what you saw. The words will be shown to you quite quickly; it seems that the aliens were in a hurry :-)</p>
      <p>Press the spacebar to continue.<p>","","","","","","","","",""
"html-keyboard-response","6","41434","0.0-6.0","64a288758b7c82ff2d18da75","650c16f0f2faf8d7a0d14c09","651c1de66e83f0736452ce2b","null","null","<p style=""font-size: 120px; font-family: BACS""> </p>","","","","","","","","",""
"html-keyboard-response","7","45969","0.0-7.0","64a288758b7c82ff2d18da75","650c16f0f2faf8d7a0d14c09","651c1de66e83f0736452ce2b","4533"," ","<p>Here is an example of the words you'll see:</p>
      <img src='esempio.png' height='400px'>
      <p>When you're ready to begin, press the spacebar.</p></div>","","","","","","","","",""
"html-keyboard-response","8","46973","0.0-8.0-0.0","64a288758b7c82ff2d18da75","650c16f0f2faf8d7a0d14c09","651c1de66e83f0736452ce2b","null","null","<p style=""font-size: 60px; font-family: BACS"">bmbNrba</p>","","","","","","","","",""
"html-keyboard-response","9","47984","0.0-8.0-0.1","64a288758b7c82ff2d18da75","650c16f0f2faf8d7a0d14c09","651c1de66e83f0736452ce2b","null","null","<p style=""font-size: 60px; font-family: BACS"">amJmravu</p>","","","","","","","","",""
"html-keyboard-response","10","48991","0.0-8.0-0.2","64a288758b7c82ff2d18da75","650c16f0f2faf8d7a0d14c09","651c1de66e83f0736452ce2b","null","null","<p style=""font-size: 60px; font-family: BACS"">TObCOMCkm</p>","","","","","","","","",""
"html-keyboard-response","11","49997","0.0-8.0-0.3","64a288758b7c82ff2d18da75","650c16f0f2faf8d7a0d14c09","651c1de66e83f0736452ce2b","null","null","<p style=""font-size: 60px; font-family: BACS"">bmbNJZr</p>","","","","","","","","",""
"html-keyboard-response","12","51000","0.0-8.0-0.4","64a288758b7c82ff2d18da75","650c16f0f2faf8d7a0d14c09","651c1de66e83f0736452ce2b","null","null","<p style=""font-size: 60px; font-family: BACS"">cROMthBK</p>","","","","","","","","",""
"html-keyboard-response","13","52010","0.0-8.0-0.5","64a288758b7c82ff2d18da75","650c16f0f2faf8d7a0d14c09","651c1de66e83f0736452ce2b","null","null","<p style=""font-size: 60px; font-family: BACS"">CYPcAPT</p>","","","","","","","","",""
"html-keyboard-response","14","53019","0.0-8.0-0.6","64a288758b7c82ff2d18da75","650c16f0f2faf8d7a0d14c09","651c1de66e83f0736452ce2b","null","null","<p style=""font-size: 60px; font-family: BACS"">JmNkrba</p>","","","","","","","","",""
"html-keyboard-response","15","54022","0.0-8.0-0.7","64a288758b7c82ff2d18da75","650c16f0f2faf8d7a0d14c09","651c1de66e83f0736452ce2b","null","null","<p style=""font-size: 60px; font-family: BACS"">MTdYMCkm</p>","","","","","","","","",""
"html-keyboard-response","16","55030","0.0-8.0-0.8","64a288758b7c82ff2d18da75","650c16f0f2faf8d7a0d14c09","651c1de66e83f0736452ce2b","null","null","<p style=""font-size: 60px; font-family: BACS"">dkLlrba</p>","","","","","","","","",""
"html-keyboard-response","17","56041","0.0-8.0-0.9","64a288758b7c82ff2d18da75","650c16f0f2faf8d7a0d14c09","651c1de66e83f0736452ce2b","null","null","<p style=""font-size: 60px; font-family: BACS"">aLNlkrAm</p>","","","","","","","","",""
"html-keyboard-response","18","57049","0.0-8.0-0.10","64a288758b7c82ff2d18da75","650c16f0f2faf8d7a0d14c09","651c1de66e83f0736452ce2b","null","null","<p style=""font-size: 60px; font-family: BACS"">MDKPABb</p>","","","","","","","","",""
"html-keyboard-response","19","58053","0.0-8.0-0.11","64a288758b7c82ff2d18da75","650c16f0f2faf8d7a0d14c09","651c1de66e83f0736452ce2b","null","null","<p style=""font-size: 60px; font-family: BACS"">MTdYbAMO</p>","","","","","","","","",""
"html-keyboard-response","20","59057","0.0-8.0-0.12","64a288758b7c82ff2d18da75","650c16f0f2faf8d7a0d14c09","651c1de66e83f0736452ce2b","null","null","<p style=""font-size: 60px; font-family: BACS"">UaYLJZr</p>","","","","","","","","",""
"html-keyboard-response","21","60062","0.0-8.0-0.13","64a288758b7c82ff2d18da75","650c16f0f2faf8d7a0d14c09","651c1de66e83f0736452ce2b","null","null","<p style=""font-size: 60px; font-family: BACS"">bYGOZvAvb</p>","","","","","","","","",""
"html-keyboard-response","22","61067","0.0-8.0-0.14","64a288758b7c82ff2d18da75","650c16f0f2faf8d7a0d14c09","651c1de66e83f0736452ce2b","null","null","<p style=""font-size: 60px; font-family: BACS"">uQuZcJZr</p>","","","","","","","","",""
"html-keyboard-response","23","62068","0.0-8.0-0.15","64a288758b7c82ff2d18da75","650c16f0f2faf8d7a0d14c09","651c1de66e83f0736452ce2b","null","null","<p style=""font-size: 60px; font-family: BACS"">bmbNvAvb</p>","","","","","","","","",""
"html-keyboard-response","24","63078","0.0-8.0-0.16","64a288758b7c82ff2d18da75","650c16f0f2faf8d7a0d14c09","651c1de66e83f0736452ce2b","null","null","<p style=""font-size: 60px; font-family: BACS"">kNuaravu</p>","","","","","","","","",""
"html-keyboard-response","25","64081","0.0-8.0-0.17","64a288758b7c82ff2d18da75","650c16f0f2faf8d7a0d14c09","651c1de66e83f0736452ce2b","null","null","<p style=""font-size: 60px; font-family: BACS"">dkLlvAvb</p>","","","","","","","","",""
"html-keyboard-response","26","65084","0.0-8.0-0.18","64a288758b7c82ff2d18da75","650c16f0f2faf8d7a0d14c09","651c1de66e83f0736452ce2b","null","null","<p style=""font-size: 60px; font-family: BACS"">MTdYABb</p>","","","","","","","","",""
"html-keyboard-response","27","66099","0.0-8.0-0.19","64a288758b7c82ff2d18da75","650c16f0f2faf8d7a0d14c09","651c1de66e83f0736452ce2b","null","null","<p style=""font-size: 60px; font-family: BACS"">TObCOhBK</p>","","","","","","","","",""
"html-keyboard-response","28","67108","0.0-8.0-0.20","64a288758b7c82ff2d18da75","650c16f0f2faf8d7a0d14c09","651c1de66e83f0736452ce2b","null","null","<p style=""font-size: 60px; font-family: BACS"">uQuZcravu</p>","","","","","","","","",""
"html-keyboard-response","29","68120","0.0-8.0-0.21","64a288758b7c82ff2d18da75","650c16f0f2faf8d7a0d14c09","651c1de66e83f0736452ce2b","null","null","<p style=""font-size: 60px; font-family: BACS"">TObCOABb</p>","","","","","","","","",""
"html-keyboard-response","30","69131","0.0-8.0-0.22","64a288758b7c82ff2d18da75","650c16f0f2faf8d7a0d14c09","651c1de66e83f0736452ce2b","null","null","<p style=""font-size: 60px; font-family: BACS"">bYGOZrAm</p>","","","","","","","","",""
"html-keyboard-response","31","70144","0.0-8.0-0.23","64a288758b7c82ff2d18da75","650c16f0f2faf8d7a0d14c09","651c1de66e83f0736452ce2b","null","null","<p style=""font-size: 60px; font-family: BACS"">kMbTRhBK</p>","","","","","","","","",""
"html-keyboard-response","32","71149","0.0-8.0-0.24","64a288758b7c82ff2d18da75","650c16f0f2faf8d7a0d14c09","651c1de66e83f0736452ce2b","null","null","<p style=""font-size: 60px; font-family: BACS"">bYGOZravu</p>","","","","","","","","",""
"html-keyboard-response","33","72158","0.0-8.0-0.25","64a288758b7c82ff2d18da75","650c16f0f2faf8d7a0d14c09","651c1de66e83f0736452ce2b","null","null","<p style=""font-size: 60px; font-family: BACS"">cROMtABb</p>","","","","","","","","",""
"html-keyboard-response","34","73168","0.0-8.0-0.26","64a288758b7c82ff2d18da75","650c16f0f2faf8d7a0d14c09","651c1de66e83f0736452ce2b","null","null","<p style=""font-size: 60px; font-family: BACS"">UaYLrAm</p>","","","","","","","","",""
"html-keyboard-response","35","74174","0.0-8.0-0.27","64a288758b7c82ff2d18da75","650c16f0f2faf8d7a0d14c09","651c1de66e83f0736452ce2b","null","null","<p style=""font-size: 60px; font-family: BACS"">OCmkMCkm</p>","","","","","","","","",""
"html-keyboard-response","36","75190","0.0-8.0-0.28","64a288758b7c82ff2d18da75","650c16f0f2faf8d7a0d14c09","651c1de66e83f0736452ce2b","null","null","<p style=""font-size: 60px; font-family: BACS"">MDKPhBK</p>","","","","","","","","",""
"html-keyboard-response","37","76200","0.0-8.0-0.29","64a288758b7c82ff2d18da75","650c16f0f2faf8d7a0d14c09","651c1de66e83f0736452ce2b","null","null","<p style=""font-size: 60px; font-family: BACS"">aLNlkravu</p>","","","","","","","","",""
"html-keyboard-response","38","77206","0.0-8.0-0.30","64a288758b7c82ff2d18da75","650c16f0f2faf8d7a0d14c09","651c1de66e83f0736452ce2b","null","null","<p style=""font-size: 60px; font-family: BACS"">cROMtAPT</p>","","","","","","","","",""
"html-keyboard-response","39","78213","0.0-8.0-0.31","64a288758b7c82ff2d18da75","650c16f0f2faf8d7a0d14c09","651c1de66e83f0736452ce2b","null","null","<p style=""font-size: 60px; font-family: BACS"">JuamlJZr</p>","","","","","","","","",""
"html-keyboard-response","40","79220","0.0-8.0-0.32","64a288758b7c82ff2d18da75","650c16f0f2faf8d7a0d14c09","651c1de66e83f0736452ce2b","null","null","<p style=""font-size: 60px; font-family: BACS"">cROMtMCkm</p>","","","","","","","","",""
"html-keyboard-response","41","80227","0.0-8.0-0.33","64a288758b7c82ff2d18da75","650c16f0f2faf8d7a0d14c09","651c1de66e83f0736452ce2b","null","null","<p style=""font-size: 60px; font-family: BACS"">MDKPbAMO</p>","","","","","","","","",""
"html-keyboard-response","42","81233","0.0-8.0-0.34","64a288758b7c82ff2d18da75","650c16f0f2faf8d7a0d14c09","651c1de66e83f0736452ce2b","null","null","<p style=""font-size: 60px; font-family: BACS"">CchtdABb</p>","","","","","","","","",""
"html-keyboard-response","43","82240","0.0-8.0-0.35","64a288758b7c82ff2d18da75","650c16f0f2faf8d7a0d14c09","651c1de66e83f0736452ce2b","null","null","<p style=""font-size: 60px; font-family: BACS"">aLNlkvAvb</p>","","","","","","","","",""
"html-keyboard-response","44","83251","0.0-8.0-0.36","64a288758b7c82ff2d18da75","650c16f0f2faf8d7a0d14c09","651c1de66e83f0736452ce2b","null","null","<p style=""font-size: 60px; font-family: BACS"">amJmrba</p>","","","","","","","","",""
"html-keyboard-response","45","84253","0.0-8.0-0.37","64a288758b7c82ff2d18da75","650c16f0f2faf8d7a0d14c09","651c1de66e83f0736452ce2b","null","null","<p style=""font-size: 60px; font-family: BACS"">CYPcbAMO</p>","","","","","","","","",""
"html-keyboard-response","46","85259","0.0-8.0-0.38","64a288758b7c82ff2d18da75","650c16f0f2faf8d7a0d14c09","651c1de66e83f0736452ce2b","null","null","<p style=""font-size: 60px; font-family: BACS"">bmbNravu</p>","","","","","","","","",""
"html-keyboard-response","47","86264","0.0-8.0-0.39","64a288758b7c82ff2d18da75","650c16f0f2faf8d7a0d14c09","651c1de66e83f0736452ce2b","null","null","<p style=""font-size: 60px; font-family: BACS"">MDKPAPT</p>","","","","","","","","",""
"html-keyboard-response","48","87271","0.0-8.0-0.40","64a288758b7c82ff2d18da75","650c16f0f2faf8d7a0d14c09","651c1de66e83f0736452ce2b","null","null","<p style=""font-size: 60px; font-family: BACS"">kNuarba</p>","","","","","","","","",""
"html-keyboard-response","49","88284","0.0-8.0-0.41","64a288758b7c82ff2d18da75","650c16f0f2faf8d7a0d14c09","651c1de66e83f0736452ce2b","null","null","<p style=""font-size: 60px; font-family: BACS"">TObCObAMO</p>","","","","","","","","",""
"html-keyboard-response","50","89292","0.0-8.0-0.42","64a288758b7c82ff2d18da75","650c16f0f2faf8d7a0d14c09","651c1de66e83f0736452ce2b","null","null","<p style=""font-size: 60px; font-family: BACS"">OMlTMCkm</p>","","","","","","","","",""
"html-keyboard-response","51","90304","0.0-8.0-0.43","64a288758b7c82ff2d18da75","650c16f0f2faf8d7a0d14c09","651c1de66e83f0736452ce2b","null","null","<p style=""font-size: 60px; font-family: BACS"">dkLlrAm</p>","","","","","","","","",""
"html-keyboard-response","52","91315","0.0-8.0-0.44","64a288758b7c82ff2d18da75","650c16f0f2faf8d7a0d14c09","651c1de66e83f0736452ce2b","null","null","<p style=""font-size: 60px; font-family: BACS"">JmNkravu</p>","","","","","","","","",""
"html-keyboard-response","53","92332","0.0-8.0-0.45","64a288758b7c82ff2d18da75","650c16f0f2faf8d7a0d14c09","651c1de66e83f0736452ce2b","null","null","<p style=""font-size: 60px; font-family: BACS"">uQuZcrAm</p>","","","","","","","","",""
"html-keyboard-response","54","93339","0.0-8.0-0.46","64a288758b7c82ff2d18da75","650c16f0f2faf8d7a0d14c09","651c1de66e83f0736452ce2b","null","null","<p style=""font-size: 60px; font-family: BACS"">TklDABb</p>","","","","","","","","",""
"html-keyboard-response","55","94343","0.0-8.0-0.47","64a288758b7c82ff2d18da75","650c16f0f2faf8d7a0d14c09","651c1de66e83f0736452ce2b","null","null","<p style=""font-size: 60px; font-family: BACS"">CchtdAPT</p>","","","","","","","","",""
"html-keyboard-response","56","95349","0.0-8.0-0.48","64a288758b7c82ff2d18da75","650c16f0f2faf8d7a0d14c09","651c1de66e83f0736452ce2b","null","null","<p style=""font-size: 60px; font-family: BACS"">CYPchBK</p>","","","","","","","","",""
"html-keyboard-response","57","96362","0.0-8.0-0.49","64a288758b7c82ff2d18da75","650c16f0f2faf8d7a0d14c09","651c1de66e83f0736452ce2b","null","null","<p style=""font-size: 60px; font-family: BACS"">OCmkAPT</p>","","","","","","","","",""
"html-keyboard-response","58","97369","0.0-8.0-0.50","64a288758b7c82ff2d18da75","650c16f0f2faf8d7a0d14c09","651c1de66e83f0736452ce2b","null","null","<p style=""font-size: 60px; font-family: BACS"">amJmvAvb</p>","","","","","","","","",""
"html-keyboard-response","59","98374","0.0-8.0-0.51","64a288758b7c82ff2d18da75","650c16f0f2faf8d7a0d14c09","651c1de66e83f0736452ce2b","null","null","<p style=""font-size: 60px; font-family: BACS"">kMbTRABb</p>","","","","","","","","",""
"html-keyboard-response","60","99382","0.0-8.0-0.52","64a288758b7c82ff2d18da75","650c16f0f2faf8d7a0d14c09","651c1de66e83f0736452ce2b","null","null","<p style=""font-size: 60px; font-family: BACS"">OCmkhBK</p>","","","","","","","","",""
"html-keyboard-response","61","100388","0.0-8.0-0.53","64a288758b7c82ff2d18da75","650c16f0f2faf8d7a0d14c09","651c1de66e83f0736452ce2b","null","null","<p style=""font-size: 60px; font-family: BACS"">dkLlJZr</p>","","","","","","","","",""
"html-keyboard-response","62","101401","0.0-8.0-0.54","64a288758b7c82ff2d18da75","650c16f0f2faf8d7a0d14c09","651c1de66e83f0736452ce2b","null","null","<p style=""font-size: 60px; font-family: BACS"">kMbTRMCkm</p>","","","","","","","","",""
"html-keyboard-response","63","102411","0.0-8.0-0.55","64a288758b7c82ff2d18da75","650c16f0f2faf8d7a0d14c09","651c1de66e83f0736452ce2b","null","null","<p style=""font-size: 60px; font-family: BACS"">UaYLvAvb</p>","","","","","","","","",""
"html-keyboard-response","64","103415","0.0-8.0-0.56","64a288758b7c82ff2d18da75","650c16f0f2faf8d7a0d14c09","651c1de66e83f0736452ce2b","null","null","<p style=""font-size: 60px; font-family: BACS"">kNuaJZr</p>","","","","","","","","",""
"html-keyboard-response","65","104426","0.0-8.0-0.57","64a288758b7c82ff2d18da75","650c16f0f2faf8d7a0d14c09","651c1de66e83f0736452ce2b","null","null","<p style=""font-size: 60px; font-family: BACS"">CchtdbAMO</p>","","","","","","","","",""
"html-keyboard-response","66","105434","0.0-8.0-0.58","64a288758b7c82ff2d18da75","650c16f0f2faf8d7a0d14c09","651c1de66e83f0736452ce2b","null","null","<p style=""font-size: 60px; font-family: BACS"">TklDAPT</p>","","","","","","","","",""
"html-keyboard-response","67","106439","0.0-8.0-0.59","64a288758b7c82ff2d18da75","650c16f0f2faf8d7a0d14c09","651c1de66e83f0736452ce2b","null","null","<p style=""font-size: 60px; font-family: BACS"">JmNkJZr</p>","","","","","","","","",""
"html-keyboard-response","68","107442","0.0-8.0-0.60","64a288758b7c82ff2d18da75","650c16f0f2faf8d7a0d14c09","651c1de66e83f0736452ce2b","null","null","<p style=""font-size: 60px; font-family: BACS"">OCmkbAMO</p>","","","","","","","","",""
"html-keyboard-response","69","108449","0.0-8.0-0.61","64a288758b7c82ff2d18da75","650c16f0f2faf8d7a0d14c09","651c1de66e83f0736452ce2b","null","null","<p style=""font-size: 60px; font-family: BACS"">kNuavAvb</p>","","","","","","","","",""
"html-keyboard-response","70","109461","0.0-8.0-0.62","64a288758b7c82ff2d18da75","650c16f0f2faf8d7a0d14c09","651c1de66e83f0736452ce2b","null","null","<p style=""font-size: 60px; font-family: BACS"">OMlTABb</p>","","","","","","","","",""
"html-keyboard-response","71","110472","0.0-8.0-0.63","64a288758b7c82ff2d18da75","650c16f0f2faf8d7a0d14c09","651c1de66e83f0736452ce2b","null","null","<p style=""font-size: 60px; font-family: BACS"">UaYLravu</p>","","","","","","","","",""
"html-keyboard-response","72","111475","0.0-8.0-0.64","64a288758b7c82ff2d18da75","650c16f0f2faf8d7a0d14c09","651c1de66e83f0736452ce2b","null","null","<p style=""font-size: 60px; font-family: BACS"">CYPcMCkm</p>","","","","","","","","",""
"html-keyboard-response","73","112478","0.0-8.0-0.65","64a288758b7c82ff2d18da75","650c16f0f2faf8d7a0d14c09","651c1de66e83f0736452ce2b","null","null","<p style=""font-size: 60px; font-family: BACS"">TklDhBK</p>","","","","","","","","",""
"html-keyboard-response","74","113487","0.0-8.0-0.66","64a288758b7c82ff2d18da75","650c16f0f2faf8d7a0d14c09","651c1de66e83f0736452ce2b","null","null","<p style=""font-size: 60px; font-family: BACS"">JuamlrAm</p>","","","","","","","","",""
"html-keyboard-response","75","114496","0.0-8.0-0.67","64a288758b7c82ff2d18da75","650c16f0f2faf8d7a0d14c09","651c1de66e83f0736452ce2b","null","null","<p style=""font-size: 60px; font-family: BACS"">TklDbAMO</p>","","","","","","","","",""
"html-keyboard-response","76","115501","0.0-8.0-0.68","64a288758b7c82ff2d18da75","650c16f0f2faf8d7a0d14c09","651c1de66e83f0736452ce2b","null","null","<p style=""font-size: 60px; font-family: BACS"">Juamlrba</p>","","","","","","","","",""
"html-keyboard-response","77","116511","0.0-8.0-0.69","64a288758b7c82ff2d18da75","650c16f0f2faf8d7a0d14c09","651c1de66e83f0736452ce2b","null","null","<p style=""font-size: 60px; font-family: BACS"">kMbTRAPT</p>","","","","","","","","",""
"html-keyboard-response","78","117512","0.0-8.0-0.70","64a288758b7c82ff2d18da75","650c16f0f2faf8d7a0d14c09","651c1de66e83f0736452ce2b","null","null","<p style=""font-size: 60px; font-family: BACS"">bYGOZrba</p>","","","","","","","","",""
"html-keyboard-response","79","118520","0.0-8.0-0.71","64a288758b7c82ff2d18da75","650c16f0f2faf8d7a0d14c09","651c1de66e83f0736452ce2b","null","null","<p style=""font-size: 60px; font-family: BACS"">JuamlvAvb</p>","","","","","","","","",""
"html-keyboard-response","80","119527","0.0-8.0-0.72","64a288758b7c82ff2d18da75","650c16f0f2faf8d7a0d14c09","651c1de66e83f0736452ce2b","null","null","<p style=""font-size: 60px; font-family: BACS"">CchtdMCkm</p>","","","","","","","","",""
"html-keyboard-response","81","120539","0.0-8.0-0.73","64a288758b7c82ff2d18da75","650c16f0f2faf8d7a0d14c09","651c1de66e83f0736452ce2b","null","null","<p style=""font-size: 60px; font-family: BACS"">uQuZcrba</p>","","","","","","","","",""
"html-keyboard-response","82","121547","0.0-8.0-0.74","64a288758b7c82ff2d18da75","650c16f0f2faf8d7a0d14c09","651c1de66e83f0736452ce2b","null","null","<p style=""font-size: 60px; font-family: BACS"">amJmrAm</p>","","","","","","","","",""
"html-keyboard-response","83","122563","0.0-8.0-0.75","64a288758b7c82ff2d18da75","650c16f0f2faf8d7a0d14c09","651c1de66e83f0736452ce2b","null","null","<p style=""font-size: 60px; font-family: BACS"">MTdYhBK</p>","","","","","","","","",""
"html-keyboard-response","84","123568","0.0-8.0-0.76","64a288758b7c82ff2d18da75","650c16f0f2faf8d7a0d14c09","651c1de66e83f0736452ce2b","null","null","<p style=""font-size: 60px; font-family: BACS"">aLNlkJZr</p>","","","","","","","","",""
"html-keyboard-response","85","124573","0.0-8.0-0.77","64a288758b7c82ff2d18da75","650c16f0f2faf8d7a0d14c09","651c1de66e83f0736452ce2b","null","null","<p style=""font-size: 60px; font-family: BACS"">OMlTbAMO</p>","","","","","","","","",""
"html-keyboard-response","86","125583","0.0-8.0-0.78","64a288758b7c82ff2d18da75","650c16f0f2faf8d7a0d14c09","651c1de66e83f0736452ce2b","null","null","<p style=""font-size: 60px; font-family: BACS"">JmNkrAm</p>","","","","","","","","",""
"html-keyboard-response","87","126593","0.0-8.0-0.79","64a288758b7c82ff2d18da75","650c16f0f2faf8d7a0d14c09","651c1de66e83f0736452ce2b","null","null","<p style=""font-size: 60px; font-family: BACS"">OMlTAPT</p>","","","","","","","","",""
"html-keyboard-response","88","135452","0.0-9.0","64a288758b7c82ff2d18da75","650c16f0f2faf8d7a0d14c09","651c1de66e83f0736452ce2b","8858"," ","<p>Great, you've seen the first block of words. You may now take a short break.</p>
      <p>Press the spacebar when you're ready to continue.</p>","","","","","","","","",""
"html-keyboard-response","89","136468","0.0-10.0-0.0","64a288758b7c82ff2d18da75","650c16f0f2faf8d7a0d14c09","651c1de66e83f0736452ce2b","null","null","<p style=""font-size: 60px; font-family: BACS"">TklDbAMO</p>","","","","","","","","",""
"html-keyboard-response","90","137484","0.0-10.0-0.1","64a288758b7c82ff2d18da75","650c16f0f2faf8d7a0d14c09","651c1de66e83f0736452ce2b","null","null","<p style=""font-size: 60px; font-family: BACS"">JuamlJZr</p>","","","","","","","","",""
"html-keyboard-response","91","138516","0.0-10.0-0.2","64a288758b7c82ff2d18da75","650c16f0f2faf8d7a0d14c09","651c1de66e83f0736452ce2b","null","null","<p style=""font-size: 60px; font-family: BACS"">TObCObAMO</p>","","","","","","","","",""
"html-keyboard-response","92","140523","0.0-10.0-0.3","64a288758b7c82ff2d18da75","650c16f0f2faf8d7a0d14c09","651c1de66e83f0736452ce2b","null","null","<p style=""font-size: 60px; font-family: BACS"">bmbNvAvb</p>","","","","","","","","",""
"html-keyboard-response","93","141525","0.0-10.0-0.4","64a288758b7c82ff2d18da75","650c16f0f2faf8d7a0d14c09","651c1de66e83f0736452ce2b","null","null","<p style=""font-size: 60px; font-family: BACS"">CYPcAPT</p>","","","","","","","","",""
"html-keyboard-response","94","142540","0.0-10.0-0.5","64a288758b7c82ff2d18da75","650c16f0f2faf8d7a0d14c09","651c1de66e83f0736452ce2b","null","null","<p style=""font-size: 60px; font-family: BACS"">aLNlkravu</p>","","","","","","","","",""
"html-keyboard-response","95","143547","0.0-10.0-0.6","64a288758b7c82ff2d18da75","650c16f0f2faf8d7a0d14c09","651c1de66e83f0736452ce2b","null","null","<p style=""font-size: 60px; font-family: BACS"">JmNkrba</p>","","","","","","","","",""
"html-keyboard-response","96","144562","0.0-10.0-0.7","64a288758b7c82ff2d18da75","650c16f0f2faf8d7a0d14c09","651c1de66e83f0736452ce2b","null","null","<p style=""font-size: 60px; font-family: BACS"">cROMtABb</p>","","","","","","","","",""
"html-keyboard-response","97","145567","0.0-10.0-0.8","64a288758b7c82ff2d18da75","650c16f0f2faf8d7a0d14c09","651c1de66e83f0736452ce2b","null","null","<p style=""font-size: 60px; font-family: BACS"">OMlTAPT</p>","","","","","","","","",""
"html-keyboard-response","98","146569","0.0-10.0-0.9","64a288758b7c82ff2d18da75","650c16f0f2faf8d7a0d14c09","651c1de66e83f0736452ce2b","null","null","<p style=""font-size: 60px; font-family: BACS"">TObCOABb</p>","","","","","","","","",""
"html-keyboard-response","99","147572","0.0-10.0-0.10","64a288758b7c82ff2d18da75","650c16f0f2faf8d7a0d14c09","651c1de66e83f0736452ce2b","null","null","<p style=""font-size: 60px; font-family: BACS"">dkLlJZr</p>","","","","","","","","",""
"html-keyboard-response","100","148578","0.0-10.0-0.11","64a288758b7c82ff2d18da75","650c16f0f2faf8d7a0d14c09","651c1de66e83f0736452ce2b","null","null","<p style=""font-size: 60px; font-family: BACS"">cROMthBK</p>","","","","","","","","",""
"html-keyboard-response","101","149583","0.0-10.0-0.12","64a288758b7c82ff2d18da75","650c16f0f2faf8d7a0d14c09","651c1de66e83f0736452ce2b","null","null","<p style=""font-size: 60px; font-family: BACS"">kMbTRAPT</p>","","","","","","","","",""
"html-keyboard-response","102","151513","0.0-10.0-0.13","64a288758b7c82ff2d18da75","650c16f0f2faf8d7a0d14c09","651c1de66e83f0736452ce2b","null","null","<p style=""font-size: 60px; font-family: BACS"">UaYLvAvb</p>","","","","","","","","",""
"html-keyboard-response","103","152527","0.0-10.0-0.14","64a288758b7c82ff2d18da75","650c16f0f2faf8d7a0d14c09","651c1de66e83f0736452ce2b","null","null","<p style=""font-size: 60px; font-family: BACS"">aLNlkJZr</p>","","","","","","","","",""
"html-keyboard-response","104","154519","0.0-10.0-0.15","64a288758b7c82ff2d18da75","650c16f0f2faf8d7a0d14c09","651c1de66e83f0736452ce2b","null","null","<p style=""font-size: 60px; font-family: BACS"">kMbTRMCkm</p>","","","","","","","","",""
"html-keyboard-response","105","155527","0.0-10.0-0.16","64a288758b7c82ff2d18da75","650c16f0f2faf8d7a0d14c09","651c1de66e83f0736452ce2b","null","null","<p style=""font-size: 60px; font-family: BACS"">OMlTbAMO</p>","","","","","","","","",""
"html-keyboard-response","106","157524","0.0-10.0-0.17","64a288758b7c82ff2d18da75","650c16f0f2faf8d7a0d14c09","651c1de66e83f0736452ce2b","null","null","<p style=""font-size: 60px; font-family: BACS"">TklDABb</p>","","","","","","","","",""
"html-keyboard-response","107","158525","0.0-10.0-0.18","64a288758b7c82ff2d18da75","650c16f0f2faf8d7a0d14c09","651c1de66e83f0736452ce2b","null","null","<p style=""font-size: 60px; font-family: BACS"">amJmravu</p>","","","","","","","","",""
"html-keyboard-response","108","160574","0.0-10.0-0.19","64a288758b7c82ff2d18da75","650c16f0f2faf8d7a0d14c09","651c1de66e83f0736452ce2b","null","null","<p style=""font-size: 60px; font-family: BACS"">bYGOZvAvb</p>","","","","","","","","",""
"html-keyboard-response","109","161607","0.0-10.0-0.20","64a288758b7c82ff2d18da75","650c16f0f2faf8d7a0d14c09","651c1de66e83f0736452ce2b","null","null","<p style=""font-size: 60px; font-family: BACS"">JuamlrAm</p>","","","","","","","","",""
"html-keyboard-response","110","162622","0.0-10.0-0.21","64a288758b7c82ff2d18da75","650c16f0f2faf8d7a0d14c09","651c1de66e83f0736452ce2b","null","null","<p style=""font-size: 60px; font-family: BACS"">CchtdABb</p>","","","","","","","","",""
"html-keyboard-response","111","163625","0.0-10.0-0.22","64a288758b7c82ff2d18da75","650c16f0f2faf8d7a0d14c09","651c1de66e83f0736452ce2b","null","null","<p style=""font-size: 60px; font-family: BACS"">TObCOhBK</p>","","","","","","","","",""
"html-keyboard-response","112","164629","0.0-10.0-0.23","64a288758b7c82ff2d18da75","650c16f0f2faf8d7a0d14c09","651c1de66e83f0736452ce2b","null","null","<p style=""font-size: 60px; font-family: BACS"">OMlTABb</p>","","","","","","","","",""
"html-keyboard-response","113","165636","0.0-10.0-0.24","64a288758b7c82ff2d18da75","650c16f0f2faf8d7a0d14c09","651c1de66e83f0736452ce2b","null","null","<p style=""font-size: 60px; font-family: BACS"">MTdYMCkm</p>","","","","","","","","",""
"html-keyboard-response","114","166645","0.0-10.0-0.25","64a288758b7c82ff2d18da75","650c16f0f2faf8d7a0d14c09","651c1de66e83f0736452ce2b","null","null","<p style=""font-size: 60px; font-family: BACS"">bYGOZrAm</p>","","","","","","","","",""
"html-keyboard-response","115","167655","0.0-10.0-0.26","64a288758b7c82ff2d18da75","650c16f0f2faf8d7a0d14c09","651c1de66e83f0736452ce2b","null","null","<p style=""font-size: 60px; font-family: BACS"">uQuZcrba</p>","","","","","","","","",""
"html-keyboard-response","116","168672","0.0-10.0-0.27","64a288758b7c82ff2d18da75","650c16f0f2faf8d7a0d14c09","651c1de66e83f0736452ce2b","null","null","<p style=""font-size: 60px; font-family: BACS"">kMbTRABb</p>","","","","","","","","",""
"html-keyboard-response","117","170527","0.0-10.0-0.28","64a288758b7c82ff2d18da75","650c16f0f2faf8d7a0d14c09","651c1de66e83f0736452ce2b","null","null","<p style=""font-size: 60px; font-family: BACS"">MTdYbAMO</p>","","","","","","","","",""
"html-keyboard-response","118","171579","0.0-10.0-0.29","64a288758b7c82ff2d18da75","650c16f0f2faf8d7a0d14c09","651c1de66e83f0736452ce2b","null","null","<p style=""font-size: 60px; font-family: BACS"">amJmvAvb</p>","","","","","","","","",""
"html-keyboard-response","119","173513","0.0-10.0-0.30","64a288758b7c82ff2d18da75","650c16f0f2faf8d7a0d14c09","651c1de66e83f0736452ce2b","null","null","<p style=""font-size: 60px; font-family: BACS"">dkLlrAm</p>","","","","","","","","",""
"html-keyboard-response","120","174518","0.0-10.0-0.31","64a288758b7c82ff2d18da75","650c16f0f2faf8d7a0d14c09","651c1de66e83f0736452ce2b","null","null","<p style=""font-size: 60px; font-family: BACS"">OMlTMCkm</p>","","","","","","","","",""
"html-keyboard-response","121","175520","0.0-10.0-0.32","64a288758b7c82ff2d18da75","650c16f0f2faf8d7a0d14c09","651c1de66e83f0736452ce2b","null","null","<p style=""font-size: 60px; font-family: BACS"">amJmrba</p>","","","","","","","","",""
"html-keyboard-response","122","176535","0.0-10.0-0.33","64a288758b7c82ff2d18da75","650c16f0f2faf8d7a0d14c09","651c1de66e83f0736452ce2b","null","null","<p style=""font-size: 60px; font-family: BACS"">TklDAPT</p>","","","","","","","","",""
"html-keyboard-response","123","180879","0.0-10.0-0.34","64a288758b7c82ff2d18da75","650c16f0f2faf8d7a0d14c09","651c1de66e83f0736452ce2b","null","null","<p style=""font-size: 60px; font-family: BACS"">MDKPABb</p>","","","","","","","","",""
"html-keyboard-response","124","182526","0.0-10.0-0.35","64a288758b7c82ff2d18da75","650c16f0f2faf8d7a0d14c09","651c1de66e83f0736452ce2b","null","null","<p style=""font-size: 60px; font-family: BACS"">dkLlrba</p>","","","","","","","","",""
"html-keyboard-response","125","183528","0.0-10.0-0.36","64a288758b7c82ff2d18da75","650c16f0f2faf8d7a0d14c09","651c1de66e83f0736452ce2b","null","null","<p style=""font-size: 60px; font-family: BACS"">uQuZcJZr</p>","","","","","","","","",""
"html-keyboard-response","126","184541","0.0-10.0-0.37","64a288758b7c82ff2d18da75","650c16f0f2faf8d7a0d14c09","651c1de66e83f0736452ce2b","null","null","<p style=""font-size: 60px; font-family: BACS"">MDKPAPT</p>","","","","","","","","",""
"html-keyboard-response","127","186520","0.0-10.0-0.38","64a288758b7c82ff2d18da75","650c16f0f2faf8d7a0d14c09","651c1de66e83f0736452ce2b","null","null","<p style=""font-size: 60px; font-family: BACS"">JmNkrAm</p>","","","","","","","","",""
"html-keyboard-response","128","187523","0.0-10.0-0.39","64a288758b7c82ff2d18da75","650c16f0f2faf8d7a0d14c09","651c1de66e83f0736452ce2b","null","null","<p style=""font-size: 60px; font-family: BACS"">MDKPhBK</p>","","","","","","","","",""
"html-keyboard-response","129","188529","0.0-10.0-0.40","64a288758b7c82ff2d18da75","650c16f0f2faf8d7a0d14c09","651c1de66e83f0736452ce2b","null","null","<p style=""font-size: 60px; font-family: BACS"">kNuavAvb</p>","","","","","","","","",""
"html-keyboard-response","130","189533","0.0-10.0-0.41","64a288758b7c82ff2d18da75","650c16f0f2faf8d7a0d14c09","651c1de66e83f0736452ce2b","null","null","<p style=""font-size: 60px; font-family: BACS"">uQuZcravu</p>","","","","","","","","",""
"html-keyboard-response","131","190538","0.0-10.0-0.42","64a288758b7c82ff2d18da75","650c16f0f2faf8d7a0d14c09","651c1de66e83f0736452ce2b","null","null","<p style=""font-size: 60px; font-family: BACS"">kNuarba</p>","","","","","","","","",""
"html-keyboard-response","132","191541","0.0-10.0-0.43","64a288758b7c82ff2d18da75","650c16f0f2faf8d7a0d14c09","651c1de66e83f0736452ce2b","null","null","<p style=""font-size: 60px; font-family: BACS"">CchtdMCkm</p>","","","","","","","","",""
"html-keyboard-response","133","193513","0.0-10.0-0.44","64a288758b7c82ff2d18da75","650c16f0f2faf8d7a0d14c09","651c1de66e83f0736452ce2b","null","null","<p style=""font-size: 60px; font-family: BACS"">UaYLrAm</p>","","","","","","","","",""
"html-keyboard-response","134","194517","0.0-10.0-0.45","64a288758b7c82ff2d18da75","650c16f0f2faf8d7a0d14c09","651c1de66e83f0736452ce2b","null","null","<p style=""font-size: 60px; font-family: BACS"">CYPcMCkm</p>","","","","","","","","",""
"html-keyboard-response","135","195524","0.0-10.0-0.46","64a288758b7c82ff2d18da75","650c16f0f2faf8d7a0d14c09","651c1de66e83f0736452ce2b","null","null","<p style=""font-size: 60px; font-family: BACS"">bYGOZravu</p>","","","","","","","","",""
"html-keyboard-response","136","196540","0.0-10.0-0.47","64a288758b7c82ff2d18da75","650c16f0f2faf8d7a0d14c09","651c1de66e83f0736452ce2b","null","null","<p style=""font-size: 60px; font-family: BACS"">aLNlkrAm</p>","","","","","","","","",""
"html-keyboard-response","137","197542","0.0-10.0-0.48","64a288758b7c82ff2d18da75","650c16f0f2faf8d7a0d14c09","651c1de66e83f0736452ce2b","null","null","<p style=""font-size: 60px; font-family: BACS"">kMbTRhBK</p>","","","","","","","","",""
"html-keyboard-response","138","198546","0.0-10.0-0.49","64a288758b7c82ff2d18da75","650c16f0f2faf8d7a0d14c09","651c1de66e83f0736452ce2b","null","null","<p style=""font-size: 60px; font-family: BACS"">CchtdbAMO</p>","","","","","","","","",""
"html-keyboard-response","139","200524","0.0-10.0-0.50","64a288758b7c82ff2d18da75","650c16f0f2faf8d7a0d14c09","651c1de66e83f0736452ce2b","null","null","<p style=""font-size: 60px; font-family: BACS"">kNuaJZr</p>","","","","","","","","",""
"html-keyboard-response","140","202517","0.0-10.0-0.51","64a288758b7c82ff2d18da75","650c16f0f2faf8d7a0d14c09","651c1de66e83f0736452ce2b","null","null","<p style=""font-size: 60px; font-family: BACS"">OCmkhBK</p>","","","","","","","","",""
"html-keyboard-response","141","203527","0.0-10.0-0.52","64a288758b7c82ff2d18da75","650c16f0f2faf8d7a0d14c09","651c1de66e83f0736452ce2b","null","null","<p style=""font-size: 60px; font-family: BACS"">dkLlvAvb</p>","","","","","","","","",""
"html-keyboard-response","142","205526","0.0-10.0-0.53","64a288758b7c82ff2d18da75","650c16f0f2faf8d7a0d14c09","651c1de66e83f0736452ce2b","null","null","<p style=""font-size: 60px; font-family: BACS"">CYPchBK</p>","","","","","","","","",""
"html-keyboard-response","143","207517","0.0-10.0-0.54","64a288758b7c82ff2d18da75","650c16f0f2faf8d7a0d14c09","651c1de66e83f0736452ce2b","null","null","<p style=""font-size: 60px; font-family: BACS"">MTdYABb</p>","","","","","","","","",""
"html-keyboard-response","144","209523","0.0-10.0-0.55","64a288758b7c82ff2d18da75","650c16f0f2faf8d7a0d14c09","651c1de66e83f0736452ce2b","null","null","<p style=""font-size: 60px; font-family: BACS"">UaYLravu</p>","","","","","","","","",""
"html-keyboard-response","145","210527","0.0-10.0-0.56","64a288758b7c82ff2d18da75","650c16f0f2faf8d7a0d14c09","651c1de66e83f0736452ce2b","null","null","<p style=""font-size: 60px; font-family: BACS"">bmbNJZr</p>","","","","","","","","",""
"html-keyboard-response","146","212521","0.0-10.0-0.57","64a288758b7c82ff2d18da75","650c16f0f2faf8d7a0d14c09","651c1de66e83f0736452ce2b","null","null","<p style=""font-size: 60px; font-family: BACS"">MTdYhBK</p>","","","","","","","","",""
"html-keyboard-response","147","214523","0.0-10.0-0.58","64a288758b7c82ff2d18da75","650c16f0f2faf8d7a0d14c09","651c1de66e83f0736452ce2b","null","null","<p style=""font-size: 60px; font-family: BACS"">OCmkMCkm</p>","","","","","","","","",""
"html-keyboard-response","148","215525","0.0-10.0-0.59","64a288758b7c82ff2d18da75","650c16f0f2faf8d7a0d14c09","651c1de66e83f0736452ce2b","null","null","<p style=""font-size: 60px; font-family: BACS"">CchtdAPT</p>","","","","","","","","",""
"html-keyboard-response","149","217525","0.0-10.0-0.60","64a288758b7c82ff2d18da75","650c16f0f2faf8d7a0d14c09","651c1de66e83f0736452ce2b","null","null","<p style=""font-size: 60px; font-family: BACS"">cROMtMCkm</p>","","","","","","","","",""
"html-keyboard-response","150","219517","0.0-10.0-0.61","64a288758b7c82ff2d18da75","650c16f0f2faf8d7a0d14c09","651c1de66e83f0736452ce2b","null","null","<p style=""font-size: 60px; font-family: BACS"">bmbNrba</p>","","","","","","","","",""
"html-keyboard-response","151","220523","0.0-10.0-0.62","64a288758b7c82ff2d18da75","650c16f0f2faf8d7a0d14c09","651c1de66e83f0736452ce2b","null","null","<p style=""font-size: 60px; font-family: BACS"">uQuZcrAm</p>","","","","","","","","",""
"html-keyboard-response","152","222515","0.0-10.0-0.63","64a288758b7c82ff2d18da75","650c16f0f2faf8d7a0d14c09","651c1de66e83f0736452ce2b","null","null","<p style=""font-size: 60px; font-family: BACS"">kNuaravu</p>","","","","","","","","",""
"html-keyboard-response","153","223520","0.0-10.0-0.64","64a288758b7c82ff2d18da75","650c16f0f2faf8d7a0d14c09","651c1de66e83f0736452ce2b","null","null","<p style=""font-size: 60px; font-family: BACS"">CYPcbAMO</p>","","","","","","","","",""
"html-keyboard-response","154","224527","0.0-10.0-0.65","64a288758b7c82ff2d18da75","650c16f0f2faf8d7a0d14c09","651c1de66e83f0736452ce2b","null","null","<p style=""font-size: 60px; font-family: BACS"">Juamlrba</p>","","","","","","","","",""
"html-keyboard-response","155","225534","0.0-10.0-0.66","64a288758b7c82ff2d18da75","650c16f0f2faf8d7a0d14c09","651c1de66e83f0736452ce2b","null","null","<p style=""font-size: 60px; font-family: BACS"">OCmkAPT</p>","","","","","","","","",""
"html-keyboard-response","156","226548","0.0-10.0-0.67","64a288758b7c82ff2d18da75","650c16f0f2faf8d7a0d14c09","651c1de66e83f0736452ce2b","null","null","<p style=""font-size: 60px; font-family: BACS"">JmNkJZr</p>","","","","","","","","",""
"html-keyboard-response","157","227559","0.0-10.0-0.68","64a288758b7c82ff2d18da75","650c16f0f2faf8d7a0d14c09","651c1de66e83f0736452ce2b","null","null","<p style=""font-size: 60px; font-family: BACS"">cROMtAPT</p>","","","","","","","","",""
"html-keyboard-response","158","229517","0.0-10.0-0.69","64a288758b7c82ff2d18da75","650c16f0f2faf8d7a0d14c09","651c1de66e83f0736452ce2b","null","null","<p style=""font-size: 60px; font-family: BACS"">bYGOZrba</p>","","","","","","","","",""
"html-keyboard-response","159","230520","0.0-10.0-0.70","64a288758b7c82ff2d18da75","650c16f0f2faf8d7a0d14c09","651c1de66e83f0736452ce2b","null","null","<p style=""font-size: 60px; font-family: BACS"">TObCOMCkm</p>","","","","","","","","",""
"html-keyboard-response","160","231527","0.0-10.0-0.71","64a288758b7c82ff2d18da75","650c16f0f2faf8d7a0d14c09","651c1de66e83f0736452ce2b","null","null","<p style=""font-size: 60px; font-family: BACS"">amJmrAm</p>","","","","","","","","",""
"html-keyboard-response","161","233518","0.0-10.0-0.72","64a288758b7c82ff2d18da75","650c16f0f2faf8d7a0d14c09","651c1de66e83f0736452ce2b","null","null","<p style=""font-size: 60px; font-family: BACS"">JuamlvAvb</p>","","","","","","","","",""
"html-keyboard-response","162","235521","0.0-10.0-0.73","64a288758b7c82ff2d18da75","650c16f0f2faf8d7a0d14c09","651c1de66e83f0736452ce2b","null","null","<p style=""font-size: 60px; font-family: BACS"">OCmkbAMO</p>","","","","","","","","",""
"html-keyboard-response","163","237533","0.0-10.0-0.74","64a288758b7c82ff2d18da75","650c16f0f2faf8d7a0d14c09","651c1de66e83f0736452ce2b","null","null","<p style=""font-size: 60px; font-family: BACS"">JmNkravu</p>","","","","","","","","",""
"html-keyboard-response","164","239531","0.0-10.0-0.75","64a288758b7c82ff2d18da75","650c16f0f2faf8d7a0d14c09","651c1de66e83f0736452ce2b","null","null","<p style=""font-size: 60px; font-family: BACS"">aLNlkvAvb</p>","","","","","","","","",""
"html-keyboard-response","165","240537","0.0-10.0-0.76","64a288758b7c82ff2d18da75","650c16f0f2faf8d7a0d14c09","651c1de66e83f0736452ce2b","null","null","<p style=""font-size: 60px; font-family: BACS"">MDKPbAMO</p>","","","","","","","","",""
"html-keyboard-response","166","242529","0.0-10.0-0.77","64a288758b7c82ff2d18da75","650c16f0f2faf8d7a0d14c09","651c1de66e83f0736452ce2b","null","null","<p style=""font-size: 60px; font-family: BACS"">UaYLJZr</p>","","","","","","","","",""
"html-keyboard-response","167","244525","0.0-10.0-0.78","64a288758b7c82ff2d18da75","650c16f0f2faf8d7a0d14c09","651c1de66e83f0736452ce2b","null","null","<p style=""font-size: 60px; font-family: BACS"">TklDhBK</p>","","","","","","","","",""
"html-keyboard-response","168","245531","0.0-10.0-0.79","64a288758b7c82ff2d18da75","650c16f0f2faf8d7a0d14c09","651c1de66e83f0736452ce2b","null","null","<p style=""font-size: 60px; font-family: BACS"">bmbNravu</p>","","","","","","","","",""
"html-keyboard-response","169","249792","0.0-11.0","64a288758b7c82ff2d18da75","650c16f0f2faf8d7a0d14c09","651c1de66e83f0736452ce2b","4255"," ","<p>Great, you've seen the second block of words. You may now take a short break.</p>
      <p>Press the spacebar when you're ready to continue.</p>","","","","","","","","",""
"html-keyboard-response","170","250798","0.0-12.0-0.0","64a288758b7c82ff2d18da75","650c16f0f2faf8d7a0d14c09","651c1de66e83f0736452ce2b","null","null","<p style=""font-size: 60px; font-family: BACS"">MDKPABb</p>","","","","","","","","",""
"html-keyboard-response","171","251805","0.0-12.0-0.1","64a288758b7c82ff2d18da75","650c16f0f2faf8d7a0d14c09","651c1de66e83f0736452ce2b","null","null","<p style=""font-size: 60px; font-family: BACS"">uQuZcravu</p>","","","","","","","","",""
"html-keyboard-response","172","252817","0.0-12.0-0.2","64a288758b7c82ff2d18da75","650c16f0f2faf8d7a0d14c09","651c1de66e83f0736452ce2b","null","null","<p style=""font-size: 60px; font-family: BACS"">kNuarba</p>","","","","","","","","",""
"html-keyboard-response","173","253832","0.0-12.0-0.3","64a288758b7c82ff2d18da75","650c16f0f2faf8d7a0d14c09","651c1de66e83f0736452ce2b","null","null","<p style=""font-size: 60px; font-family: BACS"">dkLlrAm</p>","","","","","","","","",""
"html-keyboard-response","174","254836","0.0-12.0-0.4","64a288758b7c82ff2d18da75","650c16f0f2faf8d7a0d14c09","651c1de66e83f0736452ce2b","null","null","<p style=""font-size: 60px; font-family: BACS"">OCmkbAMO</p>","","","","","","","","",""
"html-keyboard-response","175","255848","0.0-12.0-0.5","64a288758b7c82ff2d18da75","650c16f0f2faf8d7a0d14c09","651c1de66e83f0736452ce2b","null","null","<p style=""font-size: 60px; font-family: BACS"">aLNlkravu</p>","","","","","","","","",""
"html-keyboard-response","176","256857","0.0-12.0-0.6","64a288758b7c82ff2d18da75","650c16f0f2faf8d7a0d14c09","651c1de66e83f0736452ce2b","null","null","<p style=""font-size: 60px; font-family: BACS"">TklDhBK</p>","","","","","","","","",""
"html-keyboard-response","177","257866","0.0-12.0-0.7","64a288758b7c82ff2d18da75","650c16f0f2faf8d7a0d14c09","651c1de66e83f0736452ce2b","null","null","<p style=""font-size: 60px; font-family: BACS"">CYPcAPT</p>","","","","","","","","",""
"html-keyboard-response","178","258868","0.0-12.0-0.8","64a288758b7c82ff2d18da75","650c16f0f2faf8d7a0d14c09","651c1de66e83f0736452ce2b","null","null","<p style=""font-size: 60px; font-family: BACS"">UaYLravu</p>","","","","","","","","",""
"html-keyboard-response","179","259870","0.0-12.0-0.9","64a288758b7c82ff2d18da75","650c16f0f2faf8d7a0d14c09","651c1de66e83f0736452ce2b","null","null","<p style=""font-size: 60px; font-family: BACS"">OCmkAPT</p>","","","","","","","","",""
"html-keyboard-response","180","260880","0.0-12.0-0.10","64a288758b7c82ff2d18da75","650c16f0f2faf8d7a0d14c09","651c1de66e83f0736452ce2b","null","null","<p style=""font-size: 60px; font-family: BACS"">MTdYABb</p>","","","","","","","","",""
"html-keyboard-response","181","261882","0.0-12.0-0.11","64a288758b7c82ff2d18da75","650c16f0f2faf8d7a0d14c09","651c1de66e83f0736452ce2b","null","null","<p style=""font-size: 60px; font-family: BACS"">CchtdMCkm</p>","","","","","","","","",""
"html-keyboard-response","182","262886","0.0-12.0-0.12","64a288758b7c82ff2d18da75","650c16f0f2faf8d7a0d14c09","651c1de66e83f0736452ce2b","null","null","<p style=""font-size: 60px; font-family: BACS"">CYPchBK</p>","","","","","","","","",""
"html-keyboard-response","183","263895","0.0-12.0-0.13","64a288758b7c82ff2d18da75","650c16f0f2faf8d7a0d14c09","651c1de66e83f0736452ce2b","null","null","<p style=""font-size: 60px; font-family: BACS"">MTdYMCkm</p>","","","","","","","","",""
"html-keyboard-response","184","264910","0.0-12.0-0.14","64a288758b7c82ff2d18da75","650c16f0f2faf8d7a0d14c09","651c1de66e83f0736452ce2b","null","null","<p style=""font-size: 60px; font-family: BACS"">cROMthBK</p>","","","","","","","","",""
"html-keyboard-response","185","265912","0.0-12.0-0.15","64a288758b7c82ff2d18da75","650c16f0f2faf8d7a0d14c09","651c1de66e83f0736452ce2b","null","null","<p style=""font-size: 60px; font-family: BACS"">TklDABb</p>","","","","","","","","",""
"html-keyboard-response","186","266927","0.0-12.0-0.16","64a288758b7c82ff2d18da75","650c16f0f2faf8d7a0d14c09","651c1de66e83f0736452ce2b","null","null","<p style=""font-size: 60px; font-family: BACS"">dkLlJZr</p>","","","","","","","","",""
"html-keyboard-response","187","267934","0.0-12.0-0.17","64a288758b7c82ff2d18da75","650c16f0f2faf8d7a0d14c09","651c1de66e83f0736452ce2b","null","null","<p style=""font-size: 60px; font-family: BACS"">OCmkhBK</p>","","","","","","","","",""
"html-keyboard-response","188","268937","0.0-12.0-0.18","64a288758b7c82ff2d18da75","650c16f0f2faf8d7a0d14c09","651c1de66e83f0736452ce2b","null","null","<p style=""font-size: 60px; font-family: BACS"">UaYLJZr</p>","","","","","","","","",""
"html-keyboard-response","189","269954","0.0-12.0-0.19","64a288758b7c82ff2d18da75","650c16f0f2faf8d7a0d14c09","651c1de66e83f0736452ce2b","null","null","<p style=""font-size: 60px; font-family: BACS"">amJmravu</p>","","","","","","","","",""
"html-keyboard-response","190","270965","0.0-12.0-0.20","64a288758b7c82ff2d18da75","650c16f0f2faf8d7a0d14c09","651c1de66e83f0736452ce2b","null","null","<p style=""font-size: 60px; font-family: BACS"">OMlTABb</p>","","","","","","","","",""
"html-keyboard-response","191","271974","0.0-12.0-0.21","64a288758b7c82ff2d18da75","650c16f0f2faf8d7a0d14c09","651c1de66e83f0736452ce2b","null","null","<p style=""font-size: 60px; font-family: BACS"">amJmvAvb</p>","","","","","","","","",""
"html-keyboard-response","192","272979","0.0-12.0-0.22","64a288758b7c82ff2d18da75","650c16f0f2faf8d7a0d14c09","651c1de66e83f0736452ce2b","null","null","<p style=""font-size: 60px; font-family: BACS"">MTdYhBK</p>","","","","","","","","",""
"html-keyboard-response","193","273986","0.0-12.0-0.23","64a288758b7c82ff2d18da75","650c16f0f2faf8d7a0d14c09","651c1de66e83f0736452ce2b","null","null","<p style=""font-size: 60px; font-family: BACS"">bYGOZrba</p>","","","","","","","","",""
"html-keyboard-response","194","274991","0.0-12.0-0.24","64a288758b7c82ff2d18da75","650c16f0f2faf8d7a0d14c09","651c1de66e83f0736452ce2b","null","null","<p style=""font-size: 60px; font-family: BACS"">kMbTRABb</p>","","","","","","","","",""
"html-keyboard-response","195","276003","0.0-12.0-0.25","64a288758b7c82ff2d18da75","650c16f0f2faf8d7a0d14c09","651c1de66e83f0736452ce2b","null","null","<p style=""font-size: 60px; font-family: BACS"">bYGOZrAm</p>","","","","","","","","",""
"html-keyboard-response","196","277017","0.0-12.0-0.26","64a288758b7c82ff2d18da75","650c16f0f2faf8d7a0d14c09","651c1de66e83f0736452ce2b","null","null","<p style=""font-size: 60px; font-family: BACS"">kMbTRAPT</p>","","","","","","","","",""
"html-keyboard-response","197","278029","0.0-12.0-0.27","64a288758b7c82ff2d18da75","650c16f0f2faf8d7a0d14c09","651c1de66e83f0736452ce2b","null","null","<p style=""font-size: 60px; font-family: BACS"">cROMtMCkm</p>","","","","","","","","",""
"html-keyboard-response","198","279038","0.0-12.0-0.28","64a288758b7c82ff2d18da75","650c16f0f2faf8d7a0d14c09","651c1de66e83f0736452ce2b","null","null","<p style=""font-size: 60px; font-family: BACS"">bmbNJZr</p>","","","","","","","","",""
"html-keyboard-response","199","280046","0.0-12.0-0.29","64a288758b7c82ff2d18da75","650c16f0f2faf8d7a0d14c09","651c1de66e83f0736452ce2b","null","null","<p style=""font-size: 60px; font-family: BACS"">UaYLvAvb</p>","","","","","","","","",""
"html-keyboard-response","200","281055","0.0-12.0-0.30","64a288758b7c82ff2d18da75","650c16f0f2faf8d7a0d14c09","651c1de66e83f0736452ce2b","null","null","<p style=""font-size: 60px; font-family: BACS"">JmNkrAm</p>","","","","","","","","",""
"html-keyboard-response","201","282062","0.0-12.0-0.31","64a288758b7c82ff2d18da75","650c16f0f2faf8d7a0d14c09","651c1de66e83f0736452ce2b","null","null","<p style=""font-size: 60px; font-family: BACS"">TObCOABb</p>","","","","","","","","",""
"html-keyboard-response","202","283067","0.0-12.0-0.32","64a288758b7c82ff2d18da75","650c16f0f2faf8d7a0d14c09","651c1de66e83f0736452ce2b","null","null","<p style=""font-size: 60px; font-family: BACS"">TklDbAMO</p>","","","","","","","","",""
"html-keyboard-response","203","284079","0.0-12.0-0.33","64a288758b7c82ff2d18da75","650c16f0f2faf8d7a0d14c09","651c1de66e83f0736452ce2b","null","null","<p style=""font-size: 60px; font-family: BACS"">amJmrAm</p>","","","","","","","","",""
"html-keyboard-response","204","285089","0.0-12.0-0.34","64a288758b7c82ff2d18da75","650c16f0f2faf8d7a0d14c09","651c1de66e83f0736452ce2b","null","null","<p style=""font-size: 60px; font-family: BACS"">CYPcMCkm</p>","","","","","","","","",""
"html-keyboard-response","205","286100","0.0-12.0-0.35","64a288758b7c82ff2d18da75","650c16f0f2faf8d7a0d14c09","651c1de66e83f0736452ce2b","null","null","<p style=""font-size: 60px; font-family: BACS"">kNuaravu</p>","","","","","","","","",""
"html-keyboard-response","206","287102","0.0-12.0-0.36","64a288758b7c82ff2d18da75","650c16f0f2faf8d7a0d14c09","651c1de66e83f0736452ce2b","null","null","<p style=""font-size: 60px; font-family: BACS"">amJmrba</p>","","","","","","","","",""
"html-keyboard-response","207","288111","0.0-12.0-0.37","64a288758b7c82ff2d18da75","650c16f0f2faf8d7a0d14c09","651c1de66e83f0736452ce2b","null","null","<p style=""font-size: 60px; font-family: BACS"">MDKPbAMO</p>","","","","","","","","",""
"html-keyboard-response","208","289120","0.0-12.0-0.38","64a288758b7c82ff2d18da75","650c16f0f2faf8d7a0d14c09","651c1de66e83f0736452ce2b","null","null","<p style=""font-size: 60px; font-family: BACS"">Juamlrba</p>","","","","","","","","",""
"html-keyboard-response","209","290129","0.0-12.0-0.39","64a288758b7c82ff2d18da75","650c16f0f2faf8d7a0d14c09","651c1de66e83f0736452ce2b","null","null","<p style=""font-size: 60px; font-family: BACS"">OMlTbAMO</p>","","","","","","","","",""
"html-keyboard-response","210","291144","0.0-12.0-0.40","64a288758b7c82ff2d18da75","650c16f0f2faf8d7a0d14c09","651c1de66e83f0736452ce2b","null","null","<p style=""font-size: 60px; font-family: BACS"">cROMtAPT</p>","","","","","","","","",""
"html-keyboard-response","211","292156","0.0-12.0-0.41","64a288758b7c82ff2d18da75","650c16f0f2faf8d7a0d14c09","651c1de66e83f0736452ce2b","null","null","<p style=""font-size: 60px; font-family: BACS"">bmbNvAvb</p>","","","","","","","","",""
"html-keyboard-response","212","293170","0.0-12.0-0.42","64a288758b7c82ff2d18da75","650c16f0f2faf8d7a0d14c09","651c1de66e83f0736452ce2b","null","null","<p style=""font-size: 60px; font-family: BACS"">JmNkrba</p>","","","","","","","","",""
"html-keyboard-response","213","294182","0.0-12.0-0.43","64a288758b7c82ff2d18da75","650c16f0f2faf8d7a0d14c09","651c1de66e83f0736452ce2b","null","null","<p style=""font-size: 60px; font-family: BACS"">OMlTAPT</p>","","","","","","","","",""
"html-keyboard-response","214","295187","0.0-12.0-0.44","64a288758b7c82ff2d18da75","650c16f0f2faf8d7a0d14c09","651c1de66e83f0736452ce2b","null","null","<p style=""font-size: 60px; font-family: BACS"">cROMtABb</p>","","","","","","","","",""
"html-keyboard-response","215","296190","0.0-12.0-0.45","64a288758b7c82ff2d18da75","650c16f0f2faf8d7a0d14c09","651c1de66e83f0736452ce2b","null","null","<p style=""font-size: 60px; font-family: BACS"">OCmkMCkm</p>","","","","","","","","",""
"html-keyboard-response","216","297200","0.0-12.0-0.46","64a288758b7c82ff2d18da75","650c16f0f2faf8d7a0d14c09","651c1de66e83f0736452ce2b","null","null","<p style=""font-size: 60px; font-family: BACS"">TklDAPT</p>","","","","","","","","",""
"html-keyboard-response","217","298214","0.0-12.0-0.47","64a288758b7c82ff2d18da75","650c16f0f2faf8d7a0d14c09","651c1de66e83f0736452ce2b","null","null","<p style=""font-size: 60px; font-family: BACS"">UaYLrAm</p>","","","","","","","","",""
"html-keyboard-response","218","299217","0.0-12.0-0.48","64a288758b7c82ff2d18da75","650c16f0f2faf8d7a0d14c09","651c1de66e83f0736452ce2b","null","null","<p style=""font-size: 60px; font-family: BACS"">aLNlkvAvb</p>","","","","","","","","",""
"html-keyboard-response","219","300222","0.0-12.0-0.49","64a288758b7c82ff2d18da75","650c16f0f2faf8d7a0d14c09","651c1de66e83f0736452ce2b","null","null","<p style=""font-size: 60px; font-family: BACS"">bmbNrba</p>","","","","","","","","",""
"html-keyboard-response","220","301228","0.0-12.0-0.50","64a288758b7c82ff2d18da75","650c16f0f2faf8d7a0d14c09","651c1de66e83f0736452ce2b","null","null","<p style=""font-size: 60px; font-family: BACS"">kMbTRMCkm</p>","","","","","","","","",""
"html-keyboard-response","221","302231","0.0-12.0-0.51","64a288758b7c82ff2d18da75","650c16f0f2faf8d7a0d14c09","651c1de66e83f0736452ce2b","null","null","<p style=""font-size: 60px; font-family: BACS"">CchtdbAMO</p>","","","","","","","","",""
"html-keyboard-response","222","303243","0.0-12.0-0.52","64a288758b7c82ff2d18da75","650c16f0f2faf8d7a0d14c09","651c1de66e83f0736452ce2b","null","null","<p style=""font-size: 60px; font-family: BACS"">uQuZcrba</p>","","","","","","","","",""
"html-keyboard-response","223","304252","0.0-12.0-0.53","64a288758b7c82ff2d18da75","650c16f0f2faf8d7a0d14c09","651c1de66e83f0736452ce2b","null","null","<p style=""font-size: 60px; font-family: BACS"">OMlTMCkm</p>","","","","","","","","",""
"html-keyboard-response","224","305257","0.0-12.0-0.54","64a288758b7c82ff2d18da75","650c16f0f2faf8d7a0d14c09","651c1de66e83f0736452ce2b","null","null","<p style=""font-size: 60px; font-family: BACS"">JuamlJZr</p>","","","","","","","","",""
"html-keyboard-response","225","306266","0.0-12.0-0.55","64a288758b7c82ff2d18da75","650c16f0f2faf8d7a0d14c09","651c1de66e83f0736452ce2b","null","null","<p style=""font-size: 60px; font-family: BACS"">kNuavAvb</p>","","","","","","","","",""
"html-keyboard-response","226","307281","0.0-12.0-0.56","64a288758b7c82ff2d18da75","650c16f0f2faf8d7a0d14c09","651c1de66e83f0736452ce2b","null","null","<p style=""font-size: 60px; font-family: BACS"">uQuZcrAm</p>","","","","","","","","",""
"html-keyboard-response","227","308284","0.0-12.0-0.57","64a288758b7c82ff2d18da75","650c16f0f2faf8d7a0d14c09","651c1de66e83f0736452ce2b","null","null","<p style=""font-size: 60px; font-family: BACS"">TObCOhBK</p>","","","","","","","","",""
"html-keyboard-response","228","309293","0.0-12.0-0.58","64a288758b7c82ff2d18da75","650c16f0f2faf8d7a0d14c09","651c1de66e83f0736452ce2b","null","null","<p style=""font-size: 60px; font-family: BACS"">JuamlvAvb</p>","","","","","","","","",""
"html-keyboard-response","229","310299","0.0-12.0-0.59","64a288758b7c82ff2d18da75","650c16f0f2faf8d7a0d14c09","651c1de66e83f0736452ce2b","null","null","<p style=""font-size: 60px; font-family: BACS"">JmNkravu</p>","","","","","","","","",""
"html-keyboard-response","230","311301","0.0-12.0-0.60","64a288758b7c82ff2d18da75","650c16f0f2faf8d7a0d14c09","651c1de66e83f0736452ce2b","null","null","<p style=""font-size: 60px; font-family: BACS"">dkLlvAvb</p>","","","","","","","","",""
"html-keyboard-response","231","312314","0.0-12.0-0.61","64a288758b7c82ff2d18da75","650c16f0f2faf8d7a0d14c09","651c1de66e83f0736452ce2b","null","null","<p style=""font-size: 60px; font-family: BACS"">MDKPAPT</p>","","","","","","","","",""
"html-keyboard-response","232","313323","0.0-12.0-0.62","64a288758b7c82ff2d18da75","650c16f0f2faf8d7a0d14c09","651c1de66e83f0736452ce2b","null","null","<p style=""font-size: 60px; font-family: BACS"">aLNlkJZr</p>","","","","","","","","",""
"html-keyboard-response","233","314329","0.0-12.0-0.63","64a288758b7c82ff2d18da75","650c16f0f2faf8d7a0d14c09","651c1de66e83f0736452ce2b","null","null","<p style=""font-size: 60px; font-family: BACS"">TObCOMCkm</p>","","","","","","","","",""
"html-keyboard-response","234","315339","0.0-12.0-0.64","64a288758b7c82ff2d18da75","650c16f0f2faf8d7a0d14c09","651c1de66e83f0736452ce2b","null","null","<p style=""font-size: 60px; font-family: BACS"">MDKPhBK</p>","","","","","","","","",""
"html-keyboard-response","235","316342","0.0-12.0-0.65","64a288758b7c82ff2d18da75","650c16f0f2faf8d7a0d14c09","651c1de66e83f0736452ce2b","null","null","<p style=""font-size: 60px; font-family: BACS"">bmbNravu</p>","","","","","","","","",""
"html-keyboard-response","236","317347","0.0-12.0-0.66","64a288758b7c82ff2d18da75","650c16f0f2faf8d7a0d14c09","651c1de66e83f0736452ce2b","null","null","<p style=""font-size: 60px; font-family: BACS"">kNuaJZr</p>","","","","","","","","",""
"html-keyboard-response","237","318354","0.0-12.0-0.67","64a288758b7c82ff2d18da75","650c16f0f2faf8d7a0d14c09","651c1de66e83f0736452ce2b","null","null","<p style=""font-size: 60px; font-family: BACS"">aLNlkrAm</p>","","","","","","","","",""
"html-keyboard-response","238","319359","0.0-12.0-0.68","64a288758b7c82ff2d18da75","650c16f0f2faf8d7a0d14c09","651c1de66e83f0736452ce2b","null","null","<p style=""font-size: 60px; font-family: BACS"">MTdYbAMO</p>","","","","","","","","",""
"html-keyboard-response","239","320364","0.0-12.0-0.69","64a288758b7c82ff2d18da75","650c16f0f2faf8d7a0d14c09","651c1de66e83f0736452ce2b","null","null","<p style=""font-size: 60px; font-family: BACS"">JmNkJZr</p>","","","","","","","","",""
"html-keyboard-response","240","321370","0.0-12.0-0.70","64a288758b7c82ff2d18da75","650c16f0f2faf8d7a0d14c09","651c1de66e83f0736452ce2b","null","null","<p style=""font-size: 60px; font-family: BACS"">CchtdABb</p>","","","","","","","","",""
"html-keyboard-response","241","322375","0.0-12.0-0.71","64a288758b7c82ff2d18da75","650c16f0f2faf8d7a0d14c09","651c1de66e83f0736452ce2b","null","null","<p style=""font-size: 60px; font-family: BACS"">bYGOZvAvb</p>","","","","","","","","",""
"html-keyboard-response","242","323377","0.0-12.0-0.72","64a288758b7c82ff2d18da75","650c16f0f2faf8d7a0d14c09","651c1de66e83f0736452ce2b","null","null","<p style=""font-size: 60px; font-family: BACS"">CYPcbAMO</p>","","","","","","","","",""
"html-keyboard-response","243","324379","0.0-12.0-0.73","64a288758b7c82ff2d18da75","650c16f0f2faf8d7a0d14c09","651c1de66e83f0736452ce2b","null","null","<p style=""font-size: 60px; font-family: BACS"">kMbTRhBK</p>","","","","","","","","",""
"html-keyboard-response","244","325388","0.0-12.0-0.74","64a288758b7c82ff2d18da75","650c16f0f2faf8d7a0d14c09","651c1de66e83f0736452ce2b","null","null","<p style=""font-size: 60px; font-family: BACS"">bYGOZravu</p>","","","","","","","","",""
"html-keyboard-response","245","326401","0.0-12.0-0.75","64a288758b7c82ff2d18da75","650c16f0f2faf8d7a0d14c09","651c1de66e83f0736452ce2b","null","null","<p style=""font-size: 60px; font-family: BACS"">JuamlrAm</p>","","","","","","","","",""
"html-keyboard-response","246","327409","0.0-12.0-0.76","64a288758b7c82ff2d18da75","650c16f0f2faf8d7a0d14c09","651c1de66e83f0736452ce2b","null","null","<p style=""font-size: 60px; font-family: BACS"">dkLlrba</p>","","","","","","","","",""
"html-keyboard-response","247","328423","0.0-12.0-0.77","64a288758b7c82ff2d18da75","650c16f0f2faf8d7a0d14c09","651c1de66e83f0736452ce2b","null","null","<p style=""font-size: 60px; font-family: BACS"">TObCObAMO</p>","","","","","","","","",""
"html-keyboard-response","248","329437","0.0-12.0-0.78","64a288758b7c82ff2d18da75","650c16f0f2faf8d7a0d14c09","651c1de66e83f0736452ce2b","null","null","<p style=""font-size: 60px; font-family: BACS"">uQuZcJZr</p>","","","","","","","","",""
"html-keyboard-response","249","330446","0.0-12.0-0.79","64a288758b7c82ff2d18da75","650c16f0f2faf8d7a0d14c09","651c1de66e83f0736452ce2b","null","null","<p style=""font-size: 60px; font-family: BACS"">CchtdAPT</p>","","","","","","","","",""
"html-keyboard-response","250","334563","0.0-13.0","64a288758b7c82ff2d18da75","650c16f0f2faf8d7a0d14c09","651c1de66e83f0736452ce2b","4115"," ","<p>Great, you've seen the third block of words. You may now take a short break.</p>
      <p>Press the spacebar when you're ready to continue.</p>","","","","","","","","",""
"html-keyboard-response","251","335565","0.0-14.0-0.0","64a288758b7c82ff2d18da75","650c16f0f2faf8d7a0d14c09","651c1de66e83f0736452ce2b","null","null","<p style=""font-size: 60px; font-family: BACS"">MDKPhBK</p>","","","","","","","","",""
"html-keyboard-response","252","336575","0.0-14.0-0.1","64a288758b7c82ff2d18da75","650c16f0f2faf8d7a0d14c09","651c1de66e83f0736452ce2b","null","null","<p style=""font-size: 60px; font-family: BACS"">bYGOZrba</p>","","","","","","","","",""
"html-keyboard-response","253","337584","0.0-14.0-0.2","64a288758b7c82ff2d18da75","650c16f0f2faf8d7a0d14c09","651c1de66e83f0736452ce2b","null","null","<p style=""font-size: 60px; font-family: BACS"">bmbNvAvb</p>","","","","","","","","",""
"html-keyboard-response","254","338600","0.0-14.0-0.3","64a288758b7c82ff2d18da75","650c16f0f2faf8d7a0d14c09","651c1de66e83f0736452ce2b","null","null","<p style=""font-size: 60px; font-family: BACS"">aLNlkJZr</p>","","","","","","","","",""
"html-keyboard-response","255","339604","0.0-14.0-0.4","64a288758b7c82ff2d18da75","650c16f0f2faf8d7a0d14c09","651c1de66e83f0736452ce2b","null","null","<p style=""font-size: 60px; font-family: BACS"">TklDhBK</p>","","","","","","","","",""
"html-keyboard-response","256","340607","0.0-14.0-0.5","64a288758b7c82ff2d18da75","650c16f0f2faf8d7a0d14c09","651c1de66e83f0736452ce2b","null","null","<p style=""font-size: 60px; font-family: BACS"">OCmkAPT</p>","","","","","","","","",""
"html-keyboard-response","257","341615","0.0-14.0-0.6","64a288758b7c82ff2d18da75","650c16f0f2faf8d7a0d14c09","651c1de66e83f0736452ce2b","null","null","<p style=""font-size: 60px; font-family: BACS"">cROMtABb</p>","","","","","","","","",""
"html-keyboard-response","258","342625","0.0-14.0-0.7","64a288758b7c82ff2d18da75","650c16f0f2faf8d7a0d14c09","651c1de66e83f0736452ce2b","null","null","<p style=""font-size: 60px; font-family: BACS"">uQuZcJZr</p>","","","","","","","","",""
"html-keyboard-response","259","343630","0.0-14.0-0.8","64a288758b7c82ff2d18da75","650c16f0f2faf8d7a0d14c09","651c1de66e83f0736452ce2b","null","null","<p style=""font-size: 60px; font-family: BACS"">CchtdMCkm</p>","","","","","","","","",""
"html-keyboard-response","260","344647","0.0-14.0-0.9","64a288758b7c82ff2d18da75","650c16f0f2faf8d7a0d14c09","651c1de66e83f0736452ce2b","null","null","<p style=""font-size: 60px; font-family: BACS"">bYGOZrAm</p>","","","","","","","","",""
"html-keyboard-response","261","345653","0.0-14.0-0.10","64a288758b7c82ff2d18da75","650c16f0f2faf8d7a0d14c09","651c1de66e83f0736452ce2b","null","null","<p style=""font-size: 60px; font-family: BACS"">MTdYMCkm</p>","","","","","","","","",""
"html-keyboard-response","262","346656","0.0-14.0-0.11","64a288758b7c82ff2d18da75","650c16f0f2faf8d7a0d14c09","651c1de66e83f0736452ce2b","null","null","<p style=""font-size: 60px; font-family: BACS"">uQuZcrba</p>","","","","","","","","",""
"html-keyboard-response","263","347660","0.0-14.0-0.12","64a288758b7c82ff2d18da75","650c16f0f2faf8d7a0d14c09","651c1de66e83f0736452ce2b","null","null","<p style=""font-size: 60px; font-family: BACS"">cROMthBK</p>","","","","","","","","",""
"html-keyboard-response","264","348663","0.0-14.0-0.13","64a288758b7c82ff2d18da75","650c16f0f2faf8d7a0d14c09","651c1de66e83f0736452ce2b","null","null","<p style=""font-size: 60px; font-family: BACS"">OCmkbAMO</p>","","","","","","","","",""
"html-keyboard-response","265","349671","0.0-14.0-0.14","64a288758b7c82ff2d18da75","650c16f0f2faf8d7a0d14c09","651c1de66e83f0736452ce2b","null","null","<p style=""font-size: 60px; font-family: BACS"">amJmravu</p>","","","","","","","","",""
"html-keyboard-response","266","350686","0.0-14.0-0.15","64a288758b7c82ff2d18da75","650c16f0f2faf8d7a0d14c09","651c1de66e83f0736452ce2b","null","null","<p style=""font-size: 60px; font-family: BACS"">TklDbAMO</p>","","","","","","","","",""
"html-keyboard-response","267","351693","0.0-14.0-0.16","64a288758b7c82ff2d18da75","650c16f0f2faf8d7a0d14c09","651c1de66e83f0736452ce2b","null","null","<p style=""font-size: 60px; font-family: BACS"">OMlTAPT</p>","","","","","","","","",""
"html-keyboard-response","268","352704","0.0-14.0-0.17","64a288758b7c82ff2d18da75","650c16f0f2faf8d7a0d14c09","651c1de66e83f0736452ce2b","null","null","<p style=""font-size: 60px; font-family: BACS"">MDKPABb</p>","","","","","","","","",""
"html-keyboard-response","269","353711","0.0-14.0-0.18","64a288758b7c82ff2d18da75","650c16f0f2faf8d7a0d14c09","651c1de66e83f0736452ce2b","null","null","<p style=""font-size: 60px; font-family: BACS"">TklDAPT</p>","","","","","","","","",""
"html-keyboard-response","270","354715","0.0-14.0-0.19","64a288758b7c82ff2d18da75","650c16f0f2faf8d7a0d14c09","651c1de66e83f0736452ce2b","null","null","<p style=""font-size: 60px; font-family: BACS"">OMlTMCkm</p>","","","","","","","","",""
"html-keyboard-response","271","355725","0.0-14.0-0.20","64a288758b7c82ff2d18da75","650c16f0f2faf8d7a0d14c09","651c1de66e83f0736452ce2b","null","null","<p style=""font-size: 60px; font-family: BACS"">JuamlrAm</p>","","","","","","","","",""
"html-keyboard-response","272","356735","0.0-14.0-0.21","64a288758b7c82ff2d18da75","650c16f0f2faf8d7a0d14c09","651c1de66e83f0736452ce2b","null","null","<p style=""font-size: 60px; font-family: BACS"">bmbNravu</p>","","","","","","","","",""
"html-keyboard-response","273","357739","0.0-14.0-0.22","64a288758b7c82ff2d18da75","650c16f0f2faf8d7a0d14c09","651c1de66e83f0736452ce2b","null","null","<p style=""font-size: 60px; font-family: BACS"">dkLlvAvb</p>","","","","","","","","",""
"html-keyboard-response","274","358754","0.0-14.0-0.23","64a288758b7c82ff2d18da75","650c16f0f2faf8d7a0d14c09","651c1de66e83f0736452ce2b","null","null","<p style=""font-size: 60px; font-family: BACS"">amJmrAm</p>","","","","","","","","",""
"html-keyboard-response","275","359762","0.0-14.0-0.24","64a288758b7c82ff2d18da75","650c16f0f2faf8d7a0d14c09","651c1de66e83f0736452ce2b","null","null","<p style=""font-size: 60px; font-family: BACS"">bmbNJZr</p>","","","","","","","","",""
"html-keyboard-response","276","360771","0.0-14.0-0.25","64a288758b7c82ff2d18da75","650c16f0f2faf8d7a0d14c09","651c1de66e83f0736452ce2b","null","null","<p style=""font-size: 60px; font-family: BACS"">aLNlkravu</p>","","","","","","","","",""
"html-keyboard-response","277","361779","0.0-14.0-0.26","64a288758b7c82ff2d18da75","650c16f0f2faf8d7a0d14c09","651c1de66e83f0736452ce2b","null","null","<p style=""font-size: 60px; font-family: BACS"">CchtdAPT</p>","","","","","","","","",""
"html-keyboard-response","278","362786","0.0-14.0-0.27","64a288758b7c82ff2d18da75","650c16f0f2faf8d7a0d14c09","651c1de66e83f0736452ce2b","null","null","<p style=""font-size: 60px; font-family: BACS"">kNuaravu</p>","","","","","","","","",""
"html-keyboard-response","279","363790","0.0-14.0-0.28","64a288758b7c82ff2d18da75","650c16f0f2faf8d7a0d14c09","651c1de66e83f0736452ce2b","null","null","<p style=""font-size: 60px; font-family: BACS"">kMbTRhBK</p>","","","","","","","","",""
"html-keyboard-response","280","364795","0.0-14.0-0.29","64a288758b7c82ff2d18da75","650c16f0f2faf8d7a0d14c09","651c1de66e83f0736452ce2b","null","null","<p style=""font-size: 60px; font-family: BACS"">CYPcAPT</p>","","","","","","","","",""
"html-keyboard-response","281","365810","0.0-14.0-0.30","64a288758b7c82ff2d18da75","650c16f0f2faf8d7a0d14c09","651c1de66e83f0736452ce2b","null","null","<p style=""font-size: 60px; font-family: BACS"">TObCOhBK</p>","","","","","","","","",""
"html-keyboard-response","282","366816","0.0-14.0-0.31","64a288758b7c82ff2d18da75","650c16f0f2faf8d7a0d14c09","651c1de66e83f0736452ce2b","null","null","<p style=""font-size: 60px; font-family: BACS"">kMbTRMCkm</p>","","","","","","","","",""
"html-keyboard-response","283","367822","0.0-14.0-0.32","64a288758b7c82ff2d18da75","650c16f0f2faf8d7a0d14c09","651c1de66e83f0736452ce2b","null","null","<p style=""font-size: 60px; font-family: BACS"">JuamlvAvb</p>","","","","","","","","",""
"html-keyboard-response","284","368830","0.0-14.0-0.33","64a288758b7c82ff2d18da75","650c16f0f2faf8d7a0d14c09","651c1de66e83f0736452ce2b","null","null","<p style=""font-size: 60px; font-family: BACS"">CYPcbAMO</p>","","","","","","","","",""
"html-keyboard-response","285","369836","0.0-14.0-0.34","64a288758b7c82ff2d18da75","650c16f0f2faf8d7a0d14c09","651c1de66e83f0736452ce2b","null","null","<p style=""font-size: 60px; font-family: BACS"">UaYLJZr</p>","","","","","","","","",""
"html-keyboard-response","286","370837","0.0-14.0-0.35","64a288758b7c82ff2d18da75","650c16f0f2faf8d7a0d14c09","651c1de66e83f0736452ce2b","null","null","<p style=""font-size: 60px; font-family: BACS"">OMlTbAMO</p>","","","","","","","","",""
"html-keyboard-response","287","371844","0.0-14.0-0.36","64a288758b7c82ff2d18da75","650c16f0f2faf8d7a0d14c09","651c1de66e83f0736452ce2b","null","null","<p style=""font-size: 60px; font-family: BACS"">dkLlJZr</p>","","","","","","","","",""
"html-keyboard-response","288","372852","0.0-14.0-0.37","64a288758b7c82ff2d18da75","650c16f0f2faf8d7a0d14c09","651c1de66e83f0736452ce2b","null","null","<p style=""font-size: 60px; font-family: BACS"">JmNkravu</p>","","","","","","","","",""
"html-keyboard-response","289","373860","0.0-14.0-0.38","64a288758b7c82ff2d18da75","650c16f0f2faf8d7a0d14c09","651c1de66e83f0736452ce2b","null","null","<p style=""font-size: 60px; font-family: BACS"">kNuavAvb</p>","","","","","","","","",""
"html-keyboard-response","290","374867","0.0-14.0-0.39","64a288758b7c82ff2d18da75","650c16f0f2faf8d7a0d14c09","651c1de66e83f0736452ce2b","null","null","<p style=""font-size: 60px; font-family: BACS"">Juamlrba</p>","","","","","","","","",""
"html-keyboard-response","291","375877","0.0-14.0-0.40","64a288758b7c82ff2d18da75","650c16f0f2faf8d7a0d14c09","651c1de66e83f0736452ce2b","null","null","<p style=""font-size: 60px; font-family: BACS"">MDKPAPT</p>","","","","","","","","",""
"html-keyboard-response","292","376883","0.0-14.0-0.41","64a288758b7c82ff2d18da75","650c16f0f2faf8d7a0d14c09","651c1de66e83f0736452ce2b","null","null","<p style=""font-size: 60px; font-family: BACS"">aLNlkvAvb</p>","","","","","","","","",""
"html-keyboard-response","293","377886","0.0-14.0-0.42","64a288758b7c82ff2d18da75","650c16f0f2faf8d7a0d14c09","651c1de66e83f0736452ce2b","null","null","<p style=""font-size: 60px; font-family: BACS"">UaYLravu</p>","","","","","","","","",""
"html-keyboard-response","294","378896","0.0-14.0-0.43","64a288758b7c82ff2d18da75","650c16f0f2faf8d7a0d14c09","651c1de66e83f0736452ce2b","null","null","<p style=""font-size: 60px; font-family: BACS"">TObCObAMO</p>","","","","","","","","",""
"html-keyboard-response","295","379901","0.0-14.0-0.44","64a288758b7c82ff2d18da75","650c16f0f2faf8d7a0d14c09","651c1de66e83f0736452ce2b","null","null","<p style=""font-size: 60px; font-family: BACS"">MTdYhBK</p>","","","","","","","","",""
"html-keyboard-response","296","380906","0.0-14.0-0.45","64a288758b7c82ff2d18da75","650c16f0f2faf8d7a0d14c09","651c1de66e83f0736452ce2b","null","null","<p style=""font-size: 60px; font-family: BACS"">JmNkrba</p>","","","","","","","","",""
"html-keyboard-response","297","381916","0.0-14.0-0.46","64a288758b7c82ff2d18da75","650c16f0f2faf8d7a0d14c09","651c1de66e83f0736452ce2b","null","null","<p style=""font-size: 60px; font-family: BACS"">TklDABb</p>","","","","","","","","",""
"html-keyboard-response","298","382921","0.0-14.0-0.47","64a288758b7c82ff2d18da75","650c16f0f2faf8d7a0d14c09","651c1de66e83f0736452ce2b","null","null","<p style=""font-size: 60px; font-family: BACS"">TObCOMCkm</p>","","","","","","","","",""
"html-keyboard-response","299","383924","0.0-14.0-0.48","64a288758b7c82ff2d18da75","650c16f0f2faf8d7a0d14c09","651c1de66e83f0736452ce2b","null","null","<p style=""font-size: 60px; font-family: BACS"">UaYLvAvb</p>","","","","","","","","",""
"html-keyboard-response","300","384932","0.0-14.0-0.49","64a288758b7c82ff2d18da75","650c16f0f2faf8d7a0d14c09","651c1de66e83f0736452ce2b","null","null","<p style=""font-size: 60px; font-family: BACS"">OCmkMCkm</p>","","","","","","","","",""
"html-keyboard-response","301","385934","0.0-14.0-0.50","64a288758b7c82ff2d18da75","650c16f0f2faf8d7a0d14c09","651c1de66e83f0736452ce2b","null","null","<p style=""font-size: 60px; font-family: BACS"">dkLlrAm</p>","","","","","","","","",""
"html-keyboard-response","302","386945","0.0-14.0-0.51","64a288758b7c82ff2d18da75","650c16f0f2faf8d7a0d14c09","651c1de66e83f0736452ce2b","null","null","<p style=""font-size: 60px; font-family: BACS"">JmNkJZr</p>","","","","","","","","",""
"html-keyboard-response","303","387950","0.0-14.0-0.52","64a288758b7c82ff2d18da75","650c16f0f2faf8d7a0d14c09","651c1de66e83f0736452ce2b","null","null","<p style=""font-size: 60px; font-family: BACS"">kMbTRABb</p>","","","","","","","","",""
"html-keyboard-response","304","388956","0.0-14.0-0.53","64a288758b7c82ff2d18da75","650c16f0f2faf8d7a0d14c09","651c1de66e83f0736452ce2b","null","null","<p style=""font-size: 60px; font-family: BACS"">JmNkrAm</p>","","","","","","","","",""
"html-keyboard-response","305","389959","0.0-14.0-0.54","64a288758b7c82ff2d18da75","650c16f0f2faf8d7a0d14c09","651c1de66e83f0736452ce2b","null","null","<p style=""font-size: 60px; font-family: BACS"">TObCOABb</p>","","","","","","","","",""
"html-keyboard-response","306","390962","0.0-14.0-0.55","64a288758b7c82ff2d18da75","650c16f0f2faf8d7a0d14c09","651c1de66e83f0736452ce2b","null","null","<p style=""font-size: 60px; font-family: BACS"">kNuarba</p>","","","","","","","","",""
"html-keyboard-response","307","391964","0.0-14.0-0.56","64a288758b7c82ff2d18da75","650c16f0f2faf8d7a0d14c09","651c1de66e83f0736452ce2b","null","null","<p style=""font-size: 60px; font-family: BACS"">UaYLrAm</p>","","","","","","","","",""
"html-keyboard-response","308","392967","0.0-14.0-0.57","64a288758b7c82ff2d18da75","650c16f0f2faf8d7a0d14c09","651c1de66e83f0736452ce2b","null","null","<p style=""font-size: 60px; font-family: BACS"">uQuZcravu</p>","","","","","","","","",""
"html-keyboard-response","309","393970","0.0-14.0-0.58","64a288758b7c82ff2d18da75","650c16f0f2faf8d7a0d14c09","651c1de66e83f0736452ce2b","null","null","<p style=""font-size: 60px; font-family: BACS"">CchtdbAMO</p>","","","","","","","","",""
"html-keyboard-response","310","394975","0.0-14.0-0.59","64a288758b7c82ff2d18da75","650c16f0f2faf8d7a0d14c09","651c1de66e83f0736452ce2b","null","null","<p style=""font-size: 60px; font-family: BACS"">dkLlrba</p>","","","","","","","","",""
"html-keyboard-response","311","395983","0.0-14.0-0.60","64a288758b7c82ff2d18da75","650c16f0f2faf8d7a0d14c09","651c1de66e83f0736452ce2b","null","null","<p style=""font-size: 60px; font-family: BACS"">CYPcMCkm</p>","","","","","","","","",""
"html-keyboard-response","312","396995","0.0-14.0-0.61","64a288758b7c82ff2d18da75","650c16f0f2faf8d7a0d14c09","651c1de66e83f0736452ce2b","null","null","<p style=""font-size: 60px; font-family: BACS"">aLNlkrAm</p>","","","","","","","","",""
"html-keyboard-response","313","397999","0.0-14.0-0.62","64a288758b7c82ff2d18da75","650c16f0f2faf8d7a0d14c09","651c1de66e83f0736452ce2b","null","null","<p style=""font-size: 60px; font-family: BACS"">kNuaJZr</p>","","","","","","","","",""
"html-keyboard-response","314","399005","0.0-14.0-0.63","64a288758b7c82ff2d18da75","650c16f0f2faf8d7a0d14c09","651c1de66e83f0736452ce2b","null","null","<p style=""font-size: 60px; font-family: BACS"">MTdYABb</p>","","","","","","","","",""
"html-keyboard-response","315","400009","0.0-14.0-0.64","64a288758b7c82ff2d18da75","650c16f0f2faf8d7a0d14c09","651c1de66e83f0736452ce2b","null","null","<p style=""font-size: 60px; font-family: BACS"">kMbTRAPT</p>","","","","","","","","",""
"html-keyboard-response","316","401011","0.0-14.0-0.65","64a288758b7c82ff2d18da75","650c16f0f2faf8d7a0d14c09","651c1de66e83f0736452ce2b","null","null","<p style=""font-size: 60px; font-family: BACS"">JuamlJZr</p>","","","","","","","","",""
"html-keyboard-response","317","402012","0.0-14.0-0.66","64a288758b7c82ff2d18da75","650c16f0f2faf8d7a0d14c09","651c1de66e83f0736452ce2b","null","null","<p style=""font-size: 60px; font-family: BACS"">bYGOZravu</p>","","","","","","","","",""
"html-keyboard-response","318","403019","0.0-14.0-0.67","64a288758b7c82ff2d18da75","650c16f0f2faf8d7a0d14c09","651c1de66e83f0736452ce2b","null","null","<p style=""font-size: 60px; font-family: BACS"">cROMtAPT</p>","","","","","","","","",""
"html-keyboard-response","319","404022","0.0-14.0-0.68","64a288758b7c82ff2d18da75","650c16f0f2faf8d7a0d14c09","651c1de66e83f0736452ce2b","null","null","<p style=""font-size: 60px; font-family: BACS"">MTdYbAMO</p>","","","","","","","","",""
"html-keyboard-response","320","405025","0.0-14.0-0.69","64a288758b7c82ff2d18da75","650c16f0f2faf8d7a0d14c09","651c1de66e83f0736452ce2b","null","null","<p style=""font-size: 60px; font-family: BACS"">OCmkhBK</p>","","","","","","","","",""
"html-keyboard-response","321","406031","0.0-14.0-0.70","64a288758b7c82ff2d18da75","650c16f0f2faf8d7a0d14c09","651c1de66e83f0736452ce2b","null","null","<p style=""font-size: 60px; font-family: BACS"">OMlTABb</p>","","","","","","","","",""
"html-keyboard-response","322","407033","0.0-14.0-0.71","64a288758b7c82ff2d18da75","650c16f0f2faf8d7a0d14c09","651c1de66e83f0736452ce2b","null","null","<p style=""font-size: 60px; font-family: BACS"">uQuZcrAm</p>","","","","","","","","",""
"html-keyboard-response","323","408036","0.0-14.0-0.72","64a288758b7c82ff2d18da75","650c16f0f2faf8d7a0d14c09","651c1de66e83f0736452ce2b","null","null","<p style=""font-size: 60px; font-family: BACS"">CchtdABb</p>","","","","","","","","",""
"html-keyboard-response","324","409039","0.0-14.0-0.73","64a288758b7c82ff2d18da75","650c16f0f2faf8d7a0d14c09","651c1de66e83f0736452ce2b","null","null","<p style=""font-size: 60px; font-family: BACS"">MDKPbAMO</p>","","","","","","","","",""
"html-keyboard-response","325","410043","0.0-14.0-0.74","64a288758b7c82ff2d18da75","650c16f0f2faf8d7a0d14c09","651c1de66e83f0736452ce2b","null","null","<p style=""font-size: 60px; font-family: BACS"">CYPchBK</p>","","","","","","","","",""
"html-keyboard-response","326","411050","0.0-14.0-0.75","64a288758b7c82ff2d18da75","650c16f0f2faf8d7a0d14c09","651c1de66e83f0736452ce2b","null","null","<p style=""font-size: 60px; font-family: BACS"">amJmvAvb</p>","","","","","","","","",""
"html-keyboard-response","327","412064","0.0-14.0-0.76","64a288758b7c82ff2d18da75","650c16f0f2faf8d7a0d14c09","651c1de66e83f0736452ce2b","null","null","<p style=""font-size: 60px; font-family: BACS"">bmbNrba</p>","","","","","","","","",""
"html-keyboard-response","328","413067","0.0-14.0-0.77","64a288758b7c82ff2d18da75","650c16f0f2faf8d7a0d14c09","651c1de66e83f0736452ce2b","null","null","<p style=""font-size: 60px; font-family: BACS"">cROMtMCkm</p>","","","","","","","","",""
"html-keyboard-response","329","414069","0.0-14.0-0.78","64a288758b7c82ff2d18da75","650c16f0f2faf8d7a0d14c09","651c1de66e83f0736452ce2b","null","null","<p style=""font-size: 60px; font-family: BACS"">amJmrba</p>","","","","","","","","",""
"html-keyboard-response","330","415077","0.0-14.0-0.79","64a288758b7c82ff2d18da75","650c16f0f2faf8d7a0d14c09","651c1de66e83f0736452ce2b","null","null","<p style=""font-size: 60px; font-family: BACS"">bYGOZvAvb</p>","","","","","","","","",""
"html-keyboard-response","331","418820","0.0-15.0","64a288758b7c82ff2d18da75","650c16f0f2faf8d7a0d14c09","651c1de66e83f0736452ce2b","3734"," ","<p>Great, you've seen the fourth block of words. You may now take a short break.</p>
      <p>Press the spacebar when you're ready to continue.</p>","","","","","","","","",""
"html-keyboard-response","332","419829","0.0-16.0-0.0","64a288758b7c82ff2d18da75","650c16f0f2faf8d7a0d14c09","651c1de66e83f0736452ce2b","null","null","<p style=""font-size: 60px; font-family: BACS"">OMlTAPT</p>","","","","","","","","",""
"html-keyboard-response","333","420832","0.0-16.0-0.1","64a288758b7c82ff2d18da75","650c16f0f2faf8d7a0d14c09","651c1de66e83f0736452ce2b","null","null","<p style=""font-size: 60px; font-family: BACS"">OMlTAPT</p>","","","","","","","","",""
"html-keyboard-response","334","421833","0.0-16.0-0.2","64a288758b7c82ff2d18da75","650c16f0f2faf8d7a0d14c09","651c1de66e83f0736452ce2b","null","null","<p style=""font-size: 60px; font-family: BACS"">OMlTAPT</p>","","","","","","","","",""
"html-keyboard-response","335","423552","0.0-16.0-0.3","64a288758b7c82ff2d18da75","650c16f0f2faf8d7a0d14c09","651c1de66e83f0736452ce2b","null","null","<p style=""font-size: 60px; font-family: BACS"">OMlTAPT</p>","","","","","","","","",""
"html-keyboard-response","336","424555","0.0-16.0-0.4","64a288758b7c82ff2d18da75","650c16f0f2faf8d7a0d14c09","651c1de66e83f0736452ce2b","null","null","<p style=""font-size: 60px; font-family: BACS"">OMlTAPT</p>","","","","","","","","",""
"html-keyboard-response","337","425558","0.0-16.0-0.5","64a288758b7c82ff2d18da75","650c16f0f2faf8d7a0d14c09","651c1de66e83f0736452ce2b","null","null","<p style=""font-size: 60px; font-family: BACS"">OMlTAPT</p>","","","","","","","","",""
"html-keyboard-response","338","426561","0.0-16.0-0.6","64a288758b7c82ff2d18da75","650c16f0f2faf8d7a0d14c09","651c1de66e83f0736452ce2b","null","null","<p style=""font-size: 60px; font-family: BACS"">OMlTAPT</p>","","","","","","","","",""
"html-keyboard-response","339","427568","0.0-16.0-0.7","64a288758b7c82ff2d18da75","650c16f0f2faf8d7a0d14c09","651c1de66e83f0736452ce2b","null","null","<p style=""font-size: 60px; font-family: BACS"">OMlTAPT</p>","","","","","","","","",""
"html-keyboard-response","340","428571","0.0-16.0-0.8","64a288758b7c82ff2d18da75","650c16f0f2faf8d7a0d14c09","651c1de66e83f0736452ce2b","null","null","<p style=""font-size: 60px; font-family: BACS"">OMlTAPT</p>","","","","","","","","",""
"html-keyboard-response","341","429577","0.0-16.0-0.9","64a288758b7c82ff2d18da75","650c16f0f2faf8d7a0d14c09","651c1de66e83f0736452ce2b","null","null","<p style=""font-size: 60px; font-family: BACS"">OMlTAPT</p>","","","","","","","","",""
"html-keyboard-response","342","430586","0.0-16.0-0.10","64a288758b7c82ff2d18da75","650c16f0f2faf8d7a0d14c09","651c1de66e83f0736452ce2b","null","null","<p style=""font-size: 60px; font-family: BACS"">OMlTAPT</p>","","","","","","","","",""
"html-keyboard-response","343","431593","0.0-16.0-0.11","64a288758b7c82ff2d18da75","650c16f0f2faf8d7a0d14c09","651c1de66e83f0736452ce2b","null","null","<p style=""font-size: 60px; font-family: BACS"">OMlTAPT</p>","","","","","","","","",""
"html-keyboard-response","344","432594","0.0-16.0-0.12","64a288758b7c82ff2d18da75","650c16f0f2faf8d7a0d14c09","651c1de66e83f0736452ce2b","null","null","<p style=""font-size: 60px; font-family: BACS"">OMlTAPT</p>","","","","","","","","",""
"html-keyboard-response","345","433596","0.0-16.0-0.13","64a288758b7c82ff2d18da75","650c16f0f2faf8d7a0d14c09","651c1de66e83f0736452ce2b","null","null","<p style=""font-size: 60px; font-family: BACS"">OMlTAPT</p>","","","","","","","","",""
"html-keyboard-response","346","434602","0.0-16.0-0.14","64a288758b7c82ff2d18da75","650c16f0f2faf8d7a0d14c09","651c1de66e83f0736452ce2b","null","null","<p style=""font-size: 60px; font-family: BACS"">OMlTAPT</p>","","","","","","","","",""
"html-keyboard-response","347","435608","0.0-16.0-0.15","64a288758b7c82ff2d18da75","650c16f0f2faf8d7a0d14c09","651c1de66e83f0736452ce2b","null","null","<p style=""font-size: 60px; font-family: BACS"">OMlTAPT</p>","","","","","","","","",""
"html-keyboard-response","348","436615","0.0-16.0-0.16","64a288758b7c82ff2d18da75","650c16f0f2faf8d7a0d14c09","651c1de66e83f0736452ce2b","null","null","<p style=""font-size: 60px; font-family: BACS"">OMlTAPT</p>","","","","","","","","",""
"html-keyboard-response","349","437619","0.0-16.0-0.17","64a288758b7c82ff2d18da75","650c16f0f2faf8d7a0d14c09","651c1de66e83f0736452ce2b","null","null","<p style=""font-size: 60px; font-family: BACS"">OMlTAPT</p>","","","","","","","","",""
"html-keyboard-response","350","438629","0.0-16.0-0.18","64a288758b7c82ff2d18da75","650c16f0f2faf8d7a0d14c09","651c1de66e83f0736452ce2b","null","null","<p style=""font-size: 60px; font-family: BACS"">OMlTAPT</p>","","","","","","","","",""
"html-keyboard-response","351","439645","0.0-16.0-0.19","64a288758b7c82ff2d18da75","650c16f0f2faf8d7a0d14c09","651c1de66e83f0736452ce2b","null","null","<p style=""font-size: 60px; font-family: BACS"">OMlTAPT</p>","","","","","","","","",""
"html-keyboard-response","352","440654","0.0-16.0-0.20","64a288758b7c82ff2d18da75","650c16f0f2faf8d7a0d14c09","651c1de66e83f0736452ce2b","null","null","<p style=""font-size: 60px; font-family: BACS"">OMlTAPT</p>","","","","","","","","",""
"html-keyboard-response","353","441663","0.0-16.0-0.21","64a288758b7c82ff2d18da75","650c16f0f2faf8d7a0d14c09","651c1de66e83f0736452ce2b","null","null","<p style=""font-size: 60px; font-family: BACS"">OMlTAPT</p>","","","","","","","","",""
"html-keyboard-response","354","442666","0.0-16.0-0.22","64a288758b7c82ff2d18da75","650c16f0f2faf8d7a0d14c09","651c1de66e83f0736452ce2b","null","null","<p style=""font-size: 60px; font-family: BACS"">OMlTAPT</p>","","","","","","","","",""
"html-keyboard-response","355","443682","0.0-16.0-0.23","64a288758b7c82ff2d18da75","650c16f0f2faf8d7a0d14c09","651c1de66e83f0736452ce2b","null","null","<p style=""font-size: 60px; font-family: BACS"">OMlTAPT</p>","","","","","","","","",""
"html-keyboard-response","356","444689","0.0-16.0-0.24","64a288758b7c82ff2d18da75","650c16f0f2faf8d7a0d14c09","651c1de66e83f0736452ce2b","null","null","<p style=""font-size: 60px; font-family: BACS"">OMlTAPT</p>","","","","","","","","",""
"html-keyboard-response","357","445697","0.0-16.0-0.25","64a288758b7c82ff2d18da75","650c16f0f2faf8d7a0d14c09","651c1de66e83f0736452ce2b","null","null","<p style=""font-size: 60px; font-family: BACS"">OMlTAPT</p>","","","","","","","","",""
"html-keyboard-response","358","446704","0.0-16.0-0.26","64a288758b7c82ff2d18da75","650c16f0f2faf8d7a0d14c09","651c1de66e83f0736452ce2b","null","null","<p style=""font-size: 60px; font-family: BACS"">OMlTAPT</p>","","","","","","","","",""
"html-keyboard-response","359","447711","0.0-16.0-0.27","64a288758b7c82ff2d18da75","650c16f0f2faf8d7a0d14c09","651c1de66e83f0736452ce2b","null","null","<p style=""font-size: 60px; font-family: BACS"">OMlTAPT</p>","","","","","","","","",""
"html-keyboard-response","360","448714","0.0-16.0-0.28","64a288758b7c82ff2d18da75","650c16f0f2faf8d7a0d14c09","651c1de66e83f0736452ce2b","null","null","<p style=""font-size: 60px; font-family: BACS"">OMlTAPT</p>","","","","","","","","",""
"html-keyboard-response","361","449722","0.0-16.0-0.29","64a288758b7c82ff2d18da75","650c16f0f2faf8d7a0d14c09","651c1de66e83f0736452ce2b","null","null","<p style=""font-size: 60px; font-family: BACS"">OMlTAPT</p>","","","","","","","","",""
"html-keyboard-response","362","450728","0.0-16.0-0.30","64a288758b7c82ff2d18da75","650c16f0f2faf8d7a0d14c09","651c1de66e83f0736452ce2b","null","null","<p style=""font-size: 60px; font-family: BACS"">OMlTAPT</p>","","","","","","","","",""
"html-keyboard-response","363","451736","0.0-16.0-0.31","64a288758b7c82ff2d18da75","650c16f0f2faf8d7a0d14c09","651c1de66e83f0736452ce2b","null","null","<p style=""font-size: 60px; font-family: BACS"">OMlTAPT</p>","","","","","","","","",""
"html-keyboard-response","364","452744","0.0-16.0-0.32","64a288758b7c82ff2d18da75","650c16f0f2faf8d7a0d14c09","651c1de66e83f0736452ce2b","null","null","<p style=""font-size: 60px; font-family: BACS"">OMlTAPT</p>","","","","","","","","",""
"html-keyboard-response","365","453753","0.0-16.0-0.33","64a288758b7c82ff2d18da75","650c16f0f2faf8d7a0d14c09","651c1de66e83f0736452ce2b","null","null","<p style=""font-size: 60px; font-family: BACS"">OMlTAPT</p>","","","","","","","","",""
"html-keyboard-response","366","454764","0.0-16.0-0.34","64a288758b7c82ff2d18da75","650c16f0f2faf8d7a0d14c09","651c1de66e83f0736452ce2b","null","null","<p style=""font-size: 60px; font-family: BACS"">OMlTAPT</p>","","","","","","","","",""
"html-keyboard-response","367","455779","0.0-16.0-0.35","64a288758b7c82ff2d18da75","650c16f0f2faf8d7a0d14c09","651c1de66e83f0736452ce2b","null","null","<p style=""font-size: 60px; font-family: BACS"">OMlTAPT</p>","","","","","","","","",""
"html-keyboard-response","368","456782","0.0-16.0-0.36","64a288758b7c82ff2d18da75","650c16f0f2faf8d7a0d14c09","651c1de66e83f0736452ce2b","null","null","<p style=""font-size: 60px; font-family: BACS"">OMlTAPT</p>","","","","","","","","",""
"html-keyboard-response","369","457793","0.0-16.0-0.37","64a288758b7c82ff2d18da75","650c16f0f2faf8d7a0d14c09","651c1de66e83f0736452ce2b","null","null","<p style=""font-size: 60px; font-family: BACS"">OMlTAPT</p>","","","","","","","","",""
"html-keyboard-response","370","458798","0.0-16.0-0.38","64a288758b7c82ff2d18da75","650c16f0f2faf8d7a0d14c09","651c1de66e83f0736452ce2b","null","null","<p style=""font-size: 60px; font-family: BACS"">OMlTAPT</p>","","","","","","","","",""
"html-keyboard-response","371","459806","0.0-16.0-0.39","64a288758b7c82ff2d18da75","650c16f0f2faf8d7a0d14c09","651c1de66e83f0736452ce2b","null","null","<p style=""font-size: 60px; font-family: BACS"">OMlTAPT</p>","","","","","","","","",""
"html-keyboard-response","372","460815","0.0-16.0-0.40","64a288758b7c82ff2d18da75","650c16f0f2faf8d7a0d14c09","651c1de66e83f0736452ce2b","null","null","<p style=""font-size: 60px; font-family: BACS"">OMlTAPT</p>","","","","","","","","",""
"html-keyboard-response","373","461824","0.0-16.0-0.41","64a288758b7c82ff2d18da75","650c16f0f2faf8d7a0d14c09","651c1de66e83f0736452ce2b","null","null","<p style=""font-size: 60px; font-family: BACS"">OMlTAPT</p>","","","","","","","","",""
"html-keyboard-response","374","462832","0.0-16.0-0.42","64a288758b7c82ff2d18da75","650c16f0f2faf8d7a0d14c09","651c1de66e83f0736452ce2b","null","null","<p style=""font-size: 60px; font-family: BACS"">OMlTAPT</p>","","","","","","","","",""
"html-keyboard-response","375","463840","0.0-16.0-0.43","64a288758b7c82ff2d18da75","650c16f0f2faf8d7a0d14c09","651c1de66e83f0736452ce2b","null","null","<p style=""font-size: 60px; font-family: BACS"">OMlTAPT</p>","","","","","","","","",""
"html-keyboard-response","376","464843","0.0-16.0-0.44","64a288758b7c82ff2d18da75","650c16f0f2faf8d7a0d14c09","651c1de66e83f0736452ce2b","null","null","<p style=""font-size: 60px; font-family: BACS"">OMlTAPT</p>","","","","","","","","",""
"html-keyboard-response","377","465850","0.0-16.0-0.45","64a288758b7c82ff2d18da75","650c16f0f2faf8d7a0d14c09","651c1de66e83f0736452ce2b","null","null","<p style=""font-size: 60px; font-family: BACS"">OMlTAPT</p>","","","","","","","","",""
"html-keyboard-response","378","466862","0.0-16.0-0.46","64a288758b7c82ff2d18da75","650c16f0f2faf8d7a0d14c09","651c1de66e83f0736452ce2b","null","null","<p style=""font-size: 60px; font-family: BACS"">OMlTAPT</p>","","","","","","","","",""
"html-keyboard-response","379","467870","0.0-16.0-0.47","64a288758b7c82ff2d18da75","650c16f0f2faf8d7a0d14c09","651c1de66e83f0736452ce2b","null","null","<p style=""font-size: 60px; font-family: BACS"">OMlTAPT</p>","","","","","","","","",""
"html-keyboard-response","380","468876","0.0-16.0-0.48","64a288758b7c82ff2d18da75","650c16f0f2faf8d7a0d14c09","651c1de66e83f0736452ce2b","null","null","<p style=""font-size: 60px; font-family: BACS"">OMlTAPT</p>","","","","","","","","",""
"html-keyboard-response","381","469888","0.0-16.0-0.49","64a288758b7c82ff2d18da75","650c16f0f2faf8d7a0d14c09","651c1de66e83f0736452ce2b","null","null","<p style=""font-size: 60px; font-family: BACS"">OMlTAPT</p>","","","","","","","","",""
"html-keyboard-response","382","470902","0.0-16.0-0.50","64a288758b7c82ff2d18da75","650c16f0f2faf8d7a0d14c09","651c1de66e83f0736452ce2b","null","null","<p style=""font-size: 60px; font-family: BACS"">OMlTAPT</p>","","","","","","","","",""
"html-keyboard-response","383","471909","0.0-16.0-0.51","64a288758b7c82ff2d18da75","650c16f0f2faf8d7a0d14c09","651c1de66e83f0736452ce2b","null","null","<p style=""font-size: 60px; font-family: BACS"">OMlTAPT</p>","","","","","","","","",""
"html-keyboard-response","384","472924","0.0-16.0-0.52","64a288758b7c82ff2d18da75","650c16f0f2faf8d7a0d14c09","651c1de66e83f0736452ce2b","null","null","<p style=""font-size: 60px; font-family: BACS"">OMlTAPT</p>","","","","","","","","",""
"html-keyboard-response","385","473930","0.0-16.0-0.53","64a288758b7c82ff2d18da75","650c16f0f2faf8d7a0d14c09","651c1de66e83f0736452ce2b","null","null","<p style=""font-size: 60px; font-family: BACS"">OMlTAPT</p>","","","","","","","","",""
"html-keyboard-response","386","474931","0.0-16.0-0.54","64a288758b7c82ff2d18da75","650c16f0f2faf8d7a0d14c09","651c1de66e83f0736452ce2b","null","null","<p style=""font-size: 60px; font-family: BACS"">OMlTAPT</p>","","","","","","","","",""
"html-keyboard-response","387","475942","0.0-16.0-0.55","64a288758b7c82ff2d18da75","650c16f0f2faf8d7a0d14c09","651c1de66e83f0736452ce2b","null","null","<p style=""font-size: 60px; font-family: BACS"">OMlTAPT</p>","","","","","","","","",""
"html-keyboard-response","388","476949","0.0-16.0-0.56","64a288758b7c82ff2d18da75","650c16f0f2faf8d7a0d14c09","651c1de66e83f0736452ce2b","null","null","<p style=""font-size: 60px; font-family: BACS"">OMlTAPT</p>","","","","","","","","",""
"html-keyboard-response","389","477959","0.0-16.0-0.57","64a288758b7c82ff2d18da75","650c16f0f2faf8d7a0d14c09","651c1de66e83f0736452ce2b","null","null","<p style=""font-size: 60px; font-family: BACS"">OMlTAPT</p>","","","","","","","","",""
"html-keyboard-response","390","478973","0.0-16.0-0.58","64a288758b7c82ff2d18da75","650c16f0f2faf8d7a0d14c09","651c1de66e83f0736452ce2b","null","null","<p style=""font-size: 60px; font-family: BACS"">OMlTAPT</p>","","","","","","","","",""
"html-keyboard-response","391","479977","0.0-16.0-0.59","64a288758b7c82ff2d18da75","650c16f0f2faf8d7a0d14c09","651c1de66e83f0736452ce2b","null","null","<p style=""font-size: 60px; font-family: BACS"">OMlTAPT</p>","","","","","","","","",""
"html-keyboard-response","392","480986","0.0-16.0-0.60","64a288758b7c82ff2d18da75","650c16f0f2faf8d7a0d14c09","651c1de66e83f0736452ce2b","null","null","<p style=""font-size: 60px; font-family: BACS"">OMlTAPT</p>","","","","","","","","",""
"html-keyboard-response","393","481988","0.0-16.0-0.61","64a288758b7c82ff2d18da75","650c16f0f2faf8d7a0d14c09","651c1de66e83f0736452ce2b","null","null","<p style=""font-size: 60px; font-family: BACS"">OMlTAPT</p>","","","","","","","","",""
"html-keyboard-response","394","482990","0.0-16.0-0.62","64a288758b7c82ff2d18da75","650c16f0f2faf8d7a0d14c09","651c1de66e83f0736452ce2b","null","null","<p style=""font-size: 60px; font-family: BACS"">OMlTAPT</p>","","","","","","","","",""
"html-keyboard-response","395","483997","0.0-16.0-0.63","64a288758b7c82ff2d18da75","650c16f0f2faf8d7a0d14c09","651c1de66e83f0736452ce2b","null","null","<p style=""font-size: 60px; font-family: BACS"">OMlTAPT</p>","","","","","","","","",""
"html-keyboard-response","396","485005","0.0-16.0-0.64","64a288758b7c82ff2d18da75","650c16f0f2faf8d7a0d14c09","651c1de66e83f0736452ce2b","null","null","<p style=""font-size: 60px; font-family: BACS"">OMlTAPT</p>","","","","","","","","",""
"html-keyboard-response","397","486015","0.0-16.0-0.65","64a288758b7c82ff2d18da75","650c16f0f2faf8d7a0d14c09","651c1de66e83f0736452ce2b","null","null","<p style=""font-size: 60px; font-family: BACS"">OMlTAPT</p>","","","","","","","","",""
"html-keyboard-response","398","487031","0.0-16.0-0.66","64a288758b7c82ff2d18da75","650c16f0f2faf8d7a0d14c09","651c1de66e83f0736452ce2b","null","null","<p style=""font-size: 60px; font-family: BACS"">OMlTAPT</p>","","","","","","","","",""
"html-keyboard-response","399","488034","0.0-16.0-0.67","64a288758b7c82ff2d18da75","650c16f0f2faf8d7a0d14c09","651c1de66e83f0736452ce2b","null","null","<p style=""font-size: 60px; font-family: BACS"">OMlTAPT</p>","","","","","","","","",""
"html-keyboard-response","400","489035","0.0-16.0-0.68","64a288758b7c82ff2d18da75","650c16f0f2faf8d7a0d14c09","651c1de66e83f0736452ce2b","null","null","<p style=""font-size: 60px; font-family: BACS"">OMlTAPT</p>","","","","","","","","",""
