trial_type,trial_index,time_elapsed,internal_node_id,subject_id,study_id,session_id,rt,response,stimulus,success,item,task,correct_response,testing_condition,correct,target,confound,name,view_history
pavlovia,0,749,0.0-0.0,5fa59d4d5a29c90da975efe9,650c16f0f2faf8d7a0d14c09,651c1d5937a6c0ce934699db,,,,,,,,,,,,,
survey-html-form,1,12007,0.0-1.0,5fa59d4d5a29c90da975efe9,650c16f0f2faf8d7a0d14c09,651c1d5937a6c0ce934699db,11257,"{""ID"":""5fa59d4d5a29c90da975efe9""}",,,,,,,,,,,
html-keyboard-response,2,17494,0.0-2.0,5fa59d4d5a29c90da975efe9,650c16f0f2faf8d7a0d14c09,651c1d5937a6c0ce934699db,5487, ,"<p style=""font-size: 15px;"">Before beginning, we ask that you read the consent information and confirm your agreement to participate in the experiment.</p>
      <p style=""font-size: 15px;""> We ask that you remember that this is a research project and that your participation is entirely voluntary. You can stop your participation at any time, without needing to provide any explanation. The study we're asking you to participate in aims at examining how readers process written words. You will be engaged in a session of apprximately 20 minutes, followed by a brief questionnaire. You will have the opportunity to take a few breaks during the experiment. You will be paid £4 for your participation, corresponding to a rate of £8/hour. While this experiment looks at cognitive faculties, this experiment doesn't constitute clinical proof of eventual pathologies.</p>
      <p style=""font-size: 15px;"">All of the information collected thanks to yours and others' participation will be held in a secure password-protected server, and will not be shared with anyone not authorised to view it. Your personal information will be kept with an arbitrary participant ID. Thanks to this data anonymity process, any researcher analysing the data won't be able to track the information back to a specific participant. Therefore, this process will make identifying you impossibile, even when results from the study will be published in scientific reviews, presented at congresses, or at any other public forum. More generally, the collected data will be treated in accordance with the laws on privacy and conformity to the Legislative Degree n. 196 ""Code regarding the protection of personal data"" of the 30th of June 2003 and to the European Regulation 2016/670 (General Data Protection Regulation - GDPR). The Data Protection Officer is Avv. Valentina Carollo, who can be contacted at the following email addresses: <a href=""mailto:dpo@sissa.it"">dpo@sissa.it</a> or <a href=""mailto:rpd@sissa.it"">rpd@sissa.it</a> - PEC: <a href=""mailto:protocollo@pec.sissa.it"">protocollo@pec.sissa.it</a>.</p>
      <p style=""font-size: 15px;""> Before expressing your consent to participate, we would like to remind you again that in case you need explanations on any aspect of the experimental procedure, the researcher is at your disposition (<a href=""mailto:aliebelt@sissa.it"">aliebelt@sissa.it</a>, <a href=""mailto:davide.crepaldi@sissa.it"">davide.crepaldi@sissa.it</a>).</p>
      <p style=""font-size: 15px;"">If you would like to download the informed consent form, you can do so here: <a href=""BASL-Informed_Consent.pdf"" download>informed consent form</a>.</p>
      <p style=""font-size: 15px;"">We ask that you press the spacebar to proceed to the consent section.</p>",,,,,,,,,,
survey-html-form,3,90862,0.0-3.0,5fa59d4d5a29c90da975efe9,650c16f0f2faf8d7a0d14c09,651c1d5937a6c0ce934699db,73366,"{""consent1"":""YES"",""consent2"":""YES"",""consent3"":""YES"",""consent4"":""YES"",""consent5"":""YES"",""consent6"":""YES""}",,,,,,,,,,,
fullscreen,4,103127,0.0-4.0,5fa59d4d5a29c90da975efe9,650c16f0f2faf8d7a0d14c09,651c1d5937a6c0ce934699db,,,,TRUE,,,,,,,,,
html-keyboard-response,5,106242,0.0-5.0,5fa59d4d5a29c90da975efe9,650c16f0f2faf8d7a0d14c09,651c1d5937a6c0ce934699db,3114, ,"<p>Welcome, and thank you very much for your time!</p>
      <p>In this experiment, you'll be a language expert who's been asked to take a look at words that Earth has received in its first communication with aliens. Your task, in this first part of the experiment, is to pay close attention to the words you'll be shown; later, world leaders will ask you questions on what you saw. The words will be shown to you quite quickly; it seems that the aliens were in a hurry :-)</p>
      <p>Press the spacebar to continue.<p>",,,,,,,,,,
html-keyboard-response,6,106297,0.0-6.0,5fa59d4d5a29c90da975efe9,650c16f0f2faf8d7a0d14c09,651c1d5937a6c0ce934699db,null,null,"<p style=""font-size: 120px; font-family: BACS""> </p>",,,,,,,,,,
html-keyboard-response,7,112511,0.0-7.0,5fa59d4d5a29c90da975efe9,650c16f0f2faf8d7a0d14c09,651c1d5937a6c0ce934699db,6213, ,"<p>Here is an example of the words you'll see:</p>
      <img src='esempio.png' height='400px'>
      <p>When you're ready to begin, press the spacebar.</p></div>",,,,,,,,,,
html-keyboard-response,8,113519,0.0-8.0-0.0,5fa59d4d5a29c90da975efe9,650c16f0f2faf8d7a0d14c09,651c1d5937a6c0ce934699db,null,null,"<p style=""font-size: 60px; font-family: BACS"">KMOcbRC</p>",,,,,,,,,,
html-keyboard-response,9,114532,0.0-8.0-0.1,5fa59d4d5a29c90da975efe9,650c16f0f2faf8d7a0d14c09,651c1d5937a6c0ce934699db,null,null,"<p style=""font-size: 60px; font-family: BACS"">MlthTAm</p>",,,,,,,,,,
html-keyboard-response,10,115537,0.0-8.0-0.2,5fa59d4d5a29c90da975efe9,650c16f0f2faf8d7a0d14c09,651c1d5937a6c0ce934699db,null,null,"<p style=""font-size: 60px; font-family: BACS"">ABPRBEcR</p>",,,,,,,,,,
html-keyboard-response,11,116546,0.0-8.0-0.3,5fa59d4d5a29c90da975efe9,650c16f0f2faf8d7a0d14c09,651c1d5937a6c0ce934699db,null,null,"<p style=""font-size: 60px; font-family: BACS"">NaAQdYLU</p>",,,,,,,,,,
html-keyboard-response,12,117549,0.0-8.0-0.4,5fa59d4d5a29c90da975efe9,650c16f0f2faf8d7a0d14c09,651c1d5937a6c0ce934699db,null,null,"<p style=""font-size: 60px; font-family: BACS"">MlthEcR</p>",,,,,,,,,,
html-keyboard-response,13,118553,0.0-8.0-0.5,5fa59d4d5a29c90da975efe9,650c16f0f2faf8d7a0d14c09,651c1d5937a6c0ce934699db,null,null,"<p style=""font-size: 60px; font-family: BACS"">LuNZvAvb</p>",,,,,,,,,,
html-keyboard-response,14,119556,0.0-8.0-0.6,5fa59d4d5a29c90da975efe9,650c16f0f2faf8d7a0d14c09,651c1d5937a6c0ce934699db,null,null,"<p style=""font-size: 60px; font-family: BACS"">tRdMPED</p>",,,,,,,,,,
html-keyboard-response,15,120566,0.0-8.0-0.7,5fa59d4d5a29c90da975efe9,650c16f0f2faf8d7a0d14c09,651c1d5937a6c0ce934699db,null,null,"<p style=""font-size: 60px; font-family: BACS"">NulkYLU</p>",,,,,,,,,,
html-keyboard-response,16,121576,0.0-8.0-0.8,5fa59d4d5a29c90da975efe9,650c16f0f2faf8d7a0d14c09,651c1d5937a6c0ce934699db,null,null,"<p style=""font-size: 60px; font-family: BACS"">OEPkEcR</p>",,,,,,,,,,
html-keyboard-response,17,122584,0.0-8.0-0.9,5fa59d4d5a29c90da975efe9,650c16f0f2faf8d7a0d14c09,651c1d5937a6c0ce934699db,null,null,"<p style=""font-size: 60px; font-family: BACS"">vYLUvAvb</p>",,,,,,,,,,
html-keyboard-response,18,123595,0.0-8.0-0.10,5fa59d4d5a29c90da975efe9,650c16f0f2faf8d7a0d14c09,651c1d5937a6c0ce934699db,null,null,"<p style=""font-size: 60px; font-family: BACS"">OEPkTRkY</p>",,,,,,,,,,
html-keyboard-response,19,124607,0.0-8.0-0.11,5fa59d4d5a29c90da975efe9,650c16f0f2faf8d7a0d14c09,651c1d5937a6c0ce934699db,null,null,"<p style=""font-size: 60px; font-family: BACS"">LQurvUdm</p>",,,,,,,,,,
html-keyboard-response,20,125620,0.0-8.0-0.12,5fa59d4d5a29c90da975efe9,650c16f0f2faf8d7a0d14c09,651c1d5937a6c0ce934699db,null,null,"<p style=""font-size: 60px; font-family: BACS"">rdLJaLcO</p>",,,,,,,,,,
html-keyboard-response,21,126630,0.0-8.0-0.13,5fa59d4d5a29c90da975efe9,650c16f0f2faf8d7a0d14c09,651c1d5937a6c0ce934699db,null,null,"<p style=""font-size: 60px; font-family: BACS"">MTdYEcR</p>",,,,,,,,,,
html-keyboard-response,22,127642,0.0-8.0-0.14,5fa59d4d5a29c90da975efe9,650c16f0f2faf8d7a0d14c09,651c1d5937a6c0ce934699db,null,null,"<p style=""font-size: 60px; font-family: BACS"">LNUrJYZUZ</p>",,,,,,,,,,
html-keyboard-response,23,128652,0.0-8.0-0.15,5fa59d4d5a29c90da975efe9,650c16f0f2faf8d7a0d14c09,651c1d5937a6c0ce934699db,null,null,"<p style=""font-size: 60px; font-family: BACS"">NulkvAvb</p>",,,,,,,,,,
html-keyboard-response,24,129663,0.0-8.0-0.16,5fa59d4d5a29c90da975efe9,650c16f0f2faf8d7a0d14c09,651c1d5937a6c0ce934699db,null,null,"<p style=""font-size: 60px; font-family: BACS"">ABPRBPED</p>",,,,,,,,,,
html-keyboard-response,25,130678,0.0-8.0-0.17,5fa59d4d5a29c90da975efe9,650c16f0f2faf8d7a0d14c09,651c1d5937a6c0ce934699db,null,null,"<p style=""font-size: 60px; font-family: BACS"">mBmlATRkY</p>",,,,,,,,,,
html-keyboard-response,26,131679,0.0-8.0-0.18,5fa59d4d5a29c90da975efe9,650c16f0f2faf8d7a0d14c09,651c1d5937a6c0ce934699db,null,null,"<p style=""font-size: 60px; font-family: BACS"">ZcGdNLcO</p>",,,,,,,,,,
html-keyboard-response,27,132684,0.0-8.0-0.19,5fa59d4d5a29c90da975efe9,650c16f0f2faf8d7a0d14c09,651c1d5937a6c0ce934699db,null,null,"<p style=""font-size: 60px; font-family: BACS"">mBmlAPED</p>",,,,,,,,,,
html-keyboard-response,28,133698,0.0-8.0-0.20,5fa59d4d5a29c90da975efe9,650c16f0f2faf8d7a0d14c09,651c1d5937a6c0ce934699db,null,null,"<p style=""font-size: 60px; font-family: BACS"">AYkEhTAm</p>",,,,,,,,,,
html-keyboard-response,29,134699,0.0-8.0-0.21,5fa59d4d5a29c90da975efe9,650c16f0f2faf8d7a0d14c09,651c1d5937a6c0ce934699db,null,null,"<p style=""font-size: 60px; font-family: BACS"">mBmlAbRC</p>",,,,,,,,,,
html-keyboard-response,30,135702,0.0-8.0-0.22,5fa59d4d5a29c90da975efe9,650c16f0f2faf8d7a0d14c09,651c1d5937a6c0ce934699db,null,null,"<p style=""font-size: 60px; font-family: BACS"">MTdYPED</p>",,,,,,,,,,
html-keyboard-response,31,136704,0.0-8.0-0.23,5fa59d4d5a29c90da975efe9,650c16f0f2faf8d7a0d14c09,651c1d5937a6c0ce934699db,null,null,"<p style=""font-size: 60px; font-family: BACS"">tRdMbRC</p>",,,,,,,,,,
html-keyboard-response,32,137713,0.0-8.0-0.24,5fa59d4d5a29c90da975efe9,650c16f0f2faf8d7a0d14c09,651c1d5937a6c0ce934699db,null,null,"<p style=""font-size: 60px; font-family: BACS"">vYLUYZUZ</p>",,,,,,,,,,
html-keyboard-response,33,138726,0.0-8.0-0.25,5fa59d4d5a29c90da975efe9,650c16f0f2faf8d7a0d14c09,651c1d5937a6c0ce934699db,null,null,"<p style=""font-size: 60px; font-family: BACS"">tRdMEcR</p>",,,,,,,,,,
html-keyboard-response,34,139730,0.0-8.0-0.26,5fa59d4d5a29c90da975efe9,650c16f0f2faf8d7a0d14c09,651c1d5937a6c0ce934699db,null,null,"<p style=""font-size: 60px; font-family: BACS"">LuNZvUdm</p>",,,,,,,,,,
html-keyboard-response,35,140743,0.0-8.0-0.27,5fa59d4d5a29c90da975efe9,650c16f0f2faf8d7a0d14c09,651c1d5937a6c0ce934699db,null,null,"<p style=""font-size: 60px; font-family: BACS"">LQurYLU</p>",,,,,,,,,,
html-keyboard-response,36,141758,0.0-8.0-0.28,5fa59d4d5a29c90da975efe9,650c16f0f2faf8d7a0d14c09,651c1d5937a6c0ce934699db,null,null,"<p style=""font-size: 60px; font-family: BACS"">dMThkEcR</p>",,,,,,,,,,
html-keyboard-response,37,142771,0.0-8.0-0.29,5fa59d4d5a29c90da975efe9,650c16f0f2faf8d7a0d14c09,651c1d5937a6c0ce934699db,null,null,"<p style=""font-size: 60px; font-family: BACS"">RdPtDbRC</p>",,,,,,,,,,
html-keyboard-response,38,143775,0.0-8.0-0.30,5fa59d4d5a29c90da975efe9,650c16f0f2faf8d7a0d14c09,651c1d5937a6c0ce934699db,null,null,"<p style=""font-size: 60px; font-family: BACS"">JuamlLcO</p>",,,,,,,,,,
html-keyboard-response,39,144786,0.0-8.0-0.31,5fa59d4d5a29c90da975efe9,650c16f0f2faf8d7a0d14c09,651c1d5937a6c0ce934699db,null,null,"<p style=""font-size: 60px; font-family: BACS"">AYkEhbRC</p>",,,,,,,,,,
html-keyboard-response,40,145788,0.0-8.0-0.32,5fa59d4d5a29c90da975efe9,650c16f0f2faf8d7a0d14c09,651c1d5937a6c0ce934699db,null,null,"<p style=""font-size: 60px; font-family: BACS"">ZcGdNvAvb</p>",,,,,,,,,,
html-keyboard-response,41,146802,0.0-8.0-0.33,5fa59d4d5a29c90da975efe9,650c16f0f2faf8d7a0d14c09,651c1d5937a6c0ce934699db,null,null,"<p style=""font-size: 60px; font-family: BACS"">JuamlYZUZ</p>",,,,,,,,,,
html-keyboard-response,42,147810,0.0-8.0-0.34,5fa59d4d5a29c90da975efe9,650c16f0f2faf8d7a0d14c09,651c1d5937a6c0ce934699db,null,null,"<p style=""font-size: 60px; font-family: BACS"">ZcGdNvUdm</p>",,,,,,,,,,
html-keyboard-response,43,148819,0.0-8.0-0.35,5fa59d4d5a29c90da975efe9,650c16f0f2faf8d7a0d14c09,651c1d5937a6c0ce934699db,null,null,"<p style=""font-size: 60px; font-family: BACS"">dMThkTAm</p>",,,,,,,,,,
html-keyboard-response,44,149821,0.0-8.0-0.36,5fa59d4d5a29c90da975efe9,650c16f0f2faf8d7a0d14c09,651c1d5937a6c0ce934699db,null,null,"<p style=""font-size: 60px; font-family: BACS"">RdPtDPED</p>",,,,,,,,,,
html-keyboard-response,45,150834,0.0-8.0-0.37,5fa59d4d5a29c90da975efe9,650c16f0f2faf8d7a0d14c09,651c1d5937a6c0ce934699db,null,null,"<p style=""font-size: 60px; font-family: BACS"">MTdYTAm</p>",,,,,,,,,,
html-keyboard-response,46,151844,0.0-8.0-0.38,5fa59d4d5a29c90da975efe9,650c16f0f2faf8d7a0d14c09,651c1d5937a6c0ce934699db,null,null,"<p style=""font-size: 60px; font-family: BACS"">rdLJavUdm</p>",,,,,,,,,,
html-keyboard-response,47,152854,0.0-8.0-0.39,5fa59d4d5a29c90da975efe9,650c16f0f2faf8d7a0d14c09,651c1d5937a6c0ce934699db,null,null,"<p style=""font-size: 60px; font-family: BACS"">LQurLcO</p>",,,,,,,,,,
html-keyboard-response,48,153867,0.0-8.0-0.40,5fa59d4d5a29c90da975efe9,650c16f0f2faf8d7a0d14c09,651c1d5937a6c0ce934699db,null,null,"<p style=""font-size: 60px; font-family: BACS"">JuamlvAvb</p>",,,,,,,,,,
html-keyboard-response,49,154879,0.0-8.0-0.41,5fa59d4d5a29c90da975efe9,650c16f0f2faf8d7a0d14c09,651c1d5937a6c0ce934699db,null,null,"<p style=""font-size: 60px; font-family: BACS"">ZcGdNYLU</p>",,,,,,,,,,
html-keyboard-response,50,155890,0.0-8.0-0.42,5fa59d4d5a29c90da975efe9,650c16f0f2faf8d7a0d14c09,651c1d5937a6c0ce934699db,null,null,"<p style=""font-size: 60px; font-family: BACS"">KMOcEcR</p>",,,,,,,,,,
html-keyboard-response,51,156903,0.0-8.0-0.43,5fa59d4d5a29c90da975efe9,650c16f0f2faf8d7a0d14c09,651c1d5937a6c0ce934699db,null,null,"<p style=""font-size: 60px; font-family: BACS"">ABPRBTAm</p>",,,,,,,,,,
html-keyboard-response,52,157908,0.0-8.0-0.44,5fa59d4d5a29c90da975efe9,650c16f0f2faf8d7a0d14c09,651c1d5937a6c0ce934699db,null,null,"<p style=""font-size: 60px; font-family: BACS"">KMOcPED</p>",,,,,,,,,,
html-keyboard-response,53,158916,0.0-8.0-0.45,5fa59d4d5a29c90da975efe9,650c16f0f2faf8d7a0d14c09,651c1d5937a6c0ce934699db,null,null,"<p style=""font-size: 60px; font-family: BACS"">dMThkbRC</p>",,,,,,,,,,
html-keyboard-response,54,159923,0.0-8.0-0.46,5fa59d4d5a29c90da975efe9,650c16f0f2faf8d7a0d14c09,651c1d5937a6c0ce934699db,null,null,"<p style=""font-size: 60px; font-family: BACS"">rdLJaYZUZ</p>",,,,,,,,,,
html-keyboard-response,55,160925,0.0-8.0-0.47,5fa59d4d5a29c90da975efe9,650c16f0f2faf8d7a0d14c09,651c1d5937a6c0ce934699db,null,null,"<p style=""font-size: 60px; font-family: BACS"">LQurvAvb</p>",,,,,,,,,,
html-keyboard-response,56,161932,0.0-8.0-0.48,5fa59d4d5a29c90da975efe9,650c16f0f2faf8d7a0d14c09,651c1d5937a6c0ce934699db,null,null,"<p style=""font-size: 60px; font-family: BACS"">LNUrJvUdm</p>",,,,,,,,,,
html-keyboard-response,57,162945,0.0-8.0-0.49,5fa59d4d5a29c90da975efe9,650c16f0f2faf8d7a0d14c09,651c1d5937a6c0ce934699db,null,null,"<p style=""font-size: 60px; font-family: BACS"">vYLULcO</p>",,,,,,,,,,
html-keyboard-response,58,163961,0.0-8.0-0.50,5fa59d4d5a29c90da975efe9,650c16f0f2faf8d7a0d14c09,651c1d5937a6c0ce934699db,null,null,"<p style=""font-size: 60px; font-family: BACS"">NaAQdvUdm</p>",,,,,,,,,,
html-keyboard-response,59,164970,0.0-8.0-0.51,5fa59d4d5a29c90da975efe9,650c16f0f2faf8d7a0d14c09,651c1d5937a6c0ce934699db,null,null,"<p style=""font-size: 60px; font-family: BACS"">rdLJavAvb</p>",,,,,,,,,,
html-keyboard-response,60,165976,0.0-8.0-0.52,5fa59d4d5a29c90da975efe9,650c16f0f2faf8d7a0d14c09,651c1d5937a6c0ce934699db,null,null,"<p style=""font-size: 60px; font-family: BACS"">dMThkPED</p>",,,,,,,,,,
html-keyboard-response,61,166992,0.0-8.0-0.53,5fa59d4d5a29c90da975efe9,650c16f0f2faf8d7a0d14c09,651c1d5937a6c0ce934699db,null,null,"<p style=""font-size: 60px; font-family: BACS"">RdPtDTRkY</p>",,,,,,,,,,
html-keyboard-response,62,168007,0.0-8.0-0.54,5fa59d4d5a29c90da975efe9,650c16f0f2faf8d7a0d14c09,651c1d5937a6c0ce934699db,null,null,"<p style=""font-size: 60px; font-family: BACS"">NaAQdLcO</p>",,,,,,,,,,
html-keyboard-response,63,169015,0.0-8.0-0.55,5fa59d4d5a29c90da975efe9,650c16f0f2faf8d7a0d14c09,651c1d5937a6c0ce934699db,null,null,"<p style=""font-size: 60px; font-family: BACS"">tRdMTRkY</p>",,,,,,,,,,
html-keyboard-response,64,170022,0.0-8.0-0.56,5fa59d4d5a29c90da975efe9,650c16f0f2faf8d7a0d14c09,651c1d5937a6c0ce934699db,null,null,"<p style=""font-size: 60px; font-family: BACS"">LuNZYZUZ</p>",,,,,,,,,,
html-keyboard-response,65,171027,0.0-8.0-0.57,5fa59d4d5a29c90da975efe9,650c16f0f2faf8d7a0d14c09,651c1d5937a6c0ce934699db,null,null,"<p style=""font-size: 60px; font-family: BACS"">AYkEhTRkY</p>",,,,,,,,,,
html-keyboard-response,66,172037,0.0-8.0-0.58,5fa59d4d5a29c90da975efe9,650c16f0f2faf8d7a0d14c09,651c1d5937a6c0ce934699db,null,null,"<p style=""font-size: 60px; font-family: BACS"">RdPtDTAm</p>",,,,,,,,,,
html-keyboard-response,67,173048,0.0-8.0-0.59,5fa59d4d5a29c90da975efe9,650c16f0f2faf8d7a0d14c09,651c1d5937a6c0ce934699db,null,null,"<p style=""font-size: 60px; font-family: BACS"">ABPRBTRkY</p>",,,,,,,,,,
html-keyboard-response,68,174061,0.0-8.0-0.60,5fa59d4d5a29c90da975efe9,650c16f0f2faf8d7a0d14c09,651c1d5937a6c0ce934699db,null,null,"<p style=""font-size: 60px; font-family: BACS"">AYkEhEcR</p>",,,,,,,,,,
html-keyboard-response,69,175072,0.0-8.0-0.61,5fa59d4d5a29c90da975efe9,650c16f0f2faf8d7a0d14c09,651c1d5937a6c0ce934699db,null,null,"<p style=""font-size: 60px; font-family: BACS"">LNUrJvAvb</p>",,,,,,,,,,
html-keyboard-response,70,176074,0.0-8.0-0.62,5fa59d4d5a29c90da975efe9,650c16f0f2faf8d7a0d14c09,651c1d5937a6c0ce934699db,null,null,"<p style=""font-size: 60px; font-family: BACS"">ldAaLcO</p>",,,,,,,,,,
html-keyboard-response,71,177080,0.0-8.0-0.63,5fa59d4d5a29c90da975efe9,650c16f0f2faf8d7a0d14c09,651c1d5937a6c0ce934699db,null,null,"<p style=""font-size: 60px; font-family: BACS"">NaAQdYZUZ</p>",,,,,,,,,,
html-keyboard-response,72,178087,0.0-8.0-0.64,5fa59d4d5a29c90da975efe9,650c16f0f2faf8d7a0d14c09,651c1d5937a6c0ce934699db,null,null,"<p style=""font-size: 60px; font-family: BACS"">MlthbRC</p>",,,,,,,,,,
html-keyboard-response,73,179093,0.0-8.0-0.65,5fa59d4d5a29c90da975efe9,650c16f0f2faf8d7a0d14c09,651c1d5937a6c0ce934699db,null,null,"<p style=""font-size: 60px; font-family: BACS"">LNUrJYLU</p>",,,,,,,,,,
html-keyboard-response,74,180106,0.0-8.0-0.66,5fa59d4d5a29c90da975efe9,650c16f0f2faf8d7a0d14c09,651c1d5937a6c0ce934699db,null,null,"<p style=""font-size: 60px; font-family: BACS"">NulkYZUZ</p>",,,,,,,,,,
html-keyboard-response,75,181119,0.0-8.0-0.67,5fa59d4d5a29c90da975efe9,650c16f0f2faf8d7a0d14c09,651c1d5937a6c0ce934699db,null,null,"<p style=""font-size: 60px; font-family: BACS"">LuNZYLU</p>",,,,,,,,,,
html-keyboard-response,76,182129,0.0-8.0-0.68,5fa59d4d5a29c90da975efe9,650c16f0f2faf8d7a0d14c09,651c1d5937a6c0ce934699db,null,null,"<p style=""font-size: 60px; font-family: BACS"">vYLUvUdm</p>",,,,,,,,,,
html-keyboard-response,77,183135,0.0-8.0-0.69,5fa59d4d5a29c90da975efe9,650c16f0f2faf8d7a0d14c09,651c1d5937a6c0ce934699db,null,null,"<p style=""font-size: 60px; font-family: BACS"">JuamlYLU</p>",,,,,,,,,,
html-keyboard-response,78,184146,0.0-8.0-0.70,5fa59d4d5a29c90da975efe9,650c16f0f2faf8d7a0d14c09,651c1d5937a6c0ce934699db,null,null,"<p style=""font-size: 60px; font-family: BACS"">NulkLcO</p>",,,,,,,,,,
html-keyboard-response,79,185155,0.0-8.0-0.71,5fa59d4d5a29c90da975efe9,650c16f0f2faf8d7a0d14c09,651c1d5937a6c0ce934699db,null,null,"<p style=""font-size: 60px; font-family: BACS"">ldAaYZUZ</p>",,,,,,,,,,
html-keyboard-response,80,186165,0.0-8.0-0.72,5fa59d4d5a29c90da975efe9,650c16f0f2faf8d7a0d14c09,651c1d5937a6c0ce934699db,null,null,"<p style=""font-size: 60px; font-family: BACS"">OEPkPED</p>",,,,,,,,,,
html-keyboard-response,81,187179,0.0-8.0-0.73,5fa59d4d5a29c90da975efe9,650c16f0f2faf8d7a0d14c09,651c1d5937a6c0ce934699db,null,null,"<p style=""font-size: 60px; font-family: BACS"">MTdYbRC</p>",,,,,,,,,,
html-keyboard-response,82,188192,0.0-8.0-0.74,5fa59d4d5a29c90da975efe9,650c16f0f2faf8d7a0d14c09,651c1d5937a6c0ce934699db,null,null,"<p style=""font-size: 60px; font-family: BACS"">ldAaYLU</p>",,,,,,,,,,
html-keyboard-response,83,189195,0.0-8.0-0.75,5fa59d4d5a29c90da975efe9,650c16f0f2faf8d7a0d14c09,651c1d5937a6c0ce934699db,null,null,"<p style=""font-size: 60px; font-family: BACS"">OEPkTAm</p>",,,,,,,,,,
html-keyboard-response,84,190208,0.0-8.0-0.76,5fa59d4d5a29c90da975efe9,650c16f0f2faf8d7a0d14c09,651c1d5937a6c0ce934699db,null,null,"<p style=""font-size: 60px; font-family: BACS"">KMOcTRkY</p>",,,,,,,,,,
html-keyboard-response,85,191217,0.0-8.0-0.77,5fa59d4d5a29c90da975efe9,650c16f0f2faf8d7a0d14c09,651c1d5937a6c0ce934699db,null,null,"<p style=""font-size: 60px; font-family: BACS"">mBmlATAm</p>",,,,,,,,,,
html-keyboard-response,86,192222,0.0-8.0-0.78,5fa59d4d5a29c90da975efe9,650c16f0f2faf8d7a0d14c09,651c1d5937a6c0ce934699db,null,null,"<p style=""font-size: 60px; font-family: BACS"">MlthTRkY</p>",,,,,,,,,,
html-keyboard-response,87,193224,0.0-8.0-0.79,5fa59d4d5a29c90da975efe9,650c16f0f2faf8d7a0d14c09,651c1d5937a6c0ce934699db,null,null,"<p style=""font-size: 60px; font-family: BACS"">ldAavUdm</p>",,,,,,,,,,
html-keyboard-response,88,197446,0.0-9.0,5fa59d4d5a29c90da975efe9,650c16f0f2faf8d7a0d14c09,651c1d5937a6c0ce934699db,4222, ,"<p>Great, you've seen the first block of words. You may now take a short break.</p>
      <p>Press the spacebar when you're ready to continue.</p>",,,,,,,,,,
html-keyboard-response,89,198454,0.0-10.0-0.0,5fa59d4d5a29c90da975efe9,650c16f0f2faf8d7a0d14c09,651c1d5937a6c0ce934699db,null,null,"<p style=""font-size: 60px; font-family: BACS"">ABPRBTRkY</p>",,,,,,,,,,
html-keyboard-response,90,199459,0.0-10.0-0.1,5fa59d4d5a29c90da975efe9,650c16f0f2faf8d7a0d14c09,651c1d5937a6c0ce934699db,null,null,"<p style=""font-size: 60px; font-family: BACS"">LQurvUdm</p>",,,,,,,,,,
html-keyboard-response,91,200473,0.0-10.0-0.2,5fa59d4d5a29c90da975efe9,650c16f0f2faf8d7a0d14c09,651c1d5937a6c0ce934699db,null,null,"<p style=""font-size: 60px; font-family: BACS"">LuNZYZUZ</p>",,,,,,,,,,
html-keyboard-response,92,201486,0.0-10.0-0.3,5fa59d4d5a29c90da975efe9,650c16f0f2faf8d7a0d14c09,651c1d5937a6c0ce934699db,null,null,"<p style=""font-size: 60px; font-family: BACS"">JuamlLcO</p>",,,,,,,,,,
html-keyboard-response,93,202496,0.0-10.0-0.4,5fa59d4d5a29c90da975efe9,650c16f0f2faf8d7a0d14c09,651c1d5937a6c0ce934699db,null,null,"<p style=""font-size: 60px; font-family: BACS"">dMThkEcR</p>",,,,,,,,,,
html-keyboard-response,94,203501,0.0-10.0-0.5,5fa59d4d5a29c90da975efe9,650c16f0f2faf8d7a0d14c09,651c1d5937a6c0ce934699db,null,null,"<p style=""font-size: 60px; font-family: BACS"">ABPRBPED</p>",,,,,,,,,,
html-keyboard-response,95,204512,0.0-10.0-0.6,5fa59d4d5a29c90da975efe9,650c16f0f2faf8d7a0d14c09,651c1d5937a6c0ce934699db,null,null,"<p style=""font-size: 60px; font-family: BACS"">ZcGdNvUdm</p>",,,,,,,,,,
html-keyboard-response,96,205523,0.0-10.0-0.7,5fa59d4d5a29c90da975efe9,650c16f0f2faf8d7a0d14c09,651c1d5937a6c0ce934699db,null,null,"<p style=""font-size: 60px; font-family: BACS"">vYLUvAvb</p>",,,,,,,,,,
html-keyboard-response,97,206535,0.0-10.0-0.8,5fa59d4d5a29c90da975efe9,650c16f0f2faf8d7a0d14c09,651c1d5937a6c0ce934699db,null,null,"<p style=""font-size: 60px; font-family: BACS"">tRdMPED</p>",,,,,,,,,,
html-keyboard-response,98,207538,0.0-10.0-0.9,5fa59d4d5a29c90da975efe9,650c16f0f2faf8d7a0d14c09,651c1d5937a6c0ce934699db,null,null,"<p style=""font-size: 60px; font-family: BACS"">OEPkTAm</p>",,,,,,,,,,
html-keyboard-response,99,208541,0.0-10.0-0.10,5fa59d4d5a29c90da975efe9,650c16f0f2faf8d7a0d14c09,651c1d5937a6c0ce934699db,null,null,"<p style=""font-size: 60px; font-family: BACS"">JuamlYZUZ</p>",,,,,,,,,,
html-keyboard-response,100,209556,0.0-10.0-0.11,5fa59d4d5a29c90da975efe9,650c16f0f2faf8d7a0d14c09,651c1d5937a6c0ce934699db,null,null,"<p style=""font-size: 60px; font-family: BACS"">NaAQdvUdm</p>",,,,,,,,,,
html-keyboard-response,101,210565,0.0-10.0-0.12,5fa59d4d5a29c90da975efe9,650c16f0f2faf8d7a0d14c09,651c1d5937a6c0ce934699db,null,null,"<p style=""font-size: 60px; font-family: BACS"">MlthbRC</p>",,,,,,,,,,
html-keyboard-response,102,211580,0.0-10.0-0.13,5fa59d4d5a29c90da975efe9,650c16f0f2faf8d7a0d14c09,651c1d5937a6c0ce934699db,null,null,"<p style=""font-size: 60px; font-family: BACS"">tRdMTRkY</p>",,,,,,,,,,
html-keyboard-response,103,212589,0.0-10.0-0.14,5fa59d4d5a29c90da975efe9,650c16f0f2faf8d7a0d14c09,651c1d5937a6c0ce934699db,null,null,"<p style=""font-size: 60px; font-family: BACS"">rdLJavAvb</p>",,,,,,,,,,
html-keyboard-response,104,213596,0.0-10.0-0.15,5fa59d4d5a29c90da975efe9,650c16f0f2faf8d7a0d14c09,651c1d5937a6c0ce934699db,null,null,"<p style=""font-size: 60px; font-family: BACS"">MTdYEcR</p>",,,,,,,,,,
html-keyboard-response,105,214597,0.0-10.0-0.16,5fa59d4d5a29c90da975efe9,650c16f0f2faf8d7a0d14c09,651c1d5937a6c0ce934699db,null,null,"<p style=""font-size: 60px; font-family: BACS"">AYkEhbRC</p>",,,,,,,,,,
html-keyboard-response,106,215604,0.0-10.0-0.17,5fa59d4d5a29c90da975efe9,650c16f0f2faf8d7a0d14c09,651c1d5937a6c0ce934699db,null,null,"<p style=""font-size: 60px; font-family: BACS"">ldAaYZUZ</p>",,,,,,,,,,
html-keyboard-response,107,216613,0.0-10.0-0.18,5fa59d4d5a29c90da975efe9,650c16f0f2faf8d7a0d14c09,651c1d5937a6c0ce934699db,null,null,"<p style=""font-size: 60px; font-family: BACS"">rdLJaLcO</p>",,,,,,,,,,
html-keyboard-response,108,217614,0.0-10.0-0.19,5fa59d4d5a29c90da975efe9,650c16f0f2faf8d7a0d14c09,651c1d5937a6c0ce934699db,null,null,"<p style=""font-size: 60px; font-family: BACS"">MlthTRkY</p>",,,,,,,,,,
html-keyboard-response,109,218616,0.0-10.0-0.20,5fa59d4d5a29c90da975efe9,650c16f0f2faf8d7a0d14c09,651c1d5937a6c0ce934699db,null,null,"<p style=""font-size: 60px; font-family: BACS"">JuamlYLU</p>",,,,,,,,,,
html-keyboard-response,110,219631,0.0-10.0-0.21,5fa59d4d5a29c90da975efe9,650c16f0f2faf8d7a0d14c09,651c1d5937a6c0ce934699db,null,null,"<p style=""font-size: 60px; font-family: BACS"">NulkLcO</p>",,,,,,,,,,
html-keyboard-response,111,220632,0.0-10.0-0.22,5fa59d4d5a29c90da975efe9,650c16f0f2faf8d7a0d14c09,651c1d5937a6c0ce934699db,null,null,"<p style=""font-size: 60px; font-family: BACS"">ABPRBTAm</p>",,,,,,,,,,
html-keyboard-response,112,221639,0.0-10.0-0.23,5fa59d4d5a29c90da975efe9,650c16f0f2faf8d7a0d14c09,651c1d5937a6c0ce934699db,null,null,"<p style=""font-size: 60px; font-family: BACS"">LQurYLU</p>",,,,,,,,,,
html-keyboard-response,113,222641,0.0-10.0-0.24,5fa59d4d5a29c90da975efe9,650c16f0f2faf8d7a0d14c09,651c1d5937a6c0ce934699db,null,null,"<p style=""font-size: 60px; font-family: BACS"">ldAaLcO</p>",,,,,,,,,,
html-keyboard-response,114,223646,0.0-10.0-0.25,5fa59d4d5a29c90da975efe9,650c16f0f2faf8d7a0d14c09,651c1d5937a6c0ce934699db,null,null,"<p style=""font-size: 60px; font-family: BACS"">MTdYTAm</p>",,,,,,,,,,
html-keyboard-response,115,224659,0.0-10.0-0.26,5fa59d4d5a29c90da975efe9,650c16f0f2faf8d7a0d14c09,651c1d5937a6c0ce934699db,null,null,"<p style=""font-size: 60px; font-family: BACS"">LuNZvUdm</p>",,,,,,,,,,
html-keyboard-response,116,225669,0.0-10.0-0.27,5fa59d4d5a29c90da975efe9,650c16f0f2faf8d7a0d14c09,651c1d5937a6c0ce934699db,null,null,"<p style=""font-size: 60px; font-family: BACS"">dMThkTAm</p>",,,,,,,,,,
html-keyboard-response,117,226682,0.0-10.0-0.28,5fa59d4d5a29c90da975efe9,650c16f0f2faf8d7a0d14c09,651c1d5937a6c0ce934699db,null,null,"<p style=""font-size: 60px; font-family: BACS"">JuamlvAvb</p>",,,,,,,,,,
html-keyboard-response,118,227683,0.0-10.0-0.29,5fa59d4d5a29c90da975efe9,650c16f0f2faf8d7a0d14c09,651c1d5937a6c0ce934699db,null,null,"<p style=""font-size: 60px; font-family: BACS"">NaAQdLcO</p>",,,,,,,,,,
html-keyboard-response,119,228688,0.0-10.0-0.30,5fa59d4d5a29c90da975efe9,650c16f0f2faf8d7a0d14c09,651c1d5937a6c0ce934699db,null,null,"<p style=""font-size: 60px; font-family: BACS"">OEPkEcR</p>",,,,,,,,,,
html-keyboard-response,120,229694,0.0-10.0-0.31,5fa59d4d5a29c90da975efe9,650c16f0f2faf8d7a0d14c09,651c1d5937a6c0ce934699db,null,null,"<p style=""font-size: 60px; font-family: BACS"">MlthTAm</p>",,,,,,,,,,
html-keyboard-response,121,230708,0.0-10.0-0.32,5fa59d4d5a29c90da975efe9,650c16f0f2faf8d7a0d14c09,651c1d5937a6c0ce934699db,null,null,"<p style=""font-size: 60px; font-family: BACS"">RdPtDTRkY</p>",,,,,,,,,,
html-keyboard-response,122,231720,0.0-10.0-0.33,5fa59d4d5a29c90da975efe9,650c16f0f2faf8d7a0d14c09,651c1d5937a6c0ce934699db,null,null,"<p style=""font-size: 60px; font-family: BACS"">rdLJaYZUZ</p>",,,,,,,,,,
html-keyboard-response,123,232728,0.0-10.0-0.34,5fa59d4d5a29c90da975efe9,650c16f0f2faf8d7a0d14c09,651c1d5937a6c0ce934699db,null,null,"<p style=""font-size: 60px; font-family: BACS"">LQurvAvb</p>",,,,,,,,,,
html-keyboard-response,124,233728,0.0-10.0-0.35,5fa59d4d5a29c90da975efe9,650c16f0f2faf8d7a0d14c09,651c1d5937a6c0ce934699db,null,null,"<p style=""font-size: 60px; font-family: BACS"">mBmlAPED</p>",,,,,,,,,,
html-keyboard-response,125,234742,0.0-10.0-0.36,5fa59d4d5a29c90da975efe9,650c16f0f2faf8d7a0d14c09,651c1d5937a6c0ce934699db,null,null,"<p style=""font-size: 60px; font-family: BACS"">LNUrJvUdm</p>",,,,,,,,,,
html-keyboard-response,126,235757,0.0-10.0-0.37,5fa59d4d5a29c90da975efe9,650c16f0f2faf8d7a0d14c09,651c1d5937a6c0ce934699db,null,null,"<p style=""font-size: 60px; font-family: BACS"">LuNZYLU</p>",,,,,,,,,,
html-keyboard-response,127,236762,0.0-10.0-0.38,5fa59d4d5a29c90da975efe9,650c16f0f2faf8d7a0d14c09,651c1d5937a6c0ce934699db,null,null,"<p style=""font-size: 60px; font-family: BACS"">RdPtDTAm</p>",,,,,,,,,,
html-keyboard-response,128,237775,0.0-10.0-0.39,5fa59d4d5a29c90da975efe9,650c16f0f2faf8d7a0d14c09,651c1d5937a6c0ce934699db,null,null,"<p style=""font-size: 60px; font-family: BACS"">OEPkPED</p>",,,,,,,,,,
html-keyboard-response,129,238777,0.0-10.0-0.40,5fa59d4d5a29c90da975efe9,650c16f0f2faf8d7a0d14c09,651c1d5937a6c0ce934699db,null,null,"<p style=""font-size: 60px; font-family: BACS"">KMOcEcR</p>",,,,,,,,,,
html-keyboard-response,130,239788,0.0-10.0-0.41,5fa59d4d5a29c90da975efe9,650c16f0f2faf8d7a0d14c09,651c1d5937a6c0ce934699db,null,null,"<p style=""font-size: 60px; font-family: BACS"">RdPtDPED</p>",,,,,,,,,,
html-keyboard-response,131,240801,0.0-10.0-0.42,5fa59d4d5a29c90da975efe9,650c16f0f2faf8d7a0d14c09,651c1d5937a6c0ce934699db,null,null,"<p style=""font-size: 60px; font-family: BACS"">KMOcTRkY</p>",,,,,,,,,,
html-keyboard-response,132,241811,0.0-10.0-0.43,5fa59d4d5a29c90da975efe9,650c16f0f2faf8d7a0d14c09,651c1d5937a6c0ce934699db,null,null,"<p style=""font-size: 60px; font-family: BACS"">RdPtDbRC</p>",,,,,,,,,,
html-keyboard-response,133,242820,0.0-10.0-0.44,5fa59d4d5a29c90da975efe9,650c16f0f2faf8d7a0d14c09,651c1d5937a6c0ce934699db,null,null,"<p style=""font-size: 60px; font-family: BACS"">NaAQdYZUZ</p>",,,,,,,,,,
html-keyboard-response,134,243836,0.0-10.0-0.45,5fa59d4d5a29c90da975efe9,650c16f0f2faf8d7a0d14c09,651c1d5937a6c0ce934699db,null,null,"<p style=""font-size: 60px; font-family: BACS"">rdLJavUdm</p>",,,,,,,,,,
html-keyboard-response,135,244850,0.0-10.0-0.46,5fa59d4d5a29c90da975efe9,650c16f0f2faf8d7a0d14c09,651c1d5937a6c0ce934699db,null,null,"<p style=""font-size: 60px; font-family: BACS"">MlthEcR</p>",,,,,,,,,,
html-keyboard-response,136,245855,0.0-10.0-0.47,5fa59d4d5a29c90da975efe9,650c16f0f2faf8d7a0d14c09,651c1d5937a6c0ce934699db,null,null,"<p style=""font-size: 60px; font-family: BACS"">mBmlATAm</p>",,,,,,,,,,
html-keyboard-response,137,246860,0.0-10.0-0.48,5fa59d4d5a29c90da975efe9,650c16f0f2faf8d7a0d14c09,651c1d5937a6c0ce934699db,null,null,"<p style=""font-size: 60px; font-family: BACS"">ZcGdNvAvb</p>",,,,,,,,,,
html-keyboard-response,138,247867,0.0-10.0-0.49,5fa59d4d5a29c90da975efe9,650c16f0f2faf8d7a0d14c09,651c1d5937a6c0ce934699db,null,null,"<p style=""font-size: 60px; font-family: BACS"">OEPkTRkY</p>",,,,,,,,,,
html-keyboard-response,139,248873,0.0-10.0-0.50,5fa59d4d5a29c90da975efe9,650c16f0f2faf8d7a0d14c09,651c1d5937a6c0ce934699db,null,null,"<p style=""font-size: 60px; font-family: BACS"">MTdYbRC</p>",,,,,,,,,,
html-keyboard-response,140,249888,0.0-10.0-0.51,5fa59d4d5a29c90da975efe9,650c16f0f2faf8d7a0d14c09,651c1d5937a6c0ce934699db,null,null,"<p style=""font-size: 60px; font-family: BACS"">tRdMEcR</p>",,,,,,,,,,
html-keyboard-response,141,250900,0.0-10.0-0.52,5fa59d4d5a29c90da975efe9,650c16f0f2faf8d7a0d14c09,651c1d5937a6c0ce934699db,null,null,"<p style=""font-size: 60px; font-family: BACS"">vYLUvUdm</p>",,,,,,,,,,
html-keyboard-response,142,251912,0.0-10.0-0.53,5fa59d4d5a29c90da975efe9,650c16f0f2faf8d7a0d14c09,651c1d5937a6c0ce934699db,null,null,"<p style=""font-size: 60px; font-family: BACS"">KMOcPED</p>",,,,,,,,,,
html-keyboard-response,143,252915,0.0-10.0-0.54,5fa59d4d5a29c90da975efe9,650c16f0f2faf8d7a0d14c09,651c1d5937a6c0ce934699db,null,null,"<p style=""font-size: 60px; font-family: BACS"">mBmlAbRC</p>",,,,,,,,,,
html-keyboard-response,144,253919,0.0-10.0-0.55,5fa59d4d5a29c90da975efe9,650c16f0f2faf8d7a0d14c09,651c1d5937a6c0ce934699db,null,null,"<p style=""font-size: 60px; font-family: BACS"">dMThkPED</p>",,,,,,,,,,
html-keyboard-response,145,254921,0.0-10.0-0.56,5fa59d4d5a29c90da975efe9,650c16f0f2faf8d7a0d14c09,651c1d5937a6c0ce934699db,null,null,"<p style=""font-size: 60px; font-family: BACS"">tRdMbRC</p>",,,,,,,,,,
html-keyboard-response,146,255936,0.0-10.0-0.57,5fa59d4d5a29c90da975efe9,650c16f0f2faf8d7a0d14c09,651c1d5937a6c0ce934699db,null,null,"<p style=""font-size: 60px; font-family: BACS"">LQurLcO</p>",,,,,,,,,,
html-keyboard-response,147,256950,0.0-10.0-0.58,5fa59d4d5a29c90da975efe9,650c16f0f2faf8d7a0d14c09,651c1d5937a6c0ce934699db,null,null,"<p style=""font-size: 60px; font-family: BACS"">AYkEhTAm</p>",,,,,,,,,,
html-keyboard-response,148,257958,0.0-10.0-0.59,5fa59d4d5a29c90da975efe9,650c16f0f2faf8d7a0d14c09,651c1d5937a6c0ce934699db,null,null,"<p style=""font-size: 60px; font-family: BACS"">dMThkbRC</p>",,,,,,,,,,
html-keyboard-response,149,258965,0.0-10.0-0.60,5fa59d4d5a29c90da975efe9,650c16f0f2faf8d7a0d14c09,651c1d5937a6c0ce934699db,null,null,"<p style=""font-size: 60px; font-family: BACS"">ZcGdNYLU</p>",,,,,,,,,,
html-keyboard-response,150,259974,0.0-10.0-0.61,5fa59d4d5a29c90da975efe9,650c16f0f2faf8d7a0d14c09,651c1d5937a6c0ce934699db,null,null,"<p style=""font-size: 60px; font-family: BACS"">AYkEhTRkY</p>",,,,,,,,,,
html-keyboard-response,151,260977,0.0-10.0-0.62,5fa59d4d5a29c90da975efe9,650c16f0f2faf8d7a0d14c09,651c1d5937a6c0ce934699db,null,null,"<p style=""font-size: 60px; font-family: BACS"">LuNZvAvb</p>",,,,,,,,,,
html-keyboard-response,152,261987,0.0-10.0-0.63,5fa59d4d5a29c90da975efe9,650c16f0f2faf8d7a0d14c09,651c1d5937a6c0ce934699db,null,null,"<p style=""font-size: 60px; font-family: BACS"">LNUrJYZUZ</p>",,,,,,,,,,
html-keyboard-response,153,262994,0.0-10.0-0.64,5fa59d4d5a29c90da975efe9,650c16f0f2faf8d7a0d14c09,651c1d5937a6c0ce934699db,null,null,"<p style=""font-size: 60px; font-family: BACS"">ABPRBEcR</p>",,,,,,,,,,
html-keyboard-response,154,264003,0.0-10.0-0.65,5fa59d4d5a29c90da975efe9,650c16f0f2faf8d7a0d14c09,651c1d5937a6c0ce934699db,null,null,"<p style=""font-size: 60px; font-family: BACS"">MTdYPED</p>",,,,,,,,,,
html-keyboard-response,155,265006,0.0-10.0-0.66,5fa59d4d5a29c90da975efe9,650c16f0f2faf8d7a0d14c09,651c1d5937a6c0ce934699db,null,null,"<p style=""font-size: 60px; font-family: BACS"">NaAQdYLU</p>",,,,,,,,,,
html-keyboard-response,156,266011,0.0-10.0-0.67,5fa59d4d5a29c90da975efe9,650c16f0f2faf8d7a0d14c09,651c1d5937a6c0ce934699db,null,null,"<p style=""font-size: 60px; font-family: BACS"">LNUrJvAvb</p>",,,,,,,,,,
html-keyboard-response,157,267024,0.0-10.0-0.68,5fa59d4d5a29c90da975efe9,650c16f0f2faf8d7a0d14c09,651c1d5937a6c0ce934699db,null,null,"<p style=""font-size: 60px; font-family: BACS"">AYkEhEcR</p>",,,,,,,,,,
html-keyboard-response,158,268040,0.0-10.0-0.69,5fa59d4d5a29c90da975efe9,650c16f0f2faf8d7a0d14c09,651c1d5937a6c0ce934699db,null,null,"<p style=""font-size: 60px; font-family: BACS"">NulkYZUZ</p>",,,,,,,,,,
html-keyboard-response,159,269050,0.0-10.0-0.70,5fa59d4d5a29c90da975efe9,650c16f0f2faf8d7a0d14c09,651c1d5937a6c0ce934699db,null,null,"<p style=""font-size: 60px; font-family: BACS"">vYLULcO</p>",,,,,,,,,,
html-keyboard-response,160,270051,0.0-10.0-0.71,5fa59d4d5a29c90da975efe9,650c16f0f2faf8d7a0d14c09,651c1d5937a6c0ce934699db,null,null,"<p style=""font-size: 60px; font-family: BACS"">NulkYLU</p>",,,,,,,,,,
html-keyboard-response,161,271060,0.0-10.0-0.72,5fa59d4d5a29c90da975efe9,650c16f0f2faf8d7a0d14c09,651c1d5937a6c0ce934699db,null,null,"<p style=""font-size: 60px; font-family: BACS"">vYLUYZUZ</p>",,,,,,,,,,
html-keyboard-response,162,272073,0.0-10.0-0.73,5fa59d4d5a29c90da975efe9,650c16f0f2faf8d7a0d14c09,651c1d5937a6c0ce934699db,null,null,"<p style=""font-size: 60px; font-family: BACS"">ldAavUdm</p>",,,,,,,,,,
html-keyboard-response,163,273076,0.0-10.0-0.74,5fa59d4d5a29c90da975efe9,650c16f0f2faf8d7a0d14c09,651c1d5937a6c0ce934699db,null,null,"<p style=""font-size: 60px; font-family: BACS"">KMOcbRC</p>",,,,,,,,,,
html-keyboard-response,164,274086,0.0-10.0-0.75,5fa59d4d5a29c90da975efe9,650c16f0f2faf8d7a0d14c09,651c1d5937a6c0ce934699db,null,null,"<p style=""font-size: 60px; font-family: BACS"">mBmlATRkY</p>",,,,,,,,,,
html-keyboard-response,165,275088,0.0-10.0-0.76,5fa59d4d5a29c90da975efe9,650c16f0f2faf8d7a0d14c09,651c1d5937a6c0ce934699db,null,null,"<p style=""font-size: 60px; font-family: BACS"">LNUrJYLU</p>",,,,,,,,,,
html-keyboard-response,166,276089,0.0-10.0-0.77,5fa59d4d5a29c90da975efe9,650c16f0f2faf8d7a0d14c09,651c1d5937a6c0ce934699db,null,null,"<p style=""font-size: 60px; font-family: BACS"">NulkvAvb</p>",,,,,,,,,,
html-keyboard-response,167,277101,0.0-10.0-0.78,5fa59d4d5a29c90da975efe9,650c16f0f2faf8d7a0d14c09,651c1d5937a6c0ce934699db,null,null,"<p style=""font-size: 60px; font-family: BACS"">ZcGdNLcO</p>",,,,,,,,,,
html-keyboard-response,168,278107,0.0-10.0-0.79,5fa59d4d5a29c90da975efe9,650c16f0f2faf8d7a0d14c09,651c1d5937a6c0ce934699db,null,null,"<p style=""font-size: 60px; font-family: BACS"">ldAaYLU</p>",,,,,,,,,,
html-keyboard-response,169,281760,0.0-11.0,5fa59d4d5a29c90da975efe9,650c16f0f2faf8d7a0d14c09,651c1d5937a6c0ce934699db,3653, ,"<p>Great, you've seen the second block of words. You may now take a short break.</p>
      <p>Press the spacebar when you're ready to continue.</p>",,,,,,,,,,
html-keyboard-response,170,282776,0.0-12.0-0.0,5fa59d4d5a29c90da975efe9,650c16f0f2faf8d7a0d14c09,651c1d5937a6c0ce934699db,null,null,"<p style=""font-size: 60px; font-family: BACS"">LNUrJYLU</p>",,,,,,,,,,
html-keyboard-response,171,283784,0.0-12.0-0.1,5fa59d4d5a29c90da975efe9,650c16f0f2faf8d7a0d14c09,651c1d5937a6c0ce934699db,null,null,"<p style=""font-size: 60px; font-family: BACS"">dMThkEcR</p>",,,,,,,,,,
html-keyboard-response,172,284791,0.0-12.0-0.2,5fa59d4d5a29c90da975efe9,650c16f0f2faf8d7a0d14c09,651c1d5937a6c0ce934699db,null,null,"<p style=""font-size: 60px; font-family: BACS"">NaAQdYZUZ</p>",,,,,,,,,,
html-keyboard-response,173,285800,0.0-12.0-0.3,5fa59d4d5a29c90da975efe9,650c16f0f2faf8d7a0d14c09,651c1d5937a6c0ce934699db,null,null,"<p style=""font-size: 60px; font-family: BACS"">KMOcTRkY</p>",,,,,,,,,,
html-keyboard-response,174,286813,0.0-12.0-0.4,5fa59d4d5a29c90da975efe9,650c16f0f2faf8d7a0d14c09,651c1d5937a6c0ce934699db,null,null,"<p style=""font-size: 60px; font-family: BACS"">MTdYEcR</p>",,,,,,,,,,
html-keyboard-response,175,287828,0.0-12.0-0.5,5fa59d4d5a29c90da975efe9,650c16f0f2faf8d7a0d14c09,651c1d5937a6c0ce934699db,null,null,"<p style=""font-size: 60px; font-family: BACS"">OEPkPED</p>",,,,,,,,,,
html-keyboard-response,176,288830,0.0-12.0-0.6,5fa59d4d5a29c90da975efe9,650c16f0f2faf8d7a0d14c09,651c1d5937a6c0ce934699db,null,null,"<p style=""font-size: 60px; font-family: BACS"">LQurLcO</p>",,,,,,,,,,
html-keyboard-response,177,289831,0.0-12.0-0.7,5fa59d4d5a29c90da975efe9,650c16f0f2faf8d7a0d14c09,651c1d5937a6c0ce934699db,null,null,"<p style=""font-size: 60px; font-family: BACS"">rdLJavAvb</p>",,,,,,,,,,
html-keyboard-response,178,290843,0.0-12.0-0.8,5fa59d4d5a29c90da975efe9,650c16f0f2faf8d7a0d14c09,651c1d5937a6c0ce934699db,null,null,"<p style=""font-size: 60px; font-family: BACS"">ABPRBPED</p>",,,,,,,,,,
html-keyboard-response,179,291855,0.0-12.0-0.9,5fa59d4d5a29c90da975efe9,650c16f0f2faf8d7a0d14c09,651c1d5937a6c0ce934699db,null,null,"<p style=""font-size: 60px; font-family: BACS"">RdPtDTRkY</p>",,,,,,,,,,
html-keyboard-response,180,292865,0.0-12.0-0.10,5fa59d4d5a29c90da975efe9,650c16f0f2faf8d7a0d14c09,651c1d5937a6c0ce934699db,null,null,"<p style=""font-size: 60px; font-family: BACS"">LNUrJvAvb</p>",,,,,,,,,,
html-keyboard-response,181,293874,0.0-12.0-0.11,5fa59d4d5a29c90da975efe9,650c16f0f2faf8d7a0d14c09,651c1d5937a6c0ce934699db,null,null,"<p style=""font-size: 60px; font-family: BACS"">MTdYbRC</p>",,,,,,,,,,
html-keyboard-response,182,294878,0.0-12.0-0.12,5fa59d4d5a29c90da975efe9,650c16f0f2faf8d7a0d14c09,651c1d5937a6c0ce934699db,null,null,"<p style=""font-size: 60px; font-family: BACS"">LQurvUdm</p>",,,,,,,,,,
html-keyboard-response,183,295882,0.0-12.0-0.13,5fa59d4d5a29c90da975efe9,650c16f0f2faf8d7a0d14c09,651c1d5937a6c0ce934699db,null,null,"<p style=""font-size: 60px; font-family: BACS"">JuamlLcO</p>",,,,,,,,,,
html-keyboard-response,184,296883,0.0-12.0-0.14,5fa59d4d5a29c90da975efe9,650c16f0f2faf8d7a0d14c09,651c1d5937a6c0ce934699db,null,null,"<p style=""font-size: 60px; font-family: BACS"">MlthEcR</p>",,,,,,,,,,
html-keyboard-response,185,297892,0.0-12.0-0.15,5fa59d4d5a29c90da975efe9,650c16f0f2faf8d7a0d14c09,651c1d5937a6c0ce934699db,null,null,"<p style=""font-size: 60px; font-family: BACS"">ZcGdNYLU</p>",,,,,,,,,,
html-keyboard-response,186,298907,0.0-12.0-0.16,5fa59d4d5a29c90da975efe9,650c16f0f2faf8d7a0d14c09,651c1d5937a6c0ce934699db,null,null,"<p style=""font-size: 60px; font-family: BACS"">AYkEhbRC</p>",,,,,,,,,,
html-keyboard-response,187,299917,0.0-12.0-0.17,5fa59d4d5a29c90da975efe9,650c16f0f2faf8d7a0d14c09,651c1d5937a6c0ce934699db,null,null,"<p style=""font-size: 60px; font-family: BACS"">NaAQdvUdm</p>",,,,,,,,,,
html-keyboard-response,188,300932,0.0-12.0-0.18,5fa59d4d5a29c90da975efe9,650c16f0f2faf8d7a0d14c09,651c1d5937a6c0ce934699db,null,null,"<p style=""font-size: 60px; font-family: BACS"">KMOcEcR</p>",,,,,,,,,,
html-keyboard-response,189,301933,0.0-12.0-0.19,5fa59d4d5a29c90da975efe9,650c16f0f2faf8d7a0d14c09,651c1d5937a6c0ce934699db,null,null,"<p style=""font-size: 60px; font-family: BACS"">NulkLcO</p>",,,,,,,,,,
html-keyboard-response,190,302941,0.0-12.0-0.20,5fa59d4d5a29c90da975efe9,650c16f0f2faf8d7a0d14c09,651c1d5937a6c0ce934699db,null,null,"<p style=""font-size: 60px; font-family: BACS"">dMThkbRC</p>",,,,,,,,,,
html-keyboard-response,191,303954,0.0-12.0-0.21,5fa59d4d5a29c90da975efe9,650c16f0f2faf8d7a0d14c09,651c1d5937a6c0ce934699db,null,null,"<p style=""font-size: 60px; font-family: BACS"">ABPRBTRkY</p>",,,,,,,,,,
html-keyboard-response,192,304964,0.0-12.0-0.22,5fa59d4d5a29c90da975efe9,650c16f0f2faf8d7a0d14c09,651c1d5937a6c0ce934699db,null,null,"<p style=""font-size: 60px; font-family: BACS"">LuNZvAvb</p>",,,,,,,,,,
html-keyboard-response,193,305968,0.0-12.0-0.23,5fa59d4d5a29c90da975efe9,650c16f0f2faf8d7a0d14c09,651c1d5937a6c0ce934699db,null,null,"<p style=""font-size: 60px; font-family: BACS"">vYLULcO</p>",,,,,,,,,,
html-keyboard-response,194,306975,0.0-12.0-0.24,5fa59d4d5a29c90da975efe9,650c16f0f2faf8d7a0d14c09,651c1d5937a6c0ce934699db,null,null,"<p style=""font-size: 60px; font-family: BACS"">RdPtDPED</p>",,,,,,,,,,
html-keyboard-response,195,307990,0.0-12.0-0.25,5fa59d4d5a29c90da975efe9,650c16f0f2faf8d7a0d14c09,651c1d5937a6c0ce934699db,null,null,"<p style=""font-size: 60px; font-family: BACS"">vYLUYZUZ</p>",,,,,,,,,,
html-keyboard-response,196,308995,0.0-12.0-0.26,5fa59d4d5a29c90da975efe9,650c16f0f2faf8d7a0d14c09,651c1d5937a6c0ce934699db,null,null,"<p style=""font-size: 60px; font-family: BACS"">MlthbRC</p>",,,,,,,,,,
html-keyboard-response,197,309998,0.0-12.0-0.27,5fa59d4d5a29c90da975efe9,650c16f0f2faf8d7a0d14c09,651c1d5937a6c0ce934699db,null,null,"<p style=""font-size: 60px; font-family: BACS"">tRdMPED</p>",,,,,,,,,,
html-keyboard-response,198,311012,0.0-12.0-0.28,5fa59d4d5a29c90da975efe9,650c16f0f2faf8d7a0d14c09,651c1d5937a6c0ce934699db,null,null,"<p style=""font-size: 60px; font-family: BACS"">mBmlATAm</p>",,,,,,,,,,
html-keyboard-response,199,312024,0.0-12.0-0.29,5fa59d4d5a29c90da975efe9,650c16f0f2faf8d7a0d14c09,651c1d5937a6c0ce934699db,null,null,"<p style=""font-size: 60px; font-family: BACS"">NulkYLU</p>",,,,,,,,,,
html-keyboard-response,200,313030,0.0-12.0-0.30,5fa59d4d5a29c90da975efe9,650c16f0f2faf8d7a0d14c09,651c1d5937a6c0ce934699db,null,null,"<p style=""font-size: 60px; font-family: BACS"">mBmlAPED</p>",,,,,,,,,,
html-keyboard-response,201,314031,0.0-12.0-0.31,5fa59d4d5a29c90da975efe9,650c16f0f2faf8d7a0d14c09,651c1d5937a6c0ce934699db,null,null,"<p style=""font-size: 60px; font-family: BACS"">JuamlYLU</p>",,,,,,,,,,
html-keyboard-response,202,315042,0.0-12.0-0.32,5fa59d4d5a29c90da975efe9,650c16f0f2faf8d7a0d14c09,651c1d5937a6c0ce934699db,null,null,"<p style=""font-size: 60px; font-family: BACS"">ldAavUdm</p>",,,,,,,,,,
html-keyboard-response,203,316049,0.0-12.0-0.33,5fa59d4d5a29c90da975efe9,650c16f0f2faf8d7a0d14c09,651c1d5937a6c0ce934699db,null,null,"<p style=""font-size: 60px; font-family: BACS"">RdPtDTAm</p>",,,,,,,,,,
html-keyboard-response,204,317049,0.0-12.0-0.34,5fa59d4d5a29c90da975efe9,650c16f0f2faf8d7a0d14c09,651c1d5937a6c0ce934699db,null,null,"<p style=""font-size: 60px; font-family: BACS"">dMThkPED</p>",,,,,,,,,,
html-keyboard-response,205,318063,0.0-12.0-0.35,5fa59d4d5a29c90da975efe9,650c16f0f2faf8d7a0d14c09,651c1d5937a6c0ce934699db,null,null,"<p style=""font-size: 60px; font-family: BACS"">LQurYLU</p>",,,,,,,,,,
html-keyboard-response,206,319066,0.0-12.0-0.36,5fa59d4d5a29c90da975efe9,650c16f0f2faf8d7a0d14c09,651c1d5937a6c0ce934699db,null,null,"<p style=""font-size: 60px; font-family: BACS"">tRdMbRC</p>",,,,,,,,,,
html-keyboard-response,207,320076,0.0-12.0-0.37,5fa59d4d5a29c90da975efe9,650c16f0f2faf8d7a0d14c09,651c1d5937a6c0ce934699db,null,null,"<p style=""font-size: 60px; font-family: BACS"">OEPkEcR</p>",,,,,,,,,,
html-keyboard-response,208,321080,0.0-12.0-0.38,5fa59d4d5a29c90da975efe9,650c16f0f2faf8d7a0d14c09,651c1d5937a6c0ce934699db,null,null,"<p style=""font-size: 60px; font-family: BACS"">ZcGdNLcO</p>",,,,,,,,,,
html-keyboard-response,209,322082,0.0-12.0-0.39,5fa59d4d5a29c90da975efe9,650c16f0f2faf8d7a0d14c09,651c1d5937a6c0ce934699db,null,null,"<p style=""font-size: 60px; font-family: BACS"">ABPRBTAm</p>",,,,,,,,,,
html-keyboard-response,210,323086,0.0-12.0-0.40,5fa59d4d5a29c90da975efe9,650c16f0f2faf8d7a0d14c09,651c1d5937a6c0ce934699db,null,null,"<p style=""font-size: 60px; font-family: BACS"">ZcGdNvAvb</p>",,,,,,,,,,
html-keyboard-response,211,324099,0.0-12.0-0.41,5fa59d4d5a29c90da975efe9,650c16f0f2faf8d7a0d14c09,651c1d5937a6c0ce934699db,null,null,"<p style=""font-size: 60px; font-family: BACS"">ldAaLcO</p>",,,,,,,,,,
html-keyboard-response,212,325106,0.0-12.0-0.42,5fa59d4d5a29c90da975efe9,650c16f0f2faf8d7a0d14c09,651c1d5937a6c0ce934699db,null,null,"<p style=""font-size: 60px; font-family: BACS"">RdPtDbRC</p>",,,,,,,,,,
html-keyboard-response,213,326122,0.0-12.0-0.43,5fa59d4d5a29c90da975efe9,650c16f0f2faf8d7a0d14c09,651c1d5937a6c0ce934699db,null,null,"<p style=""font-size: 60px; font-family: BACS"">ZcGdNvUdm</p>",,,,,,,,,,
html-keyboard-response,214,327135,0.0-12.0-0.44,5fa59d4d5a29c90da975efe9,650c16f0f2faf8d7a0d14c09,651c1d5937a6c0ce934699db,null,null,"<p style=""font-size: 60px; font-family: BACS"">LuNZYLU</p>",,,,,,,,,,
html-keyboard-response,215,328137,0.0-12.0-0.45,5fa59d4d5a29c90da975efe9,650c16f0f2faf8d7a0d14c09,651c1d5937a6c0ce934699db,null,null,"<p style=""font-size: 60px; font-family: BACS"">NaAQdLcO</p>",,,,,,,,,,
html-keyboard-response,216,329142,0.0-12.0-0.46,5fa59d4d5a29c90da975efe9,650c16f0f2faf8d7a0d14c09,651c1d5937a6c0ce934699db,null,null,"<p style=""font-size: 60px; font-family: BACS"">rdLJavUdm</p>",,,,,,,,,,
html-keyboard-response,217,330151,0.0-12.0-0.47,5fa59d4d5a29c90da975efe9,650c16f0f2faf8d7a0d14c09,651c1d5937a6c0ce934699db,null,null,"<p style=""font-size: 60px; font-family: BACS"">mBmlAbRC</p>",,,,,,,,,,
html-keyboard-response,218,331156,0.0-12.0-0.48,5fa59d4d5a29c90da975efe9,650c16f0f2faf8d7a0d14c09,651c1d5937a6c0ce934699db,null,null,"<p style=""font-size: 60px; font-family: BACS"">LuNZYZUZ</p>",,,,,,,,,,
html-keyboard-response,219,332167,0.0-12.0-0.49,5fa59d4d5a29c90da975efe9,650c16f0f2faf8d7a0d14c09,651c1d5937a6c0ce934699db,null,null,"<p style=""font-size: 60px; font-family: BACS"">MlthTRkY</p>",,,,,,,,,,
html-keyboard-response,220,333182,0.0-12.0-0.50,5fa59d4d5a29c90da975efe9,650c16f0f2faf8d7a0d14c09,651c1d5937a6c0ce934699db,null,null,"<p style=""font-size: 60px; font-family: BACS"">LuNZvUdm</p>",,,,,,,,,,
html-keyboard-response,221,334197,0.0-12.0-0.51,5fa59d4d5a29c90da975efe9,650c16f0f2faf8d7a0d14c09,651c1d5937a6c0ce934699db,null,null,"<p style=""font-size: 60px; font-family: BACS"">MTdYPED</p>",,,,,,,,,,
html-keyboard-response,222,335212,0.0-12.0-0.52,5fa59d4d5a29c90da975efe9,650c16f0f2faf8d7a0d14c09,651c1d5937a6c0ce934699db,null,null,"<p style=""font-size: 60px; font-family: BACS"">LQurvAvb</p>",,,,,,,,,,
html-keyboard-response,223,336214,0.0-12.0-0.53,5fa59d4d5a29c90da975efe9,650c16f0f2faf8d7a0d14c09,651c1d5937a6c0ce934699db,null,null,"<p style=""font-size: 60px; font-family: BACS"">rdLJaLcO</p>",,,,,,,,,,
html-keyboard-response,224,337230,0.0-12.0-0.54,5fa59d4d5a29c90da975efe9,650c16f0f2faf8d7a0d14c09,651c1d5937a6c0ce934699db,null,null,"<p style=""font-size: 60px; font-family: BACS"">mBmlATRkY</p>",,,,,,,,,,
html-keyboard-response,225,338235,0.0-12.0-0.55,5fa59d4d5a29c90da975efe9,650c16f0f2faf8d7a0d14c09,651c1d5937a6c0ce934699db,null,null,"<p style=""font-size: 60px; font-family: BACS"">JuamlvAvb</p>",,,,,,,,,,
html-keyboard-response,226,339251,0.0-12.0-0.56,5fa59d4d5a29c90da975efe9,650c16f0f2faf8d7a0d14c09,651c1d5937a6c0ce934699db,null,null,"<p style=""font-size: 60px; font-family: BACS"">ldAaYLU</p>",,,,,,,,,,
html-keyboard-response,227,340262,0.0-12.0-0.57,5fa59d4d5a29c90da975efe9,650c16f0f2faf8d7a0d14c09,651c1d5937a6c0ce934699db,null,null,"<p style=""font-size: 60px; font-family: BACS"">OEPkTRkY</p>",,,,,,,,,,
html-keyboard-response,228,341274,0.0-12.0-0.58,5fa59d4d5a29c90da975efe9,650c16f0f2faf8d7a0d14c09,651c1d5937a6c0ce934699db,null,null,"<p style=""font-size: 60px; font-family: BACS"">rdLJaYZUZ</p>",,,,,,,,,,
html-keyboard-response,229,342288,0.0-12.0-0.59,5fa59d4d5a29c90da975efe9,650c16f0f2faf8d7a0d14c09,651c1d5937a6c0ce934699db,null,null,"<p style=""font-size: 60px; font-family: BACS"">MTdYTAm</p>",,,,,,,,,,
html-keyboard-response,230,343289,0.0-12.0-0.60,5fa59d4d5a29c90da975efe9,650c16f0f2faf8d7a0d14c09,651c1d5937a6c0ce934699db,null,null,"<p style=""font-size: 60px; font-family: BACS"">LNUrJYZUZ</p>",,,,,,,,,,
html-keyboard-response,231,344297,0.0-12.0-0.61,5fa59d4d5a29c90da975efe9,650c16f0f2faf8d7a0d14c09,651c1d5937a6c0ce934699db,null,null,"<p style=""font-size: 60px; font-family: BACS"">KMOcbRC</p>",,,,,,,,,,
html-keyboard-response,232,345309,0.0-12.0-0.62,5fa59d4d5a29c90da975efe9,650c16f0f2faf8d7a0d14c09,651c1d5937a6c0ce934699db,null,null,"<p style=""font-size: 60px; font-family: BACS"">ABPRBEcR</p>",,,,,,,,,,
html-keyboard-response,233,346316,0.0-12.0-0.63,5fa59d4d5a29c90da975efe9,650c16f0f2faf8d7a0d14c09,651c1d5937a6c0ce934699db,null,null,"<p style=""font-size: 60px; font-family: BACS"">OEPkTAm</p>",,,,,,,,,,
html-keyboard-response,234,347326,0.0-12.0-0.64,5fa59d4d5a29c90da975efe9,650c16f0f2faf8d7a0d14c09,651c1d5937a6c0ce934699db,null,null,"<p style=""font-size: 60px; font-family: BACS"">NulkvAvb</p>",,,,,,,,,,
html-keyboard-response,235,348339,0.0-12.0-0.65,5fa59d4d5a29c90da975efe9,650c16f0f2faf8d7a0d14c09,651c1d5937a6c0ce934699db,null,null,"<p style=""font-size: 60px; font-family: BACS"">tRdMEcR</p>",,,,,,,,,,
html-keyboard-response,236,349351,0.0-12.0-0.66,5fa59d4d5a29c90da975efe9,650c16f0f2faf8d7a0d14c09,651c1d5937a6c0ce934699db,null,null,"<p style=""font-size: 60px; font-family: BACS"">NaAQdYLU</p>",,,,,,,,,,
html-keyboard-response,237,350357,0.0-12.0-0.67,5fa59d4d5a29c90da975efe9,650c16f0f2faf8d7a0d14c09,651c1d5937a6c0ce934699db,null,null,"<p style=""font-size: 60px; font-family: BACS"">KMOcPED</p>",,,,,,,,,,
html-keyboard-response,238,351371,0.0-12.0-0.68,5fa59d4d5a29c90da975efe9,650c16f0f2faf8d7a0d14c09,651c1d5937a6c0ce934699db,null,null,"<p style=""font-size: 60px; font-family: BACS"">AYkEhTRkY</p>",,,,,,,,,,
html-keyboard-response,239,352384,0.0-12.0-0.69,5fa59d4d5a29c90da975efe9,650c16f0f2faf8d7a0d14c09,651c1d5937a6c0ce934699db,null,null,"<p style=""font-size: 60px; font-family: BACS"">NulkYZUZ</p>",,,,,,,,,,
html-keyboard-response,240,353385,0.0-12.0-0.70,5fa59d4d5a29c90da975efe9,650c16f0f2faf8d7a0d14c09,651c1d5937a6c0ce934699db,null,null,"<p style=""font-size: 60px; font-family: BACS"">LNUrJvUdm</p>",,,,,,,,,,
html-keyboard-response,241,354399,0.0-12.0-0.71,5fa59d4d5a29c90da975efe9,650c16f0f2faf8d7a0d14c09,651c1d5937a6c0ce934699db,null,null,"<p style=""font-size: 60px; font-family: BACS"">AYkEhEcR</p>",,,,,,,,,,
html-keyboard-response,242,355414,0.0-12.0-0.72,5fa59d4d5a29c90da975efe9,650c16f0f2faf8d7a0d14c09,651c1d5937a6c0ce934699db,null,null,"<p style=""font-size: 60px; font-family: BACS"">vYLUvUdm</p>",,,,,,,,,,
html-keyboard-response,243,356419,0.0-12.0-0.73,5fa59d4d5a29c90da975efe9,650c16f0f2faf8d7a0d14c09,651c1d5937a6c0ce934699db,null,null,"<p style=""font-size: 60px; font-family: BACS"">dMThkTAm</p>",,,,,,,,,,
html-keyboard-response,244,357428,0.0-12.0-0.74,5fa59d4d5a29c90da975efe9,650c16f0f2faf8d7a0d14c09,651c1d5937a6c0ce934699db,null,null,"<p style=""font-size: 60px; font-family: BACS"">tRdMTRkY</p>",,,,,,,,,,
html-keyboard-response,245,358433,0.0-12.0-0.75,5fa59d4d5a29c90da975efe9,650c16f0f2faf8d7a0d14c09,651c1d5937a6c0ce934699db,null,null,"<p style=""font-size: 60px; font-family: BACS"">JuamlYZUZ</p>",,,,,,,,,,
html-keyboard-response,246,359437,0.0-12.0-0.76,5fa59d4d5a29c90da975efe9,650c16f0f2faf8d7a0d14c09,651c1d5937a6c0ce934699db,null,null,"<p style=""font-size: 60px; font-family: BACS"">MlthTAm</p>",,,,,,,,,,
html-keyboard-response,247,360451,0.0-12.0-0.77,5fa59d4d5a29c90da975efe9,650c16f0f2faf8d7a0d14c09,651c1d5937a6c0ce934699db,null,null,"<p style=""font-size: 60px; font-family: BACS"">ldAaYZUZ</p>",,,,,,,,,,
html-keyboard-response,248,361467,0.0-12.0-0.78,5fa59d4d5a29c90da975efe9,650c16f0f2faf8d7a0d14c09,651c1d5937a6c0ce934699db,null,null,"<p style=""font-size: 60px; font-family: BACS"">AYkEhTAm</p>",,,,,,,,,,
html-keyboard-response,249,362482,0.0-12.0-0.79,5fa59d4d5a29c90da975efe9,650c16f0f2faf8d7a0d14c09,651c1d5937a6c0ce934699db,null,null,"<p style=""font-size: 60px; font-family: BACS"">vYLUvAvb</p>",,,,,,,,,,
html-keyboard-response,250,371045,0.0-13.0,5fa59d4d5a29c90da975efe9,650c16f0f2faf8d7a0d14c09,651c1d5937a6c0ce934699db,8562, ,"<p>Great, you've seen the third block of words. You may now take a short break.</p>
      <p>Press the spacebar when you're ready to continue.</p>",,,,,,,,,,
html-keyboard-response,251,372052,0.0-14.0-0.0,5fa59d4d5a29c90da975efe9,650c16f0f2faf8d7a0d14c09,651c1d5937a6c0ce934699db,null,null,"<p style=""font-size: 60px; font-family: BACS"">LQurYLU</p>",,,,,,,,,,
html-keyboard-response,252,373060,0.0-14.0-0.1,5fa59d4d5a29c90da975efe9,650c16f0f2faf8d7a0d14c09,651c1d5937a6c0ce934699db,null,null,"<p style=""font-size: 60px; font-family: BACS"">KMOcbRC</p>",,,,,,,,,,
html-keyboard-response,253,374075,0.0-14.0-0.2,5fa59d4d5a29c90da975efe9,650c16f0f2faf8d7a0d14c09,651c1d5937a6c0ce934699db,null,null,"<p style=""font-size: 60px; font-family: BACS"">JuamlvAvb</p>",,,,,,,,,,
html-keyboard-response,254,375081,0.0-14.0-0.3,5fa59d4d5a29c90da975efe9,650c16f0f2faf8d7a0d14c09,651c1d5937a6c0ce934699db,null,null,"<p style=""font-size: 60px; font-family: BACS"">LNUrJvUdm</p>",,,,,,,,,,
html-keyboard-response,255,376084,0.0-14.0-0.4,5fa59d4d5a29c90da975efe9,650c16f0f2faf8d7a0d14c09,651c1d5937a6c0ce934699db,null,null,"<p style=""font-size: 60px; font-family: BACS"">LQurLcO</p>",,,,,,,,,,
html-keyboard-response,256,377095,0.0-14.0-0.5,5fa59d4d5a29c90da975efe9,650c16f0f2faf8d7a0d14c09,651c1d5937a6c0ce934699db,null,null,"<p style=""font-size: 60px; font-family: BACS"">LuNZYLU</p>",,,,,,,,,,
html-keyboard-response,257,378109,0.0-14.0-0.6,5fa59d4d5a29c90da975efe9,650c16f0f2faf8d7a0d14c09,651c1d5937a6c0ce934699db,null,null,"<p style=""font-size: 60px; font-family: BACS"">ZcGdNvUdm</p>",,,,,,,,,,
html-keyboard-response,258,379116,0.0-14.0-0.7,5fa59d4d5a29c90da975efe9,650c16f0f2faf8d7a0d14c09,651c1d5937a6c0ce934699db,null,null,"<p style=""font-size: 60px; font-family: BACS"">MTdYTAm</p>",,,,,,,,,,
html-keyboard-response,259,380127,0.0-14.0-0.8,5fa59d4d5a29c90da975efe9,650c16f0f2faf8d7a0d14c09,651c1d5937a6c0ce934699db,null,null,"<p style=""font-size: 60px; font-family: BACS"">mBmlAbRC</p>",,,,,,,,,,
html-keyboard-response,260,381133,0.0-14.0-0.9,5fa59d4d5a29c90da975efe9,650c16f0f2faf8d7a0d14c09,651c1d5937a6c0ce934699db,null,null,"<p style=""font-size: 60px; font-family: BACS"">LNUrJvAvb</p>",,,,,,,,,,
html-keyboard-response,261,382148,0.0-14.0-0.10,5fa59d4d5a29c90da975efe9,650c16f0f2faf8d7a0d14c09,651c1d5937a6c0ce934699db,null,null,"<p style=""font-size: 60px; font-family: BACS"">LuNZYZUZ</p>",,,,,,,,,,
html-keyboard-response,262,383155,0.0-14.0-0.11,5fa59d4d5a29c90da975efe9,650c16f0f2faf8d7a0d14c09,651c1d5937a6c0ce934699db,null,null,"<p style=""font-size: 60px; font-family: BACS"">ZcGdNYLU</p>",,,,,,,,,,
html-keyboard-response,263,384170,0.0-14.0-0.12,5fa59d4d5a29c90da975efe9,650c16f0f2faf8d7a0d14c09,651c1d5937a6c0ce934699db,null,null,"<p style=""font-size: 60px; font-family: BACS"">OEPkTAm</p>",,,,,,,,,,
html-keyboard-response,264,385184,0.0-14.0-0.13,5fa59d4d5a29c90da975efe9,650c16f0f2faf8d7a0d14c09,651c1d5937a6c0ce934699db,null,null,"<p style=""font-size: 60px; font-family: BACS"">RdPtDPED</p>",,,,,,,,,,
html-keyboard-response,265,386193,0.0-14.0-0.14,5fa59d4d5a29c90da975efe9,650c16f0f2faf8d7a0d14c09,651c1d5937a6c0ce934699db,null,null,"<p style=""font-size: 60px; font-family: BACS"">LNUrJYLU</p>",,,,,,,,,,
html-keyboard-response,266,387209,0.0-14.0-0.15,5fa59d4d5a29c90da975efe9,650c16f0f2faf8d7a0d14c09,651c1d5937a6c0ce934699db,null,null,"<p style=""font-size: 60px; font-family: BACS"">KMOcPED</p>",,,,,,,,,,
html-keyboard-response,267,388223,0.0-14.0-0.16,5fa59d4d5a29c90da975efe9,650c16f0f2faf8d7a0d14c09,651c1d5937a6c0ce934699db,null,null,"<p style=""font-size: 60px; font-family: BACS"">rdLJavAvb</p>",,,,,,,,,,
html-keyboard-response,268,389238,0.0-14.0-0.17,5fa59d4d5a29c90da975efe9,650c16f0f2faf8d7a0d14c09,651c1d5937a6c0ce934699db,null,null,"<p style=""font-size: 60px; font-family: BACS"">RdPtDbRC</p>",,,,,,,,,,
html-keyboard-response,269,390247,0.0-14.0-0.18,5fa59d4d5a29c90da975efe9,650c16f0f2faf8d7a0d14c09,651c1d5937a6c0ce934699db,null,null,"<p style=""font-size: 60px; font-family: BACS"">JuamlYZUZ</p>",,,,,,,,,,
html-keyboard-response,270,391258,0.0-14.0-0.19,5fa59d4d5a29c90da975efe9,650c16f0f2faf8d7a0d14c09,651c1d5937a6c0ce934699db,null,null,"<p style=""font-size: 60px; font-family: BACS"">AYkEhTAm</p>",,,,,,,,,,
html-keyboard-response,271,392271,0.0-14.0-0.20,5fa59d4d5a29c90da975efe9,650c16f0f2faf8d7a0d14c09,651c1d5937a6c0ce934699db,null,null,"<p style=""font-size: 60px; font-family: BACS"">ldAaYLU</p>",,,,,,,,,,
html-keyboard-response,272,393276,0.0-14.0-0.21,5fa59d4d5a29c90da975efe9,650c16f0f2faf8d7a0d14c09,651c1d5937a6c0ce934699db,null,null,"<p style=""font-size: 60px; font-family: BACS"">RdPtDTAm</p>",,,,,,,,,,
html-keyboard-response,273,394283,0.0-14.0-0.22,5fa59d4d5a29c90da975efe9,650c16f0f2faf8d7a0d14c09,651c1d5937a6c0ce934699db,null,null,"<p style=""font-size: 60px; font-family: BACS"">ABPRBEcR</p>",,,,,,,,,,
html-keyboard-response,274,395291,0.0-14.0-0.23,5fa59d4d5a29c90da975efe9,650c16f0f2faf8d7a0d14c09,651c1d5937a6c0ce934699db,null,null,"<p style=""font-size: 60px; font-family: BACS"">NaAQdLcO</p>",,,,,,,,,,
html-keyboard-response,275,396299,0.0-14.0-0.24,5fa59d4d5a29c90da975efe9,650c16f0f2faf8d7a0d14c09,651c1d5937a6c0ce934699db,null,null,"<p style=""font-size: 60px; font-family: BACS"">MlthEcR</p>",,,,,,,,,,
html-keyboard-response,276,397314,0.0-14.0-0.25,5fa59d4d5a29c90da975efe9,650c16f0f2faf8d7a0d14c09,651c1d5937a6c0ce934699db,null,null,"<p style=""font-size: 60px; font-family: BACS"">LQurvUdm</p>",,,,,,,,,,
html-keyboard-response,277,398327,0.0-14.0-0.26,5fa59d4d5a29c90da975efe9,650c16f0f2faf8d7a0d14c09,651c1d5937a6c0ce934699db,null,null,"<p style=""font-size: 60px; font-family: BACS"">JuamlYLU</p>",,,,,,,,,,
html-keyboard-response,278,399338,0.0-14.0-0.27,5fa59d4d5a29c90da975efe9,650c16f0f2faf8d7a0d14c09,651c1d5937a6c0ce934699db,null,null,"<p style=""font-size: 60px; font-family: BACS"">ABPRBTAm</p>",,,,,,,,,,
html-keyboard-response,279,400345,0.0-14.0-0.28,5fa59d4d5a29c90da975efe9,650c16f0f2faf8d7a0d14c09,651c1d5937a6c0ce934699db,null,null,"<p style=""font-size: 60px; font-family: BACS"">NulkLcO</p>",,,,,,,,,,
html-keyboard-response,280,401350,0.0-14.0-0.29,5fa59d4d5a29c90da975efe9,650c16f0f2faf8d7a0d14c09,651c1d5937a6c0ce934699db,null,null,"<p style=""font-size: 60px; font-family: BACS"">MTdYbRC</p>",,,,,,,,,,
html-keyboard-response,281,402360,0.0-14.0-0.30,5fa59d4d5a29c90da975efe9,650c16f0f2faf8d7a0d14c09,651c1d5937a6c0ce934699db,null,null,"<p style=""font-size: 60px; font-family: BACS"">vYLUvUdm</p>",,,,,,,,,,
html-keyboard-response,282,403374,0.0-14.0-0.31,5fa59d4d5a29c90da975efe9,650c16f0f2faf8d7a0d14c09,651c1d5937a6c0ce934699db,null,null,"<p style=""font-size: 60px; font-family: BACS"">dMThkTAm</p>",,,,,,,,,,
html-keyboard-response,283,404375,0.0-14.0-0.32,5fa59d4d5a29c90da975efe9,650c16f0f2faf8d7a0d14c09,651c1d5937a6c0ce934699db,null,null,"<p style=""font-size: 60px; font-family: BACS"">tRdMbRC</p>",,,,,,,,,,
html-keyboard-response,284,405385,0.0-14.0-0.33,5fa59d4d5a29c90da975efe9,650c16f0f2faf8d7a0d14c09,651c1d5937a6c0ce934699db,null,null,"<p style=""font-size: 60px; font-family: BACS"">ldAavUdm</p>",,,,,,,,,,
html-keyboard-response,285,406399,0.0-14.0-0.34,5fa59d4d5a29c90da975efe9,650c16f0f2faf8d7a0d14c09,651c1d5937a6c0ce934699db,null,null,"<p style=""font-size: 60px; font-family: BACS"">dMThkPED</p>",,,,,,,,,,
html-keyboard-response,286,407404,0.0-14.0-0.35,5fa59d4d5a29c90da975efe9,650c16f0f2faf8d7a0d14c09,651c1d5937a6c0ce934699db,null,null,"<p style=""font-size: 60px; font-family: BACS"">AYkEhbRC</p>",,,,,,,,,,
html-keyboard-response,287,408418,0.0-14.0-0.36,5fa59d4d5a29c90da975efe9,650c16f0f2faf8d7a0d14c09,651c1d5937a6c0ce934699db,null,null,"<p style=""font-size: 60px; font-family: BACS"">LuNZvAvb</p>",,,,,,,,,,
html-keyboard-response,288,409426,0.0-14.0-0.37,5fa59d4d5a29c90da975efe9,650c16f0f2faf8d7a0d14c09,651c1d5937a6c0ce934699db,null,null,"<p style=""font-size: 60px; font-family: BACS"">tRdMEcR</p>",,,,,,,,,,
html-keyboard-response,289,410437,0.0-14.0-0.38,5fa59d4d5a29c90da975efe9,650c16f0f2faf8d7a0d14c09,651c1d5937a6c0ce934699db,null,null,"<p style=""font-size: 60px; font-family: BACS"">AYkEhTRkY</p>",,,,,,,,,,
html-keyboard-response,290,411447,0.0-14.0-0.39,5fa59d4d5a29c90da975efe9,650c16f0f2faf8d7a0d14c09,651c1d5937a6c0ce934699db,null,null,"<p style=""font-size: 60px; font-family: BACS"">OEPkEcR</p>",,,,,,,,,,
html-keyboard-response,291,412449,0.0-14.0-0.40,5fa59d4d5a29c90da975efe9,650c16f0f2faf8d7a0d14c09,651c1d5937a6c0ce934699db,null,null,"<p style=""font-size: 60px; font-family: BACS"">LQurvAvb</p>",,,,,,,,,,
html-keyboard-response,292,413457,0.0-14.0-0.41,5fa59d4d5a29c90da975efe9,650c16f0f2faf8d7a0d14c09,651c1d5937a6c0ce934699db,null,null,"<p style=""font-size: 60px; font-family: BACS"">NulkYLU</p>",,,,,,,,,,
html-keyboard-response,293,414464,0.0-14.0-0.42,5fa59d4d5a29c90da975efe9,650c16f0f2faf8d7a0d14c09,651c1d5937a6c0ce934699db,null,null,"<p style=""font-size: 60px; font-family: BACS"">MlthbRC</p>",,,,,,,,,,
html-keyboard-response,294,415465,0.0-14.0-0.43,5fa59d4d5a29c90da975efe9,650c16f0f2faf8d7a0d14c09,651c1d5937a6c0ce934699db,null,null,"<p style=""font-size: 60px; font-family: BACS"">ZcGdNvAvb</p>",,,,,,,,,,
html-keyboard-response,295,416474,0.0-14.0-0.44,5fa59d4d5a29c90da975efe9,650c16f0f2faf8d7a0d14c09,651c1d5937a6c0ce934699db,null,null,"<p style=""font-size: 60px; font-family: BACS"">JuamlLcO</p>",,,,,,,,,,
html-keyboard-response,296,417488,0.0-14.0-0.45,5fa59d4d5a29c90da975efe9,650c16f0f2faf8d7a0d14c09,651c1d5937a6c0ce934699db,null,null,"<p style=""font-size: 60px; font-family: BACS"">vYLUvAvb</p>",,,,,,,,,,
html-keyboard-response,297,418498,0.0-14.0-0.46,5fa59d4d5a29c90da975efe9,650c16f0f2faf8d7a0d14c09,651c1d5937a6c0ce934699db,null,null,"<p style=""font-size: 60px; font-family: BACS"">LuNZvUdm</p>",,,,,,,,,,
html-keyboard-response,298,419502,0.0-14.0-0.47,5fa59d4d5a29c90da975efe9,650c16f0f2faf8d7a0d14c09,651c1d5937a6c0ce934699db,null,null,"<p style=""font-size: 60px; font-family: BACS"">AYkEhEcR</p>",,,,,,,,,,
html-keyboard-response,299,420516,0.0-14.0-0.48,5fa59d4d5a29c90da975efe9,650c16f0f2faf8d7a0d14c09,651c1d5937a6c0ce934699db,null,null,"<p style=""font-size: 60px; font-family: BACS"">ABPRBPED</p>",,,,,,,,,,
html-keyboard-response,300,421524,0.0-14.0-0.49,5fa59d4d5a29c90da975efe9,650c16f0f2faf8d7a0d14c09,651c1d5937a6c0ce934699db,null,null,"<p style=""font-size: 60px; font-family: BACS"">LNUrJYZUZ</p>",,,,,,,,,,
html-keyboard-response,301,422532,0.0-14.0-0.50,5fa59d4d5a29c90da975efe9,650c16f0f2faf8d7a0d14c09,651c1d5937a6c0ce934699db,null,null,"<p style=""font-size: 60px; font-family: BACS"">OEPkTRkY</p>",,,,,,,,,,
html-keyboard-response,302,423545,0.0-14.0-0.51,5fa59d4d5a29c90da975efe9,650c16f0f2faf8d7a0d14c09,651c1d5937a6c0ce934699db,null,null,"<p style=""font-size: 60px; font-family: BACS"">MTdYEcR</p>",,,,,,,,,,
html-keyboard-response,303,424556,0.0-14.0-0.52,5fa59d4d5a29c90da975efe9,650c16f0f2faf8d7a0d14c09,651c1d5937a6c0ce934699db,null,null,"<p style=""font-size: 60px; font-family: BACS"">dMThkbRC</p>",,,,,,,,,,
html-keyboard-response,304,425560,0.0-14.0-0.53,5fa59d4d5a29c90da975efe9,650c16f0f2faf8d7a0d14c09,651c1d5937a6c0ce934699db,null,null,"<p style=""font-size: 60px; font-family: BACS"">mBmlATRkY</p>",,,,,,,,,,
html-keyboard-response,305,426561,0.0-14.0-0.54,5fa59d4d5a29c90da975efe9,650c16f0f2faf8d7a0d14c09,651c1d5937a6c0ce934699db,null,null,"<p style=""font-size: 60px; font-family: BACS"">NaAQdYZUZ</p>",,,,,,,,,,
html-keyboard-response,306,427573,0.0-14.0-0.55,5fa59d4d5a29c90da975efe9,650c16f0f2faf8d7a0d14c09,651c1d5937a6c0ce934699db,null,null,"<p style=""font-size: 60px; font-family: BACS"">ldAaLcO</p>",,,,,,,,,,
html-keyboard-response,307,428586,0.0-14.0-0.56,5fa59d4d5a29c90da975efe9,650c16f0f2faf8d7a0d14c09,651c1d5937a6c0ce934699db,null,null,"<p style=""font-size: 60px; font-family: BACS"">OEPkPED</p>",,,,,,,,,,
html-keyboard-response,308,429598,0.0-14.0-0.57,5fa59d4d5a29c90da975efe9,650c16f0f2faf8d7a0d14c09,651c1d5937a6c0ce934699db,null,null,"<p style=""font-size: 60px; font-family: BACS"">ABPRBTRkY</p>",,,,,,,,,,
html-keyboard-response,309,430606,0.0-14.0-0.58,5fa59d4d5a29c90da975efe9,650c16f0f2faf8d7a0d14c09,651c1d5937a6c0ce934699db,null,null,"<p style=""font-size: 60px; font-family: BACS"">tRdMPED</p>",,,,,,,,,,
html-keyboard-response,310,431613,0.0-14.0-0.59,5fa59d4d5a29c90da975efe9,650c16f0f2faf8d7a0d14c09,651c1d5937a6c0ce934699db,null,null,"<p style=""font-size: 60px; font-family: BACS"">ZcGdNLcO</p>",,,,,,,,,,
html-keyboard-response,311,432623,0.0-14.0-0.60,5fa59d4d5a29c90da975efe9,650c16f0f2faf8d7a0d14c09,651c1d5937a6c0ce934699db,null,null,"<p style=""font-size: 60px; font-family: BACS"">NaAQdYLU</p>",,,,,,,,,,
html-keyboard-response,312,433636,0.0-14.0-0.61,5fa59d4d5a29c90da975efe9,650c16f0f2faf8d7a0d14c09,651c1d5937a6c0ce934699db,null,null,"<p style=""font-size: 60px; font-family: BACS"">rdLJaYZUZ</p>",,,,,,,,,,
html-keyboard-response,313,434644,0.0-14.0-0.62,5fa59d4d5a29c90da975efe9,650c16f0f2faf8d7a0d14c09,651c1d5937a6c0ce934699db,null,null,"<p style=""font-size: 60px; font-family: BACS"">MlthTRkY</p>",,,,,,,,,,
html-keyboard-response,314,435652,0.0-14.0-0.63,5fa59d4d5a29c90da975efe9,650c16f0f2faf8d7a0d14c09,651c1d5937a6c0ce934699db,null,null,"<p style=""font-size: 60px; font-family: BACS"">mBmlAPED</p>",,,,,,,,,,
html-keyboard-response,315,436654,0.0-14.0-0.64,5fa59d4d5a29c90da975efe9,650c16f0f2faf8d7a0d14c09,651c1d5937a6c0ce934699db,null,null,"<p style=""font-size: 60px; font-family: BACS"">RdPtDTRkY</p>",,,,,,,,,,
html-keyboard-response,316,437663,0.0-14.0-0.65,5fa59d4d5a29c90da975efe9,650c16f0f2faf8d7a0d14c09,651c1d5937a6c0ce934699db,null,null,"<p style=""font-size: 60px; font-family: BACS"">KMOcEcR</p>",,,,,,,,,,
html-keyboard-response,317,438672,0.0-14.0-0.66,5fa59d4d5a29c90da975efe9,650c16f0f2faf8d7a0d14c09,651c1d5937a6c0ce934699db,null,null,"<p style=""font-size: 60px; font-family: BACS"">vYLUYZUZ</p>",,,,,,,,,,
html-keyboard-response,318,439683,0.0-14.0-0.67,5fa59d4d5a29c90da975efe9,650c16f0f2faf8d7a0d14c09,651c1d5937a6c0ce934699db,null,null,"<p style=""font-size: 60px; font-family: BACS"">mBmlATAm</p>",,,,,,,,,,
html-keyboard-response,319,440697,0.0-14.0-0.68,5fa59d4d5a29c90da975efe9,650c16f0f2faf8d7a0d14c09,651c1d5937a6c0ce934699db,null,null,"<p style=""font-size: 60px; font-family: BACS"">ldAaYZUZ</p>",,,,,,,,,,
html-keyboard-response,320,441711,0.0-14.0-0.69,5fa59d4d5a29c90da975efe9,650c16f0f2faf8d7a0d14c09,651c1d5937a6c0ce934699db,null,null,"<p style=""font-size: 60px; font-family: BACS"">vYLULcO</p>",,,,,,,,,,
html-keyboard-response,321,442721,0.0-14.0-0.70,5fa59d4d5a29c90da975efe9,650c16f0f2faf8d7a0d14c09,651c1d5937a6c0ce934699db,null,null,"<p style=""font-size: 60px; font-family: BACS"">MTdYPED</p>",,,,,,,,,,
html-keyboard-response,322,443735,0.0-14.0-0.71,5fa59d4d5a29c90da975efe9,650c16f0f2faf8d7a0d14c09,651c1d5937a6c0ce934699db,null,null,"<p style=""font-size: 60px; font-family: BACS"">tRdMTRkY</p>",,,,,,,,,,
html-keyboard-response,323,444745,0.0-14.0-0.72,5fa59d4d5a29c90da975efe9,650c16f0f2faf8d7a0d14c09,651c1d5937a6c0ce934699db,null,null,"<p style=""font-size: 60px; font-family: BACS"">NulkYZUZ</p>",,,,,,,,,,
html-keyboard-response,324,445754,0.0-14.0-0.73,5fa59d4d5a29c90da975efe9,650c16f0f2faf8d7a0d14c09,651c1d5937a6c0ce934699db,null,null,"<p style=""font-size: 60px; font-family: BACS"">KMOcTRkY</p>",,,,,,,,,,
html-keyboard-response,325,446755,0.0-14.0-0.74,5fa59d4d5a29c90da975efe9,650c16f0f2faf8d7a0d14c09,651c1d5937a6c0ce934699db,null,null,"<p style=""font-size: 60px; font-family: BACS"">rdLJavUdm</p>",,,,,,,,,,
html-keyboard-response,326,447761,0.0-14.0-0.75,5fa59d4d5a29c90da975efe9,650c16f0f2faf8d7a0d14c09,651c1d5937a6c0ce934699db,null,null,"<p style=""font-size: 60px; font-family: BACS"">MlthTAm</p>",,,,,,,,,,
html-keyboard-response,327,448775,0.0-14.0-0.76,5fa59d4d5a29c90da975efe9,650c16f0f2faf8d7a0d14c09,651c1d5937a6c0ce934699db,null,null,"<p style=""font-size: 60px; font-family: BACS"">NulkvAvb</p>",,,,,,,,,,
html-keyboard-response,328,449781,0.0-14.0-0.77,5fa59d4d5a29c90da975efe9,650c16f0f2faf8d7a0d14c09,651c1d5937a6c0ce934699db,null,null,"<p style=""font-size: 60px; font-family: BACS"">rdLJaLcO</p>",,,,,,,,,,
html-keyboard-response,329,450791,0.0-14.0-0.78,5fa59d4d5a29c90da975efe9,650c16f0f2faf8d7a0d14c09,651c1d5937a6c0ce934699db,null,null,"<p style=""font-size: 60px; font-family: BACS"">NaAQdvUdm</p>",,,,,,,,,,
html-keyboard-response,330,451806,0.0-14.0-0.79,5fa59d4d5a29c90da975efe9,650c16f0f2faf8d7a0d14c09,651c1d5937a6c0ce934699db,null,null,"<p style=""font-size: 60px; font-family: BACS"">dMThkEcR</p>",,,,,,,,,,
html-keyboard-response,331,469387,0.0-15.0,5fa59d4d5a29c90da975efe9,650c16f0f2faf8d7a0d14c09,651c1d5937a6c0ce934699db,17581, ,"<p>Great, you've seen the fourth block of words. You may now take a short break.</p>
      <p>Press the spacebar when you're ready to continue.</p>",,,,,,,,,,
html-keyboard-response,332,470391,0.0-16.0-0.0,5fa59d4d5a29c90da975efe9,650c16f0f2faf8d7a0d14c09,651c1d5937a6c0ce934699db,null,null,"<p style=""font-size: 60px; font-family: BACS"">ldAavUdm</p>",,,,,,,,,,
html-keyboard-response,333,471397,0.0-16.0-0.1,5fa59d4d5a29c90da975efe9,650c16f0f2faf8d7a0d14c09,651c1d5937a6c0ce934699db,null,null,"<p style=""font-size: 60px; font-family: BACS"">ldAavUdm</p>",,,,,,,,,,
html-keyboard-response,334,472407,0.0-16.0-0.2,5fa59d4d5a29c90da975efe9,650c16f0f2faf8d7a0d14c09,651c1d5937a6c0ce934699db,null,null,"<p style=""font-size: 60px; font-family: BACS"">ldAavUdm</p>",,,,,,,,,,
html-keyboard-response,335,473418,0.0-16.0-0.3,5fa59d4d5a29c90da975efe9,650c16f0f2faf8d7a0d14c09,651c1d5937a6c0ce934699db,null,null,"<p style=""font-size: 60px; font-family: BACS"">ldAavUdm</p>",,,,,,,,,,
html-keyboard-response,336,474433,0.0-16.0-0.4,5fa59d4d5a29c90da975efe9,650c16f0f2faf8d7a0d14c09,651c1d5937a6c0ce934699db,null,null,"<p style=""font-size: 60px; font-family: BACS"">ldAavUdm</p>",,,,,,,,,,
html-keyboard-response,337,475444,0.0-16.0-0.5,5fa59d4d5a29c90da975efe9,650c16f0f2faf8d7a0d14c09,651c1d5937a6c0ce934699db,null,null,"<p style=""font-size: 60px; font-family: BACS"">ldAavUdm</p>",,,,,,,,,,
html-keyboard-response,338,476450,0.0-16.0-0.6,5fa59d4d5a29c90da975efe9,650c16f0f2faf8d7a0d14c09,651c1d5937a6c0ce934699db,null,null,"<p style=""font-size: 60px; font-family: BACS"">ldAavUdm</p>",,,,,,,,,,
html-keyboard-response,339,477451,0.0-16.0-0.7,5fa59d4d5a29c90da975efe9,650c16f0f2faf8d7a0d14c09,651c1d5937a6c0ce934699db,null,null,"<p style=""font-size: 60px; font-family: BACS"">ldAavUdm</p>",,,,,,,,,,
html-keyboard-response,340,478463,0.0-16.0-0.8,5fa59d4d5a29c90da975efe9,650c16f0f2faf8d7a0d14c09,651c1d5937a6c0ce934699db,null,null,"<p style=""font-size: 60px; font-family: BACS"">ldAavUdm</p>",,,,,,,,,,
html-keyboard-response,341,479479,0.0-16.0-0.9,5fa59d4d5a29c90da975efe9,650c16f0f2faf8d7a0d14c09,651c1d5937a6c0ce934699db,null,null,"<p style=""font-size: 60px; font-family: BACS"">ldAavUdm</p>",,,,,,,,,,
html-keyboard-response,342,480491,0.0-16.0-0.10,5fa59d4d5a29c90da975efe9,650c16f0f2faf8d7a0d14c09,651c1d5937a6c0ce934699db,null,null,"<p style=""font-size: 60px; font-family: BACS"">ldAavUdm</p>",,,,,,,,,,
html-keyboard-response,343,481506,0.0-16.0-0.11,5fa59d4d5a29c90da975efe9,650c16f0f2faf8d7a0d14c09,651c1d5937a6c0ce934699db,null,null,"<p style=""font-size: 60px; font-family: BACS"">ldAavUdm</p>",,,,,,,,,,
html-keyboard-response,344,482510,0.0-16.0-0.12,5fa59d4d5a29c90da975efe9,650c16f0f2faf8d7a0d14c09,651c1d5937a6c0ce934699db,null,null,"<p style=""font-size: 60px; font-family: BACS"">ldAavUdm</p>",,,,,,,,,,
html-keyboard-response,345,483519,0.0-16.0-0.13,5fa59d4d5a29c90da975efe9,650c16f0f2faf8d7a0d14c09,651c1d5937a6c0ce934699db,null,null,"<p style=""font-size: 60px; font-family: BACS"">ldAavUdm</p>",,,,,,,,,,
html-keyboard-response,346,484530,0.0-16.0-0.14,5fa59d4d5a29c90da975efe9,650c16f0f2faf8d7a0d14c09,651c1d5937a6c0ce934699db,null,null,"<p style=""font-size: 60px; font-family: BACS"">ldAavUdm</p>",,,,,,,,,,
html-keyboard-response,347,485540,0.0-16.0-0.15,5fa59d4d5a29c90da975efe9,650c16f0f2faf8d7a0d14c09,651c1d5937a6c0ce934699db,null,null,"<p style=""font-size: 60px; font-family: BACS"">ldAavUdm</p>",,,,,,,,,,
html-keyboard-response,348,486553,0.0-16.0-0.16,5fa59d4d5a29c90da975efe9,650c16f0f2faf8d7a0d14c09,651c1d5937a6c0ce934699db,null,null,"<p style=""font-size: 60px; font-family: BACS"">ldAavUdm</p>",,,,,,,,,,
html-keyboard-response,349,487559,0.0-16.0-0.17,5fa59d4d5a29c90da975efe9,650c16f0f2faf8d7a0d14c09,651c1d5937a6c0ce934699db,null,null,"<p style=""font-size: 60px; font-family: BACS"">ldAavUdm</p>",,,,,,,,,,
html-keyboard-response,350,488573,0.0-16.0-0.18,5fa59d4d5a29c90da975efe9,650c16f0f2faf8d7a0d14c09,651c1d5937a6c0ce934699db,null,null,"<p style=""font-size: 60px; font-family: BACS"">ldAavUdm</p>",,,,,,,,,,
html-keyboard-response,351,489588,0.0-16.0-0.19,5fa59d4d5a29c90da975efe9,650c16f0f2faf8d7a0d14c09,651c1d5937a6c0ce934699db,null,null,"<p style=""font-size: 60px; font-family: BACS"">ldAavUdm</p>",,,,,,,,,,
html-keyboard-response,352,490601,0.0-16.0-0.20,5fa59d4d5a29c90da975efe9,650c16f0f2faf8d7a0d14c09,651c1d5937a6c0ce934699db,null,null,"<p style=""font-size: 60px; font-family: BACS"">ldAavUdm</p>",,,,,,,,,,
html-keyboard-response,353,491611,0.0-16.0-0.21,5fa59d4d5a29c90da975efe9,650c16f0f2faf8d7a0d14c09,651c1d5937a6c0ce934699db,null,null,"<p style=""font-size: 60px; font-family: BACS"">ldAavUdm</p>",,,,,,,,,,
html-keyboard-response,354,492615,0.0-16.0-0.22,5fa59d4d5a29c90da975efe9,650c16f0f2faf8d7a0d14c09,651c1d5937a6c0ce934699db,null,null,"<p style=""font-size: 60px; font-family: BACS"">ldAavUdm</p>",,,,,,,,,,
html-keyboard-response,355,493624,0.0-16.0-0.23,5fa59d4d5a29c90da975efe9,650c16f0f2faf8d7a0d14c09,651c1d5937a6c0ce934699db,null,null,"<p style=""font-size: 60px; font-family: BACS"">ldAavUdm</p>",,,,,,,,,,
html-keyboard-response,356,494641,0.0-16.0-0.24,5fa59d4d5a29c90da975efe9,650c16f0f2faf8d7a0d14c09,651c1d5937a6c0ce934699db,null,null,"<p style=""font-size: 60px; font-family: BACS"">ldAavUdm</p>",,,,,,,,,,
html-keyboard-response,357,495642,0.0-16.0-0.25,5fa59d4d5a29c90da975efe9,650c16f0f2faf8d7a0d14c09,651c1d5937a6c0ce934699db,null,null,"<p style=""font-size: 60px; font-family: BACS"">ldAavUdm</p>",,,,,,,,,,
html-keyboard-response,358,496654,0.0-16.0-0.26,5fa59d4d5a29c90da975efe9,650c16f0f2faf8d7a0d14c09,651c1d5937a6c0ce934699db,null,null,"<p style=""font-size: 60px; font-family: BACS"">ldAavUdm</p>",,,,,,,,,,
html-keyboard-response,359,497664,0.0-16.0-0.27,5fa59d4d5a29c90da975efe9,650c16f0f2faf8d7a0d14c09,651c1d5937a6c0ce934699db,null,null,"<p style=""font-size: 60px; font-family: BACS"">ldAavUdm</p>",,,,,,,,,,
html-keyboard-response,360,498669,0.0-16.0-0.28,5fa59d4d5a29c90da975efe9,650c16f0f2faf8d7a0d14c09,651c1d5937a6c0ce934699db,null,null,"<p style=""font-size: 60px; font-family: BACS"">ldAavUdm</p>",,,,,,,,,,
html-keyboard-response,361,499675,0.0-16.0-0.29,5fa59d4d5a29c90da975efe9,650c16f0f2faf8d7a0d14c09,651c1d5937a6c0ce934699db,null,null,"<p style=""font-size: 60px; font-family: BACS"">ldAavUdm</p>",,,,,,,,,,
html-keyboard-response,362,500686,0.0-16.0-0.30,5fa59d4d5a29c90da975efe9,650c16f0f2faf8d7a0d14c09,651c1d5937a6c0ce934699db,null,null,"<p style=""font-size: 60px; font-family: BACS"">ldAavUdm</p>",,,,,,,,,,
html-keyboard-response,363,501698,0.0-16.0-0.31,5fa59d4d5a29c90da975efe9,650c16f0f2faf8d7a0d14c09,651c1d5937a6c0ce934699db,null,null,"<p style=""font-size: 60px; font-family: BACS"">ldAavUdm</p>",,,,,,,,,,
html-keyboard-response,364,502703,0.0-16.0-0.32,5fa59d4d5a29c90da975efe9,650c16f0f2faf8d7a0d14c09,651c1d5937a6c0ce934699db,null,null,"<p style=""font-size: 60px; font-family: BACS"">ldAavUdm</p>",,,,,,,,,,
html-keyboard-response,365,503708,0.0-16.0-0.33,5fa59d4d5a29c90da975efe9,650c16f0f2faf8d7a0d14c09,651c1d5937a6c0ce934699db,null,null,"<p style=""font-size: 60px; font-family: BACS"">ldAavUdm</p>",,,,,,,,,,
html-keyboard-response,366,504713,0.0-16.0-0.34,5fa59d4d5a29c90da975efe9,650c16f0f2faf8d7a0d14c09,651c1d5937a6c0ce934699db,null,null,"<p style=""font-size: 60px; font-family: BACS"">ldAavUdm</p>",,,,,,,,,,
html-keyboard-response,367,505727,0.0-16.0-0.35,5fa59d4d5a29c90da975efe9,650c16f0f2faf8d7a0d14c09,651c1d5937a6c0ce934699db,null,null,"<p style=""font-size: 60px; font-family: BACS"">ldAavUdm</p>",,,,,,,,,,
html-keyboard-response,368,506739,0.0-16.0-0.36,5fa59d4d5a29c90da975efe9,650c16f0f2faf8d7a0d14c09,651c1d5937a6c0ce934699db,null,null,"<p style=""font-size: 60px; font-family: BACS"">ldAavUdm</p>",,,,,,,,,,
html-keyboard-response,369,507744,0.0-16.0-0.37,5fa59d4d5a29c90da975efe9,650c16f0f2faf8d7a0d14c09,651c1d5937a6c0ce934699db,null,null,"<p style=""font-size: 60px; font-family: BACS"">ldAavUdm</p>",,,,,,,,,,
html-keyboard-response,370,508756,0.0-16.0-0.38,5fa59d4d5a29c90da975efe9,650c16f0f2faf8d7a0d14c09,651c1d5937a6c0ce934699db,null,null,"<p style=""font-size: 60px; font-family: BACS"">ldAavUdm</p>",,,,,,,,,,
html-keyboard-response,371,509768,0.0-16.0-0.39,5fa59d4d5a29c90da975efe9,650c16f0f2faf8d7a0d14c09,651c1d5937a6c0ce934699db,null,null,"<p style=""font-size: 60px; font-family: BACS"">ldAavUdm</p>",,,,,,,,,,
html-keyboard-response,372,510777,0.0-16.0-0.40,5fa59d4d5a29c90da975efe9,650c16f0f2faf8d7a0d14c09,651c1d5937a6c0ce934699db,null,null,"<p style=""font-size: 60px; font-family: BACS"">ldAavUdm</p>",,,,,,,,,,
html-keyboard-response,373,511784,0.0-16.0-0.41,5fa59d4d5a29c90da975efe9,650c16f0f2faf8d7a0d14c09,651c1d5937a6c0ce934699db,null,null,"<p style=""font-size: 60px; font-family: BACS"">ldAavUdm</p>",,,,,,,,,,
html-keyboard-response,374,512786,0.0-16.0-0.42,5fa59d4d5a29c90da975efe9,650c16f0f2faf8d7a0d14c09,651c1d5937a6c0ce934699db,null,null,"<p style=""font-size: 60px; font-family: BACS"">ldAavUdm</p>",,,,,,,,,,
html-keyboard-response,375,513800,0.0-16.0-0.43,5fa59d4d5a29c90da975efe9,650c16f0f2faf8d7a0d14c09,651c1d5937a6c0ce934699db,null,null,"<p style=""font-size: 60px; font-family: BACS"">ldAavUdm</p>",,,,,,,,,,
html-keyboard-response,376,514808,0.0-16.0-0.44,5fa59d4d5a29c90da975efe9,650c16f0f2faf8d7a0d14c09,651c1d5937a6c0ce934699db,null,null,"<p style=""font-size: 60px; font-family: BACS"">ldAavUdm</p>",,,,,,,,,,
html-keyboard-response,377,515815,0.0-16.0-0.45,5fa59d4d5a29c90da975efe9,650c16f0f2faf8d7a0d14c09,651c1d5937a6c0ce934699db,null,null,"<p style=""font-size: 60px; font-family: BACS"">ldAavUdm</p>",,,,,,,,,,
html-keyboard-response,378,516823,0.0-16.0-0.46,5fa59d4d5a29c90da975efe9,650c16f0f2faf8d7a0d14c09,651c1d5937a6c0ce934699db,null,null,"<p style=""font-size: 60px; font-family: BACS"">ldAavUdm</p>",,,,,,,,,,
html-keyboard-response,379,517833,0.0-16.0-0.47,5fa59d4d5a29c90da975efe9,650c16f0f2faf8d7a0d14c09,651c1d5937a6c0ce934699db,null,null,"<p style=""font-size: 60px; font-family: BACS"">ldAavUdm</p>",,,,,,,,,,
html-keyboard-response,380,518836,0.0-16.0-0.48,5fa59d4d5a29c90da975efe9,650c16f0f2faf8d7a0d14c09,651c1d5937a6c0ce934699db,null,null,"<p style=""font-size: 60px; font-family: BACS"">ldAavUdm</p>",,,,,,,,,,
html-keyboard-response,381,519851,0.0-16.0-0.49,5fa59d4d5a29c90da975efe9,650c16f0f2faf8d7a0d14c09,651c1d5937a6c0ce934699db,null,null,"<p style=""font-size: 60px; font-family: BACS"">ldAavUdm</p>",,,,,,,,,,
html-keyboard-response,382,520855,0.0-16.0-0.50,5fa59d4d5a29c90da975efe9,650c16f0f2faf8d7a0d14c09,651c1d5937a6c0ce934699db,null,null,"<p style=""font-size: 60px; font-family: BACS"">ldAavUdm</p>",,,,,,,,,,
html-keyboard-response,383,521871,0.0-16.0-0.51,5fa59d4d5a29c90da975efe9,650c16f0f2faf8d7a0d14c09,651c1d5937a6c0ce934699db,null,null,"<p style=""font-size: 60px; font-family: BACS"">ldAavUdm</p>",,,,,,,,,,
html-keyboard-response,384,522877,0.0-16.0-0.52,5fa59d4d5a29c90da975efe9,650c16f0f2faf8d7a0d14c09,651c1d5937a6c0ce934699db,null,null,"<p style=""font-size: 60px; font-family: BACS"">ldAavUdm</p>",,,,,,,,,,
html-keyboard-response,385,523888,0.0-16.0-0.53,5fa59d4d5a29c90da975efe9,650c16f0f2faf8d7a0d14c09,651c1d5937a6c0ce934699db,null,null,"<p style=""font-size: 60px; font-family: BACS"">ldAavUdm</p>",,,,,,,,,,
html-keyboard-response,386,524900,0.0-16.0-0.54,5fa59d4d5a29c90da975efe9,650c16f0f2faf8d7a0d14c09,651c1d5937a6c0ce934699db,null,null,"<p style=""font-size: 60px; font-family: BACS"">ldAavUdm</p>",,,,,,,,,,
html-keyboard-response,387,525903,0.0-16.0-0.55,5fa59d4d5a29c90da975efe9,650c16f0f2faf8d7a0d14c09,651c1d5937a6c0ce934699db,null,null,"<p style=""font-size: 60px; font-family: BACS"">ldAavUdm</p>",,,,,,,,,,
html-keyboard-response,388,526911,0.0-16.0-0.56,5fa59d4d5a29c90da975efe9,650c16f0f2faf8d7a0d14c09,651c1d5937a6c0ce934699db,null,null,"<p style=""font-size: 60px; font-family: BACS"">ldAavUdm</p>",,,,,,,,,,
html-keyboard-response,389,527912,0.0-16.0-0.57,5fa59d4d5a29c90da975efe9,650c16f0f2faf8d7a0d14c09,651c1d5937a6c0ce934699db,null,null,"<p style=""font-size: 60px; font-family: BACS"">ldAavUdm</p>",,,,,,,,,,
html-keyboard-response,390,528922,0.0-16.0-0.58,5fa59d4d5a29c90da975efe9,650c16f0f2faf8d7a0d14c09,651c1d5937a6c0ce934699db,null,null,"<p style=""font-size: 60px; font-family: BACS"">ldAavUdm</p>",,,,,,,,,,
html-keyboard-response,391,529925,0.0-16.0-0.59,5fa59d4d5a29c90da975efe9,650c16f0f2faf8d7a0d14c09,651c1d5937a6c0ce934699db,null,null,"<p style=""font-size: 60px; font-family: BACS"">ldAavUdm</p>",,,,,,,,,,
html-keyboard-response,392,530937,0.0-16.0-0.60,5fa59d4d5a29c90da975efe9,650c16f0f2faf8d7a0d14c09,651c1d5937a6c0ce934699db,null,null,"<p style=""font-size: 60px; font-family: BACS"">ldAavUdm</p>",,,,,,,,,,
html-keyboard-response,393,531951,0.0-16.0-0.61,5fa59d4d5a29c90da975efe9,650c16f0f2faf8d7a0d14c09,651c1d5937a6c0ce934699db,null,null,"<p style=""font-size: 60px; font-family: BACS"">ldAavUdm</p>",,,,,,,,,,
html-keyboard-response,394,532952,0.0-16.0-0.62,5fa59d4d5a29c90da975efe9,650c16f0f2faf8d7a0d14c09,651c1d5937a6c0ce934699db,null,null,"<p style=""font-size: 60px; font-family: BACS"">ldAavUdm</p>",,,,,,,,,,
html-keyboard-response,395,533961,0.0-16.0-0.63,5fa59d4d5a29c90da975efe9,650c16f0f2faf8d7a0d14c09,651c1d5937a6c0ce934699db,null,null,"<p style=""font-size: 60px; font-family: BACS"">ldAavUdm</p>",,,,,,,,,,
html-keyboard-response,396,534972,0.0-16.0-0.64,5fa59d4d5a29c90da975efe9,650c16f0f2faf8d7a0d14c09,651c1d5937a6c0ce934699db,null,null,"<p style=""font-size: 60px; font-family: BACS"">ldAavUdm</p>",,,,,,,,,,
html-keyboard-response,397,535975,0.0-16.0-0.65,5fa59d4d5a29c90da975efe9,650c16f0f2faf8d7a0d14c09,651c1d5937a6c0ce934699db,null,null,"<p style=""font-size: 60px; font-family: BACS"">ldAavUdm</p>",,,,,,,,,,
html-keyboard-response,398,536988,0.0-16.0-0.66,5fa59d4d5a29c90da975efe9,650c16f0f2faf8d7a0d14c09,651c1d5937a6c0ce934699db,null,null,"<p style=""font-size: 60px; font-family: BACS"">ldAavUdm</p>",,,,,,,,,,
html-keyboard-response,399,538000,0.0-16.0-0.67,5fa59d4d5a29c90da975efe9,650c16f0f2faf8d7a0d14c09,651c1d5937a6c0ce934699db,null,null,"<p style=""font-size: 60px; font-family: BACS"">ldAavUdm</p>",,,,,,,,,,
html-keyboard-response,400,539011,0.0-16.0-0.68,5fa59d4d5a29c90da975efe9,650c16f0f2faf8d7a0d14c09,651c1d5937a6c0ce934699db,null,null,"<p style=""font-size: 60px; font-family: BACS"">ldAavUdm</p>",,,,,,,,,,
html-keyboard-response,401,540017,0.0-16.0-0.69,5fa59d4d5a29c90da975efe9,650c16f0f2faf8d7a0d14c09,651c1d5937a6c0ce934699db,null,null,"<p style=""font-size: 60px; font-family: BACS"">ldAavUdm</p>",,,,,,,,,,
html-keyboard-response,402,541022,0.0-16.0-0.70,5fa59d4d5a29c90da975efe9,650c16f0f2faf8d7a0d14c09,651c1d5937a6c0ce934699db,null,null,"<p style=""font-size: 60px; font-family: BACS"">ldAavUdm</p>",,,,,,,,,,
html-keyboard-response,403,542033,0.0-16.0-0.71,5fa59d4d5a29c90da975efe9,650c16f0f2faf8d7a0d14c09,651c1d5937a6c0ce934699db,null,null,"<p style=""font-size: 60px; font-family: BACS"">ldAavUdm</p>",,,,,,,,,,
html-keyboard-response,404,543035,0.0-16.0-0.72,5fa59d4d5a29c90da975efe9,650c16f0f2faf8d7a0d14c09,651c1d5937a6c0ce934699db,null,null,"<p style=""font-size: 60px; font-family: BACS"">ldAavUdm</p>",,,,,,,,,,
html-keyboard-response,405,544037,0.0-16.0-0.73,5fa59d4d5a29c90da975efe9,650c16f0f2faf8d7a0d14c09,651c1d5937a6c0ce934699db,null,null,"<p style=""font-size: 60px; font-family: BACS"">ldAavUdm</p>",,,,,,,,,,
html-keyboard-response,406,545041,0.0-16.0-0.74,5fa59d4d5a29c90da975efe9,650c16f0f2faf8d7a0d14c09,651c1d5937a6c0ce934699db,null,null,"<p style=""font-size: 60px; font-family: BACS"">ldAavUdm</p>",,,,,,,,,,
html-keyboard-response,407,546051,0.0-16.0-0.75,5fa59d4d5a29c90da975efe9,650c16f0f2faf8d7a0d14c09,651c1d5937a6c0ce934699db,null,null,"<p style=""font-size: 60px; font-family: BACS"">ldAavUdm</p>",,,,,,,,,,
html-keyboard-response,408,547060,0.0-16.0-0.76,5fa59d4d5a29c90da975efe9,650c16f0f2faf8d7a0d14c09,651c1d5937a6c0ce934699db,null,null,"<p style=""font-size: 60px; font-family: BACS"">ldAavUdm</p>",,,,,,,,,,
html-keyboard-response,409,548070,0.0-16.0-0.77,5fa59d4d5a29c90da975efe9,650c16f0f2faf8d7a0d14c09,651c1d5937a6c0ce934699db,null,null,"<p style=""font-size: 60px; font-family: BACS"">ldAavUdm</p>",,,,,,,,,,
html-keyboard-response,410,549079,0.0-16.0-0.78,5fa59d4d5a29c90da975efe9,650c16f0f2faf8d7a0d14c09,651c1d5937a6c0ce934699db,null,null,"<p style=""font-size: 60px; font-family: BACS"">ldAavUdm</p>",,,,,,,,,,
html-keyboard-response,411,550080,0.0-16.0-0.79,5fa59d4d5a29c90da975efe9,650c16f0f2faf8d7a0d14c09,651c1d5937a6c0ce934699db,null,null,"<p style=""font-size: 60px; font-family: BACS"">ldAavUdm</p>",,,,,,,,,,
html-keyboard-response,412,574277,0.0-17.0,5fa59d4d5a29c90da975efe9,650c16f0f2faf8d7a0d14c09,651c1d5937a6c0ce934699db,24197, ,"<p>Great, you've seen the fifth block of words. You may now take a short break.</p>
      <p>Press the spacebar when you're ready to continue.</p>",,,,,,,,,,
html-keyboard-response,413,575286,0.0-18.0-0.0,5fa59d4d5a29c90da975efe9,650c16f0f2faf8d7a0d14c09,651c1d5937a6c0ce934699db,null,null,"<p style=""font-size: 60px; font-family: BACS"">MTdYTAm</p>",,,,,,,,,,
html-keyboard-response,414,576301,0.0-18.0-0.1,5fa59d4d5a29c90da975efe9,650c16f0f2faf8d7a0d14c09,651c1d5937a6c0ce934699db,null,null,"<p style=""font-size: 60px; font-family: BACS"">vYLUvAvb</p>",,,,,,,,,,
html-keyboard-response,415,577309,0.0-18.0-0.2,5fa59d4d5a29c90da975efe9,650c16f0f2faf8d7a0d14c09,651c1d5937a6c0ce934699db,null,null,"<p style=""font-size: 60px; font-family: BACS"">LQurvUdm</p>",,,,,,,,,,
html-keyboard-response,416,578318,0.0-18.0-0.3,5fa59d4d5a29c90da975efe9,650c16f0f2faf8d7a0d14c09,651c1d5937a6c0ce934699db,null,null,"<p style=""font-size: 60px; font-family: BACS"">OEPkEcR</p>",,,,,,,,,,
html-keyboard-response,417,579331,0.0-18.0-0.4,5fa59d4d5a29c90da975efe9,650c16f0f2faf8d7a0d14c09,651c1d5937a6c0ce934699db,null,null,"<p style=""font-size: 60px; font-family: BACS"">ABPRBTRkY</p>",,,,,,,,,,
html-keyboard-response,418,580348,0.0-18.0-0.5,5fa59d4d5a29c90da975efe9,650c16f0f2faf8d7a0d14c09,651c1d5937a6c0ce934699db,null,null,"<p style=""font-size: 60px; font-family: BACS"">MTdYPED</p>",,,,,,,,,,
html-keyboard-response,419,581359,0.0-18.0-0.6,5fa59d4d5a29c90da975efe9,650c16f0f2faf8d7a0d14c09,651c1d5937a6c0ce934699db,null,null,"<p style=""font-size: 60px; font-family: BACS"">ABPRBTAm</p>",,,,,,,,,,
html-keyboard-response,420,582370,0.0-18.0-0.7,5fa59d4d5a29c90da975efe9,650c16f0f2faf8d7a0d14c09,651c1d5937a6c0ce934699db,null,null,"<p style=""font-size: 60px; font-family: BACS"">LuNZvAvb</p>",,,,,,,,,,
html-keyboard-response,421,583382,0.0-18.0-0.8,5fa59d4d5a29c90da975efe9,650c16f0f2faf8d7a0d14c09,651c1d5937a6c0ce934699db,null,null,"<p style=""font-size: 60px; font-family: BACS"">ZcGdNYLU</p>",,,,,,,,,,
html-keyboard-response,422,584383,0.0-18.0-0.9,5fa59d4d5a29c90da975efe9,650c16f0f2faf8d7a0d14c09,651c1d5937a6c0ce934699db,null,null,"<p style=""font-size: 60px; font-family: BACS"">AYkEhbRC</p>",,,,,,,,,,
html-keyboard-response,423,585391,0.0-18.0-0.10,5fa59d4d5a29c90da975efe9,650c16f0f2faf8d7a0d14c09,651c1d5937a6c0ce934699db,null,null,"<p style=""font-size: 60px; font-family: BACS"">MlthEcR</p>",,,,,,,,,,
html-keyboard-response,424,586395,0.0-18.0-0.11,5fa59d4d5a29c90da975efe9,650c16f0f2faf8d7a0d14c09,651c1d5937a6c0ce934699db,null,null,"<p style=""font-size: 60px; font-family: BACS"">LNUrJYZUZ</p>",,,,,,,,,,
html-keyboard-response,425,587396,0.0-18.0-0.12,5fa59d4d5a29c90da975efe9,650c16f0f2faf8d7a0d14c09,651c1d5937a6c0ce934699db,null,null,"<p style=""font-size: 60px; font-family: BACS"">AYkEhTAm</p>",,,,,,,,,,
html-keyboard-response,426,588398,0.0-18.0-0.13,5fa59d4d5a29c90da975efe9,650c16f0f2faf8d7a0d14c09,651c1d5937a6c0ce934699db,null,null,"<p style=""font-size: 60px; font-family: BACS"">LuNZYZUZ</p>",,,,,,,,,,
html-keyboard-response,427,589408,0.0-18.0-0.14,5fa59d4d5a29c90da975efe9,650c16f0f2faf8d7a0d14c09,651c1d5937a6c0ce934699db,null,null,"<p style=""font-size: 60px; font-family: BACS"">MTdYEcR</p>",,,,,,,,,,
html-keyboard-response,428,590424,0.0-18.0-0.15,5fa59d4d5a29c90da975efe9,650c16f0f2faf8d7a0d14c09,651c1d5937a6c0ce934699db,null,null,"<p style=""font-size: 60px; font-family: BACS"">RdPtDTAm</p>",,,,,,,,,,
html-keyboard-response,429,591428,0.0-18.0-0.16,5fa59d4d5a29c90da975efe9,650c16f0f2faf8d7a0d14c09,651c1d5937a6c0ce934699db,null,null,"<p style=""font-size: 60px; font-family: BACS"">tRdMTRkY</p>",,,,,,,,,,
html-keyboard-response,430,592430,0.0-18.0-0.17,5fa59d4d5a29c90da975efe9,650c16f0f2faf8d7a0d14c09,651c1d5937a6c0ce934699db,null,null,"<p style=""font-size: 60px; font-family: BACS"">MlthTAm</p>",,,,,,,,,,
html-keyboard-response,431,593445,0.0-18.0-0.18,5fa59d4d5a29c90da975efe9,650c16f0f2faf8d7a0d14c09,651c1d5937a6c0ce934699db,null,null,"<p style=""font-size: 60px; font-family: BACS"">RdPtDPED</p>",,,,,,,,,,
html-keyboard-response,432,594460,0.0-18.0-0.19,5fa59d4d5a29c90da975efe9,650c16f0f2faf8d7a0d14c09,651c1d5937a6c0ce934699db,null,null,"<p style=""font-size: 60px; font-family: BACS"">ldAavUdm</p>",,,,,,,,,,
html-keyboard-response,433,595469,0.0-18.0-0.20,5fa59d4d5a29c90da975efe9,650c16f0f2faf8d7a0d14c09,651c1d5937a6c0ce934699db,null,null,"<p style=""font-size: 60px; font-family: BACS"">dMThkEcR</p>",,,,,,,,,,
html-keyboard-response,434,596479,0.0-18.0-0.21,5fa59d4d5a29c90da975efe9,650c16f0f2faf8d7a0d14c09,651c1d5937a6c0ce934699db,null,null,"<p style=""font-size: 60px; font-family: BACS"">mBmlATRkY</p>",,,,,,,,,,
html-keyboard-response,435,597494,0.0-18.0-0.22,5fa59d4d5a29c90da975efe9,650c16f0f2faf8d7a0d14c09,651c1d5937a6c0ce934699db,null,null,"<p style=""font-size: 60px; font-family: BACS"">AYkEhEcR</p>",,,,,,,,,,
html-keyboard-response,436,598507,0.0-18.0-0.23,5fa59d4d5a29c90da975efe9,650c16f0f2faf8d7a0d14c09,651c1d5937a6c0ce934699db,null,null,"<p style=""font-size: 60px; font-family: BACS"">LNUrJvAvb</p>",,,,,,,,,,
html-keyboard-response,437,599519,0.0-18.0-0.24,5fa59d4d5a29c90da975efe9,650c16f0f2faf8d7a0d14c09,651c1d5937a6c0ce934699db,null,null,"<p style=""font-size: 60px; font-family: BACS"">MTdYbRC</p>",,,,,,,,,,
html-keyboard-response,438,600530,0.0-18.0-0.25,5fa59d4d5a29c90da975efe9,650c16f0f2faf8d7a0d14c09,651c1d5937a6c0ce934699db,null,null,"<p style=""font-size: 60px; font-family: BACS"">LNUrJYLU</p>",,,,,,,,,,
html-keyboard-response,439,601542,0.0-18.0-0.26,5fa59d4d5a29c90da975efe9,650c16f0f2faf8d7a0d14c09,651c1d5937a6c0ce934699db,null,null,"<p style=""font-size: 60px; font-family: BACS"">mBmlAPED</p>",,,,,,,,,,
html-keyboard-response,440,602552,0.0-18.0-0.27,5fa59d4d5a29c90da975efe9,650c16f0f2faf8d7a0d14c09,651c1d5937a6c0ce934699db,null,null,"<p style=""font-size: 60px; font-family: BACS"">ZcGdNvAvb</p>",,,,,,,,,,
html-keyboard-response,441,603565,0.0-18.0-0.28,5fa59d4d5a29c90da975efe9,650c16f0f2faf8d7a0d14c09,651c1d5937a6c0ce934699db,null,null,"<p style=""font-size: 60px; font-family: BACS"">OEPkTRkY</p>",,,,,,,,,,
html-keyboard-response,442,604566,0.0-18.0-0.29,5fa59d4d5a29c90da975efe9,650c16f0f2faf8d7a0d14c09,651c1d5937a6c0ce934699db,null,null,"<p style=""font-size: 60px; font-family: BACS"">tRdMPED</p>",,,,,,,,,,
html-keyboard-response,443,605577,0.0-18.0-0.30,5fa59d4d5a29c90da975efe9,650c16f0f2faf8d7a0d14c09,651c1d5937a6c0ce934699db,null,null,"<p style=""font-size: 60px; font-family: BACS"">mBmlATAm</p>",,,,,,,,,,
html-keyboard-response,444,606584,0.0-18.0-0.31,5fa59d4d5a29c90da975efe9,650c16f0f2faf8d7a0d14c09,651c1d5937a6c0ce934699db,null,null,"<p style=""font-size: 60px; font-family: BACS"">vYLUYZUZ</p>",,,,,,,,,,
html-keyboard-response,445,607592,0.0-18.0-0.32,5fa59d4d5a29c90da975efe9,650c16f0f2faf8d7a0d14c09,651c1d5937a6c0ce934699db,null,null,"<p style=""font-size: 60px; font-family: BACS"">AYkEhTRkY</p>",,,,,,,,,,
html-keyboard-response,446,608594,0.0-18.0-0.33,5fa59d4d5a29c90da975efe9,650c16f0f2faf8d7a0d14c09,651c1d5937a6c0ce934699db,null,null,"<p style=""font-size: 60px; font-family: BACS"">OEPkPED</p>",,,,,,,,,,
html-keyboard-response,447,609595,0.0-18.0-0.34,5fa59d4d5a29c90da975efe9,650c16f0f2faf8d7a0d14c09,651c1d5937a6c0ce934699db,null,null,"<p style=""font-size: 60px; font-family: BACS"">NulkLcO</p>",,,,,,,,,,
html-keyboard-response,448,610604,0.0-18.0-0.35,5fa59d4d5a29c90da975efe9,650c16f0f2faf8d7a0d14c09,651c1d5937a6c0ce934699db,null,null,"<p style=""font-size: 60px; font-family: BACS"">dMThkPED</p>",,,,,,,,,,
html-keyboard-response,449,611612,0.0-18.0-0.36,5fa59d4d5a29c90da975efe9,650c16f0f2faf8d7a0d14c09,651c1d5937a6c0ce934699db,null,null,"<p style=""font-size: 60px; font-family: BACS"">ldAaLcO</p>",,,,,,,,,,
html-keyboard-response,450,612622,0.0-18.0-0.37,5fa59d4d5a29c90da975efe9,650c16f0f2faf8d7a0d14c09,651c1d5937a6c0ce934699db,null,null,"<p style=""font-size: 60px; font-family: BACS"">JuamlYZUZ</p>",,,,,,,,,,
html-keyboard-response,451,613630,0.0-18.0-0.38,5fa59d4d5a29c90da975efe9,650c16f0f2faf8d7a0d14c09,651c1d5937a6c0ce934699db,null,null,"<p style=""font-size: 60px; font-family: BACS"">MlthTRkY</p>",,,,,,,,,,
html-keyboard-response,452,614644,0.0-18.0-0.39,5fa59d4d5a29c90da975efe9,650c16f0f2faf8d7a0d14c09,651c1d5937a6c0ce934699db,null,null,"<p style=""font-size: 60px; font-family: BACS"">RdPtDbRC</p>",,,,,,,,,,
html-keyboard-response,453,615644,0.0-18.0-0.40,5fa59d4d5a29c90da975efe9,650c16f0f2faf8d7a0d14c09,651c1d5937a6c0ce934699db,null,null,"<p style=""font-size: 60px; font-family: BACS"">rdLJavUdm</p>",,,,,,,,,,
html-keyboard-response,454,616659,0.0-18.0-0.41,5fa59d4d5a29c90da975efe9,650c16f0f2faf8d7a0d14c09,651c1d5937a6c0ce934699db,null,null,"<p style=""font-size: 60px; font-family: BACS"">NaAQdYZUZ</p>",,,,,,,,,,
html-keyboard-response,455,617662,0.0-18.0-0.42,5fa59d4d5a29c90da975efe9,650c16f0f2faf8d7a0d14c09,651c1d5937a6c0ce934699db,null,null,"<p style=""font-size: 60px; font-family: BACS"">LQurYLU</p>",,,,,,,,,,
html-keyboard-response,456,618676,0.0-18.0-0.43,5fa59d4d5a29c90da975efe9,650c16f0f2faf8d7a0d14c09,651c1d5937a6c0ce934699db,null,null,"<p style=""font-size: 60px; font-family: BACS"">dMThkbRC</p>",,,,,,,,,,
html-keyboard-response,457,619677,0.0-18.0-0.44,5fa59d4d5a29c90da975efe9,650c16f0f2faf8d7a0d14c09,651c1d5937a6c0ce934699db,null,null,"<p style=""font-size: 60px; font-family: BACS"">KMOcPED</p>",,,,,,,,,,
html-keyboard-response,458,620689,0.0-18.0-0.45,5fa59d4d5a29c90da975efe9,650c16f0f2faf8d7a0d14c09,651c1d5937a6c0ce934699db,null,null,"<p style=""font-size: 60px; font-family: BACS"">NaAQdYLU</p>",,,,,,,,,,
html-keyboard-response,459,621697,0.0-18.0-0.46,5fa59d4d5a29c90da975efe9,650c16f0f2faf8d7a0d14c09,651c1d5937a6c0ce934699db,null,null,"<p style=""font-size: 60px; font-family: BACS"">dMThkTAm</p>",,,,,,,,,,
html-keyboard-response,460,622709,0.0-18.0-0.47,5fa59d4d5a29c90da975efe9,650c16f0f2faf8d7a0d14c09,651c1d5937a6c0ce934699db,null,null,"<p style=""font-size: 60px; font-family: BACS"">ABPRBPED</p>",,,,,,,,,,
html-keyboard-response,461,623711,0.0-18.0-0.48,5fa59d4d5a29c90da975efe9,650c16f0f2faf8d7a0d14c09,651c1d5937a6c0ce934699db,null,null,"<p style=""font-size: 60px; font-family: BACS"">RdPtDTRkY</p>",,,,,,,,,,
html-keyboard-response,462,624719,0.0-18.0-0.49,5fa59d4d5a29c90da975efe9,650c16f0f2faf8d7a0d14c09,651c1d5937a6c0ce934699db,null,null,"<p style=""font-size: 60px; font-family: BACS"">ZcGdNvUdm</p>",,,,,,,,,,
html-keyboard-response,463,625732,0.0-18.0-0.50,5fa59d4d5a29c90da975efe9,650c16f0f2faf8d7a0d14c09,651c1d5937a6c0ce934699db,null,null,"<p style=""font-size: 60px; font-family: BACS"">JuamlLcO</p>",,,,,,,,,,
html-keyboard-response,464,626745,0.0-18.0-0.51,5fa59d4d5a29c90da975efe9,650c16f0f2faf8d7a0d14c09,651c1d5937a6c0ce934699db,null,null,"<p style=""font-size: 60px; font-family: BACS"">mBmlAbRC</p>",,,,,,,,,,
html-keyboard-response,465,627748,0.0-18.0-0.52,5fa59d4d5a29c90da975efe9,650c16f0f2faf8d7a0d14c09,651c1d5937a6c0ce934699db,null,null,"<p style=""font-size: 60px; font-family: BACS"">NulkYLU</p>",,,,,,,,,,
html-keyboard-response,466,628764,0.0-18.0-0.53,5fa59d4d5a29c90da975efe9,650c16f0f2faf8d7a0d14c09,651c1d5937a6c0ce934699db,null,null,"<p style=""font-size: 60px; font-family: BACS"">KMOcTRkY</p>",,,,,,,,,,
html-keyboard-response,467,629769,0.0-18.0-0.54,5fa59d4d5a29c90da975efe9,650c16f0f2faf8d7a0d14c09,651c1d5937a6c0ce934699db,null,null,"<p style=""font-size: 60px; font-family: BACS"">NulkvAvb</p>",,,,,,,,,,
html-keyboard-response,468,630785,0.0-18.0-0.55,5fa59d4d5a29c90da975efe9,650c16f0f2faf8d7a0d14c09,651c1d5937a6c0ce934699db,null,null,"<p style=""font-size: 60px; font-family: BACS"">LuNZvUdm</p>",,,,,,,,,,
