trial_type,trial_index,time_elapsed,internal_node_id,subject_id,study_id,session_id,rt,response,stimulus,success,item,task,correct_response,testing_condition,correct,target,confound,name,view_history
pavlovia,0,1611,0.0-0.0,614c8e5469405530dc27b9d5,650c16f0f2faf8d7a0d14c09,651c1c9ca70859f21f006926,,,,,,,,,,,,,
survey-html-form,1,5647,0.0-1.0,614c8e5469405530dc27b9d5,650c16f0f2faf8d7a0d14c09,651c1c9ca70859f21f006926,4032,"{""ID"":""614c8e5469405530dc27b9d5""}",,,,,,,,,,,
html-keyboard-response,2,14691,0.0-2.0,614c8e5469405530dc27b9d5,650c16f0f2faf8d7a0d14c09,651c1c9ca70859f21f006926,9042, ,"<p style=""font-size: 15px;"">Before beginning, we ask that you read the consent information and confirm your agreement to participate in the experiment.</p>
      <p style=""font-size: 15px;""> We ask that you remember that this is a research project and that your participation is entirely voluntary. You can stop your participation at any time, without needing to provide any explanation. The study we're asking you to participate in aims at examining how readers process written words. You will be engaged in a session of apprximately 20 minutes, followed by a brief questionnaire. You will have the opportunity to take a few breaks during the experiment. You will be paid £4 for your participation, corresponding to a rate of £8/hour. While this experiment looks at cognitive faculties, this experiment doesn't constitute clinical proof of eventual pathologies.</p>
      <p style=""font-size: 15px;"">All of the information collected thanks to yours and others' participation will be held in a secure password-protected server, and will not be shared with anyone not authorised to view it. Your personal information will be kept with an arbitrary participant ID. Thanks to this data anonymity process, any researcher analysing the data won't be able to track the information back to a specific participant. Therefore, this process will make identifying you impossibile, even when results from the study will be published in scientific reviews, presented at congresses, or at any other public forum. More generally, the collected data will be treated in accordance with the laws on privacy and conformity to the Legislative Degree n. 196 ""Code regarding the protection of personal data"" of the 30th of June 2003 and to the European Regulation 2016/670 (General Data Protection Regulation - GDPR). The Data Protection Officer is Avv. Valentina Carollo, who can be contacted at the following email addresses: <a href=""mailto:dpo@sissa.it"">dpo@sissa.it</a> or <a href=""mailto:rpd@sissa.it"">rpd@sissa.it</a> - PEC: <a href=""mailto:protocollo@pec.sissa.it"">protocollo@pec.sissa.it</a>.</p>
      <p style=""font-size: 15px;""> Before expressing your consent to participate, we would like to remind you again that in case you need explanations on any aspect of the experimental procedure, the researcher is at your disposition (<a href=""mailto:aliebelt@sissa.it"">aliebelt@sissa.it</a>, <a href=""mailto:davide.crepaldi@sissa.it"">davide.crepaldi@sissa.it</a>).</p>
      <p style=""font-size: 15px;"">If you would like to download the informed consent form, you can do so here: <a href=""BASL-Informed_Consent.pdf"" download>informed consent form</a>.</p>
      <p style=""font-size: 15px;"">We ask that you press the spacebar to proceed to the consent section.</p>",,,,,,,,,,
survey-html-form,3,58417,0.0-3.0,614c8e5469405530dc27b9d5,650c16f0f2faf8d7a0d14c09,651c1c9ca70859f21f006926,43722,"{""consent1"":""YES"",""consent2"":""YES"",""consent3"":""YES"",""consent4"":""YES"",""consent5"":""YES"",""consent6"":""YES""}",,,,,,,,,,,
fullscreen,4,69593,0.0-4.0,614c8e5469405530dc27b9d5,650c16f0f2faf8d7a0d14c09,651c1c9ca70859f21f006926,,,,TRUE,,,,,,,,,
html-keyboard-response,5,108738,0.0-5.0,614c8e5469405530dc27b9d5,650c16f0f2faf8d7a0d14c09,651c1c9ca70859f21f006926,39143, ,"<p>Welcome, and thank you very much for your time!</p>
      <p>In this experiment, you'll be a language expert who's been asked to take a look at words that Earth has received in its first communication with aliens. Your task, in this first part of the experiment, is to pay close attention to the words you'll be shown; later, world leaders will ask you questions on what you saw. The words will be shown to you quite quickly; it seems that the aliens were in a hurry :-)</p>
      <p>Press the spacebar to continue.<p>",,,,,,,,,,
html-keyboard-response,6,108795,0.0-6.0,614c8e5469405530dc27b9d5,650c16f0f2faf8d7a0d14c09,651c1c9ca70859f21f006926,null,null,"<p style=""font-size: 120px; font-family: BACS""> </p>",,,,,,,,,,
html-keyboard-response,7,121368,0.0-7.0,614c8e5469405530dc27b9d5,650c16f0f2faf8d7a0d14c09,651c1c9ca70859f21f006926,12583, ,"<p>Here is an example of the words you'll see:</p>
      <img src='esempio.png' height='400px'>
      <p>When you're ready to begin, press the spacebar.</p></div>",,,,,,,,,,
html-keyboard-response,8,122381,0.0-8.0-0.0,614c8e5469405530dc27b9d5,650c16f0f2faf8d7a0d14c09,651c1c9ca70859f21f006926,null,null,"<p style=""font-size: 60px; font-family: BACS"">DmAMERDM</p>",,,,,,,,,,
html-keyboard-response,9,123384,0.0-8.0-0.1,614c8e5469405530dc27b9d5,650c16f0f2faf8d7a0d14c09,651c1c9ca70859f21f006926,null,null,"<p style=""font-size: 60px; font-family: BACS"">mrOdkJdr</p>",,,,,,,,,,
html-keyboard-response,10,124391,0.0-8.0-0.2,614c8e5469405530dc27b9d5,650c16f0f2faf8d7a0d14c09,651c1c9ca70859f21f006926,null,null,"<p style=""font-size: 60px; font-family: BACS"">rLkmOJNk</p>",,,,,,,,,,
html-keyboard-response,11,125399,0.0-8.0-0.3,614c8e5469405530dc27b9d5,650c16f0f2faf8d7a0d14c09,651c1c9ca70859f21f006926,null,null,"<p style=""font-size: 60px; font-family: BACS"">EPERdRdCc</p>",,,,,,,,,,
html-keyboard-response,12,126401,0.0-8.0-0.4,614c8e5469405530dc27b9d5,650c16f0f2faf8d7a0d14c09,651c1c9ca70859f21f006926,null,null,"<p style=""font-size: 60px; font-family: BACS"">mdkKPEdK</p>",,,,,,,,,,
html-keyboard-response,13,127414,0.0-8.0-0.5,614c8e5469405530dc27b9d5,650c16f0f2faf8d7a0d14c09,651c1c9ca70859f21f006926,null,null,"<p style=""font-size: 60px; font-family: BACS"">DmAMEcMRl</p>",,,,,,,,,,
html-keyboard-response,14,128424,0.0-8.0-0.6,614c8e5469405530dc27b9d5,650c16f0f2faf8d7a0d14c09,651c1c9ca70859f21f006926,null,null,"<p style=""font-size: 60px; font-family: BACS"">lTmORDM</p>",,,,,,,,,,
html-keyboard-response,15,129439,0.0-8.0-0.7,614c8e5469405530dc27b9d5,650c16f0f2faf8d7a0d14c09,651c1c9ca70859f21f006926,null,null,"<p style=""font-size: 60px; font-family: BACS"">mdkKRdCc</p>",,,,,,,,,,
html-keyboard-response,16,130451,0.0-8.0-0.8,614c8e5469405530dc27b9d5,650c16f0f2faf8d7a0d14c09,651c1c9ca70859f21f006926,null,null,"<p style=""font-size: 60px; font-family: BACS"">mrOdYUYa</p>",,,,,,,,,,
html-keyboard-response,17,131458,0.0-8.0-0.9,614c8e5469405530dc27b9d5,650c16f0f2faf8d7a0d14c09,651c1c9ca70859f21f006926,null,null,"<p style=""font-size: 60px; font-family: BACS"">lTmOhRKm</p>",,,,,,,,,,
html-keyboard-response,18,132467,0.0-8.0-0.10,614c8e5469405530dc27b9d5,650c16f0f2faf8d7a0d14c09,651c1c9ca70859f21f006926,null,null,"<p style=""font-size: 60px; font-family: BACS"">hmKPMcMRl</p>",,,,,,,,,,
html-keyboard-response,19,133474,0.0-8.0-0.11,614c8e5469405530dc27b9d5,650c16f0f2faf8d7a0d14c09,651c1c9ca70859f21f006926,null,null,"<p style=""font-size: 60px; font-family: BACS"">OQarQrab</p>",,,,,,,,,,
html-keyboard-response,20,134489,0.0-8.0-0.12,614c8e5469405530dc27b9d5,650c16f0f2faf8d7a0d14c09,651c1c9ca70859f21f006926,null,null,"<p style=""font-size: 60px; font-family: BACS"">mdkKhRKm</p>",,,,,,,,,,
html-keyboard-response,21,135504,0.0-8.0-0.13,614c8e5469405530dc27b9d5,650c16f0f2faf8d7a0d14c09,651c1c9ca70859f21f006926,null,null,"<p style=""font-size: 60px; font-family: BACS"">bvuZkmU</p>",,,,,,,,,,
html-keyboard-response,22,136519,0.0-8.0-0.14,614c8e5469405530dc27b9d5,650c16f0f2faf8d7a0d14c09,651c1c9ca70859f21f006926,null,null,"<p style=""font-size: 60px; font-family: BACS"">ubALmYUYa</p>",,,,,,,,,,
html-keyboard-response,23,137524,0.0-8.0-0.15,614c8e5469405530dc27b9d5,650c16f0f2faf8d7a0d14c09,651c1c9ca70859f21f006926,null,null,"<p style=""font-size: 60px; font-family: BACS"">mrOdrab</p>",,,,,,,,,,
html-keyboard-response,24,138538,0.0-8.0-0.16,614c8e5469405530dc27b9d5,650c16f0f2faf8d7a0d14c09,651c1c9ca70859f21f006926,null,null,"<p style=""font-size: 60px; font-family: BACS"">COTKRdCc</p>",,,,,,,,,,
html-keyboard-response,25,139549,0.0-8.0-0.17,614c8e5469405530dc27b9d5,650c16f0f2faf8d7a0d14c09,651c1c9ca70859f21f006926,null,null,"<p style=""font-size: 60px; font-family: BACS"">tRdMhRKm</p>",,,,,,,,,,
html-keyboard-response,26,140552,0.0-8.0-0.18,614c8e5469405530dc27b9d5,650c16f0f2faf8d7a0d14c09,651c1c9ca70859f21f006926,null,null,"<p style=""font-size: 60px; font-family: BACS"">dNZArab</p>",,,,,,,,,,
html-keyboard-response,27,141556,0.0-8.0-0.19,614c8e5469405530dc27b9d5,650c16f0f2faf8d7a0d14c09,651c1c9ca70859f21f006926,null,null,"<p style=""font-size: 60px; font-family: BACS"">bvuZOJNk</p>",,,,,,,,,,
html-keyboard-response,28,142571,0.0-8.0-0.20,614c8e5469405530dc27b9d5,650c16f0f2faf8d7a0d14c09,651c1c9ca70859f21f006926,null,null,"<p style=""font-size: 60px; font-family: BACS"">ubALmrab</p>",,,,,,,,,,
html-keyboard-response,29,143580,0.0-8.0-0.21,614c8e5469405530dc27b9d5,650c16f0f2faf8d7a0d14c09,651c1c9ca70859f21f006926,null,null,"<p style=""font-size: 60px; font-family: BACS"">tRdMcMRl</p>",,,,,,,,,,
html-keyboard-response,30,144589,0.0-8.0-0.22,614c8e5469405530dc27b9d5,650c16f0f2faf8d7a0d14c09,651c1c9ca70859f21f006926,null,null,"<p style=""font-size: 60px; font-family: BACS"">hmKPMRDM</p>",,,,,,,,,,
html-keyboard-response,31,145591,0.0-8.0-0.23,614c8e5469405530dc27b9d5,650c16f0f2faf8d7a0d14c09,651c1c9ca70859f21f006926,null,null,"<p style=""font-size: 60px; font-family: BACS"">Ldrbvrab</p>",,,,,,,,,,
html-keyboard-response,32,146607,0.0-8.0-0.24,614c8e5469405530dc27b9d5,650c16f0f2faf8d7a0d14c09,651c1c9ca70859f21f006926,null,null,"<p style=""font-size: 60px; font-family: BACS"">YObAPEdK</p>",,,,,,,,,,
html-keyboard-response,33,147613,0.0-8.0-0.25,614c8e5469405530dc27b9d5,650c16f0f2faf8d7a0d14c09,651c1c9ca70859f21f006926,null,null,"<p style=""font-size: 60px; font-family: BACS"">rbYbuOJNk</p>",,,,,,,,,,
html-keyboard-response,34,148627,0.0-8.0-0.26,614c8e5469405530dc27b9d5,650c16f0f2faf8d7a0d14c09,651c1c9ca70859f21f006926,null,null,"<p style=""font-size: 60px; font-family: BACS"">COTKhRKm</p>",,,,,,,,,,
html-keyboard-response,35,149638,0.0-8.0-0.27,614c8e5469405530dc27b9d5,650c16f0f2faf8d7a0d14c09,651c1c9ca70859f21f006926,null,null,"<p style=""font-size: 60px; font-family: BACS"">mdkKcMRl</p>",,,,,,,,,,
html-keyboard-response,36,150654,0.0-8.0-0.28,614c8e5469405530dc27b9d5,650c16f0f2faf8d7a0d14c09,651c1c9ca70859f21f006926,null,null,"<p style=""font-size: 60px; font-family: BACS"">COtBDhRKm</p>",,,,,,,,,,
html-keyboard-response,37,151665,0.0-8.0-0.29,614c8e5469405530dc27b9d5,650c16f0f2faf8d7a0d14c09,651c1c9ca70859f21f006926,null,null,"<p style=""font-size: 60px; font-family: BACS"">rbYbukJdr</p>",,,,,,,,,,
html-keyboard-response,38,152675,0.0-8.0-0.30,614c8e5469405530dc27b9d5,650c16f0f2faf8d7a0d14c09,651c1c9ca70859f21f006926,null,null,"<p style=""font-size: 60px; font-family: BACS"">hmKPMPEdK</p>",,,,,,,,,,
html-keyboard-response,39,153676,0.0-8.0-0.31,614c8e5469405530dc27b9d5,650c16f0f2faf8d7a0d14c09,651c1c9ca70859f21f006926,null,null,"<p style=""font-size: 60px; font-family: BACS"">mrOdOJNk</p>",,,,,,,,,,
html-keyboard-response,40,154686,0.0-8.0-0.32,614c8e5469405530dc27b9d5,650c16f0f2faf8d7a0d14c09,651c1c9ca70859f21f006926,null,null,"<p style=""font-size: 60px; font-family: BACS"">kGlUkmU</p>",,,,,,,,,,
html-keyboard-response,41,155701,0.0-8.0-0.33,614c8e5469405530dc27b9d5,650c16f0f2faf8d7a0d14c09,651c1c9ca70859f21f006926,null,null,"<p style=""font-size: 60px; font-family: BACS"">LdrbvYUYa</p>",,,,,,,,,,
html-keyboard-response,42,156704,0.0-8.0-0.34,614c8e5469405530dc27b9d5,650c16f0f2faf8d7a0d14c09,651c1c9ca70859f21f006926,null,null,"<p style=""font-size: 60px; font-family: BACS"">dNZAkmU</p>",,,,,,,,,,
html-keyboard-response,43,157715,0.0-8.0-0.35,614c8e5469405530dc27b9d5,650c16f0f2faf8d7a0d14c09,651c1c9ca70859f21f006926,null,null,"<p style=""font-size: 60px; font-family: BACS"">DmAMEPEdK</p>",,,,,,,,,,
html-keyboard-response,44,158730,0.0-8.0-0.36,614c8e5469405530dc27b9d5,650c16f0f2faf8d7a0d14c09,651c1c9ca70859f21f006926,null,null,"<p style=""font-size: 60px; font-family: BACS"">ZcGdNrab</p>",,,,,,,,,,
html-keyboard-response,45,159739,0.0-8.0-0.37,614c8e5469405530dc27b9d5,650c16f0f2faf8d7a0d14c09,651c1c9ca70859f21f006926,null,null,"<p style=""font-size: 60px; font-family: BACS"">kGlUYUYa</p>",,,,,,,,,,
html-keyboard-response,46,160744,0.0-8.0-0.38,614c8e5469405530dc27b9d5,650c16f0f2faf8d7a0d14c09,651c1c9ca70859f21f006926,null,null,"<p style=""font-size: 60px; font-family: BACS"">hmKPMRdCc</p>",,,,,,,,,,
html-keyboard-response,47,161752,0.0-8.0-0.39,614c8e5469405530dc27b9d5,650c16f0f2faf8d7a0d14c09,651c1c9ca70859f21f006926,null,null,"<p style=""font-size: 60px; font-family: BACS"">LdrbvkmU</p>",,,,,,,,,,
html-keyboard-response,48,162755,0.0-8.0-0.40,614c8e5469405530dc27b9d5,650c16f0f2faf8d7a0d14c09,651c1c9ca70859f21f006926,null,null,"<p style=""font-size: 60px; font-family: BACS"">dNZAkJdr</p>",,,,,,,,,,
html-keyboard-response,49,163771,0.0-8.0-0.41,614c8e5469405530dc27b9d5,650c16f0f2faf8d7a0d14c09,651c1c9ca70859f21f006926,null,null,"<p style=""font-size: 60px; font-family: BACS"">rLkmYUYa</p>",,,,,,,,,,
html-keyboard-response,50,164787,0.0-8.0-0.42,614c8e5469405530dc27b9d5,650c16f0f2faf8d7a0d14c09,651c1c9ca70859f21f006926,null,null,"<p style=""font-size: 60px; font-family: BACS"">kGlUOJNk</p>",,,,,,,,,,
html-keyboard-response,51,165801,0.0-8.0-0.43,614c8e5469405530dc27b9d5,650c16f0f2faf8d7a0d14c09,651c1c9ca70859f21f006926,null,null,"<p style=""font-size: 60px; font-family: BACS"">YObAcMRl</p>",,,,,,,,,,
html-keyboard-response,52,166805,0.0-8.0-0.44,614c8e5469405530dc27b9d5,650c16f0f2faf8d7a0d14c09,651c1c9ca70859f21f006926,null,null,"<p style=""font-size: 60px; font-family: BACS"">bvuZkJdr</p>",,,,,,,,,,
html-keyboard-response,53,167820,0.0-8.0-0.45,614c8e5469405530dc27b9d5,650c16f0f2faf8d7a0d14c09,651c1c9ca70859f21f006926,null,null,"<p style=""font-size: 60px; font-family: BACS"">COTKPEdK</p>",,,,,,,,,,
html-keyboard-response,54,168834,0.0-8.0-0.46,614c8e5469405530dc27b9d5,650c16f0f2faf8d7a0d14c09,651c1c9ca70859f21f006926,null,null,"<p style=""font-size: 60px; font-family: BACS"">rLkmkmU</p>",,,,,,,,,,
html-keyboard-response,55,169836,0.0-8.0-0.47,614c8e5469405530dc27b9d5,650c16f0f2faf8d7a0d14c09,651c1c9ca70859f21f006926,null,null,"<p style=""font-size: 60px; font-family: BACS"">COtBDRdCc</p>",,,,,,,,,,
html-keyboard-response,56,170851,0.0-8.0-0.48,614c8e5469405530dc27b9d5,650c16f0f2faf8d7a0d14c09,651c1c9ca70859f21f006926,null,null,"<p style=""font-size: 60px; font-family: BACS"">EPERdcMRl</p>",,,,,,,,,,
html-keyboard-response,57,171859,0.0-8.0-0.49,614c8e5469405530dc27b9d5,650c16f0f2faf8d7a0d14c09,651c1c9ca70859f21f006926,null,null,"<p style=""font-size: 60px; font-family: BACS"">kGlUkJdr</p>",,,,,,,,,,
html-keyboard-response,58,172861,0.0-8.0-0.50,614c8e5469405530dc27b9d5,650c16f0f2faf8d7a0d14c09,651c1c9ca70859f21f006926,null,null,"<p style=""font-size: 60px; font-family: BACS"">ZcGdNYUYa</p>",,,,,,,,,,
html-keyboard-response,59,173868,0.0-8.0-0.51,614c8e5469405530dc27b9d5,650c16f0f2faf8d7a0d14c09,651c1c9ca70859f21f006926,null,null,"<p style=""font-size: 60px; font-family: BACS"">cROMtcMRl</p>",,,,,,,,,,
html-keyboard-response,60,174883,0.0-8.0-0.52,614c8e5469405530dc27b9d5,650c16f0f2faf8d7a0d14c09,651c1c9ca70859f21f006926,null,null,"<p style=""font-size: 60px; font-family: BACS"">OQarQkmU</p>",,,,,,,,,,
html-keyboard-response,61,175886,0.0-8.0-0.53,614c8e5469405530dc27b9d5,650c16f0f2faf8d7a0d14c09,651c1c9ca70859f21f006926,null,null,"<p style=""font-size: 60px; font-family: BACS"">EPERdRDM</p>",,,,,,,,,,
html-keyboard-response,62,176901,0.0-8.0-0.54,614c8e5469405530dc27b9d5,650c16f0f2faf8d7a0d14c09,651c1c9ca70859f21f006926,null,null,"<p style=""font-size: 60px; font-family: BACS"">dNZAOJNk</p>",,,,,,,,,,
html-keyboard-response,63,177906,0.0-8.0-0.55,614c8e5469405530dc27b9d5,650c16f0f2faf8d7a0d14c09,651c1c9ca70859f21f006926,null,null,"<p style=""font-size: 60px; font-family: BACS"">COtBDRDM</p>",,,,,,,,,,
html-keyboard-response,64,178913,0.0-8.0-0.56,614c8e5469405530dc27b9d5,650c16f0f2faf8d7a0d14c09,651c1c9ca70859f21f006926,null,null,"<p style=""font-size: 60px; font-family: BACS"">lTmORdCc</p>",,,,,,,,,,
html-keyboard-response,65,179916,0.0-8.0-0.57,614c8e5469405530dc27b9d5,650c16f0f2faf8d7a0d14c09,651c1c9ca70859f21f006926,null,null,"<p style=""font-size: 60px; font-family: BACS"">rLkmrab</p>",,,,,,,,,,
html-keyboard-response,66,180925,0.0-8.0-0.58,614c8e5469405530dc27b9d5,650c16f0f2faf8d7a0d14c09,651c1c9ca70859f21f006926,null,null,"<p style=""font-size: 60px; font-family: BACS"">YObAhRKm</p>",,,,,,,,,,
html-keyboard-response,67,181945,0.0-8.0-0.59,614c8e5469405530dc27b9d5,650c16f0f2faf8d7a0d14c09,651c1c9ca70859f21f006926,null,null,"<p style=""font-size: 60px; font-family: BACS"">ubALmkJdr</p>",,,,,,,,,,
html-keyboard-response,68,182961,0.0-8.0-0.60,614c8e5469405530dc27b9d5,650c16f0f2faf8d7a0d14c09,651c1c9ca70859f21f006926,null,null,"<p style=""font-size: 60px; font-family: BACS"">lTmOPEdK</p>",,,,,,,,,,
html-keyboard-response,69,183963,0.0-8.0-0.61,614c8e5469405530dc27b9d5,650c16f0f2faf8d7a0d14c09,651c1c9ca70859f21f006926,null,null,"<p style=""font-size: 60px; font-family: BACS"">ZcGdNkJdr</p>",,,,,,,,,,
html-keyboard-response,70,184971,0.0-8.0-0.62,614c8e5469405530dc27b9d5,650c16f0f2faf8d7a0d14c09,651c1c9ca70859f21f006926,null,null,"<p style=""font-size: 60px; font-family: BACS"">cROMtRDM</p>",,,,,,,,,,
html-keyboard-response,71,185984,0.0-8.0-0.63,614c8e5469405530dc27b9d5,650c16f0f2faf8d7a0d14c09,651c1c9ca70859f21f006926,null,null,"<p style=""font-size: 60px; font-family: BACS"">tRdMRdCc</p>",,,,,,,,,,
html-keyboard-response,72,186992,0.0-8.0-0.64,614c8e5469405530dc27b9d5,650c16f0f2faf8d7a0d14c09,651c1c9ca70859f21f006926,null,null,"<p style=""font-size: 60px; font-family: BACS"">cROMtPEdK</p>",,,,,,,,,,
html-keyboard-response,73,187997,0.0-8.0-0.65,614c8e5469405530dc27b9d5,650c16f0f2faf8d7a0d14c09,651c1c9ca70859f21f006926,null,null,"<p style=""font-size: 60px; font-family: BACS"">rbYbuYUYa</p>",,,,,,,,,,
html-keyboard-response,74,189011,0.0-8.0-0.66,614c8e5469405530dc27b9d5,650c16f0f2faf8d7a0d14c09,651c1c9ca70859f21f006926,null,null,"<p style=""font-size: 60px; font-family: BACS"">COtBDPEdK</p>",,,,,,,,,,
html-keyboard-response,75,190020,0.0-8.0-0.67,614c8e5469405530dc27b9d5,650c16f0f2faf8d7a0d14c09,651c1c9ca70859f21f006926,null,null,"<p style=""font-size: 60px; font-family: BACS"">ubALmkmU</p>",,,,,,,,,,
html-keyboard-response,76,191035,0.0-8.0-0.68,614c8e5469405530dc27b9d5,650c16f0f2faf8d7a0d14c09,651c1c9ca70859f21f006926,null,null,"<p style=""font-size: 60px; font-family: BACS"">tRdMRDM</p>",,,,,,,,,,
html-keyboard-response,77,192050,0.0-8.0-0.69,614c8e5469405530dc27b9d5,650c16f0f2faf8d7a0d14c09,651c1c9ca70859f21f006926,null,null,"<p style=""font-size: 60px; font-family: BACS"">bvuZrab</p>",,,,,,,,,,
html-keyboard-response,78,193054,0.0-8.0-0.70,614c8e5469405530dc27b9d5,650c16f0f2faf8d7a0d14c09,651c1c9ca70859f21f006926,null,null,"<p style=""font-size: 60px; font-family: BACS"">LdrbvOJNk</p>",,,,,,,,,,
html-keyboard-response,79,194064,0.0-8.0-0.71,614c8e5469405530dc27b9d5,650c16f0f2faf8d7a0d14c09,651c1c9ca70859f21f006926,null,null,"<p style=""font-size: 60px; font-family: BACS"">YObARDM</p>",,,,,,,,,,
html-keyboard-response,80,195072,0.0-8.0-0.72,614c8e5469405530dc27b9d5,650c16f0f2faf8d7a0d14c09,651c1c9ca70859f21f006926,null,null,"<p style=""font-size: 60px; font-family: BACS"">EPERdhRKm</p>",,,,,,,,,,
html-keyboard-response,81,196081,0.0-8.0-0.73,614c8e5469405530dc27b9d5,650c16f0f2faf8d7a0d14c09,651c1c9ca70859f21f006926,null,null,"<p style=""font-size: 60px; font-family: BACS"">DmAMERdCc</p>",,,,,,,,,,
html-keyboard-response,82,197084,0.0-8.0-0.74,614c8e5469405530dc27b9d5,650c16f0f2faf8d7a0d14c09,651c1c9ca70859f21f006926,null,null,"<p style=""font-size: 60px; font-family: BACS"">ZcGdNOJNk</p>",,,,,,,,,,
html-keyboard-response,83,198100,0.0-8.0-0.75,614c8e5469405530dc27b9d5,650c16f0f2faf8d7a0d14c09,651c1c9ca70859f21f006926,null,null,"<p style=""font-size: 60px; font-family: BACS"">COTKcMRl</p>",,,,,,,,,,
html-keyboard-response,84,199104,0.0-8.0-0.76,614c8e5469405530dc27b9d5,650c16f0f2faf8d7a0d14c09,651c1c9ca70859f21f006926,null,null,"<p style=""font-size: 60px; font-family: BACS"">OQarQYUYa</p>",,,,,,,,,,
html-keyboard-response,85,200110,0.0-8.0-0.77,614c8e5469405530dc27b9d5,650c16f0f2faf8d7a0d14c09,651c1c9ca70859f21f006926,null,null,"<p style=""font-size: 60px; font-family: BACS"">rbYbukmU</p>",,,,,,,,,,
html-keyboard-response,86,201116,0.0-8.0-0.78,614c8e5469405530dc27b9d5,650c16f0f2faf8d7a0d14c09,651c1c9ca70859f21f006926,null,null,"<p style=""font-size: 60px; font-family: BACS"">cROMthRKm</p>",,,,,,,,,,
html-keyboard-response,87,202130,0.0-8.0-0.79,614c8e5469405530dc27b9d5,650c16f0f2faf8d7a0d14c09,651c1c9ca70859f21f006926,null,null,"<p style=""font-size: 60px; font-family: BACS"">OQarQkJdr</p>",,,,,,,,,,
html-keyboard-response,88,275094,0.0-9.0,614c8e5469405530dc27b9d5,650c16f0f2faf8d7a0d14c09,651c1c9ca70859f21f006926,72975, ,"<p>Great, you've seen the first block of words. You may now take a short break.</p>
      <p>Press the spacebar when you're ready to continue.</p>",,,,,,,,,,
html-keyboard-response,89,276109,0.0-10.0-0.0,614c8e5469405530dc27b9d5,650c16f0f2faf8d7a0d14c09,651c1c9ca70859f21f006926,null,null,"<p style=""font-size: 60px; font-family: BACS"">rbYbuOJNk</p>",,,,,,,,,,
html-keyboard-response,90,277125,0.0-10.0-0.1,614c8e5469405530dc27b9d5,650c16f0f2faf8d7a0d14c09,651c1c9ca70859f21f006926,null,null,"<p style=""font-size: 60px; font-family: BACS"">ZcGdNYUYa</p>",,,,,,,,,,
html-keyboard-response,91,278138,0.0-10.0-0.2,614c8e5469405530dc27b9d5,650c16f0f2faf8d7a0d14c09,651c1c9ca70859f21f006926,null,null,"<p style=""font-size: 60px; font-family: BACS"">COTKRdCc</p>",,,,,,,,,,
html-keyboard-response,92,279145,0.0-10.0-0.3,614c8e5469405530dc27b9d5,650c16f0f2faf8d7a0d14c09,651c1c9ca70859f21f006926,null,null,"<p style=""font-size: 60px; font-family: BACS"">dNZAkJdr</p>",,,,,,,,,,
html-keyboard-response,93,280152,0.0-10.0-0.4,614c8e5469405530dc27b9d5,650c16f0f2faf8d7a0d14c09,651c1c9ca70859f21f006926,null,null,"<p style=""font-size: 60px; font-family: BACS"">ZcGdNrab</p>",,,,,,,,,,
html-keyboard-response,94,281154,0.0-10.0-0.5,614c8e5469405530dc27b9d5,650c16f0f2faf8d7a0d14c09,651c1c9ca70859f21f006926,null,null,"<p style=""font-size: 60px; font-family: BACS"">OQarQkmU</p>",,,,,,,,,,
html-keyboard-response,95,282168,0.0-10.0-0.6,614c8e5469405530dc27b9d5,650c16f0f2faf8d7a0d14c09,651c1c9ca70859f21f006926,null,null,"<p style=""font-size: 60px; font-family: BACS"">hmKPMRdCc</p>",,,,,,,,,,
html-keyboard-response,96,283170,0.0-10.0-0.7,614c8e5469405530dc27b9d5,650c16f0f2faf8d7a0d14c09,651c1c9ca70859f21f006926,null,null,"<p style=""font-size: 60px; font-family: BACS"">OQarQYUYa</p>",,,,,,,,,,
html-keyboard-response,97,284186,0.0-10.0-0.8,614c8e5469405530dc27b9d5,650c16f0f2faf8d7a0d14c09,651c1c9ca70859f21f006926,null,null,"<p style=""font-size: 60px; font-family: BACS"">DmAMERDM</p>",,,,,,,,,,
html-keyboard-response,98,285194,0.0-10.0-0.9,614c8e5469405530dc27b9d5,650c16f0f2faf8d7a0d14c09,651c1c9ca70859f21f006926,null,null,"<p style=""font-size: 60px; font-family: BACS"">EPERdRdCc</p>",,,,,,,,,,
html-keyboard-response,99,286203,0.0-10.0-0.10,614c8e5469405530dc27b9d5,650c16f0f2faf8d7a0d14c09,651c1c9ca70859f21f006926,null,null,"<p style=""font-size: 60px; font-family: BACS"">rbYbukmU</p>",,,,,,,,,,
html-keyboard-response,100,287218,0.0-10.0-0.11,614c8e5469405530dc27b9d5,650c16f0f2faf8d7a0d14c09,651c1c9ca70859f21f006926,null,null,"<p style=""font-size: 60px; font-family: BACS"">OQarQrab</p>",,,,,,,,,,
html-keyboard-response,101,288234,0.0-10.0-0.12,614c8e5469405530dc27b9d5,650c16f0f2faf8d7a0d14c09,651c1c9ca70859f21f006926,null,null,"<p style=""font-size: 60px; font-family: BACS"">rbYbukJdr</p>",,,,,,,,,,
html-keyboard-response,102,289251,0.0-10.0-0.13,614c8e5469405530dc27b9d5,650c16f0f2faf8d7a0d14c09,651c1c9ca70859f21f006926,null,null,"<p style=""font-size: 60px; font-family: BACS"">mdkKcMRl</p>",,,,,,,,,,
html-keyboard-response,103,290258,0.0-10.0-0.14,614c8e5469405530dc27b9d5,650c16f0f2faf8d7a0d14c09,651c1c9ca70859f21f006926,null,null,"<p style=""font-size: 60px; font-family: BACS"">rLkmOJNk</p>",,,,,,,,,,
html-keyboard-response,104,291267,0.0-10.0-0.15,614c8e5469405530dc27b9d5,650c16f0f2faf8d7a0d14c09,651c1c9ca70859f21f006926,null,null,"<p style=""font-size: 60px; font-family: BACS"">YObAPEdK</p>",,,,,,,,,,
html-keyboard-response,105,292277,0.0-10.0-0.16,614c8e5469405530dc27b9d5,650c16f0f2faf8d7a0d14c09,651c1c9ca70859f21f006926,null,null,"<p style=""font-size: 60px; font-family: BACS"">ZcGdNOJNk</p>",,,,,,,,,,
html-keyboard-response,106,293285,0.0-10.0-0.17,614c8e5469405530dc27b9d5,650c16f0f2faf8d7a0d14c09,651c1c9ca70859f21f006926,null,null,"<p style=""font-size: 60px; font-family: BACS"">lTmOhRKm</p>",,,,,,,,,,
html-keyboard-response,107,294300,0.0-10.0-0.18,614c8e5469405530dc27b9d5,650c16f0f2faf8d7a0d14c09,651c1c9ca70859f21f006926,null,null,"<p style=""font-size: 60px; font-family: BACS"">rbYbuYUYa</p>",,,,,,,,,,
html-keyboard-response,108,295302,0.0-10.0-0.19,614c8e5469405530dc27b9d5,650c16f0f2faf8d7a0d14c09,651c1c9ca70859f21f006926,null,null,"<p style=""font-size: 60px; font-family: BACS"">EPERdhRKm</p>",,,,,,,,,,
html-keyboard-response,109,296315,0.0-10.0-0.20,614c8e5469405530dc27b9d5,650c16f0f2faf8d7a0d14c09,651c1c9ca70859f21f006926,null,null,"<p style=""font-size: 60px; font-family: BACS"">COtBDRdCc</p>",,,,,,,,,,
html-keyboard-response,110,297324,0.0-10.0-0.21,614c8e5469405530dc27b9d5,650c16f0f2faf8d7a0d14c09,651c1c9ca70859f21f006926,null,null,"<p style=""font-size: 60px; font-family: BACS"">bvuZkmU</p>",,,,,,,,,,
html-keyboard-response,111,298332,0.0-10.0-0.22,614c8e5469405530dc27b9d5,650c16f0f2faf8d7a0d14c09,651c1c9ca70859f21f006926,null,null,"<p style=""font-size: 60px; font-family: BACS"">hmKPMRDM</p>",,,,,,,,,,
html-keyboard-response,112,299347,0.0-10.0-0.23,614c8e5469405530dc27b9d5,650c16f0f2faf8d7a0d14c09,651c1c9ca70859f21f006926,null,null,"<p style=""font-size: 60px; font-family: BACS"">kGlUYUYa</p>",,,,,,,,,,
html-keyboard-response,113,300350,0.0-10.0-0.24,614c8e5469405530dc27b9d5,650c16f0f2faf8d7a0d14c09,651c1c9ca70859f21f006926,null,null,"<p style=""font-size: 60px; font-family: BACS"">dNZArab</p>",,,,,,,,,,
html-keyboard-response,114,301366,0.0-10.0-0.25,614c8e5469405530dc27b9d5,650c16f0f2faf8d7a0d14c09,651c1c9ca70859f21f006926,null,null,"<p style=""font-size: 60px; font-family: BACS"">cROMtcMRl</p>",,,,,,,,,,
html-keyboard-response,115,302381,0.0-10.0-0.26,614c8e5469405530dc27b9d5,650c16f0f2faf8d7a0d14c09,651c1c9ca70859f21f006926,null,null,"<p style=""font-size: 60px; font-family: BACS"">rLkmkmU</p>",,,,,,,,,,
html-keyboard-response,116,303391,0.0-10.0-0.27,614c8e5469405530dc27b9d5,650c16f0f2faf8d7a0d14c09,651c1c9ca70859f21f006926,null,null,"<p style=""font-size: 60px; font-family: BACS"">mrOdOJNk</p>",,,,,,,,,,
html-keyboard-response,117,304407,0.0-10.0-0.28,614c8e5469405530dc27b9d5,650c16f0f2faf8d7a0d14c09,651c1c9ca70859f21f006926,null,null,"<p style=""font-size: 60px; font-family: BACS"">lTmORDM</p>",,,,,,,,,,
html-keyboard-response,118,305423,0.0-10.0-0.29,614c8e5469405530dc27b9d5,650c16f0f2faf8d7a0d14c09,651c1c9ca70859f21f006926,null,null,"<p style=""font-size: 60px; font-family: BACS"">mdkKhRKm</p>",,,,,,,,,,
html-keyboard-response,119,306439,0.0-10.0-0.30,614c8e5469405530dc27b9d5,650c16f0f2faf8d7a0d14c09,651c1c9ca70859f21f006926,null,null,"<p style=""font-size: 60px; font-family: BACS"">lTmOPEdK</p>",,,,,,,,,,
html-keyboard-response,120,307447,0.0-10.0-0.31,614c8e5469405530dc27b9d5,650c16f0f2faf8d7a0d14c09,651c1c9ca70859f21f006926,null,null,"<p style=""font-size: 60px; font-family: BACS"">YObAcMRl</p>",,,,,,,,,,
html-keyboard-response,121,308464,0.0-10.0-0.32,614c8e5469405530dc27b9d5,650c16f0f2faf8d7a0d14c09,651c1c9ca70859f21f006926,null,null,"<p style=""font-size: 60px; font-family: BACS"">LdrbvOJNk</p>",,,,,,,,,,
html-keyboard-response,122,309473,0.0-10.0-0.33,614c8e5469405530dc27b9d5,650c16f0f2faf8d7a0d14c09,651c1c9ca70859f21f006926,null,null,"<p style=""font-size: 60px; font-family: BACS"">hmKPMcMRl</p>",,,,,,,,,,
html-keyboard-response,123,310487,0.0-10.0-0.34,614c8e5469405530dc27b9d5,650c16f0f2faf8d7a0d14c09,651c1c9ca70859f21f006926,null,null,"<p style=""font-size: 60px; font-family: BACS"">COTKhRKm</p>",,,,,,,,,,
html-keyboard-response,124,311497,0.0-10.0-0.35,614c8e5469405530dc27b9d5,650c16f0f2faf8d7a0d14c09,651c1c9ca70859f21f006926,null,null,"<p style=""font-size: 60px; font-family: BACS"">LdrbvYUYa</p>",,,,,,,,,,
html-keyboard-response,125,312513,0.0-10.0-0.36,614c8e5469405530dc27b9d5,650c16f0f2faf8d7a0d14c09,651c1c9ca70859f21f006926,null,null,"<p style=""font-size: 60px; font-family: BACS"">EPERdRDM</p>",,,,,,,,,,
html-keyboard-response,126,313522,0.0-10.0-0.37,614c8e5469405530dc27b9d5,650c16f0f2faf8d7a0d14c09,651c1c9ca70859f21f006926,null,null,"<p style=""font-size: 60px; font-family: BACS"">dNZAkmU</p>",,,,,,,,,,
html-keyboard-response,127,314538,0.0-10.0-0.38,614c8e5469405530dc27b9d5,650c16f0f2faf8d7a0d14c09,651c1c9ca70859f21f006926,null,null,"<p style=""font-size: 60px; font-family: BACS"">mrOdYUYa</p>",,,,,,,,,,
html-keyboard-response,128,315547,0.0-10.0-0.39,614c8e5469405530dc27b9d5,650c16f0f2faf8d7a0d14c09,651c1c9ca70859f21f006926,null,null,"<p style=""font-size: 60px; font-family: BACS"">dNZAOJNk</p>",,,,,,,,,,
html-keyboard-response,129,316561,0.0-10.0-0.40,614c8e5469405530dc27b9d5,650c16f0f2faf8d7a0d14c09,651c1c9ca70859f21f006926,null,null,"<p style=""font-size: 60px; font-family: BACS"">ubALmYUYa</p>",,,,,,,,,,
html-keyboard-response,130,317564,0.0-10.0-0.41,614c8e5469405530dc27b9d5,650c16f0f2faf8d7a0d14c09,651c1c9ca70859f21f006926,null,null,"<p style=""font-size: 60px; font-family: BACS"">mdkKPEdK</p>",,,,,,,,,,
html-keyboard-response,131,318578,0.0-10.0-0.42,614c8e5469405530dc27b9d5,650c16f0f2faf8d7a0d14c09,651c1c9ca70859f21f006926,null,null,"<p style=""font-size: 60px; font-family: BACS"">tRdMhRKm</p>",,,,,,,,,,
html-keyboard-response,132,319581,0.0-10.0-0.43,614c8e5469405530dc27b9d5,650c16f0f2faf8d7a0d14c09,651c1c9ca70859f21f006926,null,null,"<p style=""font-size: 60px; font-family: BACS"">DmAMERdCc</p>",,,,,,,,,,
html-keyboard-response,133,320589,0.0-10.0-0.44,614c8e5469405530dc27b9d5,650c16f0f2faf8d7a0d14c09,651c1c9ca70859f21f006926,null,null,"<p style=""font-size: 60px; font-family: BACS"">cROMtRDM</p>",,,,,,,,,,
html-keyboard-response,134,321602,0.0-10.0-0.45,614c8e5469405530dc27b9d5,650c16f0f2faf8d7a0d14c09,651c1c9ca70859f21f006926,null,null,"<p style=""font-size: 60px; font-family: BACS"">COTKcMRl</p>",,,,,,,,,,
html-keyboard-response,135,322612,0.0-10.0-0.46,614c8e5469405530dc27b9d5,650c16f0f2faf8d7a0d14c09,651c1c9ca70859f21f006926,null,null,"<p style=""font-size: 60px; font-family: BACS"">kGlUOJNk</p>",,,,,,,,,,
html-keyboard-response,136,323614,0.0-10.0-0.47,614c8e5469405530dc27b9d5,650c16f0f2faf8d7a0d14c09,651c1c9ca70859f21f006926,null,null,"<p style=""font-size: 60px; font-family: BACS"">COtBDRDM</p>",,,,,,,,,,
html-keyboard-response,137,324629,0.0-10.0-0.48,614c8e5469405530dc27b9d5,650c16f0f2faf8d7a0d14c09,651c1c9ca70859f21f006926,null,null,"<p style=""font-size: 60px; font-family: BACS"">kGlUkJdr</p>",,,,,,,,,,
html-keyboard-response,138,325638,0.0-10.0-0.49,614c8e5469405530dc27b9d5,650c16f0f2faf8d7a0d14c09,651c1c9ca70859f21f006926,null,null,"<p style=""font-size: 60px; font-family: BACS"">Ldrbvrab</p>",,,,,,,,,,
html-keyboard-response,139,326640,0.0-10.0-0.50,614c8e5469405530dc27b9d5,650c16f0f2faf8d7a0d14c09,651c1c9ca70859f21f006926,null,null,"<p style=""font-size: 60px; font-family: BACS"">tRdMRdCc</p>",,,,,,,,,,
html-keyboard-response,140,327644,0.0-10.0-0.51,614c8e5469405530dc27b9d5,650c16f0f2faf8d7a0d14c09,651c1c9ca70859f21f006926,null,null,"<p style=""font-size: 60px; font-family: BACS"">cROMthRKm</p>",,,,,,,,,,
html-keyboard-response,141,328661,0.0-10.0-0.52,614c8e5469405530dc27b9d5,650c16f0f2faf8d7a0d14c09,651c1c9ca70859f21f006926,null,null,"<p style=""font-size: 60px; font-family: BACS"">lTmORdCc</p>",,,,,,,,,,
html-keyboard-response,142,329666,0.0-10.0-0.53,614c8e5469405530dc27b9d5,650c16f0f2faf8d7a0d14c09,651c1c9ca70859f21f006926,null,null,"<p style=""font-size: 60px; font-family: BACS"">YObAhRKm</p>",,,,,,,,,,
html-keyboard-response,143,330678,0.0-10.0-0.54,614c8e5469405530dc27b9d5,650c16f0f2faf8d7a0d14c09,651c1c9ca70859f21f006926,null,null,"<p style=""font-size: 60px; font-family: BACS"">rLkmYUYa</p>",,,,,,,,,,
html-keyboard-response,144,331685,0.0-10.0-0.55,614c8e5469405530dc27b9d5,650c16f0f2faf8d7a0d14c09,651c1c9ca70859f21f006926,null,null,"<p style=""font-size: 60px; font-family: BACS"">ZcGdNkJdr</p>",,,,,,,,,,
html-keyboard-response,145,332697,0.0-10.0-0.56,614c8e5469405530dc27b9d5,650c16f0f2faf8d7a0d14c09,651c1c9ca70859f21f006926,null,null,"<p style=""font-size: 60px; font-family: BACS"">mrOdrab</p>",,,,,,,,,,
html-keyboard-response,146,333712,0.0-10.0-0.57,614c8e5469405530dc27b9d5,650c16f0f2faf8d7a0d14c09,651c1c9ca70859f21f006926,null,null,"<p style=""font-size: 60px; font-family: BACS"">COtBDhRKm</p>",,,,,,,,,,
html-keyboard-response,147,334722,0.0-10.0-0.58,614c8e5469405530dc27b9d5,650c16f0f2faf8d7a0d14c09,651c1c9ca70859f21f006926,null,null,"<p style=""font-size: 60px; font-family: BACS"">mdkKRdCc</p>",,,,,,,,,,
html-keyboard-response,148,335743,0.0-10.0-0.59,614c8e5469405530dc27b9d5,650c16f0f2faf8d7a0d14c09,651c1c9ca70859f21f006926,null,null,"<p style=""font-size: 60px; font-family: BACS"">COtBDPEdK</p>",,,,,,,,,,
html-keyboard-response,149,336749,0.0-10.0-0.60,614c8e5469405530dc27b9d5,650c16f0f2faf8d7a0d14c09,651c1c9ca70859f21f006926,null,null,"<p style=""font-size: 60px; font-family: BACS"">EPERdcMRl</p>",,,,,,,,,,
html-keyboard-response,150,337764,0.0-10.0-0.61,614c8e5469405530dc27b9d5,650c16f0f2faf8d7a0d14c09,651c1c9ca70859f21f006926,null,null,"<p style=""font-size: 60px; font-family: BACS"">rLkmrab</p>",,,,,,,,,,
html-keyboard-response,151,338779,0.0-10.0-0.62,614c8e5469405530dc27b9d5,650c16f0f2faf8d7a0d14c09,651c1c9ca70859f21f006926,null,null,"<p style=""font-size: 60px; font-family: BACS"">DmAMEPEdK</p>",,,,,,,,,,
html-keyboard-response,152,339781,0.0-10.0-0.63,614c8e5469405530dc27b9d5,650c16f0f2faf8d7a0d14c09,651c1c9ca70859f21f006926,null,null,"<p style=""font-size: 60px; font-family: BACS"">kGlUkmU</p>",,,,,,,,,,
html-keyboard-response,153,340795,0.0-10.0-0.64,614c8e5469405530dc27b9d5,650c16f0f2faf8d7a0d14c09,651c1c9ca70859f21f006926,null,null,"<p style=""font-size: 60px; font-family: BACS"">YObARDM</p>",,,,,,,,,,
html-keyboard-response,154,341810,0.0-10.0-0.65,614c8e5469405530dc27b9d5,650c16f0f2faf8d7a0d14c09,651c1c9ca70859f21f006926,null,null,"<p style=""font-size: 60px; font-family: BACS"">bvuZkJdr</p>",,,,,,,,,,
html-keyboard-response,155,342825,0.0-10.0-0.66,614c8e5469405530dc27b9d5,650c16f0f2faf8d7a0d14c09,651c1c9ca70859f21f006926,null,null,"<p style=""font-size: 60px; font-family: BACS"">DmAMEcMRl</p>",,,,,,,,,,
html-keyboard-response,156,343833,0.0-10.0-0.67,614c8e5469405530dc27b9d5,650c16f0f2faf8d7a0d14c09,651c1c9ca70859f21f006926,null,null,"<p style=""font-size: 60px; font-family: BACS"">mrOdkJdr</p>",,,,,,,,,,
html-keyboard-response,157,344848,0.0-10.0-0.68,614c8e5469405530dc27b9d5,650c16f0f2faf8d7a0d14c09,651c1c9ca70859f21f006926,null,null,"<p style=""font-size: 60px; font-family: BACS"">tRdMcMRl</p>",,,,,,,,,,
html-keyboard-response,158,345859,0.0-10.0-0.69,614c8e5469405530dc27b9d5,650c16f0f2faf8d7a0d14c09,651c1c9ca70859f21f006926,null,null,"<p style=""font-size: 60px; font-family: BACS"">hmKPMPEdK</p>",,,,,,,,,,
html-keyboard-response,159,346875,0.0-10.0-0.70,614c8e5469405530dc27b9d5,650c16f0f2faf8d7a0d14c09,651c1c9ca70859f21f006926,null,null,"<p style=""font-size: 60px; font-family: BACS"">LdrbvkmU</p>",,,,,,,,,,
html-keyboard-response,160,347883,0.0-10.0-0.71,614c8e5469405530dc27b9d5,650c16f0f2faf8d7a0d14c09,651c1c9ca70859f21f006926,null,null,"<p style=""font-size: 60px; font-family: BACS"">COTKPEdK</p>",,,,,,,,,,
html-keyboard-response,161,348884,0.0-10.0-0.72,614c8e5469405530dc27b9d5,650c16f0f2faf8d7a0d14c09,651c1c9ca70859f21f006926,null,null,"<p style=""font-size: 60px; font-family: BACS"">ubALmkmU</p>",,,,,,,,,,
html-keyboard-response,162,349893,0.0-10.0-0.73,614c8e5469405530dc27b9d5,650c16f0f2faf8d7a0d14c09,651c1c9ca70859f21f006926,null,null,"<p style=""font-size: 60px; font-family: BACS"">bvuZOJNk</p>",,,,,,,,,,
html-keyboard-response,163,350905,0.0-10.0-0.74,614c8e5469405530dc27b9d5,650c16f0f2faf8d7a0d14c09,651c1c9ca70859f21f006926,null,null,"<p style=""font-size: 60px; font-family: BACS"">ubALmrab</p>",,,,,,,,,,
html-keyboard-response,164,351914,0.0-10.0-0.75,614c8e5469405530dc27b9d5,650c16f0f2faf8d7a0d14c09,651c1c9ca70859f21f006926,null,null,"<p style=""font-size: 60px; font-family: BACS"">tRdMRDM</p>",,,,,,,,,,
html-keyboard-response,165,352929,0.0-10.0-0.76,614c8e5469405530dc27b9d5,650c16f0f2faf8d7a0d14c09,651c1c9ca70859f21f006926,null,null,"<p style=""font-size: 60px; font-family: BACS"">cROMtPEdK</p>",,,,,,,,,,
html-keyboard-response,166,353942,0.0-10.0-0.77,614c8e5469405530dc27b9d5,650c16f0f2faf8d7a0d14c09,651c1c9ca70859f21f006926,null,null,"<p style=""font-size: 60px; font-family: BACS"">ubALmkJdr</p>",,,,,,,,,,
html-keyboard-response,167,354958,0.0-10.0-0.78,614c8e5469405530dc27b9d5,650c16f0f2faf8d7a0d14c09,651c1c9ca70859f21f006926,null,null,"<p style=""font-size: 60px; font-family: BACS"">bvuZrab</p>",,,,,,,,,,
html-keyboard-response,168,355972,0.0-10.0-0.79,614c8e5469405530dc27b9d5,650c16f0f2faf8d7a0d14c09,651c1c9ca70859f21f006926,null,null,"<p style=""font-size: 60px; font-family: BACS"">OQarQkJdr</p>",,,,,,,,,,
html-keyboard-response,169,395456,0.0-11.0,614c8e5469405530dc27b9d5,650c16f0f2faf8d7a0d14c09,651c1c9ca70859f21f006926,39484, ,"<p>Great, you've seen the second block of words. You may now take a short break.</p>
      <p>Press the spacebar when you're ready to continue.</p>",,,,,,,,,,
html-keyboard-response,170,396467,0.0-12.0-0.0,614c8e5469405530dc27b9d5,650c16f0f2faf8d7a0d14c09,651c1c9ca70859f21f006926,null,null,"<p style=""font-size: 60px; font-family: BACS"">mdkKRdCc</p>",,,,,,,,,,
html-keyboard-response,171,397469,0.0-12.0-0.1,614c8e5469405530dc27b9d5,650c16f0f2faf8d7a0d14c09,651c1c9ca70859f21f006926,null,null,"<p style=""font-size: 60px; font-family: BACS"">rLkmrab</p>",,,,,,,,,,
html-keyboard-response,172,398485,0.0-12.0-0.2,614c8e5469405530dc27b9d5,650c16f0f2faf8d7a0d14c09,651c1c9ca70859f21f006926,null,null,"<p style=""font-size: 60px; font-family: BACS"">COTKcMRl</p>",,,,,,,,,,
html-keyboard-response,173,399487,0.0-12.0-0.3,614c8e5469405530dc27b9d5,650c16f0f2faf8d7a0d14c09,651c1c9ca70859f21f006926,null,null,"<p style=""font-size: 60px; font-family: BACS"">rbYbukJdr</p>",,,,,,,,,,
html-keyboard-response,174,400491,0.0-12.0-0.4,614c8e5469405530dc27b9d5,650c16f0f2faf8d7a0d14c09,651c1c9ca70859f21f006926,null,null,"<p style=""font-size: 60px; font-family: BACS"">kGlUkmU</p>",,,,,,,,,,
html-keyboard-response,175,401500,0.0-12.0-0.5,614c8e5469405530dc27b9d5,650c16f0f2faf8d7a0d14c09,651c1c9ca70859f21f006926,null,null,"<p style=""font-size: 60px; font-family: BACS"">DmAMEPEdK</p>",,,,,,,,,,
html-keyboard-response,176,402515,0.0-12.0-0.6,614c8e5469405530dc27b9d5,650c16f0f2faf8d7a0d14c09,651c1c9ca70859f21f006926,null,null,"<p style=""font-size: 60px; font-family: BACS"">hmKPMRdCc</p>",,,,,,,,,,
html-keyboard-response,177,403528,0.0-12.0-0.7,614c8e5469405530dc27b9d5,650c16f0f2faf8d7a0d14c09,651c1c9ca70859f21f006926,null,null,"<p style=""font-size: 60px; font-family: BACS"">YObAhRKm</p>",,,,,,,,,,
html-keyboard-response,178,404543,0.0-12.0-0.8,614c8e5469405530dc27b9d5,650c16f0f2faf8d7a0d14c09,651c1c9ca70859f21f006926,null,null,"<p style=""font-size: 60px; font-family: BACS"">ubALmkJdr</p>",,,,,,,,,,
html-keyboard-response,179,405558,0.0-12.0-0.9,614c8e5469405530dc27b9d5,650c16f0f2faf8d7a0d14c09,651c1c9ca70859f21f006926,null,null,"<p style=""font-size: 60px; font-family: BACS"">COTKRdCc</p>",,,,,,,,,,
html-keyboard-response,180,406566,0.0-12.0-0.10,614c8e5469405530dc27b9d5,650c16f0f2faf8d7a0d14c09,651c1c9ca70859f21f006926,null,null,"<p style=""font-size: 60px; font-family: BACS"">mrOdrab</p>",,,,,,,,,,
html-keyboard-response,181,407582,0.0-12.0-0.11,614c8e5469405530dc27b9d5,650c16f0f2faf8d7a0d14c09,651c1c9ca70859f21f006926,null,null,"<p style=""font-size: 60px; font-family: BACS"">ubALmYUYa</p>",,,,,,,,,,
html-keyboard-response,182,408585,0.0-12.0-0.12,614c8e5469405530dc27b9d5,650c16f0f2faf8d7a0d14c09,651c1c9ca70859f21f006926,null,null,"<p style=""font-size: 60px; font-family: BACS"">mrOdOJNk</p>",,,,,,,,,,
html-keyboard-response,183,409600,0.0-12.0-0.13,614c8e5469405530dc27b9d5,650c16f0f2faf8d7a0d14c09,651c1c9ca70859f21f006926,null,null,"<p style=""font-size: 60px; font-family: BACS"">hmKPMPEdK</p>",,,,,,,,,,
html-keyboard-response,184,410614,0.0-12.0-0.14,614c8e5469405530dc27b9d5,650c16f0f2faf8d7a0d14c09,651c1c9ca70859f21f006926,null,null,"<p style=""font-size: 60px; font-family: BACS"">DmAMEcMRl</p>",,,,,,,,,,
html-keyboard-response,185,411623,0.0-12.0-0.15,614c8e5469405530dc27b9d5,650c16f0f2faf8d7a0d14c09,651c1c9ca70859f21f006926,null,null,"<p style=""font-size: 60px; font-family: BACS"">rbYbuYUYa</p>",,,,,,,,,,
html-keyboard-response,186,412629,0.0-12.0-0.16,614c8e5469405530dc27b9d5,650c16f0f2faf8d7a0d14c09,651c1c9ca70859f21f006926,null,null,"<p style=""font-size: 60px; font-family: BACS"">ZcGdNkJdr</p>",,,,,,,,,,
html-keyboard-response,187,413636,0.0-12.0-0.17,614c8e5469405530dc27b9d5,650c16f0f2faf8d7a0d14c09,651c1c9ca70859f21f006926,null,null,"<p style=""font-size: 60px; font-family: BACS"">cROMtRDM</p>",,,,,,,,,,
html-keyboard-response,188,414648,0.0-12.0-0.18,614c8e5469405530dc27b9d5,650c16f0f2faf8d7a0d14c09,651c1c9ca70859f21f006926,null,null,"<p style=""font-size: 60px; font-family: BACS"">YObAPEdK</p>",,,,,,,,,,
html-keyboard-response,189,415654,0.0-12.0-0.19,614c8e5469405530dc27b9d5,650c16f0f2faf8d7a0d14c09,651c1c9ca70859f21f006926,null,null,"<p style=""font-size: 60px; font-family: BACS"">rbYbuOJNk</p>",,,,,,,,,,
html-keyboard-response,190,416666,0.0-12.0-0.20,614c8e5469405530dc27b9d5,650c16f0f2faf8d7a0d14c09,651c1c9ca70859f21f006926,null,null,"<p style=""font-size: 60px; font-family: BACS"">YObAcMRl</p>",,,,,,,,,,
html-keyboard-response,191,417672,0.0-12.0-0.21,614c8e5469405530dc27b9d5,650c16f0f2faf8d7a0d14c09,651c1c9ca70859f21f006926,null,null,"<p style=""font-size: 60px; font-family: BACS"">bvuZkmU</p>",,,,,,,,,,
html-keyboard-response,192,418688,0.0-12.0-0.22,614c8e5469405530dc27b9d5,650c16f0f2faf8d7a0d14c09,651c1c9ca70859f21f006926,null,null,"<p style=""font-size: 60px; font-family: BACS"">COtBDRdCc</p>",,,,,,,,,,
html-keyboard-response,193,419706,0.0-12.0-0.23,614c8e5469405530dc27b9d5,650c16f0f2faf8d7a0d14c09,651c1c9ca70859f21f006926,null,null,"<p style=""font-size: 60px; font-family: BACS"">ubALmkmU</p>",,,,,,,,,,
html-keyboard-response,194,420712,0.0-12.0-0.24,614c8e5469405530dc27b9d5,650c16f0f2faf8d7a0d14c09,651c1c9ca70859f21f006926,null,null,"<p style=""font-size: 60px; font-family: BACS"">lTmOPEdK</p>",,,,,,,,,,
html-keyboard-response,195,421718,0.0-12.0-0.25,614c8e5469405530dc27b9d5,650c16f0f2faf8d7a0d14c09,651c1c9ca70859f21f006926,null,null,"<p style=""font-size: 60px; font-family: BACS"">tRdMcMRl</p>",,,,,,,,,,
html-keyboard-response,196,422728,0.0-12.0-0.26,614c8e5469405530dc27b9d5,650c16f0f2faf8d7a0d14c09,651c1c9ca70859f21f006926,null,null,"<p style=""font-size: 60px; font-family: BACS"">rLkmYUYa</p>",,,,,,,,,,
html-keyboard-response,197,423745,0.0-12.0-0.27,614c8e5469405530dc27b9d5,650c16f0f2faf8d7a0d14c09,651c1c9ca70859f21f006926,null,null,"<p style=""font-size: 60px; font-family: BACS"">dNZAOJNk</p>",,,,,,,,,,
html-keyboard-response,198,424747,0.0-12.0-0.28,614c8e5469405530dc27b9d5,650c16f0f2faf8d7a0d14c09,651c1c9ca70859f21f006926,null,null,"<p style=""font-size: 60px; font-family: BACS"">tRdMRDM</p>",,,,,,,,,,
html-keyboard-response,199,425756,0.0-12.0-0.29,614c8e5469405530dc27b9d5,650c16f0f2faf8d7a0d14c09,651c1c9ca70859f21f006926,null,null,"<p style=""font-size: 60px; font-family: BACS"">bvuZrab</p>",,,,,,,,,,
html-keyboard-response,200,426762,0.0-12.0-0.30,614c8e5469405530dc27b9d5,650c16f0f2faf8d7a0d14c09,651c1c9ca70859f21f006926,null,null,"<p style=""font-size: 60px; font-family: BACS"">EPERdRDM</p>",,,,,,,,,,
html-keyboard-response,201,427773,0.0-12.0-0.31,614c8e5469405530dc27b9d5,650c16f0f2faf8d7a0d14c09,651c1c9ca70859f21f006926,null,null,"<p style=""font-size: 60px; font-family: BACS"">bvuZOJNk</p>",,,,,,,,,,
html-keyboard-response,202,428781,0.0-12.0-0.32,614c8e5469405530dc27b9d5,650c16f0f2faf8d7a0d14c09,651c1c9ca70859f21f006926,null,null,"<p style=""font-size: 60px; font-family: BACS"">dNZArab</p>",,,,,,,,,,
html-keyboard-response,203,429797,0.0-12.0-0.33,614c8e5469405530dc27b9d5,650c16f0f2faf8d7a0d14c09,651c1c9ca70859f21f006926,null,null,"<p style=""font-size: 60px; font-family: BACS"">ZcGdNYUYa</p>",,,,,,,,,,
html-keyboard-response,204,430804,0.0-12.0-0.34,614c8e5469405530dc27b9d5,650c16f0f2faf8d7a0d14c09,651c1c9ca70859f21f006926,null,null,"<p style=""font-size: 60px; font-family: BACS"">lTmOhRKm</p>",,,,,,,,,,
html-keyboard-response,205,431813,0.0-12.0-0.35,614c8e5469405530dc27b9d5,650c16f0f2faf8d7a0d14c09,651c1c9ca70859f21f006926,null,null,"<p style=""font-size: 60px; font-family: BACS"">hmKPMcMRl</p>",,,,,,,,,,
html-keyboard-response,206,432816,0.0-12.0-0.36,614c8e5469405530dc27b9d5,650c16f0f2faf8d7a0d14c09,651c1c9ca70859f21f006926,null,null,"<p style=""font-size: 60px; font-family: BACS"">rLkmOJNk</p>",,,,,,,,,,
html-keyboard-response,207,433831,0.0-12.0-0.37,614c8e5469405530dc27b9d5,650c16f0f2faf8d7a0d14c09,651c1c9ca70859f21f006926,null,null,"<p style=""font-size: 60px; font-family: BACS"">COtBDhRKm</p>",,,,,,,,,,
html-keyboard-response,208,434838,0.0-12.0-0.38,614c8e5469405530dc27b9d5,650c16f0f2faf8d7a0d14c09,651c1c9ca70859f21f006926,null,null,"<p style=""font-size: 60px; font-family: BACS"">mrOdkJdr</p>",,,,,,,,,,
html-keyboard-response,209,435847,0.0-12.0-0.39,614c8e5469405530dc27b9d5,650c16f0f2faf8d7a0d14c09,651c1c9ca70859f21f006926,null,null,"<p style=""font-size: 60px; font-family: BACS"">ZcGdNrab</p>",,,,,,,,,,
html-keyboard-response,210,436862,0.0-12.0-0.40,614c8e5469405530dc27b9d5,650c16f0f2faf8d7a0d14c09,651c1c9ca70859f21f006926,null,null,"<p style=""font-size: 60px; font-family: BACS"">COTKhRKm</p>",,,,,,,,,,
html-keyboard-response,211,437867,0.0-12.0-0.41,614c8e5469405530dc27b9d5,650c16f0f2faf8d7a0d14c09,651c1c9ca70859f21f006926,null,null,"<p style=""font-size: 60px; font-family: BACS"">mrOdYUYa</p>",,,,,,,,,,
html-keyboard-response,212,438880,0.0-12.0-0.42,614c8e5469405530dc27b9d5,650c16f0f2faf8d7a0d14c09,651c1c9ca70859f21f006926,null,null,"<p style=""font-size: 60px; font-family: BACS"">OQarQkJdr</p>",,,,,,,,,,
html-keyboard-response,213,439890,0.0-12.0-0.43,614c8e5469405530dc27b9d5,650c16f0f2faf8d7a0d14c09,651c1c9ca70859f21f006926,null,null,"<p style=""font-size: 60px; font-family: BACS"">rLkmkmU</p>",,,,,,,,,,
html-keyboard-response,214,440903,0.0-12.0-0.44,614c8e5469405530dc27b9d5,650c16f0f2faf8d7a0d14c09,651c1c9ca70859f21f006926,null,null,"<p style=""font-size: 60px; font-family: BACS"">tRdMhRKm</p>",,,,,,,,,,
html-keyboard-response,215,441906,0.0-12.0-0.45,614c8e5469405530dc27b9d5,650c16f0f2faf8d7a0d14c09,651c1c9ca70859f21f006926,null,null,"<p style=""font-size: 60px; font-family: BACS"">rbYbukmU</p>",,,,,,,,,,
html-keyboard-response,216,442920,0.0-12.0-0.46,614c8e5469405530dc27b9d5,650c16f0f2faf8d7a0d14c09,651c1c9ca70859f21f006926,null,null,"<p style=""font-size: 60px; font-family: BACS"">Ldrbvrab</p>",,,,,,,,,,
html-keyboard-response,217,443929,0.0-12.0-0.47,614c8e5469405530dc27b9d5,650c16f0f2faf8d7a0d14c09,651c1c9ca70859f21f006926,null,null,"<p style=""font-size: 60px; font-family: BACS"">cROMtcMRl</p>",,,,,,,,,,
html-keyboard-response,218,444937,0.0-12.0-0.48,614c8e5469405530dc27b9d5,650c16f0f2faf8d7a0d14c09,651c1c9ca70859f21f006926,null,null,"<p style=""font-size: 60px; font-family: BACS"">bvuZkJdr</p>",,,,,,,,,,
html-keyboard-response,219,445943,0.0-12.0-0.49,614c8e5469405530dc27b9d5,650c16f0f2faf8d7a0d14c09,651c1c9ca70859f21f006926,null,null,"<p style=""font-size: 60px; font-family: BACS"">dNZAkmU</p>",,,,,,,,,,
html-keyboard-response,220,446946,0.0-12.0-0.50,614c8e5469405530dc27b9d5,650c16f0f2faf8d7a0d14c09,651c1c9ca70859f21f006926,null,null,"<p style=""font-size: 60px; font-family: BACS"">mdkKcMRl</p>",,,,,,,,,,
html-keyboard-response,221,447962,0.0-12.0-0.51,614c8e5469405530dc27b9d5,650c16f0f2faf8d7a0d14c09,651c1c9ca70859f21f006926,null,null,"<p style=""font-size: 60px; font-family: BACS"">lTmORDM</p>",,,,,,,,,,
html-keyboard-response,222,448977,0.0-12.0-0.52,614c8e5469405530dc27b9d5,650c16f0f2faf8d7a0d14c09,651c1c9ca70859f21f006926,null,null,"<p style=""font-size: 60px; font-family: BACS"">EPERdcMRl</p>",,,,,,,,,,
html-keyboard-response,223,449991,0.0-12.0-0.53,614c8e5469405530dc27b9d5,650c16f0f2faf8d7a0d14c09,651c1c9ca70859f21f006926,null,null,"<p style=""font-size: 60px; font-family: BACS"">mdkKhRKm</p>",,,,,,,,,,
html-keyboard-response,224,450995,0.0-12.0-0.54,614c8e5469405530dc27b9d5,650c16f0f2faf8d7a0d14c09,651c1c9ca70859f21f006926,null,null,"<p style=""font-size: 60px; font-family: BACS"">ubALmrab</p>",,,,,,,,,,
html-keyboard-response,225,452004,0.0-12.0-0.55,614c8e5469405530dc27b9d5,650c16f0f2faf8d7a0d14c09,651c1c9ca70859f21f006926,null,null,"<p style=""font-size: 60px; font-family: BACS"">EPERdRdCc</p>",,,,,,,,,,
html-keyboard-response,226,453019,0.0-12.0-0.56,614c8e5469405530dc27b9d5,650c16f0f2faf8d7a0d14c09,651c1c9ca70859f21f006926,null,null,"<p style=""font-size: 60px; font-family: BACS"">mdkKPEdK</p>",,,,,,,,,,
html-keyboard-response,227,454027,0.0-12.0-0.57,614c8e5469405530dc27b9d5,650c16f0f2faf8d7a0d14c09,651c1c9ca70859f21f006926,null,null,"<p style=""font-size: 60px; font-family: BACS"">OQarQrab</p>",,,,,,,,,,
html-keyboard-response,228,455036,0.0-12.0-0.58,614c8e5469405530dc27b9d5,650c16f0f2faf8d7a0d14c09,651c1c9ca70859f21f006926,null,null,"<p style=""font-size: 60px; font-family: BACS"">kGlUkJdr</p>",,,,,,,,,,
html-keyboard-response,229,456051,0.0-12.0-0.59,614c8e5469405530dc27b9d5,650c16f0f2faf8d7a0d14c09,651c1c9ca70859f21f006926,null,null,"<p style=""font-size: 60px; font-family: BACS"">COTKPEdK</p>",,,,,,,,,,
html-keyboard-response,230,457067,0.0-12.0-0.60,614c8e5469405530dc27b9d5,650c16f0f2faf8d7a0d14c09,651c1c9ca70859f21f006926,null,null,"<p style=""font-size: 60px; font-family: BACS"">cROMthRKm</p>",,,,,,,,,,
html-keyboard-response,231,458071,0.0-12.0-0.61,614c8e5469405530dc27b9d5,650c16f0f2faf8d7a0d14c09,651c1c9ca70859f21f006926,null,null,"<p style=""font-size: 60px; font-family: BACS"">COtBDPEdK</p>",,,,,,,,,,
html-keyboard-response,232,459087,0.0-12.0-0.62,614c8e5469405530dc27b9d5,650c16f0f2faf8d7a0d14c09,651c1c9ca70859f21f006926,null,null,"<p style=""font-size: 60px; font-family: BACS"">LdrbvYUYa</p>",,,,,,,,,,
html-keyboard-response,233,460097,0.0-12.0-0.63,614c8e5469405530dc27b9d5,650c16f0f2faf8d7a0d14c09,651c1c9ca70859f21f006926,null,null,"<p style=""font-size: 60px; font-family: BACS"">DmAMERDM</p>",,,,,,,,,,
html-keyboard-response,234,461109,0.0-12.0-0.64,614c8e5469405530dc27b9d5,650c16f0f2faf8d7a0d14c09,651c1c9ca70859f21f006926,null,null,"<p style=""font-size: 60px; font-family: BACS"">lTmORdCc</p>",,,,,,,,,,
html-keyboard-response,235,462115,0.0-12.0-0.65,614c8e5469405530dc27b9d5,650c16f0f2faf8d7a0d14c09,651c1c9ca70859f21f006926,null,null,"<p style=""font-size: 60px; font-family: BACS"">kGlUOJNk</p>",,,,,,,,,,
html-keyboard-response,236,463129,0.0-12.0-0.66,614c8e5469405530dc27b9d5,650c16f0f2faf8d7a0d14c09,651c1c9ca70859f21f006926,null,null,"<p style=""font-size: 60px; font-family: BACS"">OQarQkmU</p>",,,,,,,,,,
html-keyboard-response,237,464143,0.0-12.0-0.67,614c8e5469405530dc27b9d5,650c16f0f2faf8d7a0d14c09,651c1c9ca70859f21f006926,null,null,"<p style=""font-size: 60px; font-family: BACS"">kGlUYUYa</p>",,,,,,,,,,
html-keyboard-response,238,465157,0.0-12.0-0.68,614c8e5469405530dc27b9d5,650c16f0f2faf8d7a0d14c09,651c1c9ca70859f21f006926,null,null,"<p style=""font-size: 60px; font-family: BACS"">LdrbvOJNk</p>",,,,,,,,,,
html-keyboard-response,239,466161,0.0-12.0-0.69,614c8e5469405530dc27b9d5,650c16f0f2faf8d7a0d14c09,651c1c9ca70859f21f006926,null,null,"<p style=""font-size: 60px; font-family: BACS"">cROMtPEdK</p>",,,,,,,,,,
html-keyboard-response,240,467167,0.0-12.0-0.70,614c8e5469405530dc27b9d5,650c16f0f2faf8d7a0d14c09,651c1c9ca70859f21f006926,null,null,"<p style=""font-size: 60px; font-family: BACS"">hmKPMRDM</p>",,,,,,,,,,
html-keyboard-response,241,468168,0.0-12.0-0.71,614c8e5469405530dc27b9d5,650c16f0f2faf8d7a0d14c09,651c1c9ca70859f21f006926,null,null,"<p style=""font-size: 60px; font-family: BACS"">DmAMERdCc</p>",,,,,,,,,,
html-keyboard-response,242,469177,0.0-12.0-0.72,614c8e5469405530dc27b9d5,650c16f0f2faf8d7a0d14c09,651c1c9ca70859f21f006926,null,null,"<p style=""font-size: 60px; font-family: BACS"">ZcGdNOJNk</p>",,,,,,,,,,
html-keyboard-response,243,470192,0.0-12.0-0.73,614c8e5469405530dc27b9d5,650c16f0f2faf8d7a0d14c09,651c1c9ca70859f21f006926,null,null,"<p style=""font-size: 60px; font-family: BACS"">COtBDRDM</p>",,,,,,,,,,
html-keyboard-response,244,471198,0.0-12.0-0.74,614c8e5469405530dc27b9d5,650c16f0f2faf8d7a0d14c09,651c1c9ca70859f21f006926,null,null,"<p style=""font-size: 60px; font-family: BACS"">tRdMRdCc</p>",,,,,,,,,,
html-keyboard-response,245,472209,0.0-12.0-0.75,614c8e5469405530dc27b9d5,650c16f0f2faf8d7a0d14c09,651c1c9ca70859f21f006926,null,null,"<p style=""font-size: 60px; font-family: BACS"">OQarQYUYa</p>",,,,,,,,,,
html-keyboard-response,246,473215,0.0-12.0-0.76,614c8e5469405530dc27b9d5,650c16f0f2faf8d7a0d14c09,651c1c9ca70859f21f006926,null,null,"<p style=""font-size: 60px; font-family: BACS"">LdrbvkmU</p>",,,,,,,,,,
html-keyboard-response,247,474227,0.0-12.0-0.77,614c8e5469405530dc27b9d5,650c16f0f2faf8d7a0d14c09,651c1c9ca70859f21f006926,null,null,"<p style=""font-size: 60px; font-family: BACS"">EPERdhRKm</p>",,,,,,,,,,
html-keyboard-response,248,475234,0.0-12.0-0.78,614c8e5469405530dc27b9d5,650c16f0f2faf8d7a0d14c09,651c1c9ca70859f21f006926,null,null,"<p style=""font-size: 60px; font-family: BACS"">dNZAkJdr</p>",,,,,,,,,,
html-keyboard-response,249,476246,0.0-12.0-0.79,614c8e5469405530dc27b9d5,650c16f0f2faf8d7a0d14c09,651c1c9ca70859f21f006926,null,null,"<p style=""font-size: 60px; font-family: BACS"">YObARDM</p>",,,,,,,,,,
html-keyboard-response,250,482354,0.0-13.0,614c8e5469405530dc27b9d5,650c16f0f2faf8d7a0d14c09,651c1c9ca70859f21f006926,6106, ,"<p>Great, you've seen the third block of words. You may now take a short break.</p>
      <p>Press the spacebar when you're ready to continue.</p>",,,,,,,,,,
html-keyboard-response,251,483358,0.0-14.0-0.0,614c8e5469405530dc27b9d5,650c16f0f2faf8d7a0d14c09,651c1c9ca70859f21f006926,null,null,"<p style=""font-size: 60px; font-family: BACS"">bvuZkmU</p>",,,,,,,,,,
html-keyboard-response,252,484363,0.0-14.0-0.1,614c8e5469405530dc27b9d5,650c16f0f2faf8d7a0d14c09,651c1c9ca70859f21f006926,null,null,"<p style=""font-size: 60px; font-family: BACS"">rbYbuOJNk</p>",,,,,,,,,,
html-keyboard-response,253,485368,0.0-14.0-0.2,614c8e5469405530dc27b9d5,650c16f0f2faf8d7a0d14c09,651c1c9ca70859f21f006926,null,null,"<p style=""font-size: 60px; font-family: BACS"">ZcGdNkJdr</p>",,,,,,,,,,
html-keyboard-response,254,486373,0.0-14.0-0.3,614c8e5469405530dc27b9d5,650c16f0f2faf8d7a0d14c09,651c1c9ca70859f21f006926,null,null,"<p style=""font-size: 60px; font-family: BACS"">DmAMERDM</p>",,,,,,,,,,
html-keyboard-response,255,487386,0.0-14.0-0.4,614c8e5469405530dc27b9d5,650c16f0f2faf8d7a0d14c09,651c1c9ca70859f21f006926,null,null,"<p style=""font-size: 60px; font-family: BACS"">ubALmkJdr</p>",,,,,,,,,,
html-keyboard-response,256,488392,0.0-14.0-0.5,614c8e5469405530dc27b9d5,650c16f0f2faf8d7a0d14c09,651c1c9ca70859f21f006926,null,null,"<p style=""font-size: 60px; font-family: BACS"">COTKRdCc</p>",,,,,,,,,,
html-keyboard-response,257,489400,0.0-14.0-0.6,614c8e5469405530dc27b9d5,650c16f0f2faf8d7a0d14c09,651c1c9ca70859f21f006926,null,null,"<p style=""font-size: 60px; font-family: BACS"">bvuZOJNk</p>",,,,,,,,,,
html-keyboard-response,258,490411,0.0-14.0-0.7,614c8e5469405530dc27b9d5,650c16f0f2faf8d7a0d14c09,651c1c9ca70859f21f006926,null,null,"<p style=""font-size: 60px; font-family: BACS"">COTKPEdK</p>",,,,,,,,,,
html-keyboard-response,259,491422,0.0-14.0-0.8,614c8e5469405530dc27b9d5,650c16f0f2faf8d7a0d14c09,651c1c9ca70859f21f006926,null,null,"<p style=""font-size: 60px; font-family: BACS"">DmAMEcMRl</p>",,,,,,,,,,
html-keyboard-response,260,492425,0.0-14.0-0.9,614c8e5469405530dc27b9d5,650c16f0f2faf8d7a0d14c09,651c1c9ca70859f21f006926,null,null,"<p style=""font-size: 60px; font-family: BACS"">tRdMhRKm</p>",,,,,,,,,,
html-keyboard-response,261,493429,0.0-14.0-0.10,614c8e5469405530dc27b9d5,650c16f0f2faf8d7a0d14c09,651c1c9ca70859f21f006926,null,null,"<p style=""font-size: 60px; font-family: BACS"">hmKPMRdCc</p>",,,,,,,,,,
html-keyboard-response,262,494432,0.0-14.0-0.11,614c8e5469405530dc27b9d5,650c16f0f2faf8d7a0d14c09,651c1c9ca70859f21f006926,null,null,"<p style=""font-size: 60px; font-family: BACS"">OQarQrab</p>",,,,,,,,,,
html-keyboard-response,263,495440,0.0-14.0-0.12,614c8e5469405530dc27b9d5,650c16f0f2faf8d7a0d14c09,651c1c9ca70859f21f006926,null,null,"<p style=""font-size: 60px; font-family: BACS"">cROMthRKm</p>",,,,,,,,,,
html-keyboard-response,264,496449,0.0-14.0-0.13,614c8e5469405530dc27b9d5,650c16f0f2faf8d7a0d14c09,651c1c9ca70859f21f006926,null,null,"<p style=""font-size: 60px; font-family: BACS"">hmKPMPEdK</p>",,,,,,,,,,
html-keyboard-response,265,497456,0.0-14.0-0.14,614c8e5469405530dc27b9d5,650c16f0f2faf8d7a0d14c09,651c1c9ca70859f21f006926,null,null,"<p style=""font-size: 60px; font-family: BACS"">kGlUOJNk</p>",,,,,,,,,,
html-keyboard-response,266,498465,0.0-14.0-0.15,614c8e5469405530dc27b9d5,650c16f0f2faf8d7a0d14c09,651c1c9ca70859f21f006926,null,null,"<p style=""font-size: 60px; font-family: BACS"">mdkKcMRl</p>",,,,,,,,,,
html-keyboard-response,267,499469,0.0-14.0-0.16,614c8e5469405530dc27b9d5,650c16f0f2faf8d7a0d14c09,651c1c9ca70859f21f006926,null,null,"<p style=""font-size: 60px; font-family: BACS"">ubALmkmU</p>",,,,,,,,,,
html-keyboard-response,268,500478,0.0-14.0-0.17,614c8e5469405530dc27b9d5,650c16f0f2faf8d7a0d14c09,651c1c9ca70859f21f006926,null,null,"<p style=""font-size: 60px; font-family: BACS"">bvuZkJdr</p>",,,,,,,,,,
html-keyboard-response,269,501488,0.0-14.0-0.18,614c8e5469405530dc27b9d5,650c16f0f2faf8d7a0d14c09,651c1c9ca70859f21f006926,null,null,"<p style=""font-size: 60px; font-family: BACS"">EPERdhRKm</p>",,,,,,,,,,
html-keyboard-response,270,502504,0.0-14.0-0.19,614c8e5469405530dc27b9d5,650c16f0f2faf8d7a0d14c09,651c1c9ca70859f21f006926,null,null,"<p style=""font-size: 60px; font-family: BACS"">COtBDRdCc</p>",,,,,,,,,,
html-keyboard-response,271,503520,0.0-14.0-0.20,614c8e5469405530dc27b9d5,650c16f0f2faf8d7a0d14c09,651c1c9ca70859f21f006926,null,null,"<p style=""font-size: 60px; font-family: BACS"">lTmOPEdK</p>",,,,,,,,,,
html-keyboard-response,272,504523,0.0-14.0-0.21,614c8e5469405530dc27b9d5,650c16f0f2faf8d7a0d14c09,651c1c9ca70859f21f006926,null,null,"<p style=""font-size: 60px; font-family: BACS"">YObAcMRl</p>",,,,,,,,,,
html-keyboard-response,273,505529,0.0-14.0-0.22,614c8e5469405530dc27b9d5,650c16f0f2faf8d7a0d14c09,651c1c9ca70859f21f006926,null,null,"<p style=""font-size: 60px; font-family: BACS"">ZcGdNOJNk</p>",,,,,,,,,,
html-keyboard-response,274,506536,0.0-14.0-0.23,614c8e5469405530dc27b9d5,650c16f0f2faf8d7a0d14c09,651c1c9ca70859f21f006926,null,null,"<p style=""font-size: 60px; font-family: BACS"">OQarQkJdr</p>",,,,,,,,,,
html-keyboard-response,275,507551,0.0-14.0-0.24,614c8e5469405530dc27b9d5,650c16f0f2faf8d7a0d14c09,651c1c9ca70859f21f006926,null,null,"<p style=""font-size: 60px; font-family: BACS"">ZcGdNrab</p>",,,,,,,,,,
html-keyboard-response,276,508554,0.0-14.0-0.25,614c8e5469405530dc27b9d5,650c16f0f2faf8d7a0d14c09,651c1c9ca70859f21f006926,null,null,"<p style=""font-size: 60px; font-family: BACS"">tRdMRDM</p>",,,,,,,,,,
html-keyboard-response,277,509569,0.0-14.0-0.26,614c8e5469405530dc27b9d5,650c16f0f2faf8d7a0d14c09,651c1c9ca70859f21f006926,null,null,"<p style=""font-size: 60px; font-family: BACS"">hmKPMcMRl</p>",,,,,,,,,,
html-keyboard-response,278,510579,0.0-14.0-0.27,614c8e5469405530dc27b9d5,650c16f0f2faf8d7a0d14c09,651c1c9ca70859f21f006926,null,null,"<p style=""font-size: 60px; font-family: BACS"">dNZAOJNk</p>",,,,,,,,,,
html-keyboard-response,279,511587,0.0-14.0-0.28,614c8e5469405530dc27b9d5,650c16f0f2faf8d7a0d14c09,651c1c9ca70859f21f006926,null,null,"<p style=""font-size: 60px; font-family: BACS"">cROMtRDM</p>",,,,,,,,,,
html-keyboard-response,280,512595,0.0-14.0-0.29,614c8e5469405530dc27b9d5,650c16f0f2faf8d7a0d14c09,651c1c9ca70859f21f006926,null,null,"<p style=""font-size: 60px; font-family: BACS"">kGlUkmU</p>",,,,,,,,,,
html-keyboard-response,281,513598,0.0-14.0-0.30,614c8e5469405530dc27b9d5,650c16f0f2faf8d7a0d14c09,651c1c9ca70859f21f006926,null,null,"<p style=""font-size: 60px; font-family: BACS"">ubALmYUYa</p>",,,,,,,,,,
html-keyboard-response,282,514603,0.0-14.0-0.31,614c8e5469405530dc27b9d5,650c16f0f2faf8d7a0d14c09,651c1c9ca70859f21f006926,null,null,"<p style=""font-size: 60px; font-family: BACS"">dNZArab</p>",,,,,,,,,,
html-keyboard-response,283,515618,0.0-14.0-0.32,614c8e5469405530dc27b9d5,650c16f0f2faf8d7a0d14c09,651c1c9ca70859f21f006926,null,null,"<p style=""font-size: 60px; font-family: BACS"">mrOdOJNk</p>",,,,,,,,,,
html-keyboard-response,284,516622,0.0-14.0-0.33,614c8e5469405530dc27b9d5,650c16f0f2faf8d7a0d14c09,651c1c9ca70859f21f006926,null,null,"<p style=""font-size: 60px; font-family: BACS"">EPERdRDM</p>",,,,,,,,,,
html-keyboard-response,285,517635,0.0-14.0-0.34,614c8e5469405530dc27b9d5,650c16f0f2faf8d7a0d14c09,651c1c9ca70859f21f006926,null,null,"<p style=""font-size: 60px; font-family: BACS"">rbYbukJdr</p>",,,,,,,,,,
html-keyboard-response,286,518643,0.0-14.0-0.35,614c8e5469405530dc27b9d5,650c16f0f2faf8d7a0d14c09,651c1c9ca70859f21f006926,null,null,"<p style=""font-size: 60px; font-family: BACS"">rLkmrab</p>",,,,,,,,,,
html-keyboard-response,287,519652,0.0-14.0-0.36,614c8e5469405530dc27b9d5,650c16f0f2faf8d7a0d14c09,651c1c9ca70859f21f006926,null,null,"<p style=""font-size: 60px; font-family: BACS"">lTmORDM</p>",,,,,,,,,,
html-keyboard-response,288,520668,0.0-14.0-0.37,614c8e5469405530dc27b9d5,650c16f0f2faf8d7a0d14c09,651c1c9ca70859f21f006926,null,null,"<p style=""font-size: 60px; font-family: BACS"">rLkmkmU</p>",,,,,,,,,,
html-keyboard-response,289,521684,0.0-14.0-0.38,614c8e5469405530dc27b9d5,650c16f0f2faf8d7a0d14c09,651c1c9ca70859f21f006926,null,null,"<p style=""font-size: 60px; font-family: BACS"">YObAhRKm</p>",,,,,,,,,,
html-keyboard-response,290,522695,0.0-14.0-0.39,614c8e5469405530dc27b9d5,650c16f0f2faf8d7a0d14c09,651c1c9ca70859f21f006926,null,null,"<p style=""font-size: 60px; font-family: BACS"">lTmORdCc</p>",,,,,,,,,,
html-keyboard-response,291,523701,0.0-14.0-0.40,614c8e5469405530dc27b9d5,650c16f0f2faf8d7a0d14c09,651c1c9ca70859f21f006926,null,null,"<p style=""font-size: 60px; font-family: BACS"">rLkmYUYa</p>",,,,,,,,,,
html-keyboard-response,292,524703,0.0-14.0-0.41,614c8e5469405530dc27b9d5,650c16f0f2faf8d7a0d14c09,651c1c9ca70859f21f006926,null,null,"<p style=""font-size: 60px; font-family: BACS"">COtBDhRKm</p>",,,,,,,,,,
html-keyboard-response,293,525713,0.0-14.0-0.42,614c8e5469405530dc27b9d5,650c16f0f2faf8d7a0d14c09,651c1c9ca70859f21f006926,null,null,"<p style=""font-size: 60px; font-family: BACS"">tRdMcMRl</p>",,,,,,,,,,
html-keyboard-response,294,526726,0.0-14.0-0.43,614c8e5469405530dc27b9d5,650c16f0f2faf8d7a0d14c09,651c1c9ca70859f21f006926,null,null,"<p style=""font-size: 60px; font-family: BACS"">dNZAkmU</p>",,,,,,,,,,
html-keyboard-response,295,527733,0.0-14.0-0.44,614c8e5469405530dc27b9d5,650c16f0f2faf8d7a0d14c09,651c1c9ca70859f21f006926,null,null,"<p style=""font-size: 60px; font-family: BACS"">YObARDM</p>",,,,,,,,,,
html-keyboard-response,296,528749,0.0-14.0-0.45,614c8e5469405530dc27b9d5,650c16f0f2faf8d7a0d14c09,651c1c9ca70859f21f006926,null,null,"<p style=""font-size: 60px; font-family: BACS"">COTKcMRl</p>",,,,,,,,,,
html-keyboard-response,297,529759,0.0-14.0-0.46,614c8e5469405530dc27b9d5,650c16f0f2faf8d7a0d14c09,651c1c9ca70859f21f006926,null,null,"<p style=""font-size: 60px; font-family: BACS"">EPERdRdCc</p>",,,,,,,,,,
html-keyboard-response,298,530765,0.0-14.0-0.47,614c8e5469405530dc27b9d5,650c16f0f2faf8d7a0d14c09,651c1c9ca70859f21f006926,null,null,"<p style=""font-size: 60px; font-family: BACS"">mrOdrab</p>",,,,,,,,,,
html-keyboard-response,299,531776,0.0-14.0-0.48,614c8e5469405530dc27b9d5,650c16f0f2faf8d7a0d14c09,651c1c9ca70859f21f006926,null,null,"<p style=""font-size: 60px; font-family: BACS"">hmKPMRDM</p>",,,,,,,,,,
html-keyboard-response,300,532788,0.0-14.0-0.49,614c8e5469405530dc27b9d5,650c16f0f2faf8d7a0d14c09,651c1c9ca70859f21f006926,null,null,"<p style=""font-size: 60px; font-family: BACS"">lTmOhRKm</p>",,,,,,,,,,
html-keyboard-response,301,533801,0.0-14.0-0.50,614c8e5469405530dc27b9d5,650c16f0f2faf8d7a0d14c09,651c1c9ca70859f21f006926,null,null,"<p style=""font-size: 60px; font-family: BACS"">rLkmOJNk</p>",,,,,,,,,,
html-keyboard-response,302,534809,0.0-14.0-0.51,614c8e5469405530dc27b9d5,650c16f0f2faf8d7a0d14c09,651c1c9ca70859f21f006926,null,null,"<p style=""font-size: 60px; font-family: BACS"">OQarQYUYa</p>",,,,,,,,,,
html-keyboard-response,303,535817,0.0-14.0-0.52,614c8e5469405530dc27b9d5,650c16f0f2faf8d7a0d14c09,651c1c9ca70859f21f006926,null,null,"<p style=""font-size: 60px; font-family: BACS"">tRdMRdCc</p>",,,,,,,,,,
html-keyboard-response,304,536832,0.0-14.0-0.53,614c8e5469405530dc27b9d5,650c16f0f2faf8d7a0d14c09,651c1c9ca70859f21f006926,null,null,"<p style=""font-size: 60px; font-family: BACS"">dNZAkJdr</p>",,,,,,,,,,
html-keyboard-response,305,537847,0.0-14.0-0.54,614c8e5469405530dc27b9d5,650c16f0f2faf8d7a0d14c09,651c1c9ca70859f21f006926,null,null,"<p style=""font-size: 60px; font-family: BACS"">EPERdcMRl</p>",,,,,,,,,,
html-keyboard-response,306,538864,0.0-14.0-0.55,614c8e5469405530dc27b9d5,650c16f0f2faf8d7a0d14c09,651c1c9ca70859f21f006926,null,null,"<p style=""font-size: 60px; font-family: BACS"">Ldrbvrab</p>",,,,,,,,,,
html-keyboard-response,307,539869,0.0-14.0-0.56,614c8e5469405530dc27b9d5,650c16f0f2faf8d7a0d14c09,651c1c9ca70859f21f006926,null,null,"<p style=""font-size: 60px; font-family: BACS"">COtBDPEdK</p>",,,,,,,,,,
html-keyboard-response,308,540883,0.0-14.0-0.57,614c8e5469405530dc27b9d5,650c16f0f2faf8d7a0d14c09,651c1c9ca70859f21f006926,null,null,"<p style=""font-size: 60px; font-family: BACS"">cROMtcMRl</p>",,,,,,,,,,
html-keyboard-response,309,541890,0.0-14.0-0.58,614c8e5469405530dc27b9d5,650c16f0f2faf8d7a0d14c09,651c1c9ca70859f21f006926,null,null,"<p style=""font-size: 60px; font-family: BACS"">mrOdkJdr</p>",,,,,,,,,,
html-keyboard-response,310,542898,0.0-14.0-0.59,614c8e5469405530dc27b9d5,650c16f0f2faf8d7a0d14c09,651c1c9ca70859f21f006926,null,null,"<p style=""font-size: 60px; font-family: BACS"">COtBDRDM</p>",,,,,,,,,,
html-keyboard-response,311,543911,0.0-14.0-0.60,614c8e5469405530dc27b9d5,650c16f0f2faf8d7a0d14c09,651c1c9ca70859f21f006926,null,null,"<p style=""font-size: 60px; font-family: BACS"">YObAPEdK</p>",,,,,,,,,,
html-keyboard-response,312,544915,0.0-14.0-0.61,614c8e5469405530dc27b9d5,650c16f0f2faf8d7a0d14c09,651c1c9ca70859f21f006926,null,null,"<p style=""font-size: 60px; font-family: BACS"">rbYbuYUYa</p>",,,,,,,,,,
html-keyboard-response,313,545930,0.0-14.0-0.62,614c8e5469405530dc27b9d5,650c16f0f2faf8d7a0d14c09,651c1c9ca70859f21f006926,null,null,"<p style=""font-size: 60px; font-family: BACS"">ubALmrab</p>",,,,,,,,,,
html-keyboard-response,314,546936,0.0-14.0-0.63,614c8e5469405530dc27b9d5,650c16f0f2faf8d7a0d14c09,651c1c9ca70859f21f006926,null,null,"<p style=""font-size: 60px; font-family: BACS"">DmAMERdCc</p>",,,,,,,,,,
html-keyboard-response,315,547940,0.0-14.0-0.64,614c8e5469405530dc27b9d5,650c16f0f2faf8d7a0d14c09,651c1c9ca70859f21f006926,null,null,"<p style=""font-size: 60px; font-family: BACS"">mrOdYUYa</p>",,,,,,,,,,
html-keyboard-response,316,548944,0.0-14.0-0.65,614c8e5469405530dc27b9d5,650c16f0f2faf8d7a0d14c09,651c1c9ca70859f21f006926,null,null,"<p style=""font-size: 60px; font-family: BACS"">mdkKPEdK</p>",,,,,,,,,,
html-keyboard-response,317,549947,0.0-14.0-0.66,614c8e5469405530dc27b9d5,650c16f0f2faf8d7a0d14c09,651c1c9ca70859f21f006926,null,null,"<p style=""font-size: 60px; font-family: BACS"">OQarQkmU</p>",,,,,,,,,,
html-keyboard-response,318,550951,0.0-14.0-0.67,614c8e5469405530dc27b9d5,650c16f0f2faf8d7a0d14c09,651c1c9ca70859f21f006926,null,null,"<p style=""font-size: 60px; font-family: BACS"">LdrbvYUYa</p>",,,,,,,,,,
html-keyboard-response,319,551958,0.0-14.0-0.68,614c8e5469405530dc27b9d5,650c16f0f2faf8d7a0d14c09,651c1c9ca70859f21f006926,null,null,"<p style=""font-size: 60px; font-family: BACS"">kGlUkJdr</p>",,,,,,,,,,
html-keyboard-response,320,552965,0.0-14.0-0.69,614c8e5469405530dc27b9d5,650c16f0f2faf8d7a0d14c09,651c1c9ca70859f21f006926,null,null,"<p style=""font-size: 60px; font-family: BACS"">mdkKRdCc</p>",,,,,,,,,,
html-keyboard-response,321,553974,0.0-14.0-0.70,614c8e5469405530dc27b9d5,650c16f0f2faf8d7a0d14c09,651c1c9ca70859f21f006926,null,null,"<p style=""font-size: 60px; font-family: BACS"">bvuZrab</p>",,,,,,,,,,
html-keyboard-response,322,554979,0.0-14.0-0.71,614c8e5469405530dc27b9d5,650c16f0f2faf8d7a0d14c09,651c1c9ca70859f21f006926,null,null,"<p style=""font-size: 60px; font-family: BACS"">rbYbukmU</p>",,,,,,,,,,
html-keyboard-response,323,555990,0.0-14.0-0.72,614c8e5469405530dc27b9d5,650c16f0f2faf8d7a0d14c09,651c1c9ca70859f21f006926,null,null,"<p style=""font-size: 60px; font-family: BACS"">cROMtPEdK</p>",,,,,,,,,,
html-keyboard-response,324,557003,0.0-14.0-0.73,614c8e5469405530dc27b9d5,650c16f0f2faf8d7a0d14c09,651c1c9ca70859f21f006926,null,null,"<p style=""font-size: 60px; font-family: BACS"">mdkKhRKm</p>",,,,,,,,,,
html-keyboard-response,325,558006,0.0-14.0-0.74,614c8e5469405530dc27b9d5,650c16f0f2faf8d7a0d14c09,651c1c9ca70859f21f006926,null,null,"<p style=""font-size: 60px; font-family: BACS"">kGlUYUYa</p>",,,,,,,,,,
html-keyboard-response,326,559014,0.0-14.0-0.75,614c8e5469405530dc27b9d5,650c16f0f2faf8d7a0d14c09,651c1c9ca70859f21f006926,null,null,"<p style=""font-size: 60px; font-family: BACS"">LdrbvOJNk</p>",,,,,,,,,,
html-keyboard-response,327,560024,0.0-14.0-0.76,614c8e5469405530dc27b9d5,650c16f0f2faf8d7a0d14c09,651c1c9ca70859f21f006926,null,null,"<p style=""font-size: 60px; font-family: BACS"">DmAMEPEdK</p>",,,,,,,,,,
html-keyboard-response,328,561029,0.0-14.0-0.77,614c8e5469405530dc27b9d5,650c16f0f2faf8d7a0d14c09,651c1c9ca70859f21f006926,null,null,"<p style=""font-size: 60px; font-family: BACS"">COTKhRKm</p>",,,,,,,,,,
html-keyboard-response,329,562031,0.0-14.0-0.78,614c8e5469405530dc27b9d5,650c16f0f2faf8d7a0d14c09,651c1c9ca70859f21f006926,null,null,"<p style=""font-size: 60px; font-family: BACS"">ZcGdNYUYa</p>",,,,,,,,,,
html-keyboard-response,330,563032,0.0-14.0-0.79,614c8e5469405530dc27b9d5,650c16f0f2faf8d7a0d14c09,651c1c9ca70859f21f006926,null,null,"<p style=""font-size: 60px; font-family: BACS"">LdrbvkmU</p>",,,,,,,,,,
html-keyboard-response,331,567451,0.0-15.0,614c8e5469405530dc27b9d5,650c16f0f2faf8d7a0d14c09,651c1c9ca70859f21f006926,4418, ,"<p>Great, you've seen the fourth block of words. You may now take a short break.</p>
      <p>Press the spacebar when you're ready to continue.</p>",,,,,,,,,,
html-keyboard-response,332,568456,0.0-16.0-0.0,614c8e5469405530dc27b9d5,650c16f0f2faf8d7a0d14c09,651c1c9ca70859f21f006926,null,null,"<p style=""font-size: 60px; font-family: BACS"">OQarQkJdr</p>",,,,,,,,,,
html-keyboard-response,333,569472,0.0-16.0-0.1,614c8e5469405530dc27b9d5,650c16f0f2faf8d7a0d14c09,651c1c9ca70859f21f006926,null,null,"<p style=""font-size: 60px; font-family: BACS"">OQarQkJdr</p>",,,,,,,,,,
html-keyboard-response,334,570478,0.0-16.0-0.2,614c8e5469405530dc27b9d5,650c16f0f2faf8d7a0d14c09,651c1c9ca70859f21f006926,null,null,"<p style=""font-size: 60px; font-family: BACS"">OQarQkJdr</p>",,,,,,,,,,
html-keyboard-response,335,571480,0.0-16.0-0.3,614c8e5469405530dc27b9d5,650c16f0f2faf8d7a0d14c09,651c1c9ca70859f21f006926,null,null,"<p style=""font-size: 60px; font-family: BACS"">OQarQkJdr</p>",,,,,,,,,,
html-keyboard-response,336,572487,0.0-16.0-0.4,614c8e5469405530dc27b9d5,650c16f0f2faf8d7a0d14c09,651c1c9ca70859f21f006926,null,null,"<p style=""font-size: 60px; font-family: BACS"">OQarQkJdr</p>",,,,,,,,,,
html-keyboard-response,337,573492,0.0-16.0-0.5,614c8e5469405530dc27b9d5,650c16f0f2faf8d7a0d14c09,651c1c9ca70859f21f006926,null,null,"<p style=""font-size: 60px; font-family: BACS"">OQarQkJdr</p>",,,,,,,,,,
html-keyboard-response,338,574501,0.0-16.0-0.6,614c8e5469405530dc27b9d5,650c16f0f2faf8d7a0d14c09,651c1c9ca70859f21f006926,null,null,"<p style=""font-size: 60px; font-family: BACS"">OQarQkJdr</p>",,,,,,,,,,
html-keyboard-response,339,575504,0.0-16.0-0.7,614c8e5469405530dc27b9d5,650c16f0f2faf8d7a0d14c09,651c1c9ca70859f21f006926,null,null,"<p style=""font-size: 60px; font-family: BACS"">OQarQkJdr</p>",,,,,,,,,,
html-keyboard-response,340,576517,0.0-16.0-0.8,614c8e5469405530dc27b9d5,650c16f0f2faf8d7a0d14c09,651c1c9ca70859f21f006926,null,null,"<p style=""font-size: 60px; font-family: BACS"">OQarQkJdr</p>",,,,,,,,,,
html-keyboard-response,341,577522,0.0-16.0-0.9,614c8e5469405530dc27b9d5,650c16f0f2faf8d7a0d14c09,651c1c9ca70859f21f006926,null,null,"<p style=""font-size: 60px; font-family: BACS"">OQarQkJdr</p>",,,,,,,,,,
html-keyboard-response,342,578536,0.0-16.0-0.10,614c8e5469405530dc27b9d5,650c16f0f2faf8d7a0d14c09,651c1c9ca70859f21f006926,null,null,"<p style=""font-size: 60px; font-family: BACS"">OQarQkJdr</p>",,,,,,,,,,
html-keyboard-response,343,579547,0.0-16.0-0.11,614c8e5469405530dc27b9d5,650c16f0f2faf8d7a0d14c09,651c1c9ca70859f21f006926,null,null,"<p style=""font-size: 60px; font-family: BACS"">OQarQkJdr</p>",,,,,,,,,,
html-keyboard-response,344,580552,0.0-16.0-0.12,614c8e5469405530dc27b9d5,650c16f0f2faf8d7a0d14c09,651c1c9ca70859f21f006926,null,null,"<p style=""font-size: 60px; font-family: BACS"">OQarQkJdr</p>",,,,,,,,,,
html-keyboard-response,345,581560,0.0-16.0-0.13,614c8e5469405530dc27b9d5,650c16f0f2faf8d7a0d14c09,651c1c9ca70859f21f006926,null,null,"<p style=""font-size: 60px; font-family: BACS"">OQarQkJdr</p>",,,,,,,,,,
html-keyboard-response,346,582575,0.0-16.0-0.14,614c8e5469405530dc27b9d5,650c16f0f2faf8d7a0d14c09,651c1c9ca70859f21f006926,null,null,"<p style=""font-size: 60px; font-family: BACS"">OQarQkJdr</p>",,,,,,,,,,
html-keyboard-response,347,583578,0.0-16.0-0.15,614c8e5469405530dc27b9d5,650c16f0f2faf8d7a0d14c09,651c1c9ca70859f21f006926,null,null,"<p style=""font-size: 60px; font-family: BACS"">OQarQkJdr</p>",,,,,,,,,,
html-keyboard-response,348,584594,0.0-16.0-0.16,614c8e5469405530dc27b9d5,650c16f0f2faf8d7a0d14c09,651c1c9ca70859f21f006926,null,null,"<p style=""font-size: 60px; font-family: BACS"">OQarQkJdr</p>",,,,,,,,,,
html-keyboard-response,349,585610,0.0-16.0-0.17,614c8e5469405530dc27b9d5,650c16f0f2faf8d7a0d14c09,651c1c9ca70859f21f006926,null,null,"<p style=""font-size: 60px; font-family: BACS"">OQarQkJdr</p>",,,,,,,,,,
html-keyboard-response,350,586624,0.0-16.0-0.18,614c8e5469405530dc27b9d5,650c16f0f2faf8d7a0d14c09,651c1c9ca70859f21f006926,null,null,"<p style=""font-size: 60px; font-family: BACS"">OQarQkJdr</p>",,,,,,,,,,
html-keyboard-response,351,587627,0.0-16.0-0.19,614c8e5469405530dc27b9d5,650c16f0f2faf8d7a0d14c09,651c1c9ca70859f21f006926,null,null,"<p style=""font-size: 60px; font-family: BACS"">OQarQkJdr</p>",,,,,,,,,,
html-keyboard-response,352,588642,0.0-16.0-0.20,614c8e5469405530dc27b9d5,650c16f0f2faf8d7a0d14c09,651c1c9ca70859f21f006926,null,null,"<p style=""font-size: 60px; font-family: BACS"">OQarQkJdr</p>",,,,,,,,,,
html-keyboard-response,353,589656,0.0-16.0-0.21,614c8e5469405530dc27b9d5,650c16f0f2faf8d7a0d14c09,651c1c9ca70859f21f006926,null,null,"<p style=""font-size: 60px; font-family: BACS"">OQarQkJdr</p>",,,,,,,,,,
html-keyboard-response,354,590660,0.0-16.0-0.22,614c8e5469405530dc27b9d5,650c16f0f2faf8d7a0d14c09,651c1c9ca70859f21f006926,null,null,"<p style=""font-size: 60px; font-family: BACS"">OQarQkJdr</p>",,,,,,,,,,
html-keyboard-response,355,591666,0.0-16.0-0.23,614c8e5469405530dc27b9d5,650c16f0f2faf8d7a0d14c09,651c1c9ca70859f21f006926,null,null,"<p style=""font-size: 60px; font-family: BACS"">OQarQkJdr</p>",,,,,,,,,,
html-keyboard-response,356,592670,0.0-16.0-0.24,614c8e5469405530dc27b9d5,650c16f0f2faf8d7a0d14c09,651c1c9ca70859f21f006926,null,null,"<p style=""font-size: 60px; font-family: BACS"">OQarQkJdr</p>",,,,,,,,,,
html-keyboard-response,357,593681,0.0-16.0-0.25,614c8e5469405530dc27b9d5,650c16f0f2faf8d7a0d14c09,651c1c9ca70859f21f006926,null,null,"<p style=""font-size: 60px; font-family: BACS"">OQarQkJdr</p>",,,,,,,,,,
html-keyboard-response,358,594686,0.0-16.0-0.26,614c8e5469405530dc27b9d5,650c16f0f2faf8d7a0d14c09,651c1c9ca70859f21f006926,null,null,"<p style=""font-size: 60px; font-family: BACS"">OQarQkJdr</p>",,,,,,,,,,
html-keyboard-response,359,595700,0.0-16.0-0.27,614c8e5469405530dc27b9d5,650c16f0f2faf8d7a0d14c09,651c1c9ca70859f21f006926,null,null,"<p style=""font-size: 60px; font-family: BACS"">OQarQkJdr</p>",,,,,,,,,,
html-keyboard-response,360,596703,0.0-16.0-0.28,614c8e5469405530dc27b9d5,650c16f0f2faf8d7a0d14c09,651c1c9ca70859f21f006926,null,null,"<p style=""font-size: 60px; font-family: BACS"">OQarQkJdr</p>",,,,,,,,,,
html-keyboard-response,361,597718,0.0-16.0-0.29,614c8e5469405530dc27b9d5,650c16f0f2faf8d7a0d14c09,651c1c9ca70859f21f006926,null,null,"<p style=""font-size: 60px; font-family: BACS"">OQarQkJdr</p>",,,,,,,,,,
html-keyboard-response,362,598729,0.0-16.0-0.30,614c8e5469405530dc27b9d5,650c16f0f2faf8d7a0d14c09,651c1c9ca70859f21f006926,null,null,"<p style=""font-size: 60px; font-family: BACS"">OQarQkJdr</p>",,,,,,,,,,
html-keyboard-response,363,599735,0.0-16.0-0.31,614c8e5469405530dc27b9d5,650c16f0f2faf8d7a0d14c09,651c1c9ca70859f21f006926,null,null,"<p style=""font-size: 60px; font-family: BACS"">OQarQkJdr</p>",,,,,,,,,,
html-keyboard-response,364,600744,0.0-16.0-0.32,614c8e5469405530dc27b9d5,650c16f0f2faf8d7a0d14c09,651c1c9ca70859f21f006926,null,null,"<p style=""font-size: 60px; font-family: BACS"">OQarQkJdr</p>",,,,,,,,,,
html-keyboard-response,365,601749,0.0-16.0-0.33,614c8e5469405530dc27b9d5,650c16f0f2faf8d7a0d14c09,651c1c9ca70859f21f006926,null,null,"<p style=""font-size: 60px; font-family: BACS"">OQarQkJdr</p>",,,,,,,,,,
html-keyboard-response,366,602756,0.0-16.0-0.34,614c8e5469405530dc27b9d5,650c16f0f2faf8d7a0d14c09,651c1c9ca70859f21f006926,null,null,"<p style=""font-size: 60px; font-family: BACS"">OQarQkJdr</p>",,,,,,,,,,
html-keyboard-response,367,603764,0.0-16.0-0.35,614c8e5469405530dc27b9d5,650c16f0f2faf8d7a0d14c09,651c1c9ca70859f21f006926,null,null,"<p style=""font-size: 60px; font-family: BACS"">OQarQkJdr</p>",,,,,,,,,,
html-keyboard-response,368,604766,0.0-16.0-0.36,614c8e5469405530dc27b9d5,650c16f0f2faf8d7a0d14c09,651c1c9ca70859f21f006926,null,null,"<p style=""font-size: 60px; font-family: BACS"">OQarQkJdr</p>",,,,,,,,,,
html-keyboard-response,369,605780,0.0-16.0-0.37,614c8e5469405530dc27b9d5,650c16f0f2faf8d7a0d14c09,651c1c9ca70859f21f006926,null,null,"<p style=""font-size: 60px; font-family: BACS"">OQarQkJdr</p>",,,,,,,,,,
html-keyboard-response,370,606784,0.0-16.0-0.38,614c8e5469405530dc27b9d5,650c16f0f2faf8d7a0d14c09,651c1c9ca70859f21f006926,null,null,"<p style=""font-size: 60px; font-family: BACS"">OQarQkJdr</p>",,,,,,,,,,
html-keyboard-response,371,607791,0.0-16.0-0.39,614c8e5469405530dc27b9d5,650c16f0f2faf8d7a0d14c09,651c1c9ca70859f21f006926,null,null,"<p style=""font-size: 60px; font-family: BACS"">OQarQkJdr</p>",,,,,,,,,,
html-keyboard-response,372,608799,0.0-16.0-0.40,614c8e5469405530dc27b9d5,650c16f0f2faf8d7a0d14c09,651c1c9ca70859f21f006926,null,null,"<p style=""font-size: 60px; font-family: BACS"">OQarQkJdr</p>",,,,,,,,,,
html-keyboard-response,373,609804,0.0-16.0-0.41,614c8e5469405530dc27b9d5,650c16f0f2faf8d7a0d14c09,651c1c9ca70859f21f006926,null,null,"<p style=""font-size: 60px; font-family: BACS"">OQarQkJdr</p>",,,,,,,,,,
html-keyboard-response,374,610816,0.0-16.0-0.42,614c8e5469405530dc27b9d5,650c16f0f2faf8d7a0d14c09,651c1c9ca70859f21f006926,null,null,"<p style=""font-size: 60px; font-family: BACS"">OQarQkJdr</p>",,,,,,,,,,
html-keyboard-response,375,611823,0.0-16.0-0.43,614c8e5469405530dc27b9d5,650c16f0f2faf8d7a0d14c09,651c1c9ca70859f21f006926,null,null,"<p style=""font-size: 60px; font-family: BACS"">OQarQkJdr</p>",,,,,,,,,,
html-keyboard-response,376,612830,0.0-16.0-0.44,614c8e5469405530dc27b9d5,650c16f0f2faf8d7a0d14c09,651c1c9ca70859f21f006926,null,null,"<p style=""font-size: 60px; font-family: BACS"">OQarQkJdr</p>",,,,,,,,,,
html-keyboard-response,377,613839,0.0-16.0-0.45,614c8e5469405530dc27b9d5,650c16f0f2faf8d7a0d14c09,651c1c9ca70859f21f006926,null,null,"<p style=""font-size: 60px; font-family: BACS"">OQarQkJdr</p>",,,,,,,,,,
html-keyboard-response,378,614854,0.0-16.0-0.46,614c8e5469405530dc27b9d5,650c16f0f2faf8d7a0d14c09,651c1c9ca70859f21f006926,null,null,"<p style=""font-size: 60px; font-family: BACS"">OQarQkJdr</p>",,,,,,,,,,
html-keyboard-response,379,615870,0.0-16.0-0.47,614c8e5469405530dc27b9d5,650c16f0f2faf8d7a0d14c09,651c1c9ca70859f21f006926,null,null,"<p style=""font-size: 60px; font-family: BACS"">OQarQkJdr</p>",,,,,,,,,,
html-keyboard-response,380,616882,0.0-16.0-0.48,614c8e5469405530dc27b9d5,650c16f0f2faf8d7a0d14c09,651c1c9ca70859f21f006926,null,null,"<p style=""font-size: 60px; font-family: BACS"">OQarQkJdr</p>",,,,,,,,,,
html-keyboard-response,381,617895,0.0-16.0-0.49,614c8e5469405530dc27b9d5,650c16f0f2faf8d7a0d14c09,651c1c9ca70859f21f006926,null,null,"<p style=""font-size: 60px; font-family: BACS"">OQarQkJdr</p>",,,,,,,,,,
html-keyboard-response,382,618908,0.0-16.0-0.50,614c8e5469405530dc27b9d5,650c16f0f2faf8d7a0d14c09,651c1c9ca70859f21f006926,null,null,"<p style=""font-size: 60px; font-family: BACS"">OQarQkJdr</p>",,,,,,,,,,
html-keyboard-response,383,619924,0.0-16.0-0.51,614c8e5469405530dc27b9d5,650c16f0f2faf8d7a0d14c09,651c1c9ca70859f21f006926,null,null,"<p style=""font-size: 60px; font-family: BACS"">OQarQkJdr</p>",,,,,,,,,,
html-keyboard-response,384,620933,0.0-16.0-0.52,614c8e5469405530dc27b9d5,650c16f0f2faf8d7a0d14c09,651c1c9ca70859f21f006926,null,null,"<p style=""font-size: 60px; font-family: BACS"">OQarQkJdr</p>",,,,,,,,,,
html-keyboard-response,385,621938,0.0-16.0-0.53,614c8e5469405530dc27b9d5,650c16f0f2faf8d7a0d14c09,651c1c9ca70859f21f006926,null,null,"<p style=""font-size: 60px; font-family: BACS"">OQarQkJdr</p>",,,,,,,,,,
html-keyboard-response,386,622950,0.0-16.0-0.54,614c8e5469405530dc27b9d5,650c16f0f2faf8d7a0d14c09,651c1c9ca70859f21f006926,null,null,"<p style=""font-size: 60px; font-family: BACS"">OQarQkJdr</p>",,,,,,,,,,
html-keyboard-response,387,623958,0.0-16.0-0.55,614c8e5469405530dc27b9d5,650c16f0f2faf8d7a0d14c09,651c1c9ca70859f21f006926,null,null,"<p style=""font-size: 60px; font-family: BACS"">OQarQkJdr</p>",,,,,,,,,,
html-keyboard-response,388,624973,0.0-16.0-0.56,614c8e5469405530dc27b9d5,650c16f0f2faf8d7a0d14c09,651c1c9ca70859f21f006926,null,null,"<p style=""font-size: 60px; font-family: BACS"">OQarQkJdr</p>",,,,,,,,,,
html-keyboard-response,389,625980,0.0-16.0-0.57,614c8e5469405530dc27b9d5,650c16f0f2faf8d7a0d14c09,651c1c9ca70859f21f006926,null,null,"<p style=""font-size: 60px; font-family: BACS"">OQarQkJdr</p>",,,,,,,,,,
html-keyboard-response,390,626989,0.0-16.0-0.58,614c8e5469405530dc27b9d5,650c16f0f2faf8d7a0d14c09,651c1c9ca70859f21f006926,null,null,"<p style=""font-size: 60px; font-family: BACS"">OQarQkJdr</p>",,,,,,,,,,
html-keyboard-response,391,627997,0.0-16.0-0.59,614c8e5469405530dc27b9d5,650c16f0f2faf8d7a0d14c09,651c1c9ca70859f21f006926,null,null,"<p style=""font-size: 60px; font-family: BACS"">OQarQkJdr</p>",,,,,,,,,,
html-keyboard-response,392,628999,0.0-16.0-0.60,614c8e5469405530dc27b9d5,650c16f0f2faf8d7a0d14c09,651c1c9ca70859f21f006926,null,null,"<p style=""font-size: 60px; font-family: BACS"">OQarQkJdr</p>",,,,,,,,,,
html-keyboard-response,393,630014,0.0-16.0-0.61,614c8e5469405530dc27b9d5,650c16f0f2faf8d7a0d14c09,651c1c9ca70859f21f006926,null,null,"<p style=""font-size: 60px; font-family: BACS"">OQarQkJdr</p>",,,,,,,,,,
html-keyboard-response,394,631022,0.0-16.0-0.62,614c8e5469405530dc27b9d5,650c16f0f2faf8d7a0d14c09,651c1c9ca70859f21f006926,null,null,"<p style=""font-size: 60px; font-family: BACS"">OQarQkJdr</p>",,,,,,,,,,
html-keyboard-response,395,632028,0.0-16.0-0.63,614c8e5469405530dc27b9d5,650c16f0f2faf8d7a0d14c09,651c1c9ca70859f21f006926,null,null,"<p style=""font-size: 60px; font-family: BACS"">OQarQkJdr</p>",,,,,,,,,,
html-keyboard-response,396,633038,0.0-16.0-0.64,614c8e5469405530dc27b9d5,650c16f0f2faf8d7a0d14c09,651c1c9ca70859f21f006926,null,null,"<p style=""font-size: 60px; font-family: BACS"">OQarQkJdr</p>",,,,,,,,,,
html-keyboard-response,397,634052,0.0-16.0-0.65,614c8e5469405530dc27b9d5,650c16f0f2faf8d7a0d14c09,651c1c9ca70859f21f006926,null,null,"<p style=""font-size: 60px; font-family: BACS"">OQarQkJdr</p>",,,,,,,,,,
html-keyboard-response,398,635065,0.0-16.0-0.66,614c8e5469405530dc27b9d5,650c16f0f2faf8d7a0d14c09,651c1c9ca70859f21f006926,null,null,"<p style=""font-size: 60px; font-family: BACS"">OQarQkJdr</p>",,,,,,,,,,
html-keyboard-response,399,636071,0.0-16.0-0.67,614c8e5469405530dc27b9d5,650c16f0f2faf8d7a0d14c09,651c1c9ca70859f21f006926,null,null,"<p style=""font-size: 60px; font-family: BACS"">OQarQkJdr</p>",,,,,,,,,,
html-keyboard-response,400,637087,0.0-16.0-0.68,614c8e5469405530dc27b9d5,650c16f0f2faf8d7a0d14c09,651c1c9ca70859f21f006926,null,null,"<p style=""font-size: 60px; font-family: BACS"">OQarQkJdr</p>",,,,,,,,,,
html-keyboard-response,401,638102,0.0-16.0-0.69,614c8e5469405530dc27b9d5,650c16f0f2faf8d7a0d14c09,651c1c9ca70859f21f006926,null,null,"<p style=""font-size: 60px; font-family: BACS"">OQarQkJdr</p>",,,,,,,,,,
html-keyboard-response,402,639113,0.0-16.0-0.70,614c8e5469405530dc27b9d5,650c16f0f2faf8d7a0d14c09,651c1c9ca70859f21f006926,null,null,"<p style=""font-size: 60px; font-family: BACS"">OQarQkJdr</p>",,,,,,,,,,
html-keyboard-response,403,640115,0.0-16.0-0.71,614c8e5469405530dc27b9d5,650c16f0f2faf8d7a0d14c09,651c1c9ca70859f21f006926,null,null,"<p style=""font-size: 60px; font-family: BACS"">OQarQkJdr</p>",,,,,,,,,,
html-keyboard-response,404,641120,0.0-16.0-0.72,614c8e5469405530dc27b9d5,650c16f0f2faf8d7a0d14c09,651c1c9ca70859f21f006926,null,null,"<p style=""font-size: 60px; font-family: BACS"">OQarQkJdr</p>",,,,,,,,,,
html-keyboard-response,405,642129,0.0-16.0-0.73,614c8e5469405530dc27b9d5,650c16f0f2faf8d7a0d14c09,651c1c9ca70859f21f006926,null,null,"<p style=""font-size: 60px; font-family: BACS"">OQarQkJdr</p>",,,,,,,,,,
html-keyboard-response,406,643143,0.0-16.0-0.74,614c8e5469405530dc27b9d5,650c16f0f2faf8d7a0d14c09,651c1c9ca70859f21f006926,null,null,"<p style=""font-size: 60px; font-family: BACS"">OQarQkJdr</p>",,,,,,,,,,
html-keyboard-response,407,644146,0.0-16.0-0.75,614c8e5469405530dc27b9d5,650c16f0f2faf8d7a0d14c09,651c1c9ca70859f21f006926,null,null,"<p style=""font-size: 60px; font-family: BACS"">OQarQkJdr</p>",,,,,,,,,,
html-keyboard-response,408,645152,0.0-16.0-0.76,614c8e5469405530dc27b9d5,650c16f0f2faf8d7a0d14c09,651c1c9ca70859f21f006926,null,null,"<p style=""font-size: 60px; font-family: BACS"">OQarQkJdr</p>",,,,,,,,,,
html-keyboard-response,409,646162,0.0-16.0-0.77,614c8e5469405530dc27b9d5,650c16f0f2faf8d7a0d14c09,651c1c9ca70859f21f006926,null,null,"<p style=""font-size: 60px; font-family: BACS"">OQarQkJdr</p>",,,,,,,,,,
html-keyboard-response,410,647168,0.0-16.0-0.78,614c8e5469405530dc27b9d5,650c16f0f2faf8d7a0d14c09,651c1c9ca70859f21f006926,null,null,"<p style=""font-size: 60px; font-family: BACS"">OQarQkJdr</p>",,,,,,,,,,
html-keyboard-response,411,648184,0.0-16.0-0.79,614c8e5469405530dc27b9d5,650c16f0f2faf8d7a0d14c09,651c1c9ca70859f21f006926,null,null,"<p style=""font-size: 60px; font-family: BACS"">OQarQkJdr</p>",,,,,,,,,,
html-keyboard-response,412,657089,0.0-17.0,614c8e5469405530dc27b9d5,650c16f0f2faf8d7a0d14c09,651c1c9ca70859f21f006926,8903, ,"<p>Great, you've seen the fifth block of words. You may now take a short break.</p>
      <p>Press the spacebar when you're ready to continue.</p>",,,,,,,,,,
html-keyboard-response,413,658093,0.0-18.0-0.0,614c8e5469405530dc27b9d5,650c16f0f2faf8d7a0d14c09,651c1c9ca70859f21f006926,null,null,"<p style=""font-size: 60px; font-family: BACS"">DmAMEcMRl</p>",,,,,,,,,,
html-keyboard-response,414,659110,0.0-18.0-0.1,614c8e5469405530dc27b9d5,650c16f0f2faf8d7a0d14c09,651c1c9ca70859f21f006926,null,null,"<p style=""font-size: 60px; font-family: BACS"">hmKPMPEdK</p>",,,,,,,,,,
html-keyboard-response,415,660116,0.0-18.0-0.2,614c8e5469405530dc27b9d5,650c16f0f2faf8d7a0d14c09,651c1c9ca70859f21f006926,null,null,"<p style=""font-size: 60px; font-family: BACS"">kGlUkJdr</p>",,,,,,,,,,
html-keyboard-response,416,661133,0.0-18.0-0.3,614c8e5469405530dc27b9d5,650c16f0f2faf8d7a0d14c09,651c1c9ca70859f21f006926,null,null,"<p style=""font-size: 60px; font-family: BACS"">ZcGdNrab</p>",,,,,,,,,,
html-keyboard-response,417,662149,0.0-18.0-0.4,614c8e5469405530dc27b9d5,650c16f0f2faf8d7a0d14c09,651c1c9ca70859f21f006926,null,null,"<p style=""font-size: 60px; font-family: BACS"">COtBDRdCc</p>",,,,,,,,,,
html-keyboard-response,418,663160,0.0-18.0-0.5,614c8e5469405530dc27b9d5,650c16f0f2faf8d7a0d14c09,651c1c9ca70859f21f006926,null,null,"<p style=""font-size: 60px; font-family: BACS"">rbYbukJdr</p>",,,,,,,,,,
html-keyboard-response,419,664167,0.0-18.0-0.6,614c8e5469405530dc27b9d5,650c16f0f2faf8d7a0d14c09,651c1c9ca70859f21f006926,null,null,"<p style=""font-size: 60px; font-family: BACS"">mdkKcMRl</p>",,,,,,,,,,
html-keyboard-response,420,665171,0.0-18.0-0.7,614c8e5469405530dc27b9d5,650c16f0f2faf8d7a0d14c09,651c1c9ca70859f21f006926,null,null,"<p style=""font-size: 60px; font-family: BACS"">bvuZkJdr</p>",,,,,,,,,,
html-keyboard-response,421,666179,0.0-18.0-0.8,614c8e5469405530dc27b9d5,650c16f0f2faf8d7a0d14c09,651c1c9ca70859f21f006926,null,null,"<p style=""font-size: 60px; font-family: BACS"">cROMtPEdK</p>",,,,,,,,,,
html-keyboard-response,422,667184,0.0-18.0-0.9,614c8e5469405530dc27b9d5,650c16f0f2faf8d7a0d14c09,651c1c9ca70859f21f006926,null,null,"<p style=""font-size: 60px; font-family: BACS"">hmKPMcMRl</p>",,,,,,,,,,
html-keyboard-response,423,668199,0.0-18.0-0.10,614c8e5469405530dc27b9d5,650c16f0f2faf8d7a0d14c09,651c1c9ca70859f21f006926,null,null,"<p style=""font-size: 60px; font-family: BACS"">kGlUOJNk</p>",,,,,,,,,,
html-keyboard-response,424,669201,0.0-18.0-0.11,614c8e5469405530dc27b9d5,650c16f0f2faf8d7a0d14c09,651c1c9ca70859f21f006926,null,null,"<p style=""font-size: 60px; font-family: BACS"">ubALmkJdr</p>",,,,,,,,,,
html-keyboard-response,425,670217,0.0-18.0-0.12,614c8e5469405530dc27b9d5,650c16f0f2faf8d7a0d14c09,651c1c9ca70859f21f006926,null,null,"<p style=""font-size: 60px; font-family: BACS"">COTKhRKm</p>",,,,,,,,,,
html-keyboard-response,426,671226,0.0-18.0-0.13,614c8e5469405530dc27b9d5,650c16f0f2faf8d7a0d14c09,651c1c9ca70859f21f006926,null,null,"<p style=""font-size: 60px; font-family: BACS"">tRdMRDM</p>",,,,,,,,,,
html-keyboard-response,427,672231,0.0-18.0-0.14,614c8e5469405530dc27b9d5,650c16f0f2faf8d7a0d14c09,651c1c9ca70859f21f006926,null,null,"<p style=""font-size: 60px; font-family: BACS"">ubALmrab</p>",,,,,,,,,,
html-keyboard-response,428,673244,0.0-18.0-0.15,614c8e5469405530dc27b9d5,650c16f0f2faf8d7a0d14c09,651c1c9ca70859f21f006926,null,null,"<p style=""font-size: 60px; font-family: BACS"">mrOdkJdr</p>",,,,,,,,,,
html-keyboard-response,429,674257,0.0-18.0-0.16,614c8e5469405530dc27b9d5,650c16f0f2faf8d7a0d14c09,651c1c9ca70859f21f006926,null,null,"<p style=""font-size: 60px; font-family: BACS"">dNZAkmU</p>",,,,,,,,,,
html-keyboard-response,430,675264,0.0-18.0-0.17,614c8e5469405530dc27b9d5,650c16f0f2faf8d7a0d14c09,651c1c9ca70859f21f006926,null,null,"<p style=""font-size: 60px; font-family: BACS"">cROMtcMRl</p>",,,,,,,,,,
html-keyboard-response,431,676274,0.0-18.0-0.18,614c8e5469405530dc27b9d5,650c16f0f2faf8d7a0d14c09,651c1c9ca70859f21f006926,null,null,"<p style=""font-size: 60px; font-family: BACS"">YObARDM</p>",,,,,,,,,,
html-keyboard-response,432,677281,0.0-18.0-0.19,614c8e5469405530dc27b9d5,650c16f0f2faf8d7a0d14c09,651c1c9ca70859f21f006926,null,null,"<p style=""font-size: 60px; font-family: BACS"">rLkmOJNk</p>",,,,,,,,,,
html-keyboard-response,433,678282,0.0-18.0-0.20,614c8e5469405530dc27b9d5,650c16f0f2faf8d7a0d14c09,651c1c9ca70859f21f006926,null,null,"<p style=""font-size: 60px; font-family: BACS"">mdkKPEdK</p>",,,,,,,,,,
html-keyboard-response,434,679291,0.0-18.0-0.21,614c8e5469405530dc27b9d5,650c16f0f2faf8d7a0d14c09,651c1c9ca70859f21f006926,null,null,"<p style=""font-size: 60px; font-family: BACS"">mrOdrab</p>",,,,,,,,,,
html-keyboard-response,435,680300,0.0-18.0-0.22,614c8e5469405530dc27b9d5,650c16f0f2faf8d7a0d14c09,651c1c9ca70859f21f006926,null,null,"<p style=""font-size: 60px; font-family: BACS"">hmKPMRdCc</p>",,,,,,,,,,
html-keyboard-response,436,681314,0.0-18.0-0.23,614c8e5469405530dc27b9d5,650c16f0f2faf8d7a0d14c09,651c1c9ca70859f21f006926,null,null,"<p style=""font-size: 60px; font-family: BACS"">lTmOPEdK</p>",,,,,,,,,,
html-keyboard-response,437,682329,0.0-18.0-0.24,614c8e5469405530dc27b9d5,650c16f0f2faf8d7a0d14c09,651c1c9ca70859f21f006926,null,null,"<p style=""font-size: 60px; font-family: BACS"">YObAcMRl</p>",,,,,,,,,,
html-keyboard-response,438,683344,0.0-18.0-0.25,614c8e5469405530dc27b9d5,650c16f0f2faf8d7a0d14c09,651c1c9ca70859f21f006926,null,null,"<p style=""font-size: 60px; font-family: BACS"">rLkmkmU</p>",,,,,,,,,,
html-keyboard-response,439,684348,0.0-18.0-0.26,614c8e5469405530dc27b9d5,650c16f0f2faf8d7a0d14c09,651c1c9ca70859f21f006926,null,null,"<p style=""font-size: 60px; font-family: BACS"">cROMtRDM</p>",,,,,,,,,,
html-keyboard-response,440,685363,0.0-18.0-0.27,614c8e5469405530dc27b9d5,650c16f0f2faf8d7a0d14c09,651c1c9ca70859f21f006926,null,null,"<p style=""font-size: 60px; font-family: BACS"">mrOdYUYa</p>",,,,,,,,,,
html-keyboard-response,441,686379,0.0-18.0-0.28,614c8e5469405530dc27b9d5,650c16f0f2faf8d7a0d14c09,651c1c9ca70859f21f006926,null,null,"<p style=""font-size: 60px; font-family: BACS"">DmAMERdCc</p>",,,,,,,,,,
html-keyboard-response,442,687383,0.0-18.0-0.29,614c8e5469405530dc27b9d5,650c16f0f2faf8d7a0d14c09,651c1c9ca70859f21f006926,null,null,"<p style=""font-size: 60px; font-family: BACS"">bvuZkmU</p>",,,,,,,,,,
html-keyboard-response,443,688385,0.0-18.0-0.30,614c8e5469405530dc27b9d5,650c16f0f2faf8d7a0d14c09,651c1c9ca70859f21f006926,null,null,"<p style=""font-size: 60px; font-family: BACS"">mdkKRdCc</p>",,,,,,,,,,
html-keyboard-response,444,689396,0.0-18.0-0.31,614c8e5469405530dc27b9d5,650c16f0f2faf8d7a0d14c09,651c1c9ca70859f21f006926,null,null,"<p style=""font-size: 60px; font-family: BACS"">mrOdOJNk</p>",,,,,,,,,,
html-keyboard-response,445,690407,0.0-18.0-0.32,614c8e5469405530dc27b9d5,650c16f0f2faf8d7a0d14c09,651c1c9ca70859f21f006926,null,null,"<p style=""font-size: 60px; font-family: BACS"">tRdMRdCc</p>",,,,,,,,,,
html-keyboard-response,446,691419,0.0-18.0-0.33,614c8e5469405530dc27b9d5,650c16f0f2faf8d7a0d14c09,651c1c9ca70859f21f006926,null,null,"<p style=""font-size: 60px; font-family: BACS"">Ldrbvrab</p>",,,,,,,,,,
html-keyboard-response,447,692429,0.0-18.0-0.34,614c8e5469405530dc27b9d5,650c16f0f2faf8d7a0d14c09,651c1c9ca70859f21f006926,null,null,"<p style=""font-size: 60px; font-family: BACS"">OQarQkJdr</p>",,,,,,,,,,
html-keyboard-response,448,693432,0.0-18.0-0.35,614c8e5469405530dc27b9d5,650c16f0f2faf8d7a0d14c09,651c1c9ca70859f21f006926,null,null,"<p style=""font-size: 60px; font-family: BACS"">cROMthRKm</p>",,,,,,,,,,
html-keyboard-response,449,694436,0.0-18.0-0.36,614c8e5469405530dc27b9d5,650c16f0f2faf8d7a0d14c09,651c1c9ca70859f21f006926,null,null,"<p style=""font-size: 60px; font-family: BACS"">lTmORDM</p>",,,,,,,,,,
html-keyboard-response,450,695444,0.0-18.0-0.37,614c8e5469405530dc27b9d5,650c16f0f2faf8d7a0d14c09,651c1c9ca70859f21f006926,null,null,"<p style=""font-size: 60px; font-family: BACS"">EPERdhRKm</p>",,,,,,,,,,
html-keyboard-response,451,696460,0.0-18.0-0.38,614c8e5469405530dc27b9d5,650c16f0f2faf8d7a0d14c09,651c1c9ca70859f21f006926,null,null,"<p style=""font-size: 60px; font-family: BACS"">COtBDRDM</p>",,,,,,,,,,
html-keyboard-response,452,697463,0.0-18.0-0.39,614c8e5469405530dc27b9d5,650c16f0f2faf8d7a0d14c09,651c1c9ca70859f21f006926,null,null,"<p style=""font-size: 60px; font-family: BACS"">ubALmkmU</p>",,,,,,,,,,
html-keyboard-response,453,698468,0.0-18.0-0.40,614c8e5469405530dc27b9d5,650c16f0f2faf8d7a0d14c09,651c1c9ca70859f21f006926,null,null,"<p style=""font-size: 60px; font-family: BACS"">kGlUYUYa</p>",,,,,,,,,,
html-keyboard-response,454,699478,0.0-18.0-0.41,614c8e5469405530dc27b9d5,650c16f0f2faf8d7a0d14c09,651c1c9ca70859f21f006926,null,null,"<p style=""font-size: 60px; font-family: BACS"">rbYbukmU</p>",,,,,,,,,,
html-keyboard-response,455,700486,0.0-18.0-0.42,614c8e5469405530dc27b9d5,650c16f0f2faf8d7a0d14c09,651c1c9ca70859f21f006926,null,null,"<p style=""font-size: 60px; font-family: BACS"">EPERdRdCc</p>",,,,,,,,,,
html-keyboard-response,456,701489,0.0-18.0-0.43,614c8e5469405530dc27b9d5,650c16f0f2faf8d7a0d14c09,651c1c9ca70859f21f006926,null,null,"<p style=""font-size: 60px; font-family: BACS"">OQarQYUYa</p>",,,,,,,,,,
html-keyboard-response,457,702496,0.0-18.0-0.44,614c8e5469405530dc27b9d5,650c16f0f2faf8d7a0d14c09,651c1c9ca70859f21f006926,null,null,"<p style=""font-size: 60px; font-family: BACS"">dNZAOJNk</p>",,,,,,,,,,
html-keyboard-response,458,703512,0.0-18.0-0.45,614c8e5469405530dc27b9d5,650c16f0f2faf8d7a0d14c09,651c1c9ca70859f21f006926,null,null,"<p style=""font-size: 60px; font-family: BACS"">rbYbuYUYa</p>",,,,,,,,,,
html-keyboard-response,459,704527,0.0-18.0-0.46,614c8e5469405530dc27b9d5,650c16f0f2faf8d7a0d14c09,651c1c9ca70859f21f006926,null,null,"<p style=""font-size: 60px; font-family: BACS"">lTmORdCc</p>",,,,,,,,,,
html-keyboard-response,460,705536,0.0-18.0-0.47,614c8e5469405530dc27b9d5,650c16f0f2faf8d7a0d14c09,651c1c9ca70859f21f006926,null,null,"<p style=""font-size: 60px; font-family: BACS"">EPERdcMRl</p>",,,,,,,,,,
html-keyboard-response,461,706540,0.0-18.0-0.48,614c8e5469405530dc27b9d5,650c16f0f2faf8d7a0d14c09,651c1c9ca70859f21f006926,null,null,"<p style=""font-size: 60px; font-family: BACS"">tRdMhRKm</p>",,,,,,,,,,
html-keyboard-response,462,707548,0.0-18.0-0.49,614c8e5469405530dc27b9d5,650c16f0f2faf8d7a0d14c09,651c1c9ca70859f21f006926,null,null,"<p style=""font-size: 60px; font-family: BACS"">bvuZrab</p>",,,,,,,,,,
html-keyboard-response,463,708556,0.0-18.0-0.50,614c8e5469405530dc27b9d5,650c16f0f2faf8d7a0d14c09,651c1c9ca70859f21f006926,null,null,"<p style=""font-size: 60px; font-family: BACS"">COtBDhRKm</p>",,,,,,,,,,
html-keyboard-response,464,709562,0.0-18.0-0.51,614c8e5469405530dc27b9d5,650c16f0f2faf8d7a0d14c09,651c1c9ca70859f21f006926,null,null,"<p style=""font-size: 60px; font-family: BACS"">YObAPEdK</p>",,,,,,,,,,
html-keyboard-response,465,710575,0.0-18.0-0.52,614c8e5469405530dc27b9d5,650c16f0f2faf8d7a0d14c09,651c1c9ca70859f21f006926,null,null,"<p style=""font-size: 60px; font-family: BACS"">COTKRdCc</p>",,,,,,,,,,
html-keyboard-response,466,711579,0.0-18.0-0.53,614c8e5469405530dc27b9d5,650c16f0f2faf8d7a0d14c09,651c1c9ca70859f21f006926,null,null,"<p style=""font-size: 60px; font-family: BACS"">bvuZOJNk</p>",,,,,,,,,,
html-keyboard-response,467,712594,0.0-18.0-0.54,614c8e5469405530dc27b9d5,650c16f0f2faf8d7a0d14c09,651c1c9ca70859f21f006926,null,null,"<p style=""font-size: 60px; font-family: BACS"">DmAMEPEdK</p>",,,,,,,,,,
