"trial_type","trial_index","time_elapsed","internal_node_id","subject_id","study_id","session_id","rt","response","stimulus","success","item","task","correct_response","testing_condition","correct","target","confound","name"
"pavlovia","0","1007","0.0-0.0","5f09d989eff16b266fba44c0","650c16f0f2faf8d7a0d14c09","651c1d12674d4a07e87643f8","","","","","","","","","","","",""
"survey-html-form","1","4401","0.0-1.0","5f09d989eff16b266fba44c0","650c16f0f2faf8d7a0d14c09","651c1d12674d4a07e87643f8","3392","{""ID"":""5f09d989eff16b266fba44c0""}","","","","","","","","","",""
"html-keyboard-response","2","8948","0.0-2.0","5f09d989eff16b266fba44c0","650c16f0f2faf8d7a0d14c09","651c1d12674d4a07e87643f8","4545"," ","<p style=""font-size: 15px;"">Before beginning, we ask that you read the consent information and confirm your agreement to participate in the experiment.</p>
      <p style=""font-size: 15px;""> We ask that you remember that this is a research project and that your participation is entirely voluntary. You can stop your participation at any time, without needing to provide any explanation. The study we're asking you to participate in aims at examining how readers process written words. You will be engaged in a session of apprximately 20 minutes, followed by a brief questionnaire. You will have the opportunity to take a few breaks during the experiment. You will be paid £4 for your participation, corresponding to a rate of £8/hour. While this experiment looks at cognitive faculties, this experiment doesn't constitute clinical proof of eventual pathologies.</p>
      <p style=""font-size: 15px;"">All of the information collected thanks to yours and others' participation will be held in a secure password-protected server, and will not be shared with anyone not authorised to view it. Your personal information will be kept with an arbitrary participant ID. Thanks to this data anonymity process, any researcher analysing the data won't be able to track the information back to a specific participant. Therefore, this process will make identifying you impossibile, even when results from the study will be published in scientific reviews, presented at congresses, or at any other public forum. More generally, the collected data will be treated in accordance with the laws on privacy and conformity to the Legislative Degree n. 196 ""Code regarding the protection of personal data"" of the 30th of June 2003 and to the European Regulation 2016/670 (General Data Protection Regulation - GDPR). The Data Protection Officer is Avv. Valentina Carollo, who can be contacted at the following email addresses: <a href=""mailto:dpo@sissa.it"">dpo@sissa.it</a> or <a href=""mailto:rpd@sissa.it"">rpd@sissa.it</a> - PEC: <a href=""mailto:protocollo@pec.sissa.it"">protocollo@pec.sissa.it</a>.</p>
      <p style=""font-size: 15px;""> Before expressing your consent to participate, we would like to remind you again that in case you need explanations on any aspect of the experimental procedure, the researcher is at your disposition (<a href=""mailto:aliebelt@sissa.it"">aliebelt@sissa.it</a>, <a href=""mailto:davide.crepaldi@sissa.it"">davide.crepaldi@sissa.it</a>).</p>
      <p style=""font-size: 15px;"">If you would like to download the informed consent form, you can do so here: <a href=""BASL-Informed_Consent.pdf"" download>informed consent form</a>.</p>
      <p style=""font-size: 15px;"">We ask that you press the spacebar to proceed to the consent section.</p>","","","","","","","","",""
"survey-html-form","3","21108","0.0-3.0","5f09d989eff16b266fba44c0","650c16f0f2faf8d7a0d14c09","651c1d12674d4a07e87643f8","12160","{""consent1"":""YES"",""consent2"":""YES"",""consent3"":""YES"",""consent4"":""YES"",""consent5"":""YES"",""consent6"":""YES""}","","","","","","","","","",""
"fullscreen","4","30730","0.0-4.0","5f09d989eff16b266fba44c0","650c16f0f2faf8d7a0d14c09","651c1d12674d4a07e87643f8","","","","true","","","","","","","",""
"html-keyboard-response","5","148491","0.0-5.0","5f09d989eff16b266fba44c0","650c16f0f2faf8d7a0d14c09","651c1d12674d4a07e87643f8","117759"," ","<p>Welcome, and thank you very much for your time!</p>
      <p>In this experiment, you'll be a language expert who's been asked to take a look at words that Earth has received in its first communication with aliens. Your task, in this first part of the experiment, is to pay close attention to the words you'll be shown; later, world leaders will ask you questions on what you saw. The words will be shown to you quite quickly; it seems that the aliens were in a hurry :-)</p>
      <p>Press the spacebar to continue.<p>","","","","","","","","",""
"html-keyboard-response","6","148553","0.0-6.0","5f09d989eff16b266fba44c0","650c16f0f2faf8d7a0d14c09","651c1d12674d4a07e87643f8","null","null","<p style=""font-size: 120px; font-family: BACS""> </p>","","","","","","","","",""
"html-keyboard-response","7","158622","0.0-7.0","5f09d989eff16b266fba44c0","650c16f0f2faf8d7a0d14c09","651c1d12674d4a07e87643f8","10068"," ","<p>Here is an example of the words you'll see:</p>
      <img src='esempio.png' height='400px'>
      <p>When you're ready to begin, press the spacebar.</p></div>","","","","","","","","",""
"html-keyboard-response","8","159628","0.0-8.0-0.0","5f09d989eff16b266fba44c0","650c16f0f2faf8d7a0d14c09","651c1d12674d4a07e87643f8","null","null","<p style=""font-size: 60px; font-family: BACS"">ZNLOvAvdk</p>","","","","","","","","",""
"html-keyboard-response","9","160629","0.0-8.0-0.1","5f09d989eff16b266fba44c0","650c16f0f2faf8d7a0d14c09","651c1d12674d4a07e87643f8","null","null","<p style=""font-size: 60px; font-family: BACS"">tRdMEcR</p>","","","","","","","","",""
"html-keyboard-response","10","161630","0.0-8.0-0.2","5f09d989eff16b266fba44c0","650c16f0f2faf8d7a0d14c09","651c1d12674d4a07e87643f8","null","null","<p style=""font-size: 60px; font-family: BACS"">vYLUYmb</p>","","","","","","","","",""
"html-keyboard-response","11","162645","0.0-8.0-0.3","5f09d989eff16b266fba44c0","650c16f0f2faf8d7a0d14c09","651c1d12674d4a07e87643f8","null","null","<p style=""font-size: 60px; font-family: BACS"">GNAcaQru</p>","","","","","","","","",""
"html-keyboard-response","12","163648","0.0-8.0-0.4","5f09d989eff16b266fba44c0","650c16f0f2faf8d7a0d14c09","651c1d12674d4a07e87643f8","null","null","<p style=""font-size: 60px; font-family: BACS"">vYLUAvdk</p>","","","","","","","","",""
"html-keyboard-response","13","164664","0.0-8.0-0.5","5f09d989eff16b266fba44c0","650c16f0f2faf8d7a0d14c09","651c1d12674d4a07e87643f8","null","null","<p style=""font-size: 60px; font-family: BACS"">ZNLOvYmb</p>","","","","","","","","",""
"html-keyboard-response","14","165665","0.0-8.0-0.6","5f09d989eff16b266fba44c0","650c16f0f2faf8d7a0d14c09","651c1d12674d4a07e87643f8","null","null","<p style=""font-size: 60px; font-family: BACS"">PMPtkOMC</p>","","","","","","","","",""
"html-keyboard-response","15","166666","0.0-8.0-0.7","5f09d989eff16b266fba44c0","650c16f0f2faf8d7a0d14c09","651c1d12674d4a07e87643f8","null","null","<p style=""font-size: 60px; font-family: BACS"">AlTdEcR</p>","","","","","","","","",""
"html-keyboard-response","16","167669","0.0-8.0-0.8","5f09d989eff16b266fba44c0","650c16f0f2faf8d7a0d14c09","651c1d12674d4a07e87643f8","null","null","<p style=""font-size: 60px; font-family: BACS"">hChYOMC</p>","","","","","","","","",""
"html-keyboard-response","17","168671","0.0-8.0-0.9","5f09d989eff16b266fba44c0","650c16f0f2faf8d7a0d14c09","651c1d12674d4a07e87643f8","null","null","<p style=""font-size: 60px; font-family: BACS"">bGuOYUYa</p>","","","","","","","","",""
"html-keyboard-response","18","169683","0.0-8.0-0.10","5f09d989eff16b266fba44c0","650c16f0f2faf8d7a0d14c09","651c1d12674d4a07e87643f8","null","null","<p style=""font-size: 60px; font-family: BACS"">KMDYtOMC</p>","","","","","","","","",""
"html-keyboard-response","19","170685","0.0-8.0-0.11","5f09d989eff16b266fba44c0","650c16f0f2faf8d7a0d14c09","651c1d12674d4a07e87643f8","null","null","<p style=""font-size: 60px; font-family: BACS"">bGuOYaOk</p>","","","","","","","","",""
"html-keyboard-response","20","171687","0.0-8.0-0.12","5f09d989eff16b266fba44c0","650c16f0f2faf8d7a0d14c09","651c1d12674d4a07e87643f8","null","null","<p style=""font-size: 60px; font-family: BACS"">rvAJQru</p>","","","","","","","","",""
"html-keyboard-response","21","172689","0.0-8.0-0.13","5f09d989eff16b266fba44c0","650c16f0f2faf8d7a0d14c09","651c1d12674d4a07e87643f8","null","null","<p style=""font-size: 60px; font-family: BACS"">GNAcaYmb</p>","","","","","","","","",""
"html-keyboard-response","22","173703","0.0-8.0-0.14","5f09d989eff16b266fba44c0","650c16f0f2faf8d7a0d14c09","651c1d12674d4a07e87643f8","null","null","<p style=""font-size: 60px; font-family: BACS"">ZNLOvQru</p>","","","","","","","","",""
"html-keyboard-response","23","174706","0.0-8.0-0.15","5f09d989eff16b266fba44c0","650c16f0f2faf8d7a0d14c09","651c1d12674d4a07e87643f8","null","null","<p style=""font-size: 60px; font-family: BACS"">AdDbEcR</p>","","","","","","","","",""
"html-keyboard-response","24","175708","0.0-8.0-0.16","5f09d989eff16b266fba44c0","650c16f0f2faf8d7a0d14c09","651c1d12674d4a07e87643f8","null","null","<p style=""font-size: 60px; font-family: BACS"">hChYmtKP</p>","","","","","","","","",""
"html-keyboard-response","25","176723","0.0-8.0-0.17","5f09d989eff16b266fba44c0","650c16f0f2faf8d7a0d14c09","651c1d12674d4a07e87643f8","null","null","<p style=""font-size: 60px; font-family: BACS"">vmuLlAvdk</p>","","","","","","","","",""
"html-keyboard-response","26","177724","0.0-8.0-0.18","5f09d989eff16b266fba44c0","650c16f0f2faf8d7a0d14c09","651c1d12674d4a07e87643f8","null","null","<p style=""font-size: 60px; font-family: BACS"">ZNLOvYUYa</p>","","","","","","","","",""
"html-keyboard-response","27","178726","0.0-8.0-0.19","5f09d989eff16b266fba44c0","650c16f0f2faf8d7a0d14c09","651c1d12674d4a07e87643f8","null","null","<p style=""font-size: 60px; font-family: BACS"">ABPRBOMC</p>","","","","","","","","",""
"html-keyboard-response","28","179728","0.0-8.0-0.20","5f09d989eff16b266fba44c0","650c16f0f2faf8d7a0d14c09","651c1d12674d4a07e87643f8","null","null","<p style=""font-size: 60px; font-family: BACS"">vmuLlYaOk</p>","","","","","","","","",""
"html-keyboard-response","29","180744","0.0-8.0-0.21","5f09d989eff16b266fba44c0","650c16f0f2faf8d7a0d14c09","651c1d12674d4a07e87643f8","null","null","<p style=""font-size: 60px; font-family: BACS"">rvAJYUYa</p>","","","","","","","","",""
"html-keyboard-response","30","181746","0.0-8.0-0.22","5f09d989eff16b266fba44c0","650c16f0f2faf8d7a0d14c09","651c1d12674d4a07e87643f8","null","null","<p style=""font-size: 60px; font-family: BACS"">PMPtkCkbd</p>","","","","","","","","",""
"html-keyboard-response","31","182760","0.0-8.0-0.23","5f09d989eff16b266fba44c0","650c16f0f2faf8d7a0d14c09","651c1d12674d4a07e87643f8","null","null","<p style=""font-size: 60px; font-family: BACS"">mLdkZYUYa</p>","","","","","","","","",""
"html-keyboard-response","32","183763","0.0-8.0-0.24","5f09d989eff16b266fba44c0","650c16f0f2faf8d7a0d14c09","651c1d12674d4a07e87643f8","null","null","<p style=""font-size: 60px; font-family: BACS"">AlTdcMRl</p>","","","","","","","","",""
"html-keyboard-response","33","184765","0.0-8.0-0.25","5f09d989eff16b266fba44c0","650c16f0f2faf8d7a0d14c09","651c1d12674d4a07e87643f8","null","null","<p style=""font-size: 60px; font-family: BACS"">YZJmQru</p>","","","","","","","","",""
"html-keyboard-response","34","185778","0.0-8.0-0.26","5f09d989eff16b266fba44c0","650c16f0f2faf8d7a0d14c09","651c1d12674d4a07e87643f8","null","null","<p style=""font-size: 60px; font-family: BACS"">AlTdCkbd</p>","","","","","","","","",""
"html-keyboard-response","35","186782","0.0-8.0-0.27","5f09d989eff16b266fba44c0","650c16f0f2faf8d7a0d14c09","651c1d12674d4a07e87643f8","null","null","<p style=""font-size: 60px; font-family: BACS"">vmuLlYmb</p>","","","","","","","","",""
"html-keyboard-response","36","187783","0.0-8.0-0.28","5f09d989eff16b266fba44c0","650c16f0f2faf8d7a0d14c09","651c1d12674d4a07e87643f8","null","null","<p style=""font-size: 60px; font-family: BACS"">mARMOMC</p>","","","","","","","","",""
"html-keyboard-response","37","188785","0.0-8.0-0.29","5f09d989eff16b266fba44c0","650c16f0f2faf8d7a0d14c09","651c1d12674d4a07e87643f8","null","null","<p style=""font-size: 60px; font-family: BACS"">vYLUYUYa</p>","","","","","","","","",""
"html-keyboard-response","38","189799","0.0-8.0-0.30","5f09d989eff16b266fba44c0","650c16f0f2faf8d7a0d14c09","651c1d12674d4a07e87643f8","null","null","<p style=""font-size: 60px; font-family: BACS"">hChYcMRl</p>","","","","","","","","",""
"html-keyboard-response","39","190802","0.0-8.0-0.31","5f09d989eff16b266fba44c0","650c16f0f2faf8d7a0d14c09","651c1d12674d4a07e87643f8","null","null","<p style=""font-size: 60px; font-family: BACS"">KMDYtmtKP</p>","","","","","","","","",""
"html-keyboard-response","40","191804","0.0-8.0-0.32","5f09d989eff16b266fba44c0","650c16f0f2faf8d7a0d14c09","651c1d12674d4a07e87643f8","null","null","<p style=""font-size: 60px; font-family: BACS"">AdDbCkbd</p>","","","","","","","","",""
"html-keyboard-response","41","192819","0.0-8.0-0.33","5f09d989eff16b266fba44c0","650c16f0f2faf8d7a0d14c09","651c1d12674d4a07e87643f8","null","null","<p style=""font-size: 60px; font-family: BACS"">UdumdYaOk</p>","","","","","","","","",""
"html-keyboard-response","42","193820","0.0-8.0-0.34","5f09d989eff16b266fba44c0","650c16f0f2faf8d7a0d14c09","651c1d12674d4a07e87643f8","null","null","<p style=""font-size: 60px; font-family: BACS"">mARMCkbd</p>","","","","","","","","",""
"html-keyboard-response","43","194823","0.0-8.0-0.35","5f09d989eff16b266fba44c0","650c16f0f2faf8d7a0d14c09","651c1d12674d4a07e87643f8","null","null","<p style=""font-size: 60px; font-family: BACS"">tRdMcMRl</p>","","","","","","","","",""
"html-keyboard-response","44","195824","0.0-8.0-0.36","5f09d989eff16b266fba44c0","650c16f0f2faf8d7a0d14c09","651c1d12674d4a07e87643f8","null","null","<p style=""font-size: 60px; font-family: BACS"">CDEmYmtKP</p>","","","","","","","","",""
"html-keyboard-response","45","196839","0.0-8.0-0.37","5f09d989eff16b266fba44c0","650c16f0f2faf8d7a0d14c09","651c1d12674d4a07e87643f8","null","null","<p style=""font-size: 60px; font-family: BACS"">YZJmAvdk</p>","","","","","","","","",""
"html-keyboard-response","46","197841","0.0-8.0-0.38","5f09d989eff16b266fba44c0","650c16f0f2faf8d7a0d14c09","651c1d12674d4a07e87643f8","null","null","<p style=""font-size: 60px; font-family: BACS"">hYDmtcMRl</p>","","","","","","","","",""
"html-keyboard-response","47","198843","0.0-8.0-0.39","5f09d989eff16b266fba44c0","650c16f0f2faf8d7a0d14c09","651c1d12674d4a07e87643f8","null","null","<p style=""font-size: 60px; font-family: BACS"">mLdkZYmb</p>","","","","","","","","",""
"html-keyboard-response","48","199858","0.0-8.0-0.40","5f09d989eff16b266fba44c0","650c16f0f2faf8d7a0d14c09","651c1d12674d4a07e87643f8","null","null","<p style=""font-size: 60px; font-family: BACS"">hYDmtEcR</p>","","","","","","","","",""
"html-keyboard-response","49","200861","0.0-8.0-0.41","5f09d989eff16b266fba44c0","650c16f0f2faf8d7a0d14c09","651c1d12674d4a07e87643f8","null","null","<p style=""font-size: 60px; font-family: BACS"">PMPtkmtKP</p>","","","","","","","","",""
"html-keyboard-response","50","201874","0.0-8.0-0.42","5f09d989eff16b266fba44c0","650c16f0f2faf8d7a0d14c09","651c1d12674d4a07e87643f8","null","null","<p style=""font-size: 60px; font-family: BACS"">bGuOQru</p>","","","","","","","","",""
"html-keyboard-response","51","202878","0.0-8.0-0.43","5f09d989eff16b266fba44c0","650c16f0f2faf8d7a0d14c09","651c1d12674d4a07e87643f8","null","null","<p style=""font-size: 60px; font-family: BACS"">hChYCkbd</p>","","","","","","","","",""
"html-keyboard-response","52","203893","0.0-8.0-0.44","5f09d989eff16b266fba44c0","650c16f0f2faf8d7a0d14c09","651c1d12674d4a07e87643f8","null","null","<p style=""font-size: 60px; font-family: BACS"">bGuOAvdk</p>","","","","","","","","",""
"html-keyboard-response","53","204895","0.0-8.0-0.45","5f09d989eff16b266fba44c0","650c16f0f2faf8d7a0d14c09","651c1d12674d4a07e87643f8","null","null","<p style=""font-size: 60px; font-family: BACS"">mLdkZQru</p>","","","","","","","","",""
"html-keyboard-response","54","205897","0.0-8.0-0.46","5f09d989eff16b266fba44c0","650c16f0f2faf8d7a0d14c09","651c1d12674d4a07e87643f8","null","null","<p style=""font-size: 60px; font-family: BACS"">ZYcQUYmb</p>","","","","","","","","",""
"html-keyboard-response","55","206899","0.0-8.0-0.47","5f09d989eff16b266fba44c0","650c16f0f2faf8d7a0d14c09","651c1d12674d4a07e87643f8","null","null","<p style=""font-size: 60px; font-family: BACS"">ABPRBmtKP</p>","","","","","","","","",""
"html-keyboard-response","56","207912","0.0-8.0-0.48","5f09d989eff16b266fba44c0","650c16f0f2faf8d7a0d14c09","651c1d12674d4a07e87643f8","null","null","<p style=""font-size: 60px; font-family: BACS"">CDEmYOMC</p>","","","","","","","","",""
"html-keyboard-response","57","208915","0.0-8.0-0.49","5f09d989eff16b266fba44c0","650c16f0f2faf8d7a0d14c09","651c1d12674d4a07e87643f8","null","null","<p style=""font-size: 60px; font-family: BACS"">ABPRBCkbd</p>","","","","","","","","",""
"html-keyboard-response","58","209917","0.0-8.0-0.50","5f09d989eff16b266fba44c0","650c16f0f2faf8d7a0d14c09","651c1d12674d4a07e87643f8","null","null","<p style=""font-size: 60px; font-family: BACS"">AdDbmtKP</p>","","","","","","","","",""
"html-keyboard-response","59","210919","0.0-8.0-0.51","5f09d989eff16b266fba44c0","650c16f0f2faf8d7a0d14c09","651c1d12674d4a07e87643f8","null","null","<p style=""font-size: 60px; font-family: BACS"">rvAJYaOk</p>","","","","","","","","",""
"html-keyboard-response","60","211933","0.0-8.0-0.52","5f09d989eff16b266fba44c0","650c16f0f2faf8d7a0d14c09","651c1d12674d4a07e87643f8","null","null","<p style=""font-size: 60px; font-family: BACS"">mLdkZAvdk</p>","","","","","","","","",""
"html-keyboard-response","61","212935","0.0-8.0-0.53","5f09d989eff16b266fba44c0","650c16f0f2faf8d7a0d14c09","651c1d12674d4a07e87643f8","null","null","<p style=""font-size: 60px; font-family: BACS"">CDEmYcMRl</p>","","","","","","","","",""
"html-keyboard-response","62","213938","0.0-8.0-0.54","5f09d989eff16b266fba44c0","650c16f0f2faf8d7a0d14c09","651c1d12674d4a07e87643f8","null","null","<p style=""font-size: 60px; font-family: BACS"">mARMEcR</p>","","","","","","","","",""
"html-keyboard-response","63","214942","0.0-8.0-0.55","5f09d989eff16b266fba44c0","650c16f0f2faf8d7a0d14c09","651c1d12674d4a07e87643f8","null","null","<p style=""font-size: 60px; font-family: BACS"">ZYcQUYaOk</p>","","","","","","","","",""
"html-keyboard-response","64","215949","0.0-8.0-0.56","5f09d989eff16b266fba44c0","650c16f0f2faf8d7a0d14c09","651c1d12674d4a07e87643f8","null","null","<p style=""font-size: 60px; font-family: BACS"">YZJmYmb</p>","","","","","","","","",""
"html-keyboard-response","65","216953","0.0-8.0-0.57","5f09d989eff16b266fba44c0","650c16f0f2faf8d7a0d14c09","651c1d12674d4a07e87643f8","null","null","<p style=""font-size: 60px; font-family: BACS"">CDEmYEcR</p>","","","","","","","","",""
"html-keyboard-response","66","217955","0.0-8.0-0.58","5f09d989eff16b266fba44c0","650c16f0f2faf8d7a0d14c09","651c1d12674d4a07e87643f8","null","null","<p style=""font-size: 60px; font-family: BACS"">tRdMmtKP</p>","","","","","","","","",""
"html-keyboard-response","67","218957","0.0-8.0-0.59","5f09d989eff16b266fba44c0","650c16f0f2faf8d7a0d14c09","651c1d12674d4a07e87643f8","null","null","<p style=""font-size: 60px; font-family: BACS"">vmuLlYUYa</p>","","","","","","","","",""
"html-keyboard-response","68","219958","0.0-8.0-0.60","5f09d989eff16b266fba44c0","650c16f0f2faf8d7a0d14c09","651c1d12674d4a07e87643f8","null","null","<p style=""font-size: 60px; font-family: BACS"">YZJmYaOk</p>","","","","","","","","",""
"html-keyboard-response","69","220972","0.0-8.0-0.61","5f09d989eff16b266fba44c0","650c16f0f2faf8d7a0d14c09","651c1d12674d4a07e87643f8","null","null","<p style=""font-size: 60px; font-family: BACS"">ZYcQUQru</p>","","","","","","","","",""
"html-keyboard-response","70","221973","0.0-8.0-0.62","5f09d989eff16b266fba44c0","650c16f0f2faf8d7a0d14c09","651c1d12674d4a07e87643f8","null","null","<p style=""font-size: 60px; font-family: BACS"">GNAcaAvdk</p>","","","","","","","","",""
"html-keyboard-response","71","222976","0.0-8.0-0.63","5f09d989eff16b266fba44c0","650c16f0f2faf8d7a0d14c09","651c1d12674d4a07e87643f8","null","null","<p style=""font-size: 60px; font-family: BACS"">PMPtkEcR</p>","","","","","","","","",""
"html-keyboard-response","72","223978","0.0-8.0-0.64","5f09d989eff16b266fba44c0","650c16f0f2faf8d7a0d14c09","651c1d12674d4a07e87643f8","null","null","<p style=""font-size: 60px; font-family: BACS"">ABPRBcMRl</p>","","","","","","","","",""
"html-keyboard-response","73","224992","0.0-8.0-0.65","5f09d989eff16b266fba44c0","650c16f0f2faf8d7a0d14c09","651c1d12674d4a07e87643f8","null","null","<p style=""font-size: 60px; font-family: BACS"">hYDmtOMC</p>","","","","","","","","",""
"html-keyboard-response","74","225994","0.0-8.0-0.66","5f09d989eff16b266fba44c0","650c16f0f2faf8d7a0d14c09","651c1d12674d4a07e87643f8","null","null","<p style=""font-size: 60px; font-family: BACS"">UdumdYUYa</p>","","","","","","","","",""
"html-keyboard-response","75","226996","0.0-8.0-0.67","5f09d989eff16b266fba44c0","650c16f0f2faf8d7a0d14c09","651c1d12674d4a07e87643f8","null","null","<p style=""font-size: 60px; font-family: BACS"">rvAJYmb</p>","","","","","","","","",""
"html-keyboard-response","76","228011","0.0-8.0-0.68","5f09d989eff16b266fba44c0","650c16f0f2faf8d7a0d14c09","651c1d12674d4a07e87643f8","null","null","<p style=""font-size: 60px; font-family: BACS"">mARMmtKP</p>","","","","","","","","",""
"html-keyboard-response","77","229014","0.0-8.0-0.69","5f09d989eff16b266fba44c0","650c16f0f2faf8d7a0d14c09","651c1d12674d4a07e87643f8","null","null","<p style=""font-size: 60px; font-family: BACS"">KMDYtEcR</p>","","","","","","","","",""
"html-keyboard-response","78","230016","0.0-8.0-0.70","5f09d989eff16b266fba44c0","650c16f0f2faf8d7a0d14c09","651c1d12674d4a07e87643f8","null","null","<p style=""font-size: 60px; font-family: BACS"">ZYcQUYUYa</p>","","","","","","","","",""
"html-keyboard-response","79","231028","0.0-8.0-0.71","5f09d989eff16b266fba44c0","650c16f0f2faf8d7a0d14c09","651c1d12674d4a07e87643f8","null","null","<p style=""font-size: 60px; font-family: BACS"">UdumdQru</p>","","","","","","","","",""
"html-keyboard-response","80","232030","0.0-8.0-0.72","5f09d989eff16b266fba44c0","650c16f0f2faf8d7a0d14c09","651c1d12674d4a07e87643f8","null","null","<p style=""font-size: 60px; font-family: BACS"">tRdMCkbd</p>","","","","","","","","",""
"html-keyboard-response","81","233032","0.0-8.0-0.73","5f09d989eff16b266fba44c0","650c16f0f2faf8d7a0d14c09","651c1d12674d4a07e87643f8","null","null","<p style=""font-size: 60px; font-family: BACS"">GNAcaYaOk</p>","","","","","","","","",""
"html-keyboard-response","82","234033","0.0-8.0-0.74","5f09d989eff16b266fba44c0","650c16f0f2faf8d7a0d14c09","651c1d12674d4a07e87643f8","null","null","<p style=""font-size: 60px; font-family: BACS"">AlTdOMC</p>","","","","","","","","",""
"html-keyboard-response","83","235035","0.0-8.0-0.75","5f09d989eff16b266fba44c0","650c16f0f2faf8d7a0d14c09","651c1d12674d4a07e87643f8","null","null","<p style=""font-size: 60px; font-family: BACS"">KMDYtcMRl</p>","","","","","","","","",""
"html-keyboard-response","84","236050","0.0-8.0-0.76","5f09d989eff16b266fba44c0","650c16f0f2faf8d7a0d14c09","651c1d12674d4a07e87643f8","null","null","<p style=""font-size: 60px; font-family: BACS"">vYLUYaOk</p>","","","","","","","","",""
"html-keyboard-response","85","237052","0.0-8.0-0.77","5f09d989eff16b266fba44c0","650c16f0f2faf8d7a0d14c09","651c1d12674d4a07e87643f8","null","null","<p style=""font-size: 60px; font-family: BACS"">AdDbcMRl</p>","","","","","","","","",""
"html-keyboard-response","86","238054","0.0-8.0-0.78","5f09d989eff16b266fba44c0","650c16f0f2faf8d7a0d14c09","651c1d12674d4a07e87643f8","null","null","<p style=""font-size: 60px; font-family: BACS"">UdumdAvdk</p>","","","","","","","","",""
"html-keyboard-response","87","239067","0.0-8.0-0.79","5f09d989eff16b266fba44c0","650c16f0f2faf8d7a0d14c09","651c1d12674d4a07e87643f8","null","null","<p style=""font-size: 60px; font-family: BACS"">hYDmtCkbd</p>","","","","","","","","",""
"html-keyboard-response","88","295158","0.0-9.0","5f09d989eff16b266fba44c0","650c16f0f2faf8d7a0d14c09","651c1d12674d4a07e87643f8","56087"," ","<p>Great, you've seen the first block of words. You may now take a short break.</p>
      <p>Press the spacebar when you're ready to continue.</p>","","","","","","","","",""
"html-keyboard-response","89","296162","0.0-10.0-0.0","5f09d989eff16b266fba44c0","650c16f0f2faf8d7a0d14c09","651c1d12674d4a07e87643f8","null","null","<p style=""font-size: 60px; font-family: BACS"">UdumdQru</p>","","","","","","","","",""
"html-keyboard-response","90","297165","0.0-10.0-0.1","5f09d989eff16b266fba44c0","650c16f0f2faf8d7a0d14c09","651c1d12674d4a07e87643f8","null","null","<p style=""font-size: 60px; font-family: BACS"">PMPtkOMC</p>","","","","","","","","",""
"html-keyboard-response","91","298166","0.0-10.0-0.2","5f09d989eff16b266fba44c0","650c16f0f2faf8d7a0d14c09","651c1d12674d4a07e87643f8","null","null","<p style=""font-size: 60px; font-family: BACS"">CDEmYEcR</p>","","","","","","","","",""
"html-keyboard-response","92","299182","0.0-10.0-0.3","5f09d989eff16b266fba44c0","650c16f0f2faf8d7a0d14c09","651c1d12674d4a07e87643f8","null","null","<p style=""font-size: 60px; font-family: BACS"">PMPtkmtKP</p>","","","","","","","","",""
"html-keyboard-response","93","300183","0.0-10.0-0.4","5f09d989eff16b266fba44c0","650c16f0f2faf8d7a0d14c09","651c1d12674d4a07e87643f8","null","null","<p style=""font-size: 60px; font-family: BACS"">ZNLOvYmb</p>","","","","","","","","",""
"html-keyboard-response","94","301185","0.0-10.0-0.5","5f09d989eff16b266fba44c0","650c16f0f2faf8d7a0d14c09","651c1d12674d4a07e87643f8","null","null","<p style=""font-size: 60px; font-family: BACS"">mARMOMC</p>","","","","","","","","",""
"html-keyboard-response","95","302201","0.0-10.0-0.6","5f09d989eff16b266fba44c0","650c16f0f2faf8d7a0d14c09","651c1d12674d4a07e87643f8","null","null","<p style=""font-size: 60px; font-family: BACS"">hYDmtcMRl</p>","","","","","","","","",""
"html-keyboard-response","96","303204","0.0-10.0-0.7","5f09d989eff16b266fba44c0","650c16f0f2faf8d7a0d14c09","651c1d12674d4a07e87643f8","null","null","<p style=""font-size: 60px; font-family: BACS"">KMDYtOMC</p>","","","","","","","","",""
"html-keyboard-response","97","304219","0.0-10.0-0.8","5f09d989eff16b266fba44c0","650c16f0f2faf8d7a0d14c09","651c1d12674d4a07e87643f8","null","null","<p style=""font-size: 60px; font-family: BACS"">ABPRBcMRl</p>","","","","","","","","",""
"html-keyboard-response","98","305221","0.0-10.0-0.9","5f09d989eff16b266fba44c0","650c16f0f2faf8d7a0d14c09","651c1d12674d4a07e87643f8","null","null","<p style=""font-size: 60px; font-family: BACS"">tRdMEcR</p>","","","","","","","","",""
"html-keyboard-response","99","306223","0.0-10.0-0.10","5f09d989eff16b266fba44c0","650c16f0f2faf8d7a0d14c09","651c1d12674d4a07e87643f8","null","null","<p style=""font-size: 60px; font-family: BACS"">vYLUYaOk</p>","","","","","","","","",""
"html-keyboard-response","100","307237","0.0-10.0-0.11","5f09d989eff16b266fba44c0","650c16f0f2faf8d7a0d14c09","651c1d12674d4a07e87643f8","null","null","<p style=""font-size: 60px; font-family: BACS"">CDEmYOMC</p>","","","","","","","","",""
"html-keyboard-response","101","308238","0.0-10.0-0.12","5f09d989eff16b266fba44c0","650c16f0f2faf8d7a0d14c09","651c1d12674d4a07e87643f8","null","null","<p style=""font-size: 60px; font-family: BACS"">mARMmtKP</p>","","","","","","","","",""
"html-keyboard-response","102","309239","0.0-10.0-0.13","5f09d989eff16b266fba44c0","650c16f0f2faf8d7a0d14c09","651c1d12674d4a07e87643f8","null","null","<p style=""font-size: 60px; font-family: BACS"">YZJmQru</p>","","","","","","","","",""
"html-keyboard-response","103","310241","0.0-10.0-0.14","5f09d989eff16b266fba44c0","650c16f0f2faf8d7a0d14c09","651c1d12674d4a07e87643f8","null","null","<p style=""font-size: 60px; font-family: BACS"">AdDbcMRl</p>","","","","","","","","",""
"html-keyboard-response","104","311243","0.0-10.0-0.15","5f09d989eff16b266fba44c0","650c16f0f2faf8d7a0d14c09","651c1d12674d4a07e87643f8","null","null","<p style=""font-size: 60px; font-family: BACS"">rvAJYUYa</p>","","","","","","","","",""
"html-keyboard-response","105","312244","0.0-10.0-0.16","5f09d989eff16b266fba44c0","650c16f0f2faf8d7a0d14c09","651c1d12674d4a07e87643f8","null","null","<p style=""font-size: 60px; font-family: BACS"">GNAcaQru</p>","","","","","","","","",""
"html-keyboard-response","106","313259","0.0-10.0-0.17","5f09d989eff16b266fba44c0","650c16f0f2faf8d7a0d14c09","651c1d12674d4a07e87643f8","null","null","<p style=""font-size: 60px; font-family: BACS"">tRdMcMRl</p>","","","","","","","","",""
"html-keyboard-response","107","314261","0.0-10.0-0.18","5f09d989eff16b266fba44c0","650c16f0f2faf8d7a0d14c09","651c1d12674d4a07e87643f8","null","null","<p style=""font-size: 60px; font-family: BACS"">mLdkZYmb</p>","","","","","","","","",""
"html-keyboard-response","108","315263","0.0-10.0-0.19","5f09d989eff16b266fba44c0","650c16f0f2faf8d7a0d14c09","651c1d12674d4a07e87643f8","null","null","<p style=""font-size: 60px; font-family: BACS"">UdumdYUYa</p>","","","","","","","","",""
"html-keyboard-response","109","316278","0.0-10.0-0.20","5f09d989eff16b266fba44c0","650c16f0f2faf8d7a0d14c09","651c1d12674d4a07e87643f8","null","null","<p style=""font-size: 60px; font-family: BACS"">YZJmAvdk</p>","","","","","","","","",""
"html-keyboard-response","110","317278","0.0-10.0-0.21","5f09d989eff16b266fba44c0","650c16f0f2faf8d7a0d14c09","651c1d12674d4a07e87643f8","null","null","<p style=""font-size: 60px; font-family: BACS"">KMDYtcMRl</p>","","","","","","","","",""
"html-keyboard-response","111","318279","0.0-10.0-0.22","5f09d989eff16b266fba44c0","650c16f0f2faf8d7a0d14c09","651c1d12674d4a07e87643f8","null","null","<p style=""font-size: 60px; font-family: BACS"">PMPtkCkbd</p>","","","","","","","","",""
"html-keyboard-response","112","319281","0.0-10.0-0.23","5f09d989eff16b266fba44c0","650c16f0f2faf8d7a0d14c09","651c1d12674d4a07e87643f8","null","null","<p style=""font-size: 60px; font-family: BACS"">ZNLOvQru</p>","","","","","","","","",""
"html-keyboard-response","113","320283","0.0-10.0-0.24","5f09d989eff16b266fba44c0","650c16f0f2faf8d7a0d14c09","651c1d12674d4a07e87643f8","null","null","<p style=""font-size: 60px; font-family: BACS"">vmuLlYaOk</p>","","","","","","","","",""
"html-keyboard-response","114","321298","0.0-10.0-0.25","5f09d989eff16b266fba44c0","650c16f0f2faf8d7a0d14c09","651c1d12674d4a07e87643f8","null","null","<p style=""font-size: 60px; font-family: BACS"">mARMEcR</p>","","","","","","","","",""
"html-keyboard-response","115","322300","0.0-10.0-0.26","5f09d989eff16b266fba44c0","650c16f0f2faf8d7a0d14c09","651c1d12674d4a07e87643f8","null","null","<p style=""font-size: 60px; font-family: BACS"">vYLUYUYa</p>","","","","","","","","",""
"html-keyboard-response","116","323302","0.0-10.0-0.27","5f09d989eff16b266fba44c0","650c16f0f2faf8d7a0d14c09","651c1d12674d4a07e87643f8","null","null","<p style=""font-size: 60px; font-family: BACS"">mLdkZQru</p>","","","","","","","","",""
"html-keyboard-response","117","324318","0.0-10.0-0.28","5f09d989eff16b266fba44c0","650c16f0f2faf8d7a0d14c09","651c1d12674d4a07e87643f8","null","null","<p style=""font-size: 60px; font-family: BACS"">tRdMCkbd</p>","","","","","","","","",""
"html-keyboard-response","118","325320","0.0-10.0-0.29","5f09d989eff16b266fba44c0","650c16f0f2faf8d7a0d14c09","651c1d12674d4a07e87643f8","null","null","<p style=""font-size: 60px; font-family: BACS"">GNAcaAvdk</p>","","","","","","","","",""
"html-keyboard-response","119","326334","0.0-10.0-0.30","5f09d989eff16b266fba44c0","650c16f0f2faf8d7a0d14c09","651c1d12674d4a07e87643f8","null","null","<p style=""font-size: 60px; font-family: BACS"">ABPRBmtKP</p>","","","","","","","","",""
"html-keyboard-response","120","327337","0.0-10.0-0.31","5f09d989eff16b266fba44c0","650c16f0f2faf8d7a0d14c09","651c1d12674d4a07e87643f8","null","null","<p style=""font-size: 60px; font-family: BACS"">ZYcQUQru</p>","","","","","","","","",""
"html-keyboard-response","121","328339","0.0-10.0-0.32","5f09d989eff16b266fba44c0","650c16f0f2faf8d7a0d14c09","651c1d12674d4a07e87643f8","null","null","<p style=""font-size: 60px; font-family: BACS"">YZJmYmb</p>","","","","","","","","",""
"html-keyboard-response","122","329340","0.0-10.0-0.33","5f09d989eff16b266fba44c0","650c16f0f2faf8d7a0d14c09","651c1d12674d4a07e87643f8","null","null","<p style=""font-size: 60px; font-family: BACS"">AlTdcMRl</p>","","","","","","","","",""
"html-keyboard-response","123","330356","0.0-10.0-0.34","5f09d989eff16b266fba44c0","650c16f0f2faf8d7a0d14c09","651c1d12674d4a07e87643f8","null","null","<p style=""font-size: 60px; font-family: BACS"">mLdkZAvdk</p>","","","","","","","","",""
"html-keyboard-response","124","331357","0.0-10.0-0.35","5f09d989eff16b266fba44c0","650c16f0f2faf8d7a0d14c09","651c1d12674d4a07e87643f8","null","null","<p style=""font-size: 60px; font-family: BACS"">bGuOQru</p>","","","","","","","","",""
"html-keyboard-response","125","332359","0.0-10.0-0.36","5f09d989eff16b266fba44c0","650c16f0f2faf8d7a0d14c09","651c1d12674d4a07e87643f8","null","null","<p style=""font-size: 60px; font-family: BACS"">AlTdCkbd</p>","","","","","","","","",""
"html-keyboard-response","126","333365","0.0-10.0-0.37","5f09d989eff16b266fba44c0","650c16f0f2faf8d7a0d14c09","651c1d12674d4a07e87643f8","null","null","<p style=""font-size: 60px; font-family: BACS"">CDEmYcMRl</p>","","","","","","","","",""
"html-keyboard-response","127","334373","0.0-10.0-0.38","5f09d989eff16b266fba44c0","650c16f0f2faf8d7a0d14c09","651c1d12674d4a07e87643f8","null","null","<p style=""font-size: 60px; font-family: BACS"">PMPtkEcR</p>","","","","","","","","",""
"html-keyboard-response","128","335374","0.0-10.0-0.39","5f09d989eff16b266fba44c0","650c16f0f2faf8d7a0d14c09","651c1d12674d4a07e87643f8","null","null","<p style=""font-size: 60px; font-family: BACS"">tRdMmtKP</p>","","","","","","","","",""
"html-keyboard-response","129","336376","0.0-10.0-0.40","5f09d989eff16b266fba44c0","650c16f0f2faf8d7a0d14c09","651c1d12674d4a07e87643f8","null","null","<p style=""font-size: 60px; font-family: BACS"">vmuLlAvdk</p>","","","","","","","","",""
"html-keyboard-response","130","337378","0.0-10.0-0.41","5f09d989eff16b266fba44c0","650c16f0f2faf8d7a0d14c09","651c1d12674d4a07e87643f8","null","null","<p style=""font-size: 60px; font-family: BACS"">hYDmtOMC</p>","","","","","","","","",""
"html-keyboard-response","131","338380","0.0-10.0-0.42","5f09d989eff16b266fba44c0","650c16f0f2faf8d7a0d14c09","651c1d12674d4a07e87643f8","null","null","<p style=""font-size: 60px; font-family: BACS"">vmuLlYUYa</p>","","","","","","","","",""
"html-keyboard-response","132","339381","0.0-10.0-0.43","5f09d989eff16b266fba44c0","650c16f0f2faf8d7a0d14c09","651c1d12674d4a07e87643f8","null","null","<p style=""font-size: 60px; font-family: BACS"">ZYcQUYaOk</p>","","","","","","","","",""
"html-keyboard-response","133","340395","0.0-10.0-0.44","5f09d989eff16b266fba44c0","650c16f0f2faf8d7a0d14c09","651c1d12674d4a07e87643f8","null","null","<p style=""font-size: 60px; font-family: BACS"">hYDmtCkbd</p>","","","","","","","","",""
"html-keyboard-response","134","341397","0.0-10.0-0.45","5f09d989eff16b266fba44c0","650c16f0f2faf8d7a0d14c09","651c1d12674d4a07e87643f8","null","null","<p style=""font-size: 60px; font-family: BACS"">UdumdAvdk</p>","","","","","","","","",""
"html-keyboard-response","135","342400","0.0-10.0-0.46","5f09d989eff16b266fba44c0","650c16f0f2faf8d7a0d14c09","651c1d12674d4a07e87643f8","null","null","<p style=""font-size: 60px; font-family: BACS"">AlTdEcR</p>","","","","","","","","",""
"html-keyboard-response","136","343415","0.0-10.0-0.47","5f09d989eff16b266fba44c0","650c16f0f2faf8d7a0d14c09","651c1d12674d4a07e87643f8","null","null","<p style=""font-size: 60px; font-family: BACS"">AdDbCkbd</p>","","","","","","","","",""
"html-keyboard-response","137","344417","0.0-10.0-0.48","5f09d989eff16b266fba44c0","650c16f0f2faf8d7a0d14c09","651c1d12674d4a07e87643f8","null","null","<p style=""font-size: 60px; font-family: BACS"">ZNLOvYUYa</p>","","","","","","","","",""
"html-keyboard-response","138","345419","0.0-10.0-0.49","5f09d989eff16b266fba44c0","650c16f0f2faf8d7a0d14c09","651c1d12674d4a07e87643f8","null","null","<p style=""font-size: 60px; font-family: BACS"">vmuLlYmb</p>","","","","","","","","",""
"html-keyboard-response","139","346434","0.0-10.0-0.50","5f09d989eff16b266fba44c0","650c16f0f2faf8d7a0d14c09","651c1d12674d4a07e87643f8","null","null","<p style=""font-size: 60px; font-family: BACS"">mARMCkbd</p>","","","","","","","","",""
"html-keyboard-response","140","347437","0.0-10.0-0.51","5f09d989eff16b266fba44c0","650c16f0f2faf8d7a0d14c09","651c1d12674d4a07e87643f8","null","null","<p style=""font-size: 60px; font-family: BACS"">AdDbEcR</p>","","","","","","","","",""
"html-keyboard-response","141","348452","0.0-10.0-0.52","5f09d989eff16b266fba44c0","650c16f0f2faf8d7a0d14c09","651c1d12674d4a07e87643f8","null","null","<p style=""font-size: 60px; font-family: BACS"">hChYCkbd</p>","","","","","","","","",""
"html-keyboard-response","142","349455","0.0-10.0-0.53","5f09d989eff16b266fba44c0","650c16f0f2faf8d7a0d14c09","651c1d12674d4a07e87643f8","null","null","<p style=""font-size: 60px; font-family: BACS"">hYDmtEcR</p>","","","","","","","","",""
"html-keyboard-response","143","350471","0.0-10.0-0.54","5f09d989eff16b266fba44c0","650c16f0f2faf8d7a0d14c09","651c1d12674d4a07e87643f8","null","null","<p style=""font-size: 60px; font-family: BACS"">hChYOMC</p>","","","","","","","","",""
"html-keyboard-response","144","351474","0.0-10.0-0.55","5f09d989eff16b266fba44c0","650c16f0f2faf8d7a0d14c09","651c1d12674d4a07e87643f8","null","null","<p style=""font-size: 60px; font-family: BACS"">ABPRBCkbd</p>","","","","","","","","",""
"html-keyboard-response","145","352488","0.0-10.0-0.56","5f09d989eff16b266fba44c0","650c16f0f2faf8d7a0d14c09","651c1d12674d4a07e87643f8","null","null","<p style=""font-size: 60px; font-family: BACS"">CDEmYmtKP</p>","","","","","","","","",""
"html-keyboard-response","146","353490","0.0-10.0-0.57","5f09d989eff16b266fba44c0","650c16f0f2faf8d7a0d14c09","651c1d12674d4a07e87643f8","null","null","<p style=""font-size: 60px; font-family: BACS"">hChYcMRl</p>","","","","","","","","",""
"html-keyboard-response","147","354493","0.0-10.0-0.58","5f09d989eff16b266fba44c0","650c16f0f2faf8d7a0d14c09","651c1d12674d4a07e87643f8","null","null","<p style=""font-size: 60px; font-family: BACS"">KMDYtEcR</p>","","","","","","","","",""
"html-keyboard-response","148","355507","0.0-10.0-0.59","5f09d989eff16b266fba44c0","650c16f0f2faf8d7a0d14c09","651c1d12674d4a07e87643f8","null","null","<p style=""font-size: 60px; font-family: BACS"">hChYmtKP</p>","","","","","","","","",""
"html-keyboard-response","149","356511","0.0-10.0-0.60","5f09d989eff16b266fba44c0","650c16f0f2faf8d7a0d14c09","651c1d12674d4a07e87643f8","null","null","<p style=""font-size: 60px; font-family: BACS"">ZYcQUYmb</p>","","","","","","","","",""
"html-keyboard-response","150","357513","0.0-10.0-0.61","5f09d989eff16b266fba44c0","650c16f0f2faf8d7a0d14c09","651c1d12674d4a07e87643f8","null","null","<p style=""font-size: 60px; font-family: BACS"">UdumdYaOk</p>","","","","","","","","",""
"html-keyboard-response","151","358522","0.0-10.0-0.62","5f09d989eff16b266fba44c0","650c16f0f2faf8d7a0d14c09","651c1d12674d4a07e87643f8","null","null","<p style=""font-size: 60px; font-family: BACS"">ABPRBOMC</p>","","","","","","","","",""
"html-keyboard-response","152","359528","0.0-10.0-0.63","5f09d989eff16b266fba44c0","650c16f0f2faf8d7a0d14c09","651c1d12674d4a07e87643f8","null","null","<p style=""font-size: 60px; font-family: BACS"">rvAJYaOk</p>","","","","","","","","",""
"html-keyboard-response","153","360531","0.0-10.0-0.64","5f09d989eff16b266fba44c0","650c16f0f2faf8d7a0d14c09","651c1d12674d4a07e87643f8","null","null","<p style=""font-size: 60px; font-family: BACS"">AlTdOMC</p>","","","","","","","","",""
"html-keyboard-response","154","361546","0.0-10.0-0.65","5f09d989eff16b266fba44c0","650c16f0f2faf8d7a0d14c09","651c1d12674d4a07e87643f8","null","null","<p style=""font-size: 60px; font-family: BACS"">GNAcaYaOk</p>","","","","","","","","",""
"html-keyboard-response","155","362548","0.0-10.0-0.66","5f09d989eff16b266fba44c0","650c16f0f2faf8d7a0d14c09","651c1d12674d4a07e87643f8","null","null","<p style=""font-size: 60px; font-family: BACS"">KMDYtmtKP</p>","","","","","","","","",""
"html-keyboard-response","156","363551","0.0-10.0-0.67","5f09d989eff16b266fba44c0","650c16f0f2faf8d7a0d14c09","651c1d12674d4a07e87643f8","null","null","<p style=""font-size: 60px; font-family: BACS"">bGuOYUYa</p>","","","","","","","","",""
"html-keyboard-response","157","364554","0.0-10.0-0.68","5f09d989eff16b266fba44c0","650c16f0f2faf8d7a0d14c09","651c1d12674d4a07e87643f8","null","null","<p style=""font-size: 60px; font-family: BACS"">GNAcaYmb</p>","","","","","","","","",""
"html-keyboard-response","158","365566","0.0-10.0-0.69","5f09d989eff16b266fba44c0","650c16f0f2faf8d7a0d14c09","651c1d12674d4a07e87643f8","null","null","<p style=""font-size: 60px; font-family: BACS"">rvAJQru</p>","","","","","","","","",""
"html-keyboard-response","159","366569","0.0-10.0-0.70","5f09d989eff16b266fba44c0","650c16f0f2faf8d7a0d14c09","651c1d12674d4a07e87643f8","null","null","<p style=""font-size: 60px; font-family: BACS"">mLdkZYUYa</p>","","","","","","","","",""
"html-keyboard-response","160","367580","0.0-10.0-0.71","5f09d989eff16b266fba44c0","650c16f0f2faf8d7a0d14c09","651c1d12674d4a07e87643f8","null","null","<p style=""font-size: 60px; font-family: BACS"">ZNLOvAvdk</p>","","","","","","","","",""
"html-keyboard-response","161","368584","0.0-10.0-0.72","5f09d989eff16b266fba44c0","650c16f0f2faf8d7a0d14c09","651c1d12674d4a07e87643f8","null","null","<p style=""font-size: 60px; font-family: BACS"">vYLUYmb</p>","","","","","","","","",""
"html-keyboard-response","162","369586","0.0-10.0-0.73","5f09d989eff16b266fba44c0","650c16f0f2faf8d7a0d14c09","651c1d12674d4a07e87643f8","null","null","<p style=""font-size: 60px; font-family: BACS"">YZJmYaOk</p>","","","","","","","","",""
"html-keyboard-response","163","370588","0.0-10.0-0.74","5f09d989eff16b266fba44c0","650c16f0f2faf8d7a0d14c09","651c1d12674d4a07e87643f8","null","null","<p style=""font-size: 60px; font-family: BACS"">rvAJYmb</p>","","","","","","","","",""
"html-keyboard-response","164","371604","0.0-10.0-0.75","5f09d989eff16b266fba44c0","650c16f0f2faf8d7a0d14c09","651c1d12674d4a07e87643f8","null","null","<p style=""font-size: 60px; font-family: BACS"">bGuOYaOk</p>","","","","","","","","",""
"html-keyboard-response","165","372606","0.0-10.0-0.76","5f09d989eff16b266fba44c0","650c16f0f2faf8d7a0d14c09","651c1d12674d4a07e87643f8","null","null","<p style=""font-size: 60px; font-family: BACS"">vYLUAvdk</p>","","","","","","","","",""
"html-keyboard-response","166","373622","0.0-10.0-0.77","5f09d989eff16b266fba44c0","650c16f0f2faf8d7a0d14c09","651c1d12674d4a07e87643f8","null","null","<p style=""font-size: 60px; font-family: BACS"">AdDbmtKP</p>","","","","","","","","",""
"html-keyboard-response","167","374625","0.0-10.0-0.78","5f09d989eff16b266fba44c0","650c16f0f2faf8d7a0d14c09","651c1d12674d4a07e87643f8","null","null","<p style=""font-size: 60px; font-family: BACS"">ZYcQUYUYa</p>","","","","","","","","",""
"html-keyboard-response","168","375640","0.0-10.0-0.79","5f09d989eff16b266fba44c0","650c16f0f2faf8d7a0d14c09","651c1d12674d4a07e87643f8","null","null","<p style=""font-size: 60px; font-family: BACS"">bGuOAvdk</p>","","","","","","","","",""
"html-keyboard-response","169","380870","0.0-11.0","5f09d989eff16b266fba44c0","650c16f0f2faf8d7a0d14c09","651c1d12674d4a07e87643f8","5229"," ","<p>Great, you've seen the second block of words. You may now take a short break.</p>
      <p>Press the spacebar when you're ready to continue.</p>","","","","","","","","",""
"html-keyboard-response","170","381878","0.0-12.0-0.0","5f09d989eff16b266fba44c0","650c16f0f2faf8d7a0d14c09","651c1d12674d4a07e87643f8","null","null","<p style=""font-size: 60px; font-family: BACS"">KMDYtEcR</p>","","","","","","","","",""
"html-keyboard-response","171","382880","0.0-12.0-0.1","5f09d989eff16b266fba44c0","650c16f0f2faf8d7a0d14c09","651c1d12674d4a07e87643f8","null","null","<p style=""font-size: 60px; font-family: BACS"">mARMOMC</p>","","","","","","","","",""
"html-keyboard-response","172","383881","0.0-12.0-0.2","5f09d989eff16b266fba44c0","650c16f0f2faf8d7a0d14c09","651c1d12674d4a07e87643f8","null","null","<p style=""font-size: 60px; font-family: BACS"">KMDYtmtKP</p>","","","","","","","","",""
"html-keyboard-response","173","384882","0.0-12.0-0.3","5f09d989eff16b266fba44c0","650c16f0f2faf8d7a0d14c09","651c1d12674d4a07e87643f8","null","null","<p style=""font-size: 60px; font-family: BACS"">vmuLlYaOk</p>","","","","","","","","",""
"html-keyboard-response","174","385894","0.0-12.0-0.4","5f09d989eff16b266fba44c0","650c16f0f2faf8d7a0d14c09","651c1d12674d4a07e87643f8","null","null","<p style=""font-size: 60px; font-family: BACS"">YZJmQru</p>","","","","","","","","",""
"html-keyboard-response","175","386899","0.0-12.0-0.5","5f09d989eff16b266fba44c0","650c16f0f2faf8d7a0d14c09","651c1d12674d4a07e87643f8","null","null","<p style=""font-size: 60px; font-family: BACS"">GNAcaYmb</p>","","","","","","","","",""
"html-keyboard-response","176","387901","0.0-12.0-0.6","5f09d989eff16b266fba44c0","650c16f0f2faf8d7a0d14c09","651c1d12674d4a07e87643f8","null","null","<p style=""font-size: 60px; font-family: BACS"">bGuOAvdk</p>","","","","","","","","",""
"html-keyboard-response","177","388916","0.0-12.0-0.7","5f09d989eff16b266fba44c0","650c16f0f2faf8d7a0d14c09","651c1d12674d4a07e87643f8","null","null","<p style=""font-size: 60px; font-family: BACS"">KMDYtOMC</p>","","","","","","","","",""
"html-keyboard-response","178","389919","0.0-12.0-0.8","5f09d989eff16b266fba44c0","650c16f0f2faf8d7a0d14c09","651c1d12674d4a07e87643f8","null","null","<p style=""font-size: 60px; font-family: BACS"">ABPRBmtKP</p>","","","","","","","","",""
"html-keyboard-response","179","390935","0.0-12.0-0.9","5f09d989eff16b266fba44c0","650c16f0f2faf8d7a0d14c09","651c1d12674d4a07e87643f8","null","null","<p style=""font-size: 60px; font-family: BACS"">rvAJQru</p>","","","","","","","","",""
"html-keyboard-response","180","391938","0.0-12.0-0.10","5f09d989eff16b266fba44c0","650c16f0f2faf8d7a0d14c09","651c1d12674d4a07e87643f8","null","null","<p style=""font-size: 60px; font-family: BACS"">vYLUYUYa</p>","","","","","","","","",""
"html-keyboard-response","181","392939","0.0-12.0-0.11","5f09d989eff16b266fba44c0","650c16f0f2faf8d7a0d14c09","651c1d12674d4a07e87643f8","null","null","<p style=""font-size: 60px; font-family: BACS"">bGuOQru</p>","","","","","","","","",""
"html-keyboard-response","182","393953","0.0-12.0-0.12","5f09d989eff16b266fba44c0","650c16f0f2faf8d7a0d14c09","651c1d12674d4a07e87643f8","null","null","<p style=""font-size: 60px; font-family: BACS"">KMDYtcMRl</p>","","","","","","","","",""
"html-keyboard-response","183","394956","0.0-12.0-0.13","5f09d989eff16b266fba44c0","650c16f0f2faf8d7a0d14c09","651c1d12674d4a07e87643f8","null","null","<p style=""font-size: 60px; font-family: BACS"">GNAcaYaOk</p>","","","","","","","","",""
"html-keyboard-response","184","395972","0.0-12.0-0.14","5f09d989eff16b266fba44c0","650c16f0f2faf8d7a0d14c09","651c1d12674d4a07e87643f8","null","null","<p style=""font-size: 60px; font-family: BACS"">AlTdEcR</p>","","","","","","","","",""
"html-keyboard-response","185","396975","0.0-12.0-0.15","5f09d989eff16b266fba44c0","650c16f0f2faf8d7a0d14c09","651c1d12674d4a07e87643f8","null","null","<p style=""font-size: 60px; font-family: BACS"">hYDmtCkbd</p>","","","","","","","","",""
"html-keyboard-response","186","397990","0.0-12.0-0.16","5f09d989eff16b266fba44c0","650c16f0f2faf8d7a0d14c09","651c1d12674d4a07e87643f8","null","null","<p style=""font-size: 60px; font-family: BACS"">vmuLlYmb</p>","","","","","","","","",""
"html-keyboard-response","187","398992","0.0-12.0-0.17","5f09d989eff16b266fba44c0","650c16f0f2faf8d7a0d14c09","651c1d12674d4a07e87643f8","null","null","<p style=""font-size: 60px; font-family: BACS"">ZNLOvQru</p>","","","","","","","","",""
"html-keyboard-response","188","399993","0.0-12.0-0.18","5f09d989eff16b266fba44c0","650c16f0f2faf8d7a0d14c09","651c1d12674d4a07e87643f8","null","null","<p style=""font-size: 60px; font-family: BACS"">CDEmYEcR</p>","","","","","","","","",""
"html-keyboard-response","189","400994","0.0-12.0-0.19","5f09d989eff16b266fba44c0","650c16f0f2faf8d7a0d14c09","651c1d12674d4a07e87643f8","null","null","<p style=""font-size: 60px; font-family: BACS"">ZYcQUYaOk</p>","","","","","","","","",""
"html-keyboard-response","190","402010","0.0-12.0-0.20","5f09d989eff16b266fba44c0","650c16f0f2faf8d7a0d14c09","651c1d12674d4a07e87643f8","null","null","<p style=""font-size: 60px; font-family: BACS"">hChYmtKP</p>","","","","","","","","",""
"html-keyboard-response","191","403012","0.0-12.0-0.21","5f09d989eff16b266fba44c0","650c16f0f2faf8d7a0d14c09","651c1d12674d4a07e87643f8","null","null","<p style=""font-size: 60px; font-family: BACS"">mLdkZAvdk</p>","","","","","","","","",""
"html-keyboard-response","192","404024","0.0-12.0-0.22","5f09d989eff16b266fba44c0","650c16f0f2faf8d7a0d14c09","651c1d12674d4a07e87643f8","null","null","<p style=""font-size: 60px; font-family: BACS"">UdumdYUYa</p>","","","","","","","","",""
"html-keyboard-response","193","405027","0.0-12.0-0.23","5f09d989eff16b266fba44c0","650c16f0f2faf8d7a0d14c09","651c1d12674d4a07e87643f8","null","null","<p style=""font-size: 60px; font-family: BACS"">AdDbmtKP</p>","","","","","","","","",""
"html-keyboard-response","194","406028","0.0-12.0-0.24","5f09d989eff16b266fba44c0","650c16f0f2faf8d7a0d14c09","651c1d12674d4a07e87643f8","null","null","<p style=""font-size: 60px; font-family: BACS"">tRdMEcR</p>","","","","","","","","",""
"html-keyboard-response","195","407030","0.0-12.0-0.25","5f09d989eff16b266fba44c0","650c16f0f2faf8d7a0d14c09","651c1d12674d4a07e87643f8","null","null","<p style=""font-size: 60px; font-family: BACS"">GNAcaQru</p>","","","","","","","","",""
"html-keyboard-response","196","408032","0.0-12.0-0.26","5f09d989eff16b266fba44c0","650c16f0f2faf8d7a0d14c09","651c1d12674d4a07e87643f8","null","null","<p style=""font-size: 60px; font-family: BACS"">mARMCkbd</p>","","","","","","","","",""
"html-keyboard-response","197","409047","0.0-12.0-0.27","5f09d989eff16b266fba44c0","650c16f0f2faf8d7a0d14c09","651c1d12674d4a07e87643f8","null","null","<p style=""font-size: 60px; font-family: BACS"">AlTdOMC</p>","","","","","","","","",""
"html-keyboard-response","198","410049","0.0-12.0-0.28","5f09d989eff16b266fba44c0","650c16f0f2faf8d7a0d14c09","651c1d12674d4a07e87643f8","null","null","<p style=""font-size: 60px; font-family: BACS"">UdumdAvdk</p>","","","","","","","","",""
"html-keyboard-response","199","411051","0.0-12.0-0.29","5f09d989eff16b266fba44c0","650c16f0f2faf8d7a0d14c09","651c1d12674d4a07e87643f8","null","null","<p style=""font-size: 60px; font-family: BACS"">AdDbEcR</p>","","","","","","","","",""
"html-keyboard-response","200","412066","0.0-12.0-0.30","5f09d989eff16b266fba44c0","650c16f0f2faf8d7a0d14c09","651c1d12674d4a07e87643f8","null","null","<p style=""font-size: 60px; font-family: BACS"">PMPtkOMC</p>","","","","","","","","",""
"html-keyboard-response","201","413067","0.0-12.0-0.31","5f09d989eff16b266fba44c0","650c16f0f2faf8d7a0d14c09","651c1d12674d4a07e87643f8","null","null","<p style=""font-size: 60px; font-family: BACS"">CDEmYcMRl</p>","","","","","","","","",""
"html-keyboard-response","202","414068","0.0-12.0-0.32","5f09d989eff16b266fba44c0","650c16f0f2faf8d7a0d14c09","651c1d12674d4a07e87643f8","null","null","<p style=""font-size: 60px; font-family: BACS"">ZNLOvYmb</p>","","","","","","","","",""
"html-keyboard-response","203","415071","0.0-12.0-0.33","5f09d989eff16b266fba44c0","650c16f0f2faf8d7a0d14c09","651c1d12674d4a07e87643f8","null","null","<p style=""font-size: 60px; font-family: BACS"">vYLUYaOk</p>","","","","","","","","",""
"html-keyboard-response","204","416086","0.0-12.0-0.34","5f09d989eff16b266fba44c0","650c16f0f2faf8d7a0d14c09","651c1d12674d4a07e87643f8","null","null","<p style=""font-size: 60px; font-family: BACS"">ABPRBcMRl</p>","","","","","","","","",""
"html-keyboard-response","205","417088","0.0-12.0-0.35","5f09d989eff16b266fba44c0","650c16f0f2faf8d7a0d14c09","651c1d12674d4a07e87643f8","null","null","<p style=""font-size: 60px; font-family: BACS"">AdDbCkbd</p>","","","","","","","","",""
"html-keyboard-response","206","418089","0.0-12.0-0.36","5f09d989eff16b266fba44c0","650c16f0f2faf8d7a0d14c09","651c1d12674d4a07e87643f8","null","null","<p style=""font-size: 60px; font-family: BACS"">rvAJYaOk</p>","","","","","","","","",""
"html-keyboard-response","207","419090","0.0-12.0-0.37","5f09d989eff16b266fba44c0","650c16f0f2faf8d7a0d14c09","651c1d12674d4a07e87643f8","null","null","<p style=""font-size: 60px; font-family: BACS"">CDEmYmtKP</p>","","","","","","","","",""
"html-keyboard-response","208","420103","0.0-12.0-0.38","5f09d989eff16b266fba44c0","650c16f0f2faf8d7a0d14c09","651c1d12674d4a07e87643f8","null","null","<p style=""font-size: 60px; font-family: BACS"">AdDbcMRl</p>","","","","","","","","",""
"html-keyboard-response","209","421104","0.0-12.0-0.39","5f09d989eff16b266fba44c0","650c16f0f2faf8d7a0d14c09","651c1d12674d4a07e87643f8","null","null","<p style=""font-size: 60px; font-family: BACS"">mLdkZYUYa</p>","","","","","","","","",""
"html-keyboard-response","210","422107","0.0-12.0-0.40","5f09d989eff16b266fba44c0","650c16f0f2faf8d7a0d14c09","651c1d12674d4a07e87643f8","null","null","<p style=""font-size: 60px; font-family: BACS"">YZJmAvdk</p>","","","","","","","","",""
"html-keyboard-response","211","423109","0.0-12.0-0.41","5f09d989eff16b266fba44c0","650c16f0f2faf8d7a0d14c09","651c1d12674d4a07e87643f8","null","null","<p style=""font-size: 60px; font-family: BACS"">tRdMcMRl</p>","","","","","","","","",""
"html-keyboard-response","212","424111","0.0-12.0-0.42","5f09d989eff16b266fba44c0","650c16f0f2faf8d7a0d14c09","651c1d12674d4a07e87643f8","null","null","<p style=""font-size: 60px; font-family: BACS"">hYDmtEcR</p>","","","","","","","","",""
"html-keyboard-response","213","425126","0.0-12.0-0.43","5f09d989eff16b266fba44c0","650c16f0f2faf8d7a0d14c09","651c1d12674d4a07e87643f8","null","null","<p style=""font-size: 60px; font-family: BACS"">ABPRBOMC</p>","","","","","","","","",""
"html-keyboard-response","214","426128","0.0-12.0-0.44","5f09d989eff16b266fba44c0","650c16f0f2faf8d7a0d14c09","651c1d12674d4a07e87643f8","null","null","<p style=""font-size: 60px; font-family: BACS"">mLdkZQru</p>","","","","","","","","",""
"html-keyboard-response","215","427130","0.0-12.0-0.45","5f09d989eff16b266fba44c0","650c16f0f2faf8d7a0d14c09","651c1d12674d4a07e87643f8","null","null","<p style=""font-size: 60px; font-family: BACS"">tRdMCkbd</p>","","","","","","","","",""
"html-keyboard-response","216","428143","0.0-12.0-0.46","5f09d989eff16b266fba44c0","650c16f0f2faf8d7a0d14c09","651c1d12674d4a07e87643f8","null","null","<p style=""font-size: 60px; font-family: BACS"">ZNLOvAvdk</p>","","","","","","","","",""
"html-keyboard-response","217","429146","0.0-12.0-0.47","5f09d989eff16b266fba44c0","650c16f0f2faf8d7a0d14c09","651c1d12674d4a07e87643f8","null","null","<p style=""font-size: 60px; font-family: BACS"">vYLUYmb</p>","","","","","","","","",""
"html-keyboard-response","218","430148","0.0-12.0-0.48","5f09d989eff16b266fba44c0","650c16f0f2faf8d7a0d14c09","651c1d12674d4a07e87643f8","null","null","<p style=""font-size: 60px; font-family: BACS"">ZYcQUYUYa</p>","","","","","","","","",""
"html-keyboard-response","219","431150","0.0-12.0-0.49","5f09d989eff16b266fba44c0","650c16f0f2faf8d7a0d14c09","651c1d12674d4a07e87643f8","null","null","<p style=""font-size: 60px; font-family: BACS"">vmuLlAvdk</p>","","","","","","","","",""
"html-keyboard-response","220","432165","0.0-12.0-0.50","5f09d989eff16b266fba44c0","650c16f0f2faf8d7a0d14c09","651c1d12674d4a07e87643f8","null","null","<p style=""font-size: 60px; font-family: BACS"">PMPtkCkbd</p>","","","","","","","","",""
"html-keyboard-response","221","433167","0.0-12.0-0.51","5f09d989eff16b266fba44c0","650c16f0f2faf8d7a0d14c09","651c1d12674d4a07e87643f8","null","null","<p style=""font-size: 60px; font-family: BACS"">AlTdcMRl</p>","","","","","","","","",""
"html-keyboard-response","222","434173","0.0-12.0-0.52","5f09d989eff16b266fba44c0","650c16f0f2faf8d7a0d14c09","651c1d12674d4a07e87643f8","null","null","<p style=""font-size: 60px; font-family: BACS"">hChYOMC</p>","","","","","","","","",""
"html-keyboard-response","223","435183","0.0-12.0-0.53","5f09d989eff16b266fba44c0","650c16f0f2faf8d7a0d14c09","651c1d12674d4a07e87643f8","null","null","<p style=""font-size: 60px; font-family: BACS"">PMPtkmtKP</p>","","","","","","","","",""
"html-keyboard-response","224","436186","0.0-12.0-0.54","5f09d989eff16b266fba44c0","650c16f0f2faf8d7a0d14c09","651c1d12674d4a07e87643f8","null","null","<p style=""font-size: 60px; font-family: BACS"">vYLUAvdk</p>","","","","","","","","",""
"html-keyboard-response","225","437188","0.0-12.0-0.55","5f09d989eff16b266fba44c0","650c16f0f2faf8d7a0d14c09","651c1d12674d4a07e87643f8","null","null","<p style=""font-size: 60px; font-family: BACS"">ABPRBCkbd</p>","","","","","","","","",""
"html-keyboard-response","226","438201","0.0-12.0-0.56","5f09d989eff16b266fba44c0","650c16f0f2faf8d7a0d14c09","651c1d12674d4a07e87643f8","null","null","<p style=""font-size: 60px; font-family: BACS"">rvAJYmb</p>","","","","","","","","",""
"html-keyboard-response","227","439204","0.0-12.0-0.57","5f09d989eff16b266fba44c0","650c16f0f2faf8d7a0d14c09","651c1d12674d4a07e87643f8","null","null","<p style=""font-size: 60px; font-family: BACS"">ZYcQUQru</p>","","","","","","","","",""
"html-keyboard-response","228","440206","0.0-12.0-0.58","5f09d989eff16b266fba44c0","650c16f0f2faf8d7a0d14c09","651c1d12674d4a07e87643f8","null","null","<p style=""font-size: 60px; font-family: BACS"">PMPtkEcR</p>","","","","","","","","",""
"html-keyboard-response","229","441208","0.0-12.0-0.59","5f09d989eff16b266fba44c0","650c16f0f2faf8d7a0d14c09","651c1d12674d4a07e87643f8","null","null","<p style=""font-size: 60px; font-family: BACS"">YZJmYaOk</p>","","","","","","","","",""
"html-keyboard-response","230","442223","0.0-12.0-0.60","5f09d989eff16b266fba44c0","650c16f0f2faf8d7a0d14c09","651c1d12674d4a07e87643f8","null","null","<p style=""font-size: 60px; font-family: BACS"">hChYcMRl</p>","","","","","","","","",""
"html-keyboard-response","231","443225","0.0-12.0-0.61","5f09d989eff16b266fba44c0","650c16f0f2faf8d7a0d14c09","651c1d12674d4a07e87643f8","null","null","<p style=""font-size: 60px; font-family: BACS"">YZJmYmb</p>","","","","","","","","",""
"html-keyboard-response","232","444238","0.0-12.0-0.62","5f09d989eff16b266fba44c0","650c16f0f2faf8d7a0d14c09","651c1d12674d4a07e87643f8","null","null","<p style=""font-size: 60px; font-family: BACS"">mARMEcR</p>","","","","","","","","",""
"html-keyboard-response","233","445240","0.0-12.0-0.63","5f09d989eff16b266fba44c0","650c16f0f2faf8d7a0d14c09","651c1d12674d4a07e87643f8","null","null","<p style=""font-size: 60px; font-family: BACS"">UdumdQru</p>","","","","","","","","",""
"html-keyboard-response","234","446243","0.0-12.0-0.64","5f09d989eff16b266fba44c0","650c16f0f2faf8d7a0d14c09","651c1d12674d4a07e87643f8","null","null","<p style=""font-size: 60px; font-family: BACS"">bGuOYaOk</p>","","","","","","","","",""
"html-keyboard-response","235","447244","0.0-12.0-0.65","5f09d989eff16b266fba44c0","650c16f0f2faf8d7a0d14c09","651c1d12674d4a07e87643f8","null","null","<p style=""font-size: 60px; font-family: BACS"">mLdkZYmb</p>","","","","","","","","",""
"html-keyboard-response","236","448246","0.0-12.0-0.66","5f09d989eff16b266fba44c0","650c16f0f2faf8d7a0d14c09","651c1d12674d4a07e87643f8","null","null","<p style=""font-size: 60px; font-family: BACS"">mARMmtKP</p>","","","","","","","","",""
"html-keyboard-response","237","449247","0.0-12.0-0.67","5f09d989eff16b266fba44c0","650c16f0f2faf8d7a0d14c09","651c1d12674d4a07e87643f8","null","null","<p style=""font-size: 60px; font-family: BACS"">hChYCkbd</p>","","","","","","","","",""
"html-keyboard-response","238","450262","0.0-12.0-0.68","5f09d989eff16b266fba44c0","650c16f0f2faf8d7a0d14c09","651c1d12674d4a07e87643f8","null","null","<p style=""font-size: 60px; font-family: BACS"">vmuLlYUYa</p>","","","","","","","","",""
"html-keyboard-response","239","451263","0.0-12.0-0.69","5f09d989eff16b266fba44c0","650c16f0f2faf8d7a0d14c09","651c1d12674d4a07e87643f8","null","null","<p style=""font-size: 60px; font-family: BACS"">ZYcQUYmb</p>","","","","","","","","",""
"html-keyboard-response","240","452266","0.0-12.0-0.70","5f09d989eff16b266fba44c0","650c16f0f2faf8d7a0d14c09","651c1d12674d4a07e87643f8","null","null","<p style=""font-size: 60px; font-family: BACS"">hYDmtcMRl</p>","","","","","","","","",""
"html-keyboard-response","241","453280","0.0-12.0-0.71","5f09d989eff16b266fba44c0","650c16f0f2faf8d7a0d14c09","651c1d12674d4a07e87643f8","null","null","<p style=""font-size: 60px; font-family: BACS"">GNAcaAvdk</p>","","","","","","","","",""
"html-keyboard-response","242","454281","0.0-12.0-0.72","5f09d989eff16b266fba44c0","650c16f0f2faf8d7a0d14c09","651c1d12674d4a07e87643f8","null","null","<p style=""font-size: 60px; font-family: BACS"">rvAJYUYa</p>","","","","","","","","",""
"html-keyboard-response","243","455282","0.0-12.0-0.73","5f09d989eff16b266fba44c0","650c16f0f2faf8d7a0d14c09","651c1d12674d4a07e87643f8","null","null","<p style=""font-size: 60px; font-family: BACS"">hYDmtOMC</p>","","","","","","","","",""
"html-keyboard-response","244","456284","0.0-12.0-0.74","5f09d989eff16b266fba44c0","650c16f0f2faf8d7a0d14c09","651c1d12674d4a07e87643f8","null","null","<p style=""font-size: 60px; font-family: BACS"">bGuOYUYa</p>","","","","","","","","",""
"html-keyboard-response","245","457286","0.0-12.0-0.75","5f09d989eff16b266fba44c0","650c16f0f2faf8d7a0d14c09","651c1d12674d4a07e87643f8","null","null","<p style=""font-size: 60px; font-family: BACS"">CDEmYOMC</p>","","","","","","","","",""
"html-keyboard-response","246","458298","0.0-12.0-0.76","5f09d989eff16b266fba44c0","650c16f0f2faf8d7a0d14c09","651c1d12674d4a07e87643f8","null","null","<p style=""font-size: 60px; font-family: BACS"">UdumdYaOk</p>","","","","","","","","",""
"html-keyboard-response","247","459302","0.0-12.0-0.77","5f09d989eff16b266fba44c0","650c16f0f2faf8d7a0d14c09","651c1d12674d4a07e87643f8","null","null","<p style=""font-size: 60px; font-family: BACS"">tRdMmtKP</p>","","","","","","","","",""
"html-keyboard-response","248","460304","0.0-12.0-0.78","5f09d989eff16b266fba44c0","650c16f0f2faf8d7a0d14c09","651c1d12674d4a07e87643f8","null","null","<p style=""font-size: 60px; font-family: BACS"">AlTdCkbd</p>","","","","","","","","",""
"html-keyboard-response","249","461305","0.0-12.0-0.79","5f09d989eff16b266fba44c0","650c16f0f2faf8d7a0d14c09","651c1d12674d4a07e87643f8","null","null","<p style=""font-size: 60px; font-family: BACS"">ZNLOvYUYa</p>","","","","","","","","",""
"html-keyboard-response","250","555367","0.0-13.0","5f09d989eff16b266fba44c0","650c16f0f2faf8d7a0d14c09","651c1d12674d4a07e87643f8","94059"," ","<p>Great, you've seen the third block of words. You may now take a short break.</p>
      <p>Press the spacebar when you're ready to continue.</p>","","","","","","","","",""
"html-keyboard-response","251","556373","0.0-14.0-0.0","5f09d989eff16b266fba44c0","650c16f0f2faf8d7a0d14c09","651c1d12674d4a07e87643f8","null","null","<p style=""font-size: 60px; font-family: BACS"">ZYcQUYUYa</p>","","","","","","","","",""
"html-keyboard-response","252","557375","0.0-14.0-0.1","5f09d989eff16b266fba44c0","650c16f0f2faf8d7a0d14c09","651c1d12674d4a07e87643f8","null","null","<p style=""font-size: 60px; font-family: BACS"">YZJmAvdk</p>","","","","","","","","",""
"html-keyboard-response","253","558377","0.0-14.0-0.2","5f09d989eff16b266fba44c0","650c16f0f2faf8d7a0d14c09","651c1d12674d4a07e87643f8","null","null","<p style=""font-size: 60px; font-family: BACS"">rvAJYUYa</p>","","","","","","","","",""
"html-keyboard-response","254","559378","0.0-14.0-0.3","5f09d989eff16b266fba44c0","650c16f0f2faf8d7a0d14c09","651c1d12674d4a07e87643f8","null","null","<p style=""font-size: 60px; font-family: BACS"">UdumdAvdk</p>","","","","","","","","",""
"html-keyboard-response","255","560393","0.0-14.0-0.4","5f09d989eff16b266fba44c0","650c16f0f2faf8d7a0d14c09","651c1d12674d4a07e87643f8","null","null","<p style=""font-size: 60px; font-family: BACS"">GNAcaQru</p>","","","","","","","","",""
"html-keyboard-response","256","561397","0.0-14.0-0.5","5f09d989eff16b266fba44c0","650c16f0f2faf8d7a0d14c09","651c1d12674d4a07e87643f8","null","null","<p style=""font-size: 60px; font-family: BACS"">PMPtkEcR</p>","","","","","","","","",""
"html-keyboard-response","257","562412","0.0-14.0-0.6","5f09d989eff16b266fba44c0","650c16f0f2faf8d7a0d14c09","651c1d12674d4a07e87643f8","null","null","<p style=""font-size: 60px; font-family: BACS"">hChYmtKP</p>","","","","","","","","",""
"html-keyboard-response","258","563415","0.0-14.0-0.7","5f09d989eff16b266fba44c0","650c16f0f2faf8d7a0d14c09","651c1d12674d4a07e87643f8","null","null","<p style=""font-size: 60px; font-family: BACS"">mLdkZYmb</p>","","","","","","","","",""
"html-keyboard-response","259","564416","0.0-14.0-0.8","5f09d989eff16b266fba44c0","650c16f0f2faf8d7a0d14c09","651c1d12674d4a07e87643f8","null","null","<p style=""font-size: 60px; font-family: BACS"">mARMmtKP</p>","","","","","","","","",""
"html-keyboard-response","260","565430","0.0-14.0-0.9","5f09d989eff16b266fba44c0","650c16f0f2faf8d7a0d14c09","651c1d12674d4a07e87643f8","null","null","<p style=""font-size: 60px; font-family: BACS"">GNAcaAvdk</p>","","","","","","","","",""
"html-keyboard-response","261","566433","0.0-14.0-0.10","5f09d989eff16b266fba44c0","650c16f0f2faf8d7a0d14c09","651c1d12674d4a07e87643f8","null","null","<p style=""font-size: 60px; font-family: BACS"">ABPRBmtKP</p>","","","","","","","","",""
"html-keyboard-response","262","567435","0.0-14.0-0.11","5f09d989eff16b266fba44c0","650c16f0f2faf8d7a0d14c09","651c1d12674d4a07e87643f8","null","null","<p style=""font-size: 60px; font-family: BACS"">mARMCkbd</p>","","","","","","","","",""
"html-keyboard-response","263","568449","0.0-14.0-0.12","5f09d989eff16b266fba44c0","650c16f0f2faf8d7a0d14c09","651c1d12674d4a07e87643f8","null","null","<p style=""font-size: 60px; font-family: BACS"">ZNLOvYUYa</p>","","","","","","","","",""
"html-keyboard-response","264","569452","0.0-14.0-0.13","5f09d989eff16b266fba44c0","650c16f0f2faf8d7a0d14c09","651c1d12674d4a07e87643f8","null","null","<p style=""font-size: 60px; font-family: BACS"">AdDbcMRl</p>","","","","","","","","",""
"html-keyboard-response","265","570454","0.0-14.0-0.14","5f09d989eff16b266fba44c0","650c16f0f2faf8d7a0d14c09","651c1d12674d4a07e87643f8","null","null","<p style=""font-size: 60px; font-family: BACS"">vYLUYmb</p>","","","","","","","","",""
"html-keyboard-response","266","571455","0.0-14.0-0.15","5f09d989eff16b266fba44c0","650c16f0f2faf8d7a0d14c09","651c1d12674d4a07e87643f8","null","null","<p style=""font-size: 60px; font-family: BACS"">vmuLlYaOk</p>","","","","","","","","",""
"html-keyboard-response","267","572470","0.0-14.0-0.16","5f09d989eff16b266fba44c0","650c16f0f2faf8d7a0d14c09","651c1d12674d4a07e87643f8","null","null","<p style=""font-size: 60px; font-family: BACS"">tRdMEcR</p>","","","","","","","","",""
"html-keyboard-response","268","573473","0.0-14.0-0.17","5f09d989eff16b266fba44c0","650c16f0f2faf8d7a0d14c09","651c1d12674d4a07e87643f8","null","null","<p style=""font-size: 60px; font-family: BACS"">GNAcaYmb</p>","","","","","","","","",""
"html-keyboard-response","269","574486","0.0-14.0-0.18","5f09d989eff16b266fba44c0","650c16f0f2faf8d7a0d14c09","651c1d12674d4a07e87643f8","null","null","<p style=""font-size: 60px; font-family: BACS"">ZYcQUQru</p>","","","","","","","","",""
"html-keyboard-response","270","575488","0.0-14.0-0.19","5f09d989eff16b266fba44c0","650c16f0f2faf8d7a0d14c09","651c1d12674d4a07e87643f8","null","null","<p style=""font-size: 60px; font-family: BACS"">vYLUAvdk</p>","","","","","","","","",""
"html-keyboard-response","271","576490","0.0-14.0-0.20","5f09d989eff16b266fba44c0","650c16f0f2faf8d7a0d14c09","651c1d12674d4a07e87643f8","null","null","<p style=""font-size: 60px; font-family: BACS"">AdDbCkbd</p>","","","","","","","","",""
"html-keyboard-response","272","577493","0.0-14.0-0.21","5f09d989eff16b266fba44c0","650c16f0f2faf8d7a0d14c09","651c1d12674d4a07e87643f8","null","null","<p style=""font-size: 60px; font-family: BACS"">bGuOAvdk</p>","","","","","","","","",""
"html-keyboard-response","273","578508","0.0-14.0-0.22","5f09d989eff16b266fba44c0","650c16f0f2faf8d7a0d14c09","651c1d12674d4a07e87643f8","null","null","<p style=""font-size: 60px; font-family: BACS"">hChYOMC</p>","","","","","","","","",""
"html-keyboard-response","274","579510","0.0-14.0-0.23","5f09d989eff16b266fba44c0","650c16f0f2faf8d7a0d14c09","651c1d12674d4a07e87643f8","null","null","<p style=""font-size: 60px; font-family: BACS"">ZYcQUYaOk</p>","","","","","","","","",""
"html-keyboard-response","275","580511","0.0-14.0-0.24","5f09d989eff16b266fba44c0","650c16f0f2faf8d7a0d14c09","651c1d12674d4a07e87643f8","null","null","<p style=""font-size: 60px; font-family: BACS"">rvAJYmb</p>","","","","","","","","",""
"html-keyboard-response","276","581513","0.0-14.0-0.25","5f09d989eff16b266fba44c0","650c16f0f2faf8d7a0d14c09","651c1d12674d4a07e87643f8","null","null","<p style=""font-size: 60px; font-family: BACS"">KMDYtmtKP</p>","","","","","","","","",""
"html-keyboard-response","277","582527","0.0-14.0-0.26","5f09d989eff16b266fba44c0","650c16f0f2faf8d7a0d14c09","651c1d12674d4a07e87643f8","null","null","<p style=""font-size: 60px; font-family: BACS"">YZJmYaOk</p>","","","","","","","","",""
"html-keyboard-response","278","583529","0.0-14.0-0.27","5f09d989eff16b266fba44c0","650c16f0f2faf8d7a0d14c09","651c1d12674d4a07e87643f8","null","null","<p style=""font-size: 60px; font-family: BACS"">UdumdQru</p>","","","","","","","","",""
"html-keyboard-response","279","584531","0.0-14.0-0.28","5f09d989eff16b266fba44c0","650c16f0f2faf8d7a0d14c09","651c1d12674d4a07e87643f8","null","null","<p style=""font-size: 60px; font-family: BACS"">hChYcMRl</p>","","","","","","","","",""
"html-keyboard-response","280","585547","0.0-14.0-0.29","5f09d989eff16b266fba44c0","650c16f0f2faf8d7a0d14c09","651c1d12674d4a07e87643f8","null","null","<p style=""font-size: 60px; font-family: BACS"">AdDbEcR</p>","","","","","","","","",""
"html-keyboard-response","281","586549","0.0-14.0-0.30","5f09d989eff16b266fba44c0","650c16f0f2faf8d7a0d14c09","651c1d12674d4a07e87643f8","null","null","<p style=""font-size: 60px; font-family: BACS"">bGuOYaOk</p>","","","","","","","","",""
"html-keyboard-response","282","587550","0.0-14.0-0.31","5f09d989eff16b266fba44c0","650c16f0f2faf8d7a0d14c09","651c1d12674d4a07e87643f8","null","null","<p style=""font-size: 60px; font-family: BACS"">tRdMCkbd</p>","","","","","","","","",""
"html-keyboard-response","283","588565","0.0-14.0-0.32","5f09d989eff16b266fba44c0","650c16f0f2faf8d7a0d14c09","651c1d12674d4a07e87643f8","null","null","<p style=""font-size: 60px; font-family: BACS"">ZNLOvQru</p>","","","","","","","","",""
"html-keyboard-response","284","589567","0.0-14.0-0.33","5f09d989eff16b266fba44c0","650c16f0f2faf8d7a0d14c09","651c1d12674d4a07e87643f8","null","null","<p style=""font-size: 60px; font-family: BACS"">ABPRBcMRl</p>","","","","","","","","",""
"html-keyboard-response","285","590569","0.0-14.0-0.34","5f09d989eff16b266fba44c0","650c16f0f2faf8d7a0d14c09","651c1d12674d4a07e87643f8","null","null","<p style=""font-size: 60px; font-family: BACS"">YZJmQru</p>","","","","","","","","",""
"html-keyboard-response","286","591583","0.0-14.0-0.35","5f09d989eff16b266fba44c0","650c16f0f2faf8d7a0d14c09","651c1d12674d4a07e87643f8","null","null","<p style=""font-size: 60px; font-family: BACS"">vYLUYaOk</p>","","","","","","","","",""
"html-keyboard-response","287","592586","0.0-14.0-0.36","5f09d989eff16b266fba44c0","650c16f0f2faf8d7a0d14c09","651c1d12674d4a07e87643f8","null","null","<p style=""font-size: 60px; font-family: BACS"">vmuLlYUYa</p>","","","","","","","","",""
"html-keyboard-response","288","593588","0.0-14.0-0.37","5f09d989eff16b266fba44c0","650c16f0f2faf8d7a0d14c09","651c1d12674d4a07e87643f8","null","null","<p style=""font-size: 60px; font-family: BACS"">AdDbmtKP</p>","","","","","","","","",""
"html-keyboard-response","289","594603","0.0-14.0-0.38","5f09d989eff16b266fba44c0","650c16f0f2faf8d7a0d14c09","651c1d12674d4a07e87643f8","null","null","<p style=""font-size: 60px; font-family: BACS"">YZJmYmb</p>","","","","","","","","",""
"html-keyboard-response","290","595606","0.0-14.0-0.39","5f09d989eff16b266fba44c0","650c16f0f2faf8d7a0d14c09","651c1d12674d4a07e87643f8","null","null","<p style=""font-size: 60px; font-family: BACS"">UdumdYaOk</p>","","","","","","","","",""
"html-keyboard-response","291","596608","0.0-14.0-0.40","5f09d989eff16b266fba44c0","650c16f0f2faf8d7a0d14c09","651c1d12674d4a07e87643f8","null","null","<p style=""font-size: 60px; font-family: BACS"">tRdMcMRl</p>","","","","","","","","",""
"html-keyboard-response","292","597623","0.0-14.0-0.41","5f09d989eff16b266fba44c0","650c16f0f2faf8d7a0d14c09","651c1d12674d4a07e87643f8","null","null","<p style=""font-size: 60px; font-family: BACS"">CDEmYEcR</p>","","","","","","","","",""
"html-keyboard-response","293","598625","0.0-14.0-0.42","5f09d989eff16b266fba44c0","650c16f0f2faf8d7a0d14c09","651c1d12674d4a07e87643f8","null","null","<p style=""font-size: 60px; font-family: BACS"">AlTdcMRl</p>","","","","","","","","",""
"html-keyboard-response","294","599638","0.0-14.0-0.43","5f09d989eff16b266fba44c0","650c16f0f2faf8d7a0d14c09","651c1d12674d4a07e87643f8","null","null","<p style=""font-size: 60px; font-family: BACS"">mLdkZAvdk</p>","","","","","","","","",""
"html-keyboard-response","295","600643","0.0-14.0-0.44","5f09d989eff16b266fba44c0","650c16f0f2faf8d7a0d14c09","651c1d12674d4a07e87643f8","null","null","<p style=""font-size: 60px; font-family: BACS"">bGuOQru</p>","","","","","","","","",""
"html-keyboard-response","296","601644","0.0-14.0-0.45","5f09d989eff16b266fba44c0","650c16f0f2faf8d7a0d14c09","651c1d12674d4a07e87643f8","null","null","<p style=""font-size: 60px; font-family: BACS"">hYDmtOMC</p>","","","","","","","","",""
"html-keyboard-response","297","602646","0.0-14.0-0.46","5f09d989eff16b266fba44c0","650c16f0f2faf8d7a0d14c09","651c1d12674d4a07e87643f8","null","null","<p style=""font-size: 60px; font-family: BACS"">ZNLOvAvdk</p>","","","","","","","","",""
"html-keyboard-response","298","603655","0.0-14.0-0.47","5f09d989eff16b266fba44c0","650c16f0f2faf8d7a0d14c09","651c1d12674d4a07e87643f8","null","null","<p style=""font-size: 60px; font-family: BACS"">GNAcaYaOk</p>","","","","","","","","",""
"html-keyboard-response","299","604659","0.0-14.0-0.48","5f09d989eff16b266fba44c0","650c16f0f2faf8d7a0d14c09","651c1d12674d4a07e87643f8","null","null","<p style=""font-size: 60px; font-family: BACS"">vmuLlAvdk</p>","","","","","","","","",""
"html-keyboard-response","300","605663","0.0-14.0-0.49","5f09d989eff16b266fba44c0","650c16f0f2faf8d7a0d14c09","651c1d12674d4a07e87643f8","null","null","<p style=""font-size: 60px; font-family: BACS"">mLdkZQru</p>","","","","","","","","",""
"html-keyboard-response","301","606664","0.0-14.0-0.50","5f09d989eff16b266fba44c0","650c16f0f2faf8d7a0d14c09","651c1d12674d4a07e87643f8","null","null","<p style=""font-size: 60px; font-family: BACS"">hYDmtcMRl</p>","","","","","","","","",""
"html-keyboard-response","302","607666","0.0-14.0-0.51","5f09d989eff16b266fba44c0","650c16f0f2faf8d7a0d14c09","651c1d12674d4a07e87643f8","null","null","<p style=""font-size: 60px; font-family: BACS"">KMDYtOMC</p>","","","","","","","","",""
"html-keyboard-response","303","608672","0.0-14.0-0.52","5f09d989eff16b266fba44c0","650c16f0f2faf8d7a0d14c09","651c1d12674d4a07e87643f8","null","null","<p style=""font-size: 60px; font-family: BACS"">rvAJYaOk</p>","","","","","","","","",""
"html-keyboard-response","304","609679","0.0-14.0-0.53","5f09d989eff16b266fba44c0","650c16f0f2faf8d7a0d14c09","651c1d12674d4a07e87643f8","null","null","<p style=""font-size: 60px; font-family: BACS"">mARMOMC</p>","","","","","","","","",""
"html-keyboard-response","305","610681","0.0-14.0-0.54","5f09d989eff16b266fba44c0","650c16f0f2faf8d7a0d14c09","651c1d12674d4a07e87643f8","null","null","<p style=""font-size: 60px; font-family: BACS"">vYLUYUYa</p>","","","","","","","","",""
"html-keyboard-response","306","611684","0.0-14.0-0.55","5f09d989eff16b266fba44c0","650c16f0f2faf8d7a0d14c09","651c1d12674d4a07e87643f8","null","null","<p style=""font-size: 60px; font-family: BACS"">CDEmYmtKP</p>","","","","","","","","",""
"html-keyboard-response","307","612685","0.0-14.0-0.56","5f09d989eff16b266fba44c0","650c16f0f2faf8d7a0d14c09","651c1d12674d4a07e87643f8","null","null","<p style=""font-size: 60px; font-family: BACS"">PMPtkCkbd</p>","","","","","","","","",""
"html-keyboard-response","308","613687","0.0-14.0-0.57","5f09d989eff16b266fba44c0","650c16f0f2faf8d7a0d14c09","651c1d12674d4a07e87643f8","null","null","<p style=""font-size: 60px; font-family: BACS"">CDEmYcMRl</p>","","","","","","","","",""
"html-keyboard-response","309","614700","0.0-14.0-0.58","5f09d989eff16b266fba44c0","650c16f0f2faf8d7a0d14c09","651c1d12674d4a07e87643f8","null","null","<p style=""font-size: 60px; font-family: BACS"">hChYCkbd</p>","","","","","","","","",""
"html-keyboard-response","310","615702","0.0-14.0-0.59","5f09d989eff16b266fba44c0","650c16f0f2faf8d7a0d14c09","651c1d12674d4a07e87643f8","null","null","<p style=""font-size: 60px; font-family: BACS"">KMDYtEcR</p>","","","","","","","","",""
"html-keyboard-response","311","616704","0.0-14.0-0.60","5f09d989eff16b266fba44c0","650c16f0f2faf8d7a0d14c09","651c1d12674d4a07e87643f8","null","null","<p style=""font-size: 60px; font-family: BACS"">PMPtkmtKP</p>","","","","","","","","",""
"html-keyboard-response","312","617706","0.0-14.0-0.61","5f09d989eff16b266fba44c0","650c16f0f2faf8d7a0d14c09","651c1d12674d4a07e87643f8","null","null","<p style=""font-size: 60px; font-family: BACS"">ABPRBCkbd</p>","","","","","","","","",""
"html-keyboard-response","313","618708","0.0-14.0-0.62","5f09d989eff16b266fba44c0","650c16f0f2faf8d7a0d14c09","651c1d12674d4a07e87643f8","null","null","<p style=""font-size: 60px; font-family: BACS"">AlTdOMC</p>","","","","","","","","",""
"html-keyboard-response","314","619709","0.0-14.0-0.63","5f09d989eff16b266fba44c0","650c16f0f2faf8d7a0d14c09","651c1d12674d4a07e87643f8","null","null","<p style=""font-size: 60px; font-family: BACS"">bGuOYUYa</p>","","","","","","","","",""
"html-keyboard-response","315","620720","0.0-14.0-0.64","5f09d989eff16b266fba44c0","650c16f0f2faf8d7a0d14c09","651c1d12674d4a07e87643f8","null","null","<p style=""font-size: 60px; font-family: BACS"">AlTdCkbd</p>","","","","","","","","",""
"html-keyboard-response","316","621723","0.0-14.0-0.65","5f09d989eff16b266fba44c0","650c16f0f2faf8d7a0d14c09","651c1d12674d4a07e87643f8","null","null","<p style=""font-size: 60px; font-family: BACS"">UdumdYUYa</p>","","","","","","","","",""
"html-keyboard-response","317","622726","0.0-14.0-0.66","5f09d989eff16b266fba44c0","650c16f0f2faf8d7a0d14c09","651c1d12674d4a07e87643f8","null","null","<p style=""font-size: 60px; font-family: BACS"">KMDYtcMRl</p>","","","","","","","","",""
"html-keyboard-response","318","623727","0.0-14.0-0.67","5f09d989eff16b266fba44c0","650c16f0f2faf8d7a0d14c09","651c1d12674d4a07e87643f8","null","null","<p style=""font-size: 60px; font-family: BACS"">hYDmtEcR</p>","","","","","","","","",""
"html-keyboard-response","319","624729","0.0-14.0-0.68","5f09d989eff16b266fba44c0","650c16f0f2faf8d7a0d14c09","651c1d12674d4a07e87643f8","null","null","<p style=""font-size: 60px; font-family: BACS"">PMPtkOMC</p>","","","","","","","","",""
"html-keyboard-response","320","625743","0.0-14.0-0.69","5f09d989eff16b266fba44c0","650c16f0f2faf8d7a0d14c09","651c1d12674d4a07e87643f8","null","null","<p style=""font-size: 60px; font-family: BACS"">rvAJQru</p>","","","","","","","","",""
"html-keyboard-response","321","626745","0.0-14.0-0.70","5f09d989eff16b266fba44c0","650c16f0f2faf8d7a0d14c09","651c1d12674d4a07e87643f8","null","null","<p style=""font-size: 60px; font-family: BACS"">ZYcQUYmb</p>","","","","","","","","",""
"html-keyboard-response","322","627748","0.0-14.0-0.71","5f09d989eff16b266fba44c0","650c16f0f2faf8d7a0d14c09","651c1d12674d4a07e87643f8","null","null","<p style=""font-size: 60px; font-family: BACS"">hYDmtCkbd</p>","","","","","","","","",""
"html-keyboard-response","323","628762","0.0-14.0-0.72","5f09d989eff16b266fba44c0","650c16f0f2faf8d7a0d14c09","651c1d12674d4a07e87643f8","null","null","<p style=""font-size: 60px; font-family: BACS"">tRdMmtKP</p>","","","","","","","","",""
"html-keyboard-response","324","629763","0.0-14.0-0.73","5f09d989eff16b266fba44c0","650c16f0f2faf8d7a0d14c09","651c1d12674d4a07e87643f8","null","null","<p style=""font-size: 60px; font-family: BACS"">vmuLlYmb</p>","","","","","","","","",""
"html-keyboard-response","325","630765","0.0-14.0-0.74","5f09d989eff16b266fba44c0","650c16f0f2faf8d7a0d14c09","651c1d12674d4a07e87643f8","null","null","<p style=""font-size: 60px; font-family: BACS"">ABPRBOMC</p>","","","","","","","","",""
"html-keyboard-response","326","631767","0.0-14.0-0.75","5f09d989eff16b266fba44c0","650c16f0f2faf8d7a0d14c09","651c1d12674d4a07e87643f8","null","null","<p style=""font-size: 60px; font-family: BACS"">mARMEcR</p>","","","","","","","","",""
"html-keyboard-response","327","632780","0.0-14.0-0.76","5f09d989eff16b266fba44c0","650c16f0f2faf8d7a0d14c09","651c1d12674d4a07e87643f8","null","null","<p style=""font-size: 60px; font-family: BACS"">ZNLOvYmb</p>","","","","","","","","",""
"html-keyboard-response","328","633784","0.0-14.0-0.77","5f09d989eff16b266fba44c0","650c16f0f2faf8d7a0d14c09","651c1d12674d4a07e87643f8","null","null","<p style=""font-size: 60px; font-family: BACS"">AlTdEcR</p>","","","","","","","","",""
"html-keyboard-response","329","634786","0.0-14.0-0.78","5f09d989eff16b266fba44c0","650c16f0f2faf8d7a0d14c09","651c1d12674d4a07e87643f8","null","null","<p style=""font-size: 60px; font-family: BACS"">CDEmYOMC</p>","","","","","","","","",""
"html-keyboard-response","330","635799","0.0-14.0-0.79","5f09d989eff16b266fba44c0","650c16f0f2faf8d7a0d14c09","651c1d12674d4a07e87643f8","null","null","<p style=""font-size: 60px; font-family: BACS"">mLdkZYUYa</p>","","","","","","","","",""
"html-keyboard-response","331","640501","0.0-15.0","5f09d989eff16b266fba44c0","650c16f0f2faf8d7a0d14c09","651c1d12674d4a07e87643f8","4698"," ","<p>Great, you've seen the fourth block of words. You may now take a short break.</p>
      <p>Press the spacebar when you're ready to continue.</p>","","","","","","","","",""
"html-keyboard-response","332","641505","0.0-16.0-0.0","5f09d989eff16b266fba44c0","650c16f0f2faf8d7a0d14c09","651c1d12674d4a07e87643f8","null","null","<p style=""font-size: 60px; font-family: BACS"">hYDmtCkbd</p>","","","","","","","","",""
"html-keyboard-response","333","642506","0.0-16.0-0.1","5f09d989eff16b266fba44c0","650c16f0f2faf8d7a0d14c09","651c1d12674d4a07e87643f8","null","null","<p style=""font-size: 60px; font-family: BACS"">hYDmtCkbd</p>","","","","","","","","",""
"html-keyboard-response","334","643509","0.0-16.0-0.2","5f09d989eff16b266fba44c0","650c16f0f2faf8d7a0d14c09","651c1d12674d4a07e87643f8","null","null","<p style=""font-size: 60px; font-family: BACS"">hYDmtCkbd</p>","","","","","","","","",""
"html-keyboard-response","335","644522","0.0-16.0-0.3","5f09d989eff16b266fba44c0","650c16f0f2faf8d7a0d14c09","651c1d12674d4a07e87643f8","null","null","<p style=""font-size: 60px; font-family: BACS"">hYDmtCkbd</p>","","","","","","","","",""
"html-keyboard-response","336","645524","0.0-16.0-0.4","5f09d989eff16b266fba44c0","650c16f0f2faf8d7a0d14c09","651c1d12674d4a07e87643f8","null","null","<p style=""font-size: 60px; font-family: BACS"">hYDmtCkbd</p>","","","","","","","","",""
"html-keyboard-response","337","646527","0.0-16.0-0.5","5f09d989eff16b266fba44c0","650c16f0f2faf8d7a0d14c09","651c1d12674d4a07e87643f8","null","null","<p style=""font-size: 60px; font-family: BACS"">hYDmtCkbd</p>","","","","","","","","",""
"html-keyboard-response","338","647529","0.0-16.0-0.6","5f09d989eff16b266fba44c0","650c16f0f2faf8d7a0d14c09","651c1d12674d4a07e87643f8","null","null","<p style=""font-size: 60px; font-family: BACS"">hYDmtCkbd</p>","","","","","","","","",""
"html-keyboard-response","339","648544","0.0-16.0-0.7","5f09d989eff16b266fba44c0","650c16f0f2faf8d7a0d14c09","651c1d12674d4a07e87643f8","null","null","<p style=""font-size: 60px; font-family: BACS"">hYDmtCkbd</p>","","","","","","","","",""
"html-keyboard-response","340","649546","0.0-16.0-0.8","5f09d989eff16b266fba44c0","650c16f0f2faf8d7a0d14c09","651c1d12674d4a07e87643f8","null","null","<p style=""font-size: 60px; font-family: BACS"">hYDmtCkbd</p>","","","","","","","","",""
"html-keyboard-response","341","650548","0.0-16.0-0.9","5f09d989eff16b266fba44c0","650c16f0f2faf8d7a0d14c09","651c1d12674d4a07e87643f8","null","null","<p style=""font-size: 60px; font-family: BACS"">hYDmtCkbd</p>","","","","","","","","",""
"html-keyboard-response","342","651562","0.0-16.0-0.10","5f09d989eff16b266fba44c0","650c16f0f2faf8d7a0d14c09","651c1d12674d4a07e87643f8","null","null","<p style=""font-size: 60px; font-family: BACS"">hYDmtCkbd</p>","","","","","","","","",""
"html-keyboard-response","343","652564","0.0-16.0-0.11","5f09d989eff16b266fba44c0","650c16f0f2faf8d7a0d14c09","651c1d12674d4a07e87643f8","null","null","<p style=""font-size: 60px; font-family: BACS"">hYDmtCkbd</p>","","","","","","","","",""
"html-keyboard-response","344","653565","0.0-16.0-0.12","5f09d989eff16b266fba44c0","650c16f0f2faf8d7a0d14c09","651c1d12674d4a07e87643f8","null","null","<p style=""font-size: 60px; font-family: BACS"">hYDmtCkbd</p>","","","","","","","","",""
"html-keyboard-response","345","654567","0.0-16.0-0.13","5f09d989eff16b266fba44c0","650c16f0f2faf8d7a0d14c09","651c1d12674d4a07e87643f8","null","null","<p style=""font-size: 60px; font-family: BACS"">hYDmtCkbd</p>","","","","","","","","",""
"html-keyboard-response","346","655582","0.0-16.0-0.14","5f09d989eff16b266fba44c0","650c16f0f2faf8d7a0d14c09","651c1d12674d4a07e87643f8","null","null","<p style=""font-size: 60px; font-family: BACS"">hYDmtCkbd</p>","","","","","","","","",""
"html-keyboard-response","347","656585","0.0-16.0-0.15","5f09d989eff16b266fba44c0","650c16f0f2faf8d7a0d14c09","651c1d12674d4a07e87643f8","null","null","<p style=""font-size: 60px; font-family: BACS"">hYDmtCkbd</p>","","","","","","","","",""
"html-keyboard-response","348","657586","0.0-16.0-0.16","5f09d989eff16b266fba44c0","650c16f0f2faf8d7a0d14c09","651c1d12674d4a07e87643f8","null","null","<p style=""font-size: 60px; font-family: BACS"">hYDmtCkbd</p>","","","","","","","","",""
"html-keyboard-response","349","658599","0.0-16.0-0.17","5f09d989eff16b266fba44c0","650c16f0f2faf8d7a0d14c09","651c1d12674d4a07e87643f8","null","null","<p style=""font-size: 60px; font-family: BACS"">hYDmtCkbd</p>","","","","","","","","",""
"html-keyboard-response","350","659601","0.0-16.0-0.18","5f09d989eff16b266fba44c0","650c16f0f2faf8d7a0d14c09","651c1d12674d4a07e87643f8","null","null","<p style=""font-size: 60px; font-family: BACS"">hYDmtCkbd</p>","","","","","","","","",""
"html-keyboard-response","351","660605","0.0-16.0-0.19","5f09d989eff16b266fba44c0","650c16f0f2faf8d7a0d14c09","651c1d12674d4a07e87643f8","null","null","<p style=""font-size: 60px; font-family: BACS"">hYDmtCkbd</p>","","","","","","","","",""
"html-keyboard-response","352","661620","0.0-16.0-0.20","5f09d989eff16b266fba44c0","650c16f0f2faf8d7a0d14c09","651c1d12674d4a07e87643f8","null","null","<p style=""font-size: 60px; font-family: BACS"">hYDmtCkbd</p>","","","","","","","","",""
"html-keyboard-response","353","662622","0.0-16.0-0.21","5f09d989eff16b266fba44c0","650c16f0f2faf8d7a0d14c09","651c1d12674d4a07e87643f8","null","null","<p style=""font-size: 60px; font-family: BACS"">hYDmtCkbd</p>","","","","","","","","",""
"html-keyboard-response","354","663623","0.0-16.0-0.22","5f09d989eff16b266fba44c0","650c16f0f2faf8d7a0d14c09","651c1d12674d4a07e87643f8","null","null","<p style=""font-size: 60px; font-family: BACS"">hYDmtCkbd</p>","","","","","","","","",""
"html-keyboard-response","355","664637","0.0-16.0-0.23","5f09d989eff16b266fba44c0","650c16f0f2faf8d7a0d14c09","651c1d12674d4a07e87643f8","null","null","<p style=""font-size: 60px; font-family: BACS"">hYDmtCkbd</p>","","","","","","","","",""
"html-keyboard-response","356","665639","0.0-16.0-0.24","5f09d989eff16b266fba44c0","650c16f0f2faf8d7a0d14c09","651c1d12674d4a07e87643f8","null","null","<p style=""font-size: 60px; font-family: BACS"">hYDmtCkbd</p>","","","","","","","","",""
"html-keyboard-response","357","666642","0.0-16.0-0.25","5f09d989eff16b266fba44c0","650c16f0f2faf8d7a0d14c09","651c1d12674d4a07e87643f8","null","null","<p style=""font-size: 60px; font-family: BACS"">hYDmtCkbd</p>","","","","","","","","",""
"html-keyboard-response","358","667644","0.0-16.0-0.26","5f09d989eff16b266fba44c0","650c16f0f2faf8d7a0d14c09","651c1d12674d4a07e87643f8","null","null","<p style=""font-size: 60px; font-family: BACS"">hYDmtCkbd</p>","","","","","","","","",""
"html-keyboard-response","359","668645","0.0-16.0-0.27","5f09d989eff16b266fba44c0","650c16f0f2faf8d7a0d14c09","651c1d12674d4a07e87643f8","null","null","<p style=""font-size: 60px; font-family: BACS"">hYDmtCkbd</p>","","","","","","","","",""
"html-keyboard-response","360","669657","0.0-16.0-0.28","5f09d989eff16b266fba44c0","650c16f0f2faf8d7a0d14c09","651c1d12674d4a07e87643f8","null","null","<p style=""font-size: 60px; font-family: BACS"">hYDmtCkbd</p>","","","","","","","","",""
"html-keyboard-response","361","670662","0.0-16.0-0.29","5f09d989eff16b266fba44c0","650c16f0f2faf8d7a0d14c09","651c1d12674d4a07e87643f8","null","null","<p style=""font-size: 60px; font-family: BACS"">hYDmtCkbd</p>","","","","","","","","",""
"html-keyboard-response","362","671664","0.0-16.0-0.30","5f09d989eff16b266fba44c0","650c16f0f2faf8d7a0d14c09","651c1d12674d4a07e87643f8","null","null","<p style=""font-size: 60px; font-family: BACS"">hYDmtCkbd</p>","","","","","","","","",""
"html-keyboard-response","363","672679","0.0-16.0-0.31","5f09d989eff16b266fba44c0","650c16f0f2faf8d7a0d14c09","651c1d12674d4a07e87643f8","null","null","<p style=""font-size: 60px; font-family: BACS"">hYDmtCkbd</p>","","","","","","","","",""
"html-keyboard-response","364","673681","0.0-16.0-0.32","5f09d989eff16b266fba44c0","650c16f0f2faf8d7a0d14c09","651c1d12674d4a07e87643f8","null","null","<p style=""font-size: 60px; font-family: BACS"">hYDmtCkbd</p>","","","","","","","","",""
"html-keyboard-response","365","674683","0.0-16.0-0.33","5f09d989eff16b266fba44c0","650c16f0f2faf8d7a0d14c09","651c1d12674d4a07e87643f8","null","null","<p style=""font-size: 60px; font-family: BACS"">hYDmtCkbd</p>","","","","","","","","",""
"html-keyboard-response","366","675699","0.0-16.0-0.34","5f09d989eff16b266fba44c0","650c16f0f2faf8d7a0d14c09","651c1d12674d4a07e87643f8","null","null","<p style=""font-size: 60px; font-family: BACS"">hYDmtCkbd</p>","","","","","","","","",""
"html-keyboard-response","367","676702","0.0-16.0-0.35","5f09d989eff16b266fba44c0","650c16f0f2faf8d7a0d14c09","651c1d12674d4a07e87643f8","null","null","<p style=""font-size: 60px; font-family: BACS"">hYDmtCkbd</p>","","","","","","","","",""
"html-keyboard-response","368","677716","0.0-16.0-0.36","5f09d989eff16b266fba44c0","650c16f0f2faf8d7a0d14c09","651c1d12674d4a07e87643f8","null","null","<p style=""font-size: 60px; font-family: BACS"">hYDmtCkbd</p>","","","","","","","","",""
"html-keyboard-response","369","678719","0.0-16.0-0.37","5f09d989eff16b266fba44c0","650c16f0f2faf8d7a0d14c09","651c1d12674d4a07e87643f8","null","null","<p style=""font-size: 60px; font-family: BACS"">hYDmtCkbd</p>","","","","","","","","",""
"html-keyboard-response","370","679733","0.0-16.0-0.38","5f09d989eff16b266fba44c0","650c16f0f2faf8d7a0d14c09","651c1d12674d4a07e87643f8","null","null","<p style=""font-size: 60px; font-family: BACS"">hYDmtCkbd</p>","","","","","","","","",""
"html-keyboard-response","371","680736","0.0-16.0-0.39","5f09d989eff16b266fba44c0","650c16f0f2faf8d7a0d14c09","651c1d12674d4a07e87643f8","null","null","<p style=""font-size: 60px; font-family: BACS"">hYDmtCkbd</p>","","","","","","","","",""
"html-keyboard-response","372","681738","0.0-16.0-0.40","5f09d989eff16b266fba44c0","650c16f0f2faf8d7a0d14c09","651c1d12674d4a07e87643f8","null","null","<p style=""font-size: 60px; font-family: BACS"">hYDmtCkbd</p>","","","","","","","","",""
"html-keyboard-response","373","682740","0.0-16.0-0.41","5f09d989eff16b266fba44c0","650c16f0f2faf8d7a0d14c09","651c1d12674d4a07e87643f8","null","null","<p style=""font-size: 60px; font-family: BACS"">hYDmtCkbd</p>","","","","","","","","",""
"html-keyboard-response","374","683751","0.0-16.0-0.42","5f09d989eff16b266fba44c0","650c16f0f2faf8d7a0d14c09","651c1d12674d4a07e87643f8","null","null","<p style=""font-size: 60px; font-family: BACS"">hYDmtCkbd</p>","","","","","","","","",""
"html-keyboard-response","375","684753","0.0-16.0-0.43","5f09d989eff16b266fba44c0","650c16f0f2faf8d7a0d14c09","651c1d12674d4a07e87643f8","null","null","<p style=""font-size: 60px; font-family: BACS"">hYDmtCkbd</p>","","","","","","","","",""
"html-keyboard-response","376","685757","0.0-16.0-0.44","5f09d989eff16b266fba44c0","650c16f0f2faf8d7a0d14c09","651c1d12674d4a07e87643f8","null","null","<p style=""font-size: 60px; font-family: BACS"">hYDmtCkbd</p>","","","","","","","","",""
"html-keyboard-response","377","686759","0.0-16.0-0.45","5f09d989eff16b266fba44c0","650c16f0f2faf8d7a0d14c09","651c1d12674d4a07e87643f8","null","null","<p style=""font-size: 60px; font-family: BACS"">hYDmtCkbd</p>","","","","","","","","",""
"html-keyboard-response","378","687773","0.0-16.0-0.46","5f09d989eff16b266fba44c0","650c16f0f2faf8d7a0d14c09","651c1d12674d4a07e87643f8","null","null","<p style=""font-size: 60px; font-family: BACS"">hYDmtCkbd</p>","","","","","","","","",""
"html-keyboard-response","379","688777","0.0-16.0-0.47","5f09d989eff16b266fba44c0","650c16f0f2faf8d7a0d14c09","651c1d12674d4a07e87643f8","null","null","<p style=""font-size: 60px; font-family: BACS"">hYDmtCkbd</p>","","","","","","","","",""
"html-keyboard-response","380","689793","0.0-16.0-0.48","5f09d989eff16b266fba44c0","650c16f0f2faf8d7a0d14c09","651c1d12674d4a07e87643f8","null","null","<p style=""font-size: 60px; font-family: BACS"">hYDmtCkbd</p>","","","","","","","","",""
"html-keyboard-response","381","690798","0.0-16.0-0.49","5f09d989eff16b266fba44c0","650c16f0f2faf8d7a0d14c09","651c1d12674d4a07e87643f8","null","null","<p style=""font-size: 60px; font-family: BACS"">hYDmtCkbd</p>","","","","","","","","",""
"html-keyboard-response","382","691811","0.0-16.0-0.50","5f09d989eff16b266fba44c0","650c16f0f2faf8d7a0d14c09","651c1d12674d4a07e87643f8","null","null","<p style=""font-size: 60px; font-family: BACS"">hYDmtCkbd</p>","","","","","","","","",""
"html-keyboard-response","383","692813","0.0-16.0-0.51","5f09d989eff16b266fba44c0","650c16f0f2faf8d7a0d14c09","651c1d12674d4a07e87643f8","null","null","<p style=""font-size: 60px; font-family: BACS"">hYDmtCkbd</p>","","","","","","","","",""
"html-keyboard-response","384","693827","0.0-16.0-0.52","5f09d989eff16b266fba44c0","650c16f0f2faf8d7a0d14c09","651c1d12674d4a07e87643f8","null","null","<p style=""font-size: 60px; font-family: BACS"">hYDmtCkbd</p>","","","","","","","","",""
"html-keyboard-response","385","694830","0.0-16.0-0.53","5f09d989eff16b266fba44c0","650c16f0f2faf8d7a0d14c09","651c1d12674d4a07e87643f8","null","null","<p style=""font-size: 60px; font-family: BACS"">hYDmtCkbd</p>","","","","","","","","",""
"html-keyboard-response","386","695831","0.0-16.0-0.54","5f09d989eff16b266fba44c0","650c16f0f2faf8d7a0d14c09","651c1d12674d4a07e87643f8","null","null","<p style=""font-size: 60px; font-family: BACS"">hYDmtCkbd</p>","","","","","","","","",""
"html-keyboard-response","387","696833","0.0-16.0-0.55","5f09d989eff16b266fba44c0","650c16f0f2faf8d7a0d14c09","651c1d12674d4a07e87643f8","null","null","<p style=""font-size: 60px; font-family: BACS"">hYDmtCkbd</p>","","","","","","","","",""
"html-keyboard-response","388","697845","0.0-16.0-0.56","5f09d989eff16b266fba44c0","650c16f0f2faf8d7a0d14c09","651c1d12674d4a07e87643f8","null","null","<p style=""font-size: 60px; font-family: BACS"">hYDmtCkbd</p>","","","","","","","","",""
"html-keyboard-response","389","698850","0.0-16.0-0.57","5f09d989eff16b266fba44c0","650c16f0f2faf8d7a0d14c09","651c1d12674d4a07e87643f8","null","null","<p style=""font-size: 60px; font-family: BACS"">hYDmtCkbd</p>","","","","","","","","",""
"html-keyboard-response","390","699853","0.0-16.0-0.58","5f09d989eff16b266fba44c0","650c16f0f2faf8d7a0d14c09","651c1d12674d4a07e87643f8","null","null","<p style=""font-size: 60px; font-family: BACS"">hYDmtCkbd</p>","","","","","","","","",""
"html-keyboard-response","391","700866","0.0-16.0-0.59","5f09d989eff16b266fba44c0","650c16f0f2faf8d7a0d14c09","651c1d12674d4a07e87643f8","null","null","<p style=""font-size: 60px; font-family: BACS"">hYDmtCkbd</p>","","","","","","","","",""
"html-keyboard-response","392","701869","0.0-16.0-0.60","5f09d989eff16b266fba44c0","650c16f0f2faf8d7a0d14c09","651c1d12674d4a07e87643f8","null","null","<p style=""font-size: 60px; font-family: BACS"">hYDmtCkbd</p>","","","","","","","","",""
"html-keyboard-response","393","702870","0.0-16.0-0.61","5f09d989eff16b266fba44c0","650c16f0f2faf8d7a0d14c09","651c1d12674d4a07e87643f8","null","null","<p style=""font-size: 60px; font-family: BACS"">hYDmtCkbd</p>","","","","","","","","",""
"html-keyboard-response","394","703886","0.0-16.0-0.62","5f09d989eff16b266fba44c0","650c16f0f2faf8d7a0d14c09","651c1d12674d4a07e87643f8","null","null","<p style=""font-size: 60px; font-family: BACS"">hYDmtCkbd</p>","","","","","","","","",""
"html-keyboard-response","395","704888","0.0-16.0-0.63","5f09d989eff16b266fba44c0","650c16f0f2faf8d7a0d14c09","651c1d12674d4a07e87643f8","null","null","<p style=""font-size: 60px; font-family: BACS"">hYDmtCkbd</p>","","","","","","","","",""
"html-keyboard-response","396","705889","0.0-16.0-0.64","5f09d989eff16b266fba44c0","650c16f0f2faf8d7a0d14c09","651c1d12674d4a07e87643f8","null","null","<p style=""font-size: 60px; font-family: BACS"">hYDmtCkbd</p>","","","","","","","","",""
"html-keyboard-response","397","706904","0.0-16.0-0.65","5f09d989eff16b266fba44c0","650c16f0f2faf8d7a0d14c09","651c1d12674d4a07e87643f8","null","null","<p style=""font-size: 60px; font-family: BACS"">hYDmtCkbd</p>","","","","","","","","",""
"html-keyboard-response","398","707907","0.0-16.0-0.66","5f09d989eff16b266fba44c0","650c16f0f2faf8d7a0d14c09","651c1d12674d4a07e87643f8","null","null","<p style=""font-size: 60px; font-family: BACS"">hYDmtCkbd</p>","","","","","","","","",""
"html-keyboard-response","399","708920","0.0-16.0-0.67","5f09d989eff16b266fba44c0","650c16f0f2faf8d7a0d14c09","651c1d12674d4a07e87643f8","null","null","<p style=""font-size: 60px; font-family: BACS"">hYDmtCkbd</p>","","","","","","","","",""
