"trial_type","trial_index","time_elapsed","internal_node_id","subject_id","study_id","session_id","rt","response","stimulus","success","item","task","correct_response","testing_condition","correct","target","confound","name"
"pavlovia","0","1302","0.0-0.0","5f858743256d25036d9fa693","650c16f0f2faf8d7a0d14c09","651c1bddc73b6eea8fa971d1","","","","","","","","","","","",""
"survey-html-form","1","6443","0.0-1.0","5f858743256d25036d9fa693","650c16f0f2faf8d7a0d14c09","651c1bddc73b6eea8fa971d1","5140","{""ID"":""5f858743256d25036d9fa693""}","","","","","","","","","",""
"html-keyboard-response","2","13472","0.0-2.0","5f858743256d25036d9fa693","650c16f0f2faf8d7a0d14c09","651c1bddc73b6eea8fa971d1","7029"," ","<p style=""font-size: 15px;"">Before beginning, we ask that you read the consent information and confirm your agreement to participate in the experiment.</p>
      <p style=""font-size: 15px;""> We ask that you remember that this is a research project and that your participation is entirely voluntary. You can stop your participation at any time, without needing to provide any explanation. The study we're asking you to participate in aims at examining how readers process written words. You will be engaged in a session of apprximately 20 minutes, followed by a brief questionnaire. You will have the opportunity to take a few breaks during the experiment. You will be paid £4 for your participation, corresponding to a rate of £8/hour. While this experiment looks at cognitive faculties, this experiment doesn't constitute clinical proof of eventual pathologies.</p>
      <p style=""font-size: 15px;"">All of the information collected thanks to yours and others' participation will be held in a secure password-protected server, and will not be shared with anyone not authorised to view it. Your personal information will be kept with an arbitrary participant ID. Thanks to this data anonymity process, any researcher analysing the data won't be able to track the information back to a specific participant. Therefore, this process will make identifying you impossibile, even when results from the study will be published in scientific reviews, presented at congresses, or at any other public forum. More generally, the collected data will be treated in accordance with the laws on privacy and conformity to the Legislative Degree n. 196 ""Code regarding the protection of personal data"" of the 30th of June 2003 and to the European Regulation 2016/670 (General Data Protection Regulation - GDPR). The Data Protection Officer is Avv. Valentina Carollo, who can be contacted at the following email addresses: <a href=""mailto:dpo@sissa.it"">dpo@sissa.it</a> or <a href=""mailto:rpd@sissa.it"">rpd@sissa.it</a> - PEC: <a href=""mailto:protocollo@pec.sissa.it"">protocollo@pec.sissa.it</a>.</p>
      <p style=""font-size: 15px;""> Before expressing your consent to participate, we would like to remind you again that in case you need explanations on any aspect of the experimental procedure, the researcher is at your disposition (<a href=""mailto:aliebelt@sissa.it"">aliebelt@sissa.it</a>, <a href=""mailto:davide.crepaldi@sissa.it"">davide.crepaldi@sissa.it</a>).</p>
      <p style=""font-size: 15px;"">If you would like to download the informed consent form, you can do so here: <a href=""BASL-Informed_Consent.pdf"" download>informed consent form</a>.</p>
      <p style=""font-size: 15px;"">We ask that you press the spacebar to proceed to the consent section.</p>","","","","","","","","",""
"survey-html-form","3","21304","0.0-3.0","5f858743256d25036d9fa693","650c16f0f2faf8d7a0d14c09","651c1bddc73b6eea8fa971d1","7832","{""consent1"":""YES"",""consent2"":""YES"",""consent3"":""YES"",""consent4"":""YES"",""consent5"":""YES"",""consent6"":""YES""}","","","","","","","","","",""
"fullscreen","4","26796","0.0-4.0","5f858743256d25036d9fa693","650c16f0f2faf8d7a0d14c09","651c1bddc73b6eea8fa971d1","","","","true","","","","","","","",""
"html-keyboard-response","5","42642","0.0-5.0","5f858743256d25036d9fa693","650c16f0f2faf8d7a0d14c09","651c1bddc73b6eea8fa971d1","15845"," ","<p>Welcome, and thank you very much for your time!</p>
      <p>In this experiment, you'll be a language expert who's been asked to take a look at words that Earth has received in its first communication with aliens. Your task, in this first part of the experiment, is to pay close attention to the words you'll be shown; later, world leaders will ask you questions on what you saw. The words will be shown to you quite quickly; it seems that the aliens were in a hurry :-)</p>
      <p>Press the spacebar to continue.<p>","","","","","","","","",""
"html-keyboard-response","6","42694","0.0-6.0","5f858743256d25036d9fa693","650c16f0f2faf8d7a0d14c09","651c1bddc73b6eea8fa971d1","null","null","<p style=""font-size: 120px; font-family: BACS""> </p>","","","","","","","","",""
"html-keyboard-response","7","47732","0.0-7.0","5f858743256d25036d9fa693","650c16f0f2faf8d7a0d14c09","651c1bddc73b6eea8fa971d1","5037"," ","<p>Here is an example of the words you'll see:</p>
      <img src='esempio.png' height='400px'>
      <p>When you're ready to begin, press the spacebar.</p></div>","","","","","","","","",""
"html-keyboard-response","8","48743","0.0-8.0-0.0","5f858743256d25036d9fa693","650c16f0f2faf8d7a0d14c09","651c1bddc73b6eea8fa971d1","null","null","<p style=""font-size: 60px; font-family: BACS"">chAhYKPB</p>","","","","","","","","",""
"html-keyboard-response","9","49745","0.0-8.0-0.1","5f858743256d25036d9fa693","650c16f0f2faf8d7a0d14c09","651c1bddc73b6eea8fa971d1","null","null","<p style=""font-size: 60px; font-family: BACS"">OZkbkdrO</p>","","","","","","","","",""
"html-keyboard-response","10","50748","0.0-8.0-0.2","5f858743256d25036d9fa693","650c16f0f2faf8d7a0d14c09","651c1bddc73b6eea8fa971d1","null","null","<p style=""font-size: 60px; font-family: BACS"">chAhYDTk</p>","","","","","","","","",""
"html-keyboard-response","11","51750","0.0-8.0-0.3","5f858743256d25036d9fa693","650c16f0f2faf8d7a0d14c09","651c1bddc73b6eea8fa971d1","null","null","<p style=""font-size: 60px; font-family: BACS"">lCbcmYKPB</p>","","","","","","","","",""
"html-keyboard-response","12","52753","0.0-8.0-0.4","5f858743256d25036d9fa693","650c16f0f2faf8d7a0d14c09","651c1bddc73b6eea8fa971d1","null","null","<p style=""font-size: 60px; font-family: BACS"">chAhOMC</p>","","","","","","","","",""
"html-keyboard-response","13","53755","0.0-8.0-0.5","5f858743256d25036d9fa693","650c16f0f2faf8d7a0d14c09","651c1bddc73b6eea8fa971d1","null","null","<p style=""font-size: 60px; font-family: BACS"">EYtYRAkd</p>","","","","","","","","",""
"html-keyboard-response","14","54758","0.0-8.0-0.6","5f858743256d25036d9fa693","650c16f0f2faf8d7a0d14c09","651c1bddc73b6eea8fa971d1","null","null","<p style=""font-size: 60px; font-family: BACS"">lCbcmYDTk</p>","","","","","","","","",""
"html-keyboard-response","15","55760","0.0-8.0-0.7","5f858743256d25036d9fa693","650c16f0f2faf8d7a0d14c09","651c1bddc73b6eea8fa971d1","null","null","<p style=""font-size: 60px; font-family: BACS"">amJmGrub</p>","","","","","","","","",""
"html-keyboard-response","16","56763","0.0-8.0-0.8","5f858743256d25036d9fa693","650c16f0f2faf8d7a0d14c09","651c1bddc73b6eea8fa971d1","null","null","<p style=""font-size: 60px; font-family: BACS"">AZlLNkdrO</p>","","","","","","","","",""
"html-keyboard-response","17","57765","0.0-8.0-0.9","5f858743256d25036d9fa693","650c16f0f2faf8d7a0d14c09","651c1bddc73b6eea8fa971d1","null","null","<p style=""font-size: 60px; font-family: BACS"">krUQuUY</p>","","","","","","","","",""
"html-keyboard-response","18","58768","0.0-8.0-0.10","5f858743256d25036d9fa693","650c16f0f2faf8d7a0d14c09","651c1bddc73b6eea8fa971d1","null","null","<p style=""font-size: 60px; font-family: BACS"">OcYMDKP</p>","","","","","","","","",""
"html-keyboard-response","19","59771","0.0-8.0-0.11","5f858743256d25036d9fa693","650c16f0f2faf8d7a0d14c09","651c1bddc73b6eea8fa971d1","null","null","<p style=""font-size: 60px; font-family: BACS"">UdumduUY</p>","","","","","","","","",""
"html-keyboard-response","20","60773","0.0-8.0-0.12","5f858743256d25036d9fa693","650c16f0f2faf8d7a0d14c09","651c1bddc73b6eea8fa971d1","null","null","<p style=""font-size: 60px; font-family: BACS"">MlthOMC</p>","","","","","","","","",""
"html-keyboard-response","21","61775","0.0-8.0-0.13","5f858743256d25036d9fa693","650c16f0f2faf8d7a0d14c09","651c1bddc73b6eea8fa971d1","null","null","<p style=""font-size: 60px; font-family: BACS"">DhCPYDTk</p>","","","","","","","","",""
"html-keyboard-response","22","62778","0.0-8.0-0.14","5f858743256d25036d9fa693","650c16f0f2faf8d7a0d14c09","651c1bddc73b6eea8fa971d1","null","null","<p style=""font-size: 60px; font-family: BACS"">mhtcOMC</p>","","","","","","","","",""
"html-keyboard-response","23","63780","0.0-8.0-0.15","5f858743256d25036d9fa693","650c16f0f2faf8d7a0d14c09","651c1bddc73b6eea8fa971d1","null","null","<p style=""font-size: 60px; font-family: BACS"">QbkAcrGl</p>","","","","","","","","",""
"html-keyboard-response","24","64783","0.0-8.0-0.16","5f858743256d25036d9fa693","650c16f0f2faf8d7a0d14c09","651c1bddc73b6eea8fa971d1","null","null","<p style=""font-size: 60px; font-family: BACS"">mhtcYDTk</p>","","","","","","","","",""
"html-keyboard-response","25","65786","0.0-8.0-0.17","5f858743256d25036d9fa693","650c16f0f2faf8d7a0d14c09","651c1bddc73b6eea8fa971d1","null","null","<p style=""font-size: 60px; font-family: BACS"">QbkAcOJlN</p>","","","","","","","","",""
"html-keyboard-response","26","66789","0.0-8.0-0.18","5f858743256d25036d9fa693","650c16f0f2faf8d7a0d14c09","651c1bddc73b6eea8fa971d1","null","null","<p style=""font-size: 60px; font-family: BACS"">lCbcmOMC</p>","","","","","","","","",""
"html-keyboard-response","27","67792","0.0-8.0-0.19","5f858743256d25036d9fa693","650c16f0f2faf8d7a0d14c09","651c1bddc73b6eea8fa971d1","null","null","<p style=""font-size: 60px; font-family: BACS"">YdudOJlN</p>","","","","","","","","",""
"html-keyboard-response","28","68794","0.0-8.0-0.20","5f858743256d25036d9fa693","650c16f0f2faf8d7a0d14c09","651c1bddc73b6eea8fa971d1","null","null","<p style=""font-size: 60px; font-family: BACS"">AZlLNuUY</p>","","","","","","","","",""
"html-keyboard-response","29","69797","0.0-8.0-0.21","5f858743256d25036d9fa693","650c16f0f2faf8d7a0d14c09","651c1bddc73b6eea8fa971d1","null","null","<p style=""font-size: 60px; font-family: BACS"">EYtYRYDTk</p>","","","","","","","","",""
"html-keyboard-response","30","70799","0.0-8.0-0.22","5f858743256d25036d9fa693","650c16f0f2faf8d7a0d14c09","651c1bddc73b6eea8fa971d1","null","null","<p style=""font-size: 60px; font-family: BACS"">YlYcOMC</p>","","","","","","","","",""
"html-keyboard-response","31","71801","0.0-8.0-0.23","5f858743256d25036d9fa693","650c16f0f2faf8d7a0d14c09","651c1bddc73b6eea8fa971d1","null","null","<p style=""font-size: 60px; font-family: BACS"">UdumdkdrO</p>","","","","","","","","",""
"html-keyboard-response","32","72805","0.0-8.0-0.24","5f858743256d25036d9fa693","650c16f0f2faf8d7a0d14c09","651c1bddc73b6eea8fa971d1","null","null","<p style=""font-size: 60px; font-family: BACS"">OcYMYDTk</p>","","","","","","","","",""
"html-keyboard-response","33","73807","0.0-8.0-0.25","5f858743256d25036d9fa693","650c16f0f2faf8d7a0d14c09","651c1bddc73b6eea8fa971d1","null","null","<p style=""font-size: 60px; font-family: BACS"">DOchlDKP</p>","","","","","","","","",""
"html-keyboard-response","34","74809","0.0-8.0-0.26","5f858743256d25036d9fa693","650c16f0f2faf8d7a0d14c09","651c1bddc73b6eea8fa971d1","null","null","<p style=""font-size: 60px; font-family: BACS"">YdudkdrO</p>","","","","","","","","",""
"html-keyboard-response","35","75813","0.0-8.0-0.27","5f858743256d25036d9fa693","650c16f0f2faf8d7a0d14c09","651c1bddc73b6eea8fa971d1","null","null","<p style=""font-size: 60px; font-family: BACS"">amJmOJlN</p>","","","","","","","","",""
"html-keyboard-response","36","76815","0.0-8.0-0.28","5f858743256d25036d9fa693","650c16f0f2faf8d7a0d14c09","651c1bddc73b6eea8fa971d1","null","null","<p style=""font-size: 60px; font-family: BACS"">lCbcmDKP</p>","","","","","","","","",""
"html-keyboard-response","37","77818","0.0-8.0-0.29","5f858743256d25036d9fa693","650c16f0f2faf8d7a0d14c09","651c1bddc73b6eea8fa971d1","null","null","<p style=""font-size: 60px; font-family: BACS"">DMRPAkd</p>","","","","","","","","",""
"html-keyboard-response","38","78820","0.0-8.0-0.30","5f858743256d25036d9fa693","650c16f0f2faf8d7a0d14c09","651c1bddc73b6eea8fa971d1","null","null","<p style=""font-size: 60px; font-family: BACS"">mhtcYKPB</p>","","","","","","","","",""
"html-keyboard-response","39","79822","0.0-8.0-0.31","5f858743256d25036d9fa693","650c16f0f2faf8d7a0d14c09","651c1bddc73b6eea8fa971d1","null","null","<p style=""font-size: 60px; font-family: BACS"">YlYcAkd</p>","","","","","","","","",""
"html-keyboard-response","40","80825","0.0-8.0-0.32","5f858743256d25036d9fa693","650c16f0f2faf8d7a0d14c09","651c1bddc73b6eea8fa971d1","null","null","<p style=""font-size: 60px; font-family: BACS"">krUQOJlN</p>","","","","","","","","",""
"html-keyboard-response","41","81827","0.0-8.0-0.33","5f858743256d25036d9fa693","650c16f0f2faf8d7a0d14c09","651c1bddc73b6eea8fa971d1","null","null","<p style=""font-size: 60px; font-family: BACS"">YdudrGl</p>","","","","","","","","",""
"html-keyboard-response","42","82844","0.0-8.0-0.34","5f858743256d25036d9fa693","650c16f0f2faf8d7a0d14c09","651c1bddc73b6eea8fa971d1","null","null","<p style=""font-size: 60px; font-family: BACS"">OZkbOJlN</p>","","","","","","","","",""
"html-keyboard-response","43","83847","0.0-8.0-0.35","5f858743256d25036d9fa693","650c16f0f2faf8d7a0d14c09","651c1bddc73b6eea8fa971d1","null","null","<p style=""font-size: 60px; font-family: BACS"">krUQGrub</p>","","","","","","","","",""
"html-keyboard-response","44","84851","0.0-8.0-0.36","5f858743256d25036d9fa693","650c16f0f2faf8d7a0d14c09","651c1bddc73b6eea8fa971d1","null","null","<p style=""font-size: 60px; font-family: BACS"">DhCPDKP</p>","","","","","","","","",""
"html-keyboard-response","45","85854","0.0-8.0-0.37","5f858743256d25036d9fa693","650c16f0f2faf8d7a0d14c09","651c1bddc73b6eea8fa971d1","null","null","<p style=""font-size: 60px; font-family: BACS"">QbkAckdrO</p>","","","","","","","","",""
"html-keyboard-response","46","86856","0.0-8.0-0.38","5f858743256d25036d9fa693","650c16f0f2faf8d7a0d14c09","651c1bddc73b6eea8fa971d1","null","null","<p style=""font-size: 60px; font-family: BACS"">OZkbrGl</p>","","","","","","","","",""
"html-keyboard-response","47","87873","0.0-8.0-0.39","5f858743256d25036d9fa693","650c16f0f2faf8d7a0d14c09","651c1bddc73b6eea8fa971d1","null","null","<p style=""font-size: 60px; font-family: BACS"">NAacQuUY</p>","","","","","","","","",""
"html-keyboard-response","48","88874","0.0-8.0-0.40","5f858743256d25036d9fa693","650c16f0f2faf8d7a0d14c09","651c1bddc73b6eea8fa971d1","null","null","<p style=""font-size: 60px; font-family: BACS"">EYtYROMC</p>","","","","","","","","",""
"html-keyboard-response","49","89876","0.0-8.0-0.41","5f858743256d25036d9fa693","650c16f0f2faf8d7a0d14c09","651c1bddc73b6eea8fa971d1","null","null","<p style=""font-size: 60px; font-family: BACS"">AZlLNGrub</p>","","","","","","","","",""
"html-keyboard-response","50","90880","0.0-8.0-0.42","5f858743256d25036d9fa693","650c16f0f2faf8d7a0d14c09","651c1bddc73b6eea8fa971d1","null","null","<p style=""font-size: 60px; font-family: BACS"">YlYcYDTk</p>","","","","","","","","",""
"html-keyboard-response","51","92175","0.0-8.0-0.43","5f858743256d25036d9fa693","650c16f0f2faf8d7a0d14c09","651c1bddc73b6eea8fa971d1","null","null","<p style=""font-size: 60px; font-family: BACS"">amJmuUY</p>","","","","","","","","",""
"html-keyboard-response","52","93179","0.0-8.0-0.44","5f858743256d25036d9fa693","650c16f0f2faf8d7a0d14c09","651c1bddc73b6eea8fa971d1","null","null","<p style=""font-size: 60px; font-family: BACS"">DhCPAkd</p>","","","","","","","","",""
"html-keyboard-response","53","94183","0.0-8.0-0.45","5f858743256d25036d9fa693","650c16f0f2faf8d7a0d14c09","651c1bddc73b6eea8fa971d1","null","null","<p style=""font-size: 60px; font-family: BACS"">dkLlOJlN</p>","","","","","","","","",""
"html-keyboard-response","54","95185","0.0-8.0-0.46","5f858743256d25036d9fa693","650c16f0f2faf8d7a0d14c09","651c1bddc73b6eea8fa971d1","null","null","<p style=""font-size: 60px; font-family: BACS"">DOchlAkd</p>","","","","","","","","",""
"html-keyboard-response","55","96190","0.0-8.0-0.47","5f858743256d25036d9fa693","650c16f0f2faf8d7a0d14c09","651c1bddc73b6eea8fa971d1","null","null","<p style=""font-size: 60px; font-family: BACS"">NAacQOJlN</p>","","","","","","","","",""
"html-keyboard-response","56","97191","0.0-8.0-0.48","5f858743256d25036d9fa693","650c16f0f2faf8d7a0d14c09","651c1bddc73b6eea8fa971d1","null","null","<p style=""font-size: 60px; font-family: BACS"">DOchlYKPB</p>","","","","","","","","",""
"html-keyboard-response","57","98192","0.0-8.0-0.49","5f858743256d25036d9fa693","650c16f0f2faf8d7a0d14c09","651c1bddc73b6eea8fa971d1","null","null","<p style=""font-size: 60px; font-family: BACS"">bmbNGrub</p>","","","","","","","","",""
"html-keyboard-response","58","99204","0.0-8.0-0.50","5f858743256d25036d9fa693","650c16f0f2faf8d7a0d14c09","651c1bddc73b6eea8fa971d1","null","null","<p style=""font-size: 60px; font-family: BACS"">mhtcAkd</p>","","","","","","","","",""
"html-keyboard-response","59","100215","0.0-8.0-0.51","5f858743256d25036d9fa693","650c16f0f2faf8d7a0d14c09","651c1bddc73b6eea8fa971d1","null","null","<p style=""font-size: 60px; font-family: BACS"">NAacQrGl</p>","","","","","","","","",""
"html-keyboard-response","60","101218","0.0-8.0-0.52","5f858743256d25036d9fa693","650c16f0f2faf8d7a0d14c09","651c1bddc73b6eea8fa971d1","null","null","<p style=""font-size: 60px; font-family: BACS"">dkLluUY</p>","","","","","","","","",""
"html-keyboard-response","61","102229","0.0-8.0-0.53","5f858743256d25036d9fa693","650c16f0f2faf8d7a0d14c09","651c1bddc73b6eea8fa971d1","null","null","<p style=""font-size: 60px; font-family: BACS"">UdumdrGl</p>","","","","","","","","",""
"html-keyboard-response","62","103231","0.0-8.0-0.54","5f858743256d25036d9fa693","650c16f0f2faf8d7a0d14c09","651c1bddc73b6eea8fa971d1","null","null","<p style=""font-size: 60px; font-family: BACS"">krUQkdrO</p>","","","","","","","","",""
"html-keyboard-response","63","104247","0.0-8.0-0.55","5f858743256d25036d9fa693","650c16f0f2faf8d7a0d14c09","651c1bddc73b6eea8fa971d1","null","null","<p style=""font-size: 60px; font-family: BACS"">MlthAkd</p>","","","","","","","","",""
"html-keyboard-response","64","105255","0.0-8.0-0.56","5f858743256d25036d9fa693","650c16f0f2faf8d7a0d14c09","651c1bddc73b6eea8fa971d1","null","null","<p style=""font-size: 60px; font-family: BACS"">DMRPYKPB</p>","","","","","","","","",""
"html-keyboard-response","65","106264","0.0-8.0-0.57","5f858743256d25036d9fa693","650c16f0f2faf8d7a0d14c09","651c1bddc73b6eea8fa971d1","null","null","<p style=""font-size: 60px; font-family: BACS"">NAacQGrub</p>","","","","","","","","",""
"html-keyboard-response","66","107274","0.0-8.0-0.58","5f858743256d25036d9fa693","650c16f0f2faf8d7a0d14c09","651c1bddc73b6eea8fa971d1","null","null","<p style=""font-size: 60px; font-family: BACS"">amJmrGl</p>","","","","","","","","",""
"html-keyboard-response","67","108283","0.0-8.0-0.59","5f858743256d25036d9fa693","650c16f0f2faf8d7a0d14c09","651c1bddc73b6eea8fa971d1","null","null","<p style=""font-size: 60px; font-family: BACS"">chAhDKP</p>","","","","","","","","",""
"html-keyboard-response","68","109295","0.0-8.0-0.60","5f858743256d25036d9fa693","650c16f0f2faf8d7a0d14c09","651c1bddc73b6eea8fa971d1","null","null","<p style=""font-size: 60px; font-family: BACS"">DMRPOMC</p>","","","","","","","","",""
"html-keyboard-response","69","110296","0.0-8.0-0.61","5f858743256d25036d9fa693","650c16f0f2faf8d7a0d14c09","651c1bddc73b6eea8fa971d1","null","null","<p style=""font-size: 60px; font-family: BACS"">UdumdGrub</p>","","","","","","","","",""
"html-keyboard-response","70","111304","0.0-8.0-0.62","5f858743256d25036d9fa693","650c16f0f2faf8d7a0d14c09","651c1bddc73b6eea8fa971d1","null","null","<p style=""font-size: 60px; font-family: BACS"">YlYcYKPB</p>","","","","","","","","",""
"html-keyboard-response","71","112313","0.0-8.0-0.63","5f858743256d25036d9fa693","650c16f0f2faf8d7a0d14c09","651c1bddc73b6eea8fa971d1","null","null","<p style=""font-size: 60px; font-family: BACS"">MlthDKP</p>","","","","","","","","",""
"html-keyboard-response","72","113325","0.0-8.0-0.64","5f858743256d25036d9fa693","650c16f0f2faf8d7a0d14c09","651c1bddc73b6eea8fa971d1","null","null","<p style=""font-size: 60px; font-family: BACS"">DhCPOMC</p>","","","","","","","","",""
"html-keyboard-response","73","114341","0.0-8.0-0.65","5f858743256d25036d9fa693","650c16f0f2faf8d7a0d14c09","651c1bddc73b6eea8fa971d1","null","null","<p style=""font-size: 60px; font-family: BACS"">bmbNuUY</p>","","","","","","","","",""
"html-keyboard-response","74","115355","0.0-8.0-0.66","5f858743256d25036d9fa693","650c16f0f2faf8d7a0d14c09","651c1bddc73b6eea8fa971d1","null","null","<p style=""font-size: 60px; font-family: BACS"">EYtYRDKP</p>","","","","","","","","",""
"html-keyboard-response","75","116370","0.0-8.0-0.67","5f858743256d25036d9fa693","650c16f0f2faf8d7a0d14c09","651c1bddc73b6eea8fa971d1","null","null","<p style=""font-size: 60px; font-family: BACS"">bmbNkdrO</p>","","","","","","","","",""
"html-keyboard-response","76","117372","0.0-8.0-0.68","5f858743256d25036d9fa693","650c16f0f2faf8d7a0d14c09","651c1bddc73b6eea8fa971d1","null","null","<p style=""font-size: 60px; font-family: BACS"">QbkAcGrub</p>","","","","","","","","",""
"html-keyboard-response","77","118374","0.0-8.0-0.69","5f858743256d25036d9fa693","650c16f0f2faf8d7a0d14c09","651c1bddc73b6eea8fa971d1","null","null","<p style=""font-size: 60px; font-family: BACS"">DMRPDKP</p>","","","","","","","","",""
"html-keyboard-response","78","119377","0.0-8.0-0.70","5f858743256d25036d9fa693","650c16f0f2faf8d7a0d14c09","651c1bddc73b6eea8fa971d1","null","null","<p style=""font-size: 60px; font-family: BACS"">dkLlrGl</p>","","","","","","","","",""
"html-keyboard-response","79","120378","0.0-8.0-0.71","5f858743256d25036d9fa693","650c16f0f2faf8d7a0d14c09","651c1bddc73b6eea8fa971d1","null","null","<p style=""font-size: 60px; font-family: BACS"">DOchlYDTk</p>","","","","","","","","",""
"html-keyboard-response","80","121382","0.0-8.0-0.72","5f858743256d25036d9fa693","650c16f0f2faf8d7a0d14c09","651c1bddc73b6eea8fa971d1","null","null","<p style=""font-size: 60px; font-family: BACS"">OcYMYKPB</p>","","","","","","","","",""
"html-keyboard-response","81","122385","0.0-8.0-0.73","5f858743256d25036d9fa693","650c16f0f2faf8d7a0d14c09","651c1bddc73b6eea8fa971d1","null","null","<p style=""font-size: 60px; font-family: BACS"">AZlLNOJlN</p>","","","","","","","","",""
"html-keyboard-response","82","123387","0.0-8.0-0.74","5f858743256d25036d9fa693","650c16f0f2faf8d7a0d14c09","651c1bddc73b6eea8fa971d1","null","null","<p style=""font-size: 60px; font-family: BACS"">bmbNrGl</p>","","","","","","","","",""
"html-keyboard-response","83","124404","0.0-8.0-0.75","5f858743256d25036d9fa693","650c16f0f2faf8d7a0d14c09","651c1bddc73b6eea8fa971d1","null","null","<p style=""font-size: 60px; font-family: BACS"">MlthYKPB</p>","","","","","","","","",""
"html-keyboard-response","84","125407","0.0-8.0-0.76","5f858743256d25036d9fa693","650c16f0f2faf8d7a0d14c09","651c1bddc73b6eea8fa971d1","null","null","<p style=""font-size: 60px; font-family: BACS"">OcYMAkd</p>","","","","","","","","",""
"html-keyboard-response","85","126410","0.0-8.0-0.77","5f858743256d25036d9fa693","650c16f0f2faf8d7a0d14c09","651c1bddc73b6eea8fa971d1","null","null","<p style=""font-size: 60px; font-family: BACS"">OZkbuUY</p>","","","","","","","","",""
"html-keyboard-response","86","127411","0.0-8.0-0.78","5f858743256d25036d9fa693","650c16f0f2faf8d7a0d14c09","651c1bddc73b6eea8fa971d1","null","null","<p style=""font-size: 60px; font-family: BACS"">YdudGrub</p>","","","","","","","","",""
"html-keyboard-response","87","128414","0.0-8.0-0.79","5f858743256d25036d9fa693","650c16f0f2faf8d7a0d14c09","651c1bddc73b6eea8fa971d1","null","null","<p style=""font-size: 60px; font-family: BACS"">dkLlkdrO</p>","","","","","","","","",""
"html-keyboard-response","88","135574","0.0-9.0","5f858743256d25036d9fa693","650c16f0f2faf8d7a0d14c09","651c1bddc73b6eea8fa971d1","7159"," ","<p>Great, you've seen the first block of words. You may now take a short break.</p>
      <p>Press the spacebar when you're ready to continue.</p>","","","","","","","","",""
"html-keyboard-response","89","136592","0.0-10.0-0.0","5f858743256d25036d9fa693","650c16f0f2faf8d7a0d14c09","651c1bddc73b6eea8fa971d1","null","null","<p style=""font-size: 60px; font-family: BACS"">lCbcmOMC</p>","","","","","","","","",""
"html-keyboard-response","90","137595","0.0-10.0-0.1","5f858743256d25036d9fa693","650c16f0f2faf8d7a0d14c09","651c1bddc73b6eea8fa971d1","null","null","<p style=""font-size: 60px; font-family: BACS"">DMRPYKPB</p>","","","","","","","","",""
"html-keyboard-response","91","138608","0.0-10.0-0.2","5f858743256d25036d9fa693","650c16f0f2faf8d7a0d14c09","651c1bddc73b6eea8fa971d1","null","null","<p style=""font-size: 60px; font-family: BACS"">AZlLNGrub</p>","","","","","","","","",""
"html-keyboard-response","92","139621","0.0-10.0-0.3","5f858743256d25036d9fa693","650c16f0f2faf8d7a0d14c09","651c1bddc73b6eea8fa971d1","null","null","<p style=""font-size: 60px; font-family: BACS"">YlYcYKPB</p>","","","","","","","","",""
"html-keyboard-response","93","140624","0.0-10.0-0.4","5f858743256d25036d9fa693","650c16f0f2faf8d7a0d14c09","651c1bddc73b6eea8fa971d1","null","null","<p style=""font-size: 60px; font-family: BACS"">bmbNuUY</p>","","","","","","","","",""
"html-keyboard-response","94","141626","0.0-10.0-0.5","5f858743256d25036d9fa693","650c16f0f2faf8d7a0d14c09","651c1bddc73b6eea8fa971d1","null","null","<p style=""font-size: 60px; font-family: BACS"">YlYcAkd</p>","","","","","","","","",""
"html-keyboard-response","95","142641","0.0-10.0-0.6","5f858743256d25036d9fa693","650c16f0f2faf8d7a0d14c09","651c1bddc73b6eea8fa971d1","null","null","<p style=""font-size: 60px; font-family: BACS"">OcYMYDTk</p>","","","","","","","","",""
"html-keyboard-response","96","143650","0.0-10.0-0.7","5f858743256d25036d9fa693","650c16f0f2faf8d7a0d14c09","651c1bddc73b6eea8fa971d1","null","null","<p style=""font-size: 60px; font-family: BACS"">NAacQOJlN</p>","","","","","","","","",""
"html-keyboard-response","97","144663","0.0-10.0-0.8","5f858743256d25036d9fa693","650c16f0f2faf8d7a0d14c09","651c1bddc73b6eea8fa971d1","null","null","<p style=""font-size: 60px; font-family: BACS"">krUQGrub</p>","","","","","","","","",""
"html-keyboard-response","98","145675","0.0-10.0-0.9","5f858743256d25036d9fa693","650c16f0f2faf8d7a0d14c09","651c1bddc73b6eea8fa971d1","null","null","<p style=""font-size: 60px; font-family: BACS"">DhCPAkd</p>","","","","","","","","",""
"html-keyboard-response","99","146691","0.0-10.0-0.10","5f858743256d25036d9fa693","650c16f0f2faf8d7a0d14c09","651c1bddc73b6eea8fa971d1","null","null","<p style=""font-size: 60px; font-family: BACS"">mhtcYKPB</p>","","","","","","","","",""
"html-keyboard-response","100","147706","0.0-10.0-0.11","5f858743256d25036d9fa693","650c16f0f2faf8d7a0d14c09","651c1bddc73b6eea8fa971d1","null","null","<p style=""font-size: 60px; font-family: BACS"">QbkAckdrO</p>","","","","","","","","",""
"html-keyboard-response","101","148708","0.0-10.0-0.12","5f858743256d25036d9fa693","650c16f0f2faf8d7a0d14c09","651c1bddc73b6eea8fa971d1","null","null","<p style=""font-size: 60px; font-family: BACS"">mhtcOMC</p>","","","","","","","","",""
"html-keyboard-response","102","149722","0.0-10.0-0.13","5f858743256d25036d9fa693","650c16f0f2faf8d7a0d14c09","651c1bddc73b6eea8fa971d1","null","null","<p style=""font-size: 60px; font-family: BACS"">MlthAkd</p>","","","","","","","","",""
"html-keyboard-response","103","150733","0.0-10.0-0.14","5f858743256d25036d9fa693","650c16f0f2faf8d7a0d14c09","651c1bddc73b6eea8fa971d1","null","null","<p style=""font-size: 60px; font-family: BACS"">QbkAcGrub</p>","","","","","","","","",""
"html-keyboard-response","104","151736","0.0-10.0-0.15","5f858743256d25036d9fa693","650c16f0f2faf8d7a0d14c09","651c1bddc73b6eea8fa971d1","null","null","<p style=""font-size: 60px; font-family: BACS"">chAhYKPB</p>","","","","","","","","",""
"html-keyboard-response","105","152742","0.0-10.0-0.16","5f858743256d25036d9fa693","650c16f0f2faf8d7a0d14c09","651c1bddc73b6eea8fa971d1","null","null","<p style=""font-size: 60px; font-family: BACS"">EYtYROMC</p>","","","","","","","","",""
"html-keyboard-response","106","153749","0.0-10.0-0.17","5f858743256d25036d9fa693","650c16f0f2faf8d7a0d14c09","651c1bddc73b6eea8fa971d1","null","null","<p style=""font-size: 60px; font-family: BACS"">chAhYDTk</p>","","","","","","","","",""
"html-keyboard-response","107","154755","0.0-10.0-0.18","5f858743256d25036d9fa693","650c16f0f2faf8d7a0d14c09","651c1bddc73b6eea8fa971d1","null","null","<p style=""font-size: 60px; font-family: BACS"">AZlLNuUY</p>","","","","","","","","",""
"html-keyboard-response","108","155764","0.0-10.0-0.19","5f858743256d25036d9fa693","650c16f0f2faf8d7a0d14c09","651c1bddc73b6eea8fa971d1","null","null","<p style=""font-size: 60px; font-family: BACS"">DMRPAkd</p>","","","","","","","","",""
"html-keyboard-response","109","156772","0.0-10.0-0.20","5f858743256d25036d9fa693","650c16f0f2faf8d7a0d14c09","651c1bddc73b6eea8fa971d1","null","null","<p style=""font-size: 60px; font-family: BACS"">UdumdGrub</p>","","","","","","","","",""
"html-keyboard-response","110","157780","0.0-10.0-0.21","5f858743256d25036d9fa693","650c16f0f2faf8d7a0d14c09","651c1bddc73b6eea8fa971d1","null","null","<p style=""font-size: 60px; font-family: BACS"">amJmrGl</p>","","","","","","","","",""
"html-keyboard-response","111","158794","0.0-10.0-0.22","5f858743256d25036d9fa693","650c16f0f2faf8d7a0d14c09","651c1bddc73b6eea8fa971d1","null","null","<p style=""font-size: 60px; font-family: BACS"">DOchlYKPB</p>","","","","","","","","",""
"html-keyboard-response","112","159808","0.0-10.0-0.23","5f858743256d25036d9fa693","650c16f0f2faf8d7a0d14c09","651c1bddc73b6eea8fa971d1","null","null","<p style=""font-size: 60px; font-family: BACS"">YdudGrub</p>","","","","","","","","",""
"html-keyboard-response","113","160810","0.0-10.0-0.24","5f858743256d25036d9fa693","650c16f0f2faf8d7a0d14c09","651c1bddc73b6eea8fa971d1","null","null","<p style=""font-size: 60px; font-family: BACS"">OZkbOJlN</p>","","","","","","","","",""
"html-keyboard-response","114","161827","0.0-10.0-0.25","5f858743256d25036d9fa693","650c16f0f2faf8d7a0d14c09","651c1bddc73b6eea8fa971d1","null","null","<p style=""font-size: 60px; font-family: BACS"">dkLluUY</p>","","","","","","","","",""
"html-keyboard-response","115","162844","0.0-10.0-0.26","5f858743256d25036d9fa693","650c16f0f2faf8d7a0d14c09","651c1bddc73b6eea8fa971d1","null","null","<p style=""font-size: 60px; font-family: BACS"">bmbNGrub</p>","","","","","","","","",""
"html-keyboard-response","116","163853","0.0-10.0-0.27","5f858743256d25036d9fa693","650c16f0f2faf8d7a0d14c09","651c1bddc73b6eea8fa971d1","null","null","<p style=""font-size: 60px; font-family: BACS"">MlthYKPB</p>","","","","","","","","",""
"html-keyboard-response","117","164859","0.0-10.0-0.28","5f858743256d25036d9fa693","650c16f0f2faf8d7a0d14c09","651c1bddc73b6eea8fa971d1","null","null","<p style=""font-size: 60px; font-family: BACS"">krUQuUY</p>","","","","","","","","",""
"html-keyboard-response","118","165872","0.0-10.0-0.29","5f858743256d25036d9fa693","650c16f0f2faf8d7a0d14c09","651c1bddc73b6eea8fa971d1","null","null","<p style=""font-size: 60px; font-family: BACS"">lCbcmYKPB</p>","","","","","","","","",""
"html-keyboard-response","119","166875","0.0-10.0-0.30","5f858743256d25036d9fa693","650c16f0f2faf8d7a0d14c09","651c1bddc73b6eea8fa971d1","null","null","<p style=""font-size: 60px; font-family: BACS"">DOchlDKP</p>","","","","","","","","",""
"html-keyboard-response","120","167878","0.0-10.0-0.31","5f858743256d25036d9fa693","650c16f0f2faf8d7a0d14c09","651c1bddc73b6eea8fa971d1","null","null","<p style=""font-size: 60px; font-family: BACS"">amJmOJlN</p>","","","","","","","","",""
"html-keyboard-response","121","168891","0.0-10.0-0.32","5f858743256d25036d9fa693","650c16f0f2faf8d7a0d14c09","651c1bddc73b6eea8fa971d1","null","null","<p style=""font-size: 60px; font-family: BACS"">YlYcOMC</p>","","","","","","","","",""
"html-keyboard-response","122","169905","0.0-10.0-0.33","5f858743256d25036d9fa693","650c16f0f2faf8d7a0d14c09","651c1bddc73b6eea8fa971d1","null","null","<p style=""font-size: 60px; font-family: BACS"">OZkbrGl</p>","","","","","","","","",""
"html-keyboard-response","123","170907","0.0-10.0-0.34","5f858743256d25036d9fa693","650c16f0f2faf8d7a0d14c09","651c1bddc73b6eea8fa971d1","null","null","<p style=""font-size: 60px; font-family: BACS"">chAhDKP</p>","","","","","","","","",""
"html-keyboard-response","124","171920","0.0-10.0-0.35","5f858743256d25036d9fa693","650c16f0f2faf8d7a0d14c09","651c1bddc73b6eea8fa971d1","null","null","<p style=""font-size: 60px; font-family: BACS"">AZlLNkdrO</p>","","","","","","","","",""
"html-keyboard-response","125","172923","0.0-10.0-0.36","5f858743256d25036d9fa693","650c16f0f2faf8d7a0d14c09","651c1bddc73b6eea8fa971d1","null","null","<p style=""font-size: 60px; font-family: BACS"">mhtcYDTk</p>","","","","","","","","",""
"html-keyboard-response","126","173926","0.0-10.0-0.37","5f858743256d25036d9fa693","650c16f0f2faf8d7a0d14c09","651c1bddc73b6eea8fa971d1","null","null","<p style=""font-size: 60px; font-family: BACS"">YdudkdrO</p>","","","","","","","","",""
"html-keyboard-response","127","174939","0.0-10.0-0.38","5f858743256d25036d9fa693","650c16f0f2faf8d7a0d14c09","651c1bddc73b6eea8fa971d1","null","null","<p style=""font-size: 60px; font-family: BACS"">OZkbuUY</p>","","","","","","","","",""
"html-keyboard-response","128","175965","0.0-10.0-0.39","5f858743256d25036d9fa693","650c16f0f2faf8d7a0d14c09","651c1bddc73b6eea8fa971d1","null","null","<p style=""font-size: 60px; font-family: BACS"">UdumdrGl</p>","","","","","","","","",""
"html-keyboard-response","129","176968","0.0-10.0-0.40","5f858743256d25036d9fa693","650c16f0f2faf8d7a0d14c09","651c1bddc73b6eea8fa971d1","null","null","<p style=""font-size: 60px; font-family: BACS"">mhtcAkd</p>","","","","","","","","",""
"html-keyboard-response","130","177970","0.0-10.0-0.41","5f858743256d25036d9fa693","650c16f0f2faf8d7a0d14c09","651c1bddc73b6eea8fa971d1","null","null","<p style=""font-size: 60px; font-family: BACS"">dkLlOJlN</p>","","","","","","","","",""
"html-keyboard-response","131","178975","0.0-10.0-0.42","5f858743256d25036d9fa693","650c16f0f2faf8d7a0d14c09","651c1bddc73b6eea8fa971d1","null","null","<p style=""font-size: 60px; font-family: BACS"">NAacQuUY</p>","","","","","","","","",""
"html-keyboard-response","132","179992","0.0-10.0-0.43","5f858743256d25036d9fa693","650c16f0f2faf8d7a0d14c09","651c1bddc73b6eea8fa971d1","null","null","<p style=""font-size: 60px; font-family: BACS"">DhCPYDTk</p>","","","","","","","","",""
"html-keyboard-response","133","180993","0.0-10.0-0.44","5f858743256d25036d9fa693","650c16f0f2faf8d7a0d14c09","651c1bddc73b6eea8fa971d1","null","null","<p style=""font-size: 60px; font-family: BACS"">UdumdkdrO</p>","","","","","","","","",""
"html-keyboard-response","134","181995","0.0-10.0-0.45","5f858743256d25036d9fa693","650c16f0f2faf8d7a0d14c09","651c1bddc73b6eea8fa971d1","null","null","<p style=""font-size: 60px; font-family: BACS"">DMRPDKP</p>","","","","","","","","",""
"html-keyboard-response","135","182998","0.0-10.0-0.46","5f858743256d25036d9fa693","650c16f0f2faf8d7a0d14c09","651c1bddc73b6eea8fa971d1","null","null","<p style=""font-size: 60px; font-family: BACS"">QbkAcrGl</p>","","","","","","","","",""
"html-keyboard-response","136","184000","0.0-10.0-0.47","5f858743256d25036d9fa693","650c16f0f2faf8d7a0d14c09","651c1bddc73b6eea8fa971d1","null","null","<p style=""font-size: 60px; font-family: BACS"">DhCPDKP</p>","","","","","","","","",""
"html-keyboard-response","137","185003","0.0-10.0-0.48","5f858743256d25036d9fa693","650c16f0f2faf8d7a0d14c09","651c1bddc73b6eea8fa971d1","null","null","<p style=""font-size: 60px; font-family: BACS"">chAhOMC</p>","","","","","","","","",""
"html-keyboard-response","138","186021","0.0-10.0-0.49","5f858743256d25036d9fa693","650c16f0f2faf8d7a0d14c09","651c1bddc73b6eea8fa971d1","null","null","<p style=""font-size: 60px; font-family: BACS"">OcYMAkd</p>","","","","","","","","",""
"html-keyboard-response","139","187034","0.0-10.0-0.50","5f858743256d25036d9fa693","650c16f0f2faf8d7a0d14c09","651c1bddc73b6eea8fa971d1","null","null","<p style=""font-size: 60px; font-family: BACS"">MlthDKP</p>","","","","","","","","",""
"html-keyboard-response","140","188047","0.0-10.0-0.51","5f858743256d25036d9fa693","650c16f0f2faf8d7a0d14c09","651c1bddc73b6eea8fa971d1","null","null","<p style=""font-size: 60px; font-family: BACS"">OcYMYKPB</p>","","","","","","","","",""
"html-keyboard-response","141","189060","0.0-10.0-0.52","5f858743256d25036d9fa693","650c16f0f2faf8d7a0d14c09","651c1bddc73b6eea8fa971d1","null","null","<p style=""font-size: 60px; font-family: BACS"">MlthOMC</p>","","","","","","","","",""
"html-keyboard-response","142","190071","0.0-10.0-0.53","5f858743256d25036d9fa693","650c16f0f2faf8d7a0d14c09","651c1bddc73b6eea8fa971d1","null","null","<p style=""font-size: 60px; font-family: BACS"">NAacQrGl</p>","","","","","","","","",""
"html-keyboard-response","143","191087","0.0-10.0-0.54","5f858743256d25036d9fa693","650c16f0f2faf8d7a0d14c09","651c1bddc73b6eea8fa971d1","null","null","<p style=""font-size: 60px; font-family: BACS"">DhCPOMC</p>","","","","","","","","",""
"html-keyboard-response","144","192090","0.0-10.0-0.55","5f858743256d25036d9fa693","650c16f0f2faf8d7a0d14c09","651c1bddc73b6eea8fa971d1","null","null","<p style=""font-size: 60px; font-family: BACS"">AZlLNOJlN</p>","","","","","","","","",""
"html-keyboard-response","145","193092","0.0-10.0-0.56","5f858743256d25036d9fa693","650c16f0f2faf8d7a0d14c09","651c1bddc73b6eea8fa971d1","null","null","<p style=""font-size: 60px; font-family: BACS"">dkLlrGl</p>","","","","","","","","",""
"html-keyboard-response","146","194095","0.0-10.0-0.57","5f858743256d25036d9fa693","650c16f0f2faf8d7a0d14c09","651c1bddc73b6eea8fa971d1","null","null","<p style=""font-size: 60px; font-family: BACS"">lCbcmDKP</p>","","","","","","","","",""
"html-keyboard-response","147","195098","0.0-10.0-0.58","5f858743256d25036d9fa693","650c16f0f2faf8d7a0d14c09","651c1bddc73b6eea8fa971d1","null","null","<p style=""font-size: 60px; font-family: BACS"">amJmGrub</p>","","","","","","","","",""
"html-keyboard-response","148","196100","0.0-10.0-0.59","5f858743256d25036d9fa693","650c16f0f2faf8d7a0d14c09","651c1bddc73b6eea8fa971d1","null","null","<p style=""font-size: 60px; font-family: BACS"">EYtYRYDTk</p>","","","","","","","","",""
"html-keyboard-response","149","197103","0.0-10.0-0.60","5f858743256d25036d9fa693","650c16f0f2faf8d7a0d14c09","651c1bddc73b6eea8fa971d1","null","null","<p style=""font-size: 60px; font-family: BACS"">DOchlAkd</p>","","","","","","","","",""
"html-keyboard-response","150","198104","0.0-10.0-0.61","5f858743256d25036d9fa693","650c16f0f2faf8d7a0d14c09","651c1bddc73b6eea8fa971d1","null","null","<p style=""font-size: 60px; font-family: BACS"">DMRPOMC</p>","","","","","","","","",""
"html-keyboard-response","151","199108","0.0-10.0-0.62","5f858743256d25036d9fa693","650c16f0f2faf8d7a0d14c09","651c1bddc73b6eea8fa971d1","null","null","<p style=""font-size: 60px; font-family: BACS"">bmbNkdrO</p>","","","","","","","","",""
"html-keyboard-response","152","200122","0.0-10.0-0.63","5f858743256d25036d9fa693","650c16f0f2faf8d7a0d14c09","651c1bddc73b6eea8fa971d1","null","null","<p style=""font-size: 60px; font-family: BACS"">DOchlYDTk</p>","","","","","","","","",""
"html-keyboard-response","153","201124","0.0-10.0-0.64","5f858743256d25036d9fa693","650c16f0f2faf8d7a0d14c09","651c1bddc73b6eea8fa971d1","null","null","<p style=""font-size: 60px; font-family: BACS"">OZkbkdrO</p>","","","","","","","","",""
"html-keyboard-response","154","202138","0.0-10.0-0.65","5f858743256d25036d9fa693","650c16f0f2faf8d7a0d14c09","651c1bddc73b6eea8fa971d1","null","null","<p style=""font-size: 60px; font-family: BACS"">amJmuUY</p>","","","","","","","","",""
"html-keyboard-response","155","203154","0.0-10.0-0.66","5f858743256d25036d9fa693","650c16f0f2faf8d7a0d14c09","651c1bddc73b6eea8fa971d1","null","null","<p style=""font-size: 60px; font-family: BACS"">OcYMDKP</p>","","","","","","","","",""
"html-keyboard-response","156","204158","0.0-10.0-0.67","5f858743256d25036d9fa693","650c16f0f2faf8d7a0d14c09","651c1bddc73b6eea8fa971d1","null","null","<p style=""font-size: 60px; font-family: BACS"">krUQOJlN</p>","","","","","","","","",""
"html-keyboard-response","157","205159","0.0-10.0-0.68","5f858743256d25036d9fa693","650c16f0f2faf8d7a0d14c09","651c1bddc73b6eea8fa971d1","null","null","<p style=""font-size: 60px; font-family: BACS"">EYtYRAkd</p>","","","","","","","","",""
"html-keyboard-response","158","206164","0.0-10.0-0.69","5f858743256d25036d9fa693","650c16f0f2faf8d7a0d14c09","651c1bddc73b6eea8fa971d1","null","null","<p style=""font-size: 60px; font-family: BACS"">QbkAcOJlN</p>","","","","","","","","",""
"html-keyboard-response","159","207166","0.0-10.0-0.70","5f858743256d25036d9fa693","650c16f0f2faf8d7a0d14c09","651c1bddc73b6eea8fa971d1","null","null","<p style=""font-size: 60px; font-family: BACS"">UdumduUY</p>","","","","","","","","",""
"html-keyboard-response","160","208178","0.0-10.0-0.71","5f858743256d25036d9fa693","650c16f0f2faf8d7a0d14c09","651c1bddc73b6eea8fa971d1","null","null","<p style=""font-size: 60px; font-family: BACS"">YdudrGl</p>","","","","","","","","",""
"html-keyboard-response","161","209190","0.0-10.0-0.72","5f858743256d25036d9fa693","650c16f0f2faf8d7a0d14c09","651c1bddc73b6eea8fa971d1","null","null","<p style=""font-size: 60px; font-family: BACS"">krUQkdrO</p>","","","","","","","","",""
"html-keyboard-response","162","210200","0.0-10.0-0.73","5f858743256d25036d9fa693","650c16f0f2faf8d7a0d14c09","651c1bddc73b6eea8fa971d1","null","null","<p style=""font-size: 60px; font-family: BACS"">YdudOJlN</p>","","","","","","","","",""
"html-keyboard-response","163","211202","0.0-10.0-0.74","5f858743256d25036d9fa693","650c16f0f2faf8d7a0d14c09","651c1bddc73b6eea8fa971d1","null","null","<p style=""font-size: 60px; font-family: BACS"">dkLlkdrO</p>","","","","","","","","",""
"html-keyboard-response","164","212208","0.0-10.0-0.75","5f858743256d25036d9fa693","650c16f0f2faf8d7a0d14c09","651c1bddc73b6eea8fa971d1","null","null","<p style=""font-size: 60px; font-family: BACS"">lCbcmYDTk</p>","","","","","","","","",""
"html-keyboard-response","165","213223","0.0-10.0-0.76","5f858743256d25036d9fa693","650c16f0f2faf8d7a0d14c09","651c1bddc73b6eea8fa971d1","null","null","<p style=""font-size: 60px; font-family: BACS"">bmbNrGl</p>","","","","","","","","",""
"html-keyboard-response","166","214235","0.0-10.0-0.77","5f858743256d25036d9fa693","650c16f0f2faf8d7a0d14c09","651c1bddc73b6eea8fa971d1","null","null","<p style=""font-size: 60px; font-family: BACS"">EYtYRDKP</p>","","","","","","","","",""
"html-keyboard-response","167","215248","0.0-10.0-0.78","5f858743256d25036d9fa693","650c16f0f2faf8d7a0d14c09","651c1bddc73b6eea8fa971d1","null","null","<p style=""font-size: 60px; font-family: BACS"">YlYcYDTk</p>","","","","","","","","",""
"html-keyboard-response","168","216269","0.0-10.0-0.79","5f858743256d25036d9fa693","650c16f0f2faf8d7a0d14c09","651c1bddc73b6eea8fa971d1","null","null","<p style=""font-size: 60px; font-family: BACS"">NAacQGrub</p>","","","","","","","","",""
"html-keyboard-response","169","221670","0.0-11.0","5f858743256d25036d9fa693","650c16f0f2faf8d7a0d14c09","651c1bddc73b6eea8fa971d1","5400"," ","<p>Great, you've seen the second block of words. You may now take a short break.</p>
      <p>Press the spacebar when you're ready to continue.</p>","","","","","","","","",""
"html-keyboard-response","170","222687","0.0-12.0-0.0","5f858743256d25036d9fa693","650c16f0f2faf8d7a0d14c09","651c1bddc73b6eea8fa971d1","null","null","<p style=""font-size: 60px; font-family: BACS"">AZlLNuUY</p>","","","","","","","","",""
"html-keyboard-response","171","223703","0.0-12.0-0.1","5f858743256d25036d9fa693","650c16f0f2faf8d7a0d14c09","651c1bddc73b6eea8fa971d1","null","null","<p style=""font-size: 60px; font-family: BACS"">amJmrGl</p>","","","","","","","","",""
"html-keyboard-response","172","224705","0.0-12.0-0.2","5f858743256d25036d9fa693","650c16f0f2faf8d7a0d14c09","651c1bddc73b6eea8fa971d1","null","null","<p style=""font-size: 60px; font-family: BACS"">OcYMDKP</p>","","","","","","","","",""
"html-keyboard-response","173","225708","0.0-12.0-0.3","5f858743256d25036d9fa693","650c16f0f2faf8d7a0d14c09","651c1bddc73b6eea8fa971d1","null","null","<p style=""font-size: 60px; font-family: BACS"">MlthAkd</p>","","","","","","","","",""
"html-keyboard-response","174","226711","0.0-12.0-0.4","5f858743256d25036d9fa693","650c16f0f2faf8d7a0d14c09","651c1bddc73b6eea8fa971d1","null","null","<p style=""font-size: 60px; font-family: BACS"">lCbcmOMC</p>","","","","","","","","",""
"html-keyboard-response","175","227712","0.0-12.0-0.5","5f858743256d25036d9fa693","650c16f0f2faf8d7a0d14c09","651c1bddc73b6eea8fa971d1","null","null","<p style=""font-size: 60px; font-family: BACS"">OZkbuUY</p>","","","","","","","","",""
"html-keyboard-response","176","228716","0.0-12.0-0.6","5f858743256d25036d9fa693","650c16f0f2faf8d7a0d14c09","651c1bddc73b6eea8fa971d1","null","null","<p style=""font-size: 60px; font-family: BACS"">dkLlkdrO</p>","","","","","","","","",""
"html-keyboard-response","177","229729","0.0-12.0-0.7","5f858743256d25036d9fa693","650c16f0f2faf8d7a0d14c09","651c1bddc73b6eea8fa971d1","null","null","<p style=""font-size: 60px; font-family: BACS"">NAacQuUY</p>","","","","","","","","",""
"html-keyboard-response","178","230732","0.0-12.0-0.8","5f858743256d25036d9fa693","650c16f0f2faf8d7a0d14c09","651c1bddc73b6eea8fa971d1","null","null","<p style=""font-size: 60px; font-family: BACS"">QbkAcOJlN</p>","","","","","","","","",""
"html-keyboard-response","179","231741","0.0-12.0-0.9","5f858743256d25036d9fa693","650c16f0f2faf8d7a0d14c09","651c1bddc73b6eea8fa971d1","null","null","<p style=""font-size: 60px; font-family: BACS"">EYtYRAkd</p>","","","","","","","","",""
"html-keyboard-response","180","232756","0.0-12.0-0.10","5f858743256d25036d9fa693","650c16f0f2faf8d7a0d14c09","651c1bddc73b6eea8fa971d1","null","null","<p style=""font-size: 60px; font-family: BACS"">YdudrGl</p>","","","","","","","","",""
"html-keyboard-response","181","233758","0.0-12.0-0.11","5f858743256d25036d9fa693","650c16f0f2faf8d7a0d14c09","651c1bddc73b6eea8fa971d1","null","null","<p style=""font-size: 60px; font-family: BACS"">amJmGrub</p>","","","","","","","","",""
"html-keyboard-response","182","234764","0.0-12.0-0.12","5f858743256d25036d9fa693","650c16f0f2faf8d7a0d14c09","651c1bddc73b6eea8fa971d1","null","null","<p style=""font-size: 60px; font-family: BACS"">dkLlrGl</p>","","","","","","","","",""
"html-keyboard-response","183","235774","0.0-12.0-0.13","5f858743256d25036d9fa693","650c16f0f2faf8d7a0d14c09","651c1bddc73b6eea8fa971d1","null","null","<p style=""font-size: 60px; font-family: BACS"">NAacQOJlN</p>","","","","","","","","",""
"html-keyboard-response","184","236790","0.0-12.0-0.14","5f858743256d25036d9fa693","650c16f0f2faf8d7a0d14c09","651c1bddc73b6eea8fa971d1","null","null","<p style=""font-size: 60px; font-family: BACS"">OcYMAkd</p>","","","","","","","","",""
"html-keyboard-response","185","237793","0.0-12.0-0.15","5f858743256d25036d9fa693","650c16f0f2faf8d7a0d14c09","651c1bddc73b6eea8fa971d1","null","null","<p style=""font-size: 60px; font-family: BACS"">EYtYRYDTk</p>","","","","","","","","",""
"html-keyboard-response","186","238806","0.0-12.0-0.16","5f858743256d25036d9fa693","650c16f0f2faf8d7a0d14c09","651c1bddc73b6eea8fa971d1","null","null","<p style=""font-size: 60px; font-family: BACS"">bmbNGrub</p>","","","","","","","","",""
"html-keyboard-response","187","239813","0.0-12.0-0.17","5f858743256d25036d9fa693","650c16f0f2faf8d7a0d14c09","651c1bddc73b6eea8fa971d1","null","null","<p style=""font-size: 60px; font-family: BACS"">amJmuUY</p>","","","","","","","","",""
"html-keyboard-response","188","240826","0.0-12.0-0.18","5f858743256d25036d9fa693","650c16f0f2faf8d7a0d14c09","651c1bddc73b6eea8fa971d1","null","null","<p style=""font-size: 60px; font-family: BACS"">krUQkdrO</p>","","","","","","","","",""
"html-keyboard-response","189","241834","0.0-12.0-0.19","5f858743256d25036d9fa693","650c16f0f2faf8d7a0d14c09","651c1bddc73b6eea8fa971d1","null","null","<p style=""font-size: 60px; font-family: BACS"">OcYMYDTk</p>","","","","","","","","",""
"html-keyboard-response","190","242837","0.0-12.0-0.20","5f858743256d25036d9fa693","650c16f0f2faf8d7a0d14c09","651c1bddc73b6eea8fa971d1","null","null","<p style=""font-size: 60px; font-family: BACS"">DhCPDKP</p>","","","","","","","","",""
"html-keyboard-response","191","243852","0.0-12.0-0.21","5f858743256d25036d9fa693","650c16f0f2faf8d7a0d14c09","651c1bddc73b6eea8fa971d1","null","null","<p style=""font-size: 60px; font-family: BACS"">krUQGrub</p>","","","","","","","","",""
"html-keyboard-response","192","244859","0.0-12.0-0.22","5f858743256d25036d9fa693","650c16f0f2faf8d7a0d14c09","651c1bddc73b6eea8fa971d1","null","null","<p style=""font-size: 60px; font-family: BACS"">chAhOMC</p>","","","","","","","","",""
"html-keyboard-response","193","245865","0.0-12.0-0.23","5f858743256d25036d9fa693","650c16f0f2faf8d7a0d14c09","651c1bddc73b6eea8fa971d1","null","null","<p style=""font-size: 60px; font-family: BACS"">YlYcAkd</p>","","","","","","","","",""
"html-keyboard-response","194","246871","0.0-12.0-0.24","5f858743256d25036d9fa693","650c16f0f2faf8d7a0d14c09","651c1bddc73b6eea8fa971d1","null","null","<p style=""font-size: 60px; font-family: BACS"">AZlLNGrub</p>","","","","","","","","",""
"html-keyboard-response","195","247885","0.0-12.0-0.25","5f858743256d25036d9fa693","650c16f0f2faf8d7a0d14c09","651c1bddc73b6eea8fa971d1","null","null","<p style=""font-size: 60px; font-family: BACS"">bmbNrGl</p>","","","","","","","","",""
"html-keyboard-response","196","248901","0.0-12.0-0.26","5f858743256d25036d9fa693","650c16f0f2faf8d7a0d14c09","651c1bddc73b6eea8fa971d1","null","null","<p style=""font-size: 60px; font-family: BACS"">DOchlAkd</p>","","","","","","","","",""
"html-keyboard-response","197","249906","0.0-12.0-0.27","5f858743256d25036d9fa693","650c16f0f2faf8d7a0d14c09","651c1bddc73b6eea8fa971d1","null","null","<p style=""font-size: 60px; font-family: BACS"">krUQOJlN</p>","","","","","","","","",""
"html-keyboard-response","198","250907","0.0-12.0-0.28","5f858743256d25036d9fa693","650c16f0f2faf8d7a0d14c09","651c1bddc73b6eea8fa971d1","null","null","<p style=""font-size: 60px; font-family: BACS"">YdudkdrO</p>","","","","","","","","",""
"html-keyboard-response","199","251925","0.0-12.0-0.29","5f858743256d25036d9fa693","650c16f0f2faf8d7a0d14c09","651c1bddc73b6eea8fa971d1","null","null","<p style=""font-size: 60px; font-family: BACS"">DOchlYDTk</p>","","","","","","","","",""
"html-keyboard-response","200","252940","0.0-12.0-0.30","5f858743256d25036d9fa693","650c16f0f2faf8d7a0d14c09","651c1bddc73b6eea8fa971d1","null","null","<p style=""font-size: 60px; font-family: BACS"">DhCPAkd</p>","","","","","","","","",""
"html-keyboard-response","201","253950","0.0-12.0-0.31","5f858743256d25036d9fa693","650c16f0f2faf8d7a0d14c09","651c1bddc73b6eea8fa971d1","null","null","<p style=""font-size: 60px; font-family: BACS"">krUQuUY</p>","","","","","","","","",""
"html-keyboard-response","202","254960","0.0-12.0-0.32","5f858743256d25036d9fa693","650c16f0f2faf8d7a0d14c09","651c1bddc73b6eea8fa971d1","null","null","<p style=""font-size: 60px; font-family: BACS"">OcYMYKPB</p>","","","","","","","","",""
"html-keyboard-response","203","255967","0.0-12.0-0.33","5f858743256d25036d9fa693","650c16f0f2faf8d7a0d14c09","651c1bddc73b6eea8fa971d1","null","null","<p style=""font-size: 60px; font-family: BACS"">bmbNkdrO</p>","","","","","","","","",""
"html-keyboard-response","204","256985","0.0-12.0-0.34","5f858743256d25036d9fa693","650c16f0f2faf8d7a0d14c09","651c1bddc73b6eea8fa971d1","null","null","<p style=""font-size: 60px; font-family: BACS"">YlYcOMC</p>","","","","","","","","",""
"html-keyboard-response","205","257996","0.0-12.0-0.35","5f858743256d25036d9fa693","650c16f0f2faf8d7a0d14c09","651c1bddc73b6eea8fa971d1","null","null","<p style=""font-size: 60px; font-family: BACS"">UdumdrGl</p>","","","","","","","","",""
"html-keyboard-response","206","259001","0.0-12.0-0.36","5f858743256d25036d9fa693","650c16f0f2faf8d7a0d14c09","651c1bddc73b6eea8fa971d1","null","null","<p style=""font-size: 60px; font-family: BACS"">YlYcYKPB</p>","","","","","","","","",""
"html-keyboard-response","207","260006","0.0-12.0-0.37","5f858743256d25036d9fa693","650c16f0f2faf8d7a0d14c09","651c1bddc73b6eea8fa971d1","null","null","<p style=""font-size: 60px; font-family: BACS"">OZkbkdrO</p>","","","","","","","","",""
"html-keyboard-response","208","261008","0.0-12.0-0.38","5f858743256d25036d9fa693","650c16f0f2faf8d7a0d14c09","651c1bddc73b6eea8fa971d1","null","null","<p style=""font-size: 60px; font-family: BACS"">YlYcYDTk</p>","","","","","","","","",""
"html-keyboard-response","209","262016","0.0-12.0-0.39","5f858743256d25036d9fa693","650c16f0f2faf8d7a0d14c09","651c1bddc73b6eea8fa971d1","null","null","<p style=""font-size: 60px; font-family: BACS"">MlthDKP</p>","","","","","","","","",""
"html-keyboard-response","210","263027","0.0-12.0-0.40","5f858743256d25036d9fa693","650c16f0f2faf8d7a0d14c09","651c1bddc73b6eea8fa971d1","null","null","<p style=""font-size: 60px; font-family: BACS"">NAacQGrub</p>","","","","","","","","",""
"html-keyboard-response","211","264028","0.0-12.0-0.41","5f858743256d25036d9fa693","650c16f0f2faf8d7a0d14c09","651c1bddc73b6eea8fa971d1","null","null","<p style=""font-size: 60px; font-family: BACS"">DMRPYKPB</p>","","","","","","","","",""
"html-keyboard-response","212","265037","0.0-12.0-0.42","5f858743256d25036d9fa693","650c16f0f2faf8d7a0d14c09","651c1bddc73b6eea8fa971d1","null","null","<p style=""font-size: 60px; font-family: BACS"">mhtcYDTk</p>","","","","","","","","",""
"html-keyboard-response","213","266047","0.0-12.0-0.43","5f858743256d25036d9fa693","650c16f0f2faf8d7a0d14c09","651c1bddc73b6eea8fa971d1","null","null","<p style=""font-size: 60px; font-family: BACS"">DMRPOMC</p>","","","","","","","","",""
"html-keyboard-response","214","267050","0.0-12.0-0.44","5f858743256d25036d9fa693","650c16f0f2faf8d7a0d14c09","651c1bddc73b6eea8fa971d1","null","null","<p style=""font-size: 60px; font-family: BACS"">AZlLNOJlN</p>","","","","","","","","",""
"html-keyboard-response","215","268062","0.0-12.0-0.45","5f858743256d25036d9fa693","650c16f0f2faf8d7a0d14c09","651c1bddc73b6eea8fa971d1","null","null","<p style=""font-size: 60px; font-family: BACS"">YdudGrub</p>","","","","","","","","",""
"html-keyboard-response","216","269184","0.0-12.0-0.46","5f858743256d25036d9fa693","650c16f0f2faf8d7a0d14c09","651c1bddc73b6eea8fa971d1","null","null","<p style=""font-size: 60px; font-family: BACS"">DhCPYDTk</p>","","","","","","","","",""
"html-keyboard-response","217","271172","0.0-12.0-0.47","5f858743256d25036d9fa693","650c16f0f2faf8d7a0d14c09","651c1bddc73b6eea8fa971d1","null","null","<p style=""font-size: 60px; font-family: BACS"">lCbcmDKP</p>","","","","","","","","",""
"html-keyboard-response","218","272175","0.0-12.0-0.48","5f858743256d25036d9fa693","650c16f0f2faf8d7a0d14c09","651c1bddc73b6eea8fa971d1","null","null","<p style=""font-size: 60px; font-family: BACS"">EYtYROMC</p>","","","","","","","","",""
"html-keyboard-response","219","273183","0.0-12.0-0.49","5f858743256d25036d9fa693","650c16f0f2faf8d7a0d14c09","651c1bddc73b6eea8fa971d1","null","null","<p style=""font-size: 60px; font-family: BACS"">YdudOJlN</p>","","","","","","","","",""
"html-keyboard-response","220","274193","0.0-12.0-0.50","5f858743256d25036d9fa693","650c16f0f2faf8d7a0d14c09","651c1bddc73b6eea8fa971d1","null","null","<p style=""font-size: 60px; font-family: BACS"">lCbcmYKPB</p>","","","","","","","","",""
"html-keyboard-response","221","275194","0.0-12.0-0.51","5f858743256d25036d9fa693","650c16f0f2faf8d7a0d14c09","651c1bddc73b6eea8fa971d1","null","null","<p style=""font-size: 60px; font-family: BACS"">UdumdkdrO</p>","","","","","","","","",""
"html-keyboard-response","222","276217","0.0-12.0-0.52","5f858743256d25036d9fa693","650c16f0f2faf8d7a0d14c09","651c1bddc73b6eea8fa971d1","null","null","<p style=""font-size: 60px; font-family: BACS"">DOchlDKP</p>","","","","","","","","",""
"html-keyboard-response","223","277219","0.0-12.0-0.53","5f858743256d25036d9fa693","650c16f0f2faf8d7a0d14c09","651c1bddc73b6eea8fa971d1","null","null","<p style=""font-size: 60px; font-family: BACS"">OZkbOJlN</p>","","","","","","","","",""
"html-keyboard-response","224","278221","0.0-12.0-0.54","5f858743256d25036d9fa693","650c16f0f2faf8d7a0d14c09","651c1bddc73b6eea8fa971d1","null","null","<p style=""font-size: 60px; font-family: BACS"">QbkAcGrub</p>","","","","","","","","",""
"html-keyboard-response","225","279224","0.0-12.0-0.55","5f858743256d25036d9fa693","650c16f0f2faf8d7a0d14c09","651c1bddc73b6eea8fa971d1","null","null","<p style=""font-size: 60px; font-family: BACS"">chAhDKP</p>","","","","","","","","",""
"html-keyboard-response","226","280226","0.0-12.0-0.56","5f858743256d25036d9fa693","650c16f0f2faf8d7a0d14c09","651c1bddc73b6eea8fa971d1","null","null","<p style=""font-size: 60px; font-family: BACS"">QbkAcrGl</p>","","","","","","","","",""
"html-keyboard-response","227","281229","0.0-12.0-0.57","5f858743256d25036d9fa693","650c16f0f2faf8d7a0d14c09","651c1bddc73b6eea8fa971d1","null","null","<p style=""font-size: 60px; font-family: BACS"">DhCPOMC</p>","","","","","","","","",""
"html-keyboard-response","228","282232","0.0-12.0-0.58","5f858743256d25036d9fa693","650c16f0f2faf8d7a0d14c09","651c1bddc73b6eea8fa971d1","null","null","<p style=""font-size: 60px; font-family: BACS"">DMRPAkd</p>","","","","","","","","",""
"html-keyboard-response","229","283233","0.0-12.0-0.59","5f858743256d25036d9fa693","650c16f0f2faf8d7a0d14c09","651c1bddc73b6eea8fa971d1","null","null","<p style=""font-size: 60px; font-family: BACS"">OZkbrGl</p>","","","","","","","","",""
"html-keyboard-response","230","284235","0.0-12.0-0.60","5f858743256d25036d9fa693","650c16f0f2faf8d7a0d14c09","651c1bddc73b6eea8fa971d1","null","null","<p style=""font-size: 60px; font-family: BACS"">EYtYRDKP</p>","","","","","","","","",""
"html-keyboard-response","231","285237","0.0-12.0-0.61","5f858743256d25036d9fa693","650c16f0f2faf8d7a0d14c09","651c1bddc73b6eea8fa971d1","null","null","<p style=""font-size: 60px; font-family: BACS"">lCbcmYDTk</p>","","","","","","","","",""
"html-keyboard-response","232","286240","0.0-12.0-0.62","5f858743256d25036d9fa693","650c16f0f2faf8d7a0d14c09","651c1bddc73b6eea8fa971d1","null","null","<p style=""font-size: 60px; font-family: BACS"">dkLluUY</p>","","","","","","","","",""
"html-keyboard-response","233","287242","0.0-12.0-0.63","5f858743256d25036d9fa693","650c16f0f2faf8d7a0d14c09","651c1bddc73b6eea8fa971d1","null","null","<p style=""font-size: 60px; font-family: BACS"">chAhYKPB</p>","","","","","","","","",""
"html-keyboard-response","234","288243","0.0-12.0-0.64","5f858743256d25036d9fa693","650c16f0f2faf8d7a0d14c09","651c1bddc73b6eea8fa971d1","null","null","<p style=""font-size: 60px; font-family: BACS"">dkLlOJlN</p>","","","","","","","","",""
"html-keyboard-response","235","289245","0.0-12.0-0.65","5f858743256d25036d9fa693","650c16f0f2faf8d7a0d14c09","651c1bddc73b6eea8fa971d1","null","null","<p style=""font-size: 60px; font-family: BACS"">AZlLNkdrO</p>","","","","","","","","",""
"html-keyboard-response","236","290251","0.0-12.0-0.66","5f858743256d25036d9fa693","650c16f0f2faf8d7a0d14c09","651c1bddc73b6eea8fa971d1","null","null","<p style=""font-size: 60px; font-family: BACS"">DMRPDKP</p>","","","","","","","","",""
"html-keyboard-response","237","291254","0.0-12.0-0.67","5f858743256d25036d9fa693","650c16f0f2faf8d7a0d14c09","651c1bddc73b6eea8fa971d1","null","null","<p style=""font-size: 60px; font-family: BACS"">mhtcAkd</p>","","","","","","","","",""
"html-keyboard-response","238","292263","0.0-12.0-0.68","5f858743256d25036d9fa693","650c16f0f2faf8d7a0d14c09","651c1bddc73b6eea8fa971d1","null","null","<p style=""font-size: 60px; font-family: BACS"">DOchlYKPB</p>","","","","","","","","",""
"html-keyboard-response","239","293266","0.0-12.0-0.69","5f858743256d25036d9fa693","650c16f0f2faf8d7a0d14c09","651c1bddc73b6eea8fa971d1","null","null","<p style=""font-size: 60px; font-family: BACS"">mhtcOMC</p>","","","","","","","","",""
"html-keyboard-response","240","294267","0.0-12.0-0.70","5f858743256d25036d9fa693","650c16f0f2faf8d7a0d14c09","651c1bddc73b6eea8fa971d1","null","null","<p style=""font-size: 60px; font-family: BACS"">UdumdGrub</p>","","","","","","","","",""
"html-keyboard-response","241","295270","0.0-12.0-0.71","5f858743256d25036d9fa693","650c16f0f2faf8d7a0d14c09","651c1bddc73b6eea8fa971d1","null","null","<p style=""font-size: 60px; font-family: BACS"">chAhYDTk</p>","","","","","","","","",""
"html-keyboard-response","242","296272","0.0-12.0-0.72","5f858743256d25036d9fa693","650c16f0f2faf8d7a0d14c09","651c1bddc73b6eea8fa971d1","null","null","<p style=""font-size: 60px; font-family: BACS"">NAacQrGl</p>","","","","","","","","",""
"html-keyboard-response","243","297290","0.0-12.0-0.73","5f858743256d25036d9fa693","650c16f0f2faf8d7a0d14c09","651c1bddc73b6eea8fa971d1","null","null","<p style=""font-size: 60px; font-family: BACS"">MlthYKPB</p>","","","","","","","","",""
"html-keyboard-response","244","298293","0.0-12.0-0.74","5f858743256d25036d9fa693","650c16f0f2faf8d7a0d14c09","651c1bddc73b6eea8fa971d1","null","null","<p style=""font-size: 60px; font-family: BACS"">bmbNuUY</p>","","","","","","","","",""
"html-keyboard-response","245","299306","0.0-12.0-0.75","5f858743256d25036d9fa693","650c16f0f2faf8d7a0d14c09","651c1bddc73b6eea8fa971d1","null","null","<p style=""font-size: 60px; font-family: BACS"">QbkAckdrO</p>","","","","","","","","",""
"html-keyboard-response","246","300323","0.0-12.0-0.76","5f858743256d25036d9fa693","650c16f0f2faf8d7a0d14c09","651c1bddc73b6eea8fa971d1","null","null","<p style=""font-size: 60px; font-family: BACS"">amJmOJlN</p>","","","","","","","","",""
"html-keyboard-response","247","301326","0.0-12.0-0.77","5f858743256d25036d9fa693","650c16f0f2faf8d7a0d14c09","651c1bddc73b6eea8fa971d1","null","null","<p style=""font-size: 60px; font-family: BACS"">mhtcYKPB</p>","","","","","","","","",""
"html-keyboard-response","248","302343","0.0-12.0-0.78","5f858743256d25036d9fa693","650c16f0f2faf8d7a0d14c09","651c1bddc73b6eea8fa971d1","null","null","<p style=""font-size: 60px; font-family: BACS"">MlthOMC</p>","","","","","","","","",""
"html-keyboard-response","249","303345","0.0-12.0-0.79","5f858743256d25036d9fa693","650c16f0f2faf8d7a0d14c09","651c1bddc73b6eea8fa971d1","null","null","<p style=""font-size: 60px; font-family: BACS"">UdumduUY</p>","","","","","","","","",""
"html-keyboard-response","250","352562","0.0-13.0","5f858743256d25036d9fa693","650c16f0f2faf8d7a0d14c09","651c1bddc73b6eea8fa971d1","49217"," ","<p>Great, you've seen the third block of words. You may now take a short break.</p>
      <p>Press the spacebar when you're ready to continue.</p>","","","","","","","","",""
"html-keyboard-response","251","353573","0.0-14.0-0.0","5f858743256d25036d9fa693","650c16f0f2faf8d7a0d14c09","651c1bddc73b6eea8fa971d1","null","null","<p style=""font-size: 60px; font-family: BACS"">lCbcmOMC</p>","","","","","","","","",""
"html-keyboard-response","252","354587","0.0-14.0-0.1","5f858743256d25036d9fa693","650c16f0f2faf8d7a0d14c09","651c1bddc73b6eea8fa971d1","null","null","<p style=""font-size: 60px; font-family: BACS"">DhCPDKP</p>","","","","","","","","",""
"html-keyboard-response","253","355600","0.0-14.0-0.2","5f858743256d25036d9fa693","650c16f0f2faf8d7a0d14c09","651c1bddc73b6eea8fa971d1","null","null","<p style=""font-size: 60px; font-family: BACS"">mhtcYKPB</p>","","","","","","","","",""
"html-keyboard-response","254","356614","0.0-14.0-0.3","5f858743256d25036d9fa693","650c16f0f2faf8d7a0d14c09","651c1bddc73b6eea8fa971d1","null","null","<p style=""font-size: 60px; font-family: BACS"">krUQkdrO</p>","","","","","","","","",""
"html-keyboard-response","255","357616","0.0-14.0-0.4","5f858743256d25036d9fa693","650c16f0f2faf8d7a0d14c09","651c1bddc73b6eea8fa971d1","null","null","<p style=""font-size: 60px; font-family: BACS"">DOchlYKPB</p>","","","","","","","","",""
"html-keyboard-response","256","358619","0.0-14.0-0.5","5f858743256d25036d9fa693","650c16f0f2faf8d7a0d14c09","651c1bddc73b6eea8fa971d1","null","null","<p style=""font-size: 60px; font-family: BACS"">OcYMDKP</p>","","","","","","","","",""
"html-keyboard-response","257","359622","0.0-14.0-0.6","5f858743256d25036d9fa693","650c16f0f2faf8d7a0d14c09","651c1bddc73b6eea8fa971d1","null","null","<p style=""font-size: 60px; font-family: BACS"">QbkAcGrub</p>","","","","","","","","",""
"html-keyboard-response","258","360639","0.0-14.0-0.7","5f858743256d25036d9fa693","650c16f0f2faf8d7a0d14c09","651c1bddc73b6eea8fa971d1","null","null","<p style=""font-size: 60px; font-family: BACS"">amJmrGl</p>","","","","","","","","",""
"html-keyboard-response","259","361640","0.0-14.0-0.8","5f858743256d25036d9fa693","650c16f0f2faf8d7a0d14c09","651c1bddc73b6eea8fa971d1","null","null","<p style=""font-size: 60px; font-family: BACS"">mhtcAkd</p>","","","","","","","","",""
"html-keyboard-response","260","362658","0.0-14.0-0.9","5f858743256d25036d9fa693","650c16f0f2faf8d7a0d14c09","651c1bddc73b6eea8fa971d1","null","null","<p style=""font-size: 60px; font-family: BACS"">DMRPOMC</p>","","","","","","","","",""
"html-keyboard-response","261","363674","0.0-14.0-0.10","5f858743256d25036d9fa693","650c16f0f2faf8d7a0d14c09","651c1bddc73b6eea8fa971d1","null","null","<p style=""font-size: 60px; font-family: BACS"">amJmuUY</p>","","","","","","","","",""
"html-keyboard-response","262","364675","0.0-14.0-0.11","5f858743256d25036d9fa693","650c16f0f2faf8d7a0d14c09","651c1bddc73b6eea8fa971d1","null","null","<p style=""font-size: 60px; font-family: BACS"">YlYcOMC</p>","","","","","","","","",""
"html-keyboard-response","263","365691","0.0-14.0-0.12","5f858743256d25036d9fa693","650c16f0f2faf8d7a0d14c09","651c1bddc73b6eea8fa971d1","null","null","<p style=""font-size: 60px; font-family: BACS"">DOchlDKP</p>","","","","","","","","",""
"html-keyboard-response","264","366697","0.0-14.0-0.13","5f858743256d25036d9fa693","650c16f0f2faf8d7a0d14c09","651c1bddc73b6eea8fa971d1","null","null","<p style=""font-size: 60px; font-family: BACS"">MlthOMC</p>","","","","","","","","",""
"html-keyboard-response","265","367709","0.0-14.0-0.14","5f858743256d25036d9fa693","650c16f0f2faf8d7a0d14c09","651c1bddc73b6eea8fa971d1","null","null","<p style=""font-size: 60px; font-family: BACS"">krUQuUY</p>","","","","","","","","",""
"html-keyboard-response","266","368726","0.0-14.0-0.15","5f858743256d25036d9fa693","650c16f0f2faf8d7a0d14c09","651c1bddc73b6eea8fa971d1","null","null","<p style=""font-size: 60px; font-family: BACS"">chAhDKP</p>","","","","","","","","",""
"html-keyboard-response","267","369729","0.0-14.0-0.16","5f858743256d25036d9fa693","650c16f0f2faf8d7a0d14c09","651c1bddc73b6eea8fa971d1","null","null","<p style=""font-size: 60px; font-family: BACS"">QbkAckdrO</p>","","","","","","","","",""
"html-keyboard-response","268","370731","0.0-14.0-0.17","5f858743256d25036d9fa693","650c16f0f2faf8d7a0d14c09","651c1bddc73b6eea8fa971d1","null","null","<p style=""font-size: 60px; font-family: BACS"">dkLlrGl</p>","","","","","","","","",""
"html-keyboard-response","269","371732","0.0-14.0-0.18","5f858743256d25036d9fa693","650c16f0f2faf8d7a0d14c09","651c1bddc73b6eea8fa971d1","null","null","<p style=""font-size: 60px; font-family: BACS"">MlthAkd</p>","","","","","","","","",""
"html-keyboard-response","270","372749","0.0-14.0-0.19","5f858743256d25036d9fa693","650c16f0f2faf8d7a0d14c09","651c1bddc73b6eea8fa971d1","null","null","<p style=""font-size: 60px; font-family: BACS"">krUQGrub</p>","","","","","","","","",""
"html-keyboard-response","271","373750","0.0-14.0-0.20","5f858743256d25036d9fa693","650c16f0f2faf8d7a0d14c09","651c1bddc73b6eea8fa971d1","null","null","<p style=""font-size: 60px; font-family: BACS"">YdudrGl</p>","","","","","","","","",""
"html-keyboard-response","272","374752","0.0-14.0-0.21","5f858743256d25036d9fa693","650c16f0f2faf8d7a0d14c09","651c1bddc73b6eea8fa971d1","null","null","<p style=""font-size: 60px; font-family: BACS"">lCbcmYKPB</p>","","","","","","","","",""
"html-keyboard-response","273","375755","0.0-14.0-0.22","5f858743256d25036d9fa693","650c16f0f2faf8d7a0d14c09","651c1bddc73b6eea8fa971d1","null","null","<p style=""font-size: 60px; font-family: BACS"">AZlLNGrub</p>","","","","","","","","",""
"html-keyboard-response","274","376777","0.0-14.0-0.23","5f858743256d25036d9fa693","650c16f0f2faf8d7a0d14c09","651c1bddc73b6eea8fa971d1","null","null","<p style=""font-size: 60px; font-family: BACS"">MlthYKPB</p>","","","","","","","","",""
"html-keyboard-response","275","377781","0.0-14.0-0.24","5f858743256d25036d9fa693","650c16f0f2faf8d7a0d14c09","651c1bddc73b6eea8fa971d1","null","null","<p style=""font-size: 60px; font-family: BACS"">QbkAcOJlN</p>","","","","","","","","",""
"html-keyboard-response","276","378783","0.0-14.0-0.25","5f858743256d25036d9fa693","650c16f0f2faf8d7a0d14c09","651c1bddc73b6eea8fa971d1","null","null","<p style=""font-size: 60px; font-family: BACS"">DhCPOMC</p>","","","","","","","","",""
"html-keyboard-response","277","379786","0.0-14.0-0.26","5f858743256d25036d9fa693","650c16f0f2faf8d7a0d14c09","651c1bddc73b6eea8fa971d1","null","null","<p style=""font-size: 60px; font-family: BACS"">UdumduUY</p>","","","","","","","","",""
"html-keyboard-response","278","380789","0.0-14.0-0.27","5f858743256d25036d9fa693","650c16f0f2faf8d7a0d14c09","651c1bddc73b6eea8fa971d1","null","null","<p style=""font-size: 60px; font-family: BACS"">DMRPDKP</p>","","","","","","","","",""
"html-keyboard-response","279","381792","0.0-14.0-0.28","5f858743256d25036d9fa693","650c16f0f2faf8d7a0d14c09","651c1bddc73b6eea8fa971d1","null","null","<p style=""font-size: 60px; font-family: BACS"">UdumdGrub</p>","","","","","","","","",""
"html-keyboard-response","280","382792","0.0-14.0-0.29","5f858743256d25036d9fa693","650c16f0f2faf8d7a0d14c09","651c1bddc73b6eea8fa971d1","null","null","<p style=""font-size: 60px; font-family: BACS"">DMRPYKPB</p>","","","","","","","","",""
"html-keyboard-response","281","383798","0.0-14.0-0.30","5f858743256d25036d9fa693","650c16f0f2faf8d7a0d14c09","651c1bddc73b6eea8fa971d1","null","null","<p style=""font-size: 60px; font-family: BACS"">bmbNrGl</p>","","","","","","","","",""
"html-keyboard-response","282","384801","0.0-14.0-0.31","5f858743256d25036d9fa693","650c16f0f2faf8d7a0d14c09","651c1bddc73b6eea8fa971d1","null","null","<p style=""font-size: 60px; font-family: BACS"">chAhYDTk</p>","","","","","","","","",""
"html-keyboard-response","283","385808","0.0-14.0-0.32","5f858743256d25036d9fa693","650c16f0f2faf8d7a0d14c09","651c1bddc73b6eea8fa971d1","null","null","<p style=""font-size: 60px; font-family: BACS"">UdumdkdrO</p>","","","","","","","","",""
"html-keyboard-response","284","386821","0.0-14.0-0.33","5f858743256d25036d9fa693","650c16f0f2faf8d7a0d14c09","651c1bddc73b6eea8fa971d1","null","null","<p style=""font-size: 60px; font-family: BACS"">YlYcYDTk</p>","","","","","","","","",""
"html-keyboard-response","285","387823","0.0-14.0-0.34","5f858743256d25036d9fa693","650c16f0f2faf8d7a0d14c09","651c1bddc73b6eea8fa971d1","null","null","<p style=""font-size: 60px; font-family: BACS"">lCbcmDKP</p>","","","","","","","","",""
"html-keyboard-response","286","388825","0.0-14.0-0.35","5f858743256d25036d9fa693","650c16f0f2faf8d7a0d14c09","651c1bddc73b6eea8fa971d1","null","null","<p style=""font-size: 60px; font-family: BACS"">DOchlYDTk</p>","","","","","","","","",""
"html-keyboard-response","287","389849","0.0-14.0-0.36","5f858743256d25036d9fa693","650c16f0f2faf8d7a0d14c09","651c1bddc73b6eea8fa971d1","null","null","<p style=""font-size: 60px; font-family: BACS"">OZkbOJlN</p>","","","","","","","","",""
"html-keyboard-response","288","390851","0.0-14.0-0.37","5f858743256d25036d9fa693","650c16f0f2faf8d7a0d14c09","651c1bddc73b6eea8fa971d1","null","null","<p style=""font-size: 60px; font-family: BACS"">DMRPAkd</p>","","","","","","","","",""
"html-keyboard-response","289","391853","0.0-14.0-0.38","5f858743256d25036d9fa693","650c16f0f2faf8d7a0d14c09","651c1bddc73b6eea8fa971d1","null","null","<p style=""font-size: 60px; font-family: BACS"">AZlLNuUY</p>","","","","","","","","",""
"html-keyboard-response","290","392856","0.0-14.0-0.39","5f858743256d25036d9fa693","650c16f0f2faf8d7a0d14c09","651c1bddc73b6eea8fa971d1","null","null","<p style=""font-size: 60px; font-family: BACS"">OcYMYDTk</p>","","","","","","","","",""
"html-keyboard-response","291","393858","0.0-14.0-0.40","5f858743256d25036d9fa693","650c16f0f2faf8d7a0d14c09","651c1bddc73b6eea8fa971d1","null","null","<p style=""font-size: 60px; font-family: BACS"">krUQOJlN</p>","","","","","","","","",""
"html-keyboard-response","292","394860","0.0-14.0-0.41","5f858743256d25036d9fa693","650c16f0f2faf8d7a0d14c09","651c1bddc73b6eea8fa971d1","null","null","<p style=""font-size: 60px; font-family: BACS"">chAhOMC</p>","","","","","","","","",""
"html-keyboard-response","293","395863","0.0-14.0-0.42","5f858743256d25036d9fa693","650c16f0f2faf8d7a0d14c09","651c1bddc73b6eea8fa971d1","null","null","<p style=""font-size: 60px; font-family: BACS"">NAacQGrub</p>","","","","","","","","",""
"html-keyboard-response","294","396866","0.0-14.0-0.43","5f858743256d25036d9fa693","650c16f0f2faf8d7a0d14c09","651c1bddc73b6eea8fa971d1","null","null","<p style=""font-size: 60px; font-family: BACS"">EYtYRYDTk</p>","","","","","","","","",""
"html-keyboard-response","295","397869","0.0-14.0-0.44","5f858743256d25036d9fa693","650c16f0f2faf8d7a0d14c09","651c1bddc73b6eea8fa971d1","null","null","<p style=""font-size: 60px; font-family: BACS"">AZlLNOJlN</p>","","","","","","","","",""
"html-keyboard-response","296","398872","0.0-14.0-0.45","5f858743256d25036d9fa693","650c16f0f2faf8d7a0d14c09","651c1bddc73b6eea8fa971d1","null","null","<p style=""font-size: 60px; font-family: BACS"">mhtcOMC</p>","","","","","","","","",""
"html-keyboard-response","297","399875","0.0-14.0-0.46","5f858743256d25036d9fa693","650c16f0f2faf8d7a0d14c09","651c1bddc73b6eea8fa971d1","null","null","<p style=""font-size: 60px; font-family: BACS"">bmbNkdrO</p>","","","","","","","","",""
"html-keyboard-response","298","400877","0.0-14.0-0.47","5f858743256d25036d9fa693","650c16f0f2faf8d7a0d14c09","651c1bddc73b6eea8fa971d1","null","null","<p style=""font-size: 60px; font-family: BACS"">QbkAcrGl</p>","","","","","","","","",""
"html-keyboard-response","299","401880","0.0-14.0-0.48","5f858743256d25036d9fa693","650c16f0f2faf8d7a0d14c09","651c1bddc73b6eea8fa971d1","null","null","<p style=""font-size: 60px; font-family: BACS"">amJmGrub</p>","","","","","","","","",""
"html-keyboard-response","300","402882","0.0-14.0-0.49","5f858743256d25036d9fa693","650c16f0f2faf8d7a0d14c09","651c1bddc73b6eea8fa971d1","null","null","<p style=""font-size: 60px; font-family: BACS"">NAacQOJlN</p>","","","","","","","","",""
"html-keyboard-response","301","403884","0.0-14.0-0.50","5f858743256d25036d9fa693","650c16f0f2faf8d7a0d14c09","651c1bddc73b6eea8fa971d1","null","null","<p style=""font-size: 60px; font-family: BACS"">OZkbrGl</p>","","","","","","","","",""
"html-keyboard-response","302","404887","0.0-14.0-0.51","5f858743256d25036d9fa693","650c16f0f2faf8d7a0d14c09","651c1bddc73b6eea8fa971d1","null","null","<p style=""font-size: 60px; font-family: BACS"">NAacQuUY</p>","","","","","","","","",""
"html-keyboard-response","303","405889","0.0-14.0-0.52","5f858743256d25036d9fa693","650c16f0f2faf8d7a0d14c09","651c1bddc73b6eea8fa971d1","null","null","<p style=""font-size: 60px; font-family: BACS"">OcYMYKPB</p>","","","","","","","","",""
"html-keyboard-response","304","406891","0.0-14.0-0.53","5f858743256d25036d9fa693","650c16f0f2faf8d7a0d14c09","651c1bddc73b6eea8fa971d1","null","null","<p style=""font-size: 60px; font-family: BACS"">YlYcAkd</p>","","","","","","","","",""
"html-keyboard-response","305","407910","0.0-14.0-0.54","5f858743256d25036d9fa693","650c16f0f2faf8d7a0d14c09","651c1bddc73b6eea8fa971d1","null","null","<p style=""font-size: 60px; font-family: BACS"">MlthDKP</p>","","","","","","","","",""
"html-keyboard-response","306","408913","0.0-14.0-0.55","5f858743256d25036d9fa693","650c16f0f2faf8d7a0d14c09","651c1bddc73b6eea8fa971d1","null","null","<p style=""font-size: 60px; font-family: BACS"">YdudOJlN</p>","","","","","","","","",""
"html-keyboard-response","307","409916","0.0-14.0-0.56","5f858743256d25036d9fa693","650c16f0f2faf8d7a0d14c09","651c1bddc73b6eea8fa971d1","null","null","<p style=""font-size: 60px; font-family: BACS"">DhCPYDTk</p>","","","","","","","","",""
"html-keyboard-response","308","410918","0.0-14.0-0.57","5f858743256d25036d9fa693","650c16f0f2faf8d7a0d14c09","651c1bddc73b6eea8fa971d1","null","null","<p style=""font-size: 60px; font-family: BACS"">YlYcYKPB</p>","","","","","","","","",""
"html-keyboard-response","309","411920","0.0-14.0-0.58","5f858743256d25036d9fa693","650c16f0f2faf8d7a0d14c09","651c1bddc73b6eea8fa971d1","null","null","<p style=""font-size: 60px; font-family: BACS"">AZlLNkdrO</p>","","","","","","","","",""
"html-keyboard-response","310","412922","0.0-14.0-0.59","5f858743256d25036d9fa693","650c16f0f2faf8d7a0d14c09","651c1bddc73b6eea8fa971d1","null","null","<p style=""font-size: 60px; font-family: BACS"">UdumdrGl</p>","","","","","","","","",""
"html-keyboard-response","311","413926","0.0-14.0-0.60","5f858743256d25036d9fa693","650c16f0f2faf8d7a0d14c09","651c1bddc73b6eea8fa971d1","null","null","<p style=""font-size: 60px; font-family: BACS"">OZkbuUY</p>","","","","","","","","",""
"html-keyboard-response","312","414928","0.0-14.0-0.61","5f858743256d25036d9fa693","650c16f0f2faf8d7a0d14c09","651c1bddc73b6eea8fa971d1","null","null","<p style=""font-size: 60px; font-family: BACS"">YdudGrub</p>","","","","","","","","",""
"html-keyboard-response","313","415931","0.0-14.0-0.62","5f858743256d25036d9fa693","650c16f0f2faf8d7a0d14c09","651c1bddc73b6eea8fa971d1","null","null","<p style=""font-size: 60px; font-family: BACS"">EYtYRAkd</p>","","","","","","","","",""
"html-keyboard-response","314","416933","0.0-14.0-0.63","5f858743256d25036d9fa693","650c16f0f2faf8d7a0d14c09","651c1bddc73b6eea8fa971d1","null","null","<p style=""font-size: 60px; font-family: BACS"">dkLluUY</p>","","","","","","","","",""
"html-keyboard-response","315","417937","0.0-14.0-0.64","5f858743256d25036d9fa693","650c16f0f2faf8d7a0d14c09","651c1bddc73b6eea8fa971d1","null","null","<p style=""font-size: 60px; font-family: BACS"">EYtYRDKP</p>","","","","","","","","",""
"html-keyboard-response","316","418939","0.0-14.0-0.65","5f858743256d25036d9fa693","650c16f0f2faf8d7a0d14c09","651c1bddc73b6eea8fa971d1","null","null","<p style=""font-size: 60px; font-family: BACS"">chAhYKPB</p>","","","","","","","","",""
"html-keyboard-response","317","419943","0.0-14.0-0.66","5f858743256d25036d9fa693","650c16f0f2faf8d7a0d14c09","651c1bddc73b6eea8fa971d1","null","null","<p style=""font-size: 60px; font-family: BACS"">YdudkdrO</p>","","","","","","","","",""
"html-keyboard-response","318","420950","0.0-14.0-0.67","5f858743256d25036d9fa693","650c16f0f2faf8d7a0d14c09","651c1bddc73b6eea8fa971d1","null","null","<p style=""font-size: 60px; font-family: BACS"">mhtcYDTk</p>","","","","","","","","",""
"html-keyboard-response","319","421954","0.0-14.0-0.68","5f858743256d25036d9fa693","650c16f0f2faf8d7a0d14c09","651c1bddc73b6eea8fa971d1","null","null","<p style=""font-size: 60px; font-family: BACS"">DOchlAkd</p>","","","","","","","","",""
"html-keyboard-response","320","422957","0.0-14.0-0.69","5f858743256d25036d9fa693","650c16f0f2faf8d7a0d14c09","651c1bddc73b6eea8fa971d1","null","null","<p style=""font-size: 60px; font-family: BACS"">bmbNGrub</p>","","","","","","","","",""
"html-keyboard-response","321","423959","0.0-14.0-0.70","5f858743256d25036d9fa693","650c16f0f2faf8d7a0d14c09","651c1bddc73b6eea8fa971d1","null","null","<p style=""font-size: 60px; font-family: BACS"">NAacQrGl</p>","","","","","","","","",""
"html-keyboard-response","322","424962","0.0-14.0-0.71","5f858743256d25036d9fa693","650c16f0f2faf8d7a0d14c09","651c1bddc73b6eea8fa971d1","null","null","<p style=""font-size: 60px; font-family: BACS"">DhCPAkd</p>","","","","","","","","",""
"html-keyboard-response","323","425965","0.0-14.0-0.72","5f858743256d25036d9fa693","650c16f0f2faf8d7a0d14c09","651c1bddc73b6eea8fa971d1","null","null","<p style=""font-size: 60px; font-family: BACS"">dkLlOJlN</p>","","","","","","","","",""
"html-keyboard-response","324","426968","0.0-14.0-0.73","5f858743256d25036d9fa693","650c16f0f2faf8d7a0d14c09","651c1bddc73b6eea8fa971d1","null","null","<p style=""font-size: 60px; font-family: BACS"">bmbNuUY</p>","","","","","","","","",""
"html-keyboard-response","325","427970","0.0-14.0-0.74","5f858743256d25036d9fa693","650c16f0f2faf8d7a0d14c09","651c1bddc73b6eea8fa971d1","null","null","<p style=""font-size: 60px; font-family: BACS"">EYtYROMC</p>","","","","","","","","",""
"html-keyboard-response","326","428972","0.0-14.0-0.75","5f858743256d25036d9fa693","650c16f0f2faf8d7a0d14c09","651c1bddc73b6eea8fa971d1","null","null","<p style=""font-size: 60px; font-family: BACS"">lCbcmYDTk</p>","","","","","","","","",""
"html-keyboard-response","327","429976","0.0-14.0-0.76","5f858743256d25036d9fa693","650c16f0f2faf8d7a0d14c09","651c1bddc73b6eea8fa971d1","null","null","<p style=""font-size: 60px; font-family: BACS"">dkLlkdrO</p>","","","","","","","","",""
"html-keyboard-response","328","430978","0.0-14.0-0.77","5f858743256d25036d9fa693","650c16f0f2faf8d7a0d14c09","651c1bddc73b6eea8fa971d1","null","null","<p style=""font-size: 60px; font-family: BACS"">amJmOJlN</p>","","","","","","","","",""
"html-keyboard-response","329","431981","0.0-14.0-0.78","5f858743256d25036d9fa693","650c16f0f2faf8d7a0d14c09","651c1bddc73b6eea8fa971d1","null","null","<p style=""font-size: 60px; font-family: BACS"">OcYMAkd</p>","","","","","","","","",""
"html-keyboard-response","330","432983","0.0-14.0-0.79","5f858743256d25036d9fa693","650c16f0f2faf8d7a0d14c09","651c1bddc73b6eea8fa971d1","null","null","<p style=""font-size: 60px; font-family: BACS"">OZkbkdrO</p>","","","","","","","","",""
"html-keyboard-response","331","438013","0.0-15.0","5f858743256d25036d9fa693","650c16f0f2faf8d7a0d14c09","651c1bddc73b6eea8fa971d1","5029"," ","<p>Great, you've seen the fourth block of words. You may now take a short break.</p>
      <p>Press the spacebar when you're ready to continue.</p>","","","","","","","","",""
"html-keyboard-response","332","439015","0.0-16.0-0.0","5f858743256d25036d9fa693","650c16f0f2faf8d7a0d14c09","651c1bddc73b6eea8fa971d1","null","null","<p style=""font-size: 60px; font-family: BACS"">dkLlkdrO</p>","","","","","","","","",""
"html-keyboard-response","333","440016","0.0-16.0-0.1","5f858743256d25036d9fa693","650c16f0f2faf8d7a0d14c09","651c1bddc73b6eea8fa971d1","null","null","<p style=""font-size: 60px; font-family: BACS"">dkLlkdrO</p>","","","","","","","","",""
"html-keyboard-response","334","441018","0.0-16.0-0.2","5f858743256d25036d9fa693","650c16f0f2faf8d7a0d14c09","651c1bddc73b6eea8fa971d1","null","null","<p style=""font-size: 60px; font-family: BACS"">dkLlkdrO</p>","","","","","","","","",""
"html-keyboard-response","335","442020","0.0-16.0-0.3","5f858743256d25036d9fa693","650c16f0f2faf8d7a0d14c09","651c1bddc73b6eea8fa971d1","null","null","<p style=""font-size: 60px; font-family: BACS"">dkLlkdrO</p>","","","","","","","","",""
"html-keyboard-response","336","443022","0.0-16.0-0.4","5f858743256d25036d9fa693","650c16f0f2faf8d7a0d14c09","651c1bddc73b6eea8fa971d1","null","null","<p style=""font-size: 60px; font-family: BACS"">dkLlkdrO</p>","","","","","","","","",""
"html-keyboard-response","337","444025","0.0-16.0-0.5","5f858743256d25036d9fa693","650c16f0f2faf8d7a0d14c09","651c1bddc73b6eea8fa971d1","null","null","<p style=""font-size: 60px; font-family: BACS"">dkLlkdrO</p>","","","","","","","","",""
"html-keyboard-response","338","445029","0.0-16.0-0.6","5f858743256d25036d9fa693","650c16f0f2faf8d7a0d14c09","651c1bddc73b6eea8fa971d1","null","null","<p style=""font-size: 60px; font-family: BACS"">dkLlkdrO</p>","","","","","","","","",""
"html-keyboard-response","339","446032","0.0-16.0-0.7","5f858743256d25036d9fa693","650c16f0f2faf8d7a0d14c09","651c1bddc73b6eea8fa971d1","null","null","<p style=""font-size: 60px; font-family: BACS"">dkLlkdrO</p>","","","","","","","","",""
"html-keyboard-response","340","447034","0.0-16.0-0.8","5f858743256d25036d9fa693","650c16f0f2faf8d7a0d14c09","651c1bddc73b6eea8fa971d1","null","null","<p style=""font-size: 60px; font-family: BACS"">dkLlkdrO</p>","","","","","","","","",""
"html-keyboard-response","341","448036","0.0-16.0-0.9","5f858743256d25036d9fa693","650c16f0f2faf8d7a0d14c09","651c1bddc73b6eea8fa971d1","null","null","<p style=""font-size: 60px; font-family: BACS"">dkLlkdrO</p>","","","","","","","","",""
"html-keyboard-response","342","449038","0.0-16.0-0.10","5f858743256d25036d9fa693","650c16f0f2faf8d7a0d14c09","651c1bddc73b6eea8fa971d1","null","null","<p style=""font-size: 60px; font-family: BACS"">dkLlkdrO</p>","","","","","","","","",""
"html-keyboard-response","343","450040","0.0-16.0-0.11","5f858743256d25036d9fa693","650c16f0f2faf8d7a0d14c09","651c1bddc73b6eea8fa971d1","null","null","<p style=""font-size: 60px; font-family: BACS"">dkLlkdrO</p>","","","","","","","","",""
"html-keyboard-response","344","451044","0.0-16.0-0.12","5f858743256d25036d9fa693","650c16f0f2faf8d7a0d14c09","651c1bddc73b6eea8fa971d1","null","null","<p style=""font-size: 60px; font-family: BACS"">dkLlkdrO</p>","","","","","","","","",""
"html-keyboard-response","345","452047","0.0-16.0-0.13","5f858743256d25036d9fa693","650c16f0f2faf8d7a0d14c09","651c1bddc73b6eea8fa971d1","null","null","<p style=""font-size: 60px; font-family: BACS"">dkLlkdrO</p>","","","","","","","","",""
"html-keyboard-response","346","453048","0.0-16.0-0.14","5f858743256d25036d9fa693","650c16f0f2faf8d7a0d14c09","651c1bddc73b6eea8fa971d1","null","null","<p style=""font-size: 60px; font-family: BACS"">dkLlkdrO</p>","","","","","","","","",""
"html-keyboard-response","347","454062","0.0-16.0-0.15","5f858743256d25036d9fa693","650c16f0f2faf8d7a0d14c09","651c1bddc73b6eea8fa971d1","null","null","<p style=""font-size: 60px; font-family: BACS"">dkLlkdrO</p>","","","","","","","","",""
"html-keyboard-response","348","455063","0.0-16.0-0.16","5f858743256d25036d9fa693","650c16f0f2faf8d7a0d14c09","651c1bddc73b6eea8fa971d1","null","null","<p style=""font-size: 60px; font-family: BACS"">dkLlkdrO</p>","","","","","","","","",""
"html-keyboard-response","349","456078","0.0-16.0-0.17","5f858743256d25036d9fa693","650c16f0f2faf8d7a0d14c09","651c1bddc73b6eea8fa971d1","null","null","<p style=""font-size: 60px; font-family: BACS"">dkLlkdrO</p>","","","","","","","","",""
"html-keyboard-response","350","457092","0.0-16.0-0.18","5f858743256d25036d9fa693","650c16f0f2faf8d7a0d14c09","651c1bddc73b6eea8fa971d1","null","null","<p style=""font-size: 60px; font-family: BACS"">dkLlkdrO</p>","","","","","","","","",""
"html-keyboard-response","351","458098","0.0-16.0-0.19","5f858743256d25036d9fa693","650c16f0f2faf8d7a0d14c09","651c1bddc73b6eea8fa971d1","null","null","<p style=""font-size: 60px; font-family: BACS"">dkLlkdrO</p>","","","","","","","","",""
"html-keyboard-response","352","459109","0.0-16.0-0.20","5f858743256d25036d9fa693","650c16f0f2faf8d7a0d14c09","651c1bddc73b6eea8fa971d1","null","null","<p style=""font-size: 60px; font-family: BACS"">dkLlkdrO</p>","","","","","","","","",""
"html-keyboard-response","353","460117","0.0-16.0-0.21","5f858743256d25036d9fa693","650c16f0f2faf8d7a0d14c09","651c1bddc73b6eea8fa971d1","null","null","<p style=""font-size: 60px; font-family: BACS"">dkLlkdrO</p>","","","","","","","","",""
"html-keyboard-response","354","461125","0.0-16.0-0.22","5f858743256d25036d9fa693","650c16f0f2faf8d7a0d14c09","651c1bddc73b6eea8fa971d1","null","null","<p style=""font-size: 60px; font-family: BACS"">dkLlkdrO</p>","","","","","","","","",""
"html-keyboard-response","355","462129","0.0-16.0-0.23","5f858743256d25036d9fa693","650c16f0f2faf8d7a0d14c09","651c1bddc73b6eea8fa971d1","null","null","<p style=""font-size: 60px; font-family: BACS"">dkLlkdrO</p>","","","","","","","","",""
"html-keyboard-response","356","463132","0.0-16.0-0.24","5f858743256d25036d9fa693","650c16f0f2faf8d7a0d14c09","651c1bddc73b6eea8fa971d1","null","null","<p style=""font-size: 60px; font-family: BACS"">dkLlkdrO</p>","","","","","","","","",""
"html-keyboard-response","357","464144","0.0-16.0-0.25","5f858743256d25036d9fa693","650c16f0f2faf8d7a0d14c09","651c1bddc73b6eea8fa971d1","null","null","<p style=""font-size: 60px; font-family: BACS"">dkLlkdrO</p>","","","","","","","","",""
"html-keyboard-response","358","465153","0.0-16.0-0.26","5f858743256d25036d9fa693","650c16f0f2faf8d7a0d14c09","651c1bddc73b6eea8fa971d1","null","null","<p style=""font-size: 60px; font-family: BACS"">dkLlkdrO</p>","","","","","","","","",""
"html-keyboard-response","359","466154","0.0-16.0-0.27","5f858743256d25036d9fa693","650c16f0f2faf8d7a0d14c09","651c1bddc73b6eea8fa971d1","null","null","<p style=""font-size: 60px; font-family: BACS"">dkLlkdrO</p>","","","","","","","","",""
"html-keyboard-response","360","467168","0.0-16.0-0.28","5f858743256d25036d9fa693","650c16f0f2faf8d7a0d14c09","651c1bddc73b6eea8fa971d1","null","null","<p style=""font-size: 60px; font-family: BACS"">dkLlkdrO</p>","","","","","","","","",""
"html-keyboard-response","361","468174","0.0-16.0-0.29","5f858743256d25036d9fa693","650c16f0f2faf8d7a0d14c09","651c1bddc73b6eea8fa971d1","null","null","<p style=""font-size: 60px; font-family: BACS"">dkLlkdrO</p>","","","","","","","","",""
"html-keyboard-response","362","469180","0.0-16.0-0.30","5f858743256d25036d9fa693","650c16f0f2faf8d7a0d14c09","651c1bddc73b6eea8fa971d1","null","null","<p style=""font-size: 60px; font-family: BACS"">dkLlkdrO</p>","","","","","","","","",""
"html-keyboard-response","363","470185","0.0-16.0-0.31","5f858743256d25036d9fa693","650c16f0f2faf8d7a0d14c09","651c1bddc73b6eea8fa971d1","null","null","<p style=""font-size: 60px; font-family: BACS"">dkLlkdrO</p>","","","","","","","","",""
"html-keyboard-response","364","471192","0.0-16.0-0.32","5f858743256d25036d9fa693","650c16f0f2faf8d7a0d14c09","651c1bddc73b6eea8fa971d1","null","null","<p style=""font-size: 60px; font-family: BACS"">dkLlkdrO</p>","","","","","","","","",""
"html-keyboard-response","365","472199","0.0-16.0-0.33","5f858743256d25036d9fa693","650c16f0f2faf8d7a0d14c09","651c1bddc73b6eea8fa971d1","null","null","<p style=""font-size: 60px; font-family: BACS"">dkLlkdrO</p>","","","","","","","","",""
"html-keyboard-response","366","473204","0.0-16.0-0.34","5f858743256d25036d9fa693","650c16f0f2faf8d7a0d14c09","651c1bddc73b6eea8fa971d1","null","null","<p style=""font-size: 60px; font-family: BACS"">dkLlkdrO</p>","","","","","","","","",""
"html-keyboard-response","367","474219","0.0-16.0-0.35","5f858743256d25036d9fa693","650c16f0f2faf8d7a0d14c09","651c1bddc73b6eea8fa971d1","null","null","<p style=""font-size: 60px; font-family: BACS"">dkLlkdrO</p>","","","","","","","","",""
"html-keyboard-response","368","475221","0.0-16.0-0.36","5f858743256d25036d9fa693","650c16f0f2faf8d7a0d14c09","651c1bddc73b6eea8fa971d1","null","null","<p style=""font-size: 60px; font-family: BACS"">dkLlkdrO</p>","","","","","","","","",""
"html-keyboard-response","369","476222","0.0-16.0-0.37","5f858743256d25036d9fa693","650c16f0f2faf8d7a0d14c09","651c1bddc73b6eea8fa971d1","null","null","<p style=""font-size: 60px; font-family: BACS"">dkLlkdrO</p>","","","","","","","","",""
"html-keyboard-response","370","477224","0.0-16.0-0.38","5f858743256d25036d9fa693","650c16f0f2faf8d7a0d14c09","651c1bddc73b6eea8fa971d1","null","null","<p style=""font-size: 60px; font-family: BACS"">dkLlkdrO</p>","","","","","","","","",""
"html-keyboard-response","371","478233","0.0-16.0-0.39","5f858743256d25036d9fa693","650c16f0f2faf8d7a0d14c09","651c1bddc73b6eea8fa971d1","null","null","<p style=""font-size: 60px; font-family: BACS"">dkLlkdrO</p>","","","","","","","","",""
"html-keyboard-response","372","479244","0.0-16.0-0.40","5f858743256d25036d9fa693","650c16f0f2faf8d7a0d14c09","651c1bddc73b6eea8fa971d1","null","null","<p style=""font-size: 60px; font-family: BACS"">dkLlkdrO</p>","","","","","","","","",""
"html-keyboard-response","373","480245","0.0-16.0-0.41","5f858743256d25036d9fa693","650c16f0f2faf8d7a0d14c09","651c1bddc73b6eea8fa971d1","null","null","<p style=""font-size: 60px; font-family: BACS"">dkLlkdrO</p>","","","","","","","","",""
"html-keyboard-response","374","481256","0.0-16.0-0.42","5f858743256d25036d9fa693","650c16f0f2faf8d7a0d14c09","651c1bddc73b6eea8fa971d1","null","null","<p style=""font-size: 60px; font-family: BACS"">dkLlkdrO</p>","","","","","","","","",""
"html-keyboard-response","375","482258","0.0-16.0-0.43","5f858743256d25036d9fa693","650c16f0f2faf8d7a0d14c09","651c1bddc73b6eea8fa971d1","null","null","<p style=""font-size: 60px; font-family: BACS"">dkLlkdrO</p>","","","","","","","","",""
"html-keyboard-response","376","483268","0.0-16.0-0.44","5f858743256d25036d9fa693","650c16f0f2faf8d7a0d14c09","651c1bddc73b6eea8fa971d1","null","null","<p style=""font-size: 60px; font-family: BACS"">dkLlkdrO</p>","","","","","","","","",""
"html-keyboard-response","377","484272","0.0-16.0-0.45","5f858743256d25036d9fa693","650c16f0f2faf8d7a0d14c09","651c1bddc73b6eea8fa971d1","null","null","<p style=""font-size: 60px; font-family: BACS"">dkLlkdrO</p>","","","","","","","","",""
"html-keyboard-response","378","485295","0.0-16.0-0.46","5f858743256d25036d9fa693","650c16f0f2faf8d7a0d14c09","651c1bddc73b6eea8fa971d1","null","null","<p style=""font-size: 60px; font-family: BACS"">dkLlkdrO</p>","","","","","","","","",""
"html-keyboard-response","379","486297","0.0-16.0-0.47","5f858743256d25036d9fa693","650c16f0f2faf8d7a0d14c09","651c1bddc73b6eea8fa971d1","null","null","<p style=""font-size: 60px; font-family: BACS"">dkLlkdrO</p>","","","","","","","","",""
"html-keyboard-response","380","487300","0.0-16.0-0.48","5f858743256d25036d9fa693","650c16f0f2faf8d7a0d14c09","651c1bddc73b6eea8fa971d1","null","null","<p style=""font-size: 60px; font-family: BACS"">dkLlkdrO</p>","","","","","","","","",""
"html-keyboard-response","381","488301","0.0-16.0-0.49","5f858743256d25036d9fa693","650c16f0f2faf8d7a0d14c09","651c1bddc73b6eea8fa971d1","null","null","<p style=""font-size: 60px; font-family: BACS"">dkLlkdrO</p>","","","","","","","","",""
"html-keyboard-response","382","489320","0.0-16.0-0.50","5f858743256d25036d9fa693","650c16f0f2faf8d7a0d14c09","651c1bddc73b6eea8fa971d1","null","null","<p style=""font-size: 60px; font-family: BACS"">dkLlkdrO</p>","","","","","","","","",""
"html-keyboard-response","383","490323","0.0-16.0-0.51","5f858743256d25036d9fa693","650c16f0f2faf8d7a0d14c09","651c1bddc73b6eea8fa971d1","null","null","<p style=""font-size: 60px; font-family: BACS"">dkLlkdrO</p>","","","","","","","","",""
"html-keyboard-response","384","491326","0.0-16.0-0.52","5f858743256d25036d9fa693","650c16f0f2faf8d7a0d14c09","651c1bddc73b6eea8fa971d1","null","null","<p style=""font-size: 60px; font-family: BACS"">dkLlkdrO</p>","","","","","","","","",""
"html-keyboard-response","385","492328","0.0-16.0-0.53","5f858743256d25036d9fa693","650c16f0f2faf8d7a0d14c09","651c1bddc73b6eea8fa971d1","null","null","<p style=""font-size: 60px; font-family: BACS"">dkLlkdrO</p>","","","","","","","","",""
"html-keyboard-response","386","493331","0.0-16.0-0.54","5f858743256d25036d9fa693","650c16f0f2faf8d7a0d14c09","651c1bddc73b6eea8fa971d1","null","null","<p style=""font-size: 60px; font-family: BACS"">dkLlkdrO</p>","","","","","","","","",""
"html-keyboard-response","387","494333","0.0-16.0-0.55","5f858743256d25036d9fa693","650c16f0f2faf8d7a0d14c09","651c1bddc73b6eea8fa971d1","null","null","<p style=""font-size: 60px; font-family: BACS"">dkLlkdrO</p>","","","","","","","","",""
"html-keyboard-response","388","495337","0.0-16.0-0.56","5f858743256d25036d9fa693","650c16f0f2faf8d7a0d14c09","651c1bddc73b6eea8fa971d1","null","null","<p style=""font-size: 60px; font-family: BACS"">dkLlkdrO</p>","","","","","","","","",""
"html-keyboard-response","389","496339","0.0-16.0-0.57","5f858743256d25036d9fa693","650c16f0f2faf8d7a0d14c09","651c1bddc73b6eea8fa971d1","null","null","<p style=""font-size: 60px; font-family: BACS"">dkLlkdrO</p>","","","","","","","","",""
"html-keyboard-response","390","497341","0.0-16.0-0.58","5f858743256d25036d9fa693","650c16f0f2faf8d7a0d14c09","651c1bddc73b6eea8fa971d1","null","null","<p style=""font-size: 60px; font-family: BACS"">dkLlkdrO</p>","","","","","","","","",""
"html-keyboard-response","391","498357","0.0-16.0-0.59","5f858743256d25036d9fa693","650c16f0f2faf8d7a0d14c09","651c1bddc73b6eea8fa971d1","null","null","<p style=""font-size: 60px; font-family: BACS"">dkLlkdrO</p>","","","","","","","","",""
"html-keyboard-response","392","499360","0.0-16.0-0.60","5f858743256d25036d9fa693","650c16f0f2faf8d7a0d14c09","651c1bddc73b6eea8fa971d1","null","null","<p style=""font-size: 60px; font-family: BACS"">dkLlkdrO</p>","","","","","","","","",""
"html-keyboard-response","393","500363","0.0-16.0-0.61","5f858743256d25036d9fa693","650c16f0f2faf8d7a0d14c09","651c1bddc73b6eea8fa971d1","null","null","<p style=""font-size: 60px; font-family: BACS"">dkLlkdrO</p>","","","","","","","","",""
"html-keyboard-response","394","501365","0.0-16.0-0.62","5f858743256d25036d9fa693","650c16f0f2faf8d7a0d14c09","651c1bddc73b6eea8fa971d1","null","null","<p style=""font-size: 60px; font-family: BACS"">dkLlkdrO</p>","","","","","","","","",""
"html-keyboard-response","395","502366","0.0-16.0-0.63","5f858743256d25036d9fa693","650c16f0f2faf8d7a0d14c09","651c1bddc73b6eea8fa971d1","null","null","<p style=""font-size: 60px; font-family: BACS"">dkLlkdrO</p>","","","","","","","","",""
"html-keyboard-response","396","503369","0.0-16.0-0.64","5f858743256d25036d9fa693","650c16f0f2faf8d7a0d14c09","651c1bddc73b6eea8fa971d1","null","null","<p style=""font-size: 60px; font-family: BACS"">dkLlkdrO</p>","","","","","","","","",""
"html-keyboard-response","397","504377","0.0-16.0-0.65","5f858743256d25036d9fa693","650c16f0f2faf8d7a0d14c09","651c1bddc73b6eea8fa971d1","null","null","<p style=""font-size: 60px; font-family: BACS"">dkLlkdrO</p>","","","","","","","","",""
"html-keyboard-response","398","505390","0.0-16.0-0.66","5f858743256d25036d9fa693","650c16f0f2faf8d7a0d14c09","651c1bddc73b6eea8fa971d1","null","null","<p style=""font-size: 60px; font-family: BACS"">dkLlkdrO</p>","","","","","","","","",""
"html-keyboard-response","399","506394","0.0-16.0-0.67","5f858743256d25036d9fa693","650c16f0f2faf8d7a0d14c09","651c1bddc73b6eea8fa971d1","null","null","<p style=""font-size: 60px; font-family: BACS"">dkLlkdrO</p>","","","","","","","","",""
"html-keyboard-response","400","507397","0.0-16.0-0.68","5f858743256d25036d9fa693","650c16f0f2faf8d7a0d14c09","651c1bddc73b6eea8fa971d1","null","null","<p style=""font-size: 60px; font-family: BACS"">dkLlkdrO</p>","","","","","","","","",""
