"trial_type","trial_index","time_elapsed","internal_node_id","subject_id","study_id","session_id","rt","response","stimulus","success","item","task","correct_response","testing_condition","correct","target","confound","name"
"pavlovia","0","2859","0.0-0.0","5f5a713d37f71112463ab4d9","650c16f0f2faf8d7a0d14c09","651c1b4b8eb61a020655d085","","","","","","","","","","","",""
"survey-html-form","1","11005","0.0-1.0","5f5a713d37f71112463ab4d9","650c16f0f2faf8d7a0d14c09","651c1b4b8eb61a020655d085","8144","{""ID"":""5f5a713d37f71112463ab4d9""}","","","","","","","","","",""
"html-keyboard-response","2","33071","0.0-2.0","5f5a713d37f71112463ab4d9","650c16f0f2faf8d7a0d14c09","651c1b4b8eb61a020655d085","22058"," ","<p style=""font-size: 15px;"">Before beginning, we ask that you read the consent information and confirm your agreement to participate in the experiment.</p>
      <p style=""font-size: 15px;""> We ask that you remember that this is a research project and that your participation is entirely voluntary. You can stop your participation at any time, without needing to provide any explanation. The study we're asking you to participate in aims at examining how readers process written words. You will be engaged in a session of apprximately 20 minutes, followed by a brief questionnaire. You will have the opportunity to take a few breaks during the experiment. You will be paid £4 for your participation, corresponding to a rate of £8/hour. While this experiment looks at cognitive faculties, this experiment doesn't constitute clinical proof of eventual pathologies.</p>
      <p style=""font-size: 15px;"">All of the information collected thanks to yours and others' participation will be held in a secure password-protected server, and will not be shared with anyone not authorised to view it. Your personal information will be kept with an arbitrary participant ID. Thanks to this data anonymity process, any researcher analysing the data won't be able to track the information back to a specific participant. Therefore, this process will make identifying you impossibile, even when results from the study will be published in scientific reviews, presented at congresses, or at any other public forum. More generally, the collected data will be treated in accordance with the laws on privacy and conformity to the Legislative Degree n. 196 ""Code regarding the protection of personal data"" of the 30th of June 2003 and to the European Regulation 2016/670 (General Data Protection Regulation - GDPR). The Data Protection Officer is Avv. Valentina Carollo, who can be contacted at the following email addresses: <a href=""mailto:dpo@sissa.it"">dpo@sissa.it</a> or <a href=""mailto:rpd@sissa.it"">rpd@sissa.it</a> - PEC: <a href=""mailto:protocollo@pec.sissa.it"">protocollo@pec.sissa.it</a>.</p>
      <p style=""font-size: 15px;""> Before expressing your consent to participate, we would like to remind you again that in case you need explanations on any aspect of the experimental procedure, the researcher is at your disposition (<a href=""mailto:aliebelt@sissa.it"">aliebelt@sissa.it</a>, <a href=""mailto:davide.crepaldi@sissa.it"">davide.crepaldi@sissa.it</a>).</p>
      <p style=""font-size: 15px;"">If you would like to download the informed consent form, you can do so here: <a href=""BASL-Informed_Consent.pdf"" download>informed consent form</a>.</p>
      <p style=""font-size: 15px;"">We ask that you press the spacebar to proceed to the consent section.</p>","","","","","","","","",""
"survey-html-form","3","50452","0.0-3.0","5f5a713d37f71112463ab4d9","650c16f0f2faf8d7a0d14c09","651c1b4b8eb61a020655d085","17378","{""consent1"":""YES"",""consent2"":""YES"",""consent3"":""YES"",""consent4"":""YES"",""consent5"":""YES"",""consent6"":""YES""}","","","","","","","","","",""
"fullscreen","4","155731","0.0-4.0","5f5a713d37f71112463ab4d9","650c16f0f2faf8d7a0d14c09","651c1b4b8eb61a020655d085","","","","true","","","","","","","",""
"html-keyboard-response","5","174184","0.0-5.0","5f5a713d37f71112463ab4d9","650c16f0f2faf8d7a0d14c09","651c1b4b8eb61a020655d085","18453"," ","<p>Welcome, and thank you very much for your time!</p>
      <p>In this experiment, you'll be a language expert who's been asked to take a look at words that Earth has received in its first communication with aliens. Your task, in this first part of the experiment, is to pay close attention to the words you'll be shown; later, world leaders will ask you questions on what you saw. The words will be shown to you quite quickly; it seems that the aliens were in a hurry :-)</p>
      <p>Press the spacebar to continue.<p>","","","","","","","","",""
"html-keyboard-response","6","174237","0.0-6.0","5f5a713d37f71112463ab4d9","650c16f0f2faf8d7a0d14c09","651c1b4b8eb61a020655d085","null","null","<p style=""font-size: 120px; font-family: BACS""> </p>","","","","","","","","",""
"html-keyboard-response","7","185156","0.0-7.0","5f5a713d37f71112463ab4d9","650c16f0f2faf8d7a0d14c09","651c1b4b8eb61a020655d085","10918"," ","<p>Here is an example of the words you'll see:</p>
      <img src='esempio.png' height='400px'>
      <p>When you're ready to begin, press the spacebar.</p></div>","","","","","","","","",""
"html-keyboard-response","8","186161","0.0-8.0-0.0","5f5a713d37f71112463ab4d9","650c16f0f2faf8d7a0d14c09","651c1b4b8eb61a020655d085","null","null","<p style=""font-size: 60px; font-family: BACS"">rdLJaLUOk</p>","","","","","","","","",""
"html-keyboard-response","9","187168","0.0-8.0-0.1","5f5a713d37f71112463ab4d9","650c16f0f2faf8d7a0d14c09","651c1b4b8eb61a020655d085","null","null","<p style=""font-size: 60px; font-family: BACS"">ZcGdNGUOA</p>","","","","","","","","",""
"html-keyboard-response","10","188175","0.0-8.0-0.2","5f5a713d37f71112463ab4d9","650c16f0f2faf8d7a0d14c09","651c1b4b8eb61a020655d085","null","null","<p style=""font-size: 60px; font-family: BACS"">UdlGQLUOk</p>","","","","","","","","",""
"html-keyboard-response","11","189182","0.0-8.0-0.3","5f5a713d37f71112463ab4d9","650c16f0f2faf8d7a0d14c09","651c1b4b8eb61a020655d085","null","null","<p style=""font-size: 60px; font-family: BACS"">ACcOKEdl</p>","","","","","","","","",""
"html-keyboard-response","12","190185","0.0-8.0-0.4","5f5a713d37f71112463ab4d9","650c16f0f2faf8d7a0d14c09","651c1b4b8eb61a020655d085","null","null","<p style=""font-size: 60px; font-family: BACS"">LQurdUr</p>","","","","","","","","",""
"html-keyboard-response","13","191193","0.0-8.0-0.5","5f5a713d37f71112463ab4d9","650c16f0f2faf8d7a0d14c09","651c1b4b8eb61a020655d085","null","null","<p style=""font-size: 60px; font-family: BACS"">BECkbdtK</p>","","","","","","","","",""
"html-keyboard-response","14","192200","0.0-8.0-0.6","5f5a713d37f71112463ab4d9","650c16f0f2faf8d7a0d14c09","651c1b4b8eb61a020655d085","null","null","<p style=""font-size: 60px; font-family: BACS"">OEPkDOAK</p>","","","","","","","","",""
"html-keyboard-response","15","193206","0.0-8.0-0.7","5f5a713d37f71112463ab4d9","650c16f0f2faf8d7a0d14c09","651c1b4b8eb61a020655d085","null","null","<p style=""font-size: 60px; font-family: BACS"">DlDdbAMO</p>","","","","","","","","",""
"html-keyboard-response","16","194216","0.0-8.0-0.8","5f5a713d37f71112463ab4d9","650c16f0f2faf8d7a0d14c09","651c1b4b8eb61a020655d085","null","null","<p style=""font-size: 60px; font-family: BACS"">MBKREbdtK</p>","","","","","","","","",""
"html-keyboard-response","17","195221","0.0-8.0-0.9","5f5a713d37f71112463ab4d9","650c16f0f2faf8d7a0d14c09","651c1b4b8eb61a020655d085","null","null","<p style=""font-size: 60px; font-family: BACS"">GLYrALUOk</p>","","","","","","","","",""
"html-keyboard-response","18","196227","0.0-8.0-0.10","5f5a713d37f71112463ab4d9","650c16f0f2faf8d7a0d14c09","651c1b4b8eb61a020655d085","null","null","<p style=""font-size: 60px; font-family: BACS"">OEPkAPEM</p>","","","","","","","","",""
"html-keyboard-response","19","197236","0.0-8.0-0.11","5f5a713d37f71112463ab4d9","650c16f0f2faf8d7a0d14c09","651c1b4b8eb61a020655d085","null","null","<p style=""font-size: 60px; font-family: BACS"">rdLJaGUOA</p>","","","","","","","","",""
"html-keyboard-response","20","198246","0.0-8.0-0.12","5f5a713d37f71112463ab4d9","650c16f0f2faf8d7a0d14c09","651c1b4b8eb61a020655d085","null","null","<p style=""font-size: 60px; font-family: BACS"">ACcObAMO</p>","","","","","","","","",""
"html-keyboard-response","21","199246","0.0-8.0-0.13","5f5a713d37f71112463ab4d9","650c16f0f2faf8d7a0d14c09","651c1b4b8eb61a020655d085","null","null","<p style=""font-size: 60px; font-family: BACS"">PDPhlbdtK</p>","","","","","","","","",""
"html-keyboard-response","22","200261","0.0-8.0-0.14","5f5a713d37f71112463ab4d9","650c16f0f2faf8d7a0d14c09","651c1b4b8eb61a020655d085","null","null","<p style=""font-size: 60px; font-family: BACS"">UdlGQvAvb</p>","","","","","","","","",""
"html-keyboard-response","23","201264","0.0-8.0-0.15","5f5a713d37f71112463ab4d9","650c16f0f2faf8d7a0d14c09","651c1b4b8eb61a020655d085","null","null","<p style=""font-size: 60px; font-family: BACS"">MBKREbAMO</p>","","","","","","","","",""
"html-keyboard-response","24","202276","0.0-8.0-0.16","5f5a713d37f71112463ab4d9","650c16f0f2faf8d7a0d14c09","651c1b4b8eb61a020655d085","null","null","<p style=""font-size: 60px; font-family: BACS"">DlDdDOAK</p>","","","","","","","","",""
"html-keyboard-response","25","203277","0.0-8.0-0.17","5f5a713d37f71112463ab4d9","650c16f0f2faf8d7a0d14c09","651c1b4b8eb61a020655d085","null","null","<p style=""font-size: 60px; font-family: BACS"">kulZLUOk</p>","","","","","","","","",""
"html-keyboard-response","26","204289","0.0-8.0-0.18","5f5a713d37f71112463ab4d9","650c16f0f2faf8d7a0d14c09","651c1b4b8eb61a020655d085","null","null","<p style=""font-size: 60px; font-family: BACS"">GLYrAkJdr</p>","","","","","","","","",""
"html-keyboard-response","27","205300","0.0-8.0-0.19","5f5a713d37f71112463ab4d9","650c16f0f2faf8d7a0d14c09","651c1b4b8eb61a020655d085","null","null","<p style=""font-size: 60px; font-family: BACS"">MBKREAPEM</p>","","","","","","","","",""
"html-keyboard-response","28","206315","0.0-8.0-0.20","5f5a713d37f71112463ab4d9","650c16f0f2faf8d7a0d14c09","651c1b4b8eb61a020655d085","null","null","<p style=""font-size: 60px; font-family: BACS"">ACcODOAK</p>","","","","","","","","",""
"html-keyboard-response","29","207317","0.0-8.0-0.21","5f5a713d37f71112463ab4d9","650c16f0f2faf8d7a0d14c09","651c1b4b8eb61a020655d085","null","null","<p style=""font-size: 60px; font-family: BACS"">vQdOdUr</p>","","","","","","","","",""
"html-keyboard-response","30","208321","0.0-8.0-0.22","5f5a713d37f71112463ab4d9","650c16f0f2faf8d7a0d14c09","651c1b4b8eb61a020655d085","null","null","<p style=""font-size: 60px; font-family: BACS"">rdLJavAvb</p>","","","","","","","","",""
"html-keyboard-response","31","209333","0.0-8.0-0.23","5f5a713d37f71112463ab4d9","650c16f0f2faf8d7a0d14c09","651c1b4b8eb61a020655d085","null","null","<p style=""font-size: 60px; font-family: BACS"">NkUAdUr</p>","","","","","","","","",""
"html-keyboard-response","32","210351","0.0-8.0-0.24","5f5a713d37f71112463ab4d9","650c16f0f2faf8d7a0d14c09","651c1b4b8eb61a020655d085","null","null","<p style=""font-size: 60px; font-family: BACS"">DlDdbdtK</p>","","","","","","","","",""
"html-keyboard-response","33","211355","0.0-8.0-0.25","5f5a713d37f71112463ab4d9","650c16f0f2faf8d7a0d14c09","651c1b4b8eb61a020655d085","null","null","<p style=""font-size: 60px; font-family: BACS"">kulZGUOA</p>","","","","","","","","",""
"html-keyboard-response","34","212367","0.0-8.0-0.26","5f5a713d37f71112463ab4d9","650c16f0f2faf8d7a0d14c09","651c1b4b8eb61a020655d085","null","null","<p style=""font-size: 60px; font-family: BACS"">lBKtKEdl</p>","","","","","","","","",""
"html-keyboard-response","35","213368","0.0-8.0-0.27","5f5a713d37f71112463ab4d9","650c16f0f2faf8d7a0d14c09","651c1b4b8eb61a020655d085","null","null","<p style=""font-size: 60px; font-family: BACS"">kKEdMbdtK</p>","","","","","","","","",""
"html-keyboard-response","36","214380","0.0-8.0-0.28","5f5a713d37f71112463ab4d9","650c16f0f2faf8d7a0d14c09","651c1b4b8eb61a020655d085","null","null","<p style=""font-size: 60px; font-family: BACS"">RlAKcDOAK</p>","","","","","","","","",""
"html-keyboard-response","37","215389","0.0-8.0-0.29","5f5a713d37f71112463ab4d9","650c16f0f2faf8d7a0d14c09","651c1b4b8eb61a020655d085","null","null","<p style=""font-size: 60px; font-family: BACS"">ZcGdNvAvb</p>","","","","","","","","",""
"html-keyboard-response","38","216400","0.0-8.0-0.30","5f5a713d37f71112463ab4d9","650c16f0f2faf8d7a0d14c09","651c1b4b8eb61a020655d085","null","null","<p style=""font-size: 60px; font-family: BACS"">vQdOGUOA</p>","","","","","","","","",""
"html-keyboard-response","39","217406","0.0-8.0-0.31","5f5a713d37f71112463ab4d9","650c16f0f2faf8d7a0d14c09","651c1b4b8eb61a020655d085","null","null","<p style=""font-size: 60px; font-family: BACS"">ACcOAPEM</p>","","","","","","","","",""
"html-keyboard-response","40","218412","0.0-8.0-0.32","5f5a713d37f71112463ab4d9","650c16f0f2faf8d7a0d14c09","651c1b4b8eb61a020655d085","null","null","<p style=""font-size: 60px; font-family: BACS"">vQdOkJdr</p>","","","","","","","","",""
"html-keyboard-response","41","219424","0.0-8.0-0.33","5f5a713d37f71112463ab4d9","650c16f0f2faf8d7a0d14c09","651c1b4b8eb61a020655d085","null","null","<p style=""font-size: 60px; font-family: BACS"">PDPhlKEdl</p>","","","","","","","","",""
"html-keyboard-response","42","220434","0.0-8.0-0.34","5f5a713d37f71112463ab4d9","650c16f0f2faf8d7a0d14c09","651c1b4b8eb61a020655d085","null","null","<p style=""font-size: 60px; font-family: BACS"">kabJbkJdr</p>","","","","","","","","",""
"html-keyboard-response","43","221442","0.0-8.0-0.35","5f5a713d37f71112463ab4d9","650c16f0f2faf8d7a0d14c09","651c1b4b8eb61a020655d085","null","null","<p style=""font-size: 60px; font-family: BACS"">UdlGQdUr</p>","","","","","","","","",""
"html-keyboard-response","44","222453","0.0-8.0-0.36","5f5a713d37f71112463ab4d9","650c16f0f2faf8d7a0d14c09","651c1b4b8eb61a020655d085","null","null","<p style=""font-size: 60px; font-family: BACS"">DlDdAPEM</p>","","","","","","","","",""
"html-keyboard-response","45","223457","0.0-8.0-0.37","5f5a713d37f71112463ab4d9","650c16f0f2faf8d7a0d14c09","651c1b4b8eb61a020655d085","null","null","<p style=""font-size: 60px; font-family: BACS"">ZcGdNkJdr</p>","","","","","","","","",""
"html-keyboard-response","46","224463","0.0-8.0-0.38","5f5a713d37f71112463ab4d9","650c16f0f2faf8d7a0d14c09","651c1b4b8eb61a020655d085","null","null","<p style=""font-size: 60px; font-family: BACS"">TAdhMKEdl</p>","","","","","","","","",""
"html-keyboard-response","47","225467","0.0-8.0-0.39","5f5a713d37f71112463ab4d9","650c16f0f2faf8d7a0d14c09","651c1b4b8eb61a020655d085","null","null","<p style=""font-size: 60px; font-family: BACS"">LQurvAvb</p>","","","","","","","","",""
"html-keyboard-response","48","226478","0.0-8.0-0.40","5f5a713d37f71112463ab4d9","650c16f0f2faf8d7a0d14c09","651c1b4b8eb61a020655d085","null","null","<p style=""font-size: 60px; font-family: BACS"">kKEdMKEdl</p>","","","","","","","","",""
"html-keyboard-response","49","227483","0.0-8.0-0.41","5f5a713d37f71112463ab4d9","650c16f0f2faf8d7a0d14c09","651c1b4b8eb61a020655d085","null","null","<p style=""font-size: 60px; font-family: BACS"">MBKREDOAK</p>","","","","","","","","",""
"html-keyboard-response","50","228498","0.0-8.0-0.42","5f5a713d37f71112463ab4d9","650c16f0f2faf8d7a0d14c09","651c1b4b8eb61a020655d085","null","null","<p style=""font-size: 60px; font-family: BACS"">kabJbvAvb</p>","","","","","","","","",""
"html-keyboard-response","51","229500","0.0-8.0-0.43","5f5a713d37f71112463ab4d9","650c16f0f2faf8d7a0d14c09","651c1b4b8eb61a020655d085","null","null","<p style=""font-size: 60px; font-family: BACS"">BECkKEdl</p>","","","","","","","","",""
"html-keyboard-response","52","230512","0.0-8.0-0.44","5f5a713d37f71112463ab4d9","650c16f0f2faf8d7a0d14c09","651c1b4b8eb61a020655d085","null","null","<p style=""font-size: 60px; font-family: BACS"">damYbdUr</p>","","","","","","","","",""
"html-keyboard-response","53","231515","0.0-8.0-0.45","5f5a713d37f71112463ab4d9","650c16f0f2faf8d7a0d14c09","651c1b4b8eb61a020655d085","null","null","<p style=""font-size: 60px; font-family: BACS"">ZcGdNLUOk</p>","","","","","","","","",""
"html-keyboard-response","54","232521","0.0-8.0-0.46","5f5a713d37f71112463ab4d9","650c16f0f2faf8d7a0d14c09","651c1b4b8eb61a020655d085","null","null","<p style=""font-size: 60px; font-family: BACS"">PDPhlbAMO</p>","","","","","","","","",""
"html-keyboard-response","55","233532","0.0-8.0-0.47","5f5a713d37f71112463ab4d9","650c16f0f2faf8d7a0d14c09","651c1b4b8eb61a020655d085","null","null","<p style=""font-size: 60px; font-family: BACS"">kulZkJdr</p>","","","","","","","","",""
"html-keyboard-response","56","234560","0.0-8.0-0.48","5f5a713d37f71112463ab4d9","650c16f0f2faf8d7a0d14c09","651c1b4b8eb61a020655d085","null","null","<p style=""font-size: 60px; font-family: BACS"">lBKtbdtK</p>","","","","","","","","",""
"html-keyboard-response","57","235574","0.0-8.0-0.49","5f5a713d37f71112463ab4d9","650c16f0f2faf8d7a0d14c09","651c1b4b8eb61a020655d085","null","null","<p style=""font-size: 60px; font-family: BACS"">TAdhMbAMO</p>","","","","","","","","",""
"html-keyboard-response","58","236583","0.0-8.0-0.50","5f5a713d37f71112463ab4d9","650c16f0f2faf8d7a0d14c09","651c1b4b8eb61a020655d085","null","null","<p style=""font-size: 60px; font-family: BACS"">kulZdUr</p>","","","","","","","","",""
"html-keyboard-response","59","237599","0.0-8.0-0.51","5f5a713d37f71112463ab4d9","650c16f0f2faf8d7a0d14c09","651c1b4b8eb61a020655d085","null","null","<p style=""font-size: 60px; font-family: BACS"">BECkbAMO</p>","","","","","","","","",""
"html-keyboard-response","60","238615","0.0-8.0-0.52","5f5a713d37f71112463ab4d9","650c16f0f2faf8d7a0d14c09","651c1b4b8eb61a020655d085","null","null","<p style=""font-size: 60px; font-family: BACS"">damYbvAvb</p>","","","","","","","","",""
"html-keyboard-response","61","239618","0.0-8.0-0.53","5f5a713d37f71112463ab4d9","650c16f0f2faf8d7a0d14c09","651c1b4b8eb61a020655d085","null","null","<p style=""font-size: 60px; font-family: BACS"">OEPkKEdl</p>","","","","","","","","",""
"html-keyboard-response","62","240624","0.0-8.0-0.54","5f5a713d37f71112463ab4d9","650c16f0f2faf8d7a0d14c09","651c1b4b8eb61a020655d085","null","null","<p style=""font-size: 60px; font-family: BACS"">GLYrAvAvb</p>","","","","","","","","",""
"html-keyboard-response","63","241632","0.0-8.0-0.55","5f5a713d37f71112463ab4d9","650c16f0f2faf8d7a0d14c09","651c1b4b8eb61a020655d085","null","null","<p style=""font-size: 60px; font-family: BACS"">RlAKcAPEM</p>","","","","","","","","",""
"html-keyboard-response","64","242633","0.0-8.0-0.56","5f5a713d37f71112463ab4d9","650c16f0f2faf8d7a0d14c09","651c1b4b8eb61a020655d085","null","null","<p style=""font-size: 60px; font-family: BACS"">damYbGUOA</p>","","","","","","","","",""
"html-keyboard-response","65","243643","0.0-8.0-0.57","5f5a713d37f71112463ab4d9","650c16f0f2faf8d7a0d14c09","651c1b4b8eb61a020655d085","null","null","<p style=""font-size: 60px; font-family: BACS"">TAdhMbdtK</p>","","","","","","","","",""
"html-keyboard-response","66","244654","0.0-8.0-0.58","5f5a713d37f71112463ab4d9","650c16f0f2faf8d7a0d14c09","651c1b4b8eb61a020655d085","null","null","<p style=""font-size: 60px; font-family: BACS"">RlAKcKEdl</p>","","","","","","","","",""
"html-keyboard-response","67","245656","0.0-8.0-0.59","5f5a713d37f71112463ab4d9","650c16f0f2faf8d7a0d14c09","651c1b4b8eb61a020655d085","null","null","<p style=""font-size: 60px; font-family: BACS"">LQurGUOA</p>","","","","","","","","",""
"html-keyboard-response","68","246666","0.0-8.0-0.60","5f5a713d37f71112463ab4d9","650c16f0f2faf8d7a0d14c09","651c1b4b8eb61a020655d085","null","null","<p style=""font-size: 60px; font-family: BACS"">kKEdMbAMO</p>","","","","","","","","",""
"html-keyboard-response","69","247673","0.0-8.0-0.61","5f5a713d37f71112463ab4d9","650c16f0f2faf8d7a0d14c09","651c1b4b8eb61a020655d085","null","null","<p style=""font-size: 60px; font-family: BACS"">PDPhlDOAK</p>","","","","","","","","",""
"html-keyboard-response","70","248694","0.0-8.0-0.62","5f5a713d37f71112463ab4d9","650c16f0f2faf8d7a0d14c09","651c1b4b8eb61a020655d085","null","null","<p style=""font-size: 60px; font-family: BACS"">NkUALUOk</p>","","","","","","","","",""
"html-keyboard-response","71","249706","0.0-8.0-0.63","5f5a713d37f71112463ab4d9","650c16f0f2faf8d7a0d14c09","651c1b4b8eb61a020655d085","null","null","<p style=""font-size: 60px; font-family: BACS"">OEPkbAMO</p>","","","","","","","","",""
"html-keyboard-response","72","250718","0.0-8.0-0.64","5f5a713d37f71112463ab4d9","650c16f0f2faf8d7a0d14c09","651c1b4b8eb61a020655d085","null","null","<p style=""font-size: 60px; font-family: BACS"">RlAKcbdtK</p>","","","","","","","","",""
"html-keyboard-response","73","251726","0.0-8.0-0.65","5f5a713d37f71112463ab4d9","650c16f0f2faf8d7a0d14c09","651c1b4b8eb61a020655d085","null","null","<p style=""font-size: 60px; font-family: BACS"">GLYrAdUr</p>","","","","","","","","",""
"html-keyboard-response","74","252731","0.0-8.0-0.66","5f5a713d37f71112463ab4d9","650c16f0f2faf8d7a0d14c09","651c1b4b8eb61a020655d085","null","null","<p style=""font-size: 60px; font-family: BACS"">lBKtAPEM</p>","","","","","","","","",""
"html-keyboard-response","75","253744","0.0-8.0-0.67","5f5a713d37f71112463ab4d9","650c16f0f2faf8d7a0d14c09","651c1b4b8eb61a020655d085","null","null","<p style=""font-size: 60px; font-family: BACS"">UdlGQGUOA</p>","","","","","","","","",""
"html-keyboard-response","76","254746","0.0-8.0-0.68","5f5a713d37f71112463ab4d9","650c16f0f2faf8d7a0d14c09","651c1b4b8eb61a020655d085","null","null","<p style=""font-size: 60px; font-family: BACS"">LQurkJdr</p>","","","","","","","","",""
"html-keyboard-response","77","255754","0.0-8.0-0.69","5f5a713d37f71112463ab4d9","650c16f0f2faf8d7a0d14c09","651c1b4b8eb61a020655d085","null","null","<p style=""font-size: 60px; font-family: BACS"">kKEdMAPEM</p>","","","","","","","","",""
"html-keyboard-response","78","256768","0.0-8.0-0.70","5f5a713d37f71112463ab4d9","650c16f0f2faf8d7a0d14c09","651c1b4b8eb61a020655d085","null","null","<p style=""font-size: 60px; font-family: BACS"">kabJbdUr</p>","","","","","","","","",""
"html-keyboard-response","79","257773","0.0-8.0-0.71","5f5a713d37f71112463ab4d9","650c16f0f2faf8d7a0d14c09","651c1b4b8eb61a020655d085","null","null","<p style=""font-size: 60px; font-family: BACS"">TAdhMDOAK</p>","","","","","","","","",""
"html-keyboard-response","80","258779","0.0-8.0-0.72","5f5a713d37f71112463ab4d9","650c16f0f2faf8d7a0d14c09","651c1b4b8eb61a020655d085","null","null","<p style=""font-size: 60px; font-family: BACS"">kabJbLUOk</p>","","","","","","","","",""
"html-keyboard-response","81","259786","0.0-8.0-0.73","5f5a713d37f71112463ab4d9","650c16f0f2faf8d7a0d14c09","651c1b4b8eb61a020655d085","null","null","<p style=""font-size: 60px; font-family: BACS"">BECkAPEM</p>","","","","","","","","",""
"html-keyboard-response","82","260797","0.0-8.0-0.74","5f5a713d37f71112463ab4d9","650c16f0f2faf8d7a0d14c09","651c1b4b8eb61a020655d085","null","null","<p style=""font-size: 60px; font-family: BACS"">rdLJakJdr</p>","","","","","","","","",""
"html-keyboard-response","83","261806","0.0-8.0-0.75","5f5a713d37f71112463ab4d9","650c16f0f2faf8d7a0d14c09","651c1b4b8eb61a020655d085","null","null","<p style=""font-size: 60px; font-family: BACS"">NkUAvAvb</p>","","","","","","","","",""
"html-keyboard-response","84","262819","0.0-8.0-0.76","5f5a713d37f71112463ab4d9","650c16f0f2faf8d7a0d14c09","651c1b4b8eb61a020655d085","null","null","<p style=""font-size: 60px; font-family: BACS"">damYbkJdr</p>","","","","","","","","",""
"html-keyboard-response","85","263831","0.0-8.0-0.77","5f5a713d37f71112463ab4d9","650c16f0f2faf8d7a0d14c09","651c1b4b8eb61a020655d085","null","null","<p style=""font-size: 60px; font-family: BACS"">vQdOLUOk</p>","","","","","","","","",""
"html-keyboard-response","86","264838","0.0-8.0-0.78","5f5a713d37f71112463ab4d9","650c16f0f2faf8d7a0d14c09","651c1b4b8eb61a020655d085","null","null","<p style=""font-size: 60px; font-family: BACS"">lBKtDOAK</p>","","","","","","","","",""
"html-keyboard-response","87","265849","0.0-8.0-0.79","5f5a713d37f71112463ab4d9","650c16f0f2faf8d7a0d14c09","651c1b4b8eb61a020655d085","null","null","<p style=""font-size: 60px; font-family: BACS"">NkUAGUOA</p>","","","","","","","","",""
"html-keyboard-response","88","273514","0.0-9.0","5f5a713d37f71112463ab4d9","650c16f0f2faf8d7a0d14c09","651c1b4b8eb61a020655d085","7664"," ","<p>Great, you've seen the first block of words. You may now take a short break.</p>
      <p>Press the spacebar when you're ready to continue.</p>","","","","","","","","",""
"html-keyboard-response","89","274519","0.0-10.0-0.0","5f5a713d37f71112463ab4d9","650c16f0f2faf8d7a0d14c09","651c1b4b8eb61a020655d085","null","null","<p style=""font-size: 60px; font-family: BACS"">BECkKEdl</p>","","","","","","","","",""
"html-keyboard-response","90","275524","0.0-10.0-0.1","5f5a713d37f71112463ab4d9","650c16f0f2faf8d7a0d14c09","651c1b4b8eb61a020655d085","null","null","<p style=""font-size: 60px; font-family: BACS"">LQurvAvb</p>","","","","","","","","",""
"html-keyboard-response","91","276532","0.0-10.0-0.2","5f5a713d37f71112463ab4d9","650c16f0f2faf8d7a0d14c09","651c1b4b8eb61a020655d085","null","null","<p style=""font-size: 60px; font-family: BACS"">PDPhlDOAK</p>","","","","","","","","",""
"html-keyboard-response","92","277542","0.0-10.0-0.3","5f5a713d37f71112463ab4d9","650c16f0f2faf8d7a0d14c09","651c1b4b8eb61a020655d085","null","null","<p style=""font-size: 60px; font-family: BACS"">rdLJakJdr</p>","","","","","","","","",""
"html-keyboard-response","93","278559","0.0-10.0-0.4","5f5a713d37f71112463ab4d9","650c16f0f2faf8d7a0d14c09","651c1b4b8eb61a020655d085","null","null","<p style=""font-size: 60px; font-family: BACS"">LQurdUr</p>","","","","","","","","",""
"html-keyboard-response","94","279572","0.0-10.0-0.5","5f5a713d37f71112463ab4d9","650c16f0f2faf8d7a0d14c09","651c1b4b8eb61a020655d085","null","null","<p style=""font-size: 60px; font-family: BACS"">ZcGdNkJdr</p>","","","","","","","","",""
"html-keyboard-response","95","280584","0.0-10.0-0.6","5f5a713d37f71112463ab4d9","650c16f0f2faf8d7a0d14c09","651c1b4b8eb61a020655d085","null","null","<p style=""font-size: 60px; font-family: BACS"">ACcOKEdl</p>","","","","","","","","",""
"html-keyboard-response","96","281592","0.0-10.0-0.7","5f5a713d37f71112463ab4d9","650c16f0f2faf8d7a0d14c09","651c1b4b8eb61a020655d085","null","null","<p style=""font-size: 60px; font-family: BACS"">kabJbvAvb</p>","","","","","","","","",""
"html-keyboard-response","97","282597","0.0-10.0-0.8","5f5a713d37f71112463ab4d9","650c16f0f2faf8d7a0d14c09","651c1b4b8eb61a020655d085","null","null","<p style=""font-size: 60px; font-family: BACS"">TAdhMDOAK</p>","","","","","","","","",""
"html-keyboard-response","98","283601","0.0-10.0-0.9","5f5a713d37f71112463ab4d9","650c16f0f2faf8d7a0d14c09","651c1b4b8eb61a020655d085","null","null","<p style=""font-size: 60px; font-family: BACS"">kulZkJdr</p>","","","","","","","","",""
"html-keyboard-response","99","284608","0.0-10.0-0.10","5f5a713d37f71112463ab4d9","650c16f0f2faf8d7a0d14c09","651c1b4b8eb61a020655d085","null","null","<p style=""font-size: 60px; font-family: BACS"">NkUAdUr</p>","","","","","","","","",""
"html-keyboard-response","100","285616","0.0-10.0-0.11","5f5a713d37f71112463ab4d9","650c16f0f2faf8d7a0d14c09","651c1b4b8eb61a020655d085","null","null","<p style=""font-size: 60px; font-family: BACS"">kulZLUOk</p>","","","","","","","","",""
"html-keyboard-response","101","286630","0.0-10.0-0.12","5f5a713d37f71112463ab4d9","650c16f0f2faf8d7a0d14c09","651c1b4b8eb61a020655d085","null","null","<p style=""font-size: 60px; font-family: BACS"">damYbGUOA</p>","","","","","","","","",""
"html-keyboard-response","102","287638","0.0-10.0-0.13","5f5a713d37f71112463ab4d9","650c16f0f2faf8d7a0d14c09","651c1b4b8eb61a020655d085","null","null","<p style=""font-size: 60px; font-family: BACS"">vQdOLUOk</p>","","","","","","","","",""
"html-keyboard-response","103","288650","0.0-10.0-0.14","5f5a713d37f71112463ab4d9","650c16f0f2faf8d7a0d14c09","651c1b4b8eb61a020655d085","null","null","<p style=""font-size: 60px; font-family: BACS"">NkUAvAvb</p>","","","","","","","","",""
"html-keyboard-response","104","289659","0.0-10.0-0.15","5f5a713d37f71112463ab4d9","650c16f0f2faf8d7a0d14c09","651c1b4b8eb61a020655d085","null","null","<p style=""font-size: 60px; font-family: BACS"">ACcObAMO</p>","","","","","","","","",""
"html-keyboard-response","105","290664","0.0-10.0-0.16","5f5a713d37f71112463ab4d9","650c16f0f2faf8d7a0d14c09","651c1b4b8eb61a020655d085","null","null","<p style=""font-size: 60px; font-family: BACS"">OEPkKEdl</p>","","","","","","","","",""
"html-keyboard-response","106","291678","0.0-10.0-0.17","5f5a713d37f71112463ab4d9","650c16f0f2faf8d7a0d14c09","651c1b4b8eb61a020655d085","null","null","<p style=""font-size: 60px; font-family: BACS"">GLYrAkJdr</p>","","","","","","","","",""
"html-keyboard-response","107","292690","0.0-10.0-0.18","5f5a713d37f71112463ab4d9","650c16f0f2faf8d7a0d14c09","651c1b4b8eb61a020655d085","null","null","<p style=""font-size: 60px; font-family: BACS"">kulZGUOA</p>","","","","","","","","",""
"html-keyboard-response","108","293700","0.0-10.0-0.19","5f5a713d37f71112463ab4d9","650c16f0f2faf8d7a0d14c09","651c1b4b8eb61a020655d085","null","null","<p style=""font-size: 60px; font-family: BACS"">RlAKcbdtK</p>","","","","","","","","",""
"html-keyboard-response","109","294707","0.0-10.0-0.20","5f5a713d37f71112463ab4d9","650c16f0f2faf8d7a0d14c09","651c1b4b8eb61a020655d085","null","null","<p style=""font-size: 60px; font-family: BACS"">TAdhMKEdl</p>","","","","","","","","",""
"html-keyboard-response","110","295716","0.0-10.0-0.21","5f5a713d37f71112463ab4d9","650c16f0f2faf8d7a0d14c09","651c1b4b8eb61a020655d085","null","null","<p style=""font-size: 60px; font-family: BACS"">UdlGQvAvb</p>","","","","","","","","",""
"html-keyboard-response","111","296724","0.0-10.0-0.22","5f5a713d37f71112463ab4d9","650c16f0f2faf8d7a0d14c09","651c1b4b8eb61a020655d085","null","null","<p style=""font-size: 60px; font-family: BACS"">ZcGdNLUOk</p>","","","","","","","","",""
"html-keyboard-response","112","297737","0.0-10.0-0.23","5f5a713d37f71112463ab4d9","650c16f0f2faf8d7a0d14c09","651c1b4b8eb61a020655d085","null","null","<p style=""font-size: 60px; font-family: BACS"">rdLJavAvb</p>","","","","","","","","",""
"html-keyboard-response","113","298745","0.0-10.0-0.24","5f5a713d37f71112463ab4d9","650c16f0f2faf8d7a0d14c09","651c1b4b8eb61a020655d085","null","null","<p style=""font-size: 60px; font-family: BACS"">DlDdDOAK</p>","","","","","","","","",""
"html-keyboard-response","114","299750","0.0-10.0-0.25","5f5a713d37f71112463ab4d9","650c16f0f2faf8d7a0d14c09","651c1b4b8eb61a020655d085","null","null","<p style=""font-size: 60px; font-family: BACS"">OEPkAPEM</p>","","","","","","","","",""
"html-keyboard-response","115","300753","0.0-10.0-0.26","5f5a713d37f71112463ab4d9","650c16f0f2faf8d7a0d14c09","651c1b4b8eb61a020655d085","null","null","<p style=""font-size: 60px; font-family: BACS"">PDPhlbdtK</p>","","","","","","","","",""
"html-keyboard-response","116","301757","0.0-10.0-0.27","5f5a713d37f71112463ab4d9","650c16f0f2faf8d7a0d14c09","651c1b4b8eb61a020655d085","null","null","<p style=""font-size: 60px; font-family: BACS"">kKEdMbAMO</p>","","","","","","","","",""
"html-keyboard-response","117","302766","0.0-10.0-0.28","5f5a713d37f71112463ab4d9","650c16f0f2faf8d7a0d14c09","651c1b4b8eb61a020655d085","null","null","<p style=""font-size: 60px; font-family: BACS"">lBKtbdtK</p>","","","","","","","","",""
"html-keyboard-response","118","303774","0.0-10.0-0.29","5f5a713d37f71112463ab4d9","650c16f0f2faf8d7a0d14c09","651c1b4b8eb61a020655d085","null","null","<p style=""font-size: 60px; font-family: BACS"">NkUAGUOA</p>","","","","","","","","",""
"html-keyboard-response","119","304786","0.0-10.0-0.30","5f5a713d37f71112463ab4d9","650c16f0f2faf8d7a0d14c09","651c1b4b8eb61a020655d085","null","null","<p style=""font-size: 60px; font-family: BACS"">BECkbdtK</p>","","","","","","","","",""
"html-keyboard-response","120","305797","0.0-10.0-0.31","5f5a713d37f71112463ab4d9","650c16f0f2faf8d7a0d14c09","651c1b4b8eb61a020655d085","null","null","<p style=""font-size: 60px; font-family: BACS"">lBKtDOAK</p>","","","","","","","","",""
"html-keyboard-response","121","306803","0.0-10.0-0.32","5f5a713d37f71112463ab4d9","650c16f0f2faf8d7a0d14c09","651c1b4b8eb61a020655d085","null","null","<p style=""font-size: 60px; font-family: BACS"">kKEdMKEdl</p>","","","","","","","","",""
"html-keyboard-response","122","307823","0.0-10.0-0.33","5f5a713d37f71112463ab4d9","650c16f0f2faf8d7a0d14c09","651c1b4b8eb61a020655d085","null","null","<p style=""font-size: 60px; font-family: BACS"">GLYrALUOk</p>","","","","","","","","",""
"html-keyboard-response","123","308831","0.0-10.0-0.34","5f5a713d37f71112463ab4d9","650c16f0f2faf8d7a0d14c09","651c1b4b8eb61a020655d085","null","null","<p style=""font-size: 60px; font-family: BACS"">BECkbAMO</p>","","","","","","","","",""
"html-keyboard-response","124","309841","0.0-10.0-0.35","5f5a713d37f71112463ab4d9","650c16f0f2faf8d7a0d14c09","651c1b4b8eb61a020655d085","null","null","<p style=""font-size: 60px; font-family: BACS"">MBKREAPEM</p>","","","","","","","","",""
"html-keyboard-response","125","310845","0.0-10.0-0.36","5f5a713d37f71112463ab4d9","650c16f0f2faf8d7a0d14c09","651c1b4b8eb61a020655d085","null","null","<p style=""font-size: 60px; font-family: BACS"">PDPhlbAMO</p>","","","","","","","","",""
"html-keyboard-response","126","311856","0.0-10.0-0.37","5f5a713d37f71112463ab4d9","650c16f0f2faf8d7a0d14c09","651c1b4b8eb61a020655d085","null","null","<p style=""font-size: 60px; font-family: BACS"">TAdhMbdtK</p>","","","","","","","","",""
"html-keyboard-response","127","312861","0.0-10.0-0.38","5f5a713d37f71112463ab4d9","650c16f0f2faf8d7a0d14c09","651c1b4b8eb61a020655d085","null","null","<p style=""font-size: 60px; font-family: BACS"">lBKtAPEM</p>","","","","","","","","",""
"html-keyboard-response","128","313866","0.0-10.0-0.39","5f5a713d37f71112463ab4d9","650c16f0f2faf8d7a0d14c09","651c1b4b8eb61a020655d085","null","null","<p style=""font-size: 60px; font-family: BACS"">rdLJaLUOk</p>","","","","","","","","",""
"html-keyboard-response","129","314873","0.0-10.0-0.40","5f5a713d37f71112463ab4d9","650c16f0f2faf8d7a0d14c09","651c1b4b8eb61a020655d085","null","null","<p style=""font-size: 60px; font-family: BACS"">MBKREDOAK</p>","","","","","","","","",""
"html-keyboard-response","130","315877","0.0-10.0-0.41","5f5a713d37f71112463ab4d9","650c16f0f2faf8d7a0d14c09","651c1b4b8eb61a020655d085","null","null","<p style=""font-size: 60px; font-family: BACS"">UdlGQdUr</p>","","","","","","","","",""
"html-keyboard-response","131","316890","0.0-10.0-0.42","5f5a713d37f71112463ab4d9","650c16f0f2faf8d7a0d14c09","651c1b4b8eb61a020655d085","null","null","<p style=""font-size: 60px; font-family: BACS"">damYbvAvb</p>","","","","","","","","",""
"html-keyboard-response","132","317894","0.0-10.0-0.43","5f5a713d37f71112463ab4d9","650c16f0f2faf8d7a0d14c09","651c1b4b8eb61a020655d085","null","null","<p style=""font-size: 60px; font-family: BACS"">BECkAPEM</p>","","","","","","","","",""
"html-keyboard-response","133","318894","0.0-10.0-0.44","5f5a713d37f71112463ab4d9","650c16f0f2faf8d7a0d14c09","651c1b4b8eb61a020655d085","null","null","<p style=""font-size: 60px; font-family: BACS"">kKEdMbdtK</p>","","","","","","","","",""
"html-keyboard-response","134","319905","0.0-10.0-0.45","5f5a713d37f71112463ab4d9","650c16f0f2faf8d7a0d14c09","651c1b4b8eb61a020655d085","null","null","<p style=""font-size: 60px; font-family: BACS"">DlDdAPEM</p>","","","","","","","","",""
"html-keyboard-response","135","320918","0.0-10.0-0.46","5f5a713d37f71112463ab4d9","650c16f0f2faf8d7a0d14c09","651c1b4b8eb61a020655d085","null","null","<p style=""font-size: 60px; font-family: BACS"">kabJbdUr</p>","","","","","","","","",""
"html-keyboard-response","136","321929","0.0-10.0-0.47","5f5a713d37f71112463ab4d9","650c16f0f2faf8d7a0d14c09","651c1b4b8eb61a020655d085","null","null","<p style=""font-size: 60px; font-family: BACS"">DlDdbdtK</p>","","","","","","","","",""
"html-keyboard-response","137","322943","0.0-10.0-0.48","5f5a713d37f71112463ab4d9","650c16f0f2faf8d7a0d14c09","651c1b4b8eb61a020655d085","null","null","<p style=""font-size: 60px; font-family: BACS"">ACcOAPEM</p>","","","","","","","","",""
"html-keyboard-response","138","323949","0.0-10.0-0.49","5f5a713d37f71112463ab4d9","650c16f0f2faf8d7a0d14c09","651c1b4b8eb61a020655d085","null","null","<p style=""font-size: 60px; font-family: BACS"">OEPkbAMO</p>","","","","","","","","",""
"html-keyboard-response","139","324960","0.0-10.0-0.50","5f5a713d37f71112463ab4d9","650c16f0f2faf8d7a0d14c09","651c1b4b8eb61a020655d085","null","null","<p style=""font-size: 60px; font-family: BACS"">RlAKcDOAK</p>","","","","","","","","",""
"html-keyboard-response","140","325964","0.0-10.0-0.51","5f5a713d37f71112463ab4d9","650c16f0f2faf8d7a0d14c09","651c1b4b8eb61a020655d085","null","null","<p style=""font-size: 60px; font-family: BACS"">LQurkJdr</p>","","","","","","","","",""
"html-keyboard-response","141","326965","0.0-10.0-0.52","5f5a713d37f71112463ab4d9","650c16f0f2faf8d7a0d14c09","651c1b4b8eb61a020655d085","null","null","<p style=""font-size: 60px; font-family: BACS"">kabJbLUOk</p>","","","","","","","","",""
"html-keyboard-response","142","327976","0.0-10.0-0.53","5f5a713d37f71112463ab4d9","650c16f0f2faf8d7a0d14c09","651c1b4b8eb61a020655d085","null","null","<p style=""font-size: 60px; font-family: BACS"">kKEdMAPEM</p>","","","","","","","","",""
"html-keyboard-response","143","328987","0.0-10.0-0.54","5f5a713d37f71112463ab4d9","650c16f0f2faf8d7a0d14c09","651c1b4b8eb61a020655d085","null","null","<p style=""font-size: 60px; font-family: BACS"">OEPkDOAK</p>","","","","","","","","",""
"html-keyboard-response","144","329990","0.0-10.0-0.55","5f5a713d37f71112463ab4d9","650c16f0f2faf8d7a0d14c09","651c1b4b8eb61a020655d085","null","null","<p style=""font-size: 60px; font-family: BACS"">MBKREbdtK</p>","","","","","","","","",""
"html-keyboard-response","145","331002","0.0-10.0-0.56","5f5a713d37f71112463ab4d9","650c16f0f2faf8d7a0d14c09","651c1b4b8eb61a020655d085","null","null","<p style=""font-size: 60px; font-family: BACS"">damYbkJdr</p>","","","","","","","","",""
"html-keyboard-response","146","332006","0.0-10.0-0.57","5f5a713d37f71112463ab4d9","650c16f0f2faf8d7a0d14c09","651c1b4b8eb61a020655d085","null","null","<p style=""font-size: 60px; font-family: BACS"">ACcODOAK</p>","","","","","","","","",""
"html-keyboard-response","147","333010","0.0-10.0-0.58","5f5a713d37f71112463ab4d9","650c16f0f2faf8d7a0d14c09","651c1b4b8eb61a020655d085","null","null","<p style=""font-size: 60px; font-family: BACS"">NkUALUOk</p>","","","","","","","","",""
"html-keyboard-response","148","334017","0.0-10.0-0.59","5f5a713d37f71112463ab4d9","650c16f0f2faf8d7a0d14c09","651c1b4b8eb61a020655d085","null","null","<p style=""font-size: 60px; font-family: BACS"">kabJbkJdr</p>","","","","","","","","",""
"html-keyboard-response","149","335018","0.0-10.0-0.60","5f5a713d37f71112463ab4d9","650c16f0f2faf8d7a0d14c09","651c1b4b8eb61a020655d085","null","null","<p style=""font-size: 60px; font-family: BACS"">rdLJaGUOA</p>","","","","","","","","",""
"html-keyboard-response","150","336030","0.0-10.0-0.61","5f5a713d37f71112463ab4d9","650c16f0f2faf8d7a0d14c09","651c1b4b8eb61a020655d085","null","null","<p style=""font-size: 60px; font-family: BACS"">MBKREbAMO</p>","","","","","","","","",""
"html-keyboard-response","151","337063","0.0-10.0-0.62","5f5a713d37f71112463ab4d9","650c16f0f2faf8d7a0d14c09","651c1b4b8eb61a020655d085","null","null","<p style=""font-size: 60px; font-family: BACS"">ZcGdNvAvb</p>","","","","","","","","",""
"html-keyboard-response","152","338069","0.0-10.0-0.63","5f5a713d37f71112463ab4d9","650c16f0f2faf8d7a0d14c09","651c1b4b8eb61a020655d085","null","null","<p style=""font-size: 60px; font-family: BACS"">TAdhMbAMO</p>","","","","","","","","",""
"html-keyboard-response","153","339098","0.0-10.0-0.64","5f5a713d37f71112463ab4d9","650c16f0f2faf8d7a0d14c09","651c1b4b8eb61a020655d085","null","null","<p style=""font-size: 60px; font-family: BACS"">UdlGQGUOA</p>","","","","","","","","",""
"html-keyboard-response","154","340101","0.0-10.0-0.65","5f5a713d37f71112463ab4d9","650c16f0f2faf8d7a0d14c09","651c1b4b8eb61a020655d085","null","null","<p style=""font-size: 60px; font-family: BACS"">vQdOkJdr</p>","","","","","","","","",""
"html-keyboard-response","155","341121","0.0-10.0-0.66","5f5a713d37f71112463ab4d9","650c16f0f2faf8d7a0d14c09","651c1b4b8eb61a020655d085","null","null","<p style=""font-size: 60px; font-family: BACS"">lBKtKEdl</p>","","","","","","","","",""
"html-keyboard-response","156","342134","0.0-10.0-0.67","5f5a713d37f71112463ab4d9","650c16f0f2faf8d7a0d14c09","651c1b4b8eb61a020655d085","null","null","<p style=""font-size: 60px; font-family: BACS"">DlDdbAMO</p>","","","","","","","","",""
"html-keyboard-response","157","343160","0.0-10.0-0.68","5f5a713d37f71112463ab4d9","650c16f0f2faf8d7a0d14c09","651c1b4b8eb61a020655d085","null","null","<p style=""font-size: 60px; font-family: BACS"">ZcGdNGUOA</p>","","","","","","","","",""
"html-keyboard-response","158","344171","0.0-10.0-0.69","5f5a713d37f71112463ab4d9","650c16f0f2faf8d7a0d14c09","651c1b4b8eb61a020655d085","null","null","<p style=""font-size: 60px; font-family: BACS"">UdlGQLUOk</p>","","","","","","","","",""
"html-keyboard-response","159","345196","0.0-10.0-0.70","5f5a713d37f71112463ab4d9","650c16f0f2faf8d7a0d14c09","651c1b4b8eb61a020655d085","null","null","<p style=""font-size: 60px; font-family: BACS"">PDPhlKEdl</p>","","","","","","","","",""
"html-keyboard-response","160","346208","0.0-10.0-0.71","5f5a713d37f71112463ab4d9","650c16f0f2faf8d7a0d14c09","651c1b4b8eb61a020655d085","null","null","<p style=""font-size: 60px; font-family: BACS"">vQdOdUr</p>","","","","","","","","",""
"html-keyboard-response","161","347217","0.0-10.0-0.72","5f5a713d37f71112463ab4d9","650c16f0f2faf8d7a0d14c09","651c1b4b8eb61a020655d085","null","null","<p style=""font-size: 60px; font-family: BACS"">RlAKcAPEM</p>","","","","","","","","",""
"html-keyboard-response","162","348231","0.0-10.0-0.73","5f5a713d37f71112463ab4d9","650c16f0f2faf8d7a0d14c09","651c1b4b8eb61a020655d085","null","null","<p style=""font-size: 60px; font-family: BACS"">damYbdUr</p>","","","","","","","","",""
"html-keyboard-response","163","349267","0.0-10.0-0.74","5f5a713d37f71112463ab4d9","650c16f0f2faf8d7a0d14c09","651c1b4b8eb61a020655d085","null","null","<p style=""font-size: 60px; font-family: BACS"">vQdOGUOA</p>","","","","","","","","",""
"html-keyboard-response","164","350271","0.0-10.0-0.75","5f5a713d37f71112463ab4d9","650c16f0f2faf8d7a0d14c09","651c1b4b8eb61a020655d085","null","null","<p style=""font-size: 60px; font-family: BACS"">kulZdUr</p>","","","","","","","","",""
"html-keyboard-response","165","351291","0.0-10.0-0.76","5f5a713d37f71112463ab4d9","650c16f0f2faf8d7a0d14c09","651c1b4b8eb61a020655d085","null","null","<p style=""font-size: 60px; font-family: BACS"">GLYrAvAvb</p>","","","","","","","","",""
"html-keyboard-response","166","352320","0.0-10.0-0.77","5f5a713d37f71112463ab4d9","650c16f0f2faf8d7a0d14c09","651c1b4b8eb61a020655d085","null","null","<p style=""font-size: 60px; font-family: BACS"">LQurGUOA</p>","","","","","","","","",""
"html-keyboard-response","167","353329","0.0-10.0-0.78","5f5a713d37f71112463ab4d9","650c16f0f2faf8d7a0d14c09","651c1b4b8eb61a020655d085","null","null","<p style=""font-size: 60px; font-family: BACS"">GLYrAdUr</p>","","","","","","","","",""
"html-keyboard-response","168","354341","0.0-10.0-0.79","5f5a713d37f71112463ab4d9","650c16f0f2faf8d7a0d14c09","651c1b4b8eb61a020655d085","null","null","<p style=""font-size: 60px; font-family: BACS"">RlAKcKEdl</p>","","","","","","","","",""
"html-keyboard-response","169","369462","0.0-11.0","5f5a713d37f71112463ab4d9","650c16f0f2faf8d7a0d14c09","651c1b4b8eb61a020655d085","15121"," ","<p>Great, you've seen the second block of words. You may now take a short break.</p>
      <p>Press the spacebar when you're ready to continue.</p>","","","","","","","","",""
"html-keyboard-response","170","370475","0.0-12.0-0.0","5f5a713d37f71112463ab4d9","650c16f0f2faf8d7a0d14c09","651c1b4b8eb61a020655d085","null","null","<p style=""font-size: 60px; font-family: BACS"">NkUALUOk</p>","","","","","","","","",""
"html-keyboard-response","171","371478","0.0-12.0-0.1","5f5a713d37f71112463ab4d9","650c16f0f2faf8d7a0d14c09","651c1b4b8eb61a020655d085","null","null","<p style=""font-size: 60px; font-family: BACS"">BECkbdtK</p>","","","","","","","","",""
"html-keyboard-response","172","372484","0.0-12.0-0.2","5f5a713d37f71112463ab4d9","650c16f0f2faf8d7a0d14c09","651c1b4b8eb61a020655d085","null","null","<p style=""font-size: 60px; font-family: BACS"">kabJbkJdr</p>","","","","","","","","",""
"html-keyboard-response","173","373492","0.0-12.0-0.3","5f5a713d37f71112463ab4d9","650c16f0f2faf8d7a0d14c09","651c1b4b8eb61a020655d085","null","null","<p style=""font-size: 60px; font-family: BACS"">BECkKEdl</p>","","","","","","","","",""
"html-keyboard-response","174","374502","0.0-12.0-0.4","5f5a713d37f71112463ab4d9","650c16f0f2faf8d7a0d14c09","651c1b4b8eb61a020655d085","null","null","<p style=""font-size: 60px; font-family: BACS"">LQurvAvb</p>","","","","","","","","",""
"html-keyboard-response","175","375512","0.0-12.0-0.5","5f5a713d37f71112463ab4d9","650c16f0f2faf8d7a0d14c09","651c1b4b8eb61a020655d085","null","null","<p style=""font-size: 60px; font-family: BACS"">kabJbdUr</p>","","","","","","","","",""
"html-keyboard-response","176","376520","0.0-12.0-0.6","5f5a713d37f71112463ab4d9","650c16f0f2faf8d7a0d14c09","651c1b4b8eb61a020655d085","null","null","<p style=""font-size: 60px; font-family: BACS"">ACcOKEdl</p>","","","","","","","","",""
"html-keyboard-response","177","377523","0.0-12.0-0.7","5f5a713d37f71112463ab4d9","650c16f0f2faf8d7a0d14c09","651c1b4b8eb61a020655d085","null","null","<p style=""font-size: 60px; font-family: BACS"">lBKtAPEM</p>","","","","","","","","",""
"html-keyboard-response","178","378535","0.0-12.0-0.8","5f5a713d37f71112463ab4d9","650c16f0f2faf8d7a0d14c09","651c1b4b8eb61a020655d085","null","null","<p style=""font-size: 60px; font-family: BACS"">vQdOGUOA</p>","","","","","","","","",""
"html-keyboard-response","179","379541","0.0-12.0-0.9","5f5a713d37f71112463ab4d9","650c16f0f2faf8d7a0d14c09","651c1b4b8eb61a020655d085","null","null","<p style=""font-size: 60px; font-family: BACS"">lBKtbdtK</p>","","","","","","","","",""
"html-keyboard-response","180","380549","0.0-12.0-0.10","5f5a713d37f71112463ab4d9","650c16f0f2faf8d7a0d14c09","651c1b4b8eb61a020655d085","null","null","<p style=""font-size: 60px; font-family: BACS"">UdlGQGUOA</p>","","","","","","","","",""
"html-keyboard-response","181","381553","0.0-12.0-0.11","5f5a713d37f71112463ab4d9","650c16f0f2faf8d7a0d14c09","651c1b4b8eb61a020655d085","null","null","<p style=""font-size: 60px; font-family: BACS"">LQurkJdr</p>","","","","","","","","",""
"html-keyboard-response","182","382560","0.0-12.0-0.12","5f5a713d37f71112463ab4d9","650c16f0f2faf8d7a0d14c09","651c1b4b8eb61a020655d085","null","null","<p style=""font-size: 60px; font-family: BACS"">DlDdAPEM</p>","","","","","","","","",""
"html-keyboard-response","183","383574","0.0-12.0-0.13","5f5a713d37f71112463ab4d9","650c16f0f2faf8d7a0d14c09","651c1b4b8eb61a020655d085","null","null","<p style=""font-size: 60px; font-family: BACS"">lBKtDOAK</p>","","","","","","","","",""
"html-keyboard-response","184","384582","0.0-12.0-0.14","5f5a713d37f71112463ab4d9","650c16f0f2faf8d7a0d14c09","651c1b4b8eb61a020655d085","null","null","<p style=""font-size: 60px; font-family: BACS"">OEPkbAMO</p>","","","","","","","","",""
"html-keyboard-response","185","385588","0.0-12.0-0.15","5f5a713d37f71112463ab4d9","650c16f0f2faf8d7a0d14c09","651c1b4b8eb61a020655d085","null","null","<p style=""font-size: 60px; font-family: BACS"">rdLJavAvb</p>","","","","","","","","",""
"html-keyboard-response","186","386598","0.0-12.0-0.16","5f5a713d37f71112463ab4d9","650c16f0f2faf8d7a0d14c09","651c1b4b8eb61a020655d085","null","null","<p style=""font-size: 60px; font-family: BACS"">RlAKcAPEM</p>","","","","","","","","",""
"html-keyboard-response","187","387606","0.0-12.0-0.17","5f5a713d37f71112463ab4d9","650c16f0f2faf8d7a0d14c09","651c1b4b8eb61a020655d085","null","null","<p style=""font-size: 60px; font-family: BACS"">PDPhlbAMO</p>","","","","","","","","",""
"html-keyboard-response","188","388618","0.0-12.0-0.18","5f5a713d37f71112463ab4d9","650c16f0f2faf8d7a0d14c09","651c1b4b8eb61a020655d085","null","null","<p style=""font-size: 60px; font-family: BACS"">ACcODOAK</p>","","","","","","","","",""
"html-keyboard-response","189","389626","0.0-12.0-0.19","5f5a713d37f71112463ab4d9","650c16f0f2faf8d7a0d14c09","651c1b4b8eb61a020655d085","null","null","<p style=""font-size: 60px; font-family: BACS"">kKEdMAPEM</p>","","","","","","","","",""
"html-keyboard-response","190","390631","0.0-12.0-0.20","5f5a713d37f71112463ab4d9","650c16f0f2faf8d7a0d14c09","651c1b4b8eb61a020655d085","null","null","<p style=""font-size: 60px; font-family: BACS"">ZcGdNLUOk</p>","","","","","","","","",""
"html-keyboard-response","191","391639","0.0-12.0-0.21","5f5a713d37f71112463ab4d9","650c16f0f2faf8d7a0d14c09","651c1b4b8eb61a020655d085","null","null","<p style=""font-size: 60px; font-family: BACS"">UdlGQvAvb</p>","","","","","","","","",""
"html-keyboard-response","192","392647","0.0-12.0-0.22","5f5a713d37f71112463ab4d9","650c16f0f2faf8d7a0d14c09","651c1b4b8eb61a020655d085","null","null","<p style=""font-size: 60px; font-family: BACS"">ZcGdNkJdr</p>","","","","","","","","",""
"html-keyboard-response","193","393651","0.0-12.0-0.23","5f5a713d37f71112463ab4d9","650c16f0f2faf8d7a0d14c09","651c1b4b8eb61a020655d085","null","null","<p style=""font-size: 60px; font-family: BACS"">MBKREAPEM</p>","","","","","","","","",""
"html-keyboard-response","194","394658","0.0-12.0-0.24","5f5a713d37f71112463ab4d9","650c16f0f2faf8d7a0d14c09","651c1b4b8eb61a020655d085","null","null","<p style=""font-size: 60px; font-family: BACS"">BECkbAMO</p>","","","","","","","","",""
"html-keyboard-response","195","395664","0.0-12.0-0.25","5f5a713d37f71112463ab4d9","650c16f0f2faf8d7a0d14c09","651c1b4b8eb61a020655d085","null","null","<p style=""font-size: 60px; font-family: BACS"">MBKREbdtK</p>","","","","","","","","",""
"html-keyboard-response","196","396667","0.0-12.0-0.26","5f5a713d37f71112463ab4d9","650c16f0f2faf8d7a0d14c09","651c1b4b8eb61a020655d085","null","null","<p style=""font-size: 60px; font-family: BACS"">vQdOkJdr</p>","","","","","","","","",""
"html-keyboard-response","197","397675","0.0-12.0-0.27","5f5a713d37f71112463ab4d9","650c16f0f2faf8d7a0d14c09","651c1b4b8eb61a020655d085","null","null","<p style=""font-size: 60px; font-family: BACS"">kabJbvAvb</p>","","","","","","","","",""
"html-keyboard-response","198","398688","0.0-12.0-0.28","5f5a713d37f71112463ab4d9","650c16f0f2faf8d7a0d14c09","651c1b4b8eb61a020655d085","null","null","<p style=""font-size: 60px; font-family: BACS"">MBKREDOAK</p>","","","","","","","","",""
"html-keyboard-response","199","399694","0.0-12.0-0.29","5f5a713d37f71112463ab4d9","650c16f0f2faf8d7a0d14c09","651c1b4b8eb61a020655d085","null","null","<p style=""font-size: 60px; font-family: BACS"">lBKtKEdl</p>","","","","","","","","",""
"html-keyboard-response","200","400704","0.0-12.0-0.30","5f5a713d37f71112463ab4d9","650c16f0f2faf8d7a0d14c09","651c1b4b8eb61a020655d085","null","null","<p style=""font-size: 60px; font-family: BACS"">LQurGUOA</p>","","","","","","","","",""
"html-keyboard-response","201","401714","0.0-12.0-0.31","5f5a713d37f71112463ab4d9","650c16f0f2faf8d7a0d14c09","651c1b4b8eb61a020655d085","null","null","<p style=""font-size: 60px; font-family: BACS"">damYbkJdr</p>","","","","","","","","",""
"html-keyboard-response","202","402718","0.0-12.0-0.32","5f5a713d37f71112463ab4d9","650c16f0f2faf8d7a0d14c09","651c1b4b8eb61a020655d085","null","null","<p style=""font-size: 60px; font-family: BACS"">PDPhlKEdl</p>","","","","","","","","",""
"html-keyboard-response","203","403720","0.0-12.0-0.33","5f5a713d37f71112463ab4d9","650c16f0f2faf8d7a0d14c09","651c1b4b8eb61a020655d085","null","null","<p style=""font-size: 60px; font-family: BACS"">ZcGdNvAvb</p>","","","","","","","","",""
"html-keyboard-response","204","404721","0.0-12.0-0.34","5f5a713d37f71112463ab4d9","650c16f0f2faf8d7a0d14c09","651c1b4b8eb61a020655d085","null","null","<p style=""font-size: 60px; font-family: BACS"">PDPhlbdtK</p>","","","","","","","","",""
"html-keyboard-response","205","405725","0.0-12.0-0.35","5f5a713d37f71112463ab4d9","650c16f0f2faf8d7a0d14c09","651c1b4b8eb61a020655d085","null","null","<p style=""font-size: 60px; font-family: BACS"">rdLJaGUOA</p>","","","","","","","","",""
"html-keyboard-response","206","406737","0.0-12.0-0.36","5f5a713d37f71112463ab4d9","650c16f0f2faf8d7a0d14c09","651c1b4b8eb61a020655d085","null","null","<p style=""font-size: 60px; font-family: BACS"">TAdhMDOAK</p>","","","","","","","","",""
"html-keyboard-response","207","407738","0.0-12.0-0.37","5f5a713d37f71112463ab4d9","650c16f0f2faf8d7a0d14c09","651c1b4b8eb61a020655d085","null","null","<p style=""font-size: 60px; font-family: BACS"">UdlGQdUr</p>","","","","","","","","",""
"html-keyboard-response","208","408747","0.0-12.0-0.38","5f5a713d37f71112463ab4d9","650c16f0f2faf8d7a0d14c09","651c1b4b8eb61a020655d085","null","null","<p style=""font-size: 60px; font-family: BACS"">damYbvAvb</p>","","","","","","","","",""
"html-keyboard-response","209","409755","0.0-12.0-0.39","5f5a713d37f71112463ab4d9","650c16f0f2faf8d7a0d14c09","651c1b4b8eb61a020655d085","null","null","<p style=""font-size: 60px; font-family: BACS"">kKEdMbAMO</p>","","","","","","","","",""
"html-keyboard-response","210","410765","0.0-12.0-0.40","5f5a713d37f71112463ab4d9","650c16f0f2faf8d7a0d14c09","651c1b4b8eb61a020655d085","null","null","<p style=""font-size: 60px; font-family: BACS"">vQdOLUOk</p>","","","","","","","","",""
"html-keyboard-response","211","411767","0.0-12.0-0.41","5f5a713d37f71112463ab4d9","650c16f0f2faf8d7a0d14c09","651c1b4b8eb61a020655d085","null","null","<p style=""font-size: 60px; font-family: BACS"">RlAKcbdtK</p>","","","","","","","","",""
"html-keyboard-response","212","412769","0.0-12.0-0.42","5f5a713d37f71112463ab4d9","650c16f0f2faf8d7a0d14c09","651c1b4b8eb61a020655d085","null","null","<p style=""font-size: 60px; font-family: BACS"">rdLJaLUOk</p>","","","","","","","","",""
"html-keyboard-response","213","413779","0.0-12.0-0.43","5f5a713d37f71112463ab4d9","650c16f0f2faf8d7a0d14c09","651c1b4b8eb61a020655d085","null","null","<p style=""font-size: 60px; font-family: BACS"">NkUAdUr</p>","","","","","","","","",""
"html-keyboard-response","214","414784","0.0-12.0-0.44","5f5a713d37f71112463ab4d9","650c16f0f2faf8d7a0d14c09","651c1b4b8eb61a020655d085","null","null","<p style=""font-size: 60px; font-family: BACS"">damYbGUOA</p>","","","","","","","","",""
"html-keyboard-response","215","415792","0.0-12.0-0.45","5f5a713d37f71112463ab4d9","650c16f0f2faf8d7a0d14c09","651c1b4b8eb61a020655d085","null","null","<p style=""font-size: 60px; font-family: BACS"">kulZLUOk</p>","","","","","","","","",""
"html-keyboard-response","216","416799","0.0-12.0-0.46","5f5a713d37f71112463ab4d9","650c16f0f2faf8d7a0d14c09","651c1b4b8eb61a020655d085","null","null","<p style=""font-size: 60px; font-family: BACS"">DlDdbdtK</p>","","","","","","","","",""
"html-keyboard-response","217","417803","0.0-12.0-0.47","5f5a713d37f71112463ab4d9","650c16f0f2faf8d7a0d14c09","651c1b4b8eb61a020655d085","null","null","<p style=""font-size: 60px; font-family: BACS"">kulZGUOA</p>","","","","","","","","",""
"html-keyboard-response","218","418803","0.0-12.0-0.48","5f5a713d37f71112463ab4d9","650c16f0f2faf8d7a0d14c09","651c1b4b8eb61a020655d085","null","null","<p style=""font-size: 60px; font-family: BACS"">DlDdbAMO</p>","","","","","","","","",""
"html-keyboard-response","219","419808","0.0-12.0-0.49","5f5a713d37f71112463ab4d9","650c16f0f2faf8d7a0d14c09","651c1b4b8eb61a020655d085","null","null","<p style=""font-size: 60px; font-family: BACS"">GLYrAkJdr</p>","","","","","","","","",""
"html-keyboard-response","220","420816","0.0-12.0-0.50","5f5a713d37f71112463ab4d9","650c16f0f2faf8d7a0d14c09","651c1b4b8eb61a020655d085","null","null","<p style=""font-size: 60px; font-family: BACS"">LQurdUr</p>","","","","","","","","",""
"html-keyboard-response","221","421829","0.0-12.0-0.51","5f5a713d37f71112463ab4d9","650c16f0f2faf8d7a0d14c09","651c1b4b8eb61a020655d085","null","null","<p style=""font-size: 60px; font-family: BACS"">TAdhMbdtK</p>","","","","","","","","",""
"html-keyboard-response","222","422839","0.0-12.0-0.52","5f5a713d37f71112463ab4d9","650c16f0f2faf8d7a0d14c09","651c1b4b8eb61a020655d085","null","null","<p style=""font-size: 60px; font-family: BACS"">RlAKcKEdl</p>","","","","","","","","",""
"html-keyboard-response","223","423841","0.0-12.0-0.53","5f5a713d37f71112463ab4d9","650c16f0f2faf8d7a0d14c09","651c1b4b8eb61a020655d085","null","null","<p style=""font-size: 60px; font-family: BACS"">kulZkJdr</p>","","","","","","","","",""
"html-keyboard-response","224","424849","0.0-12.0-0.54","5f5a713d37f71112463ab4d9","650c16f0f2faf8d7a0d14c09","651c1b4b8eb61a020655d085","null","null","<p style=""font-size: 60px; font-family: BACS"">vQdOdUr</p>","","","","","","","","",""
"html-keyboard-response","225","425857","0.0-12.0-0.55","5f5a713d37f71112463ab4d9","650c16f0f2faf8d7a0d14c09","651c1b4b8eb61a020655d085","null","null","<p style=""font-size: 60px; font-family: BACS"">kKEdMKEdl</p>","","","","","","","","",""
"html-keyboard-response","226","426858","0.0-12.0-0.56","5f5a713d37f71112463ab4d9","650c16f0f2faf8d7a0d14c09","651c1b4b8eb61a020655d085","null","null","<p style=""font-size: 60px; font-family: BACS"">kabJbLUOk</p>","","","","","","","","",""
"html-keyboard-response","227","427860","0.0-12.0-0.57","5f5a713d37f71112463ab4d9","650c16f0f2faf8d7a0d14c09","651c1b4b8eb61a020655d085","null","null","<p style=""font-size: 60px; font-family: BACS"">damYbdUr</p>","","","","","","","","",""
"html-keyboard-response","228","428863","0.0-12.0-0.58","5f5a713d37f71112463ab4d9","650c16f0f2faf8d7a0d14c09","651c1b4b8eb61a020655d085","null","null","<p style=""font-size: 60px; font-family: BACS"">OEPkDOAK</p>","","","","","","","","",""
"html-keyboard-response","229","429874","0.0-12.0-0.59","5f5a713d37f71112463ab4d9","650c16f0f2faf8d7a0d14c09","651c1b4b8eb61a020655d085","null","null","<p style=""font-size: 60px; font-family: BACS"">ACcObAMO</p>","","","","","","","","",""
"html-keyboard-response","230","430878","0.0-12.0-0.60","5f5a713d37f71112463ab4d9","650c16f0f2faf8d7a0d14c09","651c1b4b8eb61a020655d085","null","null","<p style=""font-size: 60px; font-family: BACS"">GLYrAvAvb</p>","","","","","","","","",""
"html-keyboard-response","231","431888","0.0-12.0-0.61","5f5a713d37f71112463ab4d9","650c16f0f2faf8d7a0d14c09","651c1b4b8eb61a020655d085","null","null","<p style=""font-size: 60px; font-family: BACS"">MBKREbAMO</p>","","","","","","","","",""
"html-keyboard-response","232","432899","0.0-12.0-0.62","5f5a713d37f71112463ab4d9","650c16f0f2faf8d7a0d14c09","651c1b4b8eb61a020655d085","null","null","<p style=""font-size: 60px; font-family: BACS"">TAdhMKEdl</p>","","","","","","","","",""
"html-keyboard-response","233","433903","0.0-12.0-0.63","5f5a713d37f71112463ab4d9","650c16f0f2faf8d7a0d14c09","651c1b4b8eb61a020655d085","null","null","<p style=""font-size: 60px; font-family: BACS"">DlDdDOAK</p>","","","","","","","","",""
"html-keyboard-response","234","434912","0.0-12.0-0.64","5f5a713d37f71112463ab4d9","650c16f0f2faf8d7a0d14c09","651c1b4b8eb61a020655d085","null","null","<p style=""font-size: 60px; font-family: BACS"">GLYrALUOk</p>","","","","","","","","",""
"html-keyboard-response","235","435915","0.0-12.0-0.65","5f5a713d37f71112463ab4d9","650c16f0f2faf8d7a0d14c09","651c1b4b8eb61a020655d085","null","null","<p style=""font-size: 60px; font-family: BACS"">TAdhMbAMO</p>","","","","","","","","",""
"html-keyboard-response","236","436928","0.0-12.0-0.66","5f5a713d37f71112463ab4d9","650c16f0f2faf8d7a0d14c09","651c1b4b8eb61a020655d085","null","null","<p style=""font-size: 60px; font-family: BACS"">GLYrAdUr</p>","","","","","","","","",""
"html-keyboard-response","237","437936","0.0-12.0-0.67","5f5a713d37f71112463ab4d9","650c16f0f2faf8d7a0d14c09","651c1b4b8eb61a020655d085","null","null","<p style=""font-size: 60px; font-family: BACS"">ZcGdNGUOA</p>","","","","","","","","",""
"html-keyboard-response","238","438949","0.0-12.0-0.68","5f5a713d37f71112463ab4d9","650c16f0f2faf8d7a0d14c09","651c1b4b8eb61a020655d085","null","null","<p style=""font-size: 60px; font-family: BACS"">UdlGQLUOk</p>","","","","","","","","",""
"html-keyboard-response","239","439960","0.0-12.0-0.69","5f5a713d37f71112463ab4d9","650c16f0f2faf8d7a0d14c09","651c1b4b8eb61a020655d085","null","null","<p style=""font-size: 60px; font-family: BACS"">PDPhlDOAK</p>","","","","","","","","",""
"html-keyboard-response","240","440961","0.0-12.0-0.70","5f5a713d37f71112463ab4d9","650c16f0f2faf8d7a0d14c09","651c1b4b8eb61a020655d085","null","null","<p style=""font-size: 60px; font-family: BACS"">rdLJakJdr</p>","","","","","","","","",""
"html-keyboard-response","241","441969","0.0-12.0-0.71","5f5a713d37f71112463ab4d9","650c16f0f2faf8d7a0d14c09","651c1b4b8eb61a020655d085","null","null","<p style=""font-size: 60px; font-family: BACS"">ACcOAPEM</p>","","","","","","","","",""
"html-keyboard-response","242","442970","0.0-12.0-0.72","5f5a713d37f71112463ab4d9","650c16f0f2faf8d7a0d14c09","651c1b4b8eb61a020655d085","null","null","<p style=""font-size: 60px; font-family: BACS"">OEPkKEdl</p>","","","","","","","","",""
"html-keyboard-response","243","443975","0.0-12.0-0.73","5f5a713d37f71112463ab4d9","650c16f0f2faf8d7a0d14c09","651c1b4b8eb61a020655d085","null","null","<p style=""font-size: 60px; font-family: BACS"">kKEdMbdtK</p>","","","","","","","","",""
"html-keyboard-response","244","444985","0.0-12.0-0.74","5f5a713d37f71112463ab4d9","650c16f0f2faf8d7a0d14c09","651c1b4b8eb61a020655d085","null","null","<p style=""font-size: 60px; font-family: BACS"">kulZdUr</p>","","","","","","","","",""
"html-keyboard-response","245","445998","0.0-12.0-0.75","5f5a713d37f71112463ab4d9","650c16f0f2faf8d7a0d14c09","651c1b4b8eb61a020655d085","null","null","<p style=""font-size: 60px; font-family: BACS"">OEPkAPEM</p>","","","","","","","","",""
"html-keyboard-response","246","447001","0.0-12.0-0.76","5f5a713d37f71112463ab4d9","650c16f0f2faf8d7a0d14c09","651c1b4b8eb61a020655d085","null","null","<p style=""font-size: 60px; font-family: BACS"">NkUAGUOA</p>","","","","","","","","",""
"html-keyboard-response","247","448012","0.0-12.0-0.77","5f5a713d37f71112463ab4d9","650c16f0f2faf8d7a0d14c09","651c1b4b8eb61a020655d085","null","null","<p style=""font-size: 60px; font-family: BACS"">BECkAPEM</p>","","","","","","","","",""
"html-keyboard-response","248","449018","0.0-12.0-0.78","5f5a713d37f71112463ab4d9","650c16f0f2faf8d7a0d14c09","651c1b4b8eb61a020655d085","null","null","<p style=""font-size: 60px; font-family: BACS"">RlAKcDOAK</p>","","","","","","","","",""
"html-keyboard-response","249","450031","0.0-12.0-0.79","5f5a713d37f71112463ab4d9","650c16f0f2faf8d7a0d14c09","651c1b4b8eb61a020655d085","null","null","<p style=""font-size: 60px; font-family: BACS"">NkUAvAvb</p>","","","","","","","","",""
"html-keyboard-response","250","584102","0.0-13.0","5f5a713d37f71112463ab4d9","650c16f0f2faf8d7a0d14c09","651c1b4b8eb61a020655d085","134071"," ","<p>Great, you've seen the third block of words. You may now take a short break.</p>
      <p>Press the spacebar when you're ready to continue.</p>","","","","","","","","",""
"html-keyboard-response","251","585118","0.0-14.0-0.0","5f5a713d37f71112463ab4d9","650c16f0f2faf8d7a0d14c09","651c1b4b8eb61a020655d085","null","null","<p style=""font-size: 60px; font-family: BACS"">TAdhMbAMO</p>","","","","","","","","",""
"html-keyboard-response","252","586122","0.0-14.0-0.1","5f5a713d37f71112463ab4d9","650c16f0f2faf8d7a0d14c09","651c1b4b8eb61a020655d085","null","null","<p style=""font-size: 60px; font-family: BACS"">kKEdMbdtK</p>","","","","","","","","",""
"html-keyboard-response","253","587125","0.0-14.0-0.2","5f5a713d37f71112463ab4d9","650c16f0f2faf8d7a0d14c09","651c1b4b8eb61a020655d085","null","null","<p style=""font-size: 60px; font-family: BACS"">TAdhMKEdl</p>","","","","","","","","",""
"html-keyboard-response","254","588129","0.0-14.0-0.3","5f5a713d37f71112463ab4d9","650c16f0f2faf8d7a0d14c09","651c1b4b8eb61a020655d085","null","null","<p style=""font-size: 60px; font-family: BACS"">ZcGdNvAvb</p>","","","","","","","","",""
"html-keyboard-response","255","589131","0.0-14.0-0.4","5f5a713d37f71112463ab4d9","650c16f0f2faf8d7a0d14c09","651c1b4b8eb61a020655d085","null","null","<p style=""font-size: 60px; font-family: BACS"">OEPkAPEM</p>","","","","","","","","",""
"html-keyboard-response","256","590148","0.0-14.0-0.5","5f5a713d37f71112463ab4d9","650c16f0f2faf8d7a0d14c09","651c1b4b8eb61a020655d085","null","null","<p style=""font-size: 60px; font-family: BACS"">RlAKcDOAK</p>","","","","","","","","",""
"html-keyboard-response","257","591151","0.0-14.0-0.6","5f5a713d37f71112463ab4d9","650c16f0f2faf8d7a0d14c09","651c1b4b8eb61a020655d085","null","null","<p style=""font-size: 60px; font-family: BACS"">kKEdMKEdl</p>","","","","","","","","",""
"html-keyboard-response","258","592155","0.0-14.0-0.7","5f5a713d37f71112463ab4d9","650c16f0f2faf8d7a0d14c09","651c1b4b8eb61a020655d085","null","null","<p style=""font-size: 60px; font-family: BACS"">LQurvAvb</p>","","","","","","","","",""
"html-keyboard-response","259","593158","0.0-14.0-0.8","5f5a713d37f71112463ab4d9","650c16f0f2faf8d7a0d14c09","651c1b4b8eb61a020655d085","null","null","<p style=""font-size: 60px; font-family: BACS"">PDPhlDOAK</p>","","","","","","","","",""
"html-keyboard-response","260","594163","0.0-14.0-0.9","5f5a713d37f71112463ab4d9","650c16f0f2faf8d7a0d14c09","651c1b4b8eb61a020655d085","null","null","<p style=""font-size: 60px; font-family: BACS"">UdlGQGUOA</p>","","","","","","","","",""
"html-keyboard-response","261","595164","0.0-14.0-0.10","5f5a713d37f71112463ab4d9","650c16f0f2faf8d7a0d14c09","651c1b4b8eb61a020655d085","null","null","<p style=""font-size: 60px; font-family: BACS"">GLYrAdUr</p>","","","","","","","","",""
"html-keyboard-response","262","596168","0.0-14.0-0.11","5f5a713d37f71112463ab4d9","650c16f0f2faf8d7a0d14c09","651c1b4b8eb61a020655d085","null","null","<p style=""font-size: 60px; font-family: BACS"">OEPkKEdl</p>","","","","","","","","",""
"html-keyboard-response","263","597170","0.0-14.0-0.12","5f5a713d37f71112463ab4d9","650c16f0f2faf8d7a0d14c09","651c1b4b8eb61a020655d085","null","null","<p style=""font-size: 60px; font-family: BACS"">LQurGUOA</p>","","","","","","","","",""
"html-keyboard-response","264","598173","0.0-14.0-0.13","5f5a713d37f71112463ab4d9","650c16f0f2faf8d7a0d14c09","651c1b4b8eb61a020655d085","null","null","<p style=""font-size: 60px; font-family: BACS"">kulZdUr</p>","","","","","","","","",""
"html-keyboard-response","265","599192","0.0-14.0-0.14","5f5a713d37f71112463ab4d9","650c16f0f2faf8d7a0d14c09","651c1b4b8eb61a020655d085","null","null","<p style=""font-size: 60px; font-family: BACS"">UdlGQvAvb</p>","","","","","","","","",""
"html-keyboard-response","266","600209","0.0-14.0-0.15","5f5a713d37f71112463ab4d9","650c16f0f2faf8d7a0d14c09","651c1b4b8eb61a020655d085","null","null","<p style=""font-size: 60px; font-family: BACS"">rdLJaGUOA</p>","","","","","","","","",""
"html-keyboard-response","267","601217","0.0-14.0-0.16","5f5a713d37f71112463ab4d9","650c16f0f2faf8d7a0d14c09","651c1b4b8eb61a020655d085","null","null","<p style=""font-size: 60px; font-family: BACS"">vQdOLUOk</p>","","","","","","","","",""
"html-keyboard-response","268","602241","0.0-14.0-0.17","5f5a713d37f71112463ab4d9","650c16f0f2faf8d7a0d14c09","651c1b4b8eb61a020655d085","null","null","<p style=""font-size: 60px; font-family: BACS"">damYbkJdr</p>","","","","","","","","",""
"html-keyboard-response","269","603258","0.0-14.0-0.18","5f5a713d37f71112463ab4d9","650c16f0f2faf8d7a0d14c09","651c1b4b8eb61a020655d085","null","null","<p style=""font-size: 60px; font-family: BACS"">kulZLUOk</p>","","","","","","","","",""
"html-keyboard-response","270","604277","0.0-14.0-0.19","5f5a713d37f71112463ab4d9","650c16f0f2faf8d7a0d14c09","651c1b4b8eb61a020655d085","null","null","<p style=""font-size: 60px; font-family: BACS"">DlDdbAMO</p>","","","","","","","","",""
"html-keyboard-response","271","605290","0.0-14.0-0.20","5f5a713d37f71112463ab4d9","650c16f0f2faf8d7a0d14c09","651c1b4b8eb61a020655d085","null","null","<p style=""font-size: 60px; font-family: BACS"">kulZGUOA</p>","","","","","","","","",""
"html-keyboard-response","272","606292","0.0-14.0-0.21","5f5a713d37f71112463ab4d9","650c16f0f2faf8d7a0d14c09","651c1b4b8eb61a020655d085","null","null","<p style=""font-size: 60px; font-family: BACS"">RlAKcAPEM</p>","","","","","","","","",""
"html-keyboard-response","273","607304","0.0-14.0-0.22","5f5a713d37f71112463ab4d9","650c16f0f2faf8d7a0d14c09","651c1b4b8eb61a020655d085","null","null","<p style=""font-size: 60px; font-family: BACS"">DlDdbdtK</p>","","","","","","","","",""
"html-keyboard-response","274","608321","0.0-14.0-0.23","5f5a713d37f71112463ab4d9","650c16f0f2faf8d7a0d14c09","651c1b4b8eb61a020655d085","null","null","<p style=""font-size: 60px; font-family: BACS"">kKEdMbAMO</p>","","","","","","","","",""
"html-keyboard-response","275","609328","0.0-14.0-0.24","5f5a713d37f71112463ab4d9","650c16f0f2faf8d7a0d14c09","651c1b4b8eb61a020655d085","null","null","<p style=""font-size: 60px; font-family: BACS"">MBKREDOAK</p>","","","","","","","","",""
"html-keyboard-response","276","610337","0.0-14.0-0.25","5f5a713d37f71112463ab4d9","650c16f0f2faf8d7a0d14c09","651c1b4b8eb61a020655d085","null","null","<p style=""font-size: 60px; font-family: BACS"">ZcGdNLUOk</p>","","","","","","","","",""
"html-keyboard-response","277","611344","0.0-14.0-0.26","5f5a713d37f71112463ab4d9","650c16f0f2faf8d7a0d14c09","651c1b4b8eb61a020655d085","null","null","<p style=""font-size: 60px; font-family: BACS"">TAdhMbdtK</p>","","","","","","","","",""
"html-keyboard-response","278","612362","0.0-14.0-0.27","5f5a713d37f71112463ab4d9","650c16f0f2faf8d7a0d14c09","651c1b4b8eb61a020655d085","null","null","<p style=""font-size: 60px; font-family: BACS"">NkUALUOk</p>","","","","","","","","",""
"html-keyboard-response","279","613373","0.0-14.0-0.28","5f5a713d37f71112463ab4d9","650c16f0f2faf8d7a0d14c09","651c1b4b8eb61a020655d085","null","null","<p style=""font-size: 60px; font-family: BACS"">MBKREbAMO</p>","","","","","","","","",""
"html-keyboard-response","280","614377","0.0-14.0-0.29","5f5a713d37f71112463ab4d9","650c16f0f2faf8d7a0d14c09","651c1b4b8eb61a020655d085","null","null","<p style=""font-size: 60px; font-family: BACS"">DlDdAPEM</p>","","","","","","","","",""
"html-keyboard-response","281","615385","0.0-14.0-0.30","5f5a713d37f71112463ab4d9","650c16f0f2faf8d7a0d14c09","651c1b4b8eb61a020655d085","null","null","<p style=""font-size: 60px; font-family: BACS"">damYbdUr</p>","","","","","","","","",""
"html-keyboard-response","282","616390","0.0-14.0-0.31","5f5a713d37f71112463ab4d9","650c16f0f2faf8d7a0d14c09","651c1b4b8eb61a020655d085","null","null","<p style=""font-size: 60px; font-family: BACS"">rdLJavAvb</p>","","","","","","","","",""
"html-keyboard-response","283","617393","0.0-14.0-0.32","5f5a713d37f71112463ab4d9","650c16f0f2faf8d7a0d14c09","651c1b4b8eb61a020655d085","null","null","<p style=""font-size: 60px; font-family: BACS"">vQdOGUOA</p>","","","","","","","","",""
"html-keyboard-response","284","618397","0.0-14.0-0.33","5f5a713d37f71112463ab4d9","650c16f0f2faf8d7a0d14c09","651c1b4b8eb61a020655d085","null","null","<p style=""font-size: 60px; font-family: BACS"">lBKtbdtK</p>","","","","","","","","",""
"html-keyboard-response","285","619413","0.0-14.0-0.34","5f5a713d37f71112463ab4d9","650c16f0f2faf8d7a0d14c09","651c1b4b8eb61a020655d085","null","null","<p style=""font-size: 60px; font-family: BACS"">kabJbkJdr</p>","","","","","","","","",""
"html-keyboard-response","286","620430","0.0-14.0-0.35","5f5a713d37f71112463ab4d9","650c16f0f2faf8d7a0d14c09","651c1b4b8eb61a020655d085","null","null","<p style=""font-size: 60px; font-family: BACS"">ACcODOAK</p>","","","","","","","","",""
"html-keyboard-response","287","621443","0.0-14.0-0.36","5f5a713d37f71112463ab4d9","650c16f0f2faf8d7a0d14c09","651c1b4b8eb61a020655d085","null","null","<p style=""font-size: 60px; font-family: BACS"">rdLJaLUOk</p>","","","","","","","","",""
"html-keyboard-response","288","622454","0.0-14.0-0.37","5f5a713d37f71112463ab4d9","650c16f0f2faf8d7a0d14c09","651c1b4b8eb61a020655d085","null","null","<p style=""font-size: 60px; font-family: BACS"">BECkAPEM</p>","","","","","","","","",""
"html-keyboard-response","289","623457","0.0-14.0-0.38","5f5a713d37f71112463ab4d9","650c16f0f2faf8d7a0d14c09","651c1b4b8eb61a020655d085","null","null","<p style=""font-size: 60px; font-family: BACS"">kabJbLUOk</p>","","","","","","","","",""
"html-keyboard-response","290","624475","0.0-14.0-0.39","5f5a713d37f71112463ab4d9","650c16f0f2faf8d7a0d14c09","651c1b4b8eb61a020655d085","null","null","<p style=""font-size: 60px; font-family: BACS"">NkUAvAvb</p>","","","","","","","","",""
"html-keyboard-response","291","625498","0.0-14.0-0.40","5f5a713d37f71112463ab4d9","650c16f0f2faf8d7a0d14c09","651c1b4b8eb61a020655d085","null","null","<p style=""font-size: 60px; font-family: BACS"">damYbGUOA</p>","","","","","","","","",""
"html-keyboard-response","292","626514","0.0-14.0-0.41","5f5a713d37f71112463ab4d9","650c16f0f2faf8d7a0d14c09","651c1b4b8eb61a020655d085","null","null","<p style=""font-size: 60px; font-family: BACS"">MBKREbdtK</p>","","","","","","","","",""
"html-keyboard-response","293","627518","0.0-14.0-0.42","5f5a713d37f71112463ab4d9","650c16f0f2faf8d7a0d14c09","651c1b4b8eb61a020655d085","null","null","<p style=""font-size: 60px; font-family: BACS"">kabJbdUr</p>","","","","","","","","",""
"html-keyboard-response","294","628523","0.0-14.0-0.43","5f5a713d37f71112463ab4d9","650c16f0f2faf8d7a0d14c09","651c1b4b8eb61a020655d085","null","null","<p style=""font-size: 60px; font-family: BACS"">PDPhlbdtK</p>","","","","","","","","",""
"html-keyboard-response","295","629525","0.0-14.0-0.44","5f5a713d37f71112463ab4d9","650c16f0f2faf8d7a0d14c09","651c1b4b8eb61a020655d085","null","null","<p style=""font-size: 60px; font-family: BACS"">vQdOdUr</p>","","","","","","","","",""
"html-keyboard-response","296","630528","0.0-14.0-0.45","5f5a713d37f71112463ab4d9","650c16f0f2faf8d7a0d14c09","651c1b4b8eb61a020655d085","null","null","<p style=""font-size: 60px; font-family: BACS"">lBKtDOAK</p>","","","","","","","","",""
"html-keyboard-response","297","631546","0.0-14.0-0.46","5f5a713d37f71112463ab4d9","650c16f0f2faf8d7a0d14c09","651c1b4b8eb61a020655d085","null","null","<p style=""font-size: 60px; font-family: BACS"">NkUAdUr</p>","","","","","","","","",""
"html-keyboard-response","298","632564","0.0-14.0-0.47","5f5a713d37f71112463ab4d9","650c16f0f2faf8d7a0d14c09","651c1b4b8eb61a020655d085","null","null","<p style=""font-size: 60px; font-family: BACS"">PDPhlbAMO</p>","","","","","","","","",""
"html-keyboard-response","299","633567","0.0-14.0-0.48","5f5a713d37f71112463ab4d9","650c16f0f2faf8d7a0d14c09","651c1b4b8eb61a020655d085","null","null","<p style=""font-size: 60px; font-family: BACS"">ACcOKEdl</p>","","","","","","","","",""
"html-keyboard-response","300","634571","0.0-14.0-0.49","5f5a713d37f71112463ab4d9","650c16f0f2faf8d7a0d14c09","651c1b4b8eb61a020655d085","null","null","<p style=""font-size: 60px; font-family: BACS"">RlAKcbdtK</p>","","","","","","","","",""
"html-keyboard-response","301","635590","0.0-14.0-0.50","5f5a713d37f71112463ab4d9","650c16f0f2faf8d7a0d14c09","651c1b4b8eb61a020655d085","null","null","<p style=""font-size: 60px; font-family: BACS"">GLYrALUOk</p>","","","","","","","","",""
"html-keyboard-response","302","636593","0.0-14.0-0.51","5f5a713d37f71112463ab4d9","650c16f0f2faf8d7a0d14c09","651c1b4b8eb61a020655d085","null","null","<p style=""font-size: 60px; font-family: BACS"">NkUAGUOA</p>","","","","","","","","",""
"html-keyboard-response","303","637593","0.0-14.0-0.52","5f5a713d37f71112463ab4d9","650c16f0f2faf8d7a0d14c09","651c1b4b8eb61a020655d085","null","null","<p style=""font-size: 60px; font-family: BACS"">OEPkDOAK</p>","","","","","","","","",""
"html-keyboard-response","304","638595","0.0-14.0-0.53","5f5a713d37f71112463ab4d9","650c16f0f2faf8d7a0d14c09","651c1b4b8eb61a020655d085","null","null","<p style=""font-size: 60px; font-family: BACS"">ACcOAPEM</p>","","","","","","","","",""
"html-keyboard-response","305","639597","0.0-14.0-0.54","5f5a713d37f71112463ab4d9","650c16f0f2faf8d7a0d14c09","651c1b4b8eb61a020655d085","null","null","<p style=""font-size: 60px; font-family: BACS"">ZcGdNGUOA</p>","","","","","","","","",""
"html-keyboard-response","306","640602","0.0-14.0-0.55","5f5a713d37f71112463ab4d9","650c16f0f2faf8d7a0d14c09","651c1b4b8eb61a020655d085","null","null","<p style=""font-size: 60px; font-family: BACS"">GLYrAvAvb</p>","","","","","","","","",""
"html-keyboard-response","307","641604","0.0-14.0-0.56","5f5a713d37f71112463ab4d9","650c16f0f2faf8d7a0d14c09","651c1b4b8eb61a020655d085","null","null","<p style=""font-size: 60px; font-family: BACS"">rdLJakJdr</p>","","","","","","","","",""
"html-keyboard-response","308","642623","0.0-14.0-0.57","5f5a713d37f71112463ab4d9","650c16f0f2faf8d7a0d14c09","651c1b4b8eb61a020655d085","null","null","<p style=""font-size: 60px; font-family: BACS"">MBKREAPEM</p>","","","","","","","","",""
"html-keyboard-response","309","643647","0.0-14.0-0.58","5f5a713d37f71112463ab4d9","650c16f0f2faf8d7a0d14c09","651c1b4b8eb61a020655d085","null","null","<p style=""font-size: 60px; font-family: BACS"">UdlGQLUOk</p>","","","","","","","","",""
"html-keyboard-response","310","644663","0.0-14.0-0.59","5f5a713d37f71112463ab4d9","650c16f0f2faf8d7a0d14c09","651c1b4b8eb61a020655d085","null","null","<p style=""font-size: 60px; font-family: BACS"">LQurkJdr</p>","","","","","","","","",""
"html-keyboard-response","311","645666","0.0-14.0-0.60","5f5a713d37f71112463ab4d9","650c16f0f2faf8d7a0d14c09","651c1b4b8eb61a020655d085","null","null","<p style=""font-size: 60px; font-family: BACS"">TAdhMDOAK</p>","","","","","","","","",""
"html-keyboard-response","312","646671","0.0-14.0-0.61","5f5a713d37f71112463ab4d9","650c16f0f2faf8d7a0d14c09","651c1b4b8eb61a020655d085","null","null","<p style=""font-size: 60px; font-family: BACS"">BECkKEdl</p>","","","","","","","","",""
"html-keyboard-response","313","647673","0.0-14.0-0.62","5f5a713d37f71112463ab4d9","650c16f0f2faf8d7a0d14c09","651c1b4b8eb61a020655d085","null","null","<p style=""font-size: 60px; font-family: BACS"">UdlGQdUr</p>","","","","","","","","",""
"html-keyboard-response","314","648677","0.0-14.0-0.63","5f5a713d37f71112463ab4d9","650c16f0f2faf8d7a0d14c09","651c1b4b8eb61a020655d085","null","null","<p style=""font-size: 60px; font-family: BACS"">kabJbvAvb</p>","","","","","","","","",""
"html-keyboard-response","315","649694","0.0-14.0-0.64","5f5a713d37f71112463ab4d9","650c16f0f2faf8d7a0d14c09","651c1b4b8eb61a020655d085","null","null","<p style=""font-size: 60px; font-family: BACS"">kKEdMAPEM</p>","","","","","","","","",""
"html-keyboard-response","316","650712","0.0-14.0-0.65","5f5a713d37f71112463ab4d9","650c16f0f2faf8d7a0d14c09","651c1b4b8eb61a020655d085","null","null","<p style=""font-size: 60px; font-family: BACS"">RlAKcKEdl</p>","","","","","","","","",""
"html-keyboard-response","317","651715","0.0-14.0-0.66","5f5a713d37f71112463ab4d9","650c16f0f2faf8d7a0d14c09","651c1b4b8eb61a020655d085","null","null","<p style=""font-size: 60px; font-family: BACS"">OEPkbAMO</p>","","","","","","","","",""
"html-keyboard-response","318","652718","0.0-14.0-0.67","5f5a713d37f71112463ab4d9","650c16f0f2faf8d7a0d14c09","651c1b4b8eb61a020655d085","null","null","<p style=""font-size: 60px; font-family: BACS"">kulZkJdr</p>","","","","","","","","",""
"html-keyboard-response","319","653722","0.0-14.0-0.68","5f5a713d37f71112463ab4d9","650c16f0f2faf8d7a0d14c09","651c1b4b8eb61a020655d085","null","null","<p style=""font-size: 60px; font-family: BACS"">BECkbAMO</p>","","","","","","","","",""
"html-keyboard-response","320","654726","0.0-14.0-0.69","5f5a713d37f71112463ab4d9","650c16f0f2faf8d7a0d14c09","651c1b4b8eb61a020655d085","null","null","<p style=""font-size: 60px; font-family: BACS"">lBKtKEdl</p>","","","","","","","","",""
"html-keyboard-response","321","655727","0.0-14.0-0.70","5f5a713d37f71112463ab4d9","650c16f0f2faf8d7a0d14c09","651c1b4b8eb61a020655d085","null","null","<p style=""font-size: 60px; font-family: BACS"">DlDdDOAK</p>","","","","","","","","",""
"html-keyboard-response","322","656732","0.0-14.0-0.71","5f5a713d37f71112463ab4d9","650c16f0f2faf8d7a0d14c09","651c1b4b8eb61a020655d085","null","null","<p style=""font-size: 60px; font-family: BACS"">BECkbdtK</p>","","","","","","","","",""
"html-keyboard-response","323","657750","0.0-14.0-0.72","5f5a713d37f71112463ab4d9","650c16f0f2faf8d7a0d14c09","651c1b4b8eb61a020655d085","null","null","<p style=""font-size: 60px; font-family: BACS"">ZcGdNkJdr</p>","","","","","","","","",""
"html-keyboard-response","324","658768","0.0-14.0-0.73","5f5a713d37f71112463ab4d9","650c16f0f2faf8d7a0d14c09","651c1b4b8eb61a020655d085","null","null","<p style=""font-size: 60px; font-family: BACS"">PDPhlKEdl</p>","","","","","","","","",""
"html-keyboard-response","325","659771","0.0-14.0-0.74","5f5a713d37f71112463ab4d9","650c16f0f2faf8d7a0d14c09","651c1b4b8eb61a020655d085","null","null","<p style=""font-size: 60px; font-family: BACS"">GLYrAkJdr</p>","","","","","","","","",""
"html-keyboard-response","326","660775","0.0-14.0-0.75","5f5a713d37f71112463ab4d9","650c16f0f2faf8d7a0d14c09","651c1b4b8eb61a020655d085","null","null","<p style=""font-size: 60px; font-family: BACS"">LQurdUr</p>","","","","","","","","",""
"html-keyboard-response","327","661796","0.0-14.0-0.76","5f5a713d37f71112463ab4d9","650c16f0f2faf8d7a0d14c09","651c1b4b8eb61a020655d085","null","null","<p style=""font-size: 60px; font-family: BACS"">lBKtAPEM</p>","","","","","","","","",""
"html-keyboard-response","328","662800","0.0-14.0-0.77","5f5a713d37f71112463ab4d9","650c16f0f2faf8d7a0d14c09","651c1b4b8eb61a020655d085","null","null","<p style=""font-size: 60px; font-family: BACS"">damYbvAvb</p>","","","","","","","","",""
"html-keyboard-response","329","663803","0.0-14.0-0.78","5f5a713d37f71112463ab4d9","650c16f0f2faf8d7a0d14c09","651c1b4b8eb61a020655d085","null","null","<p style=""font-size: 60px; font-family: BACS"">ACcObAMO</p>","","","","","","","","",""
"html-keyboard-response","330","664807","0.0-14.0-0.79","5f5a713d37f71112463ab4d9","650c16f0f2faf8d7a0d14c09","651c1b4b8eb61a020655d085","null","null","<p style=""font-size: 60px; font-family: BACS"">vQdOkJdr</p>","","","","","","","","",""
"html-keyboard-response","331","672369","0.0-15.0","5f5a713d37f71112463ab4d9","650c16f0f2faf8d7a0d14c09","651c1b4b8eb61a020655d085","7561"," ","<p>Great, you've seen the fourth block of words. You may now take a short break.</p>
      <p>Press the spacebar when you're ready to continue.</p>","","","","","","","","",""
"html-keyboard-response","332","673375","0.0-16.0-0.0","5f5a713d37f71112463ab4d9","650c16f0f2faf8d7a0d14c09","651c1b4b8eb61a020655d085","null","null","<p style=""font-size: 60px; font-family: BACS"">NkUAGUOA</p>","","","","","","","","",""
"html-keyboard-response","333","674379","0.0-16.0-0.1","5f5a713d37f71112463ab4d9","650c16f0f2faf8d7a0d14c09","651c1b4b8eb61a020655d085","null","null","<p style=""font-size: 60px; font-family: BACS"">NkUAGUOA</p>","","","","","","","","",""
"html-keyboard-response","334","675382","0.0-16.0-0.2","5f5a713d37f71112463ab4d9","650c16f0f2faf8d7a0d14c09","651c1b4b8eb61a020655d085","null","null","<p style=""font-size: 60px; font-family: BACS"">NkUAGUOA</p>","","","","","","","","",""
"html-keyboard-response","335","676386","0.0-16.0-0.3","5f5a713d37f71112463ab4d9","650c16f0f2faf8d7a0d14c09","651c1b4b8eb61a020655d085","null","null","<p style=""font-size: 60px; font-family: BACS"">NkUAGUOA</p>","","","","","","","","",""
"html-keyboard-response","336","677389","0.0-16.0-0.4","5f5a713d37f71112463ab4d9","650c16f0f2faf8d7a0d14c09","651c1b4b8eb61a020655d085","null","null","<p style=""font-size: 60px; font-family: BACS"">NkUAGUOA</p>","","","","","","","","",""
"html-keyboard-response","337","678392","0.0-16.0-0.5","5f5a713d37f71112463ab4d9","650c16f0f2faf8d7a0d14c09","651c1b4b8eb61a020655d085","null","null","<p style=""font-size: 60px; font-family: BACS"">NkUAGUOA</p>","","","","","","","","",""
"html-keyboard-response","338","679394","0.0-16.0-0.6","5f5a713d37f71112463ab4d9","650c16f0f2faf8d7a0d14c09","651c1b4b8eb61a020655d085","null","null","<p style=""font-size: 60px; font-family: BACS"">NkUAGUOA</p>","","","","","","","","",""
"html-keyboard-response","339","680398","0.0-16.0-0.7","5f5a713d37f71112463ab4d9","650c16f0f2faf8d7a0d14c09","651c1b4b8eb61a020655d085","null","null","<p style=""font-size: 60px; font-family: BACS"">NkUAGUOA</p>","","","","","","","","",""
"html-keyboard-response","340","681401","0.0-16.0-0.8","5f5a713d37f71112463ab4d9","650c16f0f2faf8d7a0d14c09","651c1b4b8eb61a020655d085","null","null","<p style=""font-size: 60px; font-family: BACS"">NkUAGUOA</p>","","","","","","","","",""
"html-keyboard-response","341","682406","0.0-16.0-0.9","5f5a713d37f71112463ab4d9","650c16f0f2faf8d7a0d14c09","651c1b4b8eb61a020655d085","null","null","<p style=""font-size: 60px; font-family: BACS"">NkUAGUOA</p>","","","","","","","","",""
"html-keyboard-response","342","683420","0.0-16.0-0.10","5f5a713d37f71112463ab4d9","650c16f0f2faf8d7a0d14c09","651c1b4b8eb61a020655d085","null","null","<p style=""font-size: 60px; font-family: BACS"">NkUAGUOA</p>","","","","","","","","",""
"html-keyboard-response","343","684424","0.0-16.0-0.11","5f5a713d37f71112463ab4d9","650c16f0f2faf8d7a0d14c09","651c1b4b8eb61a020655d085","null","null","<p style=""font-size: 60px; font-family: BACS"">NkUAGUOA</p>","","","","","","","","",""
"html-keyboard-response","344","685428","0.0-16.0-0.12","5f5a713d37f71112463ab4d9","650c16f0f2faf8d7a0d14c09","651c1b4b8eb61a020655d085","null","null","<p style=""font-size: 60px; font-family: BACS"">NkUAGUOA</p>","","","","","","","","",""
"html-keyboard-response","345","686432","0.0-16.0-0.13","5f5a713d37f71112463ab4d9","650c16f0f2faf8d7a0d14c09","651c1b4b8eb61a020655d085","null","null","<p style=""font-size: 60px; font-family: BACS"">NkUAGUOA</p>","","","","","","","","",""
"html-keyboard-response","346","687450","0.0-16.0-0.14","5f5a713d37f71112463ab4d9","650c16f0f2faf8d7a0d14c09","651c1b4b8eb61a020655d085","null","null","<p style=""font-size: 60px; font-family: BACS"">NkUAGUOA</p>","","","","","","","","",""
"html-keyboard-response","347","688477","0.0-16.0-0.15","5f5a713d37f71112463ab4d9","650c16f0f2faf8d7a0d14c09","651c1b4b8eb61a020655d085","null","null","<p style=""font-size: 60px; font-family: BACS"">NkUAGUOA</p>","","","","","","","","",""
"html-keyboard-response","348","689486","0.0-16.0-0.16","5f5a713d37f71112463ab4d9","650c16f0f2faf8d7a0d14c09","651c1b4b8eb61a020655d085","null","null","<p style=""font-size: 60px; font-family: BACS"">NkUAGUOA</p>","","","","","","","","",""
"html-keyboard-response","349","690499","0.0-16.0-0.17","5f5a713d37f71112463ab4d9","650c16f0f2faf8d7a0d14c09","651c1b4b8eb61a020655d085","null","null","<p style=""font-size: 60px; font-family: BACS"">NkUAGUOA</p>","","","","","","","","",""
"html-keyboard-response","350","691504","0.0-16.0-0.18","5f5a713d37f71112463ab4d9","650c16f0f2faf8d7a0d14c09","651c1b4b8eb61a020655d085","null","null","<p style=""font-size: 60px; font-family: BACS"">NkUAGUOA</p>","","","","","","","","",""
"html-keyboard-response","351","692512","0.0-16.0-0.19","5f5a713d37f71112463ab4d9","650c16f0f2faf8d7a0d14c09","651c1b4b8eb61a020655d085","null","null","<p style=""font-size: 60px; font-family: BACS"">NkUAGUOA</p>","","","","","","","","",""
"html-keyboard-response","352","693544","0.0-16.0-0.20","5f5a713d37f71112463ab4d9","650c16f0f2faf8d7a0d14c09","651c1b4b8eb61a020655d085","null","null","<p style=""font-size: 60px; font-family: BACS"">NkUAGUOA</p>","","","","","","","","",""
"html-keyboard-response","353","694578","0.0-16.0-0.21","5f5a713d37f71112463ab4d9","650c16f0f2faf8d7a0d14c09","651c1b4b8eb61a020655d085","null","null","<p style=""font-size: 60px; font-family: BACS"">NkUAGUOA</p>","","","","","","","","",""
"html-keyboard-response","354","695580","0.0-16.0-0.22","5f5a713d37f71112463ab4d9","650c16f0f2faf8d7a0d14c09","651c1b4b8eb61a020655d085","null","null","<p style=""font-size: 60px; font-family: BACS"">NkUAGUOA</p>","","","","","","","","",""
"html-keyboard-response","355","696606","0.0-16.0-0.23","5f5a713d37f71112463ab4d9","650c16f0f2faf8d7a0d14c09","651c1b4b8eb61a020655d085","null","null","<p style=""font-size: 60px; font-family: BACS"">NkUAGUOA</p>","","","","","","","","",""
"html-keyboard-response","356","697635","0.0-16.0-0.24","5f5a713d37f71112463ab4d9","650c16f0f2faf8d7a0d14c09","651c1b4b8eb61a020655d085","null","null","<p style=""font-size: 60px; font-family: BACS"">NkUAGUOA</p>","","","","","","","","",""
"html-keyboard-response","357","698640","0.0-16.0-0.25","5f5a713d37f71112463ab4d9","650c16f0f2faf8d7a0d14c09","651c1b4b8eb61a020655d085","null","null","<p style=""font-size: 60px; font-family: BACS"">NkUAGUOA</p>","","","","","","","","",""
"html-keyboard-response","358","699674","0.0-16.0-0.26","5f5a713d37f71112463ab4d9","650c16f0f2faf8d7a0d14c09","651c1b4b8eb61a020655d085","null","null","<p style=""font-size: 60px; font-family: BACS"">NkUAGUOA</p>","","","","","","","","",""
"html-keyboard-response","359","700681","0.0-16.0-0.27","5f5a713d37f71112463ab4d9","650c16f0f2faf8d7a0d14c09","651c1b4b8eb61a020655d085","null","null","<p style=""font-size: 60px; font-family: BACS"">NkUAGUOA</p>","","","","","","","","",""
"html-keyboard-response","360","701694","0.0-16.0-0.28","5f5a713d37f71112463ab4d9","650c16f0f2faf8d7a0d14c09","651c1b4b8eb61a020655d085","null","null","<p style=""font-size: 60px; font-family: BACS"">NkUAGUOA</p>","","","","","","","","",""
"html-keyboard-response","361","702698","0.0-16.0-0.29","5f5a713d37f71112463ab4d9","650c16f0f2faf8d7a0d14c09","651c1b4b8eb61a020655d085","null","null","<p style=""font-size: 60px; font-family: BACS"">NkUAGUOA</p>","","","","","","","","",""
"html-keyboard-response","362","703710","0.0-16.0-0.30","5f5a713d37f71112463ab4d9","650c16f0f2faf8d7a0d14c09","651c1b4b8eb61a020655d085","null","null","<p style=""font-size: 60px; font-family: BACS"">NkUAGUOA</p>","","","","","","","","",""
"html-keyboard-response","363","704732","0.0-16.0-0.31","5f5a713d37f71112463ab4d9","650c16f0f2faf8d7a0d14c09","651c1b4b8eb61a020655d085","null","null","<p style=""font-size: 60px; font-family: BACS"">NkUAGUOA</p>","","","","","","","","",""
"html-keyboard-response","364","705744","0.0-16.0-0.32","5f5a713d37f71112463ab4d9","650c16f0f2faf8d7a0d14c09","651c1b4b8eb61a020655d085","null","null","<p style=""font-size: 60px; font-family: BACS"">NkUAGUOA</p>","","","","","","","","",""
"html-keyboard-response","365","706755","0.0-16.0-0.33","5f5a713d37f71112463ab4d9","650c16f0f2faf8d7a0d14c09","651c1b4b8eb61a020655d085","null","null","<p style=""font-size: 60px; font-family: BACS"">NkUAGUOA</p>","","","","","","","","",""
"html-keyboard-response","366","707784","0.0-16.0-0.34","5f5a713d37f71112463ab4d9","650c16f0f2faf8d7a0d14c09","651c1b4b8eb61a020655d085","null","null","<p style=""font-size: 60px; font-family: BACS"">NkUAGUOA</p>","","","","","","","","",""
"html-keyboard-response","367","708793","0.0-16.0-0.35","5f5a713d37f71112463ab4d9","650c16f0f2faf8d7a0d14c09","651c1b4b8eb61a020655d085","null","null","<p style=""font-size: 60px; font-family: BACS"">NkUAGUOA</p>","","","","","","","","",""
"html-keyboard-response","368","709796","0.0-16.0-0.36","5f5a713d37f71112463ab4d9","650c16f0f2faf8d7a0d14c09","651c1b4b8eb61a020655d085","null","null","<p style=""font-size: 60px; font-family: BACS"">NkUAGUOA</p>","","","","","","","","",""
"html-keyboard-response","369","710827","0.0-16.0-0.37","5f5a713d37f71112463ab4d9","650c16f0f2faf8d7a0d14c09","651c1b4b8eb61a020655d085","null","null","<p style=""font-size: 60px; font-family: BACS"">NkUAGUOA</p>","","","","","","","","",""
"html-keyboard-response","370","711847","0.0-16.0-0.38","5f5a713d37f71112463ab4d9","650c16f0f2faf8d7a0d14c09","651c1b4b8eb61a020655d085","null","null","<p style=""font-size: 60px; font-family: BACS"">NkUAGUOA</p>","","","","","","","","",""
"html-keyboard-response","371","712851","0.0-16.0-0.39","5f5a713d37f71112463ab4d9","650c16f0f2faf8d7a0d14c09","651c1b4b8eb61a020655d085","null","null","<p style=""font-size: 60px; font-family: BACS"">NkUAGUOA</p>","","","","","","","","",""
"html-keyboard-response","372","713874","0.0-16.0-0.40","5f5a713d37f71112463ab4d9","650c16f0f2faf8d7a0d14c09","651c1b4b8eb61a020655d085","null","null","<p style=""font-size: 60px; font-family: BACS"">NkUAGUOA</p>","","","","","","","","",""
"html-keyboard-response","373","714888","0.0-16.0-0.41","5f5a713d37f71112463ab4d9","650c16f0f2faf8d7a0d14c09","651c1b4b8eb61a020655d085","null","null","<p style=""font-size: 60px; font-family: BACS"">NkUAGUOA</p>","","","","","","","","",""
"html-keyboard-response","374","715916","0.0-16.0-0.42","5f5a713d37f71112463ab4d9","650c16f0f2faf8d7a0d14c09","651c1b4b8eb61a020655d085","null","null","<p style=""font-size: 60px; font-family: BACS"">NkUAGUOA</p>","","","","","","","","",""
"html-keyboard-response","375","716925","0.0-16.0-0.43","5f5a713d37f71112463ab4d9","650c16f0f2faf8d7a0d14c09","651c1b4b8eb61a020655d085","null","null","<p style=""font-size: 60px; font-family: BACS"">NkUAGUOA</p>","","","","","","","","",""
"html-keyboard-response","376","717929","0.0-16.0-0.44","5f5a713d37f71112463ab4d9","650c16f0f2faf8d7a0d14c09","651c1b4b8eb61a020655d085","null","null","<p style=""font-size: 60px; font-family: BACS"">NkUAGUOA</p>","","","","","","","","",""
"html-keyboard-response","377","718935","0.0-16.0-0.45","5f5a713d37f71112463ab4d9","650c16f0f2faf8d7a0d14c09","651c1b4b8eb61a020655d085","null","null","<p style=""font-size: 60px; font-family: BACS"">NkUAGUOA</p>","","","","","","","","",""
"html-keyboard-response","378","719937","0.0-16.0-0.46","5f5a713d37f71112463ab4d9","650c16f0f2faf8d7a0d14c09","651c1b4b8eb61a020655d085","null","null","<p style=""font-size: 60px; font-family: BACS"">NkUAGUOA</p>","","","","","","","","",""
"html-keyboard-response","379","720956","0.0-16.0-0.47","5f5a713d37f71112463ab4d9","650c16f0f2faf8d7a0d14c09","651c1b4b8eb61a020655d085","null","null","<p style=""font-size: 60px; font-family: BACS"">NkUAGUOA</p>","","","","","","","","",""
"html-keyboard-response","380","721979","0.0-16.0-0.48","5f5a713d37f71112463ab4d9","650c16f0f2faf8d7a0d14c09","651c1b4b8eb61a020655d085","null","null","<p style=""font-size: 60px; font-family: BACS"">NkUAGUOA</p>","","","","","","","","",""
"html-keyboard-response","381","722994","0.0-16.0-0.49","5f5a713d37f71112463ab4d9","650c16f0f2faf8d7a0d14c09","651c1b4b8eb61a020655d085","null","null","<p style=""font-size: 60px; font-family: BACS"">NkUAGUOA</p>","","","","","","","","",""
"html-keyboard-response","382","724016","0.0-16.0-0.50","5f5a713d37f71112463ab4d9","650c16f0f2faf8d7a0d14c09","651c1b4b8eb61a020655d085","null","null","<p style=""font-size: 60px; font-family: BACS"">NkUAGUOA</p>","","","","","","","","",""
"html-keyboard-response","383","725025","0.0-16.0-0.51","5f5a713d37f71112463ab4d9","650c16f0f2faf8d7a0d14c09","651c1b4b8eb61a020655d085","null","null","<p style=""font-size: 60px; font-family: BACS"">NkUAGUOA</p>","","","","","","","","",""
"html-keyboard-response","384","726062","0.0-16.0-0.52","5f5a713d37f71112463ab4d9","650c16f0f2faf8d7a0d14c09","651c1b4b8eb61a020655d085","null","null","<p style=""font-size: 60px; font-family: BACS"">NkUAGUOA</p>","","","","","","","","",""
"html-keyboard-response","385","727102","0.0-16.0-0.53","5f5a713d37f71112463ab4d9","650c16f0f2faf8d7a0d14c09","651c1b4b8eb61a020655d085","null","null","<p style=""font-size: 60px; font-family: BACS"">NkUAGUOA</p>","","","","","","","","",""
"html-keyboard-response","386","728104","0.0-16.0-0.54","5f5a713d37f71112463ab4d9","650c16f0f2faf8d7a0d14c09","651c1b4b8eb61a020655d085","null","null","<p style=""font-size: 60px; font-family: BACS"">NkUAGUOA</p>","","","","","","","","",""
"html-keyboard-response","387","729105","0.0-16.0-0.55","5f5a713d37f71112463ab4d9","650c16f0f2faf8d7a0d14c09","651c1b4b8eb61a020655d085","null","null","<p style=""font-size: 60px; font-family: BACS"">NkUAGUOA</p>","","","","","","","","",""
"html-keyboard-response","388","730129","0.0-16.0-0.56","5f5a713d37f71112463ab4d9","650c16f0f2faf8d7a0d14c09","651c1b4b8eb61a020655d085","null","null","<p style=""font-size: 60px; font-family: BACS"">NkUAGUOA</p>","","","","","","","","",""
"html-keyboard-response","389","731142","0.0-16.0-0.57","5f5a713d37f71112463ab4d9","650c16f0f2faf8d7a0d14c09","651c1b4b8eb61a020655d085","null","null","<p style=""font-size: 60px; font-family: BACS"">NkUAGUOA</p>","","","","","","","","",""
"html-keyboard-response","390","732170","0.0-16.0-0.58","5f5a713d37f71112463ab4d9","650c16f0f2faf8d7a0d14c09","651c1b4b8eb61a020655d085","null","null","<p style=""font-size: 60px; font-family: BACS"">NkUAGUOA</p>","","","","","","","","",""
"html-keyboard-response","391","733194","0.0-16.0-0.59","5f5a713d37f71112463ab4d9","650c16f0f2faf8d7a0d14c09","651c1b4b8eb61a020655d085","null","null","<p style=""font-size: 60px; font-family: BACS"">NkUAGUOA</p>","","","","","","","","",""
"html-keyboard-response","392","734212","0.0-16.0-0.60","5f5a713d37f71112463ab4d9","650c16f0f2faf8d7a0d14c09","651c1b4b8eb61a020655d085","null","null","<p style=""font-size: 60px; font-family: BACS"">NkUAGUOA</p>","","","","","","","","",""
"html-keyboard-response","393","735233","0.0-16.0-0.61","5f5a713d37f71112463ab4d9","650c16f0f2faf8d7a0d14c09","651c1b4b8eb61a020655d085","null","null","<p style=""font-size: 60px; font-family: BACS"">NkUAGUOA</p>","","","","","","","","",""
"html-keyboard-response","394","736249","0.0-16.0-0.62","5f5a713d37f71112463ab4d9","650c16f0f2faf8d7a0d14c09","651c1b4b8eb61a020655d085","null","null","<p style=""font-size: 60px; font-family: BACS"">NkUAGUOA</p>","","","","","","","","",""
"html-keyboard-response","395","737254","0.0-16.0-0.63","5f5a713d37f71112463ab4d9","650c16f0f2faf8d7a0d14c09","651c1b4b8eb61a020655d085","null","null","<p style=""font-size: 60px; font-family: BACS"">NkUAGUOA</p>","","","","","","","","",""
"html-keyboard-response","396","738290","0.0-16.0-0.64","5f5a713d37f71112463ab4d9","650c16f0f2faf8d7a0d14c09","651c1b4b8eb61a020655d085","null","null","<p style=""font-size: 60px; font-family: BACS"">NkUAGUOA</p>","","","","","","","","",""
"html-keyboard-response","397","739302","0.0-16.0-0.65","5f5a713d37f71112463ab4d9","650c16f0f2faf8d7a0d14c09","651c1b4b8eb61a020655d085","null","null","<p style=""font-size: 60px; font-family: BACS"">NkUAGUOA</p>","","","","","","","","",""
"html-keyboard-response","398","740332","0.0-16.0-0.66","5f5a713d37f71112463ab4d9","650c16f0f2faf8d7a0d14c09","651c1b4b8eb61a020655d085","null","null","<p style=""font-size: 60px; font-family: BACS"">NkUAGUOA</p>","","","","","","","","",""
"html-keyboard-response","399","741337","0.0-16.0-0.67","5f5a713d37f71112463ab4d9","650c16f0f2faf8d7a0d14c09","651c1b4b8eb61a020655d085","null","null","<p style=""font-size: 60px; font-family: BACS"">NkUAGUOA</p>","","","","","","","","",""
