"trial_type","trial_index","time_elapsed","internal_node_id","subject_id","study_id","session_id","rt","response","stimulus","success","item","task","correct_response","testing_condition","correct","target","confound","name"
"pavlovia","0","711","0.0-0.0","5b212164cfbf200001cfb3ad","650c16f0f2faf8d7a0d14c09","651c1c7ed26d51aa04e3b5b2","","","","","","","","","","","",""
"survey-html-form","1","6060","0.0-1.0","5b212164cfbf200001cfb3ad","650c16f0f2faf8d7a0d14c09","651c1c7ed26d51aa04e3b5b2","5349","{""ID"":""5b212164cfbf200001cfb3ad""}","","","","","","","","","",""
"html-keyboard-response","2","20732","0.0-2.0","5b212164cfbf200001cfb3ad","650c16f0f2faf8d7a0d14c09","651c1c7ed26d51aa04e3b5b2","14671"," ","<p style=""font-size: 15px;"">Before beginning, we ask that you read the consent information and confirm your agreement to participate in the experiment.</p>
      <p style=""font-size: 15px;""> We ask that you remember that this is a research project and that your participation is entirely voluntary. You can stop your participation at any time, without needing to provide any explanation. The study we're asking you to participate in aims at examining how readers process written words. You will be engaged in a session of apprximately 20 minutes, followed by a brief questionnaire. You will have the opportunity to take a few breaks during the experiment. You will be paid £4 for your participation, corresponding to a rate of £8/hour. While this experiment looks at cognitive faculties, this experiment doesn't constitute clinical proof of eventual pathologies.</p>
      <p style=""font-size: 15px;"">All of the information collected thanks to yours and others' participation will be held in a secure password-protected server, and will not be shared with anyone not authorised to view it. Your personal information will be kept with an arbitrary participant ID. Thanks to this data anonymity process, any researcher analysing the data won't be able to track the information back to a specific participant. Therefore, this process will make identifying you impossibile, even when results from the study will be published in scientific reviews, presented at congresses, or at any other public forum. More generally, the collected data will be treated in accordance with the laws on privacy and conformity to the Legislative Degree n. 196 ""Code regarding the protection of personal data"" of the 30th of June 2003 and to the European Regulation 2016/670 (General Data Protection Regulation - GDPR). The Data Protection Officer is Avv. Valentina Carollo, who can be contacted at the following email addresses: <a href=""mailto:dpo@sissa.it"">dpo@sissa.it</a> or <a href=""mailto:rpd@sissa.it"">rpd@sissa.it</a> - PEC: <a href=""mailto:protocollo@pec.sissa.it"">protocollo@pec.sissa.it</a>.</p>
      <p style=""font-size: 15px;""> Before expressing your consent to participate, we would like to remind you again that in case you need explanations on any aspect of the experimental procedure, the researcher is at your disposition (<a href=""mailto:aliebelt@sissa.it"">aliebelt@sissa.it</a>, <a href=""mailto:davide.crepaldi@sissa.it"">davide.crepaldi@sissa.it</a>).</p>
      <p style=""font-size: 15px;"">If you would like to download the informed consent form, you can do so here: <a href=""BASL-Informed_Consent.pdf"" download>informed consent form</a>.</p>
      <p style=""font-size: 15px;"">We ask that you press the spacebar to proceed to the consent section.</p>","","","","","","","","",""
"survey-html-form","3","31036","0.0-3.0","5b212164cfbf200001cfb3ad","650c16f0f2faf8d7a0d14c09","651c1c7ed26d51aa04e3b5b2","10303","{""consent1"":""YES"",""consent2"":""YES"",""consent3"":""YES"",""consent4"":""YES"",""consent5"":""YES"",""consent6"":""YES""}","","","","","","","","","",""
"fullscreen","4","36347","0.0-4.0","5b212164cfbf200001cfb3ad","650c16f0f2faf8d7a0d14c09","651c1c7ed26d51aa04e3b5b2","","","","true","","","","","","","",""
"html-keyboard-response","5","58648","0.0-5.0","5b212164cfbf200001cfb3ad","650c16f0f2faf8d7a0d14c09","651c1c7ed26d51aa04e3b5b2","22301"," ","<p>Welcome, and thank you very much for your time!</p>
      <p>In this experiment, you'll be a language expert who's been asked to take a look at words that Earth has received in its first communication with aliens. Your task, in this first part of the experiment, is to pay close attention to the words you'll be shown; later, world leaders will ask you questions on what you saw. The words will be shown to you quite quickly; it seems that the aliens were in a hurry :-)</p>
      <p>Press the spacebar to continue.<p>","","","","","","","","",""
"html-keyboard-response","6","58699","0.0-6.0","5b212164cfbf200001cfb3ad","650c16f0f2faf8d7a0d14c09","651c1c7ed26d51aa04e3b5b2","null","null","<p style=""font-size: 120px; font-family: BACS""> </p>","","","","","","","","",""
"html-keyboard-response","7","63550","0.0-7.0","5b212164cfbf200001cfb3ad","650c16f0f2faf8d7a0d14c09","651c1c7ed26d51aa04e3b5b2","4850"," ","<p>Here is an example of the words you'll see:</p>
      <img src='esempio.png' height='400px'>
      <p>When you're ready to begin, press the spacebar.</p></div>","","","","","","","","",""
"html-keyboard-response","8","64553","0.0-8.0-0.0","5b212164cfbf200001cfb3ad","650c16f0f2faf8d7a0d14c09","651c1c7ed26d51aa04e3b5b2","null","null","<p style=""font-size: 60px; font-family: BACS"">Udumdark</p>","","","","","","","","",""
"html-keyboard-response","9","65562","0.0-8.0-0.1","5b212164cfbf200001cfb3ad","650c16f0f2faf8d7a0d14c09","651c1c7ed26d51aa04e3b5b2","null","null","<p style=""font-size: 60px; font-family: BACS"">htmhCOtM</p>","","","","","","","","",""
"html-keyboard-response","10","66574","0.0-8.0-0.2","5b212164cfbf200001cfb3ad","650c16f0f2faf8d7a0d14c09","651c1c7ed26d51aa04e3b5b2","null","null","<p style=""font-size: 60px; font-family: BACS"">LNUrJark</p>","","","","","","","","",""
"html-keyboard-response","11","67576","0.0-8.0-0.3","5b212164cfbf200001cfb3ad","650c16f0f2faf8d7a0d14c09","651c1c7ed26d51aa04e3b5b2","null","null","<p style=""font-size: 60px; font-family: BACS"">hTDdOtM</p>","","","","","","","","",""
"html-keyboard-response","12","68586","0.0-8.0-0.4","5b212164cfbf200001cfb3ad","650c16f0f2faf8d7a0d14c09","651c1c7ed26d51aa04e3b5b2","null","null","<p style=""font-size: 60px; font-family: BACS"">Qcladark</p>","","","","","","","","",""
"html-keyboard-response","13","69597","0.0-8.0-0.5","5b212164cfbf200001cfb3ad","650c16f0f2faf8d7a0d14c09","651c1c7ed26d51aa04e3b5b2","null","null","<p style=""font-size: 60px; font-family: BACS"">kPkRAKEdl</p>","","","","","","","","",""
"html-keyboard-response","14","70609","0.0-8.0-0.6","5b212164cfbf200001cfb3ad","650c16f0f2faf8d7a0d14c09","651c1c7ed26d51aa04e3b5b2","null","null","<p style=""font-size: 60px; font-family: BACS"">auYAkYArG</p>","","","","","","","","",""
"html-keyboard-response","15","71619","0.0-8.0-0.7","5b212164cfbf200001cfb3ad","650c16f0f2faf8d7a0d14c09","651c1c7ed26d51aa04e3b5b2","null","null","<p style=""font-size: 60px; font-family: BACS"">cRElDOtM</p>","","","","","","","","",""
"html-keyboard-response","16","72624","0.0-8.0-0.8","5b212164cfbf200001cfb3ad","650c16f0f2faf8d7a0d14c09","651c1c7ed26d51aa04e3b5b2","null","null","<p style=""font-size: 60px; font-family: BACS"">UdumdYArG</p>","","","","","","","","",""
"html-keyboard-response","17","73635","0.0-8.0-0.9","5b212164cfbf200001cfb3ad","650c16f0f2faf8d7a0d14c09","651c1c7ed26d51aa04e3b5b2","null","null","<p style=""font-size: 60px; font-family: BACS"">htmhClMck</p>","","","","","","","","",""
"html-keyboard-response","18","74635","0.0-8.0-0.10","5b212164cfbf200001cfb3ad","650c16f0f2faf8d7a0d14c09","651c1c7ed26d51aa04e3b5b2","null","null","<p style=""font-size: 60px; font-family: BACS"">RkmdCOtM</p>","","","","","","","","",""
"html-keyboard-response","19","75646","0.0-8.0-0.11","5b212164cfbf200001cfb3ad","650c16f0f2faf8d7a0d14c09","651c1c7ed26d51aa04e3b5b2","null","null","<p style=""font-size: 60px; font-family: BACS"">ZcGdNOJlN</p>","","","","","","","","",""
"html-keyboard-response","20","76648","0.0-8.0-0.12","5b212164cfbf200001cfb3ad","650c16f0f2faf8d7a0d14c09","651c1c7ed26d51aa04e3b5b2","null","null","<p style=""font-size: 60px; font-family: BACS"">UdumdQGb</p>","","","","","","","","",""
"html-keyboard-response","21","77650","0.0-8.0-0.13","5b212164cfbf200001cfb3ad","650c16f0f2faf8d7a0d14c09","651c1c7ed26d51aa04e3b5b2","null","null","<p style=""font-size: 60px; font-family: BACS"">LNUrJYArG</p>","","","","","","","","",""
"html-keyboard-response","22","78652","0.0-8.0-0.14","5b212164cfbf200001cfb3ad","650c16f0f2faf8d7a0d14c09","651c1c7ed26d51aa04e3b5b2","null","null","<p style=""font-size: 60px; font-family: BACS"">EltMBKEdl</p>","","","","","","","","",""
"html-keyboard-response","23","79663","0.0-8.0-0.15","5b212164cfbf200001cfb3ad","650c16f0f2faf8d7a0d14c09","651c1c7ed26d51aa04e3b5b2","null","null","<p style=""font-size: 60px; font-family: BACS"">kCRmlMck</p>","","","","","","","","",""
"html-keyboard-response","24","80675","0.0-8.0-0.16","5b212164cfbf200001cfb3ad","650c16f0f2faf8d7a0d14c09","651c1c7ed26d51aa04e3b5b2","null","null","<p style=""font-size: 60px; font-family: BACS"">kabJbOJlN</p>","","","","","","","","",""
"html-keyboard-response","25","81688","0.0-8.0-0.17","5b212164cfbf200001cfb3ad","650c16f0f2faf8d7a0d14c09","651c1c7ed26d51aa04e3b5b2","null","null","<p style=""font-size: 60px; font-family: BACS"">ZcGdNQGb</p>","","","","","","","","",""
"html-keyboard-response","26","82690","0.0-8.0-0.18","5b212164cfbf200001cfb3ad","650c16f0f2faf8d7a0d14c09","651c1c7ed26d51aa04e3b5b2","null","null","<p style=""font-size: 60px; font-family: BACS"">QcladOJlN</p>","","","","","","","","",""
"html-keyboard-response","27","83698","0.0-8.0-0.19","5b212164cfbf200001cfb3ad","650c16f0f2faf8d7a0d14c09","651c1c7ed26d51aa04e3b5b2","null","null","<p style=""font-size: 60px; font-family: BACS"">NkUAOJNk</p>","","","","","","","","",""
"html-keyboard-response","28","84709","0.0-8.0-0.20","5b212164cfbf200001cfb3ad","650c16f0f2faf8d7a0d14c09","651c1c7ed26d51aa04e3b5b2","null","null","<p style=""font-size: 60px; font-family: BACS"">NbmQUQGb</p>","","","","","","","","",""
"html-keyboard-response","29","85718","0.0-8.0-0.21","5b212164cfbf200001cfb3ad","650c16f0f2faf8d7a0d14c09","651c1c7ed26d51aa04e3b5b2","null","null","<p style=""font-size: 60px; font-family: BACS"">auYAkOJlN</p>","","","","","","","","",""
"html-keyboard-response","30","86731","0.0-8.0-0.22","5b212164cfbf200001cfb3ad","650c16f0f2faf8d7a0d14c09","651c1c7ed26d51aa04e3b5b2","null","null","<p style=""font-size: 60px; font-family: BACS"">kabJbQGb</p>","","","","","","","","",""
"html-keyboard-response","31","87745","0.0-8.0-0.23","5b212164cfbf200001cfb3ad","650c16f0f2faf8d7a0d14c09","651c1c7ed26d51aa04e3b5b2","null","null","<p style=""font-size: 60px; font-family: BACS"">LNUrJOJNk</p>","","","","","","","","",""
"html-keyboard-response","32","88758","0.0-8.0-0.24","5b212164cfbf200001cfb3ad","650c16f0f2faf8d7a0d14c09","651c1c7ed26d51aa04e3b5b2","null","null","<p style=""font-size: 60px; font-family: BACS"">NbmQUYArG</p>","","","","","","","","",""
"html-keyboard-response","33","89769","0.0-8.0-0.25","5b212164cfbf200001cfb3ad","650c16f0f2faf8d7a0d14c09","651c1c7ed26d51aa04e3b5b2","null","null","<p style=""font-size: 60px; font-family: BACS"">auYAkark</p>","","","","","","","","",""
"html-keyboard-response","34","90777","0.0-8.0-0.26","5b212164cfbf200001cfb3ad","650c16f0f2faf8d7a0d14c09","651c1c7ed26d51aa04e3b5b2","null","null","<p style=""font-size: 60px; font-family: BACS"">YJLcAOJNk</p>","","","","","","","","",""
"html-keyboard-response","35","91791","0.0-8.0-0.27","5b212164cfbf200001cfb3ad","650c16f0f2faf8d7a0d14c09","651c1c7ed26d51aa04e3b5b2","null","null","<p style=""font-size: 60px; font-family: BACS"">DMRPYDE</p>","","","","","","","","",""
"html-keyboard-response","36","92805","0.0-8.0-0.28","5b212164cfbf200001cfb3ad","650c16f0f2faf8d7a0d14c09","651c1c7ed26d51aa04e3b5b2","null","null","<p style=""font-size: 60px; font-family: BACS"">AlNUYArG</p>","","","","","","","","",""
"html-keyboard-response","37","93818","0.0-8.0-0.29","5b212164cfbf200001cfb3ad","650c16f0f2faf8d7a0d14c09","651c1c7ed26d51aa04e3b5b2","null","null","<p style=""font-size: 60px; font-family: BACS"">YJLcAark</p>","","","","","","","","",""
"html-keyboard-response","38","94831","0.0-8.0-0.30","5b212164cfbf200001cfb3ad","650c16f0f2faf8d7a0d14c09","651c1c7ed26d51aa04e3b5b2","null","null","<p style=""font-size: 60px; font-family: BACS"">EtMDMYDE</p>","","","","","","","","",""
"html-keyboard-response","39","95845","0.0-8.0-0.31","5b212164cfbf200001cfb3ad","650c16f0f2faf8d7a0d14c09","651c1c7ed26d51aa04e3b5b2","null","null","<p style=""font-size: 60px; font-family: BACS"">NkUAOJlN</p>","","","","","","","","",""
"html-keyboard-response","40","96861","0.0-8.0-0.32","5b212164cfbf200001cfb3ad","650c16f0f2faf8d7a0d14c09","651c1c7ed26d51aa04e3b5b2","null","null","<p style=""font-size: 60px; font-family: BACS"">kabJbOJNk</p>","","","","","","","","",""
"html-keyboard-response","41","97872","0.0-8.0-0.33","5b212164cfbf200001cfb3ad","650c16f0f2faf8d7a0d14c09","651c1c7ed26d51aa04e3b5b2","null","null","<p style=""font-size: 60px; font-family: BACS"">kCRmYBO</p>","","","","","","","","",""
"html-keyboard-response","42","98874","0.0-8.0-0.34","5b212164cfbf200001cfb3ad","650c16f0f2faf8d7a0d14c09","651c1c7ed26d51aa04e3b5b2","null","null","<p style=""font-size: 60px; font-family: BACS"">cRElDlMck</p>","","","","","","","","",""
"html-keyboard-response","43","99885","0.0-8.0-0.35","5b212164cfbf200001cfb3ad","650c16f0f2faf8d7a0d14c09","651c1c7ed26d51aa04e3b5b2","null","null","<p style=""font-size: 60px; font-family: BACS"">hTDdYDE</p>","","","","","","","","",""
"html-keyboard-response","44","100887","0.0-8.0-0.36","5b212164cfbf200001cfb3ad","650c16f0f2faf8d7a0d14c09","651c1c7ed26d51aa04e3b5b2","null","null","<p style=""font-size: 60px; font-family: BACS"">EltMBOtM</p>","","","","","","","","",""
"html-keyboard-response","45","101889","0.0-8.0-0.37","5b212164cfbf200001cfb3ad","650c16f0f2faf8d7a0d14c09","651c1c7ed26d51aa04e3b5b2","null","null","<p style=""font-size: 60px; font-family: BACS"">NkUAQGb</p>","","","","","","","","",""
"html-keyboard-response","46","102892","0.0-8.0-0.38","5b212164cfbf200001cfb3ad","650c16f0f2faf8d7a0d14c09","651c1c7ed26d51aa04e3b5b2","null","null","<p style=""font-size: 60px; font-family: BACS"">cRElDYDE</p>","","","","","","","","",""
"html-keyboard-response","47","103893","0.0-8.0-0.39","5b212164cfbf200001cfb3ad","650c16f0f2faf8d7a0d14c09","651c1c7ed26d51aa04e3b5b2","null","null","<p style=""font-size: 60px; font-family: BACS"">lbBDEKEdl</p>","","","","","","","","",""
"html-keyboard-response","48","104901","0.0-8.0-0.40","5b212164cfbf200001cfb3ad","650c16f0f2faf8d7a0d14c09","651c1c7ed26d51aa04e3b5b2","null","null","<p style=""font-size: 60px; font-family: BACS"">YJLcAQGb</p>","","","","","","","","",""
"html-keyboard-response","49","105903","0.0-8.0-0.41","5b212164cfbf200001cfb3ad","650c16f0f2faf8d7a0d14c09","651c1c7ed26d51aa04e3b5b2","null","null","<p style=""font-size: 60px; font-family: BACS"">RkmdCKEdl</p>","","","","","","","","",""
"html-keyboard-response","50","106911","0.0-8.0-0.42","5b212164cfbf200001cfb3ad","650c16f0f2faf8d7a0d14c09","651c1c7ed26d51aa04e3b5b2","null","null","<p style=""font-size: 60px; font-family: BACS"">EtMDMYBO</p>","","","","","","","","",""
"html-keyboard-response","51","107925","0.0-8.0-0.43","5b212164cfbf200001cfb3ad","650c16f0f2faf8d7a0d14c09","651c1c7ed26d51aa04e3b5b2","null","null","<p style=""font-size: 60px; font-family: BACS"">AlNUark</p>","","","","","","","","",""
"html-keyboard-response","52","108936","0.0-8.0-0.44","5b212164cfbf200001cfb3ad","650c16f0f2faf8d7a0d14c09","651c1c7ed26d51aa04e3b5b2","null","null","<p style=""font-size: 60px; font-family: BACS"">lbBDEYDE</p>","","","","","","","","",""
"html-keyboard-response","53","109949","0.0-8.0-0.45","5b212164cfbf200001cfb3ad","650c16f0f2faf8d7a0d14c09","651c1c7ed26d51aa04e3b5b2","null","null","<p style=""font-size: 60px; font-family: BACS"">EltMBYBO</p>","","","","","","","","",""
"html-keyboard-response","54","110961","0.0-8.0-0.46","5b212164cfbf200001cfb3ad","650c16f0f2faf8d7a0d14c09","651c1c7ed26d51aa04e3b5b2","null","null","<p style=""font-size: 60px; font-family: BACS"">YJLcAOJlN</p>","","","","","","","","",""
"html-keyboard-response","55","111961","0.0-8.0-0.47","5b212164cfbf200001cfb3ad","650c16f0f2faf8d7a0d14c09","651c1c7ed26d51aa04e3b5b2","null","null","<p style=""font-size: 60px; font-family: BACS"">lbBDEOtM</p>","","","","","","","","",""
"html-keyboard-response","56","112962","0.0-8.0-0.48","5b212164cfbf200001cfb3ad","650c16f0f2faf8d7a0d14c09","651c1c7ed26d51aa04e3b5b2","null","null","<p style=""font-size: 60px; font-family: BACS"">EltMBlMck</p>","","","","","","","","",""
"html-keyboard-response","57","113970","0.0-8.0-0.49","5b212164cfbf200001cfb3ad","650c16f0f2faf8d7a0d14c09","651c1c7ed26d51aa04e3b5b2","null","null","<p style=""font-size: 60px; font-family: BACS"">RkmdCYBO</p>","","","","","","","","",""
"html-keyboard-response","58","114980","0.0-8.0-0.50","5b212164cfbf200001cfb3ad","650c16f0f2faf8d7a0d14c09","651c1c7ed26d51aa04e3b5b2","null","null","<p style=""font-size: 60px; font-family: BACS"">NbmQUOJlN</p>","","","","","","","","",""
"html-keyboard-response","59","115988","0.0-8.0-0.51","5b212164cfbf200001cfb3ad","650c16f0f2faf8d7a0d14c09","651c1c7ed26d51aa04e3b5b2","null","null","<p style=""font-size: 60px; font-family: BACS"">RkmdCYDE</p>","","","","","","","","",""
"html-keyboard-response","60","117002","0.0-8.0-0.52","5b212164cfbf200001cfb3ad","650c16f0f2faf8d7a0d14c09","651c1c7ed26d51aa04e3b5b2","null","null","<p style=""font-size: 60px; font-family: BACS"">lbBDEYBO</p>","","","","","","","","",""
"html-keyboard-response","61","118003","0.0-8.0-0.53","5b212164cfbf200001cfb3ad","650c16f0f2faf8d7a0d14c09","651c1c7ed26d51aa04e3b5b2","null","null","<p style=""font-size: 60px; font-family: BACS"">QcladYArG</p>","","","","","","","","",""
"html-keyboard-response","62","119003","0.0-8.0-0.54","5b212164cfbf200001cfb3ad","650c16f0f2faf8d7a0d14c09","651c1c7ed26d51aa04e3b5b2","null","null","<p style=""font-size: 60px; font-family: BACS"">kPkRAlMck</p>","","","","","","","","",""
"html-keyboard-response","63","120009","0.0-8.0-0.55","5b212164cfbf200001cfb3ad","650c16f0f2faf8d7a0d14c09","651c1c7ed26d51aa04e3b5b2","null","null","<p style=""font-size: 60px; font-family: BACS"">NkUAYArG</p>","","","","","","","","",""
"html-keyboard-response","64","121022","0.0-8.0-0.56","5b212164cfbf200001cfb3ad","650c16f0f2faf8d7a0d14c09","651c1c7ed26d51aa04e3b5b2","null","null","<p style=""font-size: 60px; font-family: BACS"">DMRPOtM</p>","","","","","","","","",""
"html-keyboard-response","65","122033","0.0-8.0-0.57","5b212164cfbf200001cfb3ad","650c16f0f2faf8d7a0d14c09","651c1c7ed26d51aa04e3b5b2","null","null","<p style=""font-size: 60px; font-family: BACS"">LNUrJQGb</p>","","","","","","","","",""
"html-keyboard-response","66","123049","0.0-8.0-0.58","5b212164cfbf200001cfb3ad","650c16f0f2faf8d7a0d14c09","651c1c7ed26d51aa04e3b5b2","null","null","<p style=""font-size: 60px; font-family: BACS"">NbmQUark</p>","","","","","","","","",""
"html-keyboard-response","67","124050","0.0-8.0-0.59","5b212164cfbf200001cfb3ad","650c16f0f2faf8d7a0d14c09","651c1c7ed26d51aa04e3b5b2","null","null","<p style=""font-size: 60px; font-family: BACS"">kCRmKEdl</p>","","","","","","","","",""
"html-keyboard-response","68","125061","0.0-8.0-0.60","5b212164cfbf200001cfb3ad","650c16f0f2faf8d7a0d14c09","651c1c7ed26d51aa04e3b5b2","null","null","<p style=""font-size: 60px; font-family: BACS"">DMRPlMck</p>","","","","","","","","",""
"html-keyboard-response","69","126071","0.0-8.0-0.61","5b212164cfbf200001cfb3ad","650c16f0f2faf8d7a0d14c09","651c1c7ed26d51aa04e3b5b2","null","null","<p style=""font-size: 60px; font-family: BACS"">UdumdOJNk</p>","","","","","","","","",""
"html-keyboard-response","70","127086","0.0-8.0-0.62","5b212164cfbf200001cfb3ad","650c16f0f2faf8d7a0d14c09","651c1c7ed26d51aa04e3b5b2","null","null","<p style=""font-size: 60px; font-family: BACS"">EtMDMlMck</p>","","","","","","","","",""
"html-keyboard-response","71","128087","0.0-8.0-0.63","5b212164cfbf200001cfb3ad","650c16f0f2faf8d7a0d14c09","651c1c7ed26d51aa04e3b5b2","null","null","<p style=""font-size: 60px; font-family: BACS"">hTDdYBO</p>","","","","","","","","",""
"html-keyboard-response","72","129101","0.0-8.0-0.64","5b212164cfbf200001cfb3ad","650c16f0f2faf8d7a0d14c09","651c1c7ed26d51aa04e3b5b2","null","null","<p style=""font-size: 60px; font-family: BACS"">kCRmYDE</p>","","","","","","","","",""
"html-keyboard-response","73","130111","0.0-8.0-0.65","5b212164cfbf200001cfb3ad","650c16f0f2faf8d7a0d14c09","651c1c7ed26d51aa04e3b5b2","null","null","<p style=""font-size: 60px; font-family: BACS"">ZcGdNark</p>","","","","","","","","",""
"html-keyboard-response","74","131112","0.0-8.0-0.66","5b212164cfbf200001cfb3ad","650c16f0f2faf8d7a0d14c09","651c1c7ed26d51aa04e3b5b2","null","null","<p style=""font-size: 60px; font-family: BACS"">kabJbYArG</p>","","","","","","","","",""
"html-keyboard-response","75","132121","0.0-8.0-0.67","5b212164cfbf200001cfb3ad","650c16f0f2faf8d7a0d14c09","651c1c7ed26d51aa04e3b5b2","null","null","<p style=""font-size: 60px; font-family: BACS"">DMRPKEdl</p>","","","","","","","","",""
"html-keyboard-response","76","133131","0.0-8.0-0.68","5b212164cfbf200001cfb3ad","650c16f0f2faf8d7a0d14c09","651c1c7ed26d51aa04e3b5b2","null","null","<p style=""font-size: 60px; font-family: BACS"">AlNUOJlN</p>","","","","","","","","",""
"html-keyboard-response","77","134132","0.0-8.0-0.69","5b212164cfbf200001cfb3ad","650c16f0f2faf8d7a0d14c09","651c1c7ed26d51aa04e3b5b2","null","null","<p style=""font-size: 60px; font-family: BACS"">cRElDYBO</p>","","","","","","","","",""
"html-keyboard-response","78","135144","0.0-8.0-0.70","5b212164cfbf200001cfb3ad","650c16f0f2faf8d7a0d14c09","651c1c7ed26d51aa04e3b5b2","null","null","<p style=""font-size: 60px; font-family: BACS"">htmhCKEdl</p>","","","","","","","","",""
"html-keyboard-response","79","136158","0.0-8.0-0.71","5b212164cfbf200001cfb3ad","650c16f0f2faf8d7a0d14c09","651c1c7ed26d51aa04e3b5b2","null","null","<p style=""font-size: 60px; font-family: BACS"">kPkRAYDE</p>","","","","","","","","",""
"html-keyboard-response","80","137158","0.0-8.0-0.72","5b212164cfbf200001cfb3ad","650c16f0f2faf8d7a0d14c09","651c1c7ed26d51aa04e3b5b2","null","null","<p style=""font-size: 60px; font-family: BACS"">EtMDMKEdl</p>","","","","","","","","",""
"html-keyboard-response","81","138166","0.0-8.0-0.73","5b212164cfbf200001cfb3ad","650c16f0f2faf8d7a0d14c09","651c1c7ed26d51aa04e3b5b2","null","null","<p style=""font-size: 60px; font-family: BACS"">QcladQGb</p>","","","","","","","","",""
"html-keyboard-response","82","139181","0.0-8.0-0.74","5b212164cfbf200001cfb3ad","650c16f0f2faf8d7a0d14c09","651c1c7ed26d51aa04e3b5b2","null","null","<p style=""font-size: 60px; font-family: BACS"">auYAkOJNk</p>","","","","","","","","",""
"html-keyboard-response","83","140195","0.0-8.0-0.75","5b212164cfbf200001cfb3ad","650c16f0f2faf8d7a0d14c09","651c1c7ed26d51aa04e3b5b2","null","null","<p style=""font-size: 60px; font-family: BACS"">htmhCYBO</p>","","","","","","","","",""
"html-keyboard-response","84","141206","0.0-8.0-0.76","5b212164cfbf200001cfb3ad","650c16f0f2faf8d7a0d14c09","651c1c7ed26d51aa04e3b5b2","null","null","<p style=""font-size: 60px; font-family: BACS"">ZcGdNOJNk</p>","","","","","","","","",""
"html-keyboard-response","85","142207","0.0-8.0-0.77","5b212164cfbf200001cfb3ad","650c16f0f2faf8d7a0d14c09","651c1c7ed26d51aa04e3b5b2","null","null","<p style=""font-size: 60px; font-family: BACS"">kPkRAOtM</p>","","","","","","","","",""
"html-keyboard-response","86","143216","0.0-8.0-0.78","5b212164cfbf200001cfb3ad","650c16f0f2faf8d7a0d14c09","651c1c7ed26d51aa04e3b5b2","null","null","<p style=""font-size: 60px; font-family: BACS"">hTDdlMck</p>","","","","","","","","",""
"html-keyboard-response","87","144228","0.0-8.0-0.79","5b212164cfbf200001cfb3ad","650c16f0f2faf8d7a0d14c09","651c1c7ed26d51aa04e3b5b2","null","null","<p style=""font-size: 60px; font-family: BACS"">AlNUOJNk</p>","","","","","","","","",""
"html-keyboard-response","88","144237","0.0-9.0","5b212164cfbf200001cfb3ad","650c16f0f2faf8d7a0d14c09","651c1c7ed26d51aa04e3b5b2","9"," ","<p>Great, you've seen the first block of words. You may now take a short break.</p>
      <p>Press the spacebar when you're ready to continue.</p>","","","","","","","","",""
"html-keyboard-response","89","145244","0.0-10.0-0.0","5b212164cfbf200001cfb3ad","650c16f0f2faf8d7a0d14c09","651c1c7ed26d51aa04e3b5b2","null","null","<p style=""font-size: 60px; font-family: BACS"">UdumdYArG</p>","","","","","","","","",""
"html-keyboard-response","90","146257","0.0-10.0-0.1","5b212164cfbf200001cfb3ad","650c16f0f2faf8d7a0d14c09","651c1c7ed26d51aa04e3b5b2","null","null","<p style=""font-size: 60px; font-family: BACS"">LNUrJQGb</p>","","","","","","","","",""
"html-keyboard-response","91","147272","0.0-10.0-0.2","5b212164cfbf200001cfb3ad","650c16f0f2faf8d7a0d14c09","651c1c7ed26d51aa04e3b5b2","null","null","<p style=""font-size: 60px; font-family: BACS"">htmhCOtM</p>","","","","","","","","",""
"html-keyboard-response","92","148285","0.0-10.0-0.3","5b212164cfbf200001cfb3ad","650c16f0f2faf8d7a0d14c09","651c1c7ed26d51aa04e3b5b2","null","null","<p style=""font-size: 60px; font-family: BACS"">UdumdQGb</p>","","","","","","","","",""
"html-keyboard-response","93","149297","0.0-10.0-0.4","5b212164cfbf200001cfb3ad","650c16f0f2faf8d7a0d14c09","651c1c7ed26d51aa04e3b5b2","null","null","<p style=""font-size: 60px; font-family: BACS"">ZcGdNark</p>","","","","","","","","",""
"html-keyboard-response","94","150297","0.0-10.0-0.5","5b212164cfbf200001cfb3ad","650c16f0f2faf8d7a0d14c09","651c1c7ed26d51aa04e3b5b2","null","null","<p style=""font-size: 60px; font-family: BACS"">YJLcAOJNk</p>","","","","","","","","",""
"html-keyboard-response","95","151305","0.0-10.0-0.6","5b212164cfbf200001cfb3ad","650c16f0f2faf8d7a0d14c09","651c1c7ed26d51aa04e3b5b2","null","null","<p style=""font-size: 60px; font-family: BACS"">RkmdCKEdl</p>","","","","","","","","",""
"html-keyboard-response","96","152306","0.0-10.0-0.7","5b212164cfbf200001cfb3ad","650c16f0f2faf8d7a0d14c09","651c1c7ed26d51aa04e3b5b2","null","null","<p style=""font-size: 60px; font-family: BACS"">kabJbQGb</p>","","","","","","","","",""
"html-keyboard-response","97","153313","0.0-10.0-0.8","5b212164cfbf200001cfb3ad","650c16f0f2faf8d7a0d14c09","651c1c7ed26d51aa04e3b5b2","null","null","<p style=""font-size: 60px; font-family: BACS"">AlNUark</p>","","","","","","","","",""
"html-keyboard-response","98","154315","0.0-10.0-0.9","5b212164cfbf200001cfb3ad","650c16f0f2faf8d7a0d14c09","651c1c7ed26d51aa04e3b5b2","null","null","<p style=""font-size: 60px; font-family: BACS"">YJLcAQGb</p>","","","","","","","","",""
"html-keyboard-response","99","155321","0.0-10.0-0.10","5b212164cfbf200001cfb3ad","650c16f0f2faf8d7a0d14c09","651c1c7ed26d51aa04e3b5b2","null","null","<p style=""font-size: 60px; font-family: BACS"">QcladYArG</p>","","","","","","","","",""
"html-keyboard-response","100","156331","0.0-10.0-0.11","5b212164cfbf200001cfb3ad","650c16f0f2faf8d7a0d14c09","651c1c7ed26d51aa04e3b5b2","null","null","<p style=""font-size: 60px; font-family: BACS"">lbBDEKEdl</p>","","","","","","","","",""
"html-keyboard-response","101","157341","0.0-10.0-0.12","5b212164cfbf200001cfb3ad","650c16f0f2faf8d7a0d14c09","651c1c7ed26d51aa04e3b5b2","null","null","<p style=""font-size: 60px; font-family: BACS"">kCRmlMck</p>","","","","","","","","",""
"html-keyboard-response","102","158355","0.0-10.0-0.13","5b212164cfbf200001cfb3ad","650c16f0f2faf8d7a0d14c09","651c1c7ed26d51aa04e3b5b2","null","null","<p style=""font-size: 60px; font-family: BACS"">NbmQUark</p>","","","","","","","","",""
"html-keyboard-response","103","159363","0.0-10.0-0.14","5b212164cfbf200001cfb3ad","650c16f0f2faf8d7a0d14c09","651c1c7ed26d51aa04e3b5b2","null","null","<p style=""font-size: 60px; font-family: BACS"">ZcGdNQGb</p>","","","","","","","","",""
"html-keyboard-response","104","160377","0.0-10.0-0.15","5b212164cfbf200001cfb3ad","650c16f0f2faf8d7a0d14c09","651c1c7ed26d51aa04e3b5b2","null","null","<p style=""font-size: 60px; font-family: BACS"">htmhCKEdl</p>","","","","","","","","",""
"html-keyboard-response","105","161379","0.0-10.0-0.16","5b212164cfbf200001cfb3ad","650c16f0f2faf8d7a0d14c09","651c1c7ed26d51aa04e3b5b2","null","null","<p style=""font-size: 60px; font-family: BACS"">QcladQGb</p>","","","","","","","","",""
"html-keyboard-response","106","162380","0.0-10.0-0.17","5b212164cfbf200001cfb3ad","650c16f0f2faf8d7a0d14c09","651c1c7ed26d51aa04e3b5b2","null","null","<p style=""font-size: 60px; font-family: BACS"">LNUrJYArG</p>","","","","","","","","",""
"html-keyboard-response","107","163389","0.0-10.0-0.18","5b212164cfbf200001cfb3ad","650c16f0f2faf8d7a0d14c09","651c1c7ed26d51aa04e3b5b2","null","null","<p style=""font-size: 60px; font-family: BACS"">DMRPKEdl</p>","","","","","","","","",""
"html-keyboard-response","108","164394","0.0-10.0-0.19","5b212164cfbf200001cfb3ad","650c16f0f2faf8d7a0d14c09","651c1c7ed26d51aa04e3b5b2","null","null","<p style=""font-size: 60px; font-family: BACS"">cRElDYBO</p>","","","","","","","","",""
"html-keyboard-response","109","165395","0.0-10.0-0.20","5b212164cfbf200001cfb3ad","650c16f0f2faf8d7a0d14c09","651c1c7ed26d51aa04e3b5b2","null","null","<p style=""font-size: 60px; font-family: BACS"">kCRmKEdl</p>","","","","","","","","",""
"html-keyboard-response","110","166412","0.0-10.0-0.21","5b212164cfbf200001cfb3ad","650c16f0f2faf8d7a0d14c09","651c1c7ed26d51aa04e3b5b2","null","null","<p style=""font-size: 60px; font-family: BACS"">hTDdYBO</p>","","","","","","","","",""
"html-keyboard-response","111","167424","0.0-10.0-0.22","5b212164cfbf200001cfb3ad","650c16f0f2faf8d7a0d14c09","651c1c7ed26d51aa04e3b5b2","null","null","<p style=""font-size: 60px; font-family: BACS"">kPkRAOtM</p>","","","","","","","","",""
"html-keyboard-response","112","168439","0.0-10.0-0.23","5b212164cfbf200001cfb3ad","650c16f0f2faf8d7a0d14c09","651c1c7ed26d51aa04e3b5b2","null","null","<p style=""font-size: 60px; font-family: BACS"">lbBDEYBO</p>","","","","","","","","",""
"html-keyboard-response","113","169453","0.0-10.0-0.24","5b212164cfbf200001cfb3ad","650c16f0f2faf8d7a0d14c09","651c1c7ed26d51aa04e3b5b2","null","null","<p style=""font-size: 60px; font-family: BACS"">kPkRAYDE</p>","","","","","","","","",""
"html-keyboard-response","114","170466","0.0-10.0-0.25","5b212164cfbf200001cfb3ad","650c16f0f2faf8d7a0d14c09","651c1c7ed26d51aa04e3b5b2","null","null","<p style=""font-size: 60px; font-family: BACS"">EtMDMKEdl</p>","","","","","","","","",""
"html-keyboard-response","115","171480","0.0-10.0-0.26","5b212164cfbf200001cfb3ad","650c16f0f2faf8d7a0d14c09","651c1c7ed26d51aa04e3b5b2","null","null","<p style=""font-size: 60px; font-family: BACS"">UdumdOJNk</p>","","","","","","","","",""
"html-keyboard-response","116","172491","0.0-10.0-0.27","5b212164cfbf200001cfb3ad","650c16f0f2faf8d7a0d14c09","651c1c7ed26d51aa04e3b5b2","null","null","<p style=""font-size: 60px; font-family: BACS"">Qcladark</p>","","","","","","","","",""
"html-keyboard-response","117","173506","0.0-10.0-0.28","5b212164cfbf200001cfb3ad","650c16f0f2faf8d7a0d14c09","651c1c7ed26d51aa04e3b5b2","null","null","<p style=""font-size: 60px; font-family: BACS"">AlNUOJlN</p>","","","","","","","","",""
"html-keyboard-response","118","174517","0.0-10.0-0.29","5b212164cfbf200001cfb3ad","650c16f0f2faf8d7a0d14c09","651c1c7ed26d51aa04e3b5b2","null","null","<p style=""font-size: 60px; font-family: BACS"">EltMBOtM</p>","","","","","","","","",""
"html-keyboard-response","119","175533","0.0-10.0-0.30","5b212164cfbf200001cfb3ad","650c16f0f2faf8d7a0d14c09","651c1c7ed26d51aa04e3b5b2","null","null","<p style=""font-size: 60px; font-family: BACS"">NbmQUYArG</p>","","","","","","","","",""
"html-keyboard-response","120","176548","0.0-10.0-0.31","5b212164cfbf200001cfb3ad","650c16f0f2faf8d7a0d14c09","651c1c7ed26d51aa04e3b5b2","null","null","<p style=""font-size: 60px; font-family: BACS"">LNUrJark</p>","","","","","","","","",""
"html-keyboard-response","121","177559","0.0-10.0-0.32","5b212164cfbf200001cfb3ad","650c16f0f2faf8d7a0d14c09","651c1c7ed26d51aa04e3b5b2","null","null","<p style=""font-size: 60px; font-family: BACS"">kabJbYArG</p>","","","","","","","","",""
"html-keyboard-response","122","178574","0.0-10.0-0.33","5b212164cfbf200001cfb3ad","650c16f0f2faf8d7a0d14c09","651c1c7ed26d51aa04e3b5b2","null","null","<p style=""font-size: 60px; font-family: BACS"">NbmQUOJlN</p>","","","","","","","","",""
"html-keyboard-response","123","179585","0.0-10.0-0.34","5b212164cfbf200001cfb3ad","650c16f0f2faf8d7a0d14c09","651c1c7ed26d51aa04e3b5b2","null","null","<p style=""font-size: 60px; font-family: BACS"">kabJbOJNk</p>","","","","","","","","",""
"html-keyboard-response","124","180597","0.0-10.0-0.35","5b212164cfbf200001cfb3ad","650c16f0f2faf8d7a0d14c09","651c1c7ed26d51aa04e3b5b2","null","null","<p style=""font-size: 60px; font-family: BACS"">DMRPOtM</p>","","","","","","","","",""
"html-keyboard-response","125","181610","0.0-10.0-0.36","5b212164cfbf200001cfb3ad","650c16f0f2faf8d7a0d14c09","651c1c7ed26d51aa04e3b5b2","null","null","<p style=""font-size: 60px; font-family: BACS"">EltMBKEdl</p>","","","","","","","","",""
"html-keyboard-response","126","182611","0.0-10.0-0.37","5b212164cfbf200001cfb3ad","650c16f0f2faf8d7a0d14c09","651c1c7ed26d51aa04e3b5b2","null","null","<p style=""font-size: 60px; font-family: BACS"">YJLcAOJlN</p>","","","","","","","","",""
"html-keyboard-response","127","183622","0.0-10.0-0.38","5b212164cfbf200001cfb3ad","650c16f0f2faf8d7a0d14c09","651c1c7ed26d51aa04e3b5b2","null","null","<p style=""font-size: 60px; font-family: BACS"">auYAkYArG</p>","","","","","","","","",""
"html-keyboard-response","128","184638","0.0-10.0-0.39","5b212164cfbf200001cfb3ad","650c16f0f2faf8d7a0d14c09","651c1c7ed26d51aa04e3b5b2","null","null","<p style=""font-size: 60px; font-family: BACS"">NbmQUQGb</p>","","","","","","","","",""
"html-keyboard-response","129","185653","0.0-10.0-0.40","5b212164cfbf200001cfb3ad","650c16f0f2faf8d7a0d14c09","651c1c7ed26d51aa04e3b5b2","null","null","<p style=""font-size: 60px; font-family: BACS"">RkmdCYBO</p>","","","","","","","","",""
"html-keyboard-response","130","186662","0.0-10.0-0.41","5b212164cfbf200001cfb3ad","650c16f0f2faf8d7a0d14c09","651c1c7ed26d51aa04e3b5b2","null","null","<p style=""font-size: 60px; font-family: BACS"">ZcGdNOJNk</p>","","","","","","","","",""
"html-keyboard-response","131","187671","0.0-10.0-0.42","5b212164cfbf200001cfb3ad","650c16f0f2faf8d7a0d14c09","651c1c7ed26d51aa04e3b5b2","null","null","<p style=""font-size: 60px; font-family: BACS"">kabJbOJlN</p>","","","","","","","","",""
"html-keyboard-response","132","188683","0.0-10.0-0.43","5b212164cfbf200001cfb3ad","650c16f0f2faf8d7a0d14c09","651c1c7ed26d51aa04e3b5b2","null","null","<p style=""font-size: 60px; font-family: BACS"">EtMDMlMck</p>","","","","","","","","",""
"html-keyboard-response","133","189698","0.0-10.0-0.44","5b212164cfbf200001cfb3ad","650c16f0f2faf8d7a0d14c09","651c1c7ed26d51aa04e3b5b2","null","null","<p style=""font-size: 60px; font-family: BACS"">QcladOJlN</p>","","","","","","","","",""
"html-keyboard-response","134","190709","0.0-10.0-0.45","5b212164cfbf200001cfb3ad","650c16f0f2faf8d7a0d14c09","651c1c7ed26d51aa04e3b5b2","null","null","<p style=""font-size: 60px; font-family: BACS"">kCRmYDE</p>","","","","","","","","",""
"html-keyboard-response","135","191724","0.0-10.0-0.46","5b212164cfbf200001cfb3ad","650c16f0f2faf8d7a0d14c09","651c1c7ed26d51aa04e3b5b2","null","null","<p style=""font-size: 60px; font-family: BACS"">auYAkOJNk</p>","","","","","","","","",""
"html-keyboard-response","136","192733","0.0-10.0-0.47","5b212164cfbf200001cfb3ad","650c16f0f2faf8d7a0d14c09","651c1c7ed26d51aa04e3b5b2","null","null","<p style=""font-size: 60px; font-family: BACS"">EltMBlMck</p>","","","","","","","","",""
"html-keyboard-response","137","193741","0.0-10.0-0.48","5b212164cfbf200001cfb3ad","650c16f0f2faf8d7a0d14c09","651c1c7ed26d51aa04e3b5b2","null","null","<p style=""font-size: 60px; font-family: BACS"">lbBDEYDE</p>","","","","","","","","",""
"html-keyboard-response","138","194743","0.0-10.0-0.49","5b212164cfbf200001cfb3ad","650c16f0f2faf8d7a0d14c09","651c1c7ed26d51aa04e3b5b2","null","null","<p style=""font-size: 60px; font-family: BACS"">htmhCYBO</p>","","","","","","","","",""
"html-keyboard-response","139","195753","0.0-10.0-0.50","5b212164cfbf200001cfb3ad","650c16f0f2faf8d7a0d14c09","651c1c7ed26d51aa04e3b5b2","null","null","<p style=""font-size: 60px; font-family: BACS"">RkmdCYDE</p>","","","","","","","","",""
"html-keyboard-response","140","196757","0.0-10.0-0.51","5b212164cfbf200001cfb3ad","650c16f0f2faf8d7a0d14c09","651c1c7ed26d51aa04e3b5b2","null","null","<p style=""font-size: 60px; font-family: BACS"">NkUAOJlN</p>","","","","","","","","",""
"html-keyboard-response","141","197770","0.0-10.0-0.52","5b212164cfbf200001cfb3ad","650c16f0f2faf8d7a0d14c09","651c1c7ed26d51aa04e3b5b2","null","null","<p style=""font-size: 60px; font-family: BACS"">htmhClMck</p>","","","","","","","","",""
"html-keyboard-response","142","198771","0.0-10.0-0.53","5b212164cfbf200001cfb3ad","650c16f0f2faf8d7a0d14c09","651c1c7ed26d51aa04e3b5b2","null","null","<p style=""font-size: 60px; font-family: BACS"">NkUAQGb</p>","","","","","","","","",""
"html-keyboard-response","143","199783","0.0-10.0-0.54","5b212164cfbf200001cfb3ad","650c16f0f2faf8d7a0d14c09","651c1c7ed26d51aa04e3b5b2","null","null","<p style=""font-size: 60px; font-family: BACS"">ZcGdNOJlN</p>","","","","","","","","",""
"html-keyboard-response","144","200790","0.0-10.0-0.55","5b212164cfbf200001cfb3ad","650c16f0f2faf8d7a0d14c09","651c1c7ed26d51aa04e3b5b2","null","null","<p style=""font-size: 60px; font-family: BACS"">NkUAOJNk</p>","","","","","","","","",""
"html-keyboard-response","145","201791","0.0-10.0-0.56","5b212164cfbf200001cfb3ad","650c16f0f2faf8d7a0d14c09","651c1c7ed26d51aa04e3b5b2","null","null","<p style=""font-size: 60px; font-family: BACS"">EltMBYBO</p>","","","","","","","","",""
"html-keyboard-response","146","202808","0.0-10.0-0.57","5b212164cfbf200001cfb3ad","650c16f0f2faf8d7a0d14c09","651c1c7ed26d51aa04e3b5b2","null","null","<p style=""font-size: 60px; font-family: BACS"">kPkRAKEdl</p>","","","","","","","","",""
"html-keyboard-response","147","203816","0.0-10.0-0.58","5b212164cfbf200001cfb3ad","650c16f0f2faf8d7a0d14c09","651c1c7ed26d51aa04e3b5b2","null","null","<p style=""font-size: 60px; font-family: BACS"">cRElDOtM</p>","","","","","","","","",""
"html-keyboard-response","148","204817","0.0-10.0-0.59","5b212164cfbf200001cfb3ad","650c16f0f2faf8d7a0d14c09","651c1c7ed26d51aa04e3b5b2","null","null","<p style=""font-size: 60px; font-family: BACS"">auYAkOJlN</p>","","","","","","","","",""
"html-keyboard-response","149","205828","0.0-10.0-0.60","5b212164cfbf200001cfb3ad","650c16f0f2faf8d7a0d14c09","651c1c7ed26d51aa04e3b5b2","null","null","<p style=""font-size: 60px; font-family: BACS"">YJLcAark</p>","","","","","","","","",""
"html-keyboard-response","150","206840","0.0-10.0-0.61","5b212164cfbf200001cfb3ad","650c16f0f2faf8d7a0d14c09","651c1c7ed26d51aa04e3b5b2","null","null","<p style=""font-size: 60px; font-family: BACS"">DMRPYDE</p>","","","","","","","","",""
"html-keyboard-response","151","207855","0.0-10.0-0.62","5b212164cfbf200001cfb3ad","650c16f0f2faf8d7a0d14c09","651c1c7ed26d51aa04e3b5b2","null","null","<p style=""font-size: 60px; font-family: BACS"">hTDdlMck</p>","","","","","","","","",""
"html-keyboard-response","152","208864","0.0-10.0-0.63","5b212164cfbf200001cfb3ad","650c16f0f2faf8d7a0d14c09","651c1c7ed26d51aa04e3b5b2","null","null","<p style=""font-size: 60px; font-family: BACS"">EtMDMYBO</p>","","","","","","","","",""
"html-keyboard-response","153","209866","0.0-10.0-0.64","5b212164cfbf200001cfb3ad","650c16f0f2faf8d7a0d14c09","651c1c7ed26d51aa04e3b5b2","null","null","<p style=""font-size: 60px; font-family: BACS"">hTDdYDE</p>","","","","","","","","",""
"html-keyboard-response","154","210867","0.0-10.0-0.65","5b212164cfbf200001cfb3ad","650c16f0f2faf8d7a0d14c09","651c1c7ed26d51aa04e3b5b2","null","null","<p style=""font-size: 60px; font-family: BACS"">DMRPlMck</p>","","","","","","","","",""
"html-keyboard-response","155","211870","0.0-10.0-0.66","5b212164cfbf200001cfb3ad","650c16f0f2faf8d7a0d14c09","651c1c7ed26d51aa04e3b5b2","null","null","<p style=""font-size: 60px; font-family: BACS"">AlNUYArG</p>","","","","","","","","",""
"html-keyboard-response","156","212881","0.0-10.0-0.67","5b212164cfbf200001cfb3ad","650c16f0f2faf8d7a0d14c09","651c1c7ed26d51aa04e3b5b2","null","null","<p style=""font-size: 60px; font-family: BACS"">cRElDlMck</p>","","","","","","","","",""
"html-keyboard-response","157","213889","0.0-10.0-0.68","5b212164cfbf200001cfb3ad","650c16f0f2faf8d7a0d14c09","651c1c7ed26d51aa04e3b5b2","null","null","<p style=""font-size: 60px; font-family: BACS"">LNUrJOJNk</p>","","","","","","","","",""
"html-keyboard-response","158","214901","0.0-10.0-0.69","5b212164cfbf200001cfb3ad","650c16f0f2faf8d7a0d14c09","651c1c7ed26d51aa04e3b5b2","null","null","<p style=""font-size: 60px; font-family: BACS"">EtMDMYDE</p>","","","","","","","","",""
"html-keyboard-response","159","215903","0.0-10.0-0.70","5b212164cfbf200001cfb3ad","650c16f0f2faf8d7a0d14c09","651c1c7ed26d51aa04e3b5b2","null","null","<p style=""font-size: 60px; font-family: BACS"">kCRmYBO</p>","","","","","","","","",""
"html-keyboard-response","160","216909","0.0-10.0-0.71","5b212164cfbf200001cfb3ad","650c16f0f2faf8d7a0d14c09","651c1c7ed26d51aa04e3b5b2","null","null","<p style=""font-size: 60px; font-family: BACS"">Udumdark</p>","","","","","","","","",""
"html-keyboard-response","161","217923","0.0-10.0-0.72","5b212164cfbf200001cfb3ad","650c16f0f2faf8d7a0d14c09","651c1c7ed26d51aa04e3b5b2","null","null","<p style=""font-size: 60px; font-family: BACS"">NkUAYArG</p>","","","","","","","","",""
"html-keyboard-response","162","218934","0.0-10.0-0.73","5b212164cfbf200001cfb3ad","650c16f0f2faf8d7a0d14c09","651c1c7ed26d51aa04e3b5b2","null","null","<p style=""font-size: 60px; font-family: BACS"">RkmdCOtM</p>","","","","","","","","",""
"html-keyboard-response","163","219949","0.0-10.0-0.74","5b212164cfbf200001cfb3ad","650c16f0f2faf8d7a0d14c09","651c1c7ed26d51aa04e3b5b2","null","null","<p style=""font-size: 60px; font-family: BACS"">AlNUOJNk</p>","","","","","","","","",""
"html-keyboard-response","164","220959","0.0-10.0-0.75","5b212164cfbf200001cfb3ad","650c16f0f2faf8d7a0d14c09","651c1c7ed26d51aa04e3b5b2","null","null","<p style=""font-size: 60px; font-family: BACS"">lbBDEOtM</p>","","","","","","","","",""
"html-keyboard-response","165","221975","0.0-10.0-0.76","5b212164cfbf200001cfb3ad","650c16f0f2faf8d7a0d14c09","651c1c7ed26d51aa04e3b5b2","null","null","<p style=""font-size: 60px; font-family: BACS"">kPkRAlMck</p>","","","","","","","","",""
"html-keyboard-response","166","222989","0.0-10.0-0.77","5b212164cfbf200001cfb3ad","650c16f0f2faf8d7a0d14c09","651c1c7ed26d51aa04e3b5b2","null","null","<p style=""font-size: 60px; font-family: BACS"">cRElDYDE</p>","","","","","","","","",""
"html-keyboard-response","167","224001","0.0-10.0-0.78","5b212164cfbf200001cfb3ad","650c16f0f2faf8d7a0d14c09","651c1c7ed26d51aa04e3b5b2","null","null","<p style=""font-size: 60px; font-family: BACS"">auYAkark</p>","","","","","","","","",""
"html-keyboard-response","168","225015","0.0-10.0-0.79","5b212164cfbf200001cfb3ad","650c16f0f2faf8d7a0d14c09","651c1c7ed26d51aa04e3b5b2","null","null","<p style=""font-size: 60px; font-family: BACS"">hTDdOtM</p>","","","","","","","","",""
"html-keyboard-response","169","242338","0.0-11.0","5b212164cfbf200001cfb3ad","650c16f0f2faf8d7a0d14c09","651c1c7ed26d51aa04e3b5b2","17322"," ","<p>Great, you've seen the second block of words. You may now take a short break.</p>
      <p>Press the spacebar when you're ready to continue.</p>","","","","","","","","",""
"html-keyboard-response","170","243343","0.0-12.0-0.0","5b212164cfbf200001cfb3ad","650c16f0f2faf8d7a0d14c09","651c1c7ed26d51aa04e3b5b2","null","null","<p style=""font-size: 60px; font-family: BACS"">htmhCYBO</p>","","","","","","","","",""
"html-keyboard-response","171","244354","0.0-12.0-0.1","5b212164cfbf200001cfb3ad","650c16f0f2faf8d7a0d14c09","651c1c7ed26d51aa04e3b5b2","null","null","<p style=""font-size: 60px; font-family: BACS"">hTDdlMck</p>","","","","","","","","",""
"html-keyboard-response","172","245368","0.0-12.0-0.2","5b212164cfbf200001cfb3ad","650c16f0f2faf8d7a0d14c09","651c1c7ed26d51aa04e3b5b2","null","null","<p style=""font-size: 60px; font-family: BACS"">AlNUOJNk</p>","","","","","","","","",""
"html-keyboard-response","173","246375","0.0-12.0-0.3","5b212164cfbf200001cfb3ad","650c16f0f2faf8d7a0d14c09","651c1c7ed26d51aa04e3b5b2","null","null","<p style=""font-size: 60px; font-family: BACS"">hTDdOtM</p>","","","","","","","","",""
"html-keyboard-response","174","247384","0.0-12.0-0.4","5b212164cfbf200001cfb3ad","650c16f0f2faf8d7a0d14c09","651c1c7ed26d51aa04e3b5b2","null","null","<p style=""font-size: 60px; font-family: BACS"">Qcladark</p>","","","","","","","","",""
"html-keyboard-response","175","248396","0.0-12.0-0.5","5b212164cfbf200001cfb3ad","650c16f0f2faf8d7a0d14c09","651c1c7ed26d51aa04e3b5b2","null","null","<p style=""font-size: 60px; font-family: BACS"">EltMBlMck</p>","","","","","","","","",""
"html-keyboard-response","176","249396","0.0-12.0-0.6","5b212164cfbf200001cfb3ad","650c16f0f2faf8d7a0d14c09","651c1c7ed26d51aa04e3b5b2","null","null","<p style=""font-size: 60px; font-family: BACS"">RkmdCKEdl</p>","","","","","","","","",""
"html-keyboard-response","177","250407","0.0-12.0-0.7","5b212164cfbf200001cfb3ad","650c16f0f2faf8d7a0d14c09","651c1c7ed26d51aa04e3b5b2","null","null","<p style=""font-size: 60px; font-family: BACS"">LNUrJark</p>","","","","","","","","",""
"html-keyboard-response","178","251417","0.0-12.0-0.8","5b212164cfbf200001cfb3ad","650c16f0f2faf8d7a0d14c09","651c1c7ed26d51aa04e3b5b2","null","null","<p style=""font-size: 60px; font-family: BACS"">kCRmKEdl</p>","","","","","","","","",""
"html-keyboard-response","179","252427","0.0-12.0-0.9","5b212164cfbf200001cfb3ad","650c16f0f2faf8d7a0d14c09","651c1c7ed26d51aa04e3b5b2","null","null","<p style=""font-size: 60px; font-family: BACS"">NbmQUOJlN</p>","","","","","","","","",""
"html-keyboard-response","180","253442","0.0-12.0-0.10","5b212164cfbf200001cfb3ad","650c16f0f2faf8d7a0d14c09","651c1c7ed26d51aa04e3b5b2","null","null","<p style=""font-size: 60px; font-family: BACS"">kPkRAlMck</p>","","","","","","","","",""
"html-keyboard-response","181","254455","0.0-12.0-0.11","5b212164cfbf200001cfb3ad","650c16f0f2faf8d7a0d14c09","651c1c7ed26d51aa04e3b5b2","null","null","<p style=""font-size: 60px; font-family: BACS"">kabJbOJNk</p>","","","","","","","","",""
"html-keyboard-response","182","255456","0.0-12.0-0.12","5b212164cfbf200001cfb3ad","650c16f0f2faf8d7a0d14c09","651c1c7ed26d51aa04e3b5b2","null","null","<p style=""font-size: 60px; font-family: BACS"">AlNUark</p>","","","","","","","","",""
"html-keyboard-response","183","256457","0.0-12.0-0.13","5b212164cfbf200001cfb3ad","650c16f0f2faf8d7a0d14c09","651c1c7ed26d51aa04e3b5b2","null","null","<p style=""font-size: 60px; font-family: BACS"">cRElDOtM</p>","","","","","","","","",""
"html-keyboard-response","184","257458","0.0-12.0-0.14","5b212164cfbf200001cfb3ad","650c16f0f2faf8d7a0d14c09","651c1c7ed26d51aa04e3b5b2","null","null","<p style=""font-size: 60px; font-family: BACS"">lbBDEKEdl</p>","","","","","","","","",""
"html-keyboard-response","185","258473","0.0-12.0-0.15","5b212164cfbf200001cfb3ad","650c16f0f2faf8d7a0d14c09","651c1c7ed26d51aa04e3b5b2","null","null","<p style=""font-size: 60px; font-family: BACS"">QcladOJlN</p>","","","","","","","","",""
"html-keyboard-response","186","259474","0.0-12.0-0.16","5b212164cfbf200001cfb3ad","650c16f0f2faf8d7a0d14c09","651c1c7ed26d51aa04e3b5b2","null","null","<p style=""font-size: 60px; font-family: BACS"">UdumdYArG</p>","","","","","","","","",""
"html-keyboard-response","187","260475","0.0-12.0-0.17","5b212164cfbf200001cfb3ad","650c16f0f2faf8d7a0d14c09","651c1c7ed26d51aa04e3b5b2","null","null","<p style=""font-size: 60px; font-family: BACS"">cRElDYDE</p>","","","","","","","","",""
"html-keyboard-response","188","261484","0.0-12.0-0.18","5b212164cfbf200001cfb3ad","650c16f0f2faf8d7a0d14c09","651c1c7ed26d51aa04e3b5b2","null","null","<p style=""font-size: 60px; font-family: BACS"">EltMBYBO</p>","","","","","","","","",""
"html-keyboard-response","189","262485","0.0-12.0-0.19","5b212164cfbf200001cfb3ad","650c16f0f2faf8d7a0d14c09","651c1c7ed26d51aa04e3b5b2","null","null","<p style=""font-size: 60px; font-family: BACS"">ZcGdNark</p>","","","","","","","","",""
"html-keyboard-response","190","263497","0.0-12.0-0.20","5b212164cfbf200001cfb3ad","650c16f0f2faf8d7a0d14c09","651c1c7ed26d51aa04e3b5b2","null","null","<p style=""font-size: 60px; font-family: BACS"">EtMDMYDE</p>","","","","","","","","",""
"html-keyboard-response","191","264511","0.0-12.0-0.21","5b212164cfbf200001cfb3ad","650c16f0f2faf8d7a0d14c09","651c1c7ed26d51aa04e3b5b2","null","null","<p style=""font-size: 60px; font-family: BACS"">YJLcAOJNk</p>","","","","","","","","",""
"html-keyboard-response","192","265512","0.0-12.0-0.22","5b212164cfbf200001cfb3ad","650c16f0f2faf8d7a0d14c09","651c1c7ed26d51aa04e3b5b2","null","null","<p style=""font-size: 60px; font-family: BACS"">kPkRAOtM</p>","","","","","","","","",""
"html-keyboard-response","193","266516","0.0-12.0-0.23","5b212164cfbf200001cfb3ad","650c16f0f2faf8d7a0d14c09","651c1c7ed26d51aa04e3b5b2","null","null","<p style=""font-size: 60px; font-family: BACS"">NkUAQGb</p>","","","","","","","","",""
"html-keyboard-response","194","267517","0.0-12.0-0.24","5b212164cfbf200001cfb3ad","650c16f0f2faf8d7a0d14c09","651c1c7ed26d51aa04e3b5b2","null","null","<p style=""font-size: 60px; font-family: BACS"">NbmQUark</p>","","","","","","","","",""
"html-keyboard-response","195","268525","0.0-12.0-0.25","5b212164cfbf200001cfb3ad","650c16f0f2faf8d7a0d14c09","651c1c7ed26d51aa04e3b5b2","null","null","<p style=""font-size: 60px; font-family: BACS"">cRElDYBO</p>","","","","","","","","",""
"html-keyboard-response","196","269534","0.0-12.0-0.26","5b212164cfbf200001cfb3ad","650c16f0f2faf8d7a0d14c09","651c1c7ed26d51aa04e3b5b2","null","null","<p style=""font-size: 60px; font-family: BACS"">htmhCKEdl</p>","","","","","","","","",""
"html-keyboard-response","197","270545","0.0-12.0-0.27","5b212164cfbf200001cfb3ad","650c16f0f2faf8d7a0d14c09","651c1c7ed26d51aa04e3b5b2","null","null","<p style=""font-size: 60px; font-family: BACS"">kabJbOJlN</p>","","","","","","","","",""
"html-keyboard-response","198","271558","0.0-12.0-0.28","5b212164cfbf200001cfb3ad","650c16f0f2faf8d7a0d14c09","651c1c7ed26d51aa04e3b5b2","null","null","<p style=""font-size: 60px; font-family: BACS"">EltMBKEdl</p>","","","","","","","","",""
"html-keyboard-response","199","272570","0.0-12.0-0.29","5b212164cfbf200001cfb3ad","650c16f0f2faf8d7a0d14c09","651c1c7ed26d51aa04e3b5b2","null","null","<p style=""font-size: 60px; font-family: BACS"">cRElDlMck</p>","","","","","","","","",""
"html-keyboard-response","200","273571","0.0-12.0-0.30","5b212164cfbf200001cfb3ad","650c16f0f2faf8d7a0d14c09","651c1c7ed26d51aa04e3b5b2","null","null","<p style=""font-size: 60px; font-family: BACS"">RkmdCYDE</p>","","","","","","","","",""
"html-keyboard-response","201","274575","0.0-12.0-0.31","5b212164cfbf200001cfb3ad","650c16f0f2faf8d7a0d14c09","651c1c7ed26d51aa04e3b5b2","null","null","<p style=""font-size: 60px; font-family: BACS"">ZcGdNOJNk</p>","","","","","","","","",""
"html-keyboard-response","202","275588","0.0-12.0-0.32","5b212164cfbf200001cfb3ad","650c16f0f2faf8d7a0d14c09","651c1c7ed26d51aa04e3b5b2","null","null","<p style=""font-size: 60px; font-family: BACS"">EltMBOtM</p>","","","","","","","","",""
"html-keyboard-response","203","276600","0.0-12.0-0.33","5b212164cfbf200001cfb3ad","650c16f0f2faf8d7a0d14c09","651c1c7ed26d51aa04e3b5b2","null","null","<p style=""font-size: 60px; font-family: BACS"">AlNUOJlN</p>","","","","","","","","",""
"html-keyboard-response","204","277612","0.0-12.0-0.34","5b212164cfbf200001cfb3ad","650c16f0f2faf8d7a0d14c09","651c1c7ed26d51aa04e3b5b2","null","null","<p style=""font-size: 60px; font-family: BACS"">ZcGdNQGb</p>","","","","","","","","",""
"html-keyboard-response","205","278613","0.0-12.0-0.35","5b212164cfbf200001cfb3ad","650c16f0f2faf8d7a0d14c09","651c1c7ed26d51aa04e3b5b2","null","null","<p style=""font-size: 60px; font-family: BACS"">YJLcAOJlN</p>","","","","","","","","",""
"html-keyboard-response","206","279624","0.0-12.0-0.36","5b212164cfbf200001cfb3ad","650c16f0f2faf8d7a0d14c09","651c1c7ed26d51aa04e3b5b2","null","null","<p style=""font-size: 60px; font-family: BACS"">UdumdQGb</p>","","","","","","","","",""
"html-keyboard-response","207","280625","0.0-12.0-0.37","5b212164cfbf200001cfb3ad","650c16f0f2faf8d7a0d14c09","651c1c7ed26d51aa04e3b5b2","null","null","<p style=""font-size: 60px; font-family: BACS"">hTDdYDE</p>","","","","","","","","",""
"html-keyboard-response","208","281627","0.0-12.0-0.38","5b212164cfbf200001cfb3ad","650c16f0f2faf8d7a0d14c09","651c1c7ed26d51aa04e3b5b2","null","null","<p style=""font-size: 60px; font-family: BACS"">NkUAOJlN</p>","","","","","","","","",""
"html-keyboard-response","209","282630","0.0-12.0-0.39","5b212164cfbf200001cfb3ad","650c16f0f2faf8d7a0d14c09","651c1c7ed26d51aa04e3b5b2","null","null","<p style=""font-size: 60px; font-family: BACS"">LNUrJYArG</p>","","","","","","","","",""
"html-keyboard-response","210","283632","0.0-12.0-0.40","5b212164cfbf200001cfb3ad","650c16f0f2faf8d7a0d14c09","651c1c7ed26d51aa04e3b5b2","null","null","<p style=""font-size: 60px; font-family: BACS"">UdumdOJNk</p>","","","","","","","","",""
"html-keyboard-response","211","284637","0.0-12.0-0.41","5b212164cfbf200001cfb3ad","650c16f0f2faf8d7a0d14c09","651c1c7ed26d51aa04e3b5b2","null","null","<p style=""font-size: 60px; font-family: BACS"">auYAkYArG</p>","","","","","","","","",""
"html-keyboard-response","212","285647","0.0-12.0-0.42","5b212164cfbf200001cfb3ad","650c16f0f2faf8d7a0d14c09","651c1c7ed26d51aa04e3b5b2","null","null","<p style=""font-size: 60px; font-family: BACS"">NbmQUQGb</p>","","","","","","","","",""
"html-keyboard-response","213","286648","0.0-12.0-0.43","5b212164cfbf200001cfb3ad","650c16f0f2faf8d7a0d14c09","651c1c7ed26d51aa04e3b5b2","null","null","<p style=""font-size: 60px; font-family: BACS"">Udumdark</p>","","","","","","","","",""
"html-keyboard-response","214","287656","0.0-12.0-0.44","5b212164cfbf200001cfb3ad","650c16f0f2faf8d7a0d14c09","651c1c7ed26d51aa04e3b5b2","null","null","<p style=""font-size: 60px; font-family: BACS"">QcladYArG</p>","","","","","","","","",""
"html-keyboard-response","215","288666","0.0-12.0-0.45","5b212164cfbf200001cfb3ad","650c16f0f2faf8d7a0d14c09","651c1c7ed26d51aa04e3b5b2","null","null","<p style=""font-size: 60px; font-family: BACS"">LNUrJQGb</p>","","","","","","","","",""
"html-keyboard-response","216","289667","0.0-12.0-0.46","5b212164cfbf200001cfb3ad","650c16f0f2faf8d7a0d14c09","651c1c7ed26d51aa04e3b5b2","null","null","<p style=""font-size: 60px; font-family: BACS"">kCRmYBO</p>","","","","","","","","",""
"html-keyboard-response","217","290680","0.0-12.0-0.47","5b212164cfbf200001cfb3ad","650c16f0f2faf8d7a0d14c09","651c1c7ed26d51aa04e3b5b2","null","null","<p style=""font-size: 60px; font-family: BACS"">auYAkOJNk</p>","","","","","","","","",""
"html-keyboard-response","218","291692","0.0-12.0-0.48","5b212164cfbf200001cfb3ad","650c16f0f2faf8d7a0d14c09","651c1c7ed26d51aa04e3b5b2","null","null","<p style=""font-size: 60px; font-family: BACS"">lbBDEYDE</p>","","","","","","","","",""
"html-keyboard-response","219","292705","0.0-12.0-0.49","5b212164cfbf200001cfb3ad","650c16f0f2faf8d7a0d14c09","651c1c7ed26d51aa04e3b5b2","null","null","<p style=""font-size: 60px; font-family: BACS"">hTDdYBO</p>","","","","","","","","",""
"html-keyboard-response","220","293706","0.0-12.0-0.50","5b212164cfbf200001cfb3ad","650c16f0f2faf8d7a0d14c09","651c1c7ed26d51aa04e3b5b2","null","null","<p style=""font-size: 60px; font-family: BACS"">YJLcAQGb</p>","","","","","","","","",""
"html-keyboard-response","221","294708","0.0-12.0-0.51","5b212164cfbf200001cfb3ad","650c16f0f2faf8d7a0d14c09","651c1c7ed26d51aa04e3b5b2","null","null","<p style=""font-size: 60px; font-family: BACS"">lbBDEOtM</p>","","","","","","","","",""
"html-keyboard-response","222","295709","0.0-12.0-0.52","5b212164cfbf200001cfb3ad","650c16f0f2faf8d7a0d14c09","651c1c7ed26d51aa04e3b5b2","null","null","<p style=""font-size: 60px; font-family: BACS"">ZcGdNOJlN</p>","","","","","","","","",""
"html-keyboard-response","223","296720","0.0-12.0-0.53","5b212164cfbf200001cfb3ad","650c16f0f2faf8d7a0d14c09","651c1c7ed26d51aa04e3b5b2","null","null","<p style=""font-size: 60px; font-family: BACS"">auYAkark</p>","","","","","","","","",""
"html-keyboard-response","224","297726","0.0-12.0-0.54","5b212164cfbf200001cfb3ad","650c16f0f2faf8d7a0d14c09","651c1c7ed26d51aa04e3b5b2","null","null","<p style=""font-size: 60px; font-family: BACS"">EtMDMKEdl</p>","","","","","","","","",""
"html-keyboard-response","225","298727","0.0-12.0-0.55","5b212164cfbf200001cfb3ad","650c16f0f2faf8d7a0d14c09","651c1c7ed26d51aa04e3b5b2","null","null","<p style=""font-size: 60px; font-family: BACS"">RkmdCYBO</p>","","","","","","","","",""
"html-keyboard-response","226","299734","0.0-12.0-0.56","5b212164cfbf200001cfb3ad","650c16f0f2faf8d7a0d14c09","651c1c7ed26d51aa04e3b5b2","null","null","<p style=""font-size: 60px; font-family: BACS"">auYAkOJlN</p>","","","","","","","","",""
"html-keyboard-response","227","300735","0.0-12.0-0.57","5b212164cfbf200001cfb3ad","650c16f0f2faf8d7a0d14c09","651c1c7ed26d51aa04e3b5b2","null","null","<p style=""font-size: 60px; font-family: BACS"">AlNUYArG</p>","","","","","","","","",""
"html-keyboard-response","228","301736","0.0-12.0-0.58","5b212164cfbf200001cfb3ad","650c16f0f2faf8d7a0d14c09","651c1c7ed26d51aa04e3b5b2","null","null","<p style=""font-size: 60px; font-family: BACS"">EtMDMYBO</p>","","","","","","","","",""
"html-keyboard-response","229","302739","0.0-12.0-0.59","5b212164cfbf200001cfb3ad","650c16f0f2faf8d7a0d14c09","651c1c7ed26d51aa04e3b5b2","null","null","<p style=""font-size: 60px; font-family: BACS"">YJLcAark</p>","","","","","","","","",""
"html-keyboard-response","230","303752","0.0-12.0-0.60","5b212164cfbf200001cfb3ad","650c16f0f2faf8d7a0d14c09","651c1c7ed26d51aa04e3b5b2","null","null","<p style=""font-size: 60px; font-family: BACS"">lbBDEYBO</p>","","","","","","","","",""
"html-keyboard-response","231","304763","0.0-12.0-0.61","5b212164cfbf200001cfb3ad","650c16f0f2faf8d7a0d14c09","651c1c7ed26d51aa04e3b5b2","null","null","<p style=""font-size: 60px; font-family: BACS"">kPkRAYDE</p>","","","","","","","","",""
"html-keyboard-response","232","305778","0.0-12.0-0.62","5b212164cfbf200001cfb3ad","650c16f0f2faf8d7a0d14c09","651c1c7ed26d51aa04e3b5b2","null","null","<p style=""font-size: 60px; font-family: BACS"">RkmdCOtM</p>","","","","","","","","",""
"html-keyboard-response","233","306781","0.0-12.0-0.63","5b212164cfbf200001cfb3ad","650c16f0f2faf8d7a0d14c09","651c1c7ed26d51aa04e3b5b2","null","null","<p style=""font-size: 60px; font-family: BACS"">kCRmlMck</p>","","","","","","","","",""
"html-keyboard-response","234","307793","0.0-12.0-0.64","5b212164cfbf200001cfb3ad","650c16f0f2faf8d7a0d14c09","651c1c7ed26d51aa04e3b5b2","null","null","<p style=""font-size: 60px; font-family: BACS"">kabJbQGb</p>","","","","","","","","",""
"html-keyboard-response","235","308806","0.0-12.0-0.65","5b212164cfbf200001cfb3ad","650c16f0f2faf8d7a0d14c09","651c1c7ed26d51aa04e3b5b2","null","null","<p style=""font-size: 60px; font-family: BACS"">DMRPOtM</p>","","","","","","","","",""
"html-keyboard-response","236","309808","0.0-12.0-0.66","5b212164cfbf200001cfb3ad","650c16f0f2faf8d7a0d14c09","651c1c7ed26d51aa04e3b5b2","null","null","<p style=""font-size: 60px; font-family: BACS"">kabJbYArG</p>","","","","","","","","",""
"html-keyboard-response","237","310809","0.0-12.0-0.67","5b212164cfbf200001cfb3ad","650c16f0f2faf8d7a0d14c09","651c1c7ed26d51aa04e3b5b2","null","null","<p style=""font-size: 60px; font-family: BACS"">QcladQGb</p>","","","","","","","","",""
"html-keyboard-response","238","311816","0.0-12.0-0.68","5b212164cfbf200001cfb3ad","650c16f0f2faf8d7a0d14c09","651c1c7ed26d51aa04e3b5b2","null","null","<p style=""font-size: 60px; font-family: BACS"">EtMDMlMck</p>","","","","","","","","",""
"html-keyboard-response","239","312825","0.0-12.0-0.69","5b212164cfbf200001cfb3ad","650c16f0f2faf8d7a0d14c09","651c1c7ed26d51aa04e3b5b2","null","null","<p style=""font-size: 60px; font-family: BACS"">DMRPYDE</p>","","","","","","","","",""
"html-keyboard-response","240","313841","0.0-12.0-0.70","5b212164cfbf200001cfb3ad","650c16f0f2faf8d7a0d14c09","651c1c7ed26d51aa04e3b5b2","null","null","<p style=""font-size: 60px; font-family: BACS"">NkUAOJNk</p>","","","","","","","","",""
"html-keyboard-response","241","314854","0.0-12.0-0.71","5b212164cfbf200001cfb3ad","650c16f0f2faf8d7a0d14c09","651c1c7ed26d51aa04e3b5b2","null","null","<p style=""font-size: 60px; font-family: BACS"">htmhClMck</p>","","","","","","","","",""
"html-keyboard-response","242","315855","0.0-12.0-0.72","5b212164cfbf200001cfb3ad","650c16f0f2faf8d7a0d14c09","651c1c7ed26d51aa04e3b5b2","null","null","<p style=""font-size: 60px; font-family: BACS"">DMRPKEdl</p>","","","","","","","","",""
"html-keyboard-response","243","316863","0.0-12.0-0.73","5b212164cfbf200001cfb3ad","650c16f0f2faf8d7a0d14c09","651c1c7ed26d51aa04e3b5b2","null","null","<p style=""font-size: 60px; font-family: BACS"">NbmQUYArG</p>","","","","","","","","",""
"html-keyboard-response","244","317873","0.0-12.0-0.74","5b212164cfbf200001cfb3ad","650c16f0f2faf8d7a0d14c09","651c1c7ed26d51aa04e3b5b2","null","null","<p style=""font-size: 60px; font-family: BACS"">DMRPlMck</p>","","","","","","","","",""
"html-keyboard-response","245","318882","0.0-12.0-0.75","5b212164cfbf200001cfb3ad","650c16f0f2faf8d7a0d14c09","651c1c7ed26d51aa04e3b5b2","null","null","<p style=""font-size: 60px; font-family: BACS"">kPkRAKEdl</p>","","","","","","","","",""
"html-keyboard-response","246","319896","0.0-12.0-0.76","5b212164cfbf200001cfb3ad","650c16f0f2faf8d7a0d14c09","651c1c7ed26d51aa04e3b5b2","null","null","<p style=""font-size: 60px; font-family: BACS"">htmhCOtM</p>","","","","","","","","",""
"html-keyboard-response","247","320897","0.0-12.0-0.77","5b212164cfbf200001cfb3ad","650c16f0f2faf8d7a0d14c09","651c1c7ed26d51aa04e3b5b2","null","null","<p style=""font-size: 60px; font-family: BACS"">kCRmYDE</p>","","","","","","","","",""
"html-keyboard-response","248","321898","0.0-12.0-0.78","5b212164cfbf200001cfb3ad","650c16f0f2faf8d7a0d14c09","651c1c7ed26d51aa04e3b5b2","null","null","<p style=""font-size: 60px; font-family: BACS"">NkUAYArG</p>","","","","","","","","",""
"html-keyboard-response","249","322903","0.0-12.0-0.79","5b212164cfbf200001cfb3ad","650c16f0f2faf8d7a0d14c09","651c1c7ed26d51aa04e3b5b2","null","null","<p style=""font-size: 60px; font-family: BACS"">LNUrJOJNk</p>","","","","","","","","",""
"html-keyboard-response","250","341094","0.0-13.0","5b212164cfbf200001cfb3ad","650c16f0f2faf8d7a0d14c09","651c1c7ed26d51aa04e3b5b2","18191"," ","<p>Great, you've seen the third block of words. You may now take a short break.</p>
      <p>Press the spacebar when you're ready to continue.</p>","","","","","","","","",""
"html-keyboard-response","251","342100","0.0-14.0-0.0","5b212164cfbf200001cfb3ad","650c16f0f2faf8d7a0d14c09","651c1c7ed26d51aa04e3b5b2","null","null","<p style=""font-size: 60px; font-family: BACS"">kPkRAYDE</p>","","","","","","","","",""
"html-keyboard-response","252","343112","0.0-14.0-0.1","5b212164cfbf200001cfb3ad","650c16f0f2faf8d7a0d14c09","651c1c7ed26d51aa04e3b5b2","null","null","<p style=""font-size: 60px; font-family: BACS"">QcladQGb</p>","","","","","","","","",""
"html-keyboard-response","253","344126","0.0-14.0-0.2","5b212164cfbf200001cfb3ad","650c16f0f2faf8d7a0d14c09","651c1c7ed26d51aa04e3b5b2","null","null","<p style=""font-size: 60px; font-family: BACS"">ZcGdNOJlN</p>","","","","","","","","",""
"html-keyboard-response","254","345139","0.0-14.0-0.3","5b212164cfbf200001cfb3ad","650c16f0f2faf8d7a0d14c09","651c1c7ed26d51aa04e3b5b2","null","null","<p style=""font-size: 60px; font-family: BACS"">YJLcAQGb</p>","","","","","","","","",""
"html-keyboard-response","255","346153","0.0-14.0-0.4","5b212164cfbf200001cfb3ad","650c16f0f2faf8d7a0d14c09","651c1c7ed26d51aa04e3b5b2","null","null","<p style=""font-size: 60px; font-family: BACS"">RkmdCOtM</p>","","","","","","","","",""
"html-keyboard-response","256","347168","0.0-14.0-0.5","5b212164cfbf200001cfb3ad","650c16f0f2faf8d7a0d14c09","651c1c7ed26d51aa04e3b5b2","null","null","<p style=""font-size: 60px; font-family: BACS"">cRElDYBO</p>","","","","","","","","",""
"html-keyboard-response","257","348179","0.0-14.0-0.6","5b212164cfbf200001cfb3ad","650c16f0f2faf8d7a0d14c09","651c1c7ed26d51aa04e3b5b2","null","null","<p style=""font-size: 60px; font-family: BACS"">NkUAOJNk</p>","","","","","","","","",""
"html-keyboard-response","258","349180","0.0-14.0-0.7","5b212164cfbf200001cfb3ad","650c16f0f2faf8d7a0d14c09","651c1c7ed26d51aa04e3b5b2","null","null","<p style=""font-size: 60px; font-family: BACS"">DMRPlMck</p>","","","","","","","","",""
"html-keyboard-response","259","350192","0.0-14.0-0.8","5b212164cfbf200001cfb3ad","650c16f0f2faf8d7a0d14c09","651c1c7ed26d51aa04e3b5b2","null","null","<p style=""font-size: 60px; font-family: BACS"">RkmdCKEdl</p>","","","","","","","","",""
"html-keyboard-response","260","351202","0.0-14.0-0.9","5b212164cfbf200001cfb3ad","650c16f0f2faf8d7a0d14c09","651c1c7ed26d51aa04e3b5b2","null","null","<p style=""font-size: 60px; font-family: BACS"">LNUrJQGb</p>","","","","","","","","",""
"html-keyboard-response","261","352214","0.0-14.0-0.10","5b212164cfbf200001cfb3ad","650c16f0f2faf8d7a0d14c09","651c1c7ed26d51aa04e3b5b2","null","null","<p style=""font-size: 60px; font-family: BACS"">QcladOJlN</p>","","","","","","","","",""
"html-keyboard-response","262","353216","0.0-14.0-0.11","5b212164cfbf200001cfb3ad","650c16f0f2faf8d7a0d14c09","651c1c7ed26d51aa04e3b5b2","null","null","<p style=""font-size: 60px; font-family: BACS"">lbBDEKEdl</p>","","","","","","","","",""
"html-keyboard-response","263","354217","0.0-14.0-0.12","5b212164cfbf200001cfb3ad","650c16f0f2faf8d7a0d14c09","651c1c7ed26d51aa04e3b5b2","null","null","<p style=""font-size: 60px; font-family: BACS"">AlNUOJNk</p>","","","","","","","","",""
"html-keyboard-response","264","355218","0.0-14.0-0.13","5b212164cfbf200001cfb3ad","650c16f0f2faf8d7a0d14c09","651c1c7ed26d51aa04e3b5b2","null","null","<p style=""font-size: 60px; font-family: BACS"">YJLcAOJlN</p>","","","","","","","","",""
"html-keyboard-response","265","356221","0.0-14.0-0.14","5b212164cfbf200001cfb3ad","650c16f0f2faf8d7a0d14c09","651c1c7ed26d51aa04e3b5b2","null","null","<p style=""font-size: 60px; font-family: BACS"">auYAkYArG</p>","","","","","","","","",""
"html-keyboard-response","266","357235","0.0-14.0-0.15","5b212164cfbf200001cfb3ad","650c16f0f2faf8d7a0d14c09","651c1c7ed26d51aa04e3b5b2","null","null","<p style=""font-size: 60px; font-family: BACS"">kPkRAlMck</p>","","","","","","","","",""
"html-keyboard-response","267","358251","0.0-14.0-0.16","5b212164cfbf200001cfb3ad","650c16f0f2faf8d7a0d14c09","651c1c7ed26d51aa04e3b5b2","null","null","<p style=""font-size: 60px; font-family: BACS"">ZcGdNark</p>","","","","","","","","",""
"html-keyboard-response","268","359265","0.0-14.0-0.17","5b212164cfbf200001cfb3ad","650c16f0f2faf8d7a0d14c09","651c1c7ed26d51aa04e3b5b2","null","null","<p style=""font-size: 60px; font-family: BACS"">auYAkOJNk</p>","","","","","","","","",""
"html-keyboard-response","269","360275","0.0-14.0-0.18","5b212164cfbf200001cfb3ad","650c16f0f2faf8d7a0d14c09","651c1c7ed26d51aa04e3b5b2","null","null","<p style=""font-size: 60px; font-family: BACS"">EtMDMKEdl</p>","","","","","","","","",""
"html-keyboard-response","270","361288","0.0-14.0-0.19","5b212164cfbf200001cfb3ad","650c16f0f2faf8d7a0d14c09","651c1c7ed26d51aa04e3b5b2","null","null","<p style=""font-size: 60px; font-family: BACS"">kCRmlMck</p>","","","","","","","","",""
"html-keyboard-response","271","362303","0.0-14.0-0.20","5b212164cfbf200001cfb3ad","650c16f0f2faf8d7a0d14c09","651c1c7ed26d51aa04e3b5b2","null","null","<p style=""font-size: 60px; font-family: BACS"">EltMBYBO</p>","","","","","","","","",""
"html-keyboard-response","272","363314","0.0-14.0-0.21","5b212164cfbf200001cfb3ad","650c16f0f2faf8d7a0d14c09","651c1c7ed26d51aa04e3b5b2","null","null","<p style=""font-size: 60px; font-family: BACS"">ZcGdNQGb</p>","","","","","","","","",""
"html-keyboard-response","273","364328","0.0-14.0-0.22","5b212164cfbf200001cfb3ad","650c16f0f2faf8d7a0d14c09","651c1c7ed26d51aa04e3b5b2","null","null","<p style=""font-size: 60px; font-family: BACS"">kPkRAOtM</p>","","","","","","","","",""
"html-keyboard-response","274","365342","0.0-14.0-0.23","5b212164cfbf200001cfb3ad","650c16f0f2faf8d7a0d14c09","651c1c7ed26d51aa04e3b5b2","null","null","<p style=""font-size: 60px; font-family: BACS"">kabJbYArG</p>","","","","","","","","",""
"html-keyboard-response","275","366344","0.0-14.0-0.24","5b212164cfbf200001cfb3ad","650c16f0f2faf8d7a0d14c09","651c1c7ed26d51aa04e3b5b2","null","null","<p style=""font-size: 60px; font-family: BACS"">DMRPYDE</p>","","","","","","","","",""
"html-keyboard-response","276","367356","0.0-14.0-0.25","5b212164cfbf200001cfb3ad","650c16f0f2faf8d7a0d14c09","651c1c7ed26d51aa04e3b5b2","null","null","<p style=""font-size: 60px; font-family: BACS"">Qcladark</p>","","","","","","","","",""
"html-keyboard-response","277","368358","0.0-14.0-0.26","5b212164cfbf200001cfb3ad","650c16f0f2faf8d7a0d14c09","651c1c7ed26d51aa04e3b5b2","null","null","<p style=""font-size: 60px; font-family: BACS"">kabJbQGb</p>","","","","","","","","",""
"html-keyboard-response","278","369361","0.0-14.0-0.27","5b212164cfbf200001cfb3ad","650c16f0f2faf8d7a0d14c09","651c1c7ed26d51aa04e3b5b2","null","null","<p style=""font-size: 60px; font-family: BACS"">kCRmYBO</p>","","","","","","","","",""
"html-keyboard-response","279","370374","0.0-14.0-0.28","5b212164cfbf200001cfb3ad","650c16f0f2faf8d7a0d14c09","651c1c7ed26d51aa04e3b5b2","null","null","<p style=""font-size: 60px; font-family: BACS"">YJLcAOJNk</p>","","","","","","","","",""
"html-keyboard-response","280","371375","0.0-14.0-0.29","5b212164cfbf200001cfb3ad","650c16f0f2faf8d7a0d14c09","651c1c7ed26d51aa04e3b5b2","null","null","<p style=""font-size: 60px; font-family: BACS"">kPkRAKEdl</p>","","","","","","","","",""
"html-keyboard-response","281","372388","0.0-14.0-0.30","5b212164cfbf200001cfb3ad","650c16f0f2faf8d7a0d14c09","651c1c7ed26d51aa04e3b5b2","null","null","<p style=""font-size: 60px; font-family: BACS"">cRElDOtM</p>","","","","","","","","",""
"html-keyboard-response","282","373404","0.0-14.0-0.31","5b212164cfbf200001cfb3ad","650c16f0f2faf8d7a0d14c09","651c1c7ed26d51aa04e3b5b2","null","null","<p style=""font-size: 60px; font-family: BACS"">EltMBlMck</p>","","","","","","","","",""
"html-keyboard-response","283","374416","0.0-14.0-0.32","5b212164cfbf200001cfb3ad","650c16f0f2faf8d7a0d14c09","651c1c7ed26d51aa04e3b5b2","null","null","<p style=""font-size: 60px; font-family: BACS"">UdumdQGb</p>","","","","","","","","",""
"html-keyboard-response","284","375425","0.0-14.0-0.33","5b212164cfbf200001cfb3ad","650c16f0f2faf8d7a0d14c09","651c1c7ed26d51aa04e3b5b2","null","null","<p style=""font-size: 60px; font-family: BACS"">hTDdYBO</p>","","","","","","","","",""
"html-keyboard-response","285","376428","0.0-14.0-0.34","5b212164cfbf200001cfb3ad","650c16f0f2faf8d7a0d14c09","651c1c7ed26d51aa04e3b5b2","null","null","<p style=""font-size: 60px; font-family: BACS"">EtMDMlMck</p>","","","","","","","","",""
"html-keyboard-response","286","377443","0.0-14.0-0.35","5b212164cfbf200001cfb3ad","650c16f0f2faf8d7a0d14c09","651c1c7ed26d51aa04e3b5b2","null","null","<p style=""font-size: 60px; font-family: BACS"">kabJbOJNk</p>","","","","","","","","",""
"html-keyboard-response","287","378444","0.0-14.0-0.36","5b212164cfbf200001cfb3ad","650c16f0f2faf8d7a0d14c09","651c1c7ed26d51aa04e3b5b2","null","null","<p style=""font-size: 60px; font-family: BACS"">hTDdlMck</p>","","","","","","","","",""
"html-keyboard-response","288","379446","0.0-14.0-0.37","5b212164cfbf200001cfb3ad","650c16f0f2faf8d7a0d14c09","651c1c7ed26d51aa04e3b5b2","null","null","<p style=""font-size: 60px; font-family: BACS"">lbBDEYBO</p>","","","","","","","","",""
"html-keyboard-response","289","380447","0.0-14.0-0.38","5b212164cfbf200001cfb3ad","650c16f0f2faf8d7a0d14c09","651c1c7ed26d51aa04e3b5b2","null","null","<p style=""font-size: 60px; font-family: BACS"">NkUAQGb</p>","","","","","","","","",""
"html-keyboard-response","290","381455","0.0-14.0-0.39","5b212164cfbf200001cfb3ad","650c16f0f2faf8d7a0d14c09","651c1c7ed26d51aa04e3b5b2","null","null","<p style=""font-size: 60px; font-family: BACS"">AlNUOJlN</p>","","","","","","","","",""
"html-keyboard-response","291","382468","0.0-14.0-0.40","5b212164cfbf200001cfb3ad","650c16f0f2faf8d7a0d14c09","651c1c7ed26d51aa04e3b5b2","null","null","<p style=""font-size: 60px; font-family: BACS"">ZcGdNOJNk</p>","","","","","","","","",""
"html-keyboard-response","292","383470","0.0-14.0-0.41","5b212164cfbf200001cfb3ad","650c16f0f2faf8d7a0d14c09","651c1c7ed26d51aa04e3b5b2","null","null","<p style=""font-size: 60px; font-family: BACS"">NkUAOJlN</p>","","","","","","","","",""
"html-keyboard-response","293","384473","0.0-14.0-0.42","5b212164cfbf200001cfb3ad","650c16f0f2faf8d7a0d14c09","651c1c7ed26d51aa04e3b5b2","null","null","<p style=""font-size: 60px; font-family: BACS"">NbmQUQGb</p>","","","","","","","","",""
"html-keyboard-response","294","385474","0.0-14.0-0.43","5b212164cfbf200001cfb3ad","650c16f0f2faf8d7a0d14c09","651c1c7ed26d51aa04e3b5b2","null","null","<p style=""font-size: 60px; font-family: BACS"">YJLcAark</p>","","","","","","","","",""
"html-keyboard-response","295","386482","0.0-14.0-0.44","5b212164cfbf200001cfb3ad","650c16f0f2faf8d7a0d14c09","651c1c7ed26d51aa04e3b5b2","null","null","<p style=""font-size: 60px; font-family: BACS"">auYAkOJlN</p>","","","","","","","","",""
"html-keyboard-response","296","387483","0.0-14.0-0.45","5b212164cfbf200001cfb3ad","650c16f0f2faf8d7a0d14c09","651c1c7ed26d51aa04e3b5b2","null","null","<p style=""font-size: 60px; font-family: BACS"">cRElDlMck</p>","","","","","","","","",""
"html-keyboard-response","297","388487","0.0-14.0-0.46","5b212164cfbf200001cfb3ad","650c16f0f2faf8d7a0d14c09","651c1c7ed26d51aa04e3b5b2","null","null","<p style=""font-size: 60px; font-family: BACS"">AlNUYArG</p>","","","","","","","","",""
"html-keyboard-response","298","389498","0.0-14.0-0.47","5b212164cfbf200001cfb3ad","650c16f0f2faf8d7a0d14c09","651c1c7ed26d51aa04e3b5b2","null","null","<p style=""font-size: 60px; font-family: BACS"">NbmQUOJlN</p>","","","","","","","","",""
"html-keyboard-response","299","390510","0.0-14.0-0.48","5b212164cfbf200001cfb3ad","650c16f0f2faf8d7a0d14c09","651c1c7ed26d51aa04e3b5b2","null","null","<p style=""font-size: 60px; font-family: BACS"">htmhCKEdl</p>","","","","","","","","",""
"html-keyboard-response","300","391511","0.0-14.0-0.49","5b212164cfbf200001cfb3ad","650c16f0f2faf8d7a0d14c09","651c1c7ed26d51aa04e3b5b2","null","null","<p style=""font-size: 60px; font-family: BACS"">kCRmYDE</p>","","","","","","","","",""
"html-keyboard-response","301","392521","0.0-14.0-0.50","5b212164cfbf200001cfb3ad","650c16f0f2faf8d7a0d14c09","651c1c7ed26d51aa04e3b5b2","null","null","<p style=""font-size: 60px; font-family: BACS"">htmhClMck</p>","","","","","","","","",""
"html-keyboard-response","302","393523","0.0-14.0-0.51","5b212164cfbf200001cfb3ad","650c16f0f2faf8d7a0d14c09","651c1c7ed26d51aa04e3b5b2","null","null","<p style=""font-size: 60px; font-family: BACS"">hTDdOtM</p>","","","","","","","","",""
"html-keyboard-response","303","394533","0.0-14.0-0.52","5b212164cfbf200001cfb3ad","650c16f0f2faf8d7a0d14c09","651c1c7ed26d51aa04e3b5b2","null","null","<p style=""font-size: 60px; font-family: BACS"">DMRPKEdl</p>","","","","","","","","",""
"html-keyboard-response","304","395541","0.0-14.0-0.53","5b212164cfbf200001cfb3ad","650c16f0f2faf8d7a0d14c09","651c1c7ed26d51aa04e3b5b2","null","null","<p style=""font-size: 60px; font-family: BACS"">LNUrJOJNk</p>","","","","","","","","",""
"html-keyboard-response","305","396551","0.0-14.0-0.54","5b212164cfbf200001cfb3ad","650c16f0f2faf8d7a0d14c09","651c1c7ed26d51aa04e3b5b2","null","null","<p style=""font-size: 60px; font-family: BACS"">cRElDYDE</p>","","","","","","","","",""
"html-keyboard-response","306","397566","0.0-14.0-0.55","5b212164cfbf200001cfb3ad","650c16f0f2faf8d7a0d14c09","651c1c7ed26d51aa04e3b5b2","null","null","<p style=""font-size: 60px; font-family: BACS"">htmhCYBO</p>","","","","","","","","",""
"html-keyboard-response","307","398578","0.0-14.0-0.56","5b212164cfbf200001cfb3ad","650c16f0f2faf8d7a0d14c09","651c1c7ed26d51aa04e3b5b2","null","null","<p style=""font-size: 60px; font-family: BACS"">AlNUark</p>","","","","","","","","",""
"html-keyboard-response","308","399590","0.0-14.0-0.57","5b212164cfbf200001cfb3ad","650c16f0f2faf8d7a0d14c09","651c1c7ed26d51aa04e3b5b2","null","null","<p style=""font-size: 60px; font-family: BACS"">DMRPOtM</p>","","","","","","","","",""
"html-keyboard-response","309","400592","0.0-14.0-0.58","5b212164cfbf200001cfb3ad","650c16f0f2faf8d7a0d14c09","651c1c7ed26d51aa04e3b5b2","null","null","<p style=""font-size: 60px; font-family: BACS"">kCRmKEdl</p>","","","","","","","","",""
"html-keyboard-response","310","401599","0.0-14.0-0.59","5b212164cfbf200001cfb3ad","650c16f0f2faf8d7a0d14c09","651c1c7ed26d51aa04e3b5b2","null","null","<p style=""font-size: 60px; font-family: BACS"">LNUrJYArG</p>","","","","","","","","",""
"html-keyboard-response","311","402612","0.0-14.0-0.60","5b212164cfbf200001cfb3ad","650c16f0f2faf8d7a0d14c09","651c1c7ed26d51aa04e3b5b2","null","null","<p style=""font-size: 60px; font-family: BACS"">htmhCOtM</p>","","","","","","","","",""
"html-keyboard-response","312","403625","0.0-14.0-0.61","5b212164cfbf200001cfb3ad","650c16f0f2faf8d7a0d14c09","651c1c7ed26d51aa04e3b5b2","null","null","<p style=""font-size: 60px; font-family: BACS"">UdumdYArG</p>","","","","","","","","",""
"html-keyboard-response","313","404640","0.0-14.0-0.62","5b212164cfbf200001cfb3ad","650c16f0f2faf8d7a0d14c09","651c1c7ed26d51aa04e3b5b2","null","null","<p style=""font-size: 60px; font-family: BACS"">kabJbOJlN</p>","","","","","","","","",""
"html-keyboard-response","314","405654","0.0-14.0-0.63","5b212164cfbf200001cfb3ad","650c16f0f2faf8d7a0d14c09","651c1c7ed26d51aa04e3b5b2","null","null","<p style=""font-size: 60px; font-family: BACS"">hTDdYDE</p>","","","","","","","","",""
"html-keyboard-response","315","406656","0.0-14.0-0.64","5b212164cfbf200001cfb3ad","650c16f0f2faf8d7a0d14c09","651c1c7ed26d51aa04e3b5b2","null","null","<p style=""font-size: 60px; font-family: BACS"">lbBDEOtM</p>","","","","","","","","",""
"html-keyboard-response","316","407657","0.0-14.0-0.65","5b212164cfbf200001cfb3ad","650c16f0f2faf8d7a0d14c09","651c1c7ed26d51aa04e3b5b2","null","null","<p style=""font-size: 60px; font-family: BACS"">EtMDMYBO</p>","","","","","","","","",""
"html-keyboard-response","317","408657","0.0-14.0-0.66","5b212164cfbf200001cfb3ad","650c16f0f2faf8d7a0d14c09","651c1c7ed26d51aa04e3b5b2","null","null","<p style=""font-size: 60px; font-family: BACS"">UdumdOJNk</p>","","","","","","","","",""
"html-keyboard-response","318","409658","0.0-14.0-0.67","5b212164cfbf200001cfb3ad","650c16f0f2faf8d7a0d14c09","651c1c7ed26d51aa04e3b5b2","null","null","<p style=""font-size: 60px; font-family: BACS"">auYAkark</p>","","","","","","","","",""
"html-keyboard-response","319","410660","0.0-14.0-0.68","5b212164cfbf200001cfb3ad","650c16f0f2faf8d7a0d14c09","651c1c7ed26d51aa04e3b5b2","null","null","<p style=""font-size: 60px; font-family: BACS"">EtMDMYDE</p>","","","","","","","","",""
"html-keyboard-response","320","411661","0.0-14.0-0.69","5b212164cfbf200001cfb3ad","650c16f0f2faf8d7a0d14c09","651c1c7ed26d51aa04e3b5b2","null","null","<p style=""font-size: 60px; font-family: BACS"">QcladYArG</p>","","","","","","","","",""
"html-keyboard-response","321","412667","0.0-14.0-0.70","5b212164cfbf200001cfb3ad","650c16f0f2faf8d7a0d14c09","651c1c7ed26d51aa04e3b5b2","null","null","<p style=""font-size: 60px; font-family: BACS"">RkmdCYDE</p>","","","","","","","","",""
"html-keyboard-response","322","413677","0.0-14.0-0.71","5b212164cfbf200001cfb3ad","650c16f0f2faf8d7a0d14c09","651c1c7ed26d51aa04e3b5b2","null","null","<p style=""font-size: 60px; font-family: BACS"">NbmQUYArG</p>","","","","","","","","",""
"html-keyboard-response","323","414688","0.0-14.0-0.72","5b212164cfbf200001cfb3ad","650c16f0f2faf8d7a0d14c09","651c1c7ed26d51aa04e3b5b2","null","null","<p style=""font-size: 60px; font-family: BACS"">lbBDEYDE</p>","","","","","","","","",""
"html-keyboard-response","324","415698","0.0-14.0-0.73","5b212164cfbf200001cfb3ad","650c16f0f2faf8d7a0d14c09","651c1c7ed26d51aa04e3b5b2","null","null","<p style=""font-size: 60px; font-family: BACS"">EltMBKEdl</p>","","","","","","","","",""
"html-keyboard-response","325","416713","0.0-14.0-0.74","5b212164cfbf200001cfb3ad","650c16f0f2faf8d7a0d14c09","651c1c7ed26d51aa04e3b5b2","null","null","<p style=""font-size: 60px; font-family: BACS"">NbmQUark</p>","","","","","","","","",""
"html-keyboard-response","326","417728","0.0-14.0-0.75","5b212164cfbf200001cfb3ad","650c16f0f2faf8d7a0d14c09","651c1c7ed26d51aa04e3b5b2","null","null","<p style=""font-size: 60px; font-family: BACS"">NkUAYArG</p>","","","","","","","","",""
"html-keyboard-response","327","418738","0.0-14.0-0.76","5b212164cfbf200001cfb3ad","650c16f0f2faf8d7a0d14c09","651c1c7ed26d51aa04e3b5b2","null","null","<p style=""font-size: 60px; font-family: BACS"">EltMBOtM</p>","","","","","","","","",""
"html-keyboard-response","328","419744","0.0-14.0-0.77","5b212164cfbf200001cfb3ad","650c16f0f2faf8d7a0d14c09","651c1c7ed26d51aa04e3b5b2","null","null","<p style=""font-size: 60px; font-family: BACS"">LNUrJark</p>","","","","","","","","",""
"html-keyboard-response","329","420746","0.0-14.0-0.78","5b212164cfbf200001cfb3ad","650c16f0f2faf8d7a0d14c09","651c1c7ed26d51aa04e3b5b2","null","null","<p style=""font-size: 60px; font-family: BACS"">RkmdCYBO</p>","","","","","","","","",""
"html-keyboard-response","330","421751","0.0-14.0-0.79","5b212164cfbf200001cfb3ad","650c16f0f2faf8d7a0d14c09","651c1c7ed26d51aa04e3b5b2","null","null","<p style=""font-size: 60px; font-family: BACS"">Udumdark</p>","","","","","","","","",""
"html-keyboard-response","331","447898","0.0-15.0","5b212164cfbf200001cfb3ad","650c16f0f2faf8d7a0d14c09","651c1c7ed26d51aa04e3b5b2","26147"," ","<p>Great, you've seen the fourth block of words. You may now take a short break.</p>
      <p>Press the spacebar when you're ready to continue.</p>","","","","","","","","",""
"html-keyboard-response","332","448911","0.0-16.0-0.0","5b212164cfbf200001cfb3ad","650c16f0f2faf8d7a0d14c09","651c1c7ed26d51aa04e3b5b2","null","null","<p style=""font-size: 60px; font-family: BACS"">AlNUOJNk</p>","","","","","","","","",""
"html-keyboard-response","333","449926","0.0-16.0-0.1","5b212164cfbf200001cfb3ad","650c16f0f2faf8d7a0d14c09","651c1c7ed26d51aa04e3b5b2","null","null","<p style=""font-size: 60px; font-family: BACS"">AlNUOJNk</p>","","","","","","","","",""
"html-keyboard-response","334","450942","0.0-16.0-0.2","5b212164cfbf200001cfb3ad","650c16f0f2faf8d7a0d14c09","651c1c7ed26d51aa04e3b5b2","null","null","<p style=""font-size: 60px; font-family: BACS"">AlNUOJNk</p>","","","","","","","","",""
"html-keyboard-response","335","451943","0.0-16.0-0.3","5b212164cfbf200001cfb3ad","650c16f0f2faf8d7a0d14c09","651c1c7ed26d51aa04e3b5b2","null","null","<p style=""font-size: 60px; font-family: BACS"">AlNUOJNk</p>","","","","","","","","",""
"html-keyboard-response","336","452945","0.0-16.0-0.4","5b212164cfbf200001cfb3ad","650c16f0f2faf8d7a0d14c09","651c1c7ed26d51aa04e3b5b2","null","null","<p style=""font-size: 60px; font-family: BACS"">AlNUOJNk</p>","","","","","","","","",""
"html-keyboard-response","337","453954","0.0-16.0-0.5","5b212164cfbf200001cfb3ad","650c16f0f2faf8d7a0d14c09","651c1c7ed26d51aa04e3b5b2","null","null","<p style=""font-size: 60px; font-family: BACS"">AlNUOJNk</p>","","","","","","","","",""
"html-keyboard-response","338","454955","0.0-16.0-0.6","5b212164cfbf200001cfb3ad","650c16f0f2faf8d7a0d14c09","651c1c7ed26d51aa04e3b5b2","null","null","<p style=""font-size: 60px; font-family: BACS"">AlNUOJNk</p>","","","","","","","","",""
"html-keyboard-response","339","455964","0.0-16.0-0.7","5b212164cfbf200001cfb3ad","650c16f0f2faf8d7a0d14c09","651c1c7ed26d51aa04e3b5b2","null","null","<p style=""font-size: 60px; font-family: BACS"">AlNUOJNk</p>","","","","","","","","",""
"html-keyboard-response","340","456967","0.0-16.0-0.8","5b212164cfbf200001cfb3ad","650c16f0f2faf8d7a0d14c09","651c1c7ed26d51aa04e3b5b2","null","null","<p style=""font-size: 60px; font-family: BACS"">AlNUOJNk</p>","","","","","","","","",""
"html-keyboard-response","341","457980","0.0-16.0-0.9","5b212164cfbf200001cfb3ad","650c16f0f2faf8d7a0d14c09","651c1c7ed26d51aa04e3b5b2","null","null","<p style=""font-size: 60px; font-family: BACS"">AlNUOJNk</p>","","","","","","","","",""
"html-keyboard-response","342","458981","0.0-16.0-0.10","5b212164cfbf200001cfb3ad","650c16f0f2faf8d7a0d14c09","651c1c7ed26d51aa04e3b5b2","null","null","<p style=""font-size: 60px; font-family: BACS"">AlNUOJNk</p>","","","","","","","","",""
"html-keyboard-response","343","459983","0.0-16.0-0.11","5b212164cfbf200001cfb3ad","650c16f0f2faf8d7a0d14c09","651c1c7ed26d51aa04e3b5b2","null","null","<p style=""font-size: 60px; font-family: BACS"">AlNUOJNk</p>","","","","","","","","",""
"html-keyboard-response","344","460985","0.0-16.0-0.12","5b212164cfbf200001cfb3ad","650c16f0f2faf8d7a0d14c09","651c1c7ed26d51aa04e3b5b2","null","null","<p style=""font-size: 60px; font-family: BACS"">AlNUOJNk</p>","","","","","","","","",""
"html-keyboard-response","345","461997","0.0-16.0-0.13","5b212164cfbf200001cfb3ad","650c16f0f2faf8d7a0d14c09","651c1c7ed26d51aa04e3b5b2","null","null","<p style=""font-size: 60px; font-family: BACS"">AlNUOJNk</p>","","","","","","","","",""
"html-keyboard-response","346","463008","0.0-16.0-0.14","5b212164cfbf200001cfb3ad","650c16f0f2faf8d7a0d14c09","651c1c7ed26d51aa04e3b5b2","null","null","<p style=""font-size: 60px; font-family: BACS"">AlNUOJNk</p>","","","","","","","","",""
"html-keyboard-response","347","464023","0.0-16.0-0.15","5b212164cfbf200001cfb3ad","650c16f0f2faf8d7a0d14c09","651c1c7ed26d51aa04e3b5b2","null","null","<p style=""font-size: 60px; font-family: BACS"">AlNUOJNk</p>","","","","","","","","",""
"html-keyboard-response","348","465033","0.0-16.0-0.16","5b212164cfbf200001cfb3ad","650c16f0f2faf8d7a0d14c09","651c1c7ed26d51aa04e3b5b2","null","null","<p style=""font-size: 60px; font-family: BACS"">AlNUOJNk</p>","","","","","","","","",""
"html-keyboard-response","349","466035","0.0-16.0-0.17","5b212164cfbf200001cfb3ad","650c16f0f2faf8d7a0d14c09","651c1c7ed26d51aa04e3b5b2","null","null","<p style=""font-size: 60px; font-family: BACS"">AlNUOJNk</p>","","","","","","","","",""
"html-keyboard-response","350","467036","0.0-16.0-0.18","5b212164cfbf200001cfb3ad","650c16f0f2faf8d7a0d14c09","651c1c7ed26d51aa04e3b5b2","null","null","<p style=""font-size: 60px; font-family: BACS"">AlNUOJNk</p>","","","","","","","","",""
"html-keyboard-response","351","468037","0.0-16.0-0.19","5b212164cfbf200001cfb3ad","650c16f0f2faf8d7a0d14c09","651c1c7ed26d51aa04e3b5b2","null","null","<p style=""font-size: 60px; font-family: BACS"">AlNUOJNk</p>","","","","","","","","",""
"html-keyboard-response","352","469047","0.0-16.0-0.20","5b212164cfbf200001cfb3ad","650c16f0f2faf8d7a0d14c09","651c1c7ed26d51aa04e3b5b2","null","null","<p style=""font-size: 60px; font-family: BACS"">AlNUOJNk</p>","","","","","","","","",""
"html-keyboard-response","353","470058","0.0-16.0-0.21","5b212164cfbf200001cfb3ad","650c16f0f2faf8d7a0d14c09","651c1c7ed26d51aa04e3b5b2","null","null","<p style=""font-size: 60px; font-family: BACS"">AlNUOJNk</p>","","","","","","","","",""
"html-keyboard-response","354","471073","0.0-16.0-0.22","5b212164cfbf200001cfb3ad","650c16f0f2faf8d7a0d14c09","651c1c7ed26d51aa04e3b5b2","null","null","<p style=""font-size: 60px; font-family: BACS"">AlNUOJNk</p>","","","","","","","","",""
"html-keyboard-response","355","472087","0.0-16.0-0.23","5b212164cfbf200001cfb3ad","650c16f0f2faf8d7a0d14c09","651c1c7ed26d51aa04e3b5b2","null","null","<p style=""font-size: 60px; font-family: BACS"">AlNUOJNk</p>","","","","","","","","",""
"html-keyboard-response","356","473089","0.0-16.0-0.24","5b212164cfbf200001cfb3ad","650c16f0f2faf8d7a0d14c09","651c1c7ed26d51aa04e3b5b2","null","null","<p style=""font-size: 60px; font-family: BACS"">AlNUOJNk</p>","","","","","","","","",""
"html-keyboard-response","357","474090","0.0-16.0-0.25","5b212164cfbf200001cfb3ad","650c16f0f2faf8d7a0d14c09","651c1c7ed26d51aa04e3b5b2","null","null","<p style=""font-size: 60px; font-family: BACS"">AlNUOJNk</p>","","","","","","","","",""
"html-keyboard-response","358","475095","0.0-16.0-0.26","5b212164cfbf200001cfb3ad","650c16f0f2faf8d7a0d14c09","651c1c7ed26d51aa04e3b5b2","null","null","<p style=""font-size: 60px; font-family: BACS"">AlNUOJNk</p>","","","","","","","","",""
"html-keyboard-response","359","476108","0.0-16.0-0.27","5b212164cfbf200001cfb3ad","650c16f0f2faf8d7a0d14c09","651c1c7ed26d51aa04e3b5b2","null","null","<p style=""font-size: 60px; font-family: BACS"">AlNUOJNk</p>","","","","","","","","",""
"html-keyboard-response","360","477109","0.0-16.0-0.28","5b212164cfbf200001cfb3ad","650c16f0f2faf8d7a0d14c09","651c1c7ed26d51aa04e3b5b2","null","null","<p style=""font-size: 60px; font-family: BACS"">AlNUOJNk</p>","","","","","","","","",""
"html-keyboard-response","361","478114","0.0-16.0-0.29","5b212164cfbf200001cfb3ad","650c16f0f2faf8d7a0d14c09","651c1c7ed26d51aa04e3b5b2","null","null","<p style=""font-size: 60px; font-family: BACS"">AlNUOJNk</p>","","","","","","","","",""
"html-keyboard-response","362","479115","0.0-16.0-0.30","5b212164cfbf200001cfb3ad","650c16f0f2faf8d7a0d14c09","651c1c7ed26d51aa04e3b5b2","null","null","<p style=""font-size: 60px; font-family: BACS"">AlNUOJNk</p>","","","","","","","","",""
"html-keyboard-response","363","480124","0.0-16.0-0.31","5b212164cfbf200001cfb3ad","650c16f0f2faf8d7a0d14c09","651c1c7ed26d51aa04e3b5b2","null","null","<p style=""font-size: 60px; font-family: BACS"">AlNUOJNk</p>","","","","","","","","",""
"html-keyboard-response","364","481134","0.0-16.0-0.32","5b212164cfbf200001cfb3ad","650c16f0f2faf8d7a0d14c09","651c1c7ed26d51aa04e3b5b2","null","null","<p style=""font-size: 60px; font-family: BACS"">AlNUOJNk</p>","","","","","","","","",""
"html-keyboard-response","365","482135","0.0-16.0-0.33","5b212164cfbf200001cfb3ad","650c16f0f2faf8d7a0d14c09","651c1c7ed26d51aa04e3b5b2","null","null","<p style=""font-size: 60px; font-family: BACS"">AlNUOJNk</p>","","","","","","","","",""
"html-keyboard-response","366","483136","0.0-16.0-0.34","5b212164cfbf200001cfb3ad","650c16f0f2faf8d7a0d14c09","651c1c7ed26d51aa04e3b5b2","null","null","<p style=""font-size: 60px; font-family: BACS"">AlNUOJNk</p>","","","","","","","","",""
"html-keyboard-response","367","484137","0.0-16.0-0.35","5b212164cfbf200001cfb3ad","650c16f0f2faf8d7a0d14c09","651c1c7ed26d51aa04e3b5b2","null","null","<p style=""font-size: 60px; font-family: BACS"">AlNUOJNk</p>","","","","","","","","",""
"html-keyboard-response","368","485143","0.0-16.0-0.36","5b212164cfbf200001cfb3ad","650c16f0f2faf8d7a0d14c09","651c1c7ed26d51aa04e3b5b2","null","null","<p style=""font-size: 60px; font-family: BACS"">AlNUOJNk</p>","","","","","","","","",""
"html-keyboard-response","369","486156","0.0-16.0-0.37","5b212164cfbf200001cfb3ad","650c16f0f2faf8d7a0d14c09","651c1c7ed26d51aa04e3b5b2","null","null","<p style=""font-size: 60px; font-family: BACS"">AlNUOJNk</p>","","","","","","","","",""
"html-keyboard-response","370","487159","0.0-16.0-0.38","5b212164cfbf200001cfb3ad","650c16f0f2faf8d7a0d14c09","651c1c7ed26d51aa04e3b5b2","null","null","<p style=""font-size: 60px; font-family: BACS"">AlNUOJNk</p>","","","","","","","","",""
"html-keyboard-response","371","488167","0.0-16.0-0.39","5b212164cfbf200001cfb3ad","650c16f0f2faf8d7a0d14c09","651c1c7ed26d51aa04e3b5b2","null","null","<p style=""font-size: 60px; font-family: BACS"">AlNUOJNk</p>","","","","","","","","",""
"html-keyboard-response","372","489168","0.0-16.0-0.40","5b212164cfbf200001cfb3ad","650c16f0f2faf8d7a0d14c09","651c1c7ed26d51aa04e3b5b2","null","null","<p style=""font-size: 60px; font-family: BACS"">AlNUOJNk</p>","","","","","","","","",""
"html-keyboard-response","373","490175","0.0-16.0-0.41","5b212164cfbf200001cfb3ad","650c16f0f2faf8d7a0d14c09","651c1c7ed26d51aa04e3b5b2","null","null","<p style=""font-size: 60px; font-family: BACS"">AlNUOJNk</p>","","","","","","","","",""
"html-keyboard-response","374","491176","0.0-16.0-0.42","5b212164cfbf200001cfb3ad","650c16f0f2faf8d7a0d14c09","651c1c7ed26d51aa04e3b5b2","null","null","<p style=""font-size: 60px; font-family: BACS"">AlNUOJNk</p>","","","","","","","","",""
"html-keyboard-response","375","492177","0.0-16.0-0.43","5b212164cfbf200001cfb3ad","650c16f0f2faf8d7a0d14c09","651c1c7ed26d51aa04e3b5b2","null","null","<p style=""font-size: 60px; font-family: BACS"">AlNUOJNk</p>","","","","","","","","",""
"html-keyboard-response","376","493186","0.0-16.0-0.44","5b212164cfbf200001cfb3ad","650c16f0f2faf8d7a0d14c09","651c1c7ed26d51aa04e3b5b2","null","null","<p style=""font-size: 60px; font-family: BACS"">AlNUOJNk</p>","","","","","","","","",""
"html-keyboard-response","377","494199","0.0-16.0-0.45","5b212164cfbf200001cfb3ad","650c16f0f2faf8d7a0d14c09","651c1c7ed26d51aa04e3b5b2","null","null","<p style=""font-size: 60px; font-family: BACS"">AlNUOJNk</p>","","","","","","","","",""
"html-keyboard-response","378","495201","0.0-16.0-0.46","5b212164cfbf200001cfb3ad","650c16f0f2faf8d7a0d14c09","651c1c7ed26d51aa04e3b5b2","null","null","<p style=""font-size: 60px; font-family: BACS"">AlNUOJNk</p>","","","","","","","","",""
"html-keyboard-response","379","496216","0.0-16.0-0.47","5b212164cfbf200001cfb3ad","650c16f0f2faf8d7a0d14c09","651c1c7ed26d51aa04e3b5b2","null","null","<p style=""font-size: 60px; font-family: BACS"">AlNUOJNk</p>","","","","","","","","",""
"html-keyboard-response","380","497227","0.0-16.0-0.48","5b212164cfbf200001cfb3ad","650c16f0f2faf8d7a0d14c09","651c1c7ed26d51aa04e3b5b2","null","null","<p style=""font-size: 60px; font-family: BACS"">AlNUOJNk</p>","","","","","","","","",""
"html-keyboard-response","381","498240","0.0-16.0-0.49","5b212164cfbf200001cfb3ad","650c16f0f2faf8d7a0d14c09","651c1c7ed26d51aa04e3b5b2","null","null","<p style=""font-size: 60px; font-family: BACS"">AlNUOJNk</p>","","","","","","","","",""
"html-keyboard-response","382","499248","0.0-16.0-0.50","5b212164cfbf200001cfb3ad","650c16f0f2faf8d7a0d14c09","651c1c7ed26d51aa04e3b5b2","null","null","<p style=""font-size: 60px; font-family: BACS"">AlNUOJNk</p>","","","","","","","","",""
"html-keyboard-response","383","500249","0.0-16.0-0.51","5b212164cfbf200001cfb3ad","650c16f0f2faf8d7a0d14c09","651c1c7ed26d51aa04e3b5b2","null","null","<p style=""font-size: 60px; font-family: BACS"">AlNUOJNk</p>","","","","","","","","",""
"html-keyboard-response","384","501259","0.0-16.0-0.52","5b212164cfbf200001cfb3ad","650c16f0f2faf8d7a0d14c09","651c1c7ed26d51aa04e3b5b2","null","null","<p style=""font-size: 60px; font-family: BACS"">AlNUOJNk</p>","","","","","","","","",""
"html-keyboard-response","385","502272","0.0-16.0-0.53","5b212164cfbf200001cfb3ad","650c16f0f2faf8d7a0d14c09","651c1c7ed26d51aa04e3b5b2","null","null","<p style=""font-size: 60px; font-family: BACS"">AlNUOJNk</p>","","","","","","","","",""
"html-keyboard-response","386","503277","0.0-16.0-0.54","5b212164cfbf200001cfb3ad","650c16f0f2faf8d7a0d14c09","651c1c7ed26d51aa04e3b5b2","null","null","<p style=""font-size: 60px; font-family: BACS"">AlNUOJNk</p>","","","","","","","","",""
"html-keyboard-response","387","504279","0.0-16.0-0.55","5b212164cfbf200001cfb3ad","650c16f0f2faf8d7a0d14c09","651c1c7ed26d51aa04e3b5b2","null","null","<p style=""font-size: 60px; font-family: BACS"">AlNUOJNk</p>","","","","","","","","",""
"html-keyboard-response","388","505295","0.0-16.0-0.56","5b212164cfbf200001cfb3ad","650c16f0f2faf8d7a0d14c09","651c1c7ed26d51aa04e3b5b2","null","null","<p style=""font-size: 60px; font-family: BACS"">AlNUOJNk</p>","","","","","","","","",""
"html-keyboard-response","389","506311","0.0-16.0-0.57","5b212164cfbf200001cfb3ad","650c16f0f2faf8d7a0d14c09","651c1c7ed26d51aa04e3b5b2","null","null","<p style=""font-size: 60px; font-family: BACS"">AlNUOJNk</p>","","","","","","","","",""
"html-keyboard-response","390","507319","0.0-16.0-0.58","5b212164cfbf200001cfb3ad","650c16f0f2faf8d7a0d14c09","651c1c7ed26d51aa04e3b5b2","null","null","<p style=""font-size: 60px; font-family: BACS"">AlNUOJNk</p>","","","","","","","","",""
"html-keyboard-response","391","508327","0.0-16.0-0.59","5b212164cfbf200001cfb3ad","650c16f0f2faf8d7a0d14c09","651c1c7ed26d51aa04e3b5b2","null","null","<p style=""font-size: 60px; font-family: BACS"">AlNUOJNk</p>","","","","","","","","",""
"html-keyboard-response","392","509339","0.0-16.0-0.60","5b212164cfbf200001cfb3ad","650c16f0f2faf8d7a0d14c09","651c1c7ed26d51aa04e3b5b2","null","null","<p style=""font-size: 60px; font-family: BACS"">AlNUOJNk</p>","","","","","","","","",""
"html-keyboard-response","393","510339","0.0-16.0-0.61","5b212164cfbf200001cfb3ad","650c16f0f2faf8d7a0d14c09","651c1c7ed26d51aa04e3b5b2","null","null","<p style=""font-size: 60px; font-family: BACS"">AlNUOJNk</p>","","","","","","","","",""
"html-keyboard-response","394","511341","0.0-16.0-0.62","5b212164cfbf200001cfb3ad","650c16f0f2faf8d7a0d14c09","651c1c7ed26d51aa04e3b5b2","null","null","<p style=""font-size: 60px; font-family: BACS"">AlNUOJNk</p>","","","","","","","","",""
"html-keyboard-response","395","512351","0.0-16.0-0.63","5b212164cfbf200001cfb3ad","650c16f0f2faf8d7a0d14c09","651c1c7ed26d51aa04e3b5b2","null","null","<p style=""font-size: 60px; font-family: BACS"">AlNUOJNk</p>","","","","","","","","",""
"html-keyboard-response","396","513366","0.0-16.0-0.64","5b212164cfbf200001cfb3ad","650c16f0f2faf8d7a0d14c09","651c1c7ed26d51aa04e3b5b2","null","null","<p style=""font-size: 60px; font-family: BACS"">AlNUOJNk</p>","","","","","","","","",""
"html-keyboard-response","397","514367","0.0-16.0-0.65","5b212164cfbf200001cfb3ad","650c16f0f2faf8d7a0d14c09","651c1c7ed26d51aa04e3b5b2","null","null","<p style=""font-size: 60px; font-family: BACS"">AlNUOJNk</p>","","","","","","","","",""
"html-keyboard-response","398","515378","0.0-16.0-0.66","5b212164cfbf200001cfb3ad","650c16f0f2faf8d7a0d14c09","651c1c7ed26d51aa04e3b5b2","null","null","<p style=""font-size: 60px; font-family: BACS"">AlNUOJNk</p>","","","","","","","","",""
"html-keyboard-response","399","516391","0.0-16.0-0.67","5b212164cfbf200001cfb3ad","650c16f0f2faf8d7a0d14c09","651c1c7ed26d51aa04e3b5b2","null","null","<p style=""font-size: 60px; font-family: BACS"">AlNUOJNk</p>","","","","","","","","",""
