"trial_type","trial_index","time_elapsed","internal_node_id","subject_id","study_id","session_id","rt","response","stimulus","success","item","task","correct_response","testing_condition","correct","target","confound","name"
"pavlovia","0","15630","0.0-0.0","614c80483d06dcf7ad552679","650c16f0f2faf8d7a0d14c09","651d21e10e2b5ec85594ef21","","","","","","","","","","","",""
"survey-html-form","1","39610","0.0-1.0","614c80483d06dcf7ad552679","650c16f0f2faf8d7a0d14c09","651d21e10e2b5ec85594ef21","23980","{""ID"":""614c80483d06dcf7ad552679""}","","","","","","","","","",""
"html-keyboard-response","2","45721","0.0-2.0","614c80483d06dcf7ad552679","650c16f0f2faf8d7a0d14c09","651d21e10e2b5ec85594ef21","6110"," ","<p style=""font-size: 15px;"">Before beginning, we ask that you read the consent information and confirm your agreement to participate in the experiment.</p>
      <p style=""font-size: 15px;""> We ask that you remember that this is a research project and that your participation is entirely voluntary. You can stop your participation at any time, without needing to provide any explanation. The study we're asking you to participate in aims at examining how readers process written words. You will be engaged in a session of apprximately 20 minutes, followed by a brief questionnaire. You will have the opportunity to take a few breaks during the experiment. You will be paid £4 for your participation, corresponding to a rate of £8/hour. While this experiment looks at cognitive faculties, this experiment doesn't constitute clinical proof of eventual pathologies.</p>
      <p style=""font-size: 15px;"">All of the information collected thanks to yours and others' participation will be held in a secure password-protected server, and will not be shared with anyone not authorised to view it. Your personal information will be kept with an arbitrary participant ID. Thanks to this data anonymity process, any researcher analysing the data won't be able to track the information back to a specific participant. Therefore, this process will make identifying you impossibile, even when results from the study will be published in scientific reviews, presented at congresses, or at any other public forum. More generally, the collected data will be treated in accordance with the laws on privacy and conformity to the Legislative Degree n. 196 ""Code regarding the protection of personal data"" of the 30th of June 2003 and to the European Regulation 2016/670 (General Data Protection Regulation - GDPR). The Data Protection Officer is Avv. Valentina Carollo, who can be contacted at the following email addresses: <a href=""mailto:dpo@sissa.it"">dpo@sissa.it</a> or <a href=""mailto:rpd@sissa.it"">rpd@sissa.it</a> - PEC: <a href=""mailto:protocollo@pec.sissa.it"">protocollo@pec.sissa.it</a>.</p>
      <p style=""font-size: 15px;""> Before expressing your consent to participate, we would like to remind you again that in case you need explanations on any aspect of the experimental procedure, the researcher is at your disposition (<a href=""mailto:aliebelt@sissa.it"">aliebelt@sissa.it</a>, <a href=""mailto:davide.crepaldi@sissa.it"">davide.crepaldi@sissa.it</a>).</p>
      <p style=""font-size: 15px;"">If you would like to download the informed consent form, you can do so here: <a href=""BASL-Informed_Consent.pdf"" download>informed consent form</a>.</p>
      <p style=""font-size: 15px;"">We ask that you press the spacebar to proceed to the consent section.</p>","","","","","","","","",""
"survey-html-form","3","64245","0.0-3.0","614c80483d06dcf7ad552679","650c16f0f2faf8d7a0d14c09","651d21e10e2b5ec85594ef21","18522","{""consent1"":""YES"",""consent2"":""YES"",""consent3"":""YES"",""consent4"":""YES"",""consent5"":""YES"",""consent6"":""YES""}","","","","","","","","","",""
"fullscreen","4","87314","0.0-4.0","614c80483d06dcf7ad552679","650c16f0f2faf8d7a0d14c09","651d21e10e2b5ec85594ef21","","","","true","","","","","","","",""
"html-keyboard-response","5","91422","0.0-5.0","614c80483d06dcf7ad552679","650c16f0f2faf8d7a0d14c09","651d21e10e2b5ec85594ef21","4107"," ","<p>Welcome, and thank you very much for your time!</p>
      <p>In this experiment, you'll be a language expert who's been asked to take a look at words that Earth has received in its first communication with aliens. Your task, in this first part of the experiment, is to pay close attention to the words you'll be shown; later, world leaders will ask you questions on what you saw. The words will be shown to you quite quickly; it seems that the aliens were in a hurry :-)</p>
      <p>Press the spacebar to continue.<p>","","","","","","","","",""
"html-keyboard-response","6","91480","0.0-6.0","614c80483d06dcf7ad552679","650c16f0f2faf8d7a0d14c09","651d21e10e2b5ec85594ef21","null","null","<p style=""font-size: 120px; font-family: BACS""> </p>","","","","","","","","",""
"html-keyboard-response","7","102743","0.0-7.0","614c80483d06dcf7ad552679","650c16f0f2faf8d7a0d14c09","651d21e10e2b5ec85594ef21","11261"," ","<p>Here is an example of the words you'll see:</p>
      <img src='esempio.png' height='400px'>
      <p>When you're ready to begin, press the spacebar.</p></div>","","","","","","","","",""
"html-keyboard-response","8","103751","0.0-8.0-0.0","614c80483d06dcf7ad552679","650c16f0f2faf8d7a0d14c09","651d21e10e2b5ec85594ef21","null","null","<p style=""font-size: 60px; font-family: BACS"">RlAKcRdCc</p>","","","","","","","","",""
"html-keyboard-response","9","104758","0.0-8.0-0.1","614c80483d06dcf7ad552679","650c16f0f2faf8d7a0d14c09","651d21e10e2b5ec85594ef21","null","null","<p style=""font-size: 60px; font-family: BACS"">dYdATbk</p>","","","","","","","","",""
"html-keyboard-response","10","105762","0.0-8.0-0.2","614c80483d06dcf7ad552679","650c16f0f2faf8d7a0d14c09","651d21e10e2b5ec85594ef21","null","null","<p style=""font-size: 60px; font-family: BACS"">LuaUuUY</p>","","","","","","","","",""
"html-keyboard-response","11","106764","0.0-8.0-0.3","614c80483d06dcf7ad552679","650c16f0f2faf8d7a0d14c09","651d21e10e2b5ec85594ef21","null","null","<p style=""font-size: 60px; font-family: BACS"">RlAKcCMdP</p>","","","","","","","","",""
"html-keyboard-response","12","107777","0.0-8.0-0.4","614c80483d06dcf7ad552679","650c16f0f2faf8d7a0d14c09","651d21e10e2b5ec85594ef21","null","null","<p style=""font-size: 60px; font-family: BACS"">EhRmCPMl</p>","","","","","","","","",""
"html-keyboard-response","13","108789","0.0-8.0-0.5","614c80483d06dcf7ad552679","650c16f0f2faf8d7a0d14c09","651d21e10e2b5ec85594ef21","null","null","<p style=""font-size: 60px; font-family: BACS"">LuaUkdrO</p>","","","","","","","","",""
"html-keyboard-response","14","109792","0.0-8.0-0.6","614c80483d06dcf7ad552679","650c16f0f2faf8d7a0d14c09","651d21e10e2b5ec85594ef21","null","null","<p style=""font-size: 60px; font-family: BACS"">TDKhRdCc</p>","","","","","","","","",""
"html-keyboard-response","15","110803","0.0-8.0-0.7","614c80483d06dcf7ad552679","650c16f0f2faf8d7a0d14c09","651d21e10e2b5ec85594ef21","null","null","<p style=""font-size: 60px; font-family: BACS"">YlYcCPMl</p>","","","","","","","","",""
"html-keyboard-response","16","111818","0.0-8.0-0.8","614c80483d06dcf7ad552679","650c16f0f2faf8d7a0d14c09","651d21e10e2b5ec85594ef21","null","null","<p style=""font-size: 60px; font-family: BACS"">UdumdvJQ</p>","","","","","","","","",""
"html-keyboard-response","17","112834","0.0-8.0-0.9","614c80483d06dcf7ad552679","650c16f0f2faf8d7a0d14c09","651d21e10e2b5ec85594ef21","null","null","<p style=""font-size: 60px; font-family: BACS"">bGuOkam</p>","","","","","","","","",""
"html-keyboard-response","18","113844","0.0-8.0-0.10","614c80483d06dcf7ad552679","650c16f0f2faf8d7a0d14c09","651d21e10e2b5ec85594ef21","null","null","<p style=""font-size: 60px; font-family: BACS"">kcdOtRdCc</p>","","","","","","","","",""
"html-keyboard-response","19","114858","0.0-8.0-0.11","614c80483d06dcf7ad552679","650c16f0f2faf8d7a0d14c09","651d21e10e2b5ec85594ef21","null","null","<p style=""font-size: 60px; font-family: BACS"">UdumdkdrO</p>","","","","","","","","",""
"html-keyboard-response","20","115861","0.0-8.0-0.12","614c80483d06dcf7ad552679","650c16f0f2faf8d7a0d14c09","651d21e10e2b5ec85594ef21","null","null","<p style=""font-size: 60px; font-family: BACS"">dYdACPMl</p>","","","","","","","","",""
"html-keyboard-response","21","116876","0.0-8.0-0.13","614c80483d06dcf7ad552679","650c16f0f2faf8d7a0d14c09","651d21e10e2b5ec85594ef21","null","null","<p style=""font-size: 60px; font-family: BACS"">LOLkUuUY</p>","","","","","","","","",""
"html-keyboard-response","22","117885","0.0-8.0-0.14","614c80483d06dcf7ad552679","650c16f0f2faf8d7a0d14c09","651d21e10e2b5ec85594ef21","null","null","<p style=""font-size: 60px; font-family: BACS"">RlAKcTbk</p>","","","","","","","","",""
"html-keyboard-response","23","118893","0.0-8.0-0.15","614c80483d06dcf7ad552679","650c16f0f2faf8d7a0d14c09","651d21e10e2b5ec85594ef21","null","null","<p style=""font-size: 60px; font-family: BACS"">vYLUkdrO</p>","","","","","","","","",""
"html-keyboard-response","24","119897","0.0-8.0-0.16","614c80483d06dcf7ad552679","650c16f0f2faf8d7a0d14c09","651d21e10e2b5ec85594ef21","null","null","<p style=""font-size: 60px; font-family: BACS"">kcdOtCMdP</p>","","","","","","","","",""
"html-keyboard-response","25","120913","0.0-8.0-0.17","614c80483d06dcf7ad552679","650c16f0f2faf8d7a0d14c09","651d21e10e2b5ec85594ef21","null","null","<p style=""font-size: 60px; font-family: BACS"">McMDTbk</p>","","","","","","","","",""
"html-keyboard-response","26","121921","0.0-8.0-0.18","614c80483d06dcf7ad552679","650c16f0f2faf8d7a0d14c09","651d21e10e2b5ec85594ef21","null","null","<p style=""font-size: 60px; font-family: BACS"">ObOQlkam</p>","","","","","","","","",""
"html-keyboard-response","27","122931","0.0-8.0-0.19","614c80483d06dcf7ad552679","650c16f0f2faf8d7a0d14c09","651d21e10e2b5ec85594ef21","null","null","<p style=""font-size: 60px; font-family: BACS"">mcOJkdrO</p>","","","","","","","","",""
"html-keyboard-response","28","123935","0.0-8.0-0.20","614c80483d06dcf7ad552679","650c16f0f2faf8d7a0d14c09","651d21e10e2b5ec85594ef21","null","null","<p style=""font-size: 60px; font-family: BACS"">RlAKcYTOM</p>","","","","","","","","",""
"html-keyboard-response","29","124948","0.0-8.0-0.21","614c80483d06dcf7ad552679","650c16f0f2faf8d7a0d14c09","651d21e10e2b5ec85594ef21","null","null","<p style=""font-size: 60px; font-family: BACS"">bGuOuUY</p>","","","","","","","","",""
"html-keyboard-response","30","125957","0.0-8.0-0.22","614c80483d06dcf7ad552679","650c16f0f2faf8d7a0d14c09","651d21e10e2b5ec85594ef21","null","null","<p style=""font-size: 60px; font-family: BACS"">YlYcRdCc</p>","","","","","","","","",""
"html-keyboard-response","31","126967","0.0-8.0-0.23","614c80483d06dcf7ad552679","650c16f0f2faf8d7a0d14c09","651d21e10e2b5ec85594ef21","null","null","<p style=""font-size: 60px; font-family: BACS"">mcOJYZJO</p>","","","","","","","","",""
"html-keyboard-response","32","127974","0.0-8.0-0.24","614c80483d06dcf7ad552679","650c16f0f2faf8d7a0d14c09","651d21e10e2b5ec85594ef21","null","null","<p style=""font-size: 60px; font-family: BACS"">EhRmTbk</p>","","","","","","","","",""
"html-keyboard-response","33","128977","0.0-8.0-0.25","614c80483d06dcf7ad552679","650c16f0f2faf8d7a0d14c09","651d21e10e2b5ec85594ef21","null","null","<p style=""font-size: 60px; font-family: BACS"">AJLrkam</p>","","","","","","","","",""
"html-keyboard-response","34","129979","0.0-8.0-0.26","614c80483d06dcf7ad552679","650c16f0f2faf8d7a0d14c09","651d21e10e2b5ec85594ef21","null","null","<p style=""font-size: 60px; font-family: BACS"">BOCRMCPMl</p>","","","","","","","","",""
"html-keyboard-response","35","130984","0.0-8.0-0.27","614c80483d06dcf7ad552679","650c16f0f2faf8d7a0d14c09","651d21e10e2b5ec85594ef21","null","null","<p style=""font-size: 60px; font-family: BACS"">NbacAkam</p>","","","","","","","","",""
"html-keyboard-response","36","131992","0.0-8.0-0.28","614c80483d06dcf7ad552679","650c16f0f2faf8d7a0d14c09","651d21e10e2b5ec85594ef21","null","null","<p style=""font-size: 60px; font-family: BACS"">mcOJuUY</p>","","","","","","","","",""
"html-keyboard-response","37","132996","0.0-8.0-0.29","614c80483d06dcf7ad552679","650c16f0f2faf8d7a0d14c09","651d21e10e2b5ec85594ef21","null","null","<p style=""font-size: 60px; font-family: BACS"">TDKhCMdP</p>","","","","","","","","",""
"html-keyboard-response","38","134007","0.0-8.0-0.30","614c80483d06dcf7ad552679","650c16f0f2faf8d7a0d14c09","651d21e10e2b5ec85594ef21","null","null","<p style=""font-size: 60px; font-family: BACS"">McMDYTOM</p>","","","","","","","","",""
"html-keyboard-response","39","135010","0.0-8.0-0.31","614c80483d06dcf7ad552679","650c16f0f2faf8d7a0d14c09","651d21e10e2b5ec85594ef21","null","null","<p style=""font-size: 60px; font-family: BACS"">vYLUYZJO</p>","","","","","","","","",""
"html-keyboard-response","40","136014","0.0-8.0-0.32","614c80483d06dcf7ad552679","650c16f0f2faf8d7a0d14c09","651d21e10e2b5ec85594ef21","null","null","<p style=""font-size: 60px; font-family: BACS"">TDKhCPMl</p>","","","","","","","","",""
"html-keyboard-response","41","137020","0.0-8.0-0.33","614c80483d06dcf7ad552679","650c16f0f2faf8d7a0d14c09","651d21e10e2b5ec85594ef21","null","null","<p style=""font-size: 60px; font-family: BACS"">EltMBYTOM</p>","","","","","","","","",""
"html-keyboard-response","42","138029","0.0-8.0-0.34","614c80483d06dcf7ad552679","650c16f0f2faf8d7a0d14c09","651d21e10e2b5ec85594ef21","null","null","<p style=""font-size: 60px; font-family: BACS"">ObOQlvJQ</p>","","","","","","","","",""
"html-keyboard-response","43","139033","0.0-8.0-0.35","614c80483d06dcf7ad552679","650c16f0f2faf8d7a0d14c09","651d21e10e2b5ec85594ef21","null","null","<p style=""font-size: 60px; font-family: BACS"">EltMBCPMl</p>","","","","","","","","",""
"html-keyboard-response","44","140044","0.0-8.0-0.36","614c80483d06dcf7ad552679","650c16f0f2faf8d7a0d14c09","651d21e10e2b5ec85594ef21","null","null","<p style=""font-size: 60px; font-family: BACS"">vYLUkam</p>","","","","","","","","",""
"html-keyboard-response","45","141050","0.0-8.0-0.37","614c80483d06dcf7ad552679","650c16f0f2faf8d7a0d14c09","651d21e10e2b5ec85594ef21","null","null","<p style=""font-size: 60px; font-family: BACS"">dYdAYTOM</p>","","","","","","","","",""
"html-keyboard-response","46","142060","0.0-8.0-0.38","614c80483d06dcf7ad552679","650c16f0f2faf8d7a0d14c09","651d21e10e2b5ec85594ef21","null","null","<p style=""font-size: 60px; font-family: BACS"">NbacAYZJO</p>","","","","","","","","",""
"html-keyboard-response","47","143061","0.0-8.0-0.39","614c80483d06dcf7ad552679","650c16f0f2faf8d7a0d14c09","651d21e10e2b5ec85594ef21","null","null","<p style=""font-size: 60px; font-family: BACS"">bGuOvJQ</p>","","","","","","","","",""
"html-keyboard-response","48","144063","0.0-8.0-0.40","614c80483d06dcf7ad552679","650c16f0f2faf8d7a0d14c09","651d21e10e2b5ec85594ef21","null","null","<p style=""font-size: 60px; font-family: BACS"">EhRmCMdP</p>","","","","","","","","",""
"html-keyboard-response","49","145080","0.0-8.0-0.41","614c80483d06dcf7ad552679","650c16f0f2faf8d7a0d14c09","651d21e10e2b5ec85594ef21","null","null","<p style=""font-size: 60px; font-family: BACS"">UdumdYZJO</p>","","","","","","","","",""
"html-keyboard-response","50","146090","0.0-8.0-0.42","614c80483d06dcf7ad552679","650c16f0f2faf8d7a0d14c09","651d21e10e2b5ec85594ef21","null","null","<p style=""font-size: 60px; font-family: BACS"">LuaUvJQ</p>","","","","","","","","",""
"html-keyboard-response","51","147098","0.0-8.0-0.43","614c80483d06dcf7ad552679","650c16f0f2faf8d7a0d14c09","651d21e10e2b5ec85594ef21","null","null","<p style=""font-size: 60px; font-family: BACS"">YlYcTbk</p>","","","","","","","","",""
"html-keyboard-response","52","148108","0.0-8.0-0.44","614c80483d06dcf7ad552679","650c16f0f2faf8d7a0d14c09","651d21e10e2b5ec85594ef21","null","null","<p style=""font-size: 60px; font-family: BACS"">LckGNuUY</p>","","","","","","","","",""
"html-keyboard-response","53","149116","0.0-8.0-0.45","614c80483d06dcf7ad552679","650c16f0f2faf8d7a0d14c09","651d21e10e2b5ec85594ef21","null","null","<p style=""font-size: 60px; font-family: BACS"">EhRmYTOM</p>","","","","","","","","",""
"html-keyboard-response","54","150125","0.0-8.0-0.46","614c80483d06dcf7ad552679","650c16f0f2faf8d7a0d14c09","651d21e10e2b5ec85594ef21","null","null","<p style=""font-size: 60px; font-family: BACS"">kcdOtTbk</p>","","","","","","","","",""
"html-keyboard-response","55","151135","0.0-8.0-0.47","614c80483d06dcf7ad552679","650c16f0f2faf8d7a0d14c09","651d21e10e2b5ec85594ef21","null","null","<p style=""font-size: 60px; font-family: BACS"">AJLrkdrO</p>","","","","","","","","",""
"html-keyboard-response","56","152146","0.0-8.0-0.48","614c80483d06dcf7ad552679","650c16f0f2faf8d7a0d14c09","651d21e10e2b5ec85594ef21","null","null","<p style=""font-size: 60px; font-family: BACS"">EltMBRdCc</p>","","","","","","","","",""
"html-keyboard-response","57","153149","0.0-8.0-0.49","614c80483d06dcf7ad552679","650c16f0f2faf8d7a0d14c09","651d21e10e2b5ec85594ef21","null","null","<p style=""font-size: 60px; font-family: BACS"">LckGNkam</p>","","","","","","","","",""
"html-keyboard-response","58","154155","0.0-8.0-0.50","614c80483d06dcf7ad552679","650c16f0f2faf8d7a0d14c09","651d21e10e2b5ec85594ef21","null","null","<p style=""font-size: 60px; font-family: BACS"">BOCRMTbk</p>","","","","","","","","",""
"html-keyboard-response","59","155166","0.0-8.0-0.51","614c80483d06dcf7ad552679","650c16f0f2faf8d7a0d14c09","651d21e10e2b5ec85594ef21","null","null","<p style=""font-size: 60px; font-family: BACS"">NbacAkdrO</p>","","","","","","","","",""
"html-keyboard-response","60","156169","0.0-8.0-0.52","614c80483d06dcf7ad552679","650c16f0f2faf8d7a0d14c09","651d21e10e2b5ec85594ef21","null","null","<p style=""font-size: 60px; font-family: BACS"">LOLkUvJQ</p>","","","","","","","","",""
"html-keyboard-response","61","157178","0.0-8.0-0.53","614c80483d06dcf7ad552679","650c16f0f2faf8d7a0d14c09","651d21e10e2b5ec85594ef21","null","null","<p style=""font-size: 60px; font-family: BACS"">NbacAuUY</p>","","","","","","","","",""
"html-keyboard-response","62","158182","0.0-8.0-0.54","614c80483d06dcf7ad552679","650c16f0f2faf8d7a0d14c09","651d21e10e2b5ec85594ef21","null","null","<p style=""font-size: 60px; font-family: BACS"">kcdOtYTOM</p>","","","","","","","","",""
"html-keyboard-response","63","159190","0.0-8.0-0.55","614c80483d06dcf7ad552679","650c16f0f2faf8d7a0d14c09","651d21e10e2b5ec85594ef21","null","null","<p style=""font-size: 60px; font-family: BACS"">McMDCPMl</p>","","","","","","","","",""
"html-keyboard-response","64","160200","0.0-8.0-0.56","614c80483d06dcf7ad552679","650c16f0f2faf8d7a0d14c09","651d21e10e2b5ec85594ef21","null","null","<p style=""font-size: 60px; font-family: BACS"">dYdARdCc</p>","","","","","","","","",""
"html-keyboard-response","65","161206","0.0-8.0-0.57","614c80483d06dcf7ad552679","650c16f0f2faf8d7a0d14c09","651d21e10e2b5ec85594ef21","null","null","<p style=""font-size: 60px; font-family: BACS"">LuaUkam</p>","","","","","","","","",""
"html-keyboard-response","66","162212","0.0-8.0-0.58","614c80483d06dcf7ad552679","650c16f0f2faf8d7a0d14c09","651d21e10e2b5ec85594ef21","null","null","<p style=""font-size: 60px; font-family: BACS"">EltMBCMdP</p>","","","","","","","","",""
"html-keyboard-response","67","163221","0.0-8.0-0.59","614c80483d06dcf7ad552679","650c16f0f2faf8d7a0d14c09","651d21e10e2b5ec85594ef21","null","null","<p style=""font-size: 60px; font-family: BACS"">cROMtCPMl</p>","","","","","","","","",""
"html-keyboard-response","68","164225","0.0-8.0-0.60","614c80483d06dcf7ad552679","650c16f0f2faf8d7a0d14c09","651d21e10e2b5ec85594ef21","null","null","<p style=""font-size: 60px; font-family: BACS"">TDKhTbk</p>","","","","","","","","",""
"html-keyboard-response","69","165240","0.0-8.0-0.61","614c80483d06dcf7ad552679","650c16f0f2faf8d7a0d14c09","651d21e10e2b5ec85594ef21","null","null","<p style=""font-size: 60px; font-family: BACS"">cROMtYTOM</p>","","","","","","","","",""
"html-keyboard-response","70","166251","0.0-8.0-0.62","614c80483d06dcf7ad552679","650c16f0f2faf8d7a0d14c09","651d21e10e2b5ec85594ef21","null","null","<p style=""font-size: 60px; font-family: BACS"">LOLkUYZJO</p>","","","","","","","","",""
"html-keyboard-response","71","167257","0.0-8.0-0.63","614c80483d06dcf7ad552679","650c16f0f2faf8d7a0d14c09","651d21e10e2b5ec85594ef21","null","null","<p style=""font-size: 60px; font-family: BACS"">BOCRMYTOM</p>","","","","","","","","",""
"html-keyboard-response","72","168272","0.0-8.0-0.64","614c80483d06dcf7ad552679","650c16f0f2faf8d7a0d14c09","651d21e10e2b5ec85594ef21","null","null","<p style=""font-size: 60px; font-family: BACS"">AJLruUY</p>","","","","","","","","",""
"html-keyboard-response","73","169274","0.0-8.0-0.65","614c80483d06dcf7ad552679","650c16f0f2faf8d7a0d14c09","651d21e10e2b5ec85594ef21","null","null","<p style=""font-size: 60px; font-family: BACS"">LOLkUkam</p>","","","","","","","","",""
"html-keyboard-response","74","170290","0.0-8.0-0.66","614c80483d06dcf7ad552679","650c16f0f2faf8d7a0d14c09","651d21e10e2b5ec85594ef21","null","null","<p style=""font-size: 60px; font-family: BACS"">YlYcCMdP</p>","","","","","","","","",""
"html-keyboard-response","75","171303","0.0-8.0-0.67","614c80483d06dcf7ad552679","650c16f0f2faf8d7a0d14c09","651d21e10e2b5ec85594ef21","null","null","<p style=""font-size: 60px; font-family: BACS"">LckGNYZJO</p>","","","","","","","","",""
"html-keyboard-response","76","172305","0.0-8.0-0.68","614c80483d06dcf7ad552679","650c16f0f2faf8d7a0d14c09","651d21e10e2b5ec85594ef21","null","null","<p style=""font-size: 60px; font-family: BACS"">cROMtCMdP</p>","","","","","","","","",""
"html-keyboard-response","77","173322","0.0-8.0-0.69","614c80483d06dcf7ad552679","650c16f0f2faf8d7a0d14c09","651d21e10e2b5ec85594ef21","null","null","<p style=""font-size: 60px; font-family: BACS"">UdumduUY</p>","","","","","","","","",""
"html-keyboard-response","78","174338","0.0-8.0-0.70","614c80483d06dcf7ad552679","650c16f0f2faf8d7a0d14c09","651d21e10e2b5ec85594ef21","null","null","<p style=""font-size: 60px; font-family: BACS"">ObOQlkdrO</p>","","","","","","","","",""
"html-keyboard-response","79","175347","0.0-8.0-0.71","614c80483d06dcf7ad552679","650c16f0f2faf8d7a0d14c09","651d21e10e2b5ec85594ef21","null","null","<p style=""font-size: 60px; font-family: BACS"">mcOJvJQ</p>","","","","","","","","",""
"html-keyboard-response","80","176362","0.0-8.0-0.72","614c80483d06dcf7ad552679","650c16f0f2faf8d7a0d14c09","651d21e10e2b5ec85594ef21","null","null","<p style=""font-size: 60px; font-family: BACS"">LckGNkdrO</p>","","","","","","","","",""
"html-keyboard-response","81","177365","0.0-8.0-0.73","614c80483d06dcf7ad552679","650c16f0f2faf8d7a0d14c09","651d21e10e2b5ec85594ef21","null","null","<p style=""font-size: 60px; font-family: BACS"">BOCRMRdCc</p>","","","","","","","","",""
"html-keyboard-response","82","178368","0.0-8.0-0.74","614c80483d06dcf7ad552679","650c16f0f2faf8d7a0d14c09","651d21e10e2b5ec85594ef21","null","null","<p style=""font-size: 60px; font-family: BACS"">bGuOYZJO</p>","","","","","","","","",""
"html-keyboard-response","83","179381","0.0-8.0-0.75","614c80483d06dcf7ad552679","650c16f0f2faf8d7a0d14c09","651d21e10e2b5ec85594ef21","null","null","<p style=""font-size: 60px; font-family: BACS"">vYLUvJQ</p>","","","","","","","","",""
"html-keyboard-response","84","180389","0.0-8.0-0.76","614c80483d06dcf7ad552679","650c16f0f2faf8d7a0d14c09","651d21e10e2b5ec85594ef21","null","null","<p style=""font-size: 60px; font-family: BACS"">cROMtRdCc</p>","","","","","","","","",""
"html-keyboard-response","85","181391","0.0-8.0-0.77","614c80483d06dcf7ad552679","650c16f0f2faf8d7a0d14c09","651d21e10e2b5ec85594ef21","null","null","<p style=""font-size: 60px; font-family: BACS"">McMDCMdP</p>","","","","","","","","",""
"html-keyboard-response","86","182404","0.0-8.0-0.78","614c80483d06dcf7ad552679","650c16f0f2faf8d7a0d14c09","651d21e10e2b5ec85594ef21","null","null","<p style=""font-size: 60px; font-family: BACS"">ObOQlYZJO</p>","","","","","","","","",""
"html-keyboard-response","87","183405","0.0-8.0-0.79","614c80483d06dcf7ad552679","650c16f0f2faf8d7a0d14c09","651d21e10e2b5ec85594ef21","null","null","<p style=""font-size: 60px; font-family: BACS"">AJLrvJQ</p>","","","","","","","","",""
"html-keyboard-response","88","245459","0.0-9.0","614c80483d06dcf7ad552679","650c16f0f2faf8d7a0d14c09","651d21e10e2b5ec85594ef21","62053"," ","<p>Great, you've seen the first block of words. You may now take a short break.</p>
      <p>Press the spacebar when you're ready to continue.</p>","","","","","","","","",""
"html-keyboard-response","89","246464","0.0-10.0-0.0","614c80483d06dcf7ad552679","650c16f0f2faf8d7a0d14c09","651d21e10e2b5ec85594ef21","null","null","<p style=""font-size: 60px; font-family: BACS"">kcdOtRdCc</p>","","","","","","","","",""
"html-keyboard-response","90","247473","0.0-10.0-0.1","614c80483d06dcf7ad552679","650c16f0f2faf8d7a0d14c09","651d21e10e2b5ec85594ef21","null","null","<p style=""font-size: 60px; font-family: BACS"">AJLruUY</p>","","","","","","","","",""
"html-keyboard-response","91","248484","0.0-10.0-0.2","614c80483d06dcf7ad552679","650c16f0f2faf8d7a0d14c09","651d21e10e2b5ec85594ef21","null","null","<p style=""font-size: 60px; font-family: BACS"">McMDYTOM</p>","","","","","","","","",""
"html-keyboard-response","92","249494","0.0-10.0-0.3","614c80483d06dcf7ad552679","650c16f0f2faf8d7a0d14c09","651d21e10e2b5ec85594ef21","null","null","<p style=""font-size: 60px; font-family: BACS"">AJLrvJQ</p>","","","","","","","","",""
"html-keyboard-response","93","250511","0.0-10.0-0.4","614c80483d06dcf7ad552679","650c16f0f2faf8d7a0d14c09","651d21e10e2b5ec85594ef21","null","null","<p style=""font-size: 60px; font-family: BACS"">mcOJYZJO</p>","","","","","","","","",""
"html-keyboard-response","94","251529","0.0-10.0-0.5","614c80483d06dcf7ad552679","650c16f0f2faf8d7a0d14c09","651d21e10e2b5ec85594ef21","null","null","<p style=""font-size: 60px; font-family: BACS"">LuaUuUY</p>","","","","","","","","",""
"html-keyboard-response","95","252537","0.0-10.0-0.6","614c80483d06dcf7ad552679","650c16f0f2faf8d7a0d14c09","651d21e10e2b5ec85594ef21","null","null","<p style=""font-size: 60px; font-family: BACS"">dYdATbk</p>","","","","","","","","",""
"html-keyboard-response","96","253552","0.0-10.0-0.7","614c80483d06dcf7ad552679","650c16f0f2faf8d7a0d14c09","651d21e10e2b5ec85594ef21","null","null","<p style=""font-size: 60px; font-family: BACS"">BOCRMCPMl</p>","","","","","","","","",""
"html-keyboard-response","97","254554","0.0-10.0-0.8","614c80483d06dcf7ad552679","650c16f0f2faf8d7a0d14c09","651d21e10e2b5ec85594ef21","null","null","<p style=""font-size: 60px; font-family: BACS"">vYLUvJQ</p>","","","","","","","","",""
"html-keyboard-response","98","255561","0.0-10.0-0.9","614c80483d06dcf7ad552679","650c16f0f2faf8d7a0d14c09","651d21e10e2b5ec85594ef21","null","null","<p style=""font-size: 60px; font-family: BACS"">kcdOtYTOM</p>","","","","","","","","",""
"html-keyboard-response","99","256571","0.0-10.0-0.10","614c80483d06dcf7ad552679","650c16f0f2faf8d7a0d14c09","651d21e10e2b5ec85594ef21","null","null","<p style=""font-size: 60px; font-family: BACS"">bGuOYZJO</p>","","","","","","","","",""
"html-keyboard-response","100","257577","0.0-10.0-0.11","614c80483d06dcf7ad552679","650c16f0f2faf8d7a0d14c09","651d21e10e2b5ec85594ef21","null","null","<p style=""font-size: 60px; font-family: BACS"">ObOQlkam</p>","","","","","","","","",""
"html-keyboard-response","101","258588","0.0-10.0-0.12","614c80483d06dcf7ad552679","650c16f0f2faf8d7a0d14c09","651d21e10e2b5ec85594ef21","null","null","<p style=""font-size: 60px; font-family: BACS"">RlAKcYTOM</p>","","","","","","","","",""
"html-keyboard-response","102","259597","0.0-10.0-0.13","614c80483d06dcf7ad552679","650c16f0f2faf8d7a0d14c09","651d21e10e2b5ec85594ef21","null","null","<p style=""font-size: 60px; font-family: BACS"">cROMtCMdP</p>","","","","","","","","",""
"html-keyboard-response","103","260602","0.0-10.0-0.14","614c80483d06dcf7ad552679","650c16f0f2faf8d7a0d14c09","651d21e10e2b5ec85594ef21","null","null","<p style=""font-size: 60px; font-family: BACS"">bGuOvJQ</p>","","","","","","","","",""
"html-keyboard-response","104","261604","0.0-10.0-0.15","614c80483d06dcf7ad552679","650c16f0f2faf8d7a0d14c09","651d21e10e2b5ec85594ef21","null","null","<p style=""font-size: 60px; font-family: BACS"">kcdOtTbk</p>","","","","","","","","",""
"html-keyboard-response","105","262605","0.0-10.0-0.16","614c80483d06dcf7ad552679","650c16f0f2faf8d7a0d14c09","651d21e10e2b5ec85594ef21","null","null","<p style=""font-size: 60px; font-family: BACS"">cROMtRdCc</p>","","","","","","","","",""
"html-keyboard-response","106","263619","0.0-10.0-0.17","614c80483d06dcf7ad552679","650c16f0f2faf8d7a0d14c09","651d21e10e2b5ec85594ef21","null","null","<p style=""font-size: 60px; font-family: BACS"">LOLkUYZJO</p>","","","","","","","","",""
"html-keyboard-response","107","264630","0.0-10.0-0.18","614c80483d06dcf7ad552679","650c16f0f2faf8d7a0d14c09","651d21e10e2b5ec85594ef21","null","null","<p style=""font-size: 60px; font-family: BACS"">NbacAkam</p>","","","","","","","","",""
"html-keyboard-response","108","265632","0.0-10.0-0.19","614c80483d06dcf7ad552679","650c16f0f2faf8d7a0d14c09","651d21e10e2b5ec85594ef21","null","null","<p style=""font-size: 60px; font-family: BACS"">TDKhTbk</p>","","","","","","","","",""
"html-keyboard-response","109","266645","0.0-10.0-0.20","614c80483d06dcf7ad552679","650c16f0f2faf8d7a0d14c09","651d21e10e2b5ec85594ef21","null","null","<p style=""font-size: 60px; font-family: BACS"">EltMBRdCc</p>","","","","","","","","",""
"html-keyboard-response","110","267660","0.0-10.0-0.21","614c80483d06dcf7ad552679","650c16f0f2faf8d7a0d14c09","651d21e10e2b5ec85594ef21","null","null","<p style=""font-size: 60px; font-family: BACS"">EhRmTbk</p>","","","","","","","","",""
"html-keyboard-response","111","268669","0.0-10.0-0.22","614c80483d06dcf7ad552679","650c16f0f2faf8d7a0d14c09","651d21e10e2b5ec85594ef21","null","null","<p style=""font-size: 60px; font-family: BACS"">TDKhCMdP</p>","","","","","","","","",""
"html-keyboard-response","112","269670","0.0-10.0-0.23","614c80483d06dcf7ad552679","650c16f0f2faf8d7a0d14c09","651d21e10e2b5ec85594ef21","null","null","<p style=""font-size: 60px; font-family: BACS"">LckGNkdrO</p>","","","","","","","","",""
"html-keyboard-response","113","270677","0.0-10.0-0.24","614c80483d06dcf7ad552679","650c16f0f2faf8d7a0d14c09","651d21e10e2b5ec85594ef21","null","null","<p style=""font-size: 60px; font-family: BACS"">EltMBYTOM</p>","","","","","","","","",""
"html-keyboard-response","114","271689","0.0-10.0-0.25","614c80483d06dcf7ad552679","650c16f0f2faf8d7a0d14c09","651d21e10e2b5ec85594ef21","null","null","<p style=""font-size: 60px; font-family: BACS"">bGuOuUY</p>","","","","","","","","",""
"html-keyboard-response","115","272707","0.0-10.0-0.26","614c80483d06dcf7ad552679","650c16f0f2faf8d7a0d14c09","651d21e10e2b5ec85594ef21","null","null","<p style=""font-size: 60px; font-family: BACS"">dYdAYTOM</p>","","","","","","","","",""
"html-keyboard-response","116","273719","0.0-10.0-0.27","614c80483d06dcf7ad552679","650c16f0f2faf8d7a0d14c09","651d21e10e2b5ec85594ef21","null","null","<p style=""font-size: 60px; font-family: BACS"">AJLrkdrO</p>","","","","","","","","",""
"html-keyboard-response","117","274735","0.0-10.0-0.28","614c80483d06dcf7ad552679","650c16f0f2faf8d7a0d14c09","651d21e10e2b5ec85594ef21","null","null","<p style=""font-size: 60px; font-family: BACS"">YlYcRdCc</p>","","","","","","","","",""
"html-keyboard-response","118","275753","0.0-10.0-0.29","614c80483d06dcf7ad552679","650c16f0f2faf8d7a0d14c09","651d21e10e2b5ec85594ef21","null","null","<p style=""font-size: 60px; font-family: BACS"">EhRmYTOM</p>","","","","","","","","",""
"html-keyboard-response","119","276759","0.0-10.0-0.30","614c80483d06dcf7ad552679","650c16f0f2faf8d7a0d14c09","651d21e10e2b5ec85594ef21","null","null","<p style=""font-size: 60px; font-family: BACS"">mcOJkdrO</p>","","","","","","","","",""
"html-keyboard-response","120","277765","0.0-10.0-0.31","614c80483d06dcf7ad552679","650c16f0f2faf8d7a0d14c09","651d21e10e2b5ec85594ef21","null","null","<p style=""font-size: 60px; font-family: BACS"">vYLUYZJO</p>","","","","","","","","",""
"html-keyboard-response","121","278769","0.0-10.0-0.32","614c80483d06dcf7ad552679","650c16f0f2faf8d7a0d14c09","651d21e10e2b5ec85594ef21","null","null","<p style=""font-size: 60px; font-family: BACS"">LuaUkam</p>","","","","","","","","",""
"html-keyboard-response","122","279784","0.0-10.0-0.33","614c80483d06dcf7ad552679","650c16f0f2faf8d7a0d14c09","651d21e10e2b5ec85594ef21","null","null","<p style=""font-size: 60px; font-family: BACS"">BOCRMRdCc</p>","","","","","","","","",""
"html-keyboard-response","123","280793","0.0-10.0-0.34","614c80483d06dcf7ad552679","650c16f0f2faf8d7a0d14c09","651d21e10e2b5ec85594ef21","null","null","<p style=""font-size: 60px; font-family: BACS"">UdumdYZJO</p>","","","","","","","","",""
"html-keyboard-response","124","281800","0.0-10.0-0.35","614c80483d06dcf7ad552679","650c16f0f2faf8d7a0d14c09","651d21e10e2b5ec85594ef21","null","null","<p style=""font-size: 60px; font-family: BACS"">YlYcCPMl</p>","","","","","","","","",""
"html-keyboard-response","125","282801","0.0-10.0-0.36","614c80483d06dcf7ad552679","650c16f0f2faf8d7a0d14c09","651d21e10e2b5ec85594ef21","null","null","<p style=""font-size: 60px; font-family: BACS"">dYdARdCc</p>","","","","","","","","",""
"html-keyboard-response","126","283816","0.0-10.0-0.37","614c80483d06dcf7ad552679","650c16f0f2faf8d7a0d14c09","651d21e10e2b5ec85594ef21","null","null","<p style=""font-size: 60px; font-family: BACS"">mcOJvJQ</p>","","","","","","","","",""
"html-keyboard-response","127","284826","0.0-10.0-0.38","614c80483d06dcf7ad552679","650c16f0f2faf8d7a0d14c09","651d21e10e2b5ec85594ef21","null","null","<p style=""font-size: 60px; font-family: BACS"">UdumdkdrO</p>","","","","","","","","",""
"html-keyboard-response","128","285840","0.0-10.0-0.39","614c80483d06dcf7ad552679","650c16f0f2faf8d7a0d14c09","651d21e10e2b5ec85594ef21","null","null","<p style=""font-size: 60px; font-family: BACS"">bGuOkam</p>","","","","","","","","",""
"html-keyboard-response","129","286852","0.0-10.0-0.40","614c80483d06dcf7ad552679","650c16f0f2faf8d7a0d14c09","651d21e10e2b5ec85594ef21","null","null","<p style=""font-size: 60px; font-family: BACS"">ObOQlYZJO</p>","","","","","","","","",""
"html-keyboard-response","130","287856","0.0-10.0-0.41","614c80483d06dcf7ad552679","650c16f0f2faf8d7a0d14c09","651d21e10e2b5ec85594ef21","null","null","<p style=""font-size: 60px; font-family: BACS"">cROMtYTOM</p>","","","","","","","","",""
"html-keyboard-response","131","288869","0.0-10.0-0.42","614c80483d06dcf7ad552679","650c16f0f2faf8d7a0d14c09","651d21e10e2b5ec85594ef21","null","null","<p style=""font-size: 60px; font-family: BACS"">LOLkUkam</p>","","","","","","","","",""
"html-keyboard-response","132","289875","0.0-10.0-0.43","614c80483d06dcf7ad552679","650c16f0f2faf8d7a0d14c09","651d21e10e2b5ec85594ef21","null","null","<p style=""font-size: 60px; font-family: BACS"">ObOQlkdrO</p>","","","","","","","","",""
"html-keyboard-response","133","290890","0.0-10.0-0.44","614c80483d06dcf7ad552679","650c16f0f2faf8d7a0d14c09","651d21e10e2b5ec85594ef21","null","null","<p style=""font-size: 60px; font-family: BACS"">TDKhCPMl</p>","","","","","","","","",""
"html-keyboard-response","134","291903","0.0-10.0-0.45","614c80483d06dcf7ad552679","650c16f0f2faf8d7a0d14c09","651d21e10e2b5ec85594ef21","null","null","<p style=""font-size: 60px; font-family: BACS"">LuaUvJQ</p>","","","","","","","","",""
"html-keyboard-response","135","292916","0.0-10.0-0.46","614c80483d06dcf7ad552679","650c16f0f2faf8d7a0d14c09","651d21e10e2b5ec85594ef21","null","null","<p style=""font-size: 60px; font-family: BACS"">UdumduUY</p>","","","","","","","","",""
"html-keyboard-response","136","293925","0.0-10.0-0.47","614c80483d06dcf7ad552679","650c16f0f2faf8d7a0d14c09","651d21e10e2b5ec85594ef21","null","null","<p style=""font-size: 60px; font-family: BACS"">EhRmCPMl</p>","","","","","","","","",""
"html-keyboard-response","137","294942","0.0-10.0-0.48","614c80483d06dcf7ad552679","650c16f0f2faf8d7a0d14c09","651d21e10e2b5ec85594ef21","null","null","<p style=""font-size: 60px; font-family: BACS"">YlYcTbk</p>","","","","","","","","",""
"html-keyboard-response","138","295950","0.0-10.0-0.49","614c80483d06dcf7ad552679","650c16f0f2faf8d7a0d14c09","651d21e10e2b5ec85594ef21","null","null","<p style=""font-size: 60px; font-family: BACS"">UdumdvJQ</p>","","","","","","","","",""
"html-keyboard-response","139","296966","0.0-10.0-0.50","614c80483d06dcf7ad552679","650c16f0f2faf8d7a0d14c09","651d21e10e2b5ec85594ef21","null","null","<p style=""font-size: 60px; font-family: BACS"">LckGNkam</p>","","","","","","","","",""
"html-keyboard-response","140","297973","0.0-10.0-0.51","614c80483d06dcf7ad552679","650c16f0f2faf8d7a0d14c09","651d21e10e2b5ec85594ef21","null","null","<p style=""font-size: 60px; font-family: BACS"">McMDCMdP</p>","","","","","","","","",""
"html-keyboard-response","141","298986","0.0-10.0-0.52","614c80483d06dcf7ad552679","650c16f0f2faf8d7a0d14c09","651d21e10e2b5ec85594ef21","null","null","<p style=""font-size: 60px; font-family: BACS"">NbacAYZJO</p>","","","","","","","","",""
"html-keyboard-response","142","299992","0.0-10.0-0.53","614c80483d06dcf7ad552679","650c16f0f2faf8d7a0d14c09","651d21e10e2b5ec85594ef21","null","null","<p style=""font-size: 60px; font-family: BACS"">kcdOtCMdP</p>","","","","","","","","",""
"html-keyboard-response","143","301008","0.0-10.0-0.54","614c80483d06dcf7ad552679","650c16f0f2faf8d7a0d14c09","651d21e10e2b5ec85594ef21","null","null","<p style=""font-size: 60px; font-family: BACS"">NbacAkdrO</p>","","","","","","","","",""
"html-keyboard-response","144","302018","0.0-10.0-0.55","614c80483d06dcf7ad552679","650c16f0f2faf8d7a0d14c09","651d21e10e2b5ec85594ef21","null","null","<p style=""font-size: 60px; font-family: BACS"">YlYcCMdP</p>","","","","","","","","",""
"html-keyboard-response","145","303021","0.0-10.0-0.56","614c80483d06dcf7ad552679","650c16f0f2faf8d7a0d14c09","651d21e10e2b5ec85594ef21","null","null","<p style=""font-size: 60px; font-family: BACS"">LuaUkdrO</p>","","","","","","","","",""
"html-keyboard-response","146","304032","0.0-10.0-0.57","614c80483d06dcf7ad552679","650c16f0f2faf8d7a0d14c09","651d21e10e2b5ec85594ef21","null","null","<p style=""font-size: 60px; font-family: BACS"">LOLkUvJQ</p>","","","","","","","","",""
"html-keyboard-response","147","305035","0.0-10.0-0.58","614c80483d06dcf7ad552679","650c16f0f2faf8d7a0d14c09","651d21e10e2b5ec85594ef21","null","null","<p style=""font-size: 60px; font-family: BACS"">cROMtCPMl</p>","","","","","","","","",""
"html-keyboard-response","148","306046","0.0-10.0-0.59","614c80483d06dcf7ad552679","650c16f0f2faf8d7a0d14c09","651d21e10e2b5ec85594ef21","null","null","<p style=""font-size: 60px; font-family: BACS"">vYLUkdrO</p>","","","","","","","","",""
"html-keyboard-response","149","307055","0.0-10.0-0.60","614c80483d06dcf7ad552679","650c16f0f2faf8d7a0d14c09","651d21e10e2b5ec85594ef21","null","null","<p style=""font-size: 60px; font-family: BACS"">RlAKcRdCc</p>","","","","","","","","",""
"html-keyboard-response","150","308066","0.0-10.0-0.61","614c80483d06dcf7ad552679","650c16f0f2faf8d7a0d14c09","651d21e10e2b5ec85594ef21","null","null","<p style=""font-size: 60px; font-family: BACS"">LOLkUuUY</p>","","","","","","","","",""
"html-keyboard-response","151","309075","0.0-10.0-0.62","614c80483d06dcf7ad552679","650c16f0f2faf8d7a0d14c09","651d21e10e2b5ec85594ef21","null","null","<p style=""font-size: 60px; font-family: BACS"">RlAKcCMdP</p>","","","","","","","","",""
"html-keyboard-response","152","310082","0.0-10.0-0.63","614c80483d06dcf7ad552679","650c16f0f2faf8d7a0d14c09","651d21e10e2b5ec85594ef21","null","null","<p style=""font-size: 60px; font-family: BACS"">ObOQlvJQ</p>","","","","","","","","",""
"html-keyboard-response","153","311084","0.0-10.0-0.64","614c80483d06dcf7ad552679","650c16f0f2faf8d7a0d14c09","651d21e10e2b5ec85594ef21","null","null","<p style=""font-size: 60px; font-family: BACS"">mcOJuUY</p>","","","","","","","","",""
"html-keyboard-response","154","312093","0.0-10.0-0.65","614c80483d06dcf7ad552679","650c16f0f2faf8d7a0d14c09","651d21e10e2b5ec85594ef21","null","null","<p style=""font-size: 60px; font-family: BACS"">AJLrkam</p>","","","","","","","","",""
"html-keyboard-response","155","313105","0.0-10.0-0.66","614c80483d06dcf7ad552679","650c16f0f2faf8d7a0d14c09","651d21e10e2b5ec85594ef21","null","null","<p style=""font-size: 60px; font-family: BACS"">NbacAuUY</p>","","","","","","","","",""
"html-keyboard-response","156","314117","0.0-10.0-0.67","614c80483d06dcf7ad552679","650c16f0f2faf8d7a0d14c09","651d21e10e2b5ec85594ef21","null","null","<p style=""font-size: 60px; font-family: BACS"">McMDCPMl</p>","","","","","","","","",""
"html-keyboard-response","157","315128","0.0-10.0-0.68","614c80483d06dcf7ad552679","650c16f0f2faf8d7a0d14c09","651d21e10e2b5ec85594ef21","null","null","<p style=""font-size: 60px; font-family: BACS"">LckGNuUY</p>","","","","","","","","",""
"html-keyboard-response","158","316139","0.0-10.0-0.69","614c80483d06dcf7ad552679","650c16f0f2faf8d7a0d14c09","651d21e10e2b5ec85594ef21","null","null","<p style=""font-size: 60px; font-family: BACS"">EltMBCMdP</p>","","","","","","","","",""
"html-keyboard-response","159","317149","0.0-10.0-0.70","614c80483d06dcf7ad552679","650c16f0f2faf8d7a0d14c09","651d21e10e2b5ec85594ef21","null","null","<p style=""font-size: 60px; font-family: BACS"">vYLUkam</p>","","","","","","","","",""
"html-keyboard-response","160","318158","0.0-10.0-0.71","614c80483d06dcf7ad552679","650c16f0f2faf8d7a0d14c09","651d21e10e2b5ec85594ef21","null","null","<p style=""font-size: 60px; font-family: BACS"">dYdACPMl</p>","","","","","","","","",""
"html-keyboard-response","161","319164","0.0-10.0-0.72","614c80483d06dcf7ad552679","650c16f0f2faf8d7a0d14c09","651d21e10e2b5ec85594ef21","null","null","<p style=""font-size: 60px; font-family: BACS"">BOCRMTbk</p>","","","","","","","","",""
"html-keyboard-response","162","320167","0.0-10.0-0.73","614c80483d06dcf7ad552679","650c16f0f2faf8d7a0d14c09","651d21e10e2b5ec85594ef21","null","null","<p style=""font-size: 60px; font-family: BACS"">LckGNYZJO</p>","","","","","","","","",""
"html-keyboard-response","163","321175","0.0-10.0-0.74","614c80483d06dcf7ad552679","650c16f0f2faf8d7a0d14c09","651d21e10e2b5ec85594ef21","null","null","<p style=""font-size: 60px; font-family: BACS"">EhRmCMdP</p>","","","","","","","","",""
"html-keyboard-response","164","322185","0.0-10.0-0.75","614c80483d06dcf7ad552679","650c16f0f2faf8d7a0d14c09","651d21e10e2b5ec85594ef21","null","null","<p style=""font-size: 60px; font-family: BACS"">BOCRMYTOM</p>","","","","","","","","",""
"html-keyboard-response","165","323198","0.0-10.0-0.76","614c80483d06dcf7ad552679","650c16f0f2faf8d7a0d14c09","651d21e10e2b5ec85594ef21","null","null","<p style=""font-size: 60px; font-family: BACS"">McMDTbk</p>","","","","","","","","",""
"html-keyboard-response","166","324201","0.0-10.0-0.77","614c80483d06dcf7ad552679","650c16f0f2faf8d7a0d14c09","651d21e10e2b5ec85594ef21","null","null","<p style=""font-size: 60px; font-family: BACS"">TDKhRdCc</p>","","","","","","","","",""
"html-keyboard-response","167","325214","0.0-10.0-0.78","614c80483d06dcf7ad552679","650c16f0f2faf8d7a0d14c09","651d21e10e2b5ec85594ef21","null","null","<p style=""font-size: 60px; font-family: BACS"">RlAKcTbk</p>","","","","","","","","",""
"html-keyboard-response","168","326218","0.0-10.0-0.79","614c80483d06dcf7ad552679","650c16f0f2faf8d7a0d14c09","651d21e10e2b5ec85594ef21","null","null","<p style=""font-size: 60px; font-family: BACS"">EltMBCPMl</p>","","","","","","","","",""
"html-keyboard-response","169","395935","0.0-11.0","614c80483d06dcf7ad552679","650c16f0f2faf8d7a0d14c09","651d21e10e2b5ec85594ef21","69717"," ","<p>Great, you've seen the second block of words. You may now take a short break.</p>
      <p>Press the spacebar when you're ready to continue.</p>","","","","","","","","",""
"html-keyboard-response","170","396943","0.0-12.0-0.0","614c80483d06dcf7ad552679","650c16f0f2faf8d7a0d14c09","651d21e10e2b5ec85594ef21","null","null","<p style=""font-size: 60px; font-family: BACS"">AJLruUY</p>","","","","","","","","",""
"html-keyboard-response","171","397946","0.0-12.0-0.1","614c80483d06dcf7ad552679","650c16f0f2faf8d7a0d14c09","651d21e10e2b5ec85594ef21","null","null","<p style=""font-size: 60px; font-family: BACS"">kcdOtYTOM</p>","","","","","","","","",""
"html-keyboard-response","172","398954","0.0-12.0-0.2","614c80483d06dcf7ad552679","650c16f0f2faf8d7a0d14c09","651d21e10e2b5ec85594ef21","null","null","<p style=""font-size: 60px; font-family: BACS"">LuaUvJQ</p>","","","","","","","","",""
"html-keyboard-response","173","399970","0.0-12.0-0.3","614c80483d06dcf7ad552679","650c16f0f2faf8d7a0d14c09","651d21e10e2b5ec85594ef21","null","null","<p style=""font-size: 60px; font-family: BACS"">cROMtYTOM</p>","","","","","","","","",""
"html-keyboard-response","174","400984","0.0-12.0-0.4","614c80483d06dcf7ad552679","650c16f0f2faf8d7a0d14c09","651d21e10e2b5ec85594ef21","null","null","<p style=""font-size: 60px; font-family: BACS"">ObOQlYZJO</p>","","","","","","","","",""
"html-keyboard-response","175","401996","0.0-12.0-0.5","614c80483d06dcf7ad552679","650c16f0f2faf8d7a0d14c09","651d21e10e2b5ec85594ef21","null","null","<p style=""font-size: 60px; font-family: BACS"">TDKhTbk</p>","","","","","","","","",""
"html-keyboard-response","176","403003","0.0-12.0-0.6","614c80483d06dcf7ad552679","650c16f0f2faf8d7a0d14c09","651d21e10e2b5ec85594ef21","null","null","<p style=""font-size: 60px; font-family: BACS"">kcdOtCMdP</p>","","","","","","","","",""
"html-keyboard-response","177","404014","0.0-12.0-0.7","614c80483d06dcf7ad552679","650c16f0f2faf8d7a0d14c09","651d21e10e2b5ec85594ef21","null","null","<p style=""font-size: 60px; font-family: BACS"">vYLUYZJO</p>","","","","","","","","",""
"html-keyboard-response","178","405020","0.0-12.0-0.8","614c80483d06dcf7ad552679","650c16f0f2faf8d7a0d14c09","651d21e10e2b5ec85594ef21","null","null","<p style=""font-size: 60px; font-family: BACS"">mcOJvJQ</p>","","","","","","","","",""
"html-keyboard-response","179","406034","0.0-12.0-0.9","614c80483d06dcf7ad552679","650c16f0f2faf8d7a0d14c09","651d21e10e2b5ec85594ef21","null","null","<p style=""font-size: 60px; font-family: BACS"">bGuOuUY</p>","","","","","","","","",""
"html-keyboard-response","180","407046","0.0-12.0-0.10","614c80483d06dcf7ad552679","650c16f0f2faf8d7a0d14c09","651d21e10e2b5ec85594ef21","null","null","<p style=""font-size: 60px; font-family: BACS"">ObOQlkam</p>","","","","","","","","",""
"html-keyboard-response","181","408048","0.0-12.0-0.11","614c80483d06dcf7ad552679","650c16f0f2faf8d7a0d14c09","651d21e10e2b5ec85594ef21","null","null","<p style=""font-size: 60px; font-family: BACS"">dYdAYTOM</p>","","","","","","","","",""
"html-keyboard-response","182","409064","0.0-12.0-0.12","614c80483d06dcf7ad552679","650c16f0f2faf8d7a0d14c09","651d21e10e2b5ec85594ef21","null","null","<p style=""font-size: 60px; font-family: BACS"">LckGNkam</p>","","","","","","","","",""
"html-keyboard-response","183","410069","0.0-12.0-0.13","614c80483d06dcf7ad552679","650c16f0f2faf8d7a0d14c09","651d21e10e2b5ec85594ef21","null","null","<p style=""font-size: 60px; font-family: BACS"">bGuOvJQ</p>","","","","","","","","",""
"html-keyboard-response","184","411083","0.0-12.0-0.14","614c80483d06dcf7ad552679","650c16f0f2faf8d7a0d14c09","651d21e10e2b5ec85594ef21","null","null","<p style=""font-size: 60px; font-family: BACS"">McMDYTOM</p>","","","","","","","","",""
"html-keyboard-response","185","412101","0.0-12.0-0.15","614c80483d06dcf7ad552679","650c16f0f2faf8d7a0d14c09","651d21e10e2b5ec85594ef21","null","null","<p style=""font-size: 60px; font-family: BACS"">NbacAYZJO</p>","","","","","","","","",""
"html-keyboard-response","186","413119","0.0-12.0-0.16","614c80483d06dcf7ad552679","650c16f0f2faf8d7a0d14c09","651d21e10e2b5ec85594ef21","null","null","<p style=""font-size: 60px; font-family: BACS"">McMDCPMl</p>","","","","","","","","",""
"html-keyboard-response","187","414132","0.0-12.0-0.17","614c80483d06dcf7ad552679","650c16f0f2faf8d7a0d14c09","651d21e10e2b5ec85594ef21","null","null","<p style=""font-size: 60px; font-family: BACS"">AJLrkam</p>","","","","","","","","",""
"html-keyboard-response","188","415136","0.0-12.0-0.18","614c80483d06dcf7ad552679","650c16f0f2faf8d7a0d14c09","651d21e10e2b5ec85594ef21","null","null","<p style=""font-size: 60px; font-family: BACS"">UdumdkdrO</p>","","","","","","","","",""
"html-keyboard-response","189","416145","0.0-12.0-0.19","614c80483d06dcf7ad552679","650c16f0f2faf8d7a0d14c09","651d21e10e2b5ec85594ef21","null","null","<p style=""font-size: 60px; font-family: BACS"">cROMtRdCc</p>","","","","","","","","",""
"html-keyboard-response","190","417153","0.0-12.0-0.20","614c80483d06dcf7ad552679","650c16f0f2faf8d7a0d14c09","651d21e10e2b5ec85594ef21","null","null","<p style=""font-size: 60px; font-family: BACS"">UdumdvJQ</p>","","","","","","","","",""
"html-keyboard-response","191","418163","0.0-12.0-0.21","614c80483d06dcf7ad552679","650c16f0f2faf8d7a0d14c09","651d21e10e2b5ec85594ef21","null","null","<p style=""font-size: 60px; font-family: BACS"">kcdOtRdCc</p>","","","","","","","","",""
"html-keyboard-response","192","419170","0.0-12.0-0.22","614c80483d06dcf7ad552679","650c16f0f2faf8d7a0d14c09","651d21e10e2b5ec85594ef21","null","null","<p style=""font-size: 60px; font-family: BACS"">EhRmCPMl</p>","","","","","","","","",""
"html-keyboard-response","193","420173","0.0-12.0-0.23","614c80483d06dcf7ad552679","650c16f0f2faf8d7a0d14c09","651d21e10e2b5ec85594ef21","null","null","<p style=""font-size: 60px; font-family: BACS"">TDKhCMdP</p>","","","","","","","","",""
"html-keyboard-response","194","421190","0.0-12.0-0.24","614c80483d06dcf7ad552679","650c16f0f2faf8d7a0d14c09","651d21e10e2b5ec85594ef21","null","null","<p style=""font-size: 60px; font-family: BACS"">McMDTbk</p>","","","","","","","","",""
"html-keyboard-response","195","422199","0.0-12.0-0.25","614c80483d06dcf7ad552679","650c16f0f2faf8d7a0d14c09","651d21e10e2b5ec85594ef21","null","null","<p style=""font-size: 60px; font-family: BACS"">BOCRMCPMl</p>","","","","","","","","",""
"html-keyboard-response","196","423210","0.0-12.0-0.26","614c80483d06dcf7ad552679","650c16f0f2faf8d7a0d14c09","651d21e10e2b5ec85594ef21","null","null","<p style=""font-size: 60px; font-family: BACS"">NbacAkdrO</p>","","","","","","","","",""
"html-keyboard-response","197","424219","0.0-12.0-0.27","614c80483d06dcf7ad552679","650c16f0f2faf8d7a0d14c09","651d21e10e2b5ec85594ef21","null","null","<p style=""font-size: 60px; font-family: BACS"">YlYcTbk</p>","","","","","","","","",""
"html-keyboard-response","198","425222","0.0-12.0-0.28","614c80483d06dcf7ad552679","650c16f0f2faf8d7a0d14c09","651d21e10e2b5ec85594ef21","null","null","<p style=""font-size: 60px; font-family: BACS"">AJLrkdrO</p>","","","","","","","","",""
"html-keyboard-response","199","426233","0.0-12.0-0.29","614c80483d06dcf7ad552679","650c16f0f2faf8d7a0d14c09","651d21e10e2b5ec85594ef21","null","null","<p style=""font-size: 60px; font-family: BACS"">TDKhRdCc</p>","","","","","","","","",""
"html-keyboard-response","200","427245","0.0-12.0-0.30","614c80483d06dcf7ad552679","650c16f0f2faf8d7a0d14c09","651d21e10e2b5ec85594ef21","null","null","<p style=""font-size: 60px; font-family: BACS"">NbacAkam</p>","","","","","","","","",""
"html-keyboard-response","201","428256","0.0-12.0-0.31","614c80483d06dcf7ad552679","650c16f0f2faf8d7a0d14c09","651d21e10e2b5ec85594ef21","null","null","<p style=""font-size: 60px; font-family: BACS"">BOCRMYTOM</p>","","","","","","","","",""
"html-keyboard-response","202","429260","0.0-12.0-0.32","614c80483d06dcf7ad552679","650c16f0f2faf8d7a0d14c09","651d21e10e2b5ec85594ef21","null","null","<p style=""font-size: 60px; font-family: BACS"">LuaUkdrO</p>","","","","","","","","",""
"html-keyboard-response","203","430265","0.0-12.0-0.33","614c80483d06dcf7ad552679","650c16f0f2faf8d7a0d14c09","651d21e10e2b5ec85594ef21","null","null","<p style=""font-size: 60px; font-family: BACS"">mcOJYZJO</p>","","","","","","","","",""
"html-keyboard-response","204","431277","0.0-12.0-0.34","614c80483d06dcf7ad552679","650c16f0f2faf8d7a0d14c09","651d21e10e2b5ec85594ef21","null","null","<p style=""font-size: 60px; font-family: BACS"">vYLUkdrO</p>","","","","","","","","",""
"html-keyboard-response","205","432285","0.0-12.0-0.35","614c80483d06dcf7ad552679","650c16f0f2faf8d7a0d14c09","651d21e10e2b5ec85594ef21","null","null","<p style=""font-size: 60px; font-family: BACS"">RlAKcCMdP</p>","","","","","","","","",""
"html-keyboard-response","206","433301","0.0-12.0-0.36","614c80483d06dcf7ad552679","650c16f0f2faf8d7a0d14c09","651d21e10e2b5ec85594ef21","null","null","<p style=""font-size: 60px; font-family: BACS"">dYdARdCc</p>","","","","","","","","",""
"html-keyboard-response","207","434305","0.0-12.0-0.37","614c80483d06dcf7ad552679","650c16f0f2faf8d7a0d14c09","651d21e10e2b5ec85594ef21","null","null","<p style=""font-size: 60px; font-family: BACS"">EltMBCMdP</p>","","","","","","","","",""
"html-keyboard-response","208","435317","0.0-12.0-0.38","614c80483d06dcf7ad552679","650c16f0f2faf8d7a0d14c09","651d21e10e2b5ec85594ef21","null","null","<p style=""font-size: 60px; font-family: BACS"">LckGNYZJO</p>","","","","","","","","",""
"html-keyboard-response","209","436336","0.0-12.0-0.39","614c80483d06dcf7ad552679","650c16f0f2faf8d7a0d14c09","651d21e10e2b5ec85594ef21","null","null","<p style=""font-size: 60px; font-family: BACS"">bGuOkam</p>","","","","","","","","",""
"html-keyboard-response","210","437344","0.0-12.0-0.40","614c80483d06dcf7ad552679","650c16f0f2faf8d7a0d14c09","651d21e10e2b5ec85594ef21","null","null","<p style=""font-size: 60px; font-family: BACS"">ObOQlkdrO</p>","","","","","","","","",""
"html-keyboard-response","211","438351","0.0-12.0-0.41","614c80483d06dcf7ad552679","650c16f0f2faf8d7a0d14c09","651d21e10e2b5ec85594ef21","null","null","<p style=""font-size: 60px; font-family: BACS"">LOLkUkam</p>","","","","","","","","",""
"html-keyboard-response","212","439357","0.0-12.0-0.42","614c80483d06dcf7ad552679","650c16f0f2faf8d7a0d14c09","651d21e10e2b5ec85594ef21","null","null","<p style=""font-size: 60px; font-family: BACS"">EltMBCPMl</p>","","","","","","","","",""
"html-keyboard-response","213","440369","0.0-12.0-0.43","614c80483d06dcf7ad552679","650c16f0f2faf8d7a0d14c09","651d21e10e2b5ec85594ef21","null","null","<p style=""font-size: 60px; font-family: BACS"">LuaUuUY</p>","","","","","","","","",""
"html-keyboard-response","214","441380","0.0-12.0-0.44","614c80483d06dcf7ad552679","650c16f0f2faf8d7a0d14c09","651d21e10e2b5ec85594ef21","null","null","<p style=""font-size: 60px; font-family: BACS"">AJLrvJQ</p>","","","","","","","","",""
"html-keyboard-response","215","442384","0.0-12.0-0.45","614c80483d06dcf7ad552679","650c16f0f2faf8d7a0d14c09","651d21e10e2b5ec85594ef21","null","null","<p style=""font-size: 60px; font-family: BACS"">UdumdYZJO</p>","","","","","","","","",""
"html-keyboard-response","216","443399","0.0-12.0-0.46","614c80483d06dcf7ad552679","650c16f0f2faf8d7a0d14c09","651d21e10e2b5ec85594ef21","null","null","<p style=""font-size: 60px; font-family: BACS"">LOLkUvJQ</p>","","","","","","","","",""
"html-keyboard-response","217","444418","0.0-12.0-0.47","614c80483d06dcf7ad552679","650c16f0f2faf8d7a0d14c09","651d21e10e2b5ec85594ef21","null","null","<p style=""font-size: 60px; font-family: BACS"">dYdATbk</p>","","","","","","","","",""
"html-keyboard-response","218","445430","0.0-12.0-0.48","614c80483d06dcf7ad552679","650c16f0f2faf8d7a0d14c09","651d21e10e2b5ec85594ef21","null","null","<p style=""font-size: 60px; font-family: BACS"">EltMBRdCc</p>","","","","","","","","",""
"html-keyboard-response","219","446443","0.0-12.0-0.49","614c80483d06dcf7ad552679","650c16f0f2faf8d7a0d14c09","651d21e10e2b5ec85594ef21","null","null","<p style=""font-size: 60px; font-family: BACS"">RlAKcYTOM</p>","","","","","","","","",""
"html-keyboard-response","220","447449","0.0-12.0-0.50","614c80483d06dcf7ad552679","650c16f0f2faf8d7a0d14c09","651d21e10e2b5ec85594ef21","null","null","<p style=""font-size: 60px; font-family: BACS"">BOCRMRdCc</p>","","","","","","","","",""
"html-keyboard-response","221","448459","0.0-12.0-0.51","614c80483d06dcf7ad552679","650c16f0f2faf8d7a0d14c09","651d21e10e2b5ec85594ef21","null","null","<p style=""font-size: 60px; font-family: BACS"">kcdOtTbk</p>","","","","","","","","",""
"html-keyboard-response","222","449476","0.0-12.0-0.52","614c80483d06dcf7ad552679","650c16f0f2faf8d7a0d14c09","651d21e10e2b5ec85594ef21","null","null","<p style=""font-size: 60px; font-family: BACS"">YlYcRdCc</p>","","","","","","","","",""
"html-keyboard-response","223","450479","0.0-12.0-0.53","614c80483d06dcf7ad552679","650c16f0f2faf8d7a0d14c09","651d21e10e2b5ec85594ef21","null","null","<p style=""font-size: 60px; font-family: BACS"">TDKhCPMl</p>","","","","","","","","",""
"html-keyboard-response","224","451484","0.0-12.0-0.54","614c80483d06dcf7ad552679","650c16f0f2faf8d7a0d14c09","651d21e10e2b5ec85594ef21","null","null","<p style=""font-size: 60px; font-family: BACS"">LOLkUYZJO</p>","","","","","","","","",""
"html-keyboard-response","225","452492","0.0-12.0-0.55","614c80483d06dcf7ad552679","650c16f0f2faf8d7a0d14c09","651d21e10e2b5ec85594ef21","null","null","<p style=""font-size: 60px; font-family: BACS"">UdumduUY</p>","","","","","","","","",""
"html-keyboard-response","226","453498","0.0-12.0-0.56","614c80483d06dcf7ad552679","650c16f0f2faf8d7a0d14c09","651d21e10e2b5ec85594ef21","null","null","<p style=""font-size: 60px; font-family: BACS"">EhRmTbk</p>","","","","","","","","",""
"html-keyboard-response","227","454514","0.0-12.0-0.57","614c80483d06dcf7ad552679","650c16f0f2faf8d7a0d14c09","651d21e10e2b5ec85594ef21","null","null","<p style=""font-size: 60px; font-family: BACS"">vYLUkam</p>","","","","","","","","",""
"html-keyboard-response","228","455524","0.0-12.0-0.58","614c80483d06dcf7ad552679","650c16f0f2faf8d7a0d14c09","651d21e10e2b5ec85594ef21","null","null","<p style=""font-size: 60px; font-family: BACS"">EltMBYTOM</p>","","","","","","","","",""
"html-keyboard-response","229","456527","0.0-12.0-0.59","614c80483d06dcf7ad552679","650c16f0f2faf8d7a0d14c09","651d21e10e2b5ec85594ef21","null","null","<p style=""font-size: 60px; font-family: BACS"">ObOQlvJQ</p>","","","","","","","","",""
"html-keyboard-response","230","457532","0.0-12.0-0.60","614c80483d06dcf7ad552679","650c16f0f2faf8d7a0d14c09","651d21e10e2b5ec85594ef21","null","null","<p style=""font-size: 60px; font-family: BACS"">RlAKcRdCc</p>","","","","","","","","",""
"html-keyboard-response","231","458548","0.0-12.0-0.61","614c80483d06dcf7ad552679","650c16f0f2faf8d7a0d14c09","651d21e10e2b5ec85594ef21","null","null","<p style=""font-size: 60px; font-family: BACS"">mcOJuUY</p>","","","","","","","","",""
"html-keyboard-response","232","459549","0.0-12.0-0.62","614c80483d06dcf7ad552679","650c16f0f2faf8d7a0d14c09","651d21e10e2b5ec85594ef21","null","null","<p style=""font-size: 60px; font-family: BACS"">YlYcCMdP</p>","","","","","","","","",""
"html-keyboard-response","233","460565","0.0-12.0-0.63","614c80483d06dcf7ad552679","650c16f0f2faf8d7a0d14c09","651d21e10e2b5ec85594ef21","null","null","<p style=""font-size: 60px; font-family: BACS"">vYLUvJQ</p>","","","","","","","","",""
"html-keyboard-response","234","461576","0.0-12.0-0.64","614c80483d06dcf7ad552679","650c16f0f2faf8d7a0d14c09","651d21e10e2b5ec85594ef21","null","null","<p style=""font-size: 60px; font-family: BACS"">LuaUkam</p>","","","","","","","","",""
"html-keyboard-response","235","462591","0.0-12.0-0.65","614c80483d06dcf7ad552679","650c16f0f2faf8d7a0d14c09","651d21e10e2b5ec85594ef21","null","null","<p style=""font-size: 60px; font-family: BACS"">bGuOYZJO</p>","","","","","","","","",""
"html-keyboard-response","236","463602","0.0-12.0-0.66","614c80483d06dcf7ad552679","650c16f0f2faf8d7a0d14c09","651d21e10e2b5ec85594ef21","null","null","<p style=""font-size: 60px; font-family: BACS"">cROMtCMdP</p>","","","","","","","","",""
"html-keyboard-response","237","464604","0.0-12.0-0.67","614c80483d06dcf7ad552679","650c16f0f2faf8d7a0d14c09","651d21e10e2b5ec85594ef21","null","null","<p style=""font-size: 60px; font-family: BACS"">RlAKcTbk</p>","","","","","","","","",""
"html-keyboard-response","238","465610","0.0-12.0-0.68","614c80483d06dcf7ad552679","650c16f0f2faf8d7a0d14c09","651d21e10e2b5ec85594ef21","null","null","<p style=""font-size: 60px; font-family: BACS"">YlYcCPMl</p>","","","","","","","","",""
"html-keyboard-response","239","466614","0.0-12.0-0.69","614c80483d06dcf7ad552679","650c16f0f2faf8d7a0d14c09","651d21e10e2b5ec85594ef21","null","null","<p style=""font-size: 60px; font-family: BACS"">LOLkUuUY</p>","","","","","","","","",""
"html-keyboard-response","240","467627","0.0-12.0-0.70","614c80483d06dcf7ad552679","650c16f0f2faf8d7a0d14c09","651d21e10e2b5ec85594ef21","null","null","<p style=""font-size: 60px; font-family: BACS"">cROMtCPMl</p>","","","","","","","","",""
"html-keyboard-response","241","468630","0.0-12.0-0.71","614c80483d06dcf7ad552679","650c16f0f2faf8d7a0d14c09","651d21e10e2b5ec85594ef21","null","null","<p style=""font-size: 60px; font-family: BACS"">LckGNuUY</p>","","","","","","","","",""
"html-keyboard-response","242","469642","0.0-12.0-0.72","614c80483d06dcf7ad552679","650c16f0f2faf8d7a0d14c09","651d21e10e2b5ec85594ef21","null","null","<p style=""font-size: 60px; font-family: BACS"">EhRmYTOM</p>","","","","","","","","",""
"html-keyboard-response","243","470645","0.0-12.0-0.73","614c80483d06dcf7ad552679","650c16f0f2faf8d7a0d14c09","651d21e10e2b5ec85594ef21","null","null","<p style=""font-size: 60px; font-family: BACS"">LckGNkdrO</p>","","","","","","","","",""
"html-keyboard-response","244","471655","0.0-12.0-0.74","614c80483d06dcf7ad552679","650c16f0f2faf8d7a0d14c09","651d21e10e2b5ec85594ef21","null","null","<p style=""font-size: 60px; font-family: BACS"">dYdACPMl</p>","","","","","","","","",""
"html-keyboard-response","245","472667","0.0-12.0-0.75","614c80483d06dcf7ad552679","650c16f0f2faf8d7a0d14c09","651d21e10e2b5ec85594ef21","null","null","<p style=""font-size: 60px; font-family: BACS"">mcOJkdrO</p>","","","","","","","","",""
"html-keyboard-response","246","473669","0.0-12.0-0.76","614c80483d06dcf7ad552679","650c16f0f2faf8d7a0d14c09","651d21e10e2b5ec85594ef21","null","null","<p style=""font-size: 60px; font-family: BACS"">McMDCMdP</p>","","","","","","","","",""
"html-keyboard-response","247","474684","0.0-12.0-0.77","614c80483d06dcf7ad552679","650c16f0f2faf8d7a0d14c09","651d21e10e2b5ec85594ef21","null","null","<p style=""font-size: 60px; font-family: BACS"">NbacAuUY</p>","","","","","","","","",""
"html-keyboard-response","248","475694","0.0-12.0-0.78","614c80483d06dcf7ad552679","650c16f0f2faf8d7a0d14c09","651d21e10e2b5ec85594ef21","null","null","<p style=""font-size: 60px; font-family: BACS"">EhRmCMdP</p>","","","","","","","","",""
"html-keyboard-response","249","476700","0.0-12.0-0.79","614c80483d06dcf7ad552679","650c16f0f2faf8d7a0d14c09","651d21e10e2b5ec85594ef21","null","null","<p style=""font-size: 60px; font-family: BACS"">BOCRMTbk</p>","","","","","","","","",""
"html-keyboard-response","250","520368","0.0-13.0","614c80483d06dcf7ad552679","650c16f0f2faf8d7a0d14c09","651d21e10e2b5ec85594ef21","43668"," ","<p>Great, you've seen the third block of words. You may now take a short break.</p>
      <p>Press the spacebar when you're ready to continue.</p>","","","","","","","","",""
"html-keyboard-response","251","521373","0.0-14.0-0.0","614c80483d06dcf7ad552679","650c16f0f2faf8d7a0d14c09","651d21e10e2b5ec85594ef21","null","null","<p style=""font-size: 60px; font-family: BACS"">bGuOvJQ</p>","","","","","","","","",""
"html-keyboard-response","252","522374","0.0-14.0-0.1","614c80483d06dcf7ad552679","650c16f0f2faf8d7a0d14c09","651d21e10e2b5ec85594ef21","null","null","<p style=""font-size: 60px; font-family: BACS"">NbacAkam</p>","","","","","","","","",""
"html-keyboard-response","253","523384","0.0-14.0-0.2","614c80483d06dcf7ad552679","650c16f0f2faf8d7a0d14c09","651d21e10e2b5ec85594ef21","null","null","<p style=""font-size: 60px; font-family: BACS"">mcOJkdrO</p>","","","","","","","","",""
"html-keyboard-response","254","524391","0.0-14.0-0.3","614c80483d06dcf7ad552679","650c16f0f2faf8d7a0d14c09","651d21e10e2b5ec85594ef21","null","null","<p style=""font-size: 60px; font-family: BACS"">YlYcCMdP</p>","","","","","","","","",""
"html-keyboard-response","255","525401","0.0-14.0-0.4","614c80483d06dcf7ad552679","650c16f0f2faf8d7a0d14c09","651d21e10e2b5ec85594ef21","null","null","<p style=""font-size: 60px; font-family: BACS"">bGuOYZJO</p>","","","","","","","","",""
"html-keyboard-response","256","526405","0.0-14.0-0.5","614c80483d06dcf7ad552679","650c16f0f2faf8d7a0d14c09","651d21e10e2b5ec85594ef21","null","null","<p style=""font-size: 60px; font-family: BACS"">TDKhCPMl</p>","","","","","","","","",""
"html-keyboard-response","257","527407","0.0-14.0-0.6","614c80483d06dcf7ad552679","650c16f0f2faf8d7a0d14c09","651d21e10e2b5ec85594ef21","null","null","<p style=""font-size: 60px; font-family: BACS"">NbacAuUY</p>","","","","","","","","",""
"html-keyboard-response","258","528409","0.0-14.0-0.7","614c80483d06dcf7ad552679","650c16f0f2faf8d7a0d14c09","651d21e10e2b5ec85594ef21","null","null","<p style=""font-size: 60px; font-family: BACS"">kcdOtYTOM</p>","","","","","","","","",""
"html-keyboard-response","259","529412","0.0-14.0-0.8","614c80483d06dcf7ad552679","650c16f0f2faf8d7a0d14c09","651d21e10e2b5ec85594ef21","null","null","<p style=""font-size: 60px; font-family: BACS"">TDKhTbk</p>","","","","","","","","",""
"html-keyboard-response","260","530422","0.0-14.0-0.9","614c80483d06dcf7ad552679","650c16f0f2faf8d7a0d14c09","651d21e10e2b5ec85594ef21","null","null","<p style=""font-size: 60px; font-family: BACS"">UdumdkdrO</p>","","","","","","","","",""
"html-keyboard-response","261","531439","0.0-14.0-0.10","614c80483d06dcf7ad552679","650c16f0f2faf8d7a0d14c09","651d21e10e2b5ec85594ef21","null","null","<p style=""font-size: 60px; font-family: BACS"">YlYcTbk</p>","","","","","","","","",""
"html-keyboard-response","262","532441","0.0-14.0-0.11","614c80483d06dcf7ad552679","650c16f0f2faf8d7a0d14c09","651d21e10e2b5ec85594ef21","null","null","<p style=""font-size: 60px; font-family: BACS"">LuaUuUY</p>","","","","","","","","",""
"html-keyboard-response","263","533447","0.0-14.0-0.12","614c80483d06dcf7ad552679","650c16f0f2faf8d7a0d14c09","651d21e10e2b5ec85594ef21","null","null","<p style=""font-size: 60px; font-family: BACS"">AJLrkam</p>","","","","","","","","",""
"html-keyboard-response","264","534457","0.0-14.0-0.13","614c80483d06dcf7ad552679","650c16f0f2faf8d7a0d14c09","651d21e10e2b5ec85594ef21","null","null","<p style=""font-size: 60px; font-family: BACS"">ObOQlkdrO</p>","","","","","","","","",""
"html-keyboard-response","265","535461","0.0-14.0-0.14","614c80483d06dcf7ad552679","650c16f0f2faf8d7a0d14c09","651d21e10e2b5ec85594ef21","null","null","<p style=""font-size: 60px; font-family: BACS"">UdumdYZJO</p>","","","","","","","","",""
"html-keyboard-response","266","536465","0.0-14.0-0.15","614c80483d06dcf7ad552679","650c16f0f2faf8d7a0d14c09","651d21e10e2b5ec85594ef21","null","null","<p style=""font-size: 60px; font-family: BACS"">LOLkUuUY</p>","","","","","","","","",""
"html-keyboard-response","267","537478","0.0-14.0-0.16","614c80483d06dcf7ad552679","650c16f0f2faf8d7a0d14c09","651d21e10e2b5ec85594ef21","null","null","<p style=""font-size: 60px; font-family: BACS"">NbacAYZJO</p>","","","","","","","","",""
"html-keyboard-response","268","538481","0.0-14.0-0.17","614c80483d06dcf7ad552679","650c16f0f2faf8d7a0d14c09","651d21e10e2b5ec85594ef21","null","null","<p style=""font-size: 60px; font-family: BACS"">kcdOtTbk</p>","","","","","","","","",""
"html-keyboard-response","269","539494","0.0-14.0-0.18","614c80483d06dcf7ad552679","650c16f0f2faf8d7a0d14c09","651d21e10e2b5ec85594ef21","null","null","<p style=""font-size: 60px; font-family: BACS"">UdumduUY</p>","","","","","","","","",""
"html-keyboard-response","270","540496","0.0-14.0-0.19","614c80483d06dcf7ad552679","650c16f0f2faf8d7a0d14c09","651d21e10e2b5ec85594ef21","null","null","<p style=""font-size: 60px; font-family: BACS"">LOLkUYZJO</p>","","","","","","","","",""
"html-keyboard-response","271","541514","0.0-14.0-0.20","614c80483d06dcf7ad552679","650c16f0f2faf8d7a0d14c09","651d21e10e2b5ec85594ef21","null","null","<p style=""font-size: 60px; font-family: BACS"">ObOQlkam</p>","","","","","","","","",""
"html-keyboard-response","272","542524","0.0-14.0-0.21","614c80483d06dcf7ad552679","650c16f0f2faf8d7a0d14c09","651d21e10e2b5ec85594ef21","null","null","<p style=""font-size: 60px; font-family: BACS"">UdumdvJQ</p>","","","","","","","","",""
"html-keyboard-response","273","543527","0.0-14.0-0.22","614c80483d06dcf7ad552679","650c16f0f2faf8d7a0d14c09","651d21e10e2b5ec85594ef21","null","null","<p style=""font-size: 60px; font-family: BACS"">dYdAYTOM</p>","","","","","","","","",""
"html-keyboard-response","274","544530","0.0-14.0-0.23","614c80483d06dcf7ad552679","650c16f0f2faf8d7a0d14c09","651d21e10e2b5ec85594ef21","null","null","<p style=""font-size: 60px; font-family: BACS"">AJLrkdrO</p>","","","","","","","","",""
"html-keyboard-response","275","545547","0.0-14.0-0.24","614c80483d06dcf7ad552679","650c16f0f2faf8d7a0d14c09","651d21e10e2b5ec85594ef21","null","null","<p style=""font-size: 60px; font-family: BACS"">McMDTbk</p>","","","","","","","","",""
"html-keyboard-response","276","546558","0.0-14.0-0.25","614c80483d06dcf7ad552679","650c16f0f2faf8d7a0d14c09","651d21e10e2b5ec85594ef21","null","null","<p style=""font-size: 60px; font-family: BACS"">TDKhCMdP</p>","","","","","","","","",""
"html-keyboard-response","277","547562","0.0-14.0-0.26","614c80483d06dcf7ad552679","650c16f0f2faf8d7a0d14c09","651d21e10e2b5ec85594ef21","null","null","<p style=""font-size: 60px; font-family: BACS"">cROMtRdCc</p>","","","","","","","","",""
"html-keyboard-response","278","548574","0.0-14.0-0.27","614c80483d06dcf7ad552679","650c16f0f2faf8d7a0d14c09","651d21e10e2b5ec85594ef21","null","null","<p style=""font-size: 60px; font-family: BACS"">RlAKcCMdP</p>","","","","","","","","",""
"html-keyboard-response","279","549580","0.0-14.0-0.28","614c80483d06dcf7ad552679","650c16f0f2faf8d7a0d14c09","651d21e10e2b5ec85594ef21","null","null","<p style=""font-size: 60px; font-family: BACS"">YlYcCPMl</p>","","","","","","","","",""
"html-keyboard-response","280","550594","0.0-14.0-0.29","614c80483d06dcf7ad552679","650c16f0f2faf8d7a0d14c09","651d21e10e2b5ec85594ef21","null","null","<p style=""font-size: 60px; font-family: BACS"">BOCRMYTOM</p>","","","","","","","","",""
"html-keyboard-response","281","551613","0.0-14.0-0.30","614c80483d06dcf7ad552679","650c16f0f2faf8d7a0d14c09","651d21e10e2b5ec85594ef21","null","null","<p style=""font-size: 60px; font-family: BACS"">bGuOuUY</p>","","","","","","","","",""
"html-keyboard-response","282","552623","0.0-14.0-0.31","614c80483d06dcf7ad552679","650c16f0f2faf8d7a0d14c09","651d21e10e2b5ec85594ef21","null","null","<p style=""font-size: 60px; font-family: BACS"">EhRmTbk</p>","","","","","","","","",""
"html-keyboard-response","283","553638","0.0-14.0-0.32","614c80483d06dcf7ad552679","650c16f0f2faf8d7a0d14c09","651d21e10e2b5ec85594ef21","null","null","<p style=""font-size: 60px; font-family: BACS"">BOCRMCPMl</p>","","","","","","","","",""
"html-keyboard-response","284","554646","0.0-14.0-0.33","614c80483d06dcf7ad552679","650c16f0f2faf8d7a0d14c09","651d21e10e2b5ec85594ef21","null","null","<p style=""font-size: 60px; font-family: BACS"">mcOJuUY</p>","","","","","","","","",""
"html-keyboard-response","285","555663","0.0-14.0-0.34","614c80483d06dcf7ad552679","650c16f0f2faf8d7a0d14c09","651d21e10e2b5ec85594ef21","null","null","<p style=""font-size: 60px; font-family: BACS"">vYLUYZJO</p>","","","","","","","","",""
"html-keyboard-response","286","556679","0.0-14.0-0.35","614c80483d06dcf7ad552679","650c16f0f2faf8d7a0d14c09","651d21e10e2b5ec85594ef21","null","null","<p style=""font-size: 60px; font-family: BACS"">EhRmCMdP</p>","","","","","","","","",""
"html-keyboard-response","287","557688","0.0-14.0-0.36","614c80483d06dcf7ad552679","650c16f0f2faf8d7a0d14c09","651d21e10e2b5ec85594ef21","null","null","<p style=""font-size: 60px; font-family: BACS"">EltMBRdCc</p>","","","","","","","","",""
"html-keyboard-response","288","558695","0.0-14.0-0.37","614c80483d06dcf7ad552679","650c16f0f2faf8d7a0d14c09","651d21e10e2b5ec85594ef21","null","null","<p style=""font-size: 60px; font-family: BACS"">McMDYTOM</p>","","","","","","","","",""
"html-keyboard-response","289","559706","0.0-14.0-0.38","614c80483d06dcf7ad552679","650c16f0f2faf8d7a0d14c09","651d21e10e2b5ec85594ef21","null","null","<p style=""font-size: 60px; font-family: BACS"">vYLUvJQ</p>","","","","","","","","",""
"html-keyboard-response","290","560713","0.0-14.0-0.39","614c80483d06dcf7ad552679","650c16f0f2faf8d7a0d14c09","651d21e10e2b5ec85594ef21","null","null","<p style=""font-size: 60px; font-family: BACS"">dYdATbk</p>","","","","","","","","",""
"html-keyboard-response","291","561727","0.0-14.0-0.40","614c80483d06dcf7ad552679","650c16f0f2faf8d7a0d14c09","651d21e10e2b5ec85594ef21","null","null","<p style=""font-size: 60px; font-family: BACS"">LuaUkam</p>","","","","","","","","",""
"html-keyboard-response","292","562747","0.0-14.0-0.41","614c80483d06dcf7ad552679","650c16f0f2faf8d7a0d14c09","651d21e10e2b5ec85594ef21","null","null","<p style=""font-size: 60px; font-family: BACS"">LckGNYZJO</p>","","","","","","","","",""
"html-keyboard-response","293","563757","0.0-14.0-0.42","614c80483d06dcf7ad552679","650c16f0f2faf8d7a0d14c09","651d21e10e2b5ec85594ef21","null","null","<p style=""font-size: 60px; font-family: BACS"">EhRmCPMl</p>","","","","","","","","",""
"html-keyboard-response","294","564769","0.0-14.0-0.43","614c80483d06dcf7ad552679","650c16f0f2faf8d7a0d14c09","651d21e10e2b5ec85594ef21","null","null","<p style=""font-size: 60px; font-family: BACS"">EltMBYTOM</p>","","","","","","","","",""
"html-keyboard-response","295","565776","0.0-14.0-0.44","614c80483d06dcf7ad552679","650c16f0f2faf8d7a0d14c09","651d21e10e2b5ec85594ef21","null","null","<p style=""font-size: 60px; font-family: BACS"">McMDCPMl</p>","","","","","","","","",""
"html-keyboard-response","296","566792","0.0-14.0-0.45","614c80483d06dcf7ad552679","650c16f0f2faf8d7a0d14c09","651d21e10e2b5ec85594ef21","null","null","<p style=""font-size: 60px; font-family: BACS"">TDKhRdCc</p>","","","","","","","","",""
"html-keyboard-response","297","567796","0.0-14.0-0.46","614c80483d06dcf7ad552679","650c16f0f2faf8d7a0d14c09","651d21e10e2b5ec85594ef21","null","null","<p style=""font-size: 60px; font-family: BACS"">LOLkUvJQ</p>","","","","","","","","",""
"html-keyboard-response","298","568804","0.0-14.0-0.47","614c80483d06dcf7ad552679","650c16f0f2faf8d7a0d14c09","651d21e10e2b5ec85594ef21","null","null","<p style=""font-size: 60px; font-family: BACS"">LckGNkam</p>","","","","","","","","",""
"html-keyboard-response","299","569813","0.0-14.0-0.48","614c80483d06dcf7ad552679","650c16f0f2faf8d7a0d14c09","651d21e10e2b5ec85594ef21","null","null","<p style=""font-size: 60px; font-family: BACS"">cROMtYTOM</p>","","","","","","","","",""
"html-keyboard-response","300","570821","0.0-14.0-0.49","614c80483d06dcf7ad552679","650c16f0f2faf8d7a0d14c09","651d21e10e2b5ec85594ef21","null","null","<p style=""font-size: 60px; font-family: BACS"">BOCRMRdCc</p>","","","","","","","","",""
"html-keyboard-response","301","571837","0.0-14.0-0.50","614c80483d06dcf7ad552679","650c16f0f2faf8d7a0d14c09","651d21e10e2b5ec85594ef21","null","null","<p style=""font-size: 60px; font-family: BACS"">bGuOkam</p>","","","","","","","","",""
"html-keyboard-response","302","572846","0.0-14.0-0.51","614c80483d06dcf7ad552679","650c16f0f2faf8d7a0d14c09","651d21e10e2b5ec85594ef21","null","null","<p style=""font-size: 60px; font-family: BACS"">dYdACPMl</p>","","","","","","","","",""
"html-keyboard-response","303","573863","0.0-14.0-0.52","614c80483d06dcf7ad552679","650c16f0f2faf8d7a0d14c09","651d21e10e2b5ec85594ef21","null","null","<p style=""font-size: 60px; font-family: BACS"">BOCRMTbk</p>","","","","","","","","",""
"html-keyboard-response","304","574872","0.0-14.0-0.53","614c80483d06dcf7ad552679","650c16f0f2faf8d7a0d14c09","651d21e10e2b5ec85594ef21","null","null","<p style=""font-size: 60px; font-family: BACS"">LuaUvJQ</p>","","","","","","","","",""
"html-keyboard-response","305","575873","0.0-14.0-0.54","614c80483d06dcf7ad552679","650c16f0f2faf8d7a0d14c09","651d21e10e2b5ec85594ef21","null","null","<p style=""font-size: 60px; font-family: BACS"">LckGNkdrO</p>","","","","","","","","",""
"html-keyboard-response","306","576880","0.0-14.0-0.55","614c80483d06dcf7ad552679","650c16f0f2faf8d7a0d14c09","651d21e10e2b5ec85594ef21","null","null","<p style=""font-size: 60px; font-family: BACS"">vYLUkam</p>","","","","","","","","",""
"html-keyboard-response","307","577882","0.0-14.0-0.56","614c80483d06dcf7ad552679","650c16f0f2faf8d7a0d14c09","651d21e10e2b5ec85594ef21","null","null","<p style=""font-size: 60px; font-family: BACS"">ObOQlYZJO</p>","","","","","","","","",""
"html-keyboard-response","308","578896","0.0-14.0-0.57","614c80483d06dcf7ad552679","650c16f0f2faf8d7a0d14c09","651d21e10e2b5ec85594ef21","null","null","<p style=""font-size: 60px; font-family: BACS"">AJLruUY</p>","","","","","","","","",""
"html-keyboard-response","309","579900","0.0-14.0-0.58","614c80483d06dcf7ad552679","650c16f0f2faf8d7a0d14c09","651d21e10e2b5ec85594ef21","null","null","<p style=""font-size: 60px; font-family: BACS"">YlYcRdCc</p>","","","","","","","","",""
"html-keyboard-response","310","580908","0.0-14.0-0.59","614c80483d06dcf7ad552679","650c16f0f2faf8d7a0d14c09","651d21e10e2b5ec85594ef21","null","null","<p style=""font-size: 60px; font-family: BACS"">RlAKcTbk</p>","","","","","","","","",""
"html-keyboard-response","311","581913","0.0-14.0-0.60","614c80483d06dcf7ad552679","650c16f0f2faf8d7a0d14c09","651d21e10e2b5ec85594ef21","null","null","<p style=""font-size: 60px; font-family: BACS"">mcOJYZJO</p>","","","","","","","","",""
"html-keyboard-response","312","582923","0.0-14.0-0.61","614c80483d06dcf7ad552679","650c16f0f2faf8d7a0d14c09","651d21e10e2b5ec85594ef21","null","null","<p style=""font-size: 60px; font-family: BACS"">EltMBCPMl</p>","","","","","","","","",""
"html-keyboard-response","313","583937","0.0-14.0-0.62","614c80483d06dcf7ad552679","650c16f0f2faf8d7a0d14c09","651d21e10e2b5ec85594ef21","null","null","<p style=""font-size: 60px; font-family: BACS"">mcOJvJQ</p>","","","","","","","","",""
"html-keyboard-response","314","584946","0.0-14.0-0.63","614c80483d06dcf7ad552679","650c16f0f2faf8d7a0d14c09","651d21e10e2b5ec85594ef21","null","null","<p style=""font-size: 60px; font-family: BACS"">LuaUkdrO</p>","","","","","","","","",""
"html-keyboard-response","315","585962","0.0-14.0-0.64","614c80483d06dcf7ad552679","650c16f0f2faf8d7a0d14c09","651d21e10e2b5ec85594ef21","null","null","<p style=""font-size: 60px; font-family: BACS"">cROMtCPMl</p>","","","","","","","","",""
"html-keyboard-response","316","586974","0.0-14.0-0.65","614c80483d06dcf7ad552679","650c16f0f2faf8d7a0d14c09","651d21e10e2b5ec85594ef21","null","null","<p style=""font-size: 60px; font-family: BACS"">kcdOtCMdP</p>","","","","","","","","",""
"html-keyboard-response","317","587987","0.0-14.0-0.66","614c80483d06dcf7ad552679","650c16f0f2faf8d7a0d14c09","651d21e10e2b5ec85594ef21","null","null","<p style=""font-size: 60px; font-family: BACS"">LOLkUkam</p>","","","","","","","","",""
"html-keyboard-response","318","588996","0.0-14.0-0.67","614c80483d06dcf7ad552679","650c16f0f2faf8d7a0d14c09","651d21e10e2b5ec85594ef21","null","null","<p style=""font-size: 60px; font-family: BACS"">RlAKcRdCc</p>","","","","","","","","",""
"html-keyboard-response","319","590013","0.0-14.0-0.68","614c80483d06dcf7ad552679","650c16f0f2faf8d7a0d14c09","651d21e10e2b5ec85594ef21","null","null","<p style=""font-size: 60px; font-family: BACS"">McMDCMdP</p>","","","","","","","","",""
"html-keyboard-response","320","591026","0.0-14.0-0.69","614c80483d06dcf7ad552679","650c16f0f2faf8d7a0d14c09","651d21e10e2b5ec85594ef21","null","null","<p style=""font-size: 60px; font-family: BACS"">EhRmYTOM</p>","","","","","","","","",""
"html-keyboard-response","321","592029","0.0-14.0-0.70","614c80483d06dcf7ad552679","650c16f0f2faf8d7a0d14c09","651d21e10e2b5ec85594ef21","null","null","<p style=""font-size: 60px; font-family: BACS"">LckGNuUY</p>","","","","","","","","",""
"html-keyboard-response","322","593045","0.0-14.0-0.71","614c80483d06dcf7ad552679","650c16f0f2faf8d7a0d14c09","651d21e10e2b5ec85594ef21","null","null","<p style=""font-size: 60px; font-family: BACS"">EltMBCMdP</p>","","","","","","","","",""
"html-keyboard-response","323","594054","0.0-14.0-0.72","614c80483d06dcf7ad552679","650c16f0f2faf8d7a0d14c09","651d21e10e2b5ec85594ef21","null","null","<p style=""font-size: 60px; font-family: BACS"">RlAKcYTOM</p>","","","","","","","","",""
"html-keyboard-response","324","595069","0.0-14.0-0.73","614c80483d06dcf7ad552679","650c16f0f2faf8d7a0d14c09","651d21e10e2b5ec85594ef21","null","null","<p style=""font-size: 60px; font-family: BACS"">AJLrvJQ</p>","","","","","","","","",""
"html-keyboard-response","325","596079","0.0-14.0-0.74","614c80483d06dcf7ad552679","650c16f0f2faf8d7a0d14c09","651d21e10e2b5ec85594ef21","null","null","<p style=""font-size: 60px; font-family: BACS"">kcdOtRdCc</p>","","","","","","","","",""
"html-keyboard-response","326","597094","0.0-14.0-0.75","614c80483d06dcf7ad552679","650c16f0f2faf8d7a0d14c09","651d21e10e2b5ec85594ef21","null","null","<p style=""font-size: 60px; font-family: BACS"">vYLUkdrO</p>","","","","","","","","",""
"html-keyboard-response","327","598097","0.0-14.0-0.76","614c80483d06dcf7ad552679","650c16f0f2faf8d7a0d14c09","651d21e10e2b5ec85594ef21","null","null","<p style=""font-size: 60px; font-family: BACS"">cROMtCMdP</p>","","","","","","","","",""
"html-keyboard-response","328","599112","0.0-14.0-0.77","614c80483d06dcf7ad552679","650c16f0f2faf8d7a0d14c09","651d21e10e2b5ec85594ef21","null","null","<p style=""font-size: 60px; font-family: BACS"">dYdARdCc</p>","","","","","","","","",""
"html-keyboard-response","329","600125","0.0-14.0-0.78","614c80483d06dcf7ad552679","650c16f0f2faf8d7a0d14c09","651d21e10e2b5ec85594ef21","null","null","<p style=""font-size: 60px; font-family: BACS"">ObOQlvJQ</p>","","","","","","","","",""
"html-keyboard-response","330","601128","0.0-14.0-0.79","614c80483d06dcf7ad552679","650c16f0f2faf8d7a0d14c09","651d21e10e2b5ec85594ef21","null","null","<p style=""font-size: 60px; font-family: BACS"">NbacAkdrO</p>","","","","","","","","",""
"html-keyboard-response","331","603863","0.0-15.0","614c80483d06dcf7ad552679","650c16f0f2faf8d7a0d14c09","651d21e10e2b5ec85594ef21","2734"," ","<p>Great, you've seen the fourth block of words. You may now take a short break.</p>
      <p>Press the spacebar when you're ready to continue.</p>","","","","","","","","",""
"html-keyboard-response","332","604872","0.0-16.0-0.0","614c80483d06dcf7ad552679","650c16f0f2faf8d7a0d14c09","651d21e10e2b5ec85594ef21","null","null","<p style=""font-size: 60px; font-family: BACS"">AJLrvJQ</p>","","","","","","","","",""
"html-keyboard-response","333","605887","0.0-16.0-0.1","614c80483d06dcf7ad552679","650c16f0f2faf8d7a0d14c09","651d21e10e2b5ec85594ef21","null","null","<p style=""font-size: 60px; font-family: BACS"">AJLrvJQ</p>","","","","","","","","",""
"html-keyboard-response","334","606895","0.0-16.0-0.2","614c80483d06dcf7ad552679","650c16f0f2faf8d7a0d14c09","651d21e10e2b5ec85594ef21","null","null","<p style=""font-size: 60px; font-family: BACS"">AJLrvJQ</p>","","","","","","","","",""
"html-keyboard-response","335","607906","0.0-16.0-0.3","614c80483d06dcf7ad552679","650c16f0f2faf8d7a0d14c09","651d21e10e2b5ec85594ef21","null","null","<p style=""font-size: 60px; font-family: BACS"">AJLrvJQ</p>","","","","","","","","",""
"html-keyboard-response","336","608922","0.0-16.0-0.4","614c80483d06dcf7ad552679","650c16f0f2faf8d7a0d14c09","651d21e10e2b5ec85594ef21","null","null","<p style=""font-size: 60px; font-family: BACS"">AJLrvJQ</p>","","","","","","","","",""
"html-keyboard-response","337","609937","0.0-16.0-0.5","614c80483d06dcf7ad552679","650c16f0f2faf8d7a0d14c09","651d21e10e2b5ec85594ef21","null","null","<p style=""font-size: 60px; font-family: BACS"">AJLrvJQ</p>","","","","","","","","",""
"html-keyboard-response","338","610947","0.0-16.0-0.6","614c80483d06dcf7ad552679","650c16f0f2faf8d7a0d14c09","651d21e10e2b5ec85594ef21","null","null","<p style=""font-size: 60px; font-family: BACS"">AJLrvJQ</p>","","","","","","","","",""
"html-keyboard-response","339","611956","0.0-16.0-0.7","614c80483d06dcf7ad552679","650c16f0f2faf8d7a0d14c09","651d21e10e2b5ec85594ef21","null","null","<p style=""font-size: 60px; font-family: BACS"">AJLrvJQ</p>","","","","","","","","",""
"html-keyboard-response","340","612959","0.0-16.0-0.8","614c80483d06dcf7ad552679","650c16f0f2faf8d7a0d14c09","651d21e10e2b5ec85594ef21","null","null","<p style=""font-size: 60px; font-family: BACS"">AJLrvJQ</p>","","","","","","","","",""
"html-keyboard-response","341","613974","0.0-16.0-0.9","614c80483d06dcf7ad552679","650c16f0f2faf8d7a0d14c09","651d21e10e2b5ec85594ef21","null","null","<p style=""font-size: 60px; font-family: BACS"">AJLrvJQ</p>","","","","","","","","",""
"html-keyboard-response","342","614984","0.0-16.0-0.10","614c80483d06dcf7ad552679","650c16f0f2faf8d7a0d14c09","651d21e10e2b5ec85594ef21","null","null","<p style=""font-size: 60px; font-family: BACS"">AJLrvJQ</p>","","","","","","","","",""
"html-keyboard-response","343","615985","0.0-16.0-0.11","614c80483d06dcf7ad552679","650c16f0f2faf8d7a0d14c09","651d21e10e2b5ec85594ef21","null","null","<p style=""font-size: 60px; font-family: BACS"">AJLrvJQ</p>","","","","","","","","",""
"html-keyboard-response","344","616988","0.0-16.0-0.12","614c80483d06dcf7ad552679","650c16f0f2faf8d7a0d14c09","651d21e10e2b5ec85594ef21","null","null","<p style=""font-size: 60px; font-family: BACS"">AJLrvJQ</p>","","","","","","","","",""
"html-keyboard-response","345","617994","0.0-16.0-0.13","614c80483d06dcf7ad552679","650c16f0f2faf8d7a0d14c09","651d21e10e2b5ec85594ef21","null","null","<p style=""font-size: 60px; font-family: BACS"">AJLrvJQ</p>","","","","","","","","",""
"html-keyboard-response","346","619011","0.0-16.0-0.14","614c80483d06dcf7ad552679","650c16f0f2faf8d7a0d14c09","651d21e10e2b5ec85594ef21","null","null","<p style=""font-size: 60px; font-family: BACS"">AJLrvJQ</p>","","","","","","","","",""
"html-keyboard-response","347","620025","0.0-16.0-0.15","614c80483d06dcf7ad552679","650c16f0f2faf8d7a0d14c09","651d21e10e2b5ec85594ef21","null","null","<p style=""font-size: 60px; font-family: BACS"">AJLrvJQ</p>","","","","","","","","",""
"html-keyboard-response","348","621028","0.0-16.0-0.16","614c80483d06dcf7ad552679","650c16f0f2faf8d7a0d14c09","651d21e10e2b5ec85594ef21","null","null","<p style=""font-size: 60px; font-family: BACS"">AJLrvJQ</p>","","","","","","","","",""
"html-keyboard-response","349","622039","0.0-16.0-0.17","614c80483d06dcf7ad552679","650c16f0f2faf8d7a0d14c09","651d21e10e2b5ec85594ef21","null","null","<p style=""font-size: 60px; font-family: BACS"">AJLrvJQ</p>","","","","","","","","",""
"html-keyboard-response","350","623042","0.0-16.0-0.18","614c80483d06dcf7ad552679","650c16f0f2faf8d7a0d14c09","651d21e10e2b5ec85594ef21","null","null","<p style=""font-size: 60px; font-family: BACS"">AJLrvJQ</p>","","","","","","","","",""
"html-keyboard-response","351","624043","0.0-16.0-0.19","614c80483d06dcf7ad552679","650c16f0f2faf8d7a0d14c09","651d21e10e2b5ec85594ef21","null","null","<p style=""font-size: 60px; font-family: BACS"">AJLrvJQ</p>","","","","","","","","",""
"html-keyboard-response","352","625053","0.0-16.0-0.20","614c80483d06dcf7ad552679","650c16f0f2faf8d7a0d14c09","651d21e10e2b5ec85594ef21","null","null","<p style=""font-size: 60px; font-family: BACS"">AJLrvJQ</p>","","","","","","","","",""
"html-keyboard-response","353","626060","0.0-16.0-0.21","614c80483d06dcf7ad552679","650c16f0f2faf8d7a0d14c09","651d21e10e2b5ec85594ef21","null","null","<p style=""font-size: 60px; font-family: BACS"">AJLrvJQ</p>","","","","","","","","",""
"html-keyboard-response","354","627074","0.0-16.0-0.22","614c80483d06dcf7ad552679","650c16f0f2faf8d7a0d14c09","651d21e10e2b5ec85594ef21","null","null","<p style=""font-size: 60px; font-family: BACS"">AJLrvJQ</p>","","","","","","","","",""
"html-keyboard-response","355","628090","0.0-16.0-0.23","614c80483d06dcf7ad552679","650c16f0f2faf8d7a0d14c09","651d21e10e2b5ec85594ef21","null","null","<p style=""font-size: 60px; font-family: BACS"">AJLrvJQ</p>","","","","","","","","",""
"html-keyboard-response","356","629094","0.0-16.0-0.24","614c80483d06dcf7ad552679","650c16f0f2faf8d7a0d14c09","651d21e10e2b5ec85594ef21","null","null","<p style=""font-size: 60px; font-family: BACS"">AJLrvJQ</p>","","","","","","","","",""
"html-keyboard-response","357","630110","0.0-16.0-0.25","614c80483d06dcf7ad552679","650c16f0f2faf8d7a0d14c09","651d21e10e2b5ec85594ef21","null","null","<p style=""font-size: 60px; font-family: BACS"">AJLrvJQ</p>","","","","","","","","",""
"html-keyboard-response","358","631127","0.0-16.0-0.26","614c80483d06dcf7ad552679","650c16f0f2faf8d7a0d14c09","651d21e10e2b5ec85594ef21","null","null","<p style=""font-size: 60px; font-family: BACS"">AJLrvJQ</p>","","","","","","","","",""
"html-keyboard-response","359","632135","0.0-16.0-0.27","614c80483d06dcf7ad552679","650c16f0f2faf8d7a0d14c09","651d21e10e2b5ec85594ef21","null","null","<p style=""font-size: 60px; font-family: BACS"">AJLrvJQ</p>","","","","","","","","",""
"html-keyboard-response","360","633137","0.0-16.0-0.28","614c80483d06dcf7ad552679","650c16f0f2faf8d7a0d14c09","651d21e10e2b5ec85594ef21","null","null","<p style=""font-size: 60px; font-family: BACS"">AJLrvJQ</p>","","","","","","","","",""
"html-keyboard-response","361","634140","0.0-16.0-0.29","614c80483d06dcf7ad552679","650c16f0f2faf8d7a0d14c09","651d21e10e2b5ec85594ef21","null","null","<p style=""font-size: 60px; font-family: BACS"">AJLrvJQ</p>","","","","","","","","",""
"html-keyboard-response","362","635144","0.0-16.0-0.30","614c80483d06dcf7ad552679","650c16f0f2faf8d7a0d14c09","651d21e10e2b5ec85594ef21","null","null","<p style=""font-size: 60px; font-family: BACS"">AJLrvJQ</p>","","","","","","","","",""
"html-keyboard-response","363","636156","0.0-16.0-0.31","614c80483d06dcf7ad552679","650c16f0f2faf8d7a0d14c09","651d21e10e2b5ec85594ef21","null","null","<p style=""font-size: 60px; font-family: BACS"">AJLrvJQ</p>","","","","","","","","",""
"html-keyboard-response","364","637170","0.0-16.0-0.32","614c80483d06dcf7ad552679","650c16f0f2faf8d7a0d14c09","651d21e10e2b5ec85594ef21","null","null","<p style=""font-size: 60px; font-family: BACS"">AJLrvJQ</p>","","","","","","","","",""
"html-keyboard-response","365","638176","0.0-16.0-0.33","614c80483d06dcf7ad552679","650c16f0f2faf8d7a0d14c09","651d21e10e2b5ec85594ef21","null","null","<p style=""font-size: 60px; font-family: BACS"">AJLrvJQ</p>","","","","","","","","",""
"html-keyboard-response","366","639185","0.0-16.0-0.34","614c80483d06dcf7ad552679","650c16f0f2faf8d7a0d14c09","651d21e10e2b5ec85594ef21","null","null","<p style=""font-size: 60px; font-family: BACS"">AJLrvJQ</p>","","","","","","","","",""
"html-keyboard-response","367","640201","0.0-16.0-0.35","614c80483d06dcf7ad552679","650c16f0f2faf8d7a0d14c09","651d21e10e2b5ec85594ef21","null","null","<p style=""font-size: 60px; font-family: BACS"">AJLrvJQ</p>","","","","","","","","",""
"html-keyboard-response","368","641205","0.0-16.0-0.36","614c80483d06dcf7ad552679","650c16f0f2faf8d7a0d14c09","651d21e10e2b5ec85594ef21","null","null","<p style=""font-size: 60px; font-family: BACS"">AJLrvJQ</p>","","","","","","","","",""
"html-keyboard-response","369","642210","0.0-16.0-0.37","614c80483d06dcf7ad552679","650c16f0f2faf8d7a0d14c09","651d21e10e2b5ec85594ef21","null","null","<p style=""font-size: 60px; font-family: BACS"">AJLrvJQ</p>","","","","","","","","",""
"html-keyboard-response","370","643225","0.0-16.0-0.38","614c80483d06dcf7ad552679","650c16f0f2faf8d7a0d14c09","651d21e10e2b5ec85594ef21","null","null","<p style=""font-size: 60px; font-family: BACS"">AJLrvJQ</p>","","","","","","","","",""
"html-keyboard-response","371","644235","0.0-16.0-0.39","614c80483d06dcf7ad552679","650c16f0f2faf8d7a0d14c09","651d21e10e2b5ec85594ef21","null","null","<p style=""font-size: 60px; font-family: BACS"">AJLrvJQ</p>","","","","","","","","",""
"html-keyboard-response","372","645243","0.0-16.0-0.40","614c80483d06dcf7ad552679","650c16f0f2faf8d7a0d14c09","651d21e10e2b5ec85594ef21","null","null","<p style=""font-size: 60px; font-family: BACS"">AJLrvJQ</p>","","","","","","","","",""
"html-keyboard-response","373","646259","0.0-16.0-0.41","614c80483d06dcf7ad552679","650c16f0f2faf8d7a0d14c09","651d21e10e2b5ec85594ef21","null","null","<p style=""font-size: 60px; font-family: BACS"">AJLrvJQ</p>","","","","","","","","",""
"html-keyboard-response","374","647268","0.0-16.0-0.42","614c80483d06dcf7ad552679","650c16f0f2faf8d7a0d14c09","651d21e10e2b5ec85594ef21","null","null","<p style=""font-size: 60px; font-family: BACS"">AJLrvJQ</p>","","","","","","","","",""
"html-keyboard-response","375","648277","0.0-16.0-0.43","614c80483d06dcf7ad552679","650c16f0f2faf8d7a0d14c09","651d21e10e2b5ec85594ef21","null","null","<p style=""font-size: 60px; font-family: BACS"">AJLrvJQ</p>","","","","","","","","",""
"html-keyboard-response","376","649281","0.0-16.0-0.44","614c80483d06dcf7ad552679","650c16f0f2faf8d7a0d14c09","651d21e10e2b5ec85594ef21","null","null","<p style=""font-size: 60px; font-family: BACS"">AJLrvJQ</p>","","","","","","","","",""
"html-keyboard-response","377","650290","0.0-16.0-0.45","614c80483d06dcf7ad552679","650c16f0f2faf8d7a0d14c09","651d21e10e2b5ec85594ef21","null","null","<p style=""font-size: 60px; font-family: BACS"">AJLrvJQ</p>","","","","","","","","",""
"html-keyboard-response","378","651302","0.0-16.0-0.46","614c80483d06dcf7ad552679","650c16f0f2faf8d7a0d14c09","651d21e10e2b5ec85594ef21","null","null","<p style=""font-size: 60px; font-family: BACS"">AJLrvJQ</p>","","","","","","","","",""
"html-keyboard-response","379","652319","0.0-16.0-0.47","614c80483d06dcf7ad552679","650c16f0f2faf8d7a0d14c09","651d21e10e2b5ec85594ef21","null","null","<p style=""font-size: 60px; font-family: BACS"">AJLrvJQ</p>","","","","","","","","",""
"html-keyboard-response","380","653320","0.0-16.0-0.48","614c80483d06dcf7ad552679","650c16f0f2faf8d7a0d14c09","651d21e10e2b5ec85594ef21","null","null","<p style=""font-size: 60px; font-family: BACS"">AJLrvJQ</p>","","","","","","","","",""
"html-keyboard-response","381","654326","0.0-16.0-0.49","614c80483d06dcf7ad552679","650c16f0f2faf8d7a0d14c09","651d21e10e2b5ec85594ef21","null","null","<p style=""font-size: 60px; font-family: BACS"">AJLrvJQ</p>","","","","","","","","",""
"html-keyboard-response","382","655342","0.0-16.0-0.50","614c80483d06dcf7ad552679","650c16f0f2faf8d7a0d14c09","651d21e10e2b5ec85594ef21","null","null","<p style=""font-size: 60px; font-family: BACS"">AJLrvJQ</p>","","","","","","","","",""
"html-keyboard-response","383","656359","0.0-16.0-0.51","614c80483d06dcf7ad552679","650c16f0f2faf8d7a0d14c09","651d21e10e2b5ec85594ef21","null","null","<p style=""font-size: 60px; font-family: BACS"">AJLrvJQ</p>","","","","","","","","",""
"html-keyboard-response","384","657370","0.0-16.0-0.52","614c80483d06dcf7ad552679","650c16f0f2faf8d7a0d14c09","651d21e10e2b5ec85594ef21","null","null","<p style=""font-size: 60px; font-family: BACS"">AJLrvJQ</p>","","","","","","","","",""
"html-keyboard-response","385","658373","0.0-16.0-0.53","614c80483d06dcf7ad552679","650c16f0f2faf8d7a0d14c09","651d21e10e2b5ec85594ef21","null","null","<p style=""font-size: 60px; font-family: BACS"">AJLrvJQ</p>","","","","","","","","",""
"html-keyboard-response","386","659376","0.0-16.0-0.54","614c80483d06dcf7ad552679","650c16f0f2faf8d7a0d14c09","651d21e10e2b5ec85594ef21","null","null","<p style=""font-size: 60px; font-family: BACS"">AJLrvJQ</p>","","","","","","","","",""
"html-keyboard-response","387","660385","0.0-16.0-0.55","614c80483d06dcf7ad552679","650c16f0f2faf8d7a0d14c09","651d21e10e2b5ec85594ef21","null","null","<p style=""font-size: 60px; font-family: BACS"">AJLrvJQ</p>","","","","","","","","",""
"html-keyboard-response","388","661392","0.0-16.0-0.56","614c80483d06dcf7ad552679","650c16f0f2faf8d7a0d14c09","651d21e10e2b5ec85594ef21","null","null","<p style=""font-size: 60px; font-family: BACS"">AJLrvJQ</p>","","","","","","","","",""
"html-keyboard-response","389","662395","0.0-16.0-0.57","614c80483d06dcf7ad552679","650c16f0f2faf8d7a0d14c09","651d21e10e2b5ec85594ef21","null","null","<p style=""font-size: 60px; font-family: BACS"">AJLrvJQ</p>","","","","","","","","",""
"html-keyboard-response","390","663402","0.0-16.0-0.58","614c80483d06dcf7ad552679","650c16f0f2faf8d7a0d14c09","651d21e10e2b5ec85594ef21","null","null","<p style=""font-size: 60px; font-family: BACS"">AJLrvJQ</p>","","","","","","","","",""
"html-keyboard-response","391","664405","0.0-16.0-0.59","614c80483d06dcf7ad552679","650c16f0f2faf8d7a0d14c09","651d21e10e2b5ec85594ef21","null","null","<p style=""font-size: 60px; font-family: BACS"">AJLrvJQ</p>","","","","","","","","",""
"html-keyboard-response","392","665413","0.0-16.0-0.60","614c80483d06dcf7ad552679","650c16f0f2faf8d7a0d14c09","651d21e10e2b5ec85594ef21","null","null","<p style=""font-size: 60px; font-family: BACS"">AJLrvJQ</p>","","","","","","","","",""
"html-keyboard-response","393","666424","0.0-16.0-0.61","614c80483d06dcf7ad552679","650c16f0f2faf8d7a0d14c09","651d21e10e2b5ec85594ef21","null","null","<p style=""font-size: 60px; font-family: BACS"">AJLrvJQ</p>","","","","","","","","",""
"html-keyboard-response","394","667429","0.0-16.0-0.62","614c80483d06dcf7ad552679","650c16f0f2faf8d7a0d14c09","651d21e10e2b5ec85594ef21","null","null","<p style=""font-size: 60px; font-family: BACS"">AJLrvJQ</p>","","","","","","","","",""
"html-keyboard-response","395","668441","0.0-16.0-0.63","614c80483d06dcf7ad552679","650c16f0f2faf8d7a0d14c09","651d21e10e2b5ec85594ef21","null","null","<p style=""font-size: 60px; font-family: BACS"">AJLrvJQ</p>","","","","","","","","",""
"html-keyboard-response","396","669443","0.0-16.0-0.64","614c80483d06dcf7ad552679","650c16f0f2faf8d7a0d14c09","651d21e10e2b5ec85594ef21","null","null","<p style=""font-size: 60px; font-family: BACS"">AJLrvJQ</p>","","","","","","","","",""
"html-keyboard-response","397","670451","0.0-16.0-0.65","614c80483d06dcf7ad552679","650c16f0f2faf8d7a0d14c09","651d21e10e2b5ec85594ef21","null","null","<p style=""font-size: 60px; font-family: BACS"">AJLrvJQ</p>","","","","","","","","",""
"html-keyboard-response","398","671459","0.0-16.0-0.66","614c80483d06dcf7ad552679","650c16f0f2faf8d7a0d14c09","651d21e10e2b5ec85594ef21","null","null","<p style=""font-size: 60px; font-family: BACS"">AJLrvJQ</p>","","","","","","","","",""
"html-keyboard-response","399","672474","0.0-16.0-0.67","614c80483d06dcf7ad552679","650c16f0f2faf8d7a0d14c09","651d21e10e2b5ec85594ef21","null","null","<p style=""font-size: 60px; font-family: BACS"">AJLrvJQ</p>","","","","","","","","",""
"html-keyboard-response","400","673484","0.0-16.0-0.68","614c80483d06dcf7ad552679","650c16f0f2faf8d7a0d14c09","651d21e10e2b5ec85594ef21","null","null","<p style=""font-size: 60px; font-family: BACS"">AJLrvJQ</p>","","","","","","","","",""
