"trial_type","trial_index","time_elapsed","internal_node_id","subject_id","study_id","session_id","rt","response","stimulus","success","item","task","correct_response","correct","target","confound","name"
"pavlovia","0","4494","0.0-0.0","615c43b800752a4f3d0fd1f0","64afc2c9a8732ea92db0087d","64afd73e39e8fbd7f8d2b47f","","","","","","","","","","",""
"survey-html-form","1","12249","0.0-1.0","615c43b800752a4f3d0fd1f0","64afc2c9a8732ea92db0087d","64afd73e39e8fbd7f8d2b47f","7753","{""ID"":""615c43b800752a4f3d0fd1f0""}","","","","","","","","",""
"html-keyboard-response","2","15498","0.0-2.0","615c43b800752a4f3d0fd1f0","64afc2c9a8732ea92db0087d","64afd73e39e8fbd7f8d2b47f","3248"," ","<p style=""font-size: 15px;"">Prima di cominciare, le chiediamo di leggere il modulo di consenso informato e confermare la sua volontà di partecipare all'esperimento.</p>
      <p style=""font-size: 15px;""> La preghiamo di ricordare che questo è un progetto di ricerca e che la sua partecipazione è completamente volontaria. Lei si potra' ritirare in qualunque momento, senza necessariamente dover dare alcuna spiegazione. Lo studio al quale Le si chiede di partecipare ha lo scopo di esaminare come i lettori elaborano le parole scritte. La somministrazione delle prove è individuale. Lei sarà impegnato in una sessione di lavoro della durata media di 10 minuti, e un questionario di 10 minuti. L’ordine delle prove ed il loro svolgimento sono stabiliti in modo tale da evitare un eventuale affaticamento. Tutte le prove saranno precedute da un breve addestramento in modo tale che abbia la possibilità di familiarizzare con il compito. Sono previste alcune pause nel corso dello svolgimento dell’esperimento. Una ricompensa di £4 (£8 per ora) Le verrà consegnata al termine della sessione di testing. Nonostante il testing preveda delle prove cognitive, il presente esperimento non costituisce una prova clinica che permetta la diagnosi di eventuali patologie.</p>
      <p style=""font-size: 15px;"">Tutti i dati raccolti grazie alla partecipazione Sua e di altre persone volontarie saranno custoditi in server sicuri e protetti da password, e non sarà consentito ad alcuna persona non autorizzata di accedervi. Le Sue informazioni personali saranno conservate separatamente dai risultati della presente ricerca, cui saranno associati soltanto attraverso un ID arbitrario. Grazie a questo processo di anonimizzazione dei dati, a nessun ricercatore sarà possibile analizzare i risultati sapendo da quale specifico partecipante essi provengono. Inoltre, questa procedura renderà impossibile la Sua identificazione anche nel momento in cui i risultati della ricerca fossero pubblicati su riviste scientifiche, o presentati a congressi o in qualsiasi altro pubblico consesso. Più in generale, i dati raccolti saranno trattati in accordo con le leggi sulla privacy e in conformità al Decreto Legislativo 30 giugno 2003 n. 196 “Codice in materia di protezione dei dati personali” e al Regolamento Europeo 2016/679 (General Data Protection Regulation - GDPR). Il Responsabile della protezione dei dati (RPD) è l’Avv. Valentina Carollo che può essere contattato ai seguenti indirizzi email: <a href=""mailto:dpo@sissa.it"">dpo@sissa.it</a> oppure <a href=""mailto:rpd@sissa.it"">rpd@sissa.it</a> - PEC: <a href=""mailto:protocollo@pec.sissa.it"">protocollo@pec.sissa.it</a>.</p>
      <p style=""font-size: 15px;""> Prima di esprimere il suo consenso alla partecipazione, Le ricordiamo ancora che in caso Lei abbia bisogno di delucidazioni su qualunque aspetto della procedura sperimentale, il ricercatore è a Sua completa disposizione (<a href=""mailto:aliebelt@sissa.it"">aliebelt@sissa.it</a>, <a href=""mailto:davide.crepaldi@sissa.it"">davide.crepaldi@sissa.it</a>).</p>
      <p style=""font-size: 15px;"">Se vuole scaricare il modulo di consenso informato, clicca qui: <a href=""BASL_modulo_consenso.pdf"" download>modulo di consenso</a>.</p>
      <p style=""font-size: 15px;""> Le chiediamo di premere la barra per continuare al consenso.</p>","","","","","","","",""
"survey-html-form","3","24926","0.0-3.0","615c43b800752a4f3d0fd1f0","64afc2c9a8732ea92db0087d","64afd73e39e8fbd7f8d2b47f","9426","{""consent1"":""YES"",""consent2"":""YES"",""consent3"":""YES"",""consent4"":""YES"",""consent5"":""YES"",""consent6"":""YES""}","","","","","","","","",""
"fullscreen","4","28062","0.0-4.0","615c43b800752a4f3d0fd1f0","64afc2c9a8732ea92db0087d","64afd73e39e8fbd7f8d2b47f","","","","true","","","","","","",""
"html-keyboard-response","5","41003","0.0-5.0","615c43b800752a4f3d0fd1f0","64afc2c9a8732ea92db0087d","64afd73e39e8fbd7f8d2b47f","12939"," ","<p>Benvenuta/o, e grazie mille del tuo tempo!</p>
      <p>In questo esperimento sarai un esperto/un'esperta di linguaggio cui è stato chiesto di dare un'occhiata ad alcuni messaggi che la Terra ha ricevuto dallo spazio. Il tuo compito, in questa prima parte dell'esperimento, sarà di fare molta attenzione alle parole che ti verranno mostrate; più tardi, i leader del mondo ti chiederanno qualche informazione su quello che hai visto. Le parole si susseguiranno abbastanza velocemente; sembra che questi alieni abbiano una certa fretta :-) </p>
      <p>Per favore, chiama lo sperimentatore se ha qualche domanda.</p><p>Premi la barra per continuare.</p>","","","","","","","",""
"html-keyboard-response","6","50413","0.0-6.0","615c43b800752a4f3d0fd1f0","64afc2c9a8732ea92db0087d","64afd73e39e8fbd7f8d2b47f","9421"," ","<p>Ecco un esempio delle parole che vedrai:</p>
      <img src='esempio.png' height='400px'>
      <p>Quando sei pronti per iniziare, premi la barra.</p></div>","","","","","","","",""
"html-keyboard-response","7","51427","0.0-7.0-0.0","615c43b800752a4f3d0fd1f0","64afc2c9a8732ea92db0087d","64afd73e39e8fbd7f8d2b47f","null","null","<p style=""font-size: 60px; font-family: BACS"">kLvdNbadk</p>","","","","","","","",""
"html-keyboard-response","8","52444","0.0-7.0-0.1","615c43b800752a4f3d0fd1f0","64afc2c9a8732ea92db0087d","64afd73e39e8fbd7f8d2b47f","null","null","<p style=""font-size: 60px; font-family: BACS"">hlctETmc</p>","","","","","","","",""
"html-keyboard-response","9","53459","0.0-7.0-0.2","615c43b800752a4f3d0fd1f0","64afc2c9a8732ea92db0087d","64afd73e39e8fbd7f8d2b47f","null","null","<p style=""font-size: 60px; font-family: BACS"">RtRhcMRl</p>","","","","","","","",""
"html-keyboard-response","10","54461","0.0-7.0-0.3","615c43b800752a4f3d0fd1f0","64afc2c9a8732ea92db0087d","64afd73e39e8fbd7f8d2b47f","null","null","<p style=""font-size: 60px; font-family: BACS"">mcOJbadk</p>","","","","","","","",""
"html-keyboard-response","11","55475","0.0-7.0-0.4","615c43b800752a4f3d0fd1f0","64afc2c9a8732ea92db0087d","64afd73e39e8fbd7f8d2b47f","null","null","<p style=""font-size: 60px; font-family: BACS"">dmZvmkGua</p>","","","","","","","",""
"html-keyboard-response","12","56479","0.0-7.0-0.5","615c43b800752a4f3d0fd1f0","64afc2c9a8732ea92db0087d","64afd73e39e8fbd7f8d2b47f","null","null","<p style=""font-size: 60px; font-family: BACS"">blMkAkd</p>","","","","","","","",""
"html-keyboard-response","13","57494","0.0-7.0-0.6","615c43b800752a4f3d0fd1f0","64afc2c9a8732ea92db0087d","64afd73e39e8fbd7f8d2b47f","null","null","<p style=""font-size: 60px; font-family: BACS"">TCbDCATc</p>","","","","","","","",""
"html-keyboard-response","14","58509","0.0-7.0-0.7","615c43b800752a4f3d0fd1f0","64afc2c9a8732ea92db0087d","64afd73e39e8fbd7f8d2b47f","null","null","<p style=""font-size: 60px; font-family: BACS"">tdDdcMRl</p>","","","","","","","",""
"html-keyboard-response","15","59527","0.0-7.0-0.8","615c43b800752a4f3d0fd1f0","64afc2c9a8732ea92db0087d","64afd73e39e8fbd7f8d2b47f","null","null","<p style=""font-size: 60px; font-family: BACS"">mkmJNkGua</p>","","","","","","","",""
"html-keyboard-response","16","60544","0.0-7.0-0.9","615c43b800752a4f3d0fd1f0","64afc2c9a8732ea92db0087d","64afd73e39e8fbd7f8d2b47f","null","null","<p style=""font-size: 60px; font-family: BACS"">tDPRkcMRl</p>","","","","","","","",""
"html-keyboard-response","17","61549","0.0-7.0-0.10","615c43b800752a4f3d0fd1f0","64afc2c9a8732ea92db0087d","64afd73e39e8fbd7f8d2b47f","null","null","<p style=""font-size: 60px; font-family: BACS"">YmBdDbMR</p>","","","","","","","",""
"html-keyboard-response","18","62564","0.0-7.0-0.11","615c43b800752a4f3d0fd1f0","64afc2c9a8732ea92db0087d","64afd73e39e8fbd7f8d2b47f","null","null","<p style=""font-size: 60px; font-family: BACS"">PDPhlATc</p>","","","","","","","",""
"html-keyboard-response","19","63574","0.0-7.0-0.12","615c43b800752a4f3d0fd1f0","64afc2c9a8732ea92db0087d","64afd73e39e8fbd7f8d2b47f","null","null","<p style=""font-size: 60px; font-family: BACS"">dmZvmrAm</p>","","","","","","","",""
"html-keyboard-response","20","64578","0.0-7.0-0.13","615c43b800752a4f3d0fd1f0","64afc2c9a8732ea92db0087d","64afd73e39e8fbd7f8d2b47f","null","null","<p style=""font-size: 60px; font-family: BACS"">YmBdTmc</p>","","","","","","","",""
"html-keyboard-response","21","65595","0.0-7.0-0.14","615c43b800752a4f3d0fd1f0","64afc2c9a8732ea92db0087d","64afd73e39e8fbd7f8d2b47f","null","null","<p style=""font-size: 60px; font-family: BACS"">kLvdNkGua</p>","","","","","","","",""
"html-keyboard-response","22","66606","0.0-7.0-0.15","615c43b800752a4f3d0fd1f0","64afc2c9a8732ea92db0087d","64afd73e39e8fbd7f8d2b47f","null","null","<p style=""font-size: 60px; font-family: BACS"">TCbDCDbMR</p>","","","","","","","",""
"html-keyboard-response","23","67608","0.0-7.0-0.16","615c43b800752a4f3d0fd1f0","64afc2c9a8732ea92db0087d","64afd73e39e8fbd7f8d2b47f","null","null","<p style=""font-size: 60px; font-family: BACS"">ZkGmYrAm</p>","","","","","","","",""
"html-keyboard-response","24","68612","0.0-7.0-0.17","615c43b800752a4f3d0fd1f0","64afc2c9a8732ea92db0087d","64afd73e39e8fbd7f8d2b47f","null","null","<p style=""font-size: 60px; font-family: BACS"">mbZlbadk</p>","","","","","","","",""
"html-keyboard-response","25","69627","0.0-7.0-0.18","615c43b800752a4f3d0fd1f0","64afc2c9a8732ea92db0087d","64afd73e39e8fbd7f8d2b47f","null","null","<p style=""font-size: 60px; font-family: BACS"">kNuauZc</p>","","","","","","","",""
"html-keyboard-response","26","70642","0.0-7.0-0.19","615c43b800752a4f3d0fd1f0","64afc2c9a8732ea92db0087d","64afd73e39e8fbd7f8d2b47f","null","null","<p style=""font-size: 60px; font-family: BACS"">YmBdcMRl</p>","","","","","","","",""
"html-keyboard-response","27","71645","0.0-7.0-0.20","615c43b800752a4f3d0fd1f0","64afc2c9a8732ea92db0087d","64afd73e39e8fbd7f8d2b47f","null","null","<p style=""font-size: 60px; font-family: BACS"">OAblcrkra</p>","","","","","","","",""
"html-keyboard-response","28","72662","0.0-7.0-0.21","615c43b800752a4f3d0fd1f0","64afc2c9a8732ea92db0087d","64afd73e39e8fbd7f8d2b47f","null","null","<p style=""font-size: 60px; font-family: BACS"">tdDdTmc</p>","","","","","","","",""
"html-keyboard-response","29","73677","0.0-7.0-0.22","615c43b800752a4f3d0fd1f0","64afc2c9a8732ea92db0087d","64afd73e39e8fbd7f8d2b47f","null","null","<p style=""font-size: 60px; font-family: BACS"">mkmJNrkra</p>","","","","","","","",""
"html-keyboard-response","30","74693","0.0-7.0-0.23","615c43b800752a4f3d0fd1f0","64afc2c9a8732ea92db0087d","64afd73e39e8fbd7f8d2b47f","null","null","<p style=""font-size: 60px; font-family: BACS"">OAblcuZc</p>","","","","","","","",""
"html-keyboard-response","31","75710","0.0-7.0-0.24","615c43b800752a4f3d0fd1f0","64afc2c9a8732ea92db0087d","64afd73e39e8fbd7f8d2b47f","null","null","<p style=""font-size: 60px; font-family: BACS"">ZkGmYbadk</p>","","","","","","","",""
"html-keyboard-response","32","76724","0.0-7.0-0.25","615c43b800752a4f3d0fd1f0","64afc2c9a8732ea92db0087d","64afd73e39e8fbd7f8d2b47f","null","null","<p style=""font-size: 60px; font-family: BACS"">kdaAJuZc</p>","","","","","","","",""
"html-keyboard-response","33","77728","0.0-7.0-0.26","615c43b800752a4f3d0fd1f0","64afc2c9a8732ea92db0087d","64afd73e39e8fbd7f8d2b47f","null","null","<p style=""font-size: 60px; font-family: BACS"">kNuarkra</p>","","","","","","","",""
"html-keyboard-response","34","78743","0.0-7.0-0.27","615c43b800752a4f3d0fd1f0","64afc2c9a8732ea92db0087d","64afd73e39e8fbd7f8d2b47f","null","null","<p style=""font-size: 60px; font-family: BACS"">kcCRtDbMR</p>","","","","","","","",""
"html-keyboard-response","35","79759","0.0-7.0-0.28","615c43b800752a4f3d0fd1f0","64afc2c9a8732ea92db0087d","64afd73e39e8fbd7f8d2b47f","null","null","<p style=""font-size: 60px; font-family: BACS"">dmZvmrkra</p>","","","","","","","",""
"html-keyboard-response","36","80773","0.0-7.0-0.29","615c43b800752a4f3d0fd1f0","64afc2c9a8732ea92db0087d","64afd73e39e8fbd7f8d2b47f","null","null","<p style=""font-size: 60px; font-family: BACS"">mkmJNrAm</p>","","","","","","","",""
"html-keyboard-response","37","81777","0.0-7.0-0.30","615c43b800752a4f3d0fd1f0","64afc2c9a8732ea92db0087d","64afd73e39e8fbd7f8d2b47f","null","null","<p style=""font-size: 60px; font-family: BACS"">TCbDCcMRl</p>","","","","","","","",""
"html-keyboard-response","38","82779","0.0-7.0-0.31","615c43b800752a4f3d0fd1f0","64afc2c9a8732ea92db0087d","64afd73e39e8fbd7f8d2b47f","null","null","<p style=""font-size: 60px; font-family: BACS"">NvYJkGua</p>","","","","","","","",""
"html-keyboard-response","39","83798","0.0-7.0-0.32","615c43b800752a4f3d0fd1f0","64afc2c9a8732ea92db0087d","64afd73e39e8fbd7f8d2b47f","null","null","<p style=""font-size: 60px; font-family: BACS"">OAblcrAm</p>","","","","","","","",""
"html-keyboard-response","40","84809","0.0-7.0-0.33","615c43b800752a4f3d0fd1f0","64afc2c9a8732ea92db0087d","64afd73e39e8fbd7f8d2b47f","null","null","<p style=""font-size: 60px; font-family: BACS"">mbZlkGua</p>","","","","","","","",""
"html-keyboard-response","41","85827","0.0-7.0-0.34","615c43b800752a4f3d0fd1f0","64afc2c9a8732ea92db0087d","64afd73e39e8fbd7f8d2b47f","null","null","<p style=""font-size: 60px; font-family: BACS"">dRhtATc</p>","","","","","","","",""
"html-keyboard-response","42","86829","0.0-7.0-0.35","615c43b800752a4f3d0fd1f0","64afc2c9a8732ea92db0087d","64afd73e39e8fbd7f8d2b47f","null","null","<p style=""font-size: 60px; font-family: BACS"">NvYJrkra</p>","","","","","","","",""
"html-keyboard-response","43","87844","0.0-7.0-0.36","615c43b800752a4f3d0fd1f0","64afc2c9a8732ea92db0087d","64afd73e39e8fbd7f8d2b47f","null","null","<p style=""font-size: 60px; font-family: BACS"">PDPhlcMRl</p>","","","","","","","",""
"html-keyboard-response","44","88861","0.0-7.0-0.37","615c43b800752a4f3d0fd1f0","64afc2c9a8732ea92db0087d","64afd73e39e8fbd7f8d2b47f","null","null","<p style=""font-size: 60px; font-family: BACS"">mkmJNuZc</p>","","","","","","","",""
"html-keyboard-response","45","89878","0.0-7.0-0.38","615c43b800752a4f3d0fd1f0","64afc2c9a8732ea92db0087d","64afd73e39e8fbd7f8d2b47f","null","null","<p style=""font-size: 60px; font-family: BACS"">RtRhDbMR</p>","","","","","","","",""
"html-keyboard-response","46","90893","0.0-7.0-0.39","615c43b800752a4f3d0fd1f0","64afc2c9a8732ea92db0087d","64afd73e39e8fbd7f8d2b47f","null","null","<p style=""font-size: 60px; font-family: BACS"">kNuakGua</p>","","","","","","","",""
"html-keyboard-response","47","91894","0.0-7.0-0.40","615c43b800752a4f3d0fd1f0","64afc2c9a8732ea92db0087d","64afd73e39e8fbd7f8d2b47f","null","null","<p style=""font-size: 60px; font-family: BACS"">RtRhTmc</p>","","","","","","","",""
"html-keyboard-response","48","92911","0.0-7.0-0.41","615c43b800752a4f3d0fd1f0","64afc2c9a8732ea92db0087d","64afd73e39e8fbd7f8d2b47f","null","null","<p style=""font-size: 60px; font-family: BACS"">blMkcMRl</p>","","","","","","","",""
"html-keyboard-response","49","93913","0.0-7.0-0.42","615c43b800752a4f3d0fd1f0","64afc2c9a8732ea92db0087d","64afd73e39e8fbd7f8d2b47f","null","null","<p style=""font-size: 60px; font-family: BACS"">PDPhlDbMR</p>","","","","","","","",""
"html-keyboard-response","50","94926","0.0-7.0-0.43","615c43b800752a4f3d0fd1f0","64afc2c9a8732ea92db0087d","64afd73e39e8fbd7f8d2b47f","null","null","<p style=""font-size: 60px; font-family: BACS"">ZkGmYuZc</p>","","","","","","","",""
"html-keyboard-response","51","95928","0.0-7.0-0.44","615c43b800752a4f3d0fd1f0","64afc2c9a8732ea92db0087d","64afd73e39e8fbd7f8d2b47f","null","null","<p style=""font-size: 60px; font-family: BACS"">hlctEATc</p>","","","","","","","",""
"html-keyboard-response","52","96942","0.0-7.0-0.45","615c43b800752a4f3d0fd1f0","64afc2c9a8732ea92db0087d","64afd73e39e8fbd7f8d2b47f","null","null","<p style=""font-size: 60px; font-family: BACS"">mcOJrkra</p>","","","","","","","",""
"html-keyboard-response","53","97945","0.0-7.0-0.46","615c43b800752a4f3d0fd1f0","64afc2c9a8732ea92db0087d","64afd73e39e8fbd7f8d2b47f","null","null","<p style=""font-size: 60px; font-family: BACS"">dRhtcMRl</p>","","","","","","","",""
"html-keyboard-response","54","98962","0.0-7.0-0.47","615c43b800752a4f3d0fd1f0","64afc2c9a8732ea92db0087d","64afd73e39e8fbd7f8d2b47f","null","null","<p style=""font-size: 60px; font-family: BACS"">TCbDCAkd</p>","","","","","","","",""
"html-keyboard-response","55","99978","0.0-7.0-0.48","615c43b800752a4f3d0fd1f0","64afc2c9a8732ea92db0087d","64afd73e39e8fbd7f8d2b47f","null","null","<p style=""font-size: 60px; font-family: BACS"">dmZvmbadk</p>","","","","","","","",""
"html-keyboard-response","56","100995","0.0-7.0-0.49","615c43b800752a4f3d0fd1f0","64afc2c9a8732ea92db0087d","64afd73e39e8fbd7f8d2b47f","null","null","<p style=""font-size: 60px; font-family: BACS"">ZkGmYkGua</p>","","","","","","","",""
"html-keyboard-response","57","102011","0.0-7.0-0.50","615c43b800752a4f3d0fd1f0","64afc2c9a8732ea92db0087d","64afd73e39e8fbd7f8d2b47f","null","null","<p style=""font-size: 60px; font-family: BACS"">mbZluZc</p>","","","","","","","",""
"html-keyboard-response","58","103029","0.0-7.0-0.51","615c43b800752a4f3d0fd1f0","64afc2c9a8732ea92db0087d","64afd73e39e8fbd7f8d2b47f","null","null","<p style=""font-size: 60px; font-family: BACS"">tDPRkTmc</p>","","","","","","","",""
"html-keyboard-response","59","104044","0.0-7.0-0.52","615c43b800752a4f3d0fd1f0","64afc2c9a8732ea92db0087d","64afd73e39e8fbd7f8d2b47f","null","null","<p style=""font-size: 60px; font-family: BACS"">tdDdATc</p>","","","","","","","",""
"html-keyboard-response","60","105060","0.0-7.0-0.53","615c43b800752a4f3d0fd1f0","64afc2c9a8732ea92db0087d","64afd73e39e8fbd7f8d2b47f","null","null","<p style=""font-size: 60px; font-family: BACS"">blMkDbMR</p>","","","","","","","",""
"html-keyboard-response","61","106079","0.0-7.0-0.54","615c43b800752a4f3d0fd1f0","64afc2c9a8732ea92db0087d","64afd73e39e8fbd7f8d2b47f","null","null","<p style=""font-size: 60px; font-family: BACS"">kcCRtTmc</p>","","","","","","","",""
"html-keyboard-response","62","107111","0.0-7.0-0.55","615c43b800752a4f3d0fd1f0","64afc2c9a8732ea92db0087d","64afd73e39e8fbd7f8d2b47f","null","null","<p style=""font-size: 60px; font-family: BACS"">hlctEDbMR</p>","","","","","","","",""
"html-keyboard-response","63","108128","0.0-7.0-0.56","615c43b800752a4f3d0fd1f0","64afc2c9a8732ea92db0087d","64afd73e39e8fbd7f8d2b47f","null","null","<p style=""font-size: 60px; font-family: BACS"">OAblcbadk</p>","","","","","","","",""
"html-keyboard-response","64","109143","0.0-7.0-0.57","615c43b800752a4f3d0fd1f0","64afc2c9a8732ea92db0087d","64afd73e39e8fbd7f8d2b47f","null","null","<p style=""font-size: 60px; font-family: BACS"">mcOJkGua</p>","","","","","","","",""
"html-keyboard-response","65","110161","0.0-7.0-0.58","615c43b800752a4f3d0fd1f0","64afc2c9a8732ea92db0087d","64afd73e39e8fbd7f8d2b47f","null","null","<p style=""font-size: 60px; font-family: BACS"">kcCRtATc</p>","","","","","","","",""
"html-keyboard-response","66","111190","0.0-7.0-0.59","615c43b800752a4f3d0fd1f0","64afc2c9a8732ea92db0087d","64afd73e39e8fbd7f8d2b47f","null","null","<p style=""font-size: 60px; font-family: BACS"">kdaAJrkra</p>","","","","","","","",""
"html-keyboard-response","67","112205","0.0-7.0-0.60","615c43b800752a4f3d0fd1f0","64afc2c9a8732ea92db0087d","64afd73e39e8fbd7f8d2b47f","null","null","<p style=""font-size: 60px; font-family: BACS"">mbZlrAm</p>","","","","","","","",""
"html-keyboard-response","68","113223","0.0-7.0-0.61","615c43b800752a4f3d0fd1f0","64afc2c9a8732ea92db0087d","64afd73e39e8fbd7f8d2b47f","null","null","<p style=""font-size: 60px; font-family: BACS"">kdaAJbadk</p>","","","","","","","",""
"html-keyboard-response","69","114238","0.0-7.0-0.62","615c43b800752a4f3d0fd1f0","64afc2c9a8732ea92db0087d","64afd73e39e8fbd7f8d2b47f","null","null","<p style=""font-size: 60px; font-family: BACS"">blMkATc</p>","","","","","","","",""
"html-keyboard-response","70","115240","0.0-7.0-0.63","615c43b800752a4f3d0fd1f0","64afc2c9a8732ea92db0087d","64afd73e39e8fbd7f8d2b47f","null","null","<p style=""font-size: 60px; font-family: BACS"">NvYJrAm</p>","","","","","","","",""
"html-keyboard-response","71","116255","0.0-7.0-0.64","615c43b800752a4f3d0fd1f0","64afc2c9a8732ea92db0087d","64afd73e39e8fbd7f8d2b47f","null","null","<p style=""font-size: 60px; font-family: BACS"">tdDdAkd</p>","","","","","","","",""
"html-keyboard-response","72","117258","0.0-7.0-0.65","615c43b800752a4f3d0fd1f0","64afc2c9a8732ea92db0087d","64afd73e39e8fbd7f8d2b47f","null","null","<p style=""font-size: 60px; font-family: BACS"">NvYJbadk</p>","","","","","","","",""
"html-keyboard-response","73","118274","0.0-7.0-0.66","615c43b800752a4f3d0fd1f0","64afc2c9a8732ea92db0087d","64afd73e39e8fbd7f8d2b47f","null","null","<p style=""font-size: 60px; font-family: BACS"">hlctEAkd</p>","","","","","","","",""
"html-keyboard-response","74","119290","0.0-7.0-0.67","615c43b800752a4f3d0fd1f0","64afc2c9a8732ea92db0087d","64afd73e39e8fbd7f8d2b47f","null","null","<p style=""font-size: 60px; font-family: BACS"">mcOJuZc</p>","","","","","","","",""
"html-keyboard-response","75","120306","0.0-7.0-0.68","615c43b800752a4f3d0fd1f0","64afc2c9a8732ea92db0087d","64afd73e39e8fbd7f8d2b47f","null","null","<p style=""font-size: 60px; font-family: BACS"">kNuarAm</p>","","","","","","","",""
"html-keyboard-response","76","121324","0.0-7.0-0.69","615c43b800752a4f3d0fd1f0","64afc2c9a8732ea92db0087d","64afd73e39e8fbd7f8d2b47f","null","null","<p style=""font-size: 60px; font-family: BACS"">kcCRtAkd</p>","","","","","","","",""
"html-keyboard-response","77","122340","0.0-7.0-0.70","615c43b800752a4f3d0fd1f0","64afc2c9a8732ea92db0087d","64afd73e39e8fbd7f8d2b47f","null","null","<p style=""font-size: 60px; font-family: BACS"">tDPRkDbMR</p>","","","","","","","",""
"html-keyboard-response","78","123354","0.0-7.0-0.71","615c43b800752a4f3d0fd1f0","64afc2c9a8732ea92db0087d","64afd73e39e8fbd7f8d2b47f","null","null","<p style=""font-size: 60px; font-family: BACS"">dRhtTmc</p>","","","","","","","",""
"html-keyboard-response","79","124370","0.0-7.0-0.72","615c43b800752a4f3d0fd1f0","64afc2c9a8732ea92db0087d","64afd73e39e8fbd7f8d2b47f","null","null","<p style=""font-size: 60px; font-family: BACS"">kLvdNrkra</p>","","","","","","","",""
"html-keyboard-response","80","125376","0.0-7.0-0.73","615c43b800752a4f3d0fd1f0","64afc2c9a8732ea92db0087d","64afd73e39e8fbd7f8d2b47f","null","null","<p style=""font-size: 60px; font-family: BACS"">PDPhlTmc</p>","","","","","","","",""
"html-keyboard-response","81","126388","0.0-7.0-0.74","615c43b800752a4f3d0fd1f0","64afc2c9a8732ea92db0087d","64afd73e39e8fbd7f8d2b47f","null","null","<p style=""font-size: 60px; font-family: BACS"">YmBdAkd</p>","","","","","","","",""
"html-keyboard-response","82","127390","0.0-7.0-0.75","615c43b800752a4f3d0fd1f0","64afc2c9a8732ea92db0087d","64afd73e39e8fbd7f8d2b47f","null","null","<p style=""font-size: 60px; font-family: BACS"">kLvdNuZc</p>","","","","","","","",""
"html-keyboard-response","83","128406","0.0-7.0-0.76","615c43b800752a4f3d0fd1f0","64afc2c9a8732ea92db0087d","64afd73e39e8fbd7f8d2b47f","null","null","<p style=""font-size: 60px; font-family: BACS"">tDPRkATc</p>","","","","","","","",""
"html-keyboard-response","84","129422","0.0-7.0-0.77","615c43b800752a4f3d0fd1f0","64afc2c9a8732ea92db0087d","64afd73e39e8fbd7f8d2b47f","null","null","<p style=""font-size: 60px; font-family: BACS"">dRhtAkd</p>","","","","","","","",""
"html-keyboard-response","85","130439","0.0-7.0-0.78","615c43b800752a4f3d0fd1f0","64afc2c9a8732ea92db0087d","64afd73e39e8fbd7f8d2b47f","null","null","<p style=""font-size: 60px; font-family: BACS"">kdaAJrAm</p>","","","","","","","",""
"html-keyboard-response","86","131440","0.0-7.0-0.79","615c43b800752a4f3d0fd1f0","64afc2c9a8732ea92db0087d","64afd73e39e8fbd7f8d2b47f","null","null","<p style=""font-size: 60px; font-family: BACS"">RtRhAkd</p>","","","","","","","",""
"html-keyboard-response","87","143827","0.0-8.0","615c43b800752a4f3d0fd1f0","64afc2c9a8732ea92db0087d","64afd73e39e8fbd7f8d2b47f","12386"," ","<p>Ottimo, hai visto il primo blocco di parole. Ora puoi prenderti una piccola pausa.</p>
      <p>Premi la barra quando sei pronta/o per riprendere.</p>","","","","","","","",""
"html-keyboard-response","88","144839","0.0-9.0-0.0","615c43b800752a4f3d0fd1f0","64afc2c9a8732ea92db0087d","64afd73e39e8fbd7f8d2b47f","null","null","<p style=""font-size: 60px; font-family: BACS"">mbZlbadk</p>","","","","","","","",""
"html-keyboard-response","89","145857","0.0-9.0-0.1","615c43b800752a4f3d0fd1f0","64afc2c9a8732ea92db0087d","64afd73e39e8fbd7f8d2b47f","null","null","<p style=""font-size: 60px; font-family: BACS"">hlctEDbMR</p>","","","","","","","",""
"html-keyboard-response","90","146873","0.0-9.0-0.2","615c43b800752a4f3d0fd1f0","64afc2c9a8732ea92db0087d","64afd73e39e8fbd7f8d2b47f","null","null","<p style=""font-size: 60px; font-family: BACS"">OAblcrAm</p>","","","","","","","",""
"html-keyboard-response","91","147887","0.0-9.0-0.3","615c43b800752a4f3d0fd1f0","64afc2c9a8732ea92db0087d","64afd73e39e8fbd7f8d2b47f","null","null","<p style=""font-size: 60px; font-family: BACS"">YmBdcMRl</p>","","","","","","","",""
"html-keyboard-response","92","148891","0.0-9.0-0.4","615c43b800752a4f3d0fd1f0","64afc2c9a8732ea92db0087d","64afd73e39e8fbd7f8d2b47f","null","null","<p style=""font-size: 60px; font-family: BACS"">ZkGmYbadk</p>","","","","","","","",""
"html-keyboard-response","93","149906","0.0-9.0-0.5","615c43b800752a4f3d0fd1f0","64afc2c9a8732ea92db0087d","64afd73e39e8fbd7f8d2b47f","null","null","<p style=""font-size: 60px; font-family: BACS"">NvYJrkra</p>","","","","","","","",""
"html-keyboard-response","94","150922","0.0-9.0-0.6","615c43b800752a4f3d0fd1f0","64afc2c9a8732ea92db0087d","64afd73e39e8fbd7f8d2b47f","null","null","<p style=""font-size: 60px; font-family: BACS"">YmBdAkd</p>","","","","","","","",""
"html-keyboard-response","95","151924","0.0-9.0-0.7","615c43b800752a4f3d0fd1f0","64afc2c9a8732ea92db0087d","64afd73e39e8fbd7f8d2b47f","null","null","<p style=""font-size: 60px; font-family: BACS"">kdaAJrkra</p>","","","","","","","",""
"html-keyboard-response","96","152938","0.0-9.0-0.8","615c43b800752a4f3d0fd1f0","64afc2c9a8732ea92db0087d","64afd73e39e8fbd7f8d2b47f","null","null","<p style=""font-size: 60px; font-family: BACS"">tDPRkTmc</p>","","","","","","","",""
"html-keyboard-response","97","153940","0.0-9.0-0.9","615c43b800752a4f3d0fd1f0","64afc2c9a8732ea92db0087d","64afd73e39e8fbd7f8d2b47f","null","null","<p style=""font-size: 60px; font-family: BACS"">mbZlkGua</p>","","","","","","","",""
"html-keyboard-response","98","154956","0.0-9.0-0.10","615c43b800752a4f3d0fd1f0","64afc2c9a8732ea92db0087d","64afd73e39e8fbd7f8d2b47f","null","null","<p style=""font-size: 60px; font-family: BACS"">tdDdAkd</p>","","","","","","","",""
"html-keyboard-response","99","155973","0.0-9.0-0.11","615c43b800752a4f3d0fd1f0","64afc2c9a8732ea92db0087d","64afd73e39e8fbd7f8d2b47f","null","null","<p style=""font-size: 60px; font-family: BACS"">blMkcMRl</p>","","","","","","","",""
"html-keyboard-response","100","156989","0.0-9.0-0.12","615c43b800752a4f3d0fd1f0","64afc2c9a8732ea92db0087d","64afd73e39e8fbd7f8d2b47f","null","null","<p style=""font-size: 60px; font-family: BACS"">dmZvmrAm</p>","","","","","","","",""
"html-keyboard-response","101","158003","0.0-9.0-0.13","615c43b800752a4f3d0fd1f0","64afc2c9a8732ea92db0087d","64afd73e39e8fbd7f8d2b47f","null","null","<p style=""font-size: 60px; font-family: BACS"">TCbDCAkd</p>","","","","","","","",""
"html-keyboard-response","102","159008","0.0-9.0-0.14","615c43b800752a4f3d0fd1f0","64afc2c9a8732ea92db0087d","64afd73e39e8fbd7f8d2b47f","null","null","<p style=""font-size: 60px; font-family: BACS"">dRhtTmc</p>","","","","","","","",""
"html-keyboard-response","103","160024","0.0-9.0-0.15","615c43b800752a4f3d0fd1f0","64afc2c9a8732ea92db0087d","64afd73e39e8fbd7f8d2b47f","null","null","<p style=""font-size: 60px; font-family: BACS"">tDPRkDbMR</p>","","","","","","","",""
"html-keyboard-response","104","161039","0.0-9.0-0.16","615c43b800752a4f3d0fd1f0","64afc2c9a8732ea92db0087d","64afd73e39e8fbd7f8d2b47f","null","null","<p style=""font-size: 60px; font-family: BACS"">PDPhlATc</p>","","","","","","","",""
"html-keyboard-response","105","162056","0.0-9.0-0.17","615c43b800752a4f3d0fd1f0","64afc2c9a8732ea92db0087d","64afd73e39e8fbd7f8d2b47f","null","null","<p style=""font-size: 60px; font-family: BACS"">mcOJrkra</p>","","","","","","","",""
"html-keyboard-response","106","163070","0.0-9.0-0.18","615c43b800752a4f3d0fd1f0","64afc2c9a8732ea92db0087d","64afd73e39e8fbd7f8d2b47f","null","null","<p style=""font-size: 60px; font-family: BACS"">kLvdNuZc</p>","","","","","","","",""
"html-keyboard-response","107","164074","0.0-9.0-0.19","615c43b800752a4f3d0fd1f0","64afc2c9a8732ea92db0087d","64afd73e39e8fbd7f8d2b47f","null","null","<p style=""font-size: 60px; font-family: BACS"">tDPRkcMRl</p>","","","","","","","",""
"html-keyboard-response","108","165090","0.0-9.0-0.20","615c43b800752a4f3d0fd1f0","64afc2c9a8732ea92db0087d","64afd73e39e8fbd7f8d2b47f","null","null","<p style=""font-size: 60px; font-family: BACS"">dRhtATc</p>","","","","","","","",""
"html-keyboard-response","109","166106","0.0-9.0-0.21","615c43b800752a4f3d0fd1f0","64afc2c9a8732ea92db0087d","64afd73e39e8fbd7f8d2b47f","null","null","<p style=""font-size: 60px; font-family: BACS"">kNuauZc</p>","","","","","","","",""
"html-keyboard-response","110","167120","0.0-9.0-0.22","615c43b800752a4f3d0fd1f0","64afc2c9a8732ea92db0087d","64afd73e39e8fbd7f8d2b47f","null","null","<p style=""font-size: 60px; font-family: BACS"">blMkDbMR</p>","","","","","","","",""
"html-keyboard-response","111","168138","0.0-9.0-0.23","615c43b800752a4f3d0fd1f0","64afc2c9a8732ea92db0087d","64afd73e39e8fbd7f8d2b47f","null","null","<p style=""font-size: 60px; font-family: BACS"">NvYJrAm</p>","","","","","","","",""
"html-keyboard-response","112","169156","0.0-9.0-0.24","615c43b800752a4f3d0fd1f0","64afc2c9a8732ea92db0087d","64afd73e39e8fbd7f8d2b47f","null","null","<p style=""font-size: 60px; font-family: BACS"">PDPhlDbMR</p>","","","","","","","",""
"html-keyboard-response","113","170173","0.0-9.0-0.25","615c43b800752a4f3d0fd1f0","64afc2c9a8732ea92db0087d","64afd73e39e8fbd7f8d2b47f","null","null","<p style=""font-size: 60px; font-family: BACS"">RtRhcMRl</p>","","","","","","","",""
"html-keyboard-response","114","171184","0.0-9.0-0.26","615c43b800752a4f3d0fd1f0","64afc2c9a8732ea92db0087d","64afd73e39e8fbd7f8d2b47f","null","null","<p style=""font-size: 60px; font-family: BACS"">tdDdTmc</p>","","","","","","","",""
"html-keyboard-response","115","172187","0.0-9.0-0.27","615c43b800752a4f3d0fd1f0","64afc2c9a8732ea92db0087d","64afd73e39e8fbd7f8d2b47f","null","null","<p style=""font-size: 60px; font-family: BACS"">dRhtcMRl</p>","","","","","","","",""
"html-keyboard-response","116","173189","0.0-9.0-0.28","615c43b800752a4f3d0fd1f0","64afc2c9a8732ea92db0087d","64afd73e39e8fbd7f8d2b47f","null","null","<p style=""font-size: 60px; font-family: BACS"">mbZluZc</p>","","","","","","","",""
"html-keyboard-response","117","174204","0.0-9.0-0.29","615c43b800752a4f3d0fd1f0","64afc2c9a8732ea92db0087d","64afd73e39e8fbd7f8d2b47f","null","null","<p style=""font-size: 60px; font-family: BACS"">dRhtAkd</p>","","","","","","","",""
"html-keyboard-response","118","175218","0.0-9.0-0.30","615c43b800752a4f3d0fd1f0","64afc2c9a8732ea92db0087d","64afd73e39e8fbd7f8d2b47f","null","null","<p style=""font-size: 60px; font-family: BACS"">YmBdDbMR</p>","","","","","","","",""
"html-keyboard-response","119","176231","0.0-9.0-0.31","615c43b800752a4f3d0fd1f0","64afc2c9a8732ea92db0087d","64afd73e39e8fbd7f8d2b47f","null","null","<p style=""font-size: 60px; font-family: BACS"">mbZlrAm</p>","","","","","","","",""
"html-keyboard-response","120","177244","0.0-9.0-0.32","615c43b800752a4f3d0fd1f0","64afc2c9a8732ea92db0087d","64afd73e39e8fbd7f8d2b47f","null","null","<p style=""font-size: 60px; font-family: BACS"">hlctETmc</p>","","","","","","","",""
"html-keyboard-response","121","178255","0.0-9.0-0.33","615c43b800752a4f3d0fd1f0","64afc2c9a8732ea92db0087d","64afd73e39e8fbd7f8d2b47f","null","null","<p style=""font-size: 60px; font-family: BACS"">mkmJNrAm</p>","","","","","","","",""
"html-keyboard-response","122","179272","0.0-9.0-0.34","615c43b800752a4f3d0fd1f0","64afc2c9a8732ea92db0087d","64afd73e39e8fbd7f8d2b47f","null","null","<p style=""font-size: 60px; font-family: BACS"">kLvdNrkra</p>","","","","","","","",""
"html-keyboard-response","123","180289","0.0-9.0-0.35","615c43b800752a4f3d0fd1f0","64afc2c9a8732ea92db0087d","64afd73e39e8fbd7f8d2b47f","null","null","<p style=""font-size: 60px; font-family: BACS"">tdDdATc</p>","","","","","","","",""
"html-keyboard-response","124","181307","0.0-9.0-0.36","615c43b800752a4f3d0fd1f0","64afc2c9a8732ea92db0087d","64afd73e39e8fbd7f8d2b47f","null","null","<p style=""font-size: 60px; font-family: BACS"">kcCRtTmc</p>","","","","","","","",""
"html-keyboard-response","125","182308","0.0-9.0-0.37","615c43b800752a4f3d0fd1f0","64afc2c9a8732ea92db0087d","64afd73e39e8fbd7f8d2b47f","null","null","<p style=""font-size: 60px; font-family: BACS"">kdaAJrAm</p>","","","","","","","",""
"html-keyboard-response","126","183309","0.0-9.0-0.38","615c43b800752a4f3d0fd1f0","64afc2c9a8732ea92db0087d","64afd73e39e8fbd7f8d2b47f","null","null","<p style=""font-size: 60px; font-family: BACS"">ZkGmYkGua</p>","","","","","","","",""
"html-keyboard-response","127","184319","0.0-9.0-0.39","615c43b800752a4f3d0fd1f0","64afc2c9a8732ea92db0087d","64afd73e39e8fbd7f8d2b47f","null","null","<p style=""font-size: 60px; font-family: BACS"">OAblcbadk</p>","","","","","","","",""
"html-keyboard-response","128","185334","0.0-9.0-0.40","615c43b800752a4f3d0fd1f0","64afc2c9a8732ea92db0087d","64afd73e39e8fbd7f8d2b47f","null","null","<p style=""font-size: 60px; font-family: BACS"">kcCRtDbMR</p>","","","","","","","",""
"html-keyboard-response","129","186343","0.0-9.0-0.41","615c43b800752a4f3d0fd1f0","64afc2c9a8732ea92db0087d","64afd73e39e8fbd7f8d2b47f","null","null","<p style=""font-size: 60px; font-family: BACS"">PDPhlTmc</p>","","","","","","","",""
"html-keyboard-response","130","187345","0.0-9.0-0.42","615c43b800752a4f3d0fd1f0","64afc2c9a8732ea92db0087d","64afd73e39e8fbd7f8d2b47f","null","null","<p style=""font-size: 60px; font-family: BACS"">kNuakGua</p>","","","","","","","",""
"html-keyboard-response","131","188352","0.0-9.0-0.43","615c43b800752a4f3d0fd1f0","64afc2c9a8732ea92db0087d","64afd73e39e8fbd7f8d2b47f","null","null","<p style=""font-size: 60px; font-family: BACS"">RtRhAkd</p>","","","","","","","",""
"html-keyboard-response","132","189357","0.0-9.0-0.44","615c43b800752a4f3d0fd1f0","64afc2c9a8732ea92db0087d","64afd73e39e8fbd7f8d2b47f","null","null","<p style=""font-size: 60px; font-family: BACS"">hlctEATc</p>","","","","","","","",""
"html-keyboard-response","133","190369","0.0-9.0-0.45","615c43b800752a4f3d0fd1f0","64afc2c9a8732ea92db0087d","64afd73e39e8fbd7f8d2b47f","null","null","<p style=""font-size: 60px; font-family: BACS"">NvYJbadk</p>","","","","","","","",""
"html-keyboard-response","134","191386","0.0-9.0-0.46","615c43b800752a4f3d0fd1f0","64afc2c9a8732ea92db0087d","64afd73e39e8fbd7f8d2b47f","null","null","<p style=""font-size: 60px; font-family: BACS"">mkmJNuZc</p>","","","","","","","",""
"html-keyboard-response","135","192389","0.0-9.0-0.47","615c43b800752a4f3d0fd1f0","64afc2c9a8732ea92db0087d","64afd73e39e8fbd7f8d2b47f","null","null","<p style=""font-size: 60px; font-family: BACS"">TCbDCDbMR</p>","","","","","","","",""
"html-keyboard-response","136","193405","0.0-9.0-0.48","615c43b800752a4f3d0fd1f0","64afc2c9a8732ea92db0087d","64afd73e39e8fbd7f8d2b47f","null","null","<p style=""font-size: 60px; font-family: BACS"">kNuarkra</p>","","","","","","","",""
"html-keyboard-response","137","194422","0.0-9.0-0.49","615c43b800752a4f3d0fd1f0","64afc2c9a8732ea92db0087d","64afd73e39e8fbd7f8d2b47f","null","null","<p style=""font-size: 60px; font-family: BACS"">ZkGmYrAm</p>","","","","","","","",""
"html-keyboard-response","138","195438","0.0-9.0-0.50","615c43b800752a4f3d0fd1f0","64afc2c9a8732ea92db0087d","64afd73e39e8fbd7f8d2b47f","null","null","<p style=""font-size: 60px; font-family: BACS"">blMkAkd</p>","","","","","","","",""
"html-keyboard-response","139","196455","0.0-9.0-0.51","615c43b800752a4f3d0fd1f0","64afc2c9a8732ea92db0087d","64afd73e39e8fbd7f8d2b47f","null","null","<p style=""font-size: 60px; font-family: BACS"">OAblcrkra</p>","","","","","","","",""
"html-keyboard-response","140","197470","0.0-9.0-0.52","615c43b800752a4f3d0fd1f0","64afc2c9a8732ea92db0087d","64afd73e39e8fbd7f8d2b47f","null","null","<p style=""font-size: 60px; font-family: BACS"">dmZvmkGua</p>","","","","","","","",""
"html-keyboard-response","141","198488","0.0-9.0-0.53","615c43b800752a4f3d0fd1f0","64afc2c9a8732ea92db0087d","64afd73e39e8fbd7f8d2b47f","null","null","<p style=""font-size: 60px; font-family: BACS"">RtRhTmc</p>","","","","","","","",""
"html-keyboard-response","142","199504","0.0-9.0-0.54","615c43b800752a4f3d0fd1f0","64afc2c9a8732ea92db0087d","64afd73e39e8fbd7f8d2b47f","null","null","<p style=""font-size: 60px; font-family: BACS"">blMkATc</p>","","","","","","","",""
"html-keyboard-response","143","200522","0.0-9.0-0.55","615c43b800752a4f3d0fd1f0","64afc2c9a8732ea92db0087d","64afd73e39e8fbd7f8d2b47f","null","null","<p style=""font-size: 60px; font-family: BACS"">kNuarAm</p>","","","","","","","",""
"html-keyboard-response","144","201538","0.0-9.0-0.56","615c43b800752a4f3d0fd1f0","64afc2c9a8732ea92db0087d","64afd73e39e8fbd7f8d2b47f","null","null","<p style=""font-size: 60px; font-family: BACS"">ZkGmYuZc</p>","","","","","","","",""
"html-keyboard-response","145","202556","0.0-9.0-0.57","615c43b800752a4f3d0fd1f0","64afc2c9a8732ea92db0087d","64afd73e39e8fbd7f8d2b47f","null","null","<p style=""font-size: 60px; font-family: BACS"">tdDdcMRl</p>","","","","","","","",""
"html-keyboard-response","146","203571","0.0-9.0-0.58","615c43b800752a4f3d0fd1f0","64afc2c9a8732ea92db0087d","64afd73e39e8fbd7f8d2b47f","null","null","<p style=""font-size: 60px; font-family: BACS"">hlctEAkd</p>","","","","","","","",""
"html-keyboard-response","147","204589","0.0-9.0-0.59","615c43b800752a4f3d0fd1f0","64afc2c9a8732ea92db0087d","64afd73e39e8fbd7f8d2b47f","null","null","<p style=""font-size: 60px; font-family: BACS"">OAblcuZc</p>","","","","","","","",""
"html-keyboard-response","148","205606","0.0-9.0-0.60","615c43b800752a4f3d0fd1f0","64afc2c9a8732ea92db0087d","64afd73e39e8fbd7f8d2b47f","null","null","<p style=""font-size: 60px; font-family: BACS"">kcCRtATc</p>","","","","","","","",""
"html-keyboard-response","149","206621","0.0-9.0-0.61","615c43b800752a4f3d0fd1f0","64afc2c9a8732ea92db0087d","64afd73e39e8fbd7f8d2b47f","null","null","<p style=""font-size: 60px; font-family: BACS"">kLvdNbadk</p>","","","","","","","",""
"html-keyboard-response","150","207638","0.0-9.0-0.62","615c43b800752a4f3d0fd1f0","64afc2c9a8732ea92db0087d","64afd73e39e8fbd7f8d2b47f","null","null","<p style=""font-size: 60px; font-family: BACS"">tDPRkATc</p>","","","","","","","",""
"html-keyboard-response","151","208654","0.0-9.0-0.63","615c43b800752a4f3d0fd1f0","64afc2c9a8732ea92db0087d","64afd73e39e8fbd7f8d2b47f","null","null","<p style=""font-size: 60px; font-family: BACS"">TCbDCcMRl</p>","","","","","","","",""
"html-keyboard-response","152","209655","0.0-9.0-0.64","615c43b800752a4f3d0fd1f0","64afc2c9a8732ea92db0087d","64afd73e39e8fbd7f8d2b47f","null","null","<p style=""font-size: 60px; font-family: BACS"">mkmJNkGua</p>","","","","","","","",""
"html-keyboard-response","153","210673","0.0-9.0-0.65","615c43b800752a4f3d0fd1f0","64afc2c9a8732ea92db0087d","64afd73e39e8fbd7f8d2b47f","null","null","<p style=""font-size: 60px; font-family: BACS"">TCbDCATc</p>","","","","","","","",""
"html-keyboard-response","154","211685","0.0-9.0-0.66","615c43b800752a4f3d0fd1f0","64afc2c9a8732ea92db0087d","64afd73e39e8fbd7f8d2b47f","null","null","<p style=""font-size: 60px; font-family: BACS"">RtRhDbMR</p>","","","","","","","",""
"html-keyboard-response","155","212689","0.0-9.0-0.67","615c43b800752a4f3d0fd1f0","64afc2c9a8732ea92db0087d","64afd73e39e8fbd7f8d2b47f","null","null","<p style=""font-size: 60px; font-family: BACS"">YmBdTmc</p>","","","","","","","",""
"html-keyboard-response","156","213701","0.0-9.0-0.68","615c43b800752a4f3d0fd1f0","64afc2c9a8732ea92db0087d","64afd73e39e8fbd7f8d2b47f","null","null","<p style=""font-size: 60px; font-family: BACS"">mcOJkGua</p>","","","","","","","",""
"html-keyboard-response","157","214704","0.0-9.0-0.69","615c43b800752a4f3d0fd1f0","64afc2c9a8732ea92db0087d","64afd73e39e8fbd7f8d2b47f","null","null","<p style=""font-size: 60px; font-family: BACS"">kdaAJbadk</p>","","","","","","","",""
"html-keyboard-response","158","215721","0.0-9.0-0.70","615c43b800752a4f3d0fd1f0","64afc2c9a8732ea92db0087d","64afd73e39e8fbd7f8d2b47f","null","null","<p style=""font-size: 60px; font-family: BACS"">dmZvmrkra</p>","","","","","","","",""
"html-keyboard-response","159","216723","0.0-9.0-0.71","615c43b800752a4f3d0fd1f0","64afc2c9a8732ea92db0087d","64afd73e39e8fbd7f8d2b47f","null","null","<p style=""font-size: 60px; font-family: BACS"">kcCRtAkd</p>","","","","","","","",""
"html-keyboard-response","160","217736","0.0-9.0-0.72","615c43b800752a4f3d0fd1f0","64afc2c9a8732ea92db0087d","64afd73e39e8fbd7f8d2b47f","null","null","<p style=""font-size: 60px; font-family: BACS"">mkmJNrkra</p>","","","","","","","",""
"html-keyboard-response","161","218738","0.0-9.0-0.73","615c43b800752a4f3d0fd1f0","64afc2c9a8732ea92db0087d","64afd73e39e8fbd7f8d2b47f","null","null","<p style=""font-size: 60px; font-family: BACS"">kLvdNkGua</p>","","","","","","","",""
"html-keyboard-response","162","219741","0.0-9.0-0.74","615c43b800752a4f3d0fd1f0","64afc2c9a8732ea92db0087d","64afd73e39e8fbd7f8d2b47f","null","null","<p style=""font-size: 60px; font-family: BACS"">PDPhlcMRl</p>","","","","","","","",""
"html-keyboard-response","163","220757","0.0-9.0-0.75","615c43b800752a4f3d0fd1f0","64afc2c9a8732ea92db0087d","64afd73e39e8fbd7f8d2b47f","null","null","<p style=""font-size: 60px; font-family: BACS"">kdaAJuZc</p>","","","","","","","",""
"html-keyboard-response","164","221771","0.0-9.0-0.76","615c43b800752a4f3d0fd1f0","64afc2c9a8732ea92db0087d","64afd73e39e8fbd7f8d2b47f","null","null","<p style=""font-size: 60px; font-family: BACS"">dmZvmbadk</p>","","","","","","","",""
"html-keyboard-response","165","222788","0.0-9.0-0.77","615c43b800752a4f3d0fd1f0","64afc2c9a8732ea92db0087d","64afd73e39e8fbd7f8d2b47f","null","null","<p style=""font-size: 60px; font-family: BACS"">mcOJuZc</p>","","","","","","","",""
"html-keyboard-response","166","223802","0.0-9.0-0.78","615c43b800752a4f3d0fd1f0","64afc2c9a8732ea92db0087d","64afd73e39e8fbd7f8d2b47f","null","null","<p style=""font-size: 60px; font-family: BACS"">NvYJkGua</p>","","","","","","","",""
"html-keyboard-response","167","224804","0.0-9.0-0.79","615c43b800752a4f3d0fd1f0","64afc2c9a8732ea92db0087d","64afd73e39e8fbd7f8d2b47f","null","null","<p style=""font-size: 60px; font-family: BACS"">mcOJbadk</p>","","","","","","","",""
"html-keyboard-response","168","229902","0.0-10.0","615c43b800752a4f3d0fd1f0","64afc2c9a8732ea92db0087d","64afd73e39e8fbd7f8d2b47f","5097"," ","<p>Ottimo, hai visto il secondo blocco di parole. Ora puoi prenderti una piccola pausa.</p>
      <p>Premi la barra quando sei pronta/o per riprendere.</p>","","","","","","","",""
"html-keyboard-response","169","230905","0.0-11.0-0.0","615c43b800752a4f3d0fd1f0","64afc2c9a8732ea92db0087d","64afd73e39e8fbd7f8d2b47f","null","null","<p style=""font-size: 60px; font-family: BACS"">YmBdcMRl</p>","","","","","","","",""
"html-keyboard-response","170","231923","0.0-11.0-0.1","615c43b800752a4f3d0fd1f0","64afc2c9a8732ea92db0087d","64afd73e39e8fbd7f8d2b47f","null","null","<p style=""font-size: 60px; font-family: BACS"">blMkAkd</p>","","","","","","","",""
"html-keyboard-response","171","232939","0.0-11.0-0.2","615c43b800752a4f3d0fd1f0","64afc2c9a8732ea92db0087d","64afd73e39e8fbd7f8d2b47f","null","null","<p style=""font-size: 60px; font-family: BACS"">kdaAJrAm</p>","","","","","","","",""
"html-keyboard-response","172","233956","0.0-11.0-0.3","615c43b800752a4f3d0fd1f0","64afc2c9a8732ea92db0087d","64afd73e39e8fbd7f8d2b47f","null","null","<p style=""font-size: 60px; font-family: BACS"">PDPhlcMRl</p>","","","","","","","",""
"html-keyboard-response","173","234973","0.0-11.0-0.4","615c43b800752a4f3d0fd1f0","64afc2c9a8732ea92db0087d","64afd73e39e8fbd7f8d2b47f","null","null","<p style=""font-size: 60px; font-family: BACS"">dmZvmrkra</p>","","","","","","","",""
"html-keyboard-response","174","235988","0.0-11.0-0.5","615c43b800752a4f3d0fd1f0","64afc2c9a8732ea92db0087d","64afd73e39e8fbd7f8d2b47f","null","null","<p style=""font-size: 60px; font-family: BACS"">TCbDCDbMR</p>","","","","","","","",""
"html-keyboard-response","175","236990","0.0-11.0-0.6","615c43b800752a4f3d0fd1f0","64afc2c9a8732ea92db0087d","64afd73e39e8fbd7f8d2b47f","null","null","<p style=""font-size: 60px; font-family: BACS"">NvYJrkra</p>","","","","","","","",""
"html-keyboard-response","176","238008","0.0-11.0-0.7","615c43b800752a4f3d0fd1f0","64afc2c9a8732ea92db0087d","64afd73e39e8fbd7f8d2b47f","null","null","<p style=""font-size: 60px; font-family: BACS"">kLvdNuZc</p>","","","","","","","",""
"html-keyboard-response","177","239023","0.0-11.0-0.8","615c43b800752a4f3d0fd1f0","64afc2c9a8732ea92db0087d","64afd73e39e8fbd7f8d2b47f","null","null","<p style=""font-size: 60px; font-family: BACS"">NvYJkGua</p>","","","","","","","",""
"html-keyboard-response","178","240038","0.0-11.0-0.9","615c43b800752a4f3d0fd1f0","64afc2c9a8732ea92db0087d","64afd73e39e8fbd7f8d2b47f","null","null","<p style=""font-size: 60px; font-family: BACS"">hlctETmc</p>","","","","","","","",""
"html-keyboard-response","179","241039","0.0-11.0-0.10","615c43b800752a4f3d0fd1f0","64afc2c9a8732ea92db0087d","64afd73e39e8fbd7f8d2b47f","null","null","<p style=""font-size: 60px; font-family: BACS"">mkmJNuZc</p>","","","","","","","",""
"html-keyboard-response","180","242056","0.0-11.0-0.11","615c43b800752a4f3d0fd1f0","64afc2c9a8732ea92db0087d","64afd73e39e8fbd7f8d2b47f","null","null","<p style=""font-size: 60px; font-family: BACS"">dmZvmrAm</p>","","","","","","","",""
"html-keyboard-response","181","243073","0.0-11.0-0.12","615c43b800752a4f3d0fd1f0","64afc2c9a8732ea92db0087d","64afd73e39e8fbd7f8d2b47f","null","null","<p style=""font-size: 60px; font-family: BACS"">kNuarkra</p>","","","","","","","",""
"html-keyboard-response","182","244089","0.0-11.0-0.13","615c43b800752a4f3d0fd1f0","64afc2c9a8732ea92db0087d","64afd73e39e8fbd7f8d2b47f","null","null","<p style=""font-size: 60px; font-family: BACS"">NvYJrAm</p>","","","","","","","",""
"html-keyboard-response","183","245104","0.0-11.0-0.14","615c43b800752a4f3d0fd1f0","64afc2c9a8732ea92db0087d","64afd73e39e8fbd7f8d2b47f","null","null","<p style=""font-size: 60px; font-family: BACS"">YmBdDbMR</p>","","","","","","","",""
"html-keyboard-response","184","246122","0.0-11.0-0.15","615c43b800752a4f3d0fd1f0","64afc2c9a8732ea92db0087d","64afd73e39e8fbd7f8d2b47f","null","null","<p style=""font-size: 60px; font-family: BACS"">kLvdNbadk</p>","","","","","","","",""
"html-keyboard-response","185","247138","0.0-11.0-0.16","615c43b800752a4f3d0fd1f0","64afc2c9a8732ea92db0087d","64afd73e39e8fbd7f8d2b47f","null","null","<p style=""font-size: 60px; font-family: BACS"">tdDdcMRl</p>","","","","","","","",""
"html-keyboard-response","186","248155","0.0-11.0-0.17","615c43b800752a4f3d0fd1f0","64afc2c9a8732ea92db0087d","64afd73e39e8fbd7f8d2b47f","null","null","<p style=""font-size: 60px; font-family: BACS"">tDPRkATc</p>","","","","","","","",""
"html-keyboard-response","187","249156","0.0-11.0-0.18","615c43b800752a4f3d0fd1f0","64afc2c9a8732ea92db0087d","64afd73e39e8fbd7f8d2b47f","null","null","<p style=""font-size: 60px; font-family: BACS"">kLvdNrkra</p>","","","","","","","",""
"html-keyboard-response","188","250173","0.0-11.0-0.19","615c43b800752a4f3d0fd1f0","64afc2c9a8732ea92db0087d","64afd73e39e8fbd7f8d2b47f","null","null","<p style=""font-size: 60px; font-family: BACS"">ZkGmYrAm</p>","","","","","","","",""
"html-keyboard-response","189","251189","0.0-11.0-0.20","615c43b800752a4f3d0fd1f0","64afc2c9a8732ea92db0087d","64afd73e39e8fbd7f8d2b47f","null","null","<p style=""font-size: 60px; font-family: BACS"">OAblcrkra</p>","","","","","","","",""
"html-keyboard-response","190","252207","0.0-11.0-0.21","615c43b800752a4f3d0fd1f0","64afc2c9a8732ea92db0087d","64afd73e39e8fbd7f8d2b47f","null","null","<p style=""font-size: 60px; font-family: BACS"">mbZlbadk</p>","","","","","","","",""
"html-keyboard-response","191","253223","0.0-11.0-0.22","615c43b800752a4f3d0fd1f0","64afc2c9a8732ea92db0087d","64afd73e39e8fbd7f8d2b47f","null","null","<p style=""font-size: 60px; font-family: BACS"">ZkGmYkGua</p>","","","","","","","",""
"html-keyboard-response","192","254239","0.0-11.0-0.23","615c43b800752a4f3d0fd1f0","64afc2c9a8732ea92db0087d","64afd73e39e8fbd7f8d2b47f","null","null","<p style=""font-size: 60px; font-family: BACS"">mkmJNrkra</p>","","","","","","","",""
"html-keyboard-response","193","255255","0.0-11.0-0.24","615c43b800752a4f3d0fd1f0","64afc2c9a8732ea92db0087d","64afd73e39e8fbd7f8d2b47f","null","null","<p style=""font-size: 60px; font-family: BACS"">YmBdTmc</p>","","","","","","","",""
"html-keyboard-response","194","256257","0.0-11.0-0.25","615c43b800752a4f3d0fd1f0","64afc2c9a8732ea92db0087d","64afd73e39e8fbd7f8d2b47f","null","null","<p style=""font-size: 60px; font-family: BACS"">hlctEDbMR</p>","","","","","","","",""
"html-keyboard-response","195","257271","0.0-11.0-0.26","615c43b800752a4f3d0fd1f0","64afc2c9a8732ea92db0087d","64afd73e39e8fbd7f8d2b47f","null","null","<p style=""font-size: 60px; font-family: BACS"">mbZlrAm</p>","","","","","","","",""
"html-keyboard-response","196","258291","0.0-11.0-0.27","615c43b800752a4f3d0fd1f0","64afc2c9a8732ea92db0087d","64afd73e39e8fbd7f8d2b47f","null","null","<p style=""font-size: 60px; font-family: BACS"">kcCRtTmc</p>","","","","","","","",""
"html-keyboard-response","197","259307","0.0-11.0-0.28","615c43b800752a4f3d0fd1f0","64afc2c9a8732ea92db0087d","64afd73e39e8fbd7f8d2b47f","null","null","<p style=""font-size: 60px; font-family: BACS"">mcOJrkra</p>","","","","","","","",""
"html-keyboard-response","198","260322","0.0-11.0-0.29","615c43b800752a4f3d0fd1f0","64afc2c9a8732ea92db0087d","64afd73e39e8fbd7f8d2b47f","null","null","<p style=""font-size: 60px; font-family: BACS"">PDPhlDbMR</p>","","","","","","","",""
"html-keyboard-response","199","261324","0.0-11.0-0.30","615c43b800752a4f3d0fd1f0","64afc2c9a8732ea92db0087d","64afd73e39e8fbd7f8d2b47f","null","null","<p style=""font-size: 60px; font-family: BACS"">mcOJuZc</p>","","","","","","","",""
"html-keyboard-response","200","262338","0.0-11.0-0.31","615c43b800752a4f3d0fd1f0","64afc2c9a8732ea92db0087d","64afd73e39e8fbd7f8d2b47f","null","null","<p style=""font-size: 60px; font-family: BACS"">ZkGmYbadk</p>","","","","","","","",""
"html-keyboard-response","201","263355","0.0-11.0-0.32","615c43b800752a4f3d0fd1f0","64afc2c9a8732ea92db0087d","64afd73e39e8fbd7f8d2b47f","null","null","<p style=""font-size: 60px; font-family: BACS"">dmZvmkGua</p>","","","","","","","",""
"html-keyboard-response","202","264372","0.0-11.0-0.33","615c43b800752a4f3d0fd1f0","64afc2c9a8732ea92db0087d","64afd73e39e8fbd7f8d2b47f","null","null","<p style=""font-size: 60px; font-family: BACS"">kdaAJrkra</p>","","","","","","","",""
"html-keyboard-response","203","265389","0.0-11.0-0.34","615c43b800752a4f3d0fd1f0","64afc2c9a8732ea92db0087d","64afd73e39e8fbd7f8d2b47f","null","null","<p style=""font-size: 60px; font-family: BACS"">kNuauZc</p>","","","","","","","",""
"html-keyboard-response","204","266405","0.0-11.0-0.35","615c43b800752a4f3d0fd1f0","64afc2c9a8732ea92db0087d","64afd73e39e8fbd7f8d2b47f","null","null","<p style=""font-size: 60px; font-family: BACS"">blMkATc</p>","","","","","","","",""
"html-keyboard-response","205","267407","0.0-11.0-0.36","615c43b800752a4f3d0fd1f0","64afc2c9a8732ea92db0087d","64afd73e39e8fbd7f8d2b47f","null","null","<p style=""font-size: 60px; font-family: BACS"">kdaAJbadk</p>","","","","","","","",""
"html-keyboard-response","206","268422","0.0-11.0-0.37","615c43b800752a4f3d0fd1f0","64afc2c9a8732ea92db0087d","64afd73e39e8fbd7f8d2b47f","null","null","<p style=""font-size: 60px; font-family: BACS"">dRhtTmc</p>","","","","","","","",""
"html-keyboard-response","207","269438","0.0-11.0-0.38","615c43b800752a4f3d0fd1f0","64afc2c9a8732ea92db0087d","64afd73e39e8fbd7f8d2b47f","null","null","<p style=""font-size: 60px; font-family: BACS"">mbZluZc</p>","","","","","","","",""
"html-keyboard-response","208","270455","0.0-11.0-0.39","615c43b800752a4f3d0fd1f0","64afc2c9a8732ea92db0087d","64afd73e39e8fbd7f8d2b47f","null","null","<p style=""font-size: 60px; font-family: BACS"">dRhtAkd</p>","","","","","","","",""
"html-keyboard-response","209","271473","0.0-11.0-0.40","615c43b800752a4f3d0fd1f0","64afc2c9a8732ea92db0087d","64afd73e39e8fbd7f8d2b47f","null","null","<p style=""font-size: 60px; font-family: BACS"">tDPRkDbMR</p>","","","","","","","",""
"html-keyboard-response","210","272488","0.0-11.0-0.41","615c43b800752a4f3d0fd1f0","64afc2c9a8732ea92db0087d","64afd73e39e8fbd7f8d2b47f","null","null","<p style=""font-size: 60px; font-family: BACS"">ZkGmYuZc</p>","","","","","","","",""
"html-keyboard-response","211","273503","0.0-11.0-0.42","615c43b800752a4f3d0fd1f0","64afc2c9a8732ea92db0087d","64afd73e39e8fbd7f8d2b47f","null","null","<p style=""font-size: 60px; font-family: BACS"">kNuakGua</p>","","","","","","","",""
"html-keyboard-response","212","274506","0.0-11.0-0.43","615c43b800752a4f3d0fd1f0","64afc2c9a8732ea92db0087d","64afd73e39e8fbd7f8d2b47f","null","null","<p style=""font-size: 60px; font-family: BACS"">tDPRkcMRl</p>","","","","","","","",""
"html-keyboard-response","213","275521","0.0-11.0-0.44","615c43b800752a4f3d0fd1f0","64afc2c9a8732ea92db0087d","64afd73e39e8fbd7f8d2b47f","null","null","<p style=""font-size: 60px; font-family: BACS"">kcCRtAkd</p>","","","","","","","",""
"html-keyboard-response","214","276524","0.0-11.0-0.45","615c43b800752a4f3d0fd1f0","64afc2c9a8732ea92db0087d","64afd73e39e8fbd7f8d2b47f","null","null","<p style=""font-size: 60px; font-family: BACS"">RtRhDbMR</p>","","","","","","","",""
"html-keyboard-response","215","277539","0.0-11.0-0.46","615c43b800752a4f3d0fd1f0","64afc2c9a8732ea92db0087d","64afd73e39e8fbd7f8d2b47f","null","null","<p style=""font-size: 60px; font-family: BACS"">NvYJbadk</p>","","","","","","","",""
"html-keyboard-response","216","278555","0.0-11.0-0.47","615c43b800752a4f3d0fd1f0","64afc2c9a8732ea92db0087d","64afd73e39e8fbd7f8d2b47f","null","null","<p style=""font-size: 60px; font-family: BACS"">RtRhcMRl</p>","","","","","","","",""
"html-keyboard-response","217","279571","0.0-11.0-0.48","615c43b800752a4f3d0fd1f0","64afc2c9a8732ea92db0087d","64afd73e39e8fbd7f8d2b47f","null","null","<p style=""font-size: 60px; font-family: BACS"">mcOJbadk</p>","","","","","","","",""
"html-keyboard-response","218","280572","0.0-11.0-0.49","615c43b800752a4f3d0fd1f0","64afc2c9a8732ea92db0087d","64afd73e39e8fbd7f8d2b47f","null","null","<p style=""font-size: 60px; font-family: BACS"">tDPRkTmc</p>","","","","","","","",""
"html-keyboard-response","219","281574","0.0-11.0-0.50","615c43b800752a4f3d0fd1f0","64afc2c9a8732ea92db0087d","64afd73e39e8fbd7f8d2b47f","null","null","<p style=""font-size: 60px; font-family: BACS"">TCbDCAkd</p>","","","","","","","",""
"html-keyboard-response","220","282588","0.0-11.0-0.51","615c43b800752a4f3d0fd1f0","64afc2c9a8732ea92db0087d","64afd73e39e8fbd7f8d2b47f","null","null","<p style=""font-size: 60px; font-family: BACS"">kNuarAm</p>","","","","","","","",""
"html-keyboard-response","221","283589","0.0-11.0-0.52","615c43b800752a4f3d0fd1f0","64afc2c9a8732ea92db0087d","64afd73e39e8fbd7f8d2b47f","null","null","<p style=""font-size: 60px; font-family: BACS"">dRhtcMRl</p>","","","","","","","",""
"html-keyboard-response","222","284606","0.0-11.0-0.53","615c43b800752a4f3d0fd1f0","64afc2c9a8732ea92db0087d","64afd73e39e8fbd7f8d2b47f","null","null","<p style=""font-size: 60px; font-family: BACS"">mcOJkGua</p>","","","","","","","",""
"html-keyboard-response","223","285619","0.0-11.0-0.54","615c43b800752a4f3d0fd1f0","64afc2c9a8732ea92db0087d","64afd73e39e8fbd7f8d2b47f","null","null","<p style=""font-size: 60px; font-family: BACS"">tdDdTmc</p>","","","","","","","",""
"html-keyboard-response","224","286620","0.0-11.0-0.55","615c43b800752a4f3d0fd1f0","64afc2c9a8732ea92db0087d","64afd73e39e8fbd7f8d2b47f","null","null","<p style=""font-size: 60px; font-family: BACS"">mkmJNkGua</p>","","","","","","","",""
"html-keyboard-response","225","287624","0.0-11.0-0.56","615c43b800752a4f3d0fd1f0","64afc2c9a8732ea92db0087d","64afd73e39e8fbd7f8d2b47f","null","null","<p style=""font-size: 60px; font-family: BACS"">OAblcrAm</p>","","","","","","","",""
"html-keyboard-response","226","288638","0.0-11.0-0.57","615c43b800752a4f3d0fd1f0","64afc2c9a8732ea92db0087d","64afd73e39e8fbd7f8d2b47f","null","null","<p style=""font-size: 60px; font-family: BACS"">dRhtATc</p>","","","","","","","",""
"html-keyboard-response","227","289656","0.0-11.0-0.58","615c43b800752a4f3d0fd1f0","64afc2c9a8732ea92db0087d","64afd73e39e8fbd7f8d2b47f","null","null","<p style=""font-size: 60px; font-family: BACS"">blMkcMRl</p>","","","","","","","",""
"html-keyboard-response","228","290673","0.0-11.0-0.59","615c43b800752a4f3d0fd1f0","64afc2c9a8732ea92db0087d","64afd73e39e8fbd7f8d2b47f","null","null","<p style=""font-size: 60px; font-family: BACS"">YmBdAkd</p>","","","","","","","",""
"html-keyboard-response","229","291688","0.0-11.0-0.60","615c43b800752a4f3d0fd1f0","64afc2c9a8732ea92db0087d","64afd73e39e8fbd7f8d2b47f","null","null","<p style=""font-size: 60px; font-family: BACS"">hlctEATc</p>","","","","","","","",""
"html-keyboard-response","230","292705","0.0-11.0-0.61","615c43b800752a4f3d0fd1f0","64afc2c9a8732ea92db0087d","64afd73e39e8fbd7f8d2b47f","null","null","<p style=""font-size: 60px; font-family: BACS"">RtRhAkd</p>","","","","","","","",""
"html-keyboard-response","231","293722","0.0-11.0-0.62","615c43b800752a4f3d0fd1f0","64afc2c9a8732ea92db0087d","64afd73e39e8fbd7f8d2b47f","null","null","<p style=""font-size: 60px; font-family: BACS"">PDPhlTmc</p>","","","","","","","",""
"html-keyboard-response","232","294723","0.0-11.0-0.63","615c43b800752a4f3d0fd1f0","64afc2c9a8732ea92db0087d","64afd73e39e8fbd7f8d2b47f","null","null","<p style=""font-size: 60px; font-family: BACS"">kcCRtATc</p>","","","","","","","",""
"html-keyboard-response","233","295737","0.0-11.0-0.64","615c43b800752a4f3d0fd1f0","64afc2c9a8732ea92db0087d","64afd73e39e8fbd7f8d2b47f","null","null","<p style=""font-size: 60px; font-family: BACS"">kdaAJuZc</p>","","","","","","","",""
"html-keyboard-response","234","296740","0.0-11.0-0.65","615c43b800752a4f3d0fd1f0","64afc2c9a8732ea92db0087d","64afd73e39e8fbd7f8d2b47f","null","null","<p style=""font-size: 60px; font-family: BACS"">TCbDCcMRl</p>","","","","","","","",""
"html-keyboard-response","235","297756","0.0-11.0-0.66","615c43b800752a4f3d0fd1f0","64afc2c9a8732ea92db0087d","64afd73e39e8fbd7f8d2b47f","null","null","<p style=""font-size: 60px; font-family: BACS"">tdDdAkd</p>","","","","","","","",""
"html-keyboard-response","236","298772","0.0-11.0-0.67","615c43b800752a4f3d0fd1f0","64afc2c9a8732ea92db0087d","64afd73e39e8fbd7f8d2b47f","null","null","<p style=""font-size: 60px; font-family: BACS"">mkmJNrAm</p>","","","","","","","",""
"html-keyboard-response","237","299790","0.0-11.0-0.68","615c43b800752a4f3d0fd1f0","64afc2c9a8732ea92db0087d","64afd73e39e8fbd7f8d2b47f","null","null","<p style=""font-size: 60px; font-family: BACS"">RtRhTmc</p>","","","","","","","",""
"html-keyboard-response","238","300807","0.0-11.0-0.69","615c43b800752a4f3d0fd1f0","64afc2c9a8732ea92db0087d","64afd73e39e8fbd7f8d2b47f","null","null","<p style=""font-size: 60px; font-family: BACS"">kLvdNkGua</p>","","","","","","","",""
"html-keyboard-response","239","301822","0.0-11.0-0.70","615c43b800752a4f3d0fd1f0","64afc2c9a8732ea92db0087d","64afd73e39e8fbd7f8d2b47f","null","null","<p style=""font-size: 60px; font-family: BACS"">dmZvmbadk</p>","","","","","","","",""
"html-keyboard-response","240","302824","0.0-11.0-0.71","615c43b800752a4f3d0fd1f0","64afc2c9a8732ea92db0087d","64afd73e39e8fbd7f8d2b47f","null","null","<p style=""font-size: 60px; font-family: BACS"">blMkDbMR</p>","","","","","","","",""
"html-keyboard-response","241","303838","0.0-11.0-0.72","615c43b800752a4f3d0fd1f0","64afc2c9a8732ea92db0087d","64afd73e39e8fbd7f8d2b47f","null","null","<p style=""font-size: 60px; font-family: BACS"">PDPhlATc</p>","","","","","","","",""
"html-keyboard-response","242","304841","0.0-11.0-0.73","615c43b800752a4f3d0fd1f0","64afc2c9a8732ea92db0087d","64afd73e39e8fbd7f8d2b47f","null","null","<p style=""font-size: 60px; font-family: BACS"">hlctEAkd</p>","","","","","","","",""
"html-keyboard-response","243","305858","0.0-11.0-0.74","615c43b800752a4f3d0fd1f0","64afc2c9a8732ea92db0087d","64afd73e39e8fbd7f8d2b47f","null","null","<p style=""font-size: 60px; font-family: BACS"">mbZlkGua</p>","","","","","","","",""
"html-keyboard-response","244","306872","0.0-11.0-0.75","615c43b800752a4f3d0fd1f0","64afc2c9a8732ea92db0087d","64afd73e39e8fbd7f8d2b47f","null","null","<p style=""font-size: 60px; font-family: BACS"">OAblcuZc</p>","","","","","","","",""
"html-keyboard-response","245","307889","0.0-11.0-0.76","615c43b800752a4f3d0fd1f0","64afc2c9a8732ea92db0087d","64afd73e39e8fbd7f8d2b47f","null","null","<p style=""font-size: 60px; font-family: BACS"">TCbDCATc</p>","","","","","","","",""
"html-keyboard-response","246","308905","0.0-11.0-0.77","615c43b800752a4f3d0fd1f0","64afc2c9a8732ea92db0087d","64afd73e39e8fbd7f8d2b47f","null","null","<p style=""font-size: 60px; font-family: BACS"">OAblcbadk</p>","","","","","","","",""
"html-keyboard-response","247","309906","0.0-11.0-0.78","615c43b800752a4f3d0fd1f0","64afc2c9a8732ea92db0087d","64afd73e39e8fbd7f8d2b47f","null","null","<p style=""font-size: 60px; font-family: BACS"">kcCRtDbMR</p>","","","","","","","",""
"html-keyboard-response","248","310923","0.0-11.0-0.79","615c43b800752a4f3d0fd1f0","64afc2c9a8732ea92db0087d","64afd73e39e8fbd7f8d2b47f","null","null","<p style=""font-size: 60px; font-family: BACS"">tdDdATc</p>","","","","","","","",""
"html-keyboard-response","249","312786","0.0-12.0","615c43b800752a4f3d0fd1f0","64afc2c9a8732ea92db0087d","64afd73e39e8fbd7f8d2b47f","1862"," ","<p>Ottimo, hai visto il terzo blocco di parole. Ora puoi prenderti una piccola pausa.</p>
      <p>Premi la barra quando sei pronta/o per riprendere.</p>","","","","","","","",""
"html-keyboard-response","250","313789","0.0-13.0-0.0","615c43b800752a4f3d0fd1f0","64afc2c9a8732ea92db0087d","64afd73e39e8fbd7f8d2b47f","null","null","<p style=""font-size: 60px; font-family: BACS"">PDPhlDbMR</p>","","","","","","","",""
"html-keyboard-response","251","314803","0.0-13.0-0.1","615c43b800752a4f3d0fd1f0","64afc2c9a8732ea92db0087d","64afd73e39e8fbd7f8d2b47f","null","null","<p style=""font-size: 60px; font-family: BACS"">YmBdAkd</p>","","","","","","","",""
"html-keyboard-response","252","315806","0.0-13.0-0.2","615c43b800752a4f3d0fd1f0","64afc2c9a8732ea92db0087d","64afd73e39e8fbd7f8d2b47f","null","null","<p style=""font-size: 60px; font-family: BACS"">RtRhcMRl</p>","","","","","","","",""
"html-keyboard-response","253","316821","0.0-13.0-0.3","615c43b800752a4f3d0fd1f0","64afc2c9a8732ea92db0087d","64afd73e39e8fbd7f8d2b47f","null","null","<p style=""font-size: 60px; font-family: BACS"">kLvdNbadk</p>","","","","","","","",""
"html-keyboard-response","254","317835","0.0-13.0-0.4","615c43b800752a4f3d0fd1f0","64afc2c9a8732ea92db0087d","64afd73e39e8fbd7f8d2b47f","null","null","<p style=""font-size: 60px; font-family: BACS"">YmBdTmc</p>","","","","","","","",""
"html-keyboard-response","255","318839","0.0-13.0-0.5","615c43b800752a4f3d0fd1f0","64afc2c9a8732ea92db0087d","64afd73e39e8fbd7f8d2b47f","null","null","<p style=""font-size: 60px; font-family: BACS"">mkmJNuZc</p>","","","","","","","",""
"html-keyboard-response","256","319856","0.0-13.0-0.6","615c43b800752a4f3d0fd1f0","64afc2c9a8732ea92db0087d","64afd73e39e8fbd7f8d2b47f","null","null","<p style=""font-size: 60px; font-family: BACS"">blMkcMRl</p>","","","","","","","",""
"html-keyboard-response","257","320874","0.0-13.0-0.7","615c43b800752a4f3d0fd1f0","64afc2c9a8732ea92db0087d","64afd73e39e8fbd7f8d2b47f","null","null","<p style=""font-size: 60px; font-family: BACS"">kdaAJbadk</p>","","","","","","","",""
"html-keyboard-response","258","321889","0.0-13.0-0.8","615c43b800752a4f3d0fd1f0","64afc2c9a8732ea92db0087d","64afd73e39e8fbd7f8d2b47f","null","null","<p style=""font-size: 60px; font-family: BACS"">hlctEAkd</p>","","","","","","","",""
"html-keyboard-response","259","322906","0.0-13.0-0.9","615c43b800752a4f3d0fd1f0","64afc2c9a8732ea92db0087d","64afd73e39e8fbd7f8d2b47f","null","null","<p style=""font-size: 60px; font-family: BACS"">OAblcrAm</p>","","","","","","","",""
"html-keyboard-response","260","323923","0.0-13.0-0.10","615c43b800752a4f3d0fd1f0","64afc2c9a8732ea92db0087d","64afd73e39e8fbd7f8d2b47f","null","null","<p style=""font-size: 60px; font-family: BACS"">dmZvmbadk</p>","","","","","","","",""
"html-keyboard-response","261","324938","0.0-13.0-0.11","615c43b800752a4f3d0fd1f0","64afc2c9a8732ea92db0087d","64afd73e39e8fbd7f8d2b47f","null","null","<p style=""font-size: 60px; font-family: BACS"">YmBdcMRl</p>","","","","","","","",""
"html-keyboard-response","262","325955","0.0-13.0-0.12","615c43b800752a4f3d0fd1f0","64afc2c9a8732ea92db0087d","64afd73e39e8fbd7f8d2b47f","null","null","<p style=""font-size: 60px; font-family: BACS"">blMkATc</p>","","","","","","","",""
"html-keyboard-response","263","326957","0.0-13.0-0.13","615c43b800752a4f3d0fd1f0","64afc2c9a8732ea92db0087d","64afd73e39e8fbd7f8d2b47f","null","null","<p style=""font-size: 60px; font-family: BACS"">mbZluZc</p>","","","","","","","",""
"html-keyboard-response","264","327973","0.0-13.0-0.14","615c43b800752a4f3d0fd1f0","64afc2c9a8732ea92db0087d","64afd73e39e8fbd7f8d2b47f","null","null","<p style=""font-size: 60px; font-family: BACS"">kdaAJrkra</p>","","","","","","","",""
"html-keyboard-response","265","328989","0.0-13.0-0.15","615c43b800752a4f3d0fd1f0","64afc2c9a8732ea92db0087d","64afd73e39e8fbd7f8d2b47f","null","null","<p style=""font-size: 60px; font-family: BACS"">kNuarAm</p>","","","","","","","",""
"html-keyboard-response","266","330005","0.0-13.0-0.16","615c43b800752a4f3d0fd1f0","64afc2c9a8732ea92db0087d","64afd73e39e8fbd7f8d2b47f","null","null","<p style=""font-size: 60px; font-family: BACS"">blMkDbMR</p>","","","","","","","",""
"html-keyboard-response","267","331007","0.0-13.0-0.17","615c43b800752a4f3d0fd1f0","64afc2c9a8732ea92db0087d","64afd73e39e8fbd7f8d2b47f","null","null","<p style=""font-size: 60px; font-family: BACS"">kcCRtTmc</p>","","","","","","","",""
"html-keyboard-response","268","332023","0.0-13.0-0.18","615c43b800752a4f3d0fd1f0","64afc2c9a8732ea92db0087d","64afd73e39e8fbd7f8d2b47f","null","null","<p style=""font-size: 60px; font-family: BACS"">mcOJuZc</p>","","","","","","","",""
"html-keyboard-response","269","333040","0.0-13.0-0.19","615c43b800752a4f3d0fd1f0","64afc2c9a8732ea92db0087d","64afd73e39e8fbd7f8d2b47f","null","null","<p style=""font-size: 60px; font-family: BACS"">PDPhlcMRl</p>","","","","","","","",""
"html-keyboard-response","270","334054","0.0-13.0-0.20","615c43b800752a4f3d0fd1f0","64afc2c9a8732ea92db0087d","64afd73e39e8fbd7f8d2b47f","null","null","<p style=""font-size: 60px; font-family: BACS"">dRhtTmc</p>","","","","","","","",""
"html-keyboard-response","271","335057","0.0-13.0-0.21","615c43b800752a4f3d0fd1f0","64afc2c9a8732ea92db0087d","64afd73e39e8fbd7f8d2b47f","null","null","<p style=""font-size: 60px; font-family: BACS"">dmZvmkGua</p>","","","","","","","",""
"html-keyboard-response","272","336072","0.0-13.0-0.22","615c43b800752a4f3d0fd1f0","64afc2c9a8732ea92db0087d","64afd73e39e8fbd7f8d2b47f","null","null","<p style=""font-size: 60px; font-family: BACS"">tdDdAkd</p>","","","","","","","",""
"html-keyboard-response","273","337090","0.0-13.0-0.23","615c43b800752a4f3d0fd1f0","64afc2c9a8732ea92db0087d","64afd73e39e8fbd7f8d2b47f","null","null","<p style=""font-size: 60px; font-family: BACS"">OAblcuZc</p>","","","","","","","",""
"html-keyboard-response","274","338104","0.0-13.0-0.24","615c43b800752a4f3d0fd1f0","64afc2c9a8732ea92db0087d","64afd73e39e8fbd7f8d2b47f","null","null","<p style=""font-size: 60px; font-family: BACS"">mcOJrkra</p>","","","","","","","",""
"html-keyboard-response","275","339106","0.0-13.0-0.25","615c43b800752a4f3d0fd1f0","64afc2c9a8732ea92db0087d","64afd73e39e8fbd7f8d2b47f","null","null","<p style=""font-size: 60px; font-family: BACS"">kdaAJuZc</p>","","","","","","","",""
"html-keyboard-response","276","340107","0.0-13.0-0.26","615c43b800752a4f3d0fd1f0","64afc2c9a8732ea92db0087d","64afd73e39e8fbd7f8d2b47f","null","null","<p style=""font-size: 60px; font-family: BACS"">tdDdTmc</p>","","","","","","","",""
"html-keyboard-response","277","341121","0.0-13.0-0.27","615c43b800752a4f3d0fd1f0","64afc2c9a8732ea92db0087d","64afd73e39e8fbd7f8d2b47f","null","null","<p style=""font-size: 60px; font-family: BACS"">RtRhAkd</p>","","","","","","","",""
"html-keyboard-response","278","342124","0.0-13.0-0.28","615c43b800752a4f3d0fd1f0","64afc2c9a8732ea92db0087d","64afd73e39e8fbd7f8d2b47f","null","null","<p style=""font-size: 60px; font-family: BACS"">mcOJbadk</p>","","","","","","","",""
"html-keyboard-response","279","343138","0.0-13.0-0.29","615c43b800752a4f3d0fd1f0","64afc2c9a8732ea92db0087d","64afd73e39e8fbd7f8d2b47f","null","null","<p style=""font-size: 60px; font-family: BACS"">hlctEDbMR</p>","","","","","","","",""
"html-keyboard-response","280","344156","0.0-13.0-0.30","615c43b800752a4f3d0fd1f0","64afc2c9a8732ea92db0087d","64afd73e39e8fbd7f8d2b47f","null","null","<p style=""font-size: 60px; font-family: BACS"">ZkGmYuZc</p>","","","","","","","",""
"html-keyboard-response","281","345173","0.0-13.0-0.31","615c43b800752a4f3d0fd1f0","64afc2c9a8732ea92db0087d","64afd73e39e8fbd7f8d2b47f","null","null","<p style=""font-size: 60px; font-family: BACS"">kdaAJrAm</p>","","","","","","","",""
"html-keyboard-response","282","346189","0.0-13.0-0.32","615c43b800752a4f3d0fd1f0","64afc2c9a8732ea92db0087d","64afd73e39e8fbd7f8d2b47f","null","null","<p style=""font-size: 60px; font-family: BACS"">tDPRkcMRl</p>","","","","","","","",""
"html-keyboard-response","283","347202","0.0-13.0-0.33","615c43b800752a4f3d0fd1f0","64afc2c9a8732ea92db0087d","64afd73e39e8fbd7f8d2b47f","null","null","<p style=""font-size: 60px; font-family: BACS"">dmZvmrkra</p>","","","","","","","",""
"html-keyboard-response","284","348206","0.0-13.0-0.34","615c43b800752a4f3d0fd1f0","64afc2c9a8732ea92db0087d","64afd73e39e8fbd7f8d2b47f","null","null","<p style=""font-size: 60px; font-family: BACS"">TCbDCDbMR</p>","","","","","","","",""
"html-keyboard-response","285","349209","0.0-13.0-0.35","615c43b800752a4f3d0fd1f0","64afc2c9a8732ea92db0087d","64afd73e39e8fbd7f8d2b47f","null","null","<p style=""font-size: 60px; font-family: BACS"">tDPRkTmc</p>","","","","","","","",""
"html-keyboard-response","286","350223","0.0-13.0-0.36","615c43b800752a4f3d0fd1f0","64afc2c9a8732ea92db0087d","64afd73e39e8fbd7f8d2b47f","null","null","<p style=""font-size: 60px; font-family: BACS"">dmZvmrAm</p>","","","","","","","",""
"html-keyboard-response","287","351238","0.0-13.0-0.37","615c43b800752a4f3d0fd1f0","64afc2c9a8732ea92db0087d","64afd73e39e8fbd7f8d2b47f","null","null","<p style=""font-size: 60px; font-family: BACS"">YmBdDbMR</p>","","","","","","","",""
"html-keyboard-response","288","352240","0.0-13.0-0.38","615c43b800752a4f3d0fd1f0","64afc2c9a8732ea92db0087d","64afd73e39e8fbd7f8d2b47f","null","null","<p style=""font-size: 60px; font-family: BACS"">blMkAkd</p>","","","","","","","",""
"html-keyboard-response","289","353257","0.0-13.0-0.39","615c43b800752a4f3d0fd1f0","64afc2c9a8732ea92db0087d","64afd73e39e8fbd7f8d2b47f","null","null","<p style=""font-size: 60px; font-family: BACS"">mbZlbadk</p>","","","","","","","",""
"html-keyboard-response","290","354272","0.0-13.0-0.40","615c43b800752a4f3d0fd1f0","64afc2c9a8732ea92db0087d","64afd73e39e8fbd7f8d2b47f","null","null","<p style=""font-size: 60px; font-family: BACS"">mkmJNrkra</p>","","","","","","","",""
"html-keyboard-response","291","355274","0.0-13.0-0.41","615c43b800752a4f3d0fd1f0","64afc2c9a8732ea92db0087d","64afd73e39e8fbd7f8d2b47f","null","null","<p style=""font-size: 60px; font-family: BACS"">mbZlrAm</p>","","","","","","","",""
"html-keyboard-response","292","356290","0.0-13.0-0.42","615c43b800752a4f3d0fd1f0","64afc2c9a8732ea92db0087d","64afd73e39e8fbd7f8d2b47f","null","null","<p style=""font-size: 60px; font-family: BACS"">tDPRkATc</p>","","","","","","","",""
"html-keyboard-response","293","357308","0.0-13.0-0.43","615c43b800752a4f3d0fd1f0","64afc2c9a8732ea92db0087d","64afd73e39e8fbd7f8d2b47f","null","null","<p style=""font-size: 60px; font-family: BACS"">ZkGmYrAm</p>","","","","","","","",""
"html-keyboard-response","294","358323","0.0-13.0-0.44","615c43b800752a4f3d0fd1f0","64afc2c9a8732ea92db0087d","64afd73e39e8fbd7f8d2b47f","null","null","<p style=""font-size: 60px; font-family: BACS"">TCbDCcMRl</p>","","","","","","","",""
"html-keyboard-response","295","359337","0.0-13.0-0.45","615c43b800752a4f3d0fd1f0","64afc2c9a8732ea92db0087d","64afd73e39e8fbd7f8d2b47f","null","null","<p style=""font-size: 60px; font-family: BACS"">NvYJrkra</p>","","","","","","","",""
"html-keyboard-response","296","360340","0.0-13.0-0.46","615c43b800752a4f3d0fd1f0","64afc2c9a8732ea92db0087d","64afd73e39e8fbd7f8d2b47f","null","null","<p style=""font-size: 60px; font-family: BACS"">dRhtAkd</p>","","","","","","","",""
"html-keyboard-response","297","361357","0.0-13.0-0.47","615c43b800752a4f3d0fd1f0","64afc2c9a8732ea92db0087d","64afd73e39e8fbd7f8d2b47f","null","null","<p style=""font-size: 60px; font-family: BACS"">RtRhTmc</p>","","","","","","","",""
"html-keyboard-response","298","362374","0.0-13.0-0.48","615c43b800752a4f3d0fd1f0","64afc2c9a8732ea92db0087d","64afd73e39e8fbd7f8d2b47f","null","null","<p style=""font-size: 60px; font-family: BACS"">tdDdcMRl</p>","","","","","","","",""
"html-keyboard-response","299","363390","0.0-13.0-0.49","615c43b800752a4f3d0fd1f0","64afc2c9a8732ea92db0087d","64afd73e39e8fbd7f8d2b47f","null","null","<p style=""font-size: 60px; font-family: BACS"">dRhtATc</p>","","","","","","","",""
"html-keyboard-response","300","364406","0.0-13.0-0.50","615c43b800752a4f3d0fd1f0","64afc2c9a8732ea92db0087d","64afd73e39e8fbd7f8d2b47f","null","null","<p style=""font-size: 60px; font-family: BACS"">kLvdNrkra</p>","","","","","","","",""
"html-keyboard-response","301","365422","0.0-13.0-0.51","615c43b800752a4f3d0fd1f0","64afc2c9a8732ea92db0087d","64afd73e39e8fbd7f8d2b47f","null","null","<p style=""font-size: 60px; font-family: BACS"">tDPRkDbMR</p>","","","","","","","",""
"html-keyboard-response","302","366438","0.0-13.0-0.52","615c43b800752a4f3d0fd1f0","64afc2c9a8732ea92db0087d","64afd73e39e8fbd7f8d2b47f","null","null","<p style=""font-size: 60px; font-family: BACS"">OAblcrkra</p>","","","","","","","",""
"html-keyboard-response","303","367440","0.0-13.0-0.53","615c43b800752a4f3d0fd1f0","64afc2c9a8732ea92db0087d","64afd73e39e8fbd7f8d2b47f","null","null","<p style=""font-size: 60px; font-family: BACS"">mcOJkGua</p>","","","","","","","",""
"html-keyboard-response","304","368455","0.0-13.0-0.54","615c43b800752a4f3d0fd1f0","64afc2c9a8732ea92db0087d","64afd73e39e8fbd7f8d2b47f","null","null","<p style=""font-size: 60px; font-family: BACS"">kNuarkra</p>","","","","","","","",""
"html-keyboard-response","305","369457","0.0-13.0-0.55","615c43b800752a4f3d0fd1f0","64afc2c9a8732ea92db0087d","64afd73e39e8fbd7f8d2b47f","null","null","<p style=""font-size: 60px; font-family: BACS"">ZkGmYkGua</p>","","","","","","","",""
"html-keyboard-response","306","370474","0.0-13.0-0.56","615c43b800752a4f3d0fd1f0","64afc2c9a8732ea92db0087d","64afd73e39e8fbd7f8d2b47f","null","null","<p style=""font-size: 60px; font-family: BACS"">OAblcbadk</p>","","","","","","","",""
"html-keyboard-response","307","371480","0.0-13.0-0.57","615c43b800752a4f3d0fd1f0","64afc2c9a8732ea92db0087d","64afd73e39e8fbd7f8d2b47f","null","null","<p style=""font-size: 60px; font-family: BACS"">TCbDCAkd</p>","","","","","","","",""
"html-keyboard-response","308","372490","0.0-13.0-0.58","615c43b800752a4f3d0fd1f0","64afc2c9a8732ea92db0087d","64afd73e39e8fbd7f8d2b47f","null","null","<p style=""font-size: 60px; font-family: BACS"">kcCRtDbMR</p>","","","","","","","",""
"html-keyboard-response","309","373507","0.0-13.0-0.59","615c43b800752a4f3d0fd1f0","64afc2c9a8732ea92db0087d","64afd73e39e8fbd7f8d2b47f","null","null","<p style=""font-size: 60px; font-family: BACS"">mkmJNrAm</p>","","","","","","","",""
"html-keyboard-response","310","374529","0.0-13.0-0.60","615c43b800752a4f3d0fd1f0","64afc2c9a8732ea92db0087d","64afd73e39e8fbd7f8d2b47f","null","null","<p style=""font-size: 60px; font-family: BACS"">mbZlkGua</p>","","","","","","","",""
"html-keyboard-response","311","375539","0.0-13.0-0.61","615c43b800752a4f3d0fd1f0","64afc2c9a8732ea92db0087d","64afd73e39e8fbd7f8d2b47f","null","null","<p style=""font-size: 60px; font-family: BACS"">PDPhlTmc</p>","","","","","","","",""
"html-keyboard-response","312","376555","0.0-13.0-0.62","615c43b800752a4f3d0fd1f0","64afc2c9a8732ea92db0087d","64afd73e39e8fbd7f8d2b47f","null","null","<p style=""font-size: 60px; font-family: BACS"">NvYJkGua</p>","","","","","","","",""
"html-keyboard-response","313","377557","0.0-13.0-0.63","615c43b800752a4f3d0fd1f0","64afc2c9a8732ea92db0087d","64afd73e39e8fbd7f8d2b47f","null","null","<p style=""font-size: 60px; font-family: BACS"">tdDdATc</p>","","","","","","","",""
"html-keyboard-response","314","378571","0.0-13.0-0.64","615c43b800752a4f3d0fd1f0","64afc2c9a8732ea92db0087d","64afd73e39e8fbd7f8d2b47f","null","null","<p style=""font-size: 60px; font-family: BACS"">hlctETmc</p>","","","","","","","",""
"html-keyboard-response","315","379574","0.0-13.0-0.65","615c43b800752a4f3d0fd1f0","64afc2c9a8732ea92db0087d","64afd73e39e8fbd7f8d2b47f","null","null","<p style=""font-size: 60px; font-family: BACS"">ZkGmYbadk</p>","","","","","","","",""
"html-keyboard-response","316","380588","0.0-13.0-0.66","615c43b800752a4f3d0fd1f0","64afc2c9a8732ea92db0087d","64afd73e39e8fbd7f8d2b47f","null","null","<p style=""font-size: 60px; font-family: BACS"">kLvdNkGua</p>","","","","","","","",""
"html-keyboard-response","317","381590","0.0-13.0-0.67","615c43b800752a4f3d0fd1f0","64afc2c9a8732ea92db0087d","64afd73e39e8fbd7f8d2b47f","null","null","<p style=""font-size: 60px; font-family: BACS"">kcCRtATc</p>","","","","","","","",""
"html-keyboard-response","318","382592","0.0-13.0-0.68","615c43b800752a4f3d0fd1f0","64afc2c9a8732ea92db0087d","64afd73e39e8fbd7f8d2b47f","null","null","<p style=""font-size: 60px; font-family: BACS"">mkmJNkGua</p>","","","","","","","",""
"html-keyboard-response","319","383605","0.0-13.0-0.69","615c43b800752a4f3d0fd1f0","64afc2c9a8732ea92db0087d","64afd73e39e8fbd7f8d2b47f","null","null","<p style=""font-size: 60px; font-family: BACS"">PDPhlATc</p>","","","","","","","",""
"html-keyboard-response","320","384623","0.0-13.0-0.70","615c43b800752a4f3d0fd1f0","64afc2c9a8732ea92db0087d","64afd73e39e8fbd7f8d2b47f","null","null","<p style=""font-size: 60px; font-family: BACS"">dRhtcMRl</p>","","","","","","","",""
"html-keyboard-response","321","385624","0.0-13.0-0.71","615c43b800752a4f3d0fd1f0","64afc2c9a8732ea92db0087d","64afd73e39e8fbd7f8d2b47f","null","null","<p style=""font-size: 60px; font-family: BACS"">NvYJrAm</p>","","","","","","","",""
"html-keyboard-response","322","386640","0.0-13.0-0.72","615c43b800752a4f3d0fd1f0","64afc2c9a8732ea92db0087d","64afd73e39e8fbd7f8d2b47f","null","null","<p style=""font-size: 60px; font-family: BACS"">kNuakGua</p>","","","","","","","",""
"html-keyboard-response","323","387656","0.0-13.0-0.73","615c43b800752a4f3d0fd1f0","64afc2c9a8732ea92db0087d","64afd73e39e8fbd7f8d2b47f","null","null","<p style=""font-size: 60px; font-family: BACS"">TCbDCATc</p>","","","","","","","",""
"html-keyboard-response","324","388670","0.0-13.0-0.74","615c43b800752a4f3d0fd1f0","64afc2c9a8732ea92db0087d","64afd73e39e8fbd7f8d2b47f","null","null","<p style=""font-size: 60px; font-family: BACS"">kLvdNuZc</p>","","","","","","","",""
"html-keyboard-response","325","389673","0.0-13.0-0.75","615c43b800752a4f3d0fd1f0","64afc2c9a8732ea92db0087d","64afd73e39e8fbd7f8d2b47f","null","null","<p style=""font-size: 60px; font-family: BACS"">RtRhDbMR</p>","","","","","","","",""
"html-keyboard-response","326","390690","0.0-13.0-0.76","615c43b800752a4f3d0fd1f0","64afc2c9a8732ea92db0087d","64afd73e39e8fbd7f8d2b47f","null","null","<p style=""font-size: 60px; font-family: BACS"">kNuauZc</p>","","","","","","","",""
"html-keyboard-response","327","391705","0.0-13.0-0.77","615c43b800752a4f3d0fd1f0","64afc2c9a8732ea92db0087d","64afd73e39e8fbd7f8d2b47f","null","null","<p style=""font-size: 60px; font-family: BACS"">hlctEATc</p>","","","","","","","",""
"html-keyboard-response","328","392721","0.0-13.0-0.78","615c43b800752a4f3d0fd1f0","64afc2c9a8732ea92db0087d","64afd73e39e8fbd7f8d2b47f","null","null","<p style=""font-size: 60px; font-family: BACS"">NvYJbadk</p>","","","","","","","",""
"html-keyboard-response","329","393737","0.0-13.0-0.79","615c43b800752a4f3d0fd1f0","64afc2c9a8732ea92db0087d","64afd73e39e8fbd7f8d2b47f","null","null","<p style=""font-size: 60px; font-family: BACS"">kcCRtAkd</p>","","","","","","","",""
"html-keyboard-response","330","400708","0.0-14.0","615c43b800752a4f3d0fd1f0","64afc2c9a8732ea92db0087d","64afd73e39e8fbd7f8d2b47f","6970"," ","<p>Ottimo! Hai visto tutte le parole che abbiamo ricevuto dallo spazio.</p>
      <p>Premi la barra quando sei pronta/o per continuare.</p>","","","","","","","",""
"html-keyboard-response","331","427388","0.0-15.0","615c43b800752a4f3d0fd1f0","64afc2c9a8732ea92db0087d","64afd73e39e8fbd7f8d2b47f","26680"," ","<p>In questa seconda parte, vedrai delle nuove parole che abbiamo ricevuto dallo stesso gruppo di alieni, e altre che invece provengono da un'altra comunicazione, con un altro gruppo di alieni. Purtroppo le due comunicazioni non arrivano a noi separatamente, per cui le parole sono mescolate tra loro. Il tuo compito sarà quello di individuare le parole che provengono dal gruppo che hai studiato nella prima parte dell'esperimento.</p>
      <p>Questo compito non è per nulla facile; le due comunicazioni infatti usano gli stessi caratteri. Il tuo meeting con i leader mondiali inizia tra poco, per cui non avrai molto tempo per prendere la tua decisione; dovrai essere veloce. Cerca di fare del tuo meglio usando la tua intuizione; non hai tempo di stare a pensare a lungo su ogni singola parola.</p>
      <p>Premi <strong>k</strong> quando pensi che la parola che stai vedendo sia degli stessi alieni che hai studiato prima, e <strong>d</strong> quando invece pensi che la parola che stai vedendo venga dall'altra comunicazione, con il nuovo gruppo di alieni.</p><p>Premi la barra quando sei pronta/o per iniziare.</p>","","","","","","","",""
"html-keyboard-response","332","431940","0.0-16.0-0.0","615c43b800752a4f3d0fd1f0","64afc2c9a8732ea92db0087d","64afd73e39e8fbd7f8d2b47f","4551","k","<p style=""font-size: 30px;"">La parola viene del gruppo di alieni che hai studiato prima?</p><br><p style=""font-size: 60px; font-family: BACS"">kNuabadk<p style=""font-size: 15px"">Premi <strong>k</strong> per sì, <strong>d</strong> per no.</p>","","kNuabadk","testing","k","true","","",""
"html-keyboard-response","333","442051","0.0-16.0-1.0-0.0","615c43b800752a4f3d0fd1f0","64afc2c9a8732ea92db0087d","64afd73e39e8fbd7f8d2b47f","10108"," ","<p style=""font-size: 30px; color: red"">Attenzione! Sei stato troppo lento con questa parola.</p>
      <p style=""font-size: 30px; color: red"">Cerca di essere più veloce.</p><p></p><p>Premi la barra per continuare.</p>","","","","","","","",""
"html-keyboard-response","334","443204","0.0-16.0-0.1","615c43b800752a4f3d0fd1f0","64afc2c9a8732ea92db0087d","64afd73e39e8fbd7f8d2b47f","1153","d","<p style=""font-size: 30px;"">La parola viene del gruppo di alieni che hai studiato prima?</p><br><p style=""font-size: 60px; font-family: BACS"">NvYJuZc<p style=""font-size: 15px"">Premi <strong>k</strong> per sì, <strong>d</strong> per no.</p>","","NvYJuZc","testing","k","false","","",""
"html-keyboard-response","335","444226","0.0-16.0-0.2","615c43b800752a4f3d0fd1f0","64afc2c9a8732ea92db0087d","64afd73e39e8fbd7f8d2b47f","1022","k","<p style=""font-size: 30px;"">La parola viene del gruppo di alieni che hai studiato prima?</p><br><p style=""font-size: 60px; font-family: BACS"">TCbDCTmc<p style=""font-size: 15px"">Premi <strong>k</strong> per sì, <strong>d</strong> per no.</p>","","TCbDCTmc","testing","k","true","","",""
"html-keyboard-response","336","445153","0.0-16.0-0.3","615c43b800752a4f3d0fd1f0","64afc2c9a8732ea92db0087d","64afd73e39e8fbd7f8d2b47f","925","d","<p style=""font-size: 30px"">&emsp;</p><br><p style=""font-size: 60px; font-family: BACS"">dRhtrAm<p style=""font-size: 15px"">Premi <strong>k</strong> per sì, <strong>d</strong> per no.</p>","","dRhtrAm","testing","d","true","","",""
"html-keyboard-response","337","446223","0.0-16.0-0.4","615c43b800752a4f3d0fd1f0","64afc2c9a8732ea92db0087d","64afd73e39e8fbd7f8d2b47f","1070","k","<p style=""font-size: 30px"">&emsp;</p><br><p style=""font-size: 60px; font-family: BACS"">mkmJNbadk<p style=""font-size: 15px"">Premi <strong>k</strong> per sì, <strong>d</strong> per no.</p>","","mkmJNbadk","testing","k","true","","",""
"html-keyboard-response","338","446972","0.0-16.0-0.5","615c43b800752a4f3d0fd1f0","64afc2c9a8732ea92db0087d","64afd73e39e8fbd7f8d2b47f","748","d","<p style=""font-size: 30px"">&emsp;</p><br><p style=""font-size: 60px; font-family: BACS"">hlctEcMRl<p style=""font-size: 15px"">Premi <strong>k</strong> per sì, <strong>d</strong> per no.</p>","","hlctEcMRl","testing","k","false","","",""
"html-keyboard-response","339","447908","0.0-16.0-0.6","615c43b800752a4f3d0fd1f0","64afc2c9a8732ea92db0087d","64afd73e39e8fbd7f8d2b47f","936","k","<p style=""font-size: 30px"">&emsp;</p><br><p style=""font-size: 60px; font-family: BACS"">kLvdNrAm<p style=""font-size: 15px"">Premi <strong>k</strong> per sì, <strong>d</strong> per no.</p>","","kLvdNrAm","testing","k","true","","",""
"html-keyboard-response","340","448714","0.0-16.0-0.7","615c43b800752a4f3d0fd1f0","64afc2c9a8732ea92db0087d","64afd73e39e8fbd7f8d2b47f","804","k","<p style=""font-size: 30px"">&emsp;</p><br><p style=""font-size: 60px; font-family: BACS"">mbZlrkra<p style=""font-size: 15px"">Premi <strong>k</strong> per sì, <strong>d</strong> per no.</p>","","mbZlrkra","testing","k","true","","",""
"html-keyboard-response","341","449657","0.0-16.0-0.8","615c43b800752a4f3d0fd1f0","64afc2c9a8732ea92db0087d","64afd73e39e8fbd7f8d2b47f","943","d","<p style=""font-size: 30px"">&emsp;</p><br><p style=""font-size: 60px; font-family: BACS"">PDPhlkGua<p style=""font-size: 15px"">Premi <strong>k</strong> per sì, <strong>d</strong> per no.</p>","","PDPhlkGua","testing","d","true","","",""
"html-keyboard-response","342","450416","0.0-16.0-0.9","615c43b800752a4f3d0fd1f0","64afc2c9a8732ea92db0087d","64afd73e39e8fbd7f8d2b47f","758","k","<p style=""font-size: 30px"">&emsp;</p><br><p style=""font-size: 60px; font-family: BACS"">TCbDCrkra<p style=""font-size: 15px"">Premi <strong>k</strong> per sì, <strong>d</strong> per no.</p>","","TCbDCrkra","testing","d","false","","",""
"html-keyboard-response","343","451243","0.0-16.0-0.10","615c43b800752a4f3d0fd1f0","64afc2c9a8732ea92db0087d","64afd73e39e8fbd7f8d2b47f","826","k","<p style=""font-size: 30px"">&emsp;</p><br><p style=""font-size: 60px; font-family: BACS"">dmZvmuZc<p style=""font-size: 15px"">Premi <strong>k</strong> per sì, <strong>d</strong> per no.</p>","","dmZvmuZc","testing","k","true","","",""
"html-keyboard-response","344","451979","0.0-16.0-0.11","615c43b800752a4f3d0fd1f0","64afc2c9a8732ea92db0087d","64afd73e39e8fbd7f8d2b47f","735","d","<p style=""font-size: 30px"">&emsp;</p><br><p style=""font-size: 60px; font-family: BACS"">tdDdDbMR<p style=""font-size: 15px"">Premi <strong>k</strong> per sì, <strong>d</strong> per no.</p>","","tdDdDbMR","testing","k","false","","",""
"html-keyboard-response","345","452427","0.0-16.0-0.12","615c43b800752a4f3d0fd1f0","64afc2c9a8732ea92db0087d","64afd73e39e8fbd7f8d2b47f","448","k","<p style=""font-size: 30px"">&emsp;</p><br><p style=""font-size: 60px; font-family: BACS"">YmBdATc<p style=""font-size: 15px"">Premi <strong>k</strong> per sì, <strong>d</strong> per no.</p>","","YmBdATc","testing","k","true","","",""
"html-keyboard-response","346","453402","0.0-16.0-0.13","615c43b800752a4f3d0fd1f0","64afc2c9a8732ea92db0087d","64afd73e39e8fbd7f8d2b47f","974","d","<p style=""font-size: 30px"">&emsp;</p><br><p style=""font-size: 60px; font-family: BACS"">hlctEbadk<p style=""font-size: 15px"">Premi <strong>k</strong> per sì, <strong>d</strong> per no.</p>","","hlctEbadk","testing","d","true","","",""
"html-keyboard-response","347","454265","0.0-16.0-0.14","615c43b800752a4f3d0fd1f0","64afc2c9a8732ea92db0087d","64afd73e39e8fbd7f8d2b47f","862","k","<p style=""font-size: 30px"">&emsp;</p><br><p style=""font-size: 60px; font-family: BACS"">tDPRkAkd<p style=""font-size: 15px"">Premi <strong>k</strong> per sì, <strong>d</strong> per no.</p>","","tDPRkAkd","testing","k","true","","",""
"html-keyboard-response","348","454982","0.0-16.0-0.15","615c43b800752a4f3d0fd1f0","64afc2c9a8732ea92db0087d","64afd73e39e8fbd7f8d2b47f","716","k","<p style=""font-size: 30px"">&emsp;</p><br><p style=""font-size: 60px; font-family: BACS"">NvYJATc<p style=""font-size: 15px"">Premi <strong>k</strong> per sì, <strong>d</strong> per no.</p>","","NvYJATc","testing","d","false","","",""
"html-keyboard-response","349","455822","0.0-16.0-0.16","615c43b800752a4f3d0fd1f0","64afc2c9a8732ea92db0087d","64afd73e39e8fbd7f8d2b47f","839","d","<p style=""font-size: 30px"">&emsp;</p><br><p style=""font-size: 60px; font-family: BACS"">ZkGmYrkra<p style=""font-size: 15px"">Premi <strong>k</strong> per sì, <strong>d</strong> per no.</p>","","ZkGmYrkra","testing","k","false","","",""
"html-keyboard-response","350","456699","0.0-16.0-0.17","615c43b800752a4f3d0fd1f0","64afc2c9a8732ea92db0087d","64afd73e39e8fbd7f8d2b47f","876","d","<p style=""font-size: 30px"">&emsp;</p><br><p style=""font-size: 60px; font-family: BACS"">YmBduZc<p style=""font-size: 15px"">Premi <strong>k</strong> per sì, <strong>d</strong> per no.</p>","","YmBduZc","testing","d","true","","",""
"html-keyboard-response","351","457527","0.0-16.0-0.18","615c43b800752a4f3d0fd1f0","64afc2c9a8732ea92db0087d","64afd73e39e8fbd7f8d2b47f","827","d","<p style=""font-size: 30px"">&emsp;</p><br><p style=""font-size: 60px; font-family: BACS"">kcCRtbadk<p style=""font-size: 15px"">Premi <strong>k</strong> per sì, <strong>d</strong> per no.</p>","","kcCRtbadk","testing","d","true","","",""
"html-keyboard-response","352","458253","0.0-16.0-0.19","615c43b800752a4f3d0fd1f0","64afc2c9a8732ea92db0087d","64afd73e39e8fbd7f8d2b47f","724","k","<p style=""font-size: 30px"">&emsp;</p><br><p style=""font-size: 60px; font-family: BACS"">tDPRkkGua<p style=""font-size: 15px"">Premi <strong>k</strong> per sì, <strong>d</strong> per no.</p>","","tDPRkkGua","testing","d","false","","",""
"html-keyboard-response","353","459438","0.0-16.0-0.20","615c43b800752a4f3d0fd1f0","64afc2c9a8732ea92db0087d","64afd73e39e8fbd7f8d2b47f","1184","k","<p style=""font-size: 30px"">&emsp;</p><br><p style=""font-size: 60px; font-family: BACS"">PDPhlAkd<p style=""font-size: 15px"">Premi <strong>k</strong> per sì, <strong>d</strong> per no.</p>","","PDPhlAkd","testing","k","true","","",""
"html-keyboard-response","354","461074","0.0-16.0-0.21","615c43b800752a4f3d0fd1f0","64afc2c9a8732ea92db0087d","64afd73e39e8fbd7f8d2b47f","1636","d","<p style=""font-size: 30px"">&emsp;</p><br><p style=""font-size: 60px; font-family: BACS"">kdaAJkGua<p style=""font-size: 15px"">Premi <strong>k</strong> per sì, <strong>d</strong> per no.</p>","","kdaAJkGua","testing","k","false","","",""
"html-keyboard-response","355","461772","0.0-16.0-0.22","615c43b800752a4f3d0fd1f0","64afc2c9a8732ea92db0087d","64afd73e39e8fbd7f8d2b47f","697","k","<p style=""font-size: 30px"">&emsp;</p><br><p style=""font-size: 60px; font-family: BACS"">mcOJDbMR<p style=""font-size: 15px"">Premi <strong>k</strong> per sì, <strong>d</strong> per no.</p>","","mcOJDbMR","testing","d","false","","",""
"html-keyboard-response","356","462750","0.0-16.0-0.23","615c43b800752a4f3d0fd1f0","64afc2c9a8732ea92db0087d","64afd73e39e8fbd7f8d2b47f","976","d","<p style=""font-size: 30px"">&emsp;</p><br><p style=""font-size: 60px; font-family: BACS"">OAblcAkd<p style=""font-size: 15px"">Premi <strong>k</strong> per sì, <strong>d</strong> per no.</p>","","OAblcAkd","testing","d","true","","",""
"html-keyboard-response","357","462845","0.0-16.0-0.24","615c43b800752a4f3d0fd1f0","64afc2c9a8732ea92db0087d","64afd73e39e8fbd7f8d2b47f","93","d","<p style=""font-size: 30px"">&emsp;</p><br><p style=""font-size: 60px; font-family: BACS"">RtRhATc<p style=""font-size: 15px"">Premi <strong>k</strong> per sì, <strong>d</strong> per no.</p>","","RtRhATc","testing","k","false","","",""
"html-keyboard-response","358","463613","0.0-16.0-0.25","615c43b800752a4f3d0fd1f0","64afc2c9a8732ea92db0087d","64afd73e39e8fbd7f8d2b47f","767","k","<p style=""font-size: 30px"">&emsp;</p><br><p style=""font-size: 60px; font-family: BACS"">dRhtDbMR<p style=""font-size: 15px"">Premi <strong>k</strong> per sì, <strong>d</strong> per no.</p>","","dRhtDbMR","testing","k","true","","",""
"html-keyboard-response","359","464135","0.0-16.0-0.26","615c43b800752a4f3d0fd1f0","64afc2c9a8732ea92db0087d","64afd73e39e8fbd7f8d2b47f","522","k","<p style=""font-size: 30px"">&emsp;</p><br><p style=""font-size: 60px; font-family: BACS"">mbZlTmc<p style=""font-size: 15px"">Premi <strong>k</strong> per sì, <strong>d</strong> per no.</p>","","mbZlTmc","testing","d","false","","",""
"html-keyboard-response","360","464734","0.0-16.0-0.27","615c43b800752a4f3d0fd1f0","64afc2c9a8732ea92db0087d","64afd73e39e8fbd7f8d2b47f","598","d","<p style=""font-size: 30px"">&emsp;</p><br><p style=""font-size: 60px; font-family: BACS"">mcOJrAm<p style=""font-size: 15px"">Premi <strong>k</strong> per sì, <strong>d</strong> per no.</p>","","mcOJrAm","testing","k","false","","",""
"html-keyboard-response","361","465530","0.0-16.0-0.28","615c43b800752a4f3d0fd1f0","64afc2c9a8732ea92db0087d","64afd73e39e8fbd7f8d2b47f","795","k","<p style=""font-size: 30px"">&emsp;</p><br><p style=""font-size: 60px; font-family: BACS"">RtRhuZc<p style=""font-size: 15px"">Premi <strong>k</strong> per sì, <strong>d</strong> per no.</p>","","RtRhuZc","testing","d","false","","",""
"html-keyboard-response","362","466048","0.0-16.0-0.29","615c43b800752a4f3d0fd1f0","64afc2c9a8732ea92db0087d","64afd73e39e8fbd7f8d2b47f","517","k","<p style=""font-size: 30px"">&emsp;</p><br><p style=""font-size: 60px; font-family: BACS"">tdDdrAm<p style=""font-size: 15px"">Premi <strong>k</strong> per sì, <strong>d</strong> per no.</p>","","tdDdrAm","testing","d","false","","",""
"html-keyboard-response","363","466580","0.0-16.0-0.30","615c43b800752a4f3d0fd1f0","64afc2c9a8732ea92db0087d","64afd73e39e8fbd7f8d2b47f","532","d","<p style=""font-size: 30px"">&emsp;</p><br><p style=""font-size: 60px; font-family: BACS"">ZkGmYTmc<p style=""font-size: 15px"">Premi <strong>k</strong> per sì, <strong>d</strong> per no.</p>","","ZkGmYTmc","testing","d","true","","",""
"html-keyboard-response","364","467181","0.0-16.0-0.31","615c43b800752a4f3d0fd1f0","64afc2c9a8732ea92db0087d","64afd73e39e8fbd7f8d2b47f","600","k","<p style=""font-size: 30px"">&emsp;</p><br><p style=""font-size: 60px; font-family: BACS"">kLvdNDbMR<p style=""font-size: 15px"">Premi <strong>k</strong> per sì, <strong>d</strong> per no.</p>","","kLvdNDbMR","testing","d","false","","",""
"html-keyboard-response","365","467831","0.0-16.0-0.32","615c43b800752a4f3d0fd1f0","64afc2c9a8732ea92db0087d","64afd73e39e8fbd7f8d2b47f","650","k","<p style=""font-size: 30px"">&emsp;</p><br><p style=""font-size: 60px; font-family: BACS"">kdaAJAkd<p style=""font-size: 15px"">Premi <strong>k</strong> per sì, <strong>d</strong> per no.</p>","","kdaAJAkd","testing","d","false","","",""
"html-keyboard-response","366","468224","0.0-16.0-0.33","615c43b800752a4f3d0fd1f0","64afc2c9a8732ea92db0087d","64afd73e39e8fbd7f8d2b47f","392","d","<p style=""font-size: 30px"">&emsp;</p><br><p style=""font-size: 60px; font-family: BACS"">OAblckGua<p style=""font-size: 15px"">Premi <strong>k</strong> per sì, <strong>d</strong> per no.</p>","","OAblckGua","testing","k","false","","",""
"html-keyboard-response","367","468832","0.0-16.0-0.34","615c43b800752a4f3d0fd1f0","64afc2c9a8732ea92db0087d","64afd73e39e8fbd7f8d2b47f","606","d","<p style=""font-size: 30px"">&emsp;</p><br><p style=""font-size: 60px; font-family: BACS"">mkmJNcMRl<p style=""font-size: 15px"">Premi <strong>k</strong> per sì, <strong>d</strong> per no.</p>","","mkmJNcMRl","testing","d","true","","",""
"html-keyboard-response","368","469695","0.0-16.0-0.35","615c43b800752a4f3d0fd1f0","64afc2c9a8732ea92db0087d","64afd73e39e8fbd7f8d2b47f","862","d","<p style=""font-size: 30px"">&emsp;</p><br><p style=""font-size: 60px; font-family: BACS"">blMkrkra<p style=""font-size: 15px"">Premi <strong>k</strong> per sì, <strong>d</strong> per no.</p>","","blMkrkra","testing","d","true","","",""
"html-keyboard-response","369","470410","0.0-16.0-0.36","615c43b800752a4f3d0fd1f0","64afc2c9a8732ea92db0087d","64afd73e39e8fbd7f8d2b47f","715","k","<p style=""font-size: 30px"">&emsp;</p><br><p style=""font-size: 60px; font-family: BACS"">kcCRtcMRl<p style=""font-size: 15px"">Premi <strong>k</strong> per sì, <strong>d</strong> per no.</p>","","kcCRtcMRl","testing","k","true","","",""
"html-keyboard-response","370","471812","0.0-16.0-0.37","615c43b800752a4f3d0fd1f0","64afc2c9a8732ea92db0087d","64afd73e39e8fbd7f8d2b47f","1401","k","<p style=""font-size: 30px"">&emsp;</p><br><p style=""font-size: 60px; font-family: BACS"">dmZvmATc<p style=""font-size: 15px"">Premi <strong>k</strong> per sì, <strong>d</strong> per no.</p>","","dmZvmATc","testing","d","false","","",""
"html-keyboard-response","371","472438","0.0-16.0-0.38","615c43b800752a4f3d0fd1f0","64afc2c9a8732ea92db0087d","64afd73e39e8fbd7f8d2b47f","626","d","<p style=""font-size: 30px"">&emsp;</p><br><p style=""font-size: 60px; font-family: BACS"">kNuacMRl<p style=""font-size: 15px"">Premi <strong>k</strong> per sì, <strong>d</strong> per no.</p>","","kNuacMRl","testing","d","true","","",""
