"trial_type","trial_index","time_elapsed","internal_node_id","subject_id","study_id","session_id","rt","response","stimulus","success","item","task","correct_response","correct","target","confound","name"
"pavlovia","0","3392","0.0-0.0","5ee7b7c9eef92207297a0ad4","64afc2c9a8732ea92db0087d","64afd57be816f17cf60e0fbc","","","","","","","","","","",""
"survey-html-form","1","9019","0.0-1.0","5ee7b7c9eef92207297a0ad4","64afc2c9a8732ea92db0087d","64afd57be816f17cf60e0fbc","5625","{""ID"":""5ee7b7c9eef92207297a0ad4""}","","","","","","","","",""
"html-keyboard-response","2","14423","0.0-2.0","5ee7b7c9eef92207297a0ad4","64afc2c9a8732ea92db0087d","64afd57be816f17cf60e0fbc","5403"," ","<p style=""font-size: 15px;"">Prima di cominciare, le chiediamo di leggere il modulo di consenso informato e confermare la sua volontà di partecipare all'esperimento.</p>
      <p style=""font-size: 15px;""> La preghiamo di ricordare che questo è un progetto di ricerca e che la sua partecipazione è completamente volontaria. Lei si potra' ritirare in qualunque momento, senza necessariamente dover dare alcuna spiegazione. Lo studio al quale Le si chiede di partecipare ha lo scopo di esaminare come i lettori elaborano le parole scritte. La somministrazione delle prove è individuale. Lei sarà impegnato in una sessione di lavoro della durata media di 10 minuti, e un questionario di 10 minuti. L’ordine delle prove ed il loro svolgimento sono stabiliti in modo tale da evitare un eventuale affaticamento. Tutte le prove saranno precedute da un breve addestramento in modo tale che abbia la possibilità di familiarizzare con il compito. Sono previste alcune pause nel corso dello svolgimento dell’esperimento. Una ricompensa di £4 (£8 per ora) Le verrà consegnata al termine della sessione di testing. Nonostante il testing preveda delle prove cognitive, il presente esperimento non costituisce una prova clinica che permetta la diagnosi di eventuali patologie.</p>
      <p style=""font-size: 15px;"">Tutti i dati raccolti grazie alla partecipazione Sua e di altre persone volontarie saranno custoditi in server sicuri e protetti da password, e non sarà consentito ad alcuna persona non autorizzata di accedervi. Le Sue informazioni personali saranno conservate separatamente dai risultati della presente ricerca, cui saranno associati soltanto attraverso un ID arbitrario. Grazie a questo processo di anonimizzazione dei dati, a nessun ricercatore sarà possibile analizzare i risultati sapendo da quale specifico partecipante essi provengono. Inoltre, questa procedura renderà impossibile la Sua identificazione anche nel momento in cui i risultati della ricerca fossero pubblicati su riviste scientifiche, o presentati a congressi o in qualsiasi altro pubblico consesso. Più in generale, i dati raccolti saranno trattati in accordo con le leggi sulla privacy e in conformità al Decreto Legislativo 30 giugno 2003 n. 196 “Codice in materia di protezione dei dati personali” e al Regolamento Europeo 2016/679 (General Data Protection Regulation - GDPR). Il Responsabile della protezione dei dati (RPD) è l’Avv. Valentina Carollo che può essere contattato ai seguenti indirizzi email: <a href=""mailto:dpo@sissa.it"">dpo@sissa.it</a> oppure <a href=""mailto:rpd@sissa.it"">rpd@sissa.it</a> - PEC: <a href=""mailto:protocollo@pec.sissa.it"">protocollo@pec.sissa.it</a>.</p>
      <p style=""font-size: 15px;""> Prima di esprimere il suo consenso alla partecipazione, Le ricordiamo ancora che in caso Lei abbia bisogno di delucidazioni su qualunque aspetto della procedura sperimentale, il ricercatore è a Sua completa disposizione (<a href=""mailto:aliebelt@sissa.it"">aliebelt@sissa.it</a>, <a href=""mailto:davide.crepaldi@sissa.it"">davide.crepaldi@sissa.it</a>).</p>
      <p style=""font-size: 15px;"">Se vuole scaricare il modulo di consenso informato, clicca qui: <a href=""BASL_modulo_consenso.pdf"" download>modulo di consenso</a>.</p>
      <p style=""font-size: 15px;""> Le chiediamo di premere la barra per continuare al consenso.</p>","","","","","","","",""
"survey-html-form","3","27904","0.0-3.0","5ee7b7c9eef92207297a0ad4","64afc2c9a8732ea92db0087d","64afd57be816f17cf60e0fbc","13481","{""consent1"":""YES"",""consent2"":""YES"",""consent3"":""YES"",""consent4"":""YES"",""consent5"":""YES"",""consent6"":""YES""}","","","","","","","","",""
"fullscreen","4","31013","0.0-4.0","5ee7b7c9eef92207297a0ad4","64afc2c9a8732ea92db0087d","64afd57be816f17cf60e0fbc","","","","true","","","","","","",""
"html-keyboard-response","5","42663","0.0-5.0","5ee7b7c9eef92207297a0ad4","64afc2c9a8732ea92db0087d","64afd57be816f17cf60e0fbc","11650"," ","<p>Benvenuta/o, e grazie mille del tuo tempo!</p>
      <p>In questo esperimento sarai un esperto/un'esperta di linguaggio cui è stato chiesto di dare un'occhiata ad alcuni messaggi che la Terra ha ricevuto dallo spazio. Il tuo compito, in questa prima parte dell'esperimento, sarà di fare molta attenzione alle parole che ti verranno mostrate; più tardi, i leader del mondo ti chiederanno qualche informazione su quello che hai visto. Le parole si susseguiranno abbastanza velocemente; sembra che questi alieni abbiano una certa fretta :-) </p>
      <p>Per favore, chiama lo sperimentatore se ha qualche domanda.</p><p>Premi la barra per continuare.</p>","","","","","","","",""
"html-keyboard-response","6","45667","0.0-6.0","5ee7b7c9eef92207297a0ad4","64afc2c9a8732ea92db0087d","64afd57be816f17cf60e0fbc","3003"," ","<p>Ecco un esempio delle parole che vedrai:</p>
      <img src='esempio.png' height='400px'>
      <p>Quando sei pronti per iniziare, premi la barra.</p></div>","","","","","","","",""
"html-keyboard-response","7","46668","0.0-7.0-0.0","5ee7b7c9eef92207297a0ad4","64afc2c9a8732ea92db0087d","64afd57be816f17cf60e0fbc","null","null","<p style=""font-size: 60px; font-family: BACS"">ALGZuvJ</p>","","","","","","","",""
"html-keyboard-response","8","47677","0.0-7.0-0.1","5ee7b7c9eef92207297a0ad4","64afc2c9a8732ea92db0087d","64afd57be816f17cf60e0fbc","null","null","<p style=""font-size: 60px; font-family: BACS"">DcPTcOtM</p>","","","","","","","",""
"html-keyboard-response","9","48678","0.0-7.0-0.2","5ee7b7c9eef92207297a0ad4","64afc2c9a8732ea92db0087d","64afd57be816f17cf60e0fbc","null","null","<p style=""font-size: 60px; font-family: BACS"">QbkAcvAvb</p>","","","","","","","",""
"html-keyboard-response","10","49679","0.0-7.0-0.3","5ee7b7c9eef92207297a0ad4","64afc2c9a8732ea92db0087d","64afd57be816f17cf60e0fbc","null","null","<p style=""font-size: 60px; font-family: BACS"">bcbMAlKD</p>","","","","","","","",""
"html-keyboard-response","11","50680","0.0-7.0-0.4","5ee7b7c9eef92207297a0ad4","64afc2c9a8732ea92db0087d","64afd57be816f17cf60e0fbc","null","null","<p style=""font-size: 60px; font-family: BACS"">bYGOZuvJ</p>","","","","","","","",""
"html-keyboard-response","12","51680","0.0-7.0-0.5","5ee7b7c9eef92207297a0ad4","64afc2c9a8732ea92db0087d","64afd57be816f17cf60e0fbc","null","null","<p style=""font-size: 60px; font-family: BACS"">TEBKOtM</p>","","","","","","","",""
"html-keyboard-response","13","52681","0.0-7.0-0.6","5ee7b7c9eef92207297a0ad4","64afc2c9a8732ea92db0087d","64afd57be816f17cf60e0fbc","null","null","<p style=""font-size: 60px; font-family: BACS"">tmtEMtRb</p>","","","","","","","",""
"html-keyboard-response","14","53685","0.0-7.0-0.7","5ee7b7c9eef92207297a0ad4","64afc2c9a8732ea92db0087d","64afd57be816f17cf60e0fbc","null","null","<p style=""font-size: 60px; font-family: BACS"">YQbcGlu</p>","","","","","","","",""
"html-keyboard-response","15","54701","0.0-7.0-0.8","5ee7b7c9eef92207297a0ad4","64afc2c9a8732ea92db0087d","64afd57be816f17cf60e0fbc","null","null","<p style=""font-size: 60px; font-family: BACS"">YJLcAlGc</p>","","","","","","","",""
"html-keyboard-response","16","55715","0.0-7.0-0.9","5ee7b7c9eef92207297a0ad4","64afc2c9a8732ea92db0087d","64afd57be816f17cf60e0fbc","null","null","<p style=""font-size: 60px; font-family: BACS"">DkTCPAlKD</p>","","","","","","","",""
"html-keyboard-response","17","56716","0.0-7.0-0.10","5ee7b7c9eef92207297a0ad4","64afc2c9a8732ea92db0087d","64afd57be816f17cf60e0fbc","null","null","<p style=""font-size: 60px; font-family: BACS"">kbmZOvAvb</p>","","","","","","","",""
"html-keyboard-response","18","57717","0.0-7.0-0.11","5ee7b7c9eef92207297a0ad4","64afc2c9a8732ea92db0087d","64afd57be816f17cf60e0fbc","null","null","<p style=""font-size: 60px; font-family: BACS"">vYLUlGc</p>","","","","","","","",""
"html-keyboard-response","19","58718","0.0-7.0-0.12","5ee7b7c9eef92207297a0ad4","64afc2c9a8732ea92db0087d","64afd57be816f17cf60e0fbc","null","null","<p style=""font-size: 60px; font-family: BACS"">tmtEMOtM</p>","","","","","","","",""
"html-keyboard-response","20","59719","0.0-7.0-0.13","5ee7b7c9eef92207297a0ad4","64afc2c9a8732ea92db0087d","64afd57be816f17cf60e0fbc","null","null","<p style=""font-size: 60px; font-family: BACS"">AlQaQvAvb</p>","","","","","","","",""
"html-keyboard-response","21","60730","0.0-7.0-0.14","5ee7b7c9eef92207297a0ad4","64afc2c9a8732ea92db0087d","64afd57be816f17cf60e0fbc","null","null","<p style=""font-size: 60px; font-family: BACS"">kbmZOuvJ</p>","","","","","","","",""
"html-keyboard-response","22","61739","0.0-7.0-0.15","5ee7b7c9eef92207297a0ad4","64afc2c9a8732ea92db0087d","64afd57be816f17cf60e0fbc","null","null","<p style=""font-size: 60px; font-family: BACS"">YJLcAuda</p>","","","","","","","",""
"html-keyboard-response","23","62752","0.0-7.0-0.16","5ee7b7c9eef92207297a0ad4","64afc2c9a8732ea92db0087d","64afd57be816f17cf60e0fbc","null","null","<p style=""font-size: 60px; font-family: BACS"">bcbMbRC</p>","","","","","","","",""
"html-keyboard-response","24","63753","0.0-7.0-0.17","5ee7b7c9eef92207297a0ad4","64afc2c9a8732ea92db0087d","64afd57be816f17cf60e0fbc","null","null","<p style=""font-size: 60px; font-family: BACS"">BATOctRb</p>","","","","","","","",""
"html-keyboard-response","25","64755","0.0-7.0-0.18","5ee7b7c9eef92207297a0ad4","64afc2c9a8732ea92db0087d","64afd57be816f17cf60e0fbc","null","null","<p style=""font-size: 60px; font-family: BACS"">BKDRYAlKD</p>","","","","","","","",""
"html-keyboard-response","26","65757","0.0-7.0-0.19","5ee7b7c9eef92207297a0ad4","64afc2c9a8732ea92db0087d","64afd57be816f17cf60e0fbc","null","null","<p style=""font-size: 60px; font-family: BACS"">TEBKbRC</p>","","","","","","","",""
"html-keyboard-response","27","66770","0.0-7.0-0.20","5ee7b7c9eef92207297a0ad4","64afc2c9a8732ea92db0087d","64afd57be816f17cf60e0fbc","null","null","<p style=""font-size: 60px; font-family: BACS"">lkAkvAvb</p>","","","","","","","",""
"html-keyboard-response","28","67772","0.0-7.0-0.21","5ee7b7c9eef92207297a0ad4","64afc2c9a8732ea92db0087d","64afd57be816f17cf60e0fbc","null","null","<p style=""font-size: 60px; font-family: BACS"">kCRmAlKD</p>","","","","","","","",""
"html-keyboard-response","29","68777","0.0-7.0-0.22","5ee7b7c9eef92207297a0ad4","64afc2c9a8732ea92db0087d","64afd57be816f17cf60e0fbc","null","null","<p style=""font-size: 60px; font-family: BACS"">AlQaQlGc</p>","","","","","","","",""
"html-keyboard-response","30","69778","0.0-7.0-0.23","5ee7b7c9eef92207297a0ad4","64afc2c9a8732ea92db0087d","64afd57be816f17cf60e0fbc","null","null","<p style=""font-size: 60px; font-family: BACS"">DkTCPOtM</p>","","","","","","","",""
"html-keyboard-response","31","70786","0.0-7.0-0.24","5ee7b7c9eef92207297a0ad4","64afc2c9a8732ea92db0087d","64afd57be816f17cf60e0fbc","null","null","<p style=""font-size: 60px; font-family: BACS"">AlQaQuda</p>","","","","","","","",""
"html-keyboard-response","32","71801","0.0-7.0-0.25","5ee7b7c9eef92207297a0ad4","64afc2c9a8732ea92db0087d","64afd57be816f17cf60e0fbc","null","null","<p style=""font-size: 60px; font-family: BACS"">kCRmbRC</p>","","","","","","","",""
"html-keyboard-response","33","72802","0.0-7.0-0.26","5ee7b7c9eef92207297a0ad4","64afc2c9a8732ea92db0087d","64afd57be816f17cf60e0fbc","null","null","<p style=""font-size: 60px; font-family: BACS"">vYLUuda</p>","","","","","","","",""
"html-keyboard-response","34","73804","0.0-7.0-0.27","5ee7b7c9eef92207297a0ad4","64afc2c9a8732ea92db0087d","64afd57be816f17cf60e0fbc","null","null","<p style=""font-size: 60px; font-family: BACS"">DdckOtM</p>","","","","","","","",""
"html-keyboard-response","35","74805","0.0-7.0-0.28","5ee7b7c9eef92207297a0ad4","64afc2c9a8732ea92db0087d","64afd57be816f17cf60e0fbc","null","null","<p style=""font-size: 60px; font-family: BACS"">DkTCPBbM</p>","","","","","","","",""
"html-keyboard-response","36","75811","0.0-7.0-0.29","5ee7b7c9eef92207297a0ad4","64afc2c9a8732ea92db0087d","64afd57be816f17cf60e0fbc","null","null","<p style=""font-size: 60px; font-family: BACS"">YQbclGc</p>","","","","","","","",""
"html-keyboard-response","37","76812","0.0-7.0-0.30","5ee7b7c9eef92207297a0ad4","64afc2c9a8732ea92db0087d","64afd57be816f17cf60e0fbc","null","null","<p style=""font-size: 60px; font-family: BACS"">YJLcAvAvb</p>","","","","","","","",""
"html-keyboard-response","38","77814","0.0-7.0-0.31","5ee7b7c9eef92207297a0ad4","64afc2c9a8732ea92db0087d","64afd57be816f17cf60e0fbc","null","null","<p style=""font-size: 60px; font-family: BACS"">BKDRYbRC</p>","","","","","","","",""
"html-keyboard-response","39","78816","0.0-7.0-0.32","5ee7b7c9eef92207297a0ad4","64afc2c9a8732ea92db0087d","64afd57be816f17cf60e0fbc","null","null","<p style=""font-size: 60px; font-family: BACS"">bcbMOtM</p>","","","","","","","",""
"html-keyboard-response","40","79826","0.0-7.0-0.33","5ee7b7c9eef92207297a0ad4","64afc2c9a8732ea92db0087d","64afd57be816f17cf60e0fbc","null","null","<p style=""font-size: 60px; font-family: BACS"">BKDRYtRb</p>","","","","","","","",""
"html-keyboard-response","41","80827","0.0-7.0-0.34","5ee7b7c9eef92207297a0ad4","64afc2c9a8732ea92db0087d","64afd57be816f17cf60e0fbc","null","null","<p style=""font-size: 60px; font-family: BACS"">ALGZlGc</p>","","","","","","","",""
"html-keyboard-response","42","81828","0.0-7.0-0.35","5ee7b7c9eef92207297a0ad4","64afc2c9a8732ea92db0087d","64afd57be816f17cf60e0fbc","null","null","<p style=""font-size: 60px; font-family: BACS"">JdOAYuda</p>","","","","","","","",""
"html-keyboard-response","43","82829","0.0-7.0-0.36","5ee7b7c9eef92207297a0ad4","64afc2c9a8732ea92db0087d","64afd57be816f17cf60e0fbc","null","null","<p style=""font-size: 60px; font-family: BACS"">kCRmBbM</p>","","","","","","","",""
"html-keyboard-response","44","83832","0.0-7.0-0.37","5ee7b7c9eef92207297a0ad4","64afc2c9a8732ea92db0087d","64afd57be816f17cf60e0fbc","null","null","<p style=""font-size: 60px; font-family: BACS"">YQbcuda</p>","","","","","","","",""
"html-keyboard-response","45","84833","0.0-7.0-0.38","5ee7b7c9eef92207297a0ad4","64afc2c9a8732ea92db0087d","64afd57be816f17cf60e0fbc","null","null","<p style=""font-size: 60px; font-family: BACS"">AlQaQuvJ</p>","","","","","","","",""
"html-keyboard-response","46","85834","0.0-7.0-0.39","5ee7b7c9eef92207297a0ad4","64afc2c9a8732ea92db0087d","64afd57be816f17cf60e0fbc","null","null","<p style=""font-size: 60px; font-family: BACS"">BKDRYBbM</p>","","","","","","","",""
"html-keyboard-response","47","86835","0.0-7.0-0.40","5ee7b7c9eef92207297a0ad4","64afc2c9a8732ea92db0087d","64afd57be816f17cf60e0fbc","null","null","<p style=""font-size: 60px; font-family: BACS"">DBlhOtM</p>","","","","","","","",""
"html-keyboard-response","48","87849","0.0-7.0-0.41","5ee7b7c9eef92207297a0ad4","64afc2c9a8732ea92db0087d","64afd57be816f17cf60e0fbc","null","null","<p style=""font-size: 60px; font-family: BACS"">bYGOZlGc</p>","","","","","","","",""
"html-keyboard-response","49","88859","0.0-7.0-0.42","5ee7b7c9eef92207297a0ad4","64afc2c9a8732ea92db0087d","64afd57be816f17cf60e0fbc","null","null","<p style=""font-size: 60px; font-family: BACS"">lkAkGlu</p>","","","","","","","",""
"html-keyboard-response","50","89861","0.0-7.0-0.43","5ee7b7c9eef92207297a0ad4","64afc2c9a8732ea92db0087d","64afd57be816f17cf60e0fbc","null","null","<p style=""font-size: 60px; font-family: BACS"">DBlhAlKD</p>","","","","","","","",""
"html-keyboard-response","51","90867","0.0-7.0-0.44","5ee7b7c9eef92207297a0ad4","64afc2c9a8732ea92db0087d","64afd57be816f17cf60e0fbc","null","null","<p style=""font-size: 60px; font-family: BACS"">bYGOZvAvb</p>","","","","","","","",""
"html-keyboard-response","52","91867","0.0-7.0-0.45","5ee7b7c9eef92207297a0ad4","64afc2c9a8732ea92db0087d","64afd57be816f17cf60e0fbc","null","null","<p style=""font-size: 60px; font-family: BACS"">DcPTcbRC</p>","","","","","","","",""
"html-keyboard-response","53","92876","0.0-7.0-0.46","5ee7b7c9eef92207297a0ad4","64afc2c9a8732ea92db0087d","64afd57be816f17cf60e0fbc","null","null","<p style=""font-size: 60px; font-family: BACS"">vYLUuvJ</p>","","","","","","","",""
"html-keyboard-response","54","93885","0.0-7.0-0.47","5ee7b7c9eef92207297a0ad4","64afc2c9a8732ea92db0087d","64afd57be816f17cf60e0fbc","null","null","<p style=""font-size: 60px; font-family: BACS"">kbmZOuda</p>","","","","","","","",""
"html-keyboard-response","55","94896","0.0-7.0-0.48","5ee7b7c9eef92207297a0ad4","64afc2c9a8732ea92db0087d","64afd57be816f17cf60e0fbc","null","null","<p style=""font-size: 60px; font-family: BACS"">TEBKBbM</p>","","","","","","","",""
"html-keyboard-response","56","95907","0.0-7.0-0.49","5ee7b7c9eef92207297a0ad4","64afc2c9a8732ea92db0087d","64afd57be816f17cf60e0fbc","null","null","<p style=""font-size: 60px; font-family: BACS"">DdcktRb</p>","","","","","","","",""
"html-keyboard-response","57","96915","0.0-7.0-0.50","5ee7b7c9eef92207297a0ad4","64afc2c9a8732ea92db0087d","64afd57be816f17cf60e0fbc","null","null","<p style=""font-size: 60px; font-family: BACS"">DBlhbRC</p>","","","","","","","",""
"html-keyboard-response","58","97926","0.0-7.0-0.51","5ee7b7c9eef92207297a0ad4","64afc2c9a8732ea92db0087d","64afd57be816f17cf60e0fbc","null","null","<p style=""font-size: 60px; font-family: BACS"">ALGZGlu</p>","","","","","","","",""
"html-keyboard-response","59","98941","0.0-7.0-0.52","5ee7b7c9eef92207297a0ad4","64afc2c9a8732ea92db0087d","64afd57be816f17cf60e0fbc","null","null","<p style=""font-size: 60px; font-family: BACS"">QbkAcuda</p>","","","","","","","",""
"html-keyboard-response","60","99942","0.0-7.0-0.53","5ee7b7c9eef92207297a0ad4","64afc2c9a8732ea92db0087d","64afd57be816f17cf60e0fbc","null","null","<p style=""font-size: 60px; font-family: BACS"">JdOAYGlu</p>","","","","","","","",""
"html-keyboard-response","61","100948","0.0-7.0-0.54","5ee7b7c9eef92207297a0ad4","64afc2c9a8732ea92db0087d","64afd57be816f17cf60e0fbc","null","null","<p style=""font-size: 60px; font-family: BACS"">DcPTcAlKD</p>","","","","","","","",""
"html-keyboard-response","62","101960","0.0-7.0-0.55","5ee7b7c9eef92207297a0ad4","64afc2c9a8732ea92db0087d","64afd57be816f17cf60e0fbc","null","null","<p style=""font-size: 60px; font-family: BACS"">QbkAcGlu</p>","","","","","","","",""
"html-keyboard-response","63","102962","0.0-7.0-0.56","5ee7b7c9eef92207297a0ad4","64afc2c9a8732ea92db0087d","64afd57be816f17cf60e0fbc","null","null","<p style=""font-size: 60px; font-family: BACS"">lkAkuda</p>","","","","","","","",""
"html-keyboard-response","64","103973","0.0-7.0-0.57","5ee7b7c9eef92207297a0ad4","64afc2c9a8732ea92db0087d","64afd57be816f17cf60e0fbc","null","null","<p style=""font-size: 60px; font-family: BACS"">BATOcbRC</p>","","","","","","","",""
"html-keyboard-response","65","104984","0.0-7.0-0.58","5ee7b7c9eef92207297a0ad4","64afc2c9a8732ea92db0087d","64afd57be816f17cf60e0fbc","null","null","<p style=""font-size: 60px; font-family: BACS"">YJLcAGlu</p>","","","","","","","",""
"html-keyboard-response","66","105985","0.0-7.0-0.59","5ee7b7c9eef92207297a0ad4","64afc2c9a8732ea92db0087d","64afd57be816f17cf60e0fbc","null","null","<p style=""font-size: 60px; font-family: BACS"">tmtEMbRC</p>","","","","","","","",""
"html-keyboard-response","67","106986","0.0-7.0-0.60","5ee7b7c9eef92207297a0ad4","64afc2c9a8732ea92db0087d","64afd57be816f17cf60e0fbc","null","null","<p style=""font-size: 60px; font-family: BACS"">YQbcuvJ</p>","","","","","","","",""
"html-keyboard-response","68","107987","0.0-7.0-0.61","5ee7b7c9eef92207297a0ad4","64afc2c9a8732ea92db0087d","64afd57be816f17cf60e0fbc","null","null","<p style=""font-size: 60px; font-family: BACS"">DBlhBbM</p>","","","","","","","",""
"html-keyboard-response","69","109001","0.0-7.0-0.62","5ee7b7c9eef92207297a0ad4","64afc2c9a8732ea92db0087d","64afd57be816f17cf60e0fbc","null","null","<p style=""font-size: 60px; font-family: BACS"">QbkAcuvJ</p>","","","","","","","",""
"html-keyboard-response","70","110001","0.0-7.0-0.63","5ee7b7c9eef92207297a0ad4","64afc2c9a8732ea92db0087d","64afd57be816f17cf60e0fbc","null","null","<p style=""font-size: 60px; font-family: BACS"">JdOAYlGc</p>","","","","","","","",""
"html-keyboard-response","71","111002","0.0-7.0-0.64","5ee7b7c9eef92207297a0ad4","64afc2c9a8732ea92db0087d","64afd57be816f17cf60e0fbc","null","null","<p style=""font-size: 60px; font-family: BACS"">DcPTctRb</p>","","","","","","","",""
"html-keyboard-response","72","112003","0.0-7.0-0.65","5ee7b7c9eef92207297a0ad4","64afc2c9a8732ea92db0087d","64afd57be816f17cf60e0fbc","null","null","<p style=""font-size: 60px; font-family: BACS"">DdckBbM</p>","","","","","","","",""
"html-keyboard-response","73","113016","0.0-7.0-0.66","5ee7b7c9eef92207297a0ad4","64afc2c9a8732ea92db0087d","64afd57be816f17cf60e0fbc","null","null","<p style=""font-size: 60px; font-family: BACS"">JdOAYuvJ</p>","","","","","","","",""
"html-keyboard-response","74","114017","0.0-7.0-0.67","5ee7b7c9eef92207297a0ad4","64afc2c9a8732ea92db0087d","64afd57be816f17cf60e0fbc","null","null","<p style=""font-size: 60px; font-family: BACS"">ALGZvAvb</p>","","","","","","","",""
"html-keyboard-response","75","115023","0.0-7.0-0.68","5ee7b7c9eef92207297a0ad4","64afc2c9a8732ea92db0087d","64afd57be816f17cf60e0fbc","null","null","<p style=""font-size: 60px; font-family: BACS"">BATOcAlKD</p>","","","","","","","",""
"html-keyboard-response","76","116025","0.0-7.0-0.69","5ee7b7c9eef92207297a0ad4","64afc2c9a8732ea92db0087d","64afd57be816f17cf60e0fbc","null","null","<p style=""font-size: 60px; font-family: BACS"">TEBKtRb</p>","","","","","","","",""
"html-keyboard-response","77","117034","0.0-7.0-0.70","5ee7b7c9eef92207297a0ad4","64afc2c9a8732ea92db0087d","64afd57be816f17cf60e0fbc","null","null","<p style=""font-size: 60px; font-family: BACS"">bcbMBbM</p>","","","","","","","",""
"html-keyboard-response","78","118035","0.0-7.0-0.71","5ee7b7c9eef92207297a0ad4","64afc2c9a8732ea92db0087d","64afd57be816f17cf60e0fbc","null","null","<p style=""font-size: 60px; font-family: BACS"">vYLUvAvb</p>","","","","","","","",""
"html-keyboard-response","79","119043","0.0-7.0-0.72","5ee7b7c9eef92207297a0ad4","64afc2c9a8732ea92db0087d","64afd57be816f17cf60e0fbc","null","null","<p style=""font-size: 60px; font-family: BACS"">kbmZOGlu</p>","","","","","","","",""
"html-keyboard-response","80","120045","0.0-7.0-0.73","5ee7b7c9eef92207297a0ad4","64afc2c9a8732ea92db0087d","64afd57be816f17cf60e0fbc","null","null","<p style=""font-size: 60px; font-family: BACS"">kCRmtRb</p>","","","","","","","",""
"html-keyboard-response","81","121045","0.0-7.0-0.74","5ee7b7c9eef92207297a0ad4","64afc2c9a8732ea92db0087d","64afd57be816f17cf60e0fbc","null","null","<p style=""font-size: 60px; font-family: BACS"">bYGOZGlu</p>","","","","","","","",""
"html-keyboard-response","82","122046","0.0-7.0-0.75","5ee7b7c9eef92207297a0ad4","64afc2c9a8732ea92db0087d","64afd57be816f17cf60e0fbc","null","null","<p style=""font-size: 60px; font-family: BACS"">BATOcOtM</p>","","","","","","","",""
"html-keyboard-response","83","123061","0.0-7.0-0.76","5ee7b7c9eef92207297a0ad4","64afc2c9a8732ea92db0087d","64afd57be816f17cf60e0fbc","null","null","<p style=""font-size: 60px; font-family: BACS"">DdckAlKD</p>","","","","","","","",""
"html-keyboard-response","84","124070","0.0-7.0-0.77","5ee7b7c9eef92207297a0ad4","64afc2c9a8732ea92db0087d","64afd57be816f17cf60e0fbc","null","null","<p style=""font-size: 60px; font-family: BACS"">tmtEMBbM</p>","","","","","","","",""
"html-keyboard-response","85","125083","0.0-7.0-0.78","5ee7b7c9eef92207297a0ad4","64afc2c9a8732ea92db0087d","64afd57be816f17cf60e0fbc","null","null","<p style=""font-size: 60px; font-family: BACS"">lkAklGc</p>","","","","","","","",""
"html-keyboard-response","86","126084","0.0-7.0-0.79","5ee7b7c9eef92207297a0ad4","64afc2c9a8732ea92db0087d","64afd57be816f17cf60e0fbc","null","null","<p style=""font-size: 60px; font-family: BACS"">DkTCPtRb</p>","","","","","","","",""
"html-keyboard-response","87","135998","0.0-8.0","5ee7b7c9eef92207297a0ad4","64afc2c9a8732ea92db0087d","64afd57be816f17cf60e0fbc","9913"," ","<p>Ottimo, hai visto il primo blocco di parole. Ora puoi prenderti una piccola pausa.</p>
      <p>Premi la barra quando sei pronta/o per riprendere.</p>","","","","","","","",""
"html-keyboard-response","88","136999","0.0-9.0-0.0","5ee7b7c9eef92207297a0ad4","64afc2c9a8732ea92db0087d","64afd57be816f17cf60e0fbc","null","null","<p style=""font-size: 60px; font-family: BACS"">BATOcOtM</p>","","","","","","","",""
"html-keyboard-response","89","138000","0.0-9.0-0.1","5ee7b7c9eef92207297a0ad4","64afc2c9a8732ea92db0087d","64afd57be816f17cf60e0fbc","null","null","<p style=""font-size: 60px; font-family: BACS"">DkTCPAlKD</p>","","","","","","","",""
"html-keyboard-response","90","139001","0.0-9.0-0.2","5ee7b7c9eef92207297a0ad4","64afc2c9a8732ea92db0087d","64afd57be816f17cf60e0fbc","null","null","<p style=""font-size: 60px; font-family: BACS"">BKDRYBbM</p>","","","","","","","",""
"html-keyboard-response","91","140002","0.0-9.0-0.3","5ee7b7c9eef92207297a0ad4","64afc2c9a8732ea92db0087d","64afd57be816f17cf60e0fbc","null","null","<p style=""font-size: 60px; font-family: BACS"">bYGOZGlu</p>","","","","","","","",""
"html-keyboard-response","92","141013","0.0-9.0-0.4","5ee7b7c9eef92207297a0ad4","64afc2c9a8732ea92db0087d","64afd57be816f17cf60e0fbc","null","null","<p style=""font-size: 60px; font-family: BACS"">AlQaQlGc</p>","","","","","","","",""
"html-keyboard-response","93","142014","0.0-9.0-0.5","5ee7b7c9eef92207297a0ad4","64afc2c9a8732ea92db0087d","64afd57be816f17cf60e0fbc","null","null","<p style=""font-size: 60px; font-family: BACS"">DBlhOtM</p>","","","","","","","",""
"html-keyboard-response","94","143016","0.0-9.0-0.6","5ee7b7c9eef92207297a0ad4","64afc2c9a8732ea92db0087d","64afd57be816f17cf60e0fbc","null","null","<p style=""font-size: 60px; font-family: BACS"">kbmZOuvJ</p>","","","","","","","",""
"html-keyboard-response","95","144018","0.0-9.0-0.7","5ee7b7c9eef92207297a0ad4","64afc2c9a8732ea92db0087d","64afd57be816f17cf60e0fbc","null","null","<p style=""font-size: 60px; font-family: BACS"">DBlhAlKD</p>","","","","","","","",""
"html-keyboard-response","96","145027","0.0-9.0-0.8","5ee7b7c9eef92207297a0ad4","64afc2c9a8732ea92db0087d","64afd57be816f17cf60e0fbc","null","null","<p style=""font-size: 60px; font-family: BACS"">QbkAcuvJ</p>","","","","","","","",""
"html-keyboard-response","97","146028","0.0-9.0-0.9","5ee7b7c9eef92207297a0ad4","64afc2c9a8732ea92db0087d","64afd57be816f17cf60e0fbc","null","null","<p style=""font-size: 60px; font-family: BACS"">vYLUvAvb</p>","","","","","","","",""
"html-keyboard-response","98","147030","0.0-9.0-0.10","5ee7b7c9eef92207297a0ad4","64afc2c9a8732ea92db0087d","64afd57be816f17cf60e0fbc","null","null","<p style=""font-size: 60px; font-family: BACS"">DkTCPtRb</p>","","","","","","","",""
"html-keyboard-response","99","148032","0.0-9.0-0.11","5ee7b7c9eef92207297a0ad4","64afc2c9a8732ea92db0087d","64afd57be816f17cf60e0fbc","null","null","<p style=""font-size: 60px; font-family: BACS"">YQbcuvJ</p>","","","","","","","",""
"html-keyboard-response","100","149044","0.0-9.0-0.12","5ee7b7c9eef92207297a0ad4","64afc2c9a8732ea92db0087d","64afd57be816f17cf60e0fbc","null","null","<p style=""font-size: 60px; font-family: BACS"">DcPTcAlKD</p>","","","","","","","",""
"html-keyboard-response","101","150053","0.0-9.0-0.13","5ee7b7c9eef92207297a0ad4","64afc2c9a8732ea92db0087d","64afd57be816f17cf60e0fbc","null","null","<p style=""font-size: 60px; font-family: BACS"">TEBKbRC</p>","","","","","","","",""
"html-keyboard-response","102","151055","0.0-9.0-0.14","5ee7b7c9eef92207297a0ad4","64afc2c9a8732ea92db0087d","64afd57be816f17cf60e0fbc","null","null","<p style=""font-size: 60px; font-family: BACS"">vYLUuvJ</p>","","","","","","","",""
"html-keyboard-response","103","152055","0.0-9.0-0.15","5ee7b7c9eef92207297a0ad4","64afc2c9a8732ea92db0087d","64afd57be816f17cf60e0fbc","null","null","<p style=""font-size: 60px; font-family: BACS"">kCRmtRb</p>","","","","","","","",""
"html-keyboard-response","104","153057","0.0-9.0-0.16","5ee7b7c9eef92207297a0ad4","64afc2c9a8732ea92db0087d","64afd57be816f17cf60e0fbc","null","null","<p style=""font-size: 60px; font-family: BACS"">YJLcAlGc</p>","","","","","","","",""
"html-keyboard-response","105","154058","0.0-9.0-0.17","5ee7b7c9eef92207297a0ad4","64afc2c9a8732ea92db0087d","64afd57be816f17cf60e0fbc","null","null","<p style=""font-size: 60px; font-family: BACS"">BKDRYAlKD</p>","","","","","","","",""
"html-keyboard-response","106","155059","0.0-9.0-0.18","5ee7b7c9eef92207297a0ad4","64afc2c9a8732ea92db0087d","64afd57be816f17cf60e0fbc","null","null","<p style=""font-size: 60px; font-family: BACS"">bYGOZlGc</p>","","","","","","","",""
"html-keyboard-response","107","156071","0.0-9.0-0.19","5ee7b7c9eef92207297a0ad4","64afc2c9a8732ea92db0087d","64afd57be816f17cf60e0fbc","null","null","<p style=""font-size: 60px; font-family: BACS"">DkTCPBbM</p>","","","","","","","",""
"html-keyboard-response","108","157072","0.0-9.0-0.20","5ee7b7c9eef92207297a0ad4","64afc2c9a8732ea92db0087d","64afd57be816f17cf60e0fbc","null","null","<p style=""font-size: 60px; font-family: BACS"">YQbclGc</p>","","","","","","","",""
"html-keyboard-response","109","158073","0.0-9.0-0.21","5ee7b7c9eef92207297a0ad4","64afc2c9a8732ea92db0087d","64afd57be816f17cf60e0fbc","null","null","<p style=""font-size: 60px; font-family: BACS"">DdcktRb</p>","","","","","","","",""
"html-keyboard-response","110","159074","0.0-9.0-0.22","5ee7b7c9eef92207297a0ad4","64afc2c9a8732ea92db0087d","64afd57be816f17cf60e0fbc","null","null","<p style=""font-size: 60px; font-family: BACS"">JdOAYlGc</p>","","","","","","","",""
"html-keyboard-response","111","160083","0.0-9.0-0.23","5ee7b7c9eef92207297a0ad4","64afc2c9a8732ea92db0087d","64afd57be816f17cf60e0fbc","null","null","<p style=""font-size: 60px; font-family: BACS"">QbkAcGlu</p>","","","","","","","",""
"html-keyboard-response","112","161093","0.0-9.0-0.24","5ee7b7c9eef92207297a0ad4","64afc2c9a8732ea92db0087d","64afd57be816f17cf60e0fbc","null","null","<p style=""font-size: 60px; font-family: BACS"">DcPTctRb</p>","","","","","","","",""
"html-keyboard-response","113","162094","0.0-9.0-0.25","5ee7b7c9eef92207297a0ad4","64afc2c9a8732ea92db0087d","64afd57be816f17cf60e0fbc","null","null","<p style=""font-size: 60px; font-family: BACS"">YJLcAuda</p>","","","","","","","",""
"html-keyboard-response","114","163103","0.0-9.0-0.26","5ee7b7c9eef92207297a0ad4","64afc2c9a8732ea92db0087d","64afd57be816f17cf60e0fbc","null","null","<p style=""font-size: 60px; font-family: BACS"">kbmZOGlu</p>","","","","","","","",""
"html-keyboard-response","115","164105","0.0-9.0-0.27","5ee7b7c9eef92207297a0ad4","64afc2c9a8732ea92db0087d","64afd57be816f17cf60e0fbc","null","null","<p style=""font-size: 60px; font-family: BACS"">bcbMAlKD</p>","","","","","","","",""
"html-keyboard-response","116","165120","0.0-9.0-0.28","5ee7b7c9eef92207297a0ad4","64afc2c9a8732ea92db0087d","64afd57be816f17cf60e0fbc","null","null","<p style=""font-size: 60px; font-family: BACS"">BKDRYtRb</p>","","","","","","","",""
"html-keyboard-response","117","166121","0.0-9.0-0.29","5ee7b7c9eef92207297a0ad4","64afc2c9a8732ea92db0087d","64afd57be816f17cf60e0fbc","null","null","<p style=""font-size: 60px; font-family: BACS"">YQbcuda</p>","","","","","","","",""
"html-keyboard-response","118","167127","0.0-9.0-0.30","5ee7b7c9eef92207297a0ad4","64afc2c9a8732ea92db0087d","64afd57be816f17cf60e0fbc","null","null","<p style=""font-size: 60px; font-family: BACS"">bcbMbRC</p>","","","","","","","",""
"html-keyboard-response","119","168131","0.0-9.0-0.31","5ee7b7c9eef92207297a0ad4","64afc2c9a8732ea92db0087d","64afd57be816f17cf60e0fbc","null","null","<p style=""font-size: 60px; font-family: BACS"">YQbcGlu</p>","","","","","","","",""
"html-keyboard-response","120","169133","0.0-9.0-0.32","5ee7b7c9eef92207297a0ad4","64afc2c9a8732ea92db0087d","64afd57be816f17cf60e0fbc","null","null","<p style=""font-size: 60px; font-family: BACS"">DkTCPOtM</p>","","","","","","","",""
"html-keyboard-response","121","170134","0.0-9.0-0.33","5ee7b7c9eef92207297a0ad4","64afc2c9a8732ea92db0087d","64afd57be816f17cf60e0fbc","null","null","<p style=""font-size: 60px; font-family: BACS"">ALGZGlu</p>","","","","","","","",""
"html-keyboard-response","122","171140","0.0-9.0-0.34","5ee7b7c9eef92207297a0ad4","64afc2c9a8732ea92db0087d","64afd57be816f17cf60e0fbc","null","null","<p style=""font-size: 60px; font-family: BACS"">tmtEMbRC</p>","","","","","","","",""
"html-keyboard-response","123","172146","0.0-9.0-0.35","5ee7b7c9eef92207297a0ad4","64afc2c9a8732ea92db0087d","64afd57be816f17cf60e0fbc","null","null","<p style=""font-size: 60px; font-family: BACS"">AlQaQvAvb</p>","","","","","","","",""
"html-keyboard-response","124","173162","0.0-9.0-0.36","5ee7b7c9eef92207297a0ad4","64afc2c9a8732ea92db0087d","64afd57be816f17cf60e0fbc","null","null","<p style=""font-size: 60px; font-family: BACS"">kCRmAlKD</p>","","","","","","","",""
"html-keyboard-response","125","174170","0.0-9.0-0.37","5ee7b7c9eef92207297a0ad4","64afc2c9a8732ea92db0087d","64afd57be816f17cf60e0fbc","null","null","<p style=""font-size: 60px; font-family: BACS"">tmtEMBbM</p>","","","","","","","",""
"html-keyboard-response","126","175180","0.0-9.0-0.38","5ee7b7c9eef92207297a0ad4","64afc2c9a8732ea92db0087d","64afd57be816f17cf60e0fbc","null","null","<p style=""font-size: 60px; font-family: BACS"">DdckOtM</p>","","","","","","","",""
"html-keyboard-response","127","176191","0.0-9.0-0.39","5ee7b7c9eef92207297a0ad4","64afc2c9a8732ea92db0087d","64afd57be816f17cf60e0fbc","null","null","<p style=""font-size: 60px; font-family: BACS"">AlQaQuvJ</p>","","","","","","","",""
"html-keyboard-response","128","177191","0.0-9.0-0.40","5ee7b7c9eef92207297a0ad4","64afc2c9a8732ea92db0087d","64afd57be816f17cf60e0fbc","null","null","<p style=""font-size: 60px; font-family: BACS"">BATOcAlKD</p>","","","","","","","",""
"html-keyboard-response","129","178208","0.0-9.0-0.41","5ee7b7c9eef92207297a0ad4","64afc2c9a8732ea92db0087d","64afd57be816f17cf60e0fbc","null","null","<p style=""font-size: 60px; font-family: BACS"">QbkAcvAvb</p>","","","","","","","",""
"html-keyboard-response","130","179208","0.0-9.0-0.42","5ee7b7c9eef92207297a0ad4","64afc2c9a8732ea92db0087d","64afd57be816f17cf60e0fbc","null","null","<p style=""font-size: 60px; font-family: BACS"">BATOcbRC</p>","","","","","","","",""
"html-keyboard-response","131","180223","0.0-9.0-0.43","5ee7b7c9eef92207297a0ad4","64afc2c9a8732ea92db0087d","64afd57be816f17cf60e0fbc","null","null","<p style=""font-size: 60px; font-family: BACS"">bcbMBbM</p>","","","","","","","",""
"html-keyboard-response","132","181234","0.0-9.0-0.44","5ee7b7c9eef92207297a0ad4","64afc2c9a8732ea92db0087d","64afd57be816f17cf60e0fbc","null","null","<p style=""font-size: 60px; font-family: BACS"">ALGZuvJ</p>","","","","","","","",""
"html-keyboard-response","133","182243","0.0-9.0-0.45","5ee7b7c9eef92207297a0ad4","64afc2c9a8732ea92db0087d","64afd57be816f17cf60e0fbc","null","null","<p style=""font-size: 60px; font-family: BACS"">AlQaQuda</p>","","","","","","","",""
"html-keyboard-response","134","183245","0.0-9.0-0.46","5ee7b7c9eef92207297a0ad4","64afc2c9a8732ea92db0087d","64afd57be816f17cf60e0fbc","null","null","<p style=""font-size: 60px; font-family: BACS"">TEBKtRb</p>","","","","","","","",""
"html-keyboard-response","135","184248","0.0-9.0-0.47","5ee7b7c9eef92207297a0ad4","64afc2c9a8732ea92db0087d","64afd57be816f17cf60e0fbc","null","null","<p style=""font-size: 60px; font-family: BACS"">DcPTcOtM</p>","","","","","","","",""
"html-keyboard-response","136","185255","0.0-9.0-0.48","5ee7b7c9eef92207297a0ad4","64afc2c9a8732ea92db0087d","64afd57be816f17cf60e0fbc","null","null","<p style=""font-size: 60px; font-family: BACS"">lkAkGlu</p>","","","","","","","",""
"html-keyboard-response","137","186263","0.0-9.0-0.49","5ee7b7c9eef92207297a0ad4","64afc2c9a8732ea92db0087d","64afd57be816f17cf60e0fbc","null","null","<p style=""font-size: 60px; font-family: BACS"">bYGOZuvJ</p>","","","","","","","",""
"html-keyboard-response","138","187265","0.0-9.0-0.50","5ee7b7c9eef92207297a0ad4","64afc2c9a8732ea92db0087d","64afd57be816f17cf60e0fbc","null","null","<p style=""font-size: 60px; font-family: BACS"">QbkAcuda</p>","","","","","","","",""
"html-keyboard-response","139","188266","0.0-9.0-0.51","5ee7b7c9eef92207297a0ad4","64afc2c9a8732ea92db0087d","64afd57be816f17cf60e0fbc","null","null","<p style=""font-size: 60px; font-family: BACS"">kCRmbRC</p>","","","","","","","",""
"html-keyboard-response","140","189273","0.0-9.0-0.52","5ee7b7c9eef92207297a0ad4","64afc2c9a8732ea92db0087d","64afd57be816f17cf60e0fbc","null","null","<p style=""font-size: 60px; font-family: BACS"">vYLUuda</p>","","","","","","","",""
"html-keyboard-response","141","190275","0.0-9.0-0.53","5ee7b7c9eef92207297a0ad4","64afc2c9a8732ea92db0087d","64afd57be816f17cf60e0fbc","null","null","<p style=""font-size: 60px; font-family: BACS"">TEBKOtM</p>","","","","","","","",""
"html-keyboard-response","142","191276","0.0-9.0-0.54","5ee7b7c9eef92207297a0ad4","64afc2c9a8732ea92db0087d","64afd57be816f17cf60e0fbc","null","null","<p style=""font-size: 60px; font-family: BACS"">tmtEMtRb</p>","","","","","","","",""
"html-keyboard-response","143","192278","0.0-9.0-0.55","5ee7b7c9eef92207297a0ad4","64afc2c9a8732ea92db0087d","64afd57be816f17cf60e0fbc","null","null","<p style=""font-size: 60px; font-family: BACS"">kbmZOuda</p>","","","","","","","",""
"html-keyboard-response","144","193279","0.0-9.0-0.56","5ee7b7c9eef92207297a0ad4","64afc2c9a8732ea92db0087d","64afd57be816f17cf60e0fbc","null","null","<p style=""font-size: 60px; font-family: BACS"">BKDRYbRC</p>","","","","","","","",""
"html-keyboard-response","145","194280","0.0-9.0-0.57","5ee7b7c9eef92207297a0ad4","64afc2c9a8732ea92db0087d","64afd57be816f17cf60e0fbc","null","null","<p style=""font-size: 60px; font-family: BACS"">JdOAYuvJ</p>","","","","","","","",""
"html-keyboard-response","146","195289","0.0-9.0-0.58","5ee7b7c9eef92207297a0ad4","64afc2c9a8732ea92db0087d","64afd57be816f17cf60e0fbc","null","null","<p style=""font-size: 60px; font-family: BACS"">BATOctRb</p>","","","","","","","",""
"html-keyboard-response","147","196293","0.0-9.0-0.59","5ee7b7c9eef92207297a0ad4","64afc2c9a8732ea92db0087d","64afd57be816f17cf60e0fbc","null","null","<p style=""font-size: 60px; font-family: BACS"">YJLcAGlu</p>","","","","","","","",""
"html-keyboard-response","148","197301","0.0-9.0-0.60","5ee7b7c9eef92207297a0ad4","64afc2c9a8732ea92db0087d","64afd57be816f17cf60e0fbc","null","null","<p style=""font-size: 60px; font-family: BACS"">vYLUlGc</p>","","","","","","","",""
"html-keyboard-response","149","198311","0.0-9.0-0.61","5ee7b7c9eef92207297a0ad4","64afc2c9a8732ea92db0087d","64afd57be816f17cf60e0fbc","null","null","<p style=""font-size: 60px; font-family: BACS"">TEBKBbM</p>","","","","","","","",""
"html-keyboard-response","150","199325","0.0-9.0-0.62","5ee7b7c9eef92207297a0ad4","64afc2c9a8732ea92db0087d","64afd57be816f17cf60e0fbc","null","null","<p style=""font-size: 60px; font-family: BACS"">lkAkvAvb</p>","","","","","","","",""
"html-keyboard-response","151","200327","0.0-9.0-0.63","5ee7b7c9eef92207297a0ad4","64afc2c9a8732ea92db0087d","64afd57be816f17cf60e0fbc","null","null","<p style=""font-size: 60px; font-family: BACS"">JdOAYGlu</p>","","","","","","","",""
"html-keyboard-response","152","201329","0.0-9.0-0.64","5ee7b7c9eef92207297a0ad4","64afc2c9a8732ea92db0087d","64afd57be816f17cf60e0fbc","null","null","<p style=""font-size: 60px; font-family: BACS"">ALGZlGc</p>","","","","","","","",""
"html-keyboard-response","153","202330","0.0-9.0-0.65","5ee7b7c9eef92207297a0ad4","64afc2c9a8732ea92db0087d","64afd57be816f17cf60e0fbc","null","null","<p style=""font-size: 60px; font-family: BACS"">DdckAlKD</p>","","","","","","","",""
"html-keyboard-response","154","203335","0.0-9.0-0.66","5ee7b7c9eef92207297a0ad4","64afc2c9a8732ea92db0087d","64afd57be816f17cf60e0fbc","null","null","<p style=""font-size: 60px; font-family: BACS"">bYGOZvAvb</p>","","","","","","","",""
"html-keyboard-response","155","204346","0.0-9.0-0.67","5ee7b7c9eef92207297a0ad4","64afc2c9a8732ea92db0087d","64afd57be816f17cf60e0fbc","null","null","<p style=""font-size: 60px; font-family: BACS"">DBlhBbM</p>","","","","","","","",""
"html-keyboard-response","156","205356","0.0-9.0-0.68","5ee7b7c9eef92207297a0ad4","64afc2c9a8732ea92db0087d","64afd57be816f17cf60e0fbc","null","null","<p style=""font-size: 60px; font-family: BACS"">kbmZOvAvb</p>","","","","","","","",""
"html-keyboard-response","157","206357","0.0-9.0-0.69","5ee7b7c9eef92207297a0ad4","64afc2c9a8732ea92db0087d","64afd57be816f17cf60e0fbc","null","null","<p style=""font-size: 60px; font-family: BACS"">lkAklGc</p>","","","","","","","",""
"html-keyboard-response","158","207361","0.0-9.0-0.70","5ee7b7c9eef92207297a0ad4","64afc2c9a8732ea92db0087d","64afd57be816f17cf60e0fbc","null","null","<p style=""font-size: 60px; font-family: BACS"">ALGZvAvb</p>","","","","","","","",""
"html-keyboard-response","159","208362","0.0-9.0-0.71","5ee7b7c9eef92207297a0ad4","64afc2c9a8732ea92db0087d","64afd57be816f17cf60e0fbc","null","null","<p style=""font-size: 60px; font-family: BACS"">DBlhbRC</p>","","","","","","","",""
"html-keyboard-response","160","209363","0.0-9.0-0.72","5ee7b7c9eef92207297a0ad4","64afc2c9a8732ea92db0087d","64afd57be816f17cf60e0fbc","null","null","<p style=""font-size: 60px; font-family: BACS"">JdOAYuda</p>","","","","","","","",""
"html-keyboard-response","161","210364","0.0-9.0-0.73","5ee7b7c9eef92207297a0ad4","64afc2c9a8732ea92db0087d","64afd57be816f17cf60e0fbc","null","null","<p style=""font-size: 60px; font-family: BACS"">kCRmBbM</p>","","","","","","","",""
"html-keyboard-response","162","211378","0.0-9.0-0.74","5ee7b7c9eef92207297a0ad4","64afc2c9a8732ea92db0087d","64afd57be816f17cf60e0fbc","null","null","<p style=""font-size: 60px; font-family: BACS"">DcPTcbRC</p>","","","","","","","",""
"html-keyboard-response","163","212387","0.0-9.0-0.75","5ee7b7c9eef92207297a0ad4","64afc2c9a8732ea92db0087d","64afd57be816f17cf60e0fbc","null","null","<p style=""font-size: 60px; font-family: BACS"">lkAkuda</p>","","","","","","","",""
"html-keyboard-response","164","213397","0.0-9.0-0.76","5ee7b7c9eef92207297a0ad4","64afc2c9a8732ea92db0087d","64afd57be816f17cf60e0fbc","null","null","<p style=""font-size: 60px; font-family: BACS"">tmtEMOtM</p>","","","","","","","",""
"html-keyboard-response","165","214399","0.0-9.0-0.77","5ee7b7c9eef92207297a0ad4","64afc2c9a8732ea92db0087d","64afd57be816f17cf60e0fbc","null","null","<p style=""font-size: 60px; font-family: BACS"">DdckBbM</p>","","","","","","","",""
"html-keyboard-response","166","215404","0.0-9.0-0.78","5ee7b7c9eef92207297a0ad4","64afc2c9a8732ea92db0087d","64afd57be816f17cf60e0fbc","null","null","<p style=""font-size: 60px; font-family: BACS"">YJLcAvAvb</p>","","","","","","","",""
"html-keyboard-response","167","216413","0.0-9.0-0.79","5ee7b7c9eef92207297a0ad4","64afc2c9a8732ea92db0087d","64afd57be816f17cf60e0fbc","null","null","<p style=""font-size: 60px; font-family: BACS"">bcbMOtM</p>","","","","","","","",""
"html-keyboard-response","168","220903","0.0-10.0","5ee7b7c9eef92207297a0ad4","64afc2c9a8732ea92db0087d","64afd57be816f17cf60e0fbc","4490"," ","<p>Ottimo, hai visto il secondo blocco di parole. Ora puoi prenderti una piccola pausa.</p>
      <p>Premi la barra quando sei pronta/o per riprendere.</p>","","","","","","","",""
"html-keyboard-response","169","221905","0.0-11.0-0.0","5ee7b7c9eef92207297a0ad4","64afc2c9a8732ea92db0087d","64afd57be816f17cf60e0fbc","null","null","<p style=""font-size: 60px; font-family: BACS"">DkTCPBbM</p>","","","","","","","",""
"html-keyboard-response","170","222906","0.0-11.0-0.1","5ee7b7c9eef92207297a0ad4","64afc2c9a8732ea92db0087d","64afd57be816f17cf60e0fbc","null","null","<p style=""font-size: 60px; font-family: BACS"">YJLcAvAvb</p>","","","","","","","",""
"html-keyboard-response","171","223919","0.0-11.0-0.2","5ee7b7c9eef92207297a0ad4","64afc2c9a8732ea92db0087d","64afd57be816f17cf60e0fbc","null","null","<p style=""font-size: 60px; font-family: BACS"">AlQaQuvJ</p>","","","","","","","",""
"html-keyboard-response","172","224929","0.0-11.0-0.3","5ee7b7c9eef92207297a0ad4","64afc2c9a8732ea92db0087d","64afd57be816f17cf60e0fbc","null","null","<p style=""font-size: 60px; font-family: BACS"">tmtEMbRC</p>","","","","","","","",""
"html-keyboard-response","173","225934","0.0-11.0-0.4","5ee7b7c9eef92207297a0ad4","64afc2c9a8732ea92db0087d","64afd57be816f17cf60e0fbc","null","null","<p style=""font-size: 60px; font-family: BACS"">DcPTcAlKD</p>","","","","","","","",""
"html-keyboard-response","174","226942","0.0-11.0-0.5","5ee7b7c9eef92207297a0ad4","64afc2c9a8732ea92db0087d","64afd57be816f17cf60e0fbc","null","null","<p style=""font-size: 60px; font-family: BACS"">DkTCPOtM</p>","","","","","","","",""
"html-keyboard-response","175","227955","0.0-11.0-0.6","5ee7b7c9eef92207297a0ad4","64afc2c9a8732ea92db0087d","64afd57be816f17cf60e0fbc","null","null","<p style=""font-size: 60px; font-family: BACS"">BATOctRb</p>","","","","","","","",""
"html-keyboard-response","176","228967","0.0-11.0-0.7","5ee7b7c9eef92207297a0ad4","64afc2c9a8732ea92db0087d","64afd57be816f17cf60e0fbc","null","null","<p style=""font-size: 60px; font-family: BACS"">bYGOZvAvb</p>","","","","","","","",""
"html-keyboard-response","177","229978","0.0-11.0-0.8","5ee7b7c9eef92207297a0ad4","64afc2c9a8732ea92db0087d","64afd57be816f17cf60e0fbc","null","null","<p style=""font-size: 60px; font-family: BACS"">vYLUuda</p>","","","","","","","",""
"html-keyboard-response","178","230978","0.0-11.0-0.9","5ee7b7c9eef92207297a0ad4","64afc2c9a8732ea92db0087d","64afd57be816f17cf60e0fbc","null","null","<p style=""font-size: 60px; font-family: BACS"">BKDRYBbM</p>","","","","","","","",""
"html-keyboard-response","179","231988","0.0-11.0-0.10","5ee7b7c9eef92207297a0ad4","64afc2c9a8732ea92db0087d","64afd57be816f17cf60e0fbc","null","null","<p style=""font-size: 60px; font-family: BACS"">ALGZGlu</p>","","","","","","","",""
"html-keyboard-response","180","232991","0.0-11.0-0.11","5ee7b7c9eef92207297a0ad4","64afc2c9a8732ea92db0087d","64afd57be816f17cf60e0fbc","null","null","<p style=""font-size: 60px; font-family: BACS"">TEBKtRb</p>","","","","","","","",""
"html-keyboard-response","181","233996","0.0-11.0-0.12","5ee7b7c9eef92207297a0ad4","64afc2c9a8732ea92db0087d","64afd57be816f17cf60e0fbc","null","null","<p style=""font-size: 60px; font-family: BACS"">bcbMBbM</p>","","","","","","","",""
"html-keyboard-response","182","234997","0.0-11.0-0.13","5ee7b7c9eef92207297a0ad4","64afc2c9a8732ea92db0087d","64afd57be816f17cf60e0fbc","null","null","<p style=""font-size: 60px; font-family: BACS"">DcPTcbRC</p>","","","","","","","",""
"html-keyboard-response","183","236005","0.0-11.0-0.14","5ee7b7c9eef92207297a0ad4","64afc2c9a8732ea92db0087d","64afd57be816f17cf60e0fbc","null","null","<p style=""font-size: 60px; font-family: BACS"">DBlhOtM</p>","","","","","","","",""
"html-keyboard-response","184","237006","0.0-11.0-0.15","5ee7b7c9eef92207297a0ad4","64afc2c9a8732ea92db0087d","64afd57be816f17cf60e0fbc","null","null","<p style=""font-size: 60px; font-family: BACS"">lkAkvAvb</p>","","","","","","","",""
"html-keyboard-response","185","238013","0.0-11.0-0.16","5ee7b7c9eef92207297a0ad4","64afc2c9a8732ea92db0087d","64afd57be816f17cf60e0fbc","null","null","<p style=""font-size: 60px; font-family: BACS"">DBlhBbM</p>","","","","","","","",""
"html-keyboard-response","186","239015","0.0-11.0-0.17","5ee7b7c9eef92207297a0ad4","64afc2c9a8732ea92db0087d","64afd57be816f17cf60e0fbc","null","null","<p style=""font-size: 60px; font-family: BACS"">QbkAcuvJ</p>","","","","","","","",""
"html-keyboard-response","187","240016","0.0-11.0-0.18","5ee7b7c9eef92207297a0ad4","64afc2c9a8732ea92db0087d","64afd57be816f17cf60e0fbc","null","null","<p style=""font-size: 60px; font-family: BACS"">YQbcuda</p>","","","","","","","",""
"html-keyboard-response","188","241026","0.0-11.0-0.19","5ee7b7c9eef92207297a0ad4","64afc2c9a8732ea92db0087d","64afd57be816f17cf60e0fbc","null","null","<p style=""font-size: 60px; font-family: BACS"">TEBKbRC</p>","","","","","","","",""
"html-keyboard-response","189","242026","0.0-11.0-0.20","5ee7b7c9eef92207297a0ad4","64afc2c9a8732ea92db0087d","64afd57be816f17cf60e0fbc","null","null","<p style=""font-size: 60px; font-family: BACS"">lkAklGc</p>","","","","","","","",""
"html-keyboard-response","190","243027","0.0-11.0-0.21","5ee7b7c9eef92207297a0ad4","64afc2c9a8732ea92db0087d","64afd57be816f17cf60e0fbc","null","null","<p style=""font-size: 60px; font-family: BACS"">AlQaQvAvb</p>","","","","","","","",""
"html-keyboard-response","191","244028","0.0-11.0-0.22","5ee7b7c9eef92207297a0ad4","64afc2c9a8732ea92db0087d","64afd57be816f17cf60e0fbc","null","null","<p style=""font-size: 60px; font-family: BACS"">kbmZOGlu</p>","","","","","","","",""
"html-keyboard-response","192","245030","0.0-11.0-0.23","5ee7b7c9eef92207297a0ad4","64afc2c9a8732ea92db0087d","64afd57be816f17cf60e0fbc","null","null","<p style=""font-size: 60px; font-family: BACS"">ALGZvAvb</p>","","","","","","","",""
"html-keyboard-response","193","246032","0.0-11.0-0.24","5ee7b7c9eef92207297a0ad4","64afc2c9a8732ea92db0087d","64afd57be816f17cf60e0fbc","null","null","<p style=""font-size: 60px; font-family: BACS"">YJLcAuda</p>","","","","","","","",""
"html-keyboard-response","194","247047","0.0-11.0-0.25","5ee7b7c9eef92207297a0ad4","64afc2c9a8732ea92db0087d","64afd57be816f17cf60e0fbc","null","null","<p style=""font-size: 60px; font-family: BACS"">bYGOZuvJ</p>","","","","","","","",""
"html-keyboard-response","195","248061","0.0-11.0-0.26","5ee7b7c9eef92207297a0ad4","64afc2c9a8732ea92db0087d","64afd57be816f17cf60e0fbc","null","null","<p style=""font-size: 60px; font-family: BACS"">DBlhAlKD</p>","","","","","","","",""
"html-keyboard-response","196","249062","0.0-11.0-0.27","5ee7b7c9eef92207297a0ad4","64afc2c9a8732ea92db0087d","64afd57be816f17cf60e0fbc","null","null","<p style=""font-size: 60px; font-family: BACS"">YQbclGc</p>","","","","","","","",""
"html-keyboard-response","197","250063","0.0-11.0-0.28","5ee7b7c9eef92207297a0ad4","64afc2c9a8732ea92db0087d","64afd57be816f17cf60e0fbc","null","null","<p style=""font-size: 60px; font-family: BACS"">ALGZuvJ</p>","","","","","","","",""
"html-keyboard-response","198","251064","0.0-11.0-0.29","5ee7b7c9eef92207297a0ad4","64afc2c9a8732ea92db0087d","64afd57be816f17cf60e0fbc","null","null","<p style=""font-size: 60px; font-family: BACS"">kCRmBbM</p>","","","","","","","",""
"html-keyboard-response","199","252065","0.0-11.0-0.30","5ee7b7c9eef92207297a0ad4","64afc2c9a8732ea92db0087d","64afd57be816f17cf60e0fbc","null","null","<p style=""font-size: 60px; font-family: BACS"">BATOcOtM</p>","","","","","","","",""
"html-keyboard-response","200","253066","0.0-11.0-0.31","5ee7b7c9eef92207297a0ad4","64afc2c9a8732ea92db0087d","64afd57be816f17cf60e0fbc","null","null","<p style=""font-size: 60px; font-family: BACS"">tmtEMBbM</p>","","","","","","","",""
"html-keyboard-response","201","254070","0.0-11.0-0.32","5ee7b7c9eef92207297a0ad4","64afc2c9a8732ea92db0087d","64afd57be816f17cf60e0fbc","null","null","<p style=""font-size: 60px; font-family: BACS"">kCRmtRb</p>","","","","","","","",""
"html-keyboard-response","202","255074","0.0-11.0-0.33","5ee7b7c9eef92207297a0ad4","64afc2c9a8732ea92db0087d","64afd57be816f17cf60e0fbc","null","null","<p style=""font-size: 60px; font-family: BACS"">bYGOZlGc</p>","","","","","","","",""
"html-keyboard-response","203","256075","0.0-11.0-0.34","5ee7b7c9eef92207297a0ad4","64afc2c9a8732ea92db0087d","64afd57be816f17cf60e0fbc","null","null","<p style=""font-size: 60px; font-family: BACS"">tmtEMOtM</p>","","","","","","","",""
"html-keyboard-response","204","257077","0.0-11.0-0.35","5ee7b7c9eef92207297a0ad4","64afc2c9a8732ea92db0087d","64afd57be816f17cf60e0fbc","null","null","<p style=""font-size: 60px; font-family: BACS"">YQbcGlu</p>","","","","","","","",""
"html-keyboard-response","205","258083","0.0-11.0-0.36","5ee7b7c9eef92207297a0ad4","64afc2c9a8732ea92db0087d","64afd57be816f17cf60e0fbc","null","null","<p style=""font-size: 60px; font-family: BACS"">QbkAcvAvb</p>","","","","","","","",""
"html-keyboard-response","206","259092","0.0-11.0-0.37","5ee7b7c9eef92207297a0ad4","64afc2c9a8732ea92db0087d","64afd57be816f17cf60e0fbc","null","null","<p style=""font-size: 60px; font-family: BACS"">YJLcAGlu</p>","","","","","","","",""
"html-keyboard-response","207","260093","0.0-11.0-0.38","5ee7b7c9eef92207297a0ad4","64afc2c9a8732ea92db0087d","64afd57be816f17cf60e0fbc","null","null","<p style=""font-size: 60px; font-family: BACS"">DdckOtM</p>","","","","","","","",""
"html-keyboard-response","208","261095","0.0-11.0-0.39","5ee7b7c9eef92207297a0ad4","64afc2c9a8732ea92db0087d","64afd57be816f17cf60e0fbc","null","null","<p style=""font-size: 60px; font-family: BACS"">BATOcbRC</p>","","","","","","","",""
"html-keyboard-response","209","262103","0.0-11.0-0.40","5ee7b7c9eef92207297a0ad4","64afc2c9a8732ea92db0087d","64afd57be816f17cf60e0fbc","null","null","<p style=""font-size: 60px; font-family: BACS"">kCRmAlKD</p>","","","","","","","",""
"html-keyboard-response","210","263105","0.0-11.0-0.41","5ee7b7c9eef92207297a0ad4","64afc2c9a8732ea92db0087d","64afd57be816f17cf60e0fbc","null","null","<p style=""font-size: 60px; font-family: BACS"">AlQaQuda</p>","","","","","","","",""
"html-keyboard-response","211","264116","0.0-11.0-0.42","5ee7b7c9eef92207297a0ad4","64afc2c9a8732ea92db0087d","64afd57be816f17cf60e0fbc","null","null","<p style=""font-size: 60px; font-family: BACS"">bYGOZGlu</p>","","","","","","","",""
"html-keyboard-response","212","265124","0.0-11.0-0.43","5ee7b7c9eef92207297a0ad4","64afc2c9a8732ea92db0087d","64afd57be816f17cf60e0fbc","null","null","<p style=""font-size: 60px; font-family: BACS"">ALGZlGc</p>","","","","","","","",""
"html-keyboard-response","213","266134","0.0-11.0-0.44","5ee7b7c9eef92207297a0ad4","64afc2c9a8732ea92db0087d","64afd57be816f17cf60e0fbc","null","null","<p style=""font-size: 60px; font-family: BACS"">lkAkGlu</p>","","","","","","","",""
"html-keyboard-response","214","267136","0.0-11.0-0.45","5ee7b7c9eef92207297a0ad4","64afc2c9a8732ea92db0087d","64afd57be816f17cf60e0fbc","null","null","<p style=""font-size: 60px; font-family: BACS"">kbmZOuda</p>","","","","","","","",""
"html-keyboard-response","215","268137","0.0-11.0-0.46","5ee7b7c9eef92207297a0ad4","64afc2c9a8732ea92db0087d","64afd57be816f17cf60e0fbc","null","null","<p style=""font-size: 60px; font-family: BACS"">DcPTcOtM</p>","","","","","","","",""
"html-keyboard-response","216","269138","0.0-11.0-0.47","5ee7b7c9eef92207297a0ad4","64afc2c9a8732ea92db0087d","64afd57be816f17cf60e0fbc","null","null","<p style=""font-size: 60px; font-family: BACS"">JdOAYuda</p>","","","","","","","",""
"html-keyboard-response","217","270139","0.0-11.0-0.48","5ee7b7c9eef92207297a0ad4","64afc2c9a8732ea92db0087d","64afd57be816f17cf60e0fbc","null","null","<p style=""font-size: 60px; font-family: BACS"">tmtEMtRb</p>","","","","","","","",""
"html-keyboard-response","218","271142","0.0-11.0-0.49","5ee7b7c9eef92207297a0ad4","64afc2c9a8732ea92db0087d","64afd57be816f17cf60e0fbc","null","null","<p style=""font-size: 60px; font-family: BACS"">QbkAcGlu</p>","","","","","","","",""
"html-keyboard-response","219","272155","0.0-11.0-0.50","5ee7b7c9eef92207297a0ad4","64afc2c9a8732ea92db0087d","64afd57be816f17cf60e0fbc","null","null","<p style=""font-size: 60px; font-family: BACS"">TEBKOtM</p>","","","","","","","",""
"html-keyboard-response","220","273164","0.0-11.0-0.51","5ee7b7c9eef92207297a0ad4","64afc2c9a8732ea92db0087d","64afd57be816f17cf60e0fbc","null","null","<p style=""font-size: 60px; font-family: BACS"">JdOAYlGc</p>","","","","","","","",""
"html-keyboard-response","221","274166","0.0-11.0-0.52","5ee7b7c9eef92207297a0ad4","64afc2c9a8732ea92db0087d","64afd57be816f17cf60e0fbc","null","null","<p style=""font-size: 60px; font-family: BACS"">DBlhbRC</p>","","","","","","","",""
"html-keyboard-response","222","275168","0.0-11.0-0.53","5ee7b7c9eef92207297a0ad4","64afc2c9a8732ea92db0087d","64afd57be816f17cf60e0fbc","null","null","<p style=""font-size: 60px; font-family: BACS"">vYLUlGc</p>","","","","","","","",""
"html-keyboard-response","223","276182","0.0-11.0-0.54","5ee7b7c9eef92207297a0ad4","64afc2c9a8732ea92db0087d","64afd57be816f17cf60e0fbc","null","null","<p style=""font-size: 60px; font-family: BACS"">JdOAYGlu</p>","","","","","","","",""
"html-keyboard-response","224","277198","0.0-11.0-0.55","5ee7b7c9eef92207297a0ad4","64afc2c9a8732ea92db0087d","64afd57be816f17cf60e0fbc","null","null","<p style=""font-size: 60px; font-family: BACS"">kbmZOuvJ</p>","","","","","","","",""
"html-keyboard-response","225","278199","0.0-11.0-0.56","5ee7b7c9eef92207297a0ad4","64afc2c9a8732ea92db0087d","64afd57be816f17cf60e0fbc","null","null","<p style=""font-size: 60px; font-family: BACS"">DcPTctRb</p>","","","","","","","",""
"html-keyboard-response","226","279200","0.0-11.0-0.57","5ee7b7c9eef92207297a0ad4","64afc2c9a8732ea92db0087d","64afd57be816f17cf60e0fbc","null","null","<p style=""font-size: 60px; font-family: BACS"">bcbMOtM</p>","","","","","","","",""
"html-keyboard-response","227","280202","0.0-11.0-0.58","5ee7b7c9eef92207297a0ad4","64afc2c9a8732ea92db0087d","64afd57be816f17cf60e0fbc","null","null","<p style=""font-size: 60px; font-family: BACS"">BKDRYAlKD</p>","","","","","","","",""
"html-keyboard-response","228","281209","0.0-11.0-0.59","5ee7b7c9eef92207297a0ad4","64afc2c9a8732ea92db0087d","64afd57be816f17cf60e0fbc","null","null","<p style=""font-size: 60px; font-family: BACS"">DkTCPtRb</p>","","","","","","","",""
"html-keyboard-response","229","282210","0.0-11.0-0.60","5ee7b7c9eef92207297a0ad4","64afc2c9a8732ea92db0087d","64afd57be816f17cf60e0fbc","null","null","<p style=""font-size: 60px; font-family: BACS"">DdckAlKD</p>","","","","","","","",""
"html-keyboard-response","230","283215","0.0-11.0-0.61","5ee7b7c9eef92207297a0ad4","64afc2c9a8732ea92db0087d","64afd57be816f17cf60e0fbc","null","null","<p style=""font-size: 60px; font-family: BACS"">BKDRYtRb</p>","","","","","","","",""
"html-keyboard-response","231","284216","0.0-11.0-0.62","5ee7b7c9eef92207297a0ad4","64afc2c9a8732ea92db0087d","64afd57be816f17cf60e0fbc","null","null","<p style=""font-size: 60px; font-family: BACS"">DdckBbM</p>","","","","","","","",""
"html-keyboard-response","232","285218","0.0-11.0-0.63","5ee7b7c9eef92207297a0ad4","64afc2c9a8732ea92db0087d","64afd57be816f17cf60e0fbc","null","null","<p style=""font-size: 60px; font-family: BACS"">DkTCPAlKD</p>","","","","","","","",""
"html-keyboard-response","233","286221","0.0-11.0-0.64","5ee7b7c9eef92207297a0ad4","64afc2c9a8732ea92db0087d","64afd57be816f17cf60e0fbc","null","null","<p style=""font-size: 60px; font-family: BACS"">YQbcuvJ</p>","","","","","","","",""
"html-keyboard-response","234","287222","0.0-11.0-0.65","5ee7b7c9eef92207297a0ad4","64afc2c9a8732ea92db0087d","64afd57be816f17cf60e0fbc","null","null","<p style=""font-size: 60px; font-family: BACS"">DdcktRb</p>","","","","","","","",""
"html-keyboard-response","235","288228","0.0-11.0-0.66","5ee7b7c9eef92207297a0ad4","64afc2c9a8732ea92db0087d","64afd57be816f17cf60e0fbc","null","null","<p style=""font-size: 60px; font-family: BACS"">kCRmbRC</p>","","","","","","","",""
"html-keyboard-response","236","289239","0.0-11.0-0.67","5ee7b7c9eef92207297a0ad4","64afc2c9a8732ea92db0087d","64afd57be816f17cf60e0fbc","null","null","<p style=""font-size: 60px; font-family: BACS"">AlQaQlGc</p>","","","","","","","",""
"html-keyboard-response","237","290240","0.0-11.0-0.68","5ee7b7c9eef92207297a0ad4","64afc2c9a8732ea92db0087d","64afd57be816f17cf60e0fbc","null","null","<p style=""font-size: 60px; font-family: BACS"">kbmZOvAvb</p>","","","","","","","",""
"html-keyboard-response","238","291241","0.0-11.0-0.69","5ee7b7c9eef92207297a0ad4","64afc2c9a8732ea92db0087d","64afd57be816f17cf60e0fbc","null","null","<p style=""font-size: 60px; font-family: BACS"">QbkAcuda</p>","","","","","","","",""
"html-keyboard-response","239","292251","0.0-11.0-0.70","5ee7b7c9eef92207297a0ad4","64afc2c9a8732ea92db0087d","64afd57be816f17cf60e0fbc","null","null","<p style=""font-size: 60px; font-family: BACS"">BKDRYbRC</p>","","","","","","","",""
"html-keyboard-response","240","293253","0.0-11.0-0.71","5ee7b7c9eef92207297a0ad4","64afc2c9a8732ea92db0087d","64afd57be816f17cf60e0fbc","null","null","<p style=""font-size: 60px; font-family: BACS"">BATOcAlKD</p>","","","","","","","",""
"html-keyboard-response","241","294260","0.0-11.0-0.72","5ee7b7c9eef92207297a0ad4","64afc2c9a8732ea92db0087d","64afd57be816f17cf60e0fbc","null","null","<p style=""font-size: 60px; font-family: BACS"">vYLUuvJ</p>","","","","","","","",""
"html-keyboard-response","242","295260","0.0-11.0-0.73","5ee7b7c9eef92207297a0ad4","64afc2c9a8732ea92db0087d","64afd57be816f17cf60e0fbc","null","null","<p style=""font-size: 60px; font-family: BACS"">YJLcAlGc</p>","","","","","","","",""
"html-keyboard-response","243","296265","0.0-11.0-0.74","5ee7b7c9eef92207297a0ad4","64afc2c9a8732ea92db0087d","64afd57be816f17cf60e0fbc","null","null","<p style=""font-size: 60px; font-family: BACS"">JdOAYuvJ</p>","","","","","","","",""
"html-keyboard-response","244","297266","0.0-11.0-0.75","5ee7b7c9eef92207297a0ad4","64afc2c9a8732ea92db0087d","64afd57be816f17cf60e0fbc","null","null","<p style=""font-size: 60px; font-family: BACS"">lkAkuda</p>","","","","","","","",""
"html-keyboard-response","245","298271","0.0-11.0-0.76","5ee7b7c9eef92207297a0ad4","64afc2c9a8732ea92db0087d","64afd57be816f17cf60e0fbc","null","null","<p style=""font-size: 60px; font-family: BACS"">TEBKBbM</p>","","","","","","","",""
"html-keyboard-response","246","299272","0.0-11.0-0.77","5ee7b7c9eef92207297a0ad4","64afc2c9a8732ea92db0087d","64afd57be816f17cf60e0fbc","null","null","<p style=""font-size: 60px; font-family: BACS"">bcbMbRC</p>","","","","","","","",""
"html-keyboard-response","247","300276","0.0-11.0-0.78","5ee7b7c9eef92207297a0ad4","64afc2c9a8732ea92db0087d","64afd57be816f17cf60e0fbc","null","null","<p style=""font-size: 60px; font-family: BACS"">vYLUvAvb</p>","","","","","","","",""
"html-keyboard-response","248","301283","0.0-11.0-0.79","5ee7b7c9eef92207297a0ad4","64afc2c9a8732ea92db0087d","64afd57be816f17cf60e0fbc","null","null","<p style=""font-size: 60px; font-family: BACS"">bcbMAlKD</p>","","","","","","","",""
"html-keyboard-response","249","309937","0.0-12.0","5ee7b7c9eef92207297a0ad4","64afc2c9a8732ea92db0087d","64afd57be816f17cf60e0fbc","8653"," ","<p>Ottimo, hai visto il terzo blocco di parole. Ora puoi prenderti una piccola pausa.</p>
      <p>Premi la barra quando sei pronta/o per riprendere.</p>","","","","","","","",""
"html-keyboard-response","250","310944","0.0-13.0-0.0","5ee7b7c9eef92207297a0ad4","64afc2c9a8732ea92db0087d","64afd57be816f17cf60e0fbc","null","null","<p style=""font-size: 60px; font-family: BACS"">bYGOZGlu</p>","","","","","","","",""
"html-keyboard-response","251","311944","0.0-13.0-0.1","5ee7b7c9eef92207297a0ad4","64afc2c9a8732ea92db0087d","64afd57be816f17cf60e0fbc","null","null","<p style=""font-size: 60px; font-family: BACS"">BKDRYbRC</p>","","","","","","","",""
"html-keyboard-response","252","312945","0.0-13.0-0.2","5ee7b7c9eef92207297a0ad4","64afc2c9a8732ea92db0087d","64afd57be816f17cf60e0fbc","null","null","<p style=""font-size: 60px; font-family: BACS"">YJLcAuda</p>","","","","","","","",""
"html-keyboard-response","253","313959","0.0-13.0-0.3","5ee7b7c9eef92207297a0ad4","64afc2c9a8732ea92db0087d","64afd57be816f17cf60e0fbc","null","null","<p style=""font-size: 60px; font-family: BACS"">kCRmbRC</p>","","","","","","","",""
"html-keyboard-response","254","314960","0.0-13.0-0.4","5ee7b7c9eef92207297a0ad4","64afc2c9a8732ea92db0087d","64afd57be816f17cf60e0fbc","null","null","<p style=""font-size: 60px; font-family: BACS"">BKDRYtRb</p>","","","","","","","",""
"html-keyboard-response","255","315962","0.0-13.0-0.5","5ee7b7c9eef92207297a0ad4","64afc2c9a8732ea92db0087d","64afd57be816f17cf60e0fbc","null","null","<p style=""font-size: 60px; font-family: BACS"">DkTCPBbM</p>","","","","","","","",""
"html-keyboard-response","256","316973","0.0-13.0-0.6","5ee7b7c9eef92207297a0ad4","64afc2c9a8732ea92db0087d","64afd57be816f17cf60e0fbc","null","null","<p style=""font-size: 60px; font-family: BACS"">bcbMOtM</p>","","","","","","","",""
"html-keyboard-response","257","317983","0.0-13.0-0.7","5ee7b7c9eef92207297a0ad4","64afc2c9a8732ea92db0087d","64afd57be816f17cf60e0fbc","null","null","<p style=""font-size: 60px; font-family: BACS"">vYLUlGc</p>","","","","","","","",""
"html-keyboard-response","258","318984","0.0-13.0-0.8","5ee7b7c9eef92207297a0ad4","64afc2c9a8732ea92db0087d","64afd57be816f17cf60e0fbc","null","null","<p style=""font-size: 60px; font-family: BACS"">BATOcAlKD</p>","","","","","","","",""
"html-keyboard-response","259","319991","0.0-13.0-0.9","5ee7b7c9eef92207297a0ad4","64afc2c9a8732ea92db0087d","64afd57be816f17cf60e0fbc","null","null","<p style=""font-size: 60px; font-family: BACS"">kCRmtRb</p>","","","","","","","",""
"html-keyboard-response","260","320993","0.0-13.0-0.10","5ee7b7c9eef92207297a0ad4","64afc2c9a8732ea92db0087d","64afd57be816f17cf60e0fbc","null","null","<p style=""font-size: 60px; font-family: BACS"">vYLUuda</p>","","","","","","","",""
"html-keyboard-response","261","322006","0.0-13.0-0.11","5ee7b7c9eef92207297a0ad4","64afc2c9a8732ea92db0087d","64afd57be816f17cf60e0fbc","null","null","<p style=""font-size: 60px; font-family: BACS"">DdckOtM</p>","","","","","","","",""
"html-keyboard-response","262","323007","0.0-13.0-0.12","5ee7b7c9eef92207297a0ad4","64afc2c9a8732ea92db0087d","64afd57be816f17cf60e0fbc","null","null","<p style=""font-size: 60px; font-family: BACS"">DkTCPtRb</p>","","","","","","","",""
"html-keyboard-response","263","324017","0.0-13.0-0.13","5ee7b7c9eef92207297a0ad4","64afc2c9a8732ea92db0087d","64afd57be816f17cf60e0fbc","null","null","<p style=""font-size: 60px; font-family: BACS"">BKDRYAlKD</p>","","","","","","","",""
"html-keyboard-response","264","325024","0.0-13.0-0.14","5ee7b7c9eef92207297a0ad4","64afc2c9a8732ea92db0087d","64afd57be816f17cf60e0fbc","null","null","<p style=""font-size: 60px; font-family: BACS"">YQbcuvJ</p>","","","","","","","",""
"html-keyboard-response","265","326025","0.0-13.0-0.15","5ee7b7c9eef92207297a0ad4","64afc2c9a8732ea92db0087d","64afd57be816f17cf60e0fbc","null","null","<p style=""font-size: 60px; font-family: BACS"">AlQaQvAvb</p>","","","","","","","",""
"html-keyboard-response","266","327026","0.0-13.0-0.16","5ee7b7c9eef92207297a0ad4","64afc2c9a8732ea92db0087d","64afd57be816f17cf60e0fbc","null","null","<p style=""font-size: 60px; font-family: BACS"">DBlhBbM</p>","","","","","","","",""
"html-keyboard-response","267","328028","0.0-13.0-0.17","5ee7b7c9eef92207297a0ad4","64afc2c9a8732ea92db0087d","64afd57be816f17cf60e0fbc","null","null","<p style=""font-size: 60px; font-family: BACS"">kCRmAlKD</p>","","","","","","","",""
"html-keyboard-response","268","329029","0.0-13.0-0.18","5ee7b7c9eef92207297a0ad4","64afc2c9a8732ea92db0087d","64afd57be816f17cf60e0fbc","null","null","<p style=""font-size: 60px; font-family: BACS"">YJLcAvAvb</p>","","","","","","","",""
"html-keyboard-response","269","330045","0.0-13.0-0.19","5ee7b7c9eef92207297a0ad4","64afc2c9a8732ea92db0087d","64afd57be816f17cf60e0fbc","null","null","<p style=""font-size: 60px; font-family: BACS"">YQbclGc</p>","","","","","","","",""
"html-keyboard-response","270","331050","0.0-13.0-0.20","5ee7b7c9eef92207297a0ad4","64afc2c9a8732ea92db0087d","64afd57be816f17cf60e0fbc","null","null","<p style=""font-size: 60px; font-family: BACS"">vYLUvAvb</p>","","","","","","","",""
"html-keyboard-response","271","332059","0.0-13.0-0.21","5ee7b7c9eef92207297a0ad4","64afc2c9a8732ea92db0087d","64afd57be816f17cf60e0fbc","null","null","<p style=""font-size: 60px; font-family: BACS"">tmtEMtRb</p>","","","","","","","",""
"html-keyboard-response","272","333067","0.0-13.0-0.22","5ee7b7c9eef92207297a0ad4","64afc2c9a8732ea92db0087d","64afd57be816f17cf60e0fbc","null","null","<p style=""font-size: 60px; font-family: BACS"">DcPTcAlKD</p>","","","","","","","",""
"html-keyboard-response","273","334083","0.0-13.0-0.23","5ee7b7c9eef92207297a0ad4","64afc2c9a8732ea92db0087d","64afd57be816f17cf60e0fbc","null","null","<p style=""font-size: 60px; font-family: BACS"">YQbcuda</p>","","","","","","","",""
"html-keyboard-response","274","335098","0.0-13.0-0.24","5ee7b7c9eef92207297a0ad4","64afc2c9a8732ea92db0087d","64afd57be816f17cf60e0fbc","null","null","<p style=""font-size: 60px; font-family: BACS"">bYGOZvAvb</p>","","","","","","","",""
"html-keyboard-response","275","336098","0.0-13.0-0.25","5ee7b7c9eef92207297a0ad4","64afc2c9a8732ea92db0087d","64afd57be816f17cf60e0fbc","null","null","<p style=""font-size: 60px; font-family: BACS"">lkAklGc</p>","","","","","","","",""
"html-keyboard-response","276","337100","0.0-13.0-0.26","5ee7b7c9eef92207297a0ad4","64afc2c9a8732ea92db0087d","64afd57be816f17cf60e0fbc","null","null","<p style=""font-size: 60px; font-family: BACS"">DcPTcbRC</p>","","","","","","","",""
"html-keyboard-response","277","338101","0.0-13.0-0.27","5ee7b7c9eef92207297a0ad4","64afc2c9a8732ea92db0087d","64afd57be816f17cf60e0fbc","null","null","<p style=""font-size: 60px; font-family: BACS"">kbmZOvAvb</p>","","","","","","","",""
"html-keyboard-response","278","339102","0.0-13.0-0.28","5ee7b7c9eef92207297a0ad4","64afc2c9a8732ea92db0087d","64afd57be816f17cf60e0fbc","null","null","<p style=""font-size: 60px; font-family: BACS"">ALGZuvJ</p>","","","","","","","",""
"html-keyboard-response","279","340103","0.0-13.0-0.29","5ee7b7c9eef92207297a0ad4","64afc2c9a8732ea92db0087d","64afd57be816f17cf60e0fbc","null","null","<p style=""font-size: 60px; font-family: BACS"">tmtEMBbM</p>","","","","","","","",""
"html-keyboard-response","280","341104","0.0-13.0-0.30","5ee7b7c9eef92207297a0ad4","64afc2c9a8732ea92db0087d","64afd57be816f17cf60e0fbc","null","null","<p style=""font-size: 60px; font-family: BACS"">QbkAcGlu</p>","","","","","","","",""
"html-keyboard-response","281","342105","0.0-13.0-0.31","5ee7b7c9eef92207297a0ad4","64afc2c9a8732ea92db0087d","64afd57be816f17cf60e0fbc","null","null","<p style=""font-size: 60px; font-family: BACS"">ALGZlGc</p>","","","","","","","",""
"html-keyboard-response","282","343121","0.0-13.0-0.32","5ee7b7c9eef92207297a0ad4","64afc2c9a8732ea92db0087d","64afd57be816f17cf60e0fbc","null","null","<p style=""font-size: 60px; font-family: BACS"">DBlhAlKD</p>","","","","","","","",""
"html-keyboard-response","283","344130","0.0-13.0-0.33","5ee7b7c9eef92207297a0ad4","64afc2c9a8732ea92db0087d","64afd57be816f17cf60e0fbc","null","null","<p style=""font-size: 60px; font-family: BACS"">AlQaQuvJ</p>","","","","","","","",""
"html-keyboard-response","284","345131","0.0-13.0-0.34","5ee7b7c9eef92207297a0ad4","64afc2c9a8732ea92db0087d","64afd57be816f17cf60e0fbc","null","null","<p style=""font-size: 60px; font-family: BACS"">tmtEMOtM</p>","","","","","","","",""
"html-keyboard-response","285","346139","0.0-13.0-0.35","5ee7b7c9eef92207297a0ad4","64afc2c9a8732ea92db0087d","64afd57be816f17cf60e0fbc","null","null","<p style=""font-size: 60px; font-family: BACS"">kbmZOuda</p>","","","","","","","",""
"html-keyboard-response","286","347140","0.0-13.0-0.36","5ee7b7c9eef92207297a0ad4","64afc2c9a8732ea92db0087d","64afd57be816f17cf60e0fbc","null","null","<p style=""font-size: 60px; font-family: BACS"">QbkAcvAvb</p>","","","","","","","",""
"html-keyboard-response","287","348146","0.0-13.0-0.37","5ee7b7c9eef92207297a0ad4","64afc2c9a8732ea92db0087d","64afd57be816f17cf60e0fbc","null","null","<p style=""font-size: 60px; font-family: BACS"">BATOctRb</p>","","","","","","","",""
"html-keyboard-response","288","349155","0.0-13.0-0.38","5ee7b7c9eef92207297a0ad4","64afc2c9a8732ea92db0087d","64afd57be816f17cf60e0fbc","null","null","<p style=""font-size: 60px; font-family: BACS"">lkAkuda</p>","","","","","","","",""
"html-keyboard-response","289","350162","0.0-13.0-0.39","5ee7b7c9eef92207297a0ad4","64afc2c9a8732ea92db0087d","64afd57be816f17cf60e0fbc","null","null","<p style=""font-size: 60px; font-family: BACS"">kbmZOGlu</p>","","","","","","","",""
"html-keyboard-response","290","351163","0.0-13.0-0.40","5ee7b7c9eef92207297a0ad4","64afc2c9a8732ea92db0087d","64afd57be816f17cf60e0fbc","null","null","<p style=""font-size: 60px; font-family: BACS"">ALGZvAvb</p>","","","","","","","",""
"html-keyboard-response","291","352164","0.0-13.0-0.41","5ee7b7c9eef92207297a0ad4","64afc2c9a8732ea92db0087d","64afd57be816f17cf60e0fbc","null","null","<p style=""font-size: 60px; font-family: BACS"">bcbMAlKD</p>","","","","","","","",""
"html-keyboard-response","292","353174","0.0-13.0-0.42","5ee7b7c9eef92207297a0ad4","64afc2c9a8732ea92db0087d","64afd57be816f17cf60e0fbc","null","null","<p style=""font-size: 60px; font-family: BACS"">BATOcbRC</p>","","","","","","","",""
"html-keyboard-response","293","354175","0.0-13.0-0.43","5ee7b7c9eef92207297a0ad4","64afc2c9a8732ea92db0087d","64afd57be816f17cf60e0fbc","null","null","<p style=""font-size: 60px; font-family: BACS"">DdcktRb</p>","","","","","","","",""
"html-keyboard-response","294","355176","0.0-13.0-0.44","5ee7b7c9eef92207297a0ad4","64afc2c9a8732ea92db0087d","64afd57be816f17cf60e0fbc","null","null","<p style=""font-size: 60px; font-family: BACS"">QbkAcuvJ</p>","","","","","","","",""
"html-keyboard-response","295","356190","0.0-13.0-0.45","5ee7b7c9eef92207297a0ad4","64afc2c9a8732ea92db0087d","64afd57be816f17cf60e0fbc","null","null","<p style=""font-size: 60px; font-family: BACS"">TEBKBbM</p>","","","","","","","",""
"html-keyboard-response","296","357200","0.0-13.0-0.46","5ee7b7c9eef92207297a0ad4","64afc2c9a8732ea92db0087d","64afd57be816f17cf60e0fbc","null","null","<p style=""font-size: 60px; font-family: BACS"">YJLcAlGc</p>","","","","","","","",""
"html-keyboard-response","297","358212","0.0-13.0-0.47","5ee7b7c9eef92207297a0ad4","64afc2c9a8732ea92db0087d","64afd57be816f17cf60e0fbc","null","null","<p style=""font-size: 60px; font-family: BACS"">kbmZOuvJ</p>","","","","","","","",""
"html-keyboard-response","298","359214","0.0-13.0-0.48","5ee7b7c9eef92207297a0ad4","64afc2c9a8732ea92db0087d","64afd57be816f17cf60e0fbc","null","null","<p style=""font-size: 60px; font-family: BACS"">kCRmBbM</p>","","","","","","","",""
"html-keyboard-response","299","360215","0.0-13.0-0.49","5ee7b7c9eef92207297a0ad4","64afc2c9a8732ea92db0087d","64afd57be816f17cf60e0fbc","null","null","<p style=""font-size: 60px; font-family: BACS"">vYLUuvJ</p>","","","","","","","",""
"html-keyboard-response","300","361225","0.0-13.0-0.50","5ee7b7c9eef92207297a0ad4","64afc2c9a8732ea92db0087d","64afd57be816f17cf60e0fbc","null","null","<p style=""font-size: 60px; font-family: BACS"">JdOAYuda</p>","","","","","","","",""
"html-keyboard-response","301","362226","0.0-13.0-0.51","5ee7b7c9eef92207297a0ad4","64afc2c9a8732ea92db0087d","64afd57be816f17cf60e0fbc","null","null","<p style=""font-size: 60px; font-family: BACS"">bcbMbRC</p>","","","","","","","",""
"html-keyboard-response","302","363238","0.0-13.0-0.52","5ee7b7c9eef92207297a0ad4","64afc2c9a8732ea92db0087d","64afd57be816f17cf60e0fbc","null","null","<p style=""font-size: 60px; font-family: BACS"">DdckAlKD</p>","","","","","","","",""
"html-keyboard-response","303","364242","0.0-13.0-0.53","5ee7b7c9eef92207297a0ad4","64afc2c9a8732ea92db0087d","64afd57be816f17cf60e0fbc","null","null","<p style=""font-size: 60px; font-family: BACS"">bcbMBbM</p>","","","","","","","",""
"html-keyboard-response","304","365254","0.0-13.0-0.54","5ee7b7c9eef92207297a0ad4","64afc2c9a8732ea92db0087d","64afd57be816f17cf60e0fbc","null","null","<p style=""font-size: 60px; font-family: BACS"">DBlhbRC</p>","","","","","","","",""
"html-keyboard-response","305","366256","0.0-13.0-0.55","5ee7b7c9eef92207297a0ad4","64afc2c9a8732ea92db0087d","64afd57be816f17cf60e0fbc","null","null","<p style=""font-size: 60px; font-family: BACS"">DcPTctRb</p>","","","","","","","",""
"html-keyboard-response","306","367259","0.0-13.0-0.56","5ee7b7c9eef92207297a0ad4","64afc2c9a8732ea92db0087d","64afd57be816f17cf60e0fbc","null","null","<p style=""font-size: 60px; font-family: BACS"">YJLcAGlu</p>","","","","","","","",""
"html-keyboard-response","307","368266","0.0-13.0-0.57","5ee7b7c9eef92207297a0ad4","64afc2c9a8732ea92db0087d","64afd57be816f17cf60e0fbc","null","null","<p style=""font-size: 60px; font-family: BACS"">QbkAcuda</p>","","","","","","","",""
"html-keyboard-response","308","369276","0.0-13.0-0.58","5ee7b7c9eef92207297a0ad4","64afc2c9a8732ea92db0087d","64afd57be816f17cf60e0fbc","null","null","<p style=""font-size: 60px; font-family: BACS"">DdckBbM</p>","","","","","","","",""
"html-keyboard-response","309","370285","0.0-13.0-0.59","5ee7b7c9eef92207297a0ad4","64afc2c9a8732ea92db0087d","64afd57be816f17cf60e0fbc","null","null","<p style=""font-size: 60px; font-family: BACS"">lkAkGlu</p>","","","","","","","",""
"html-keyboard-response","310","371287","0.0-13.0-0.60","5ee7b7c9eef92207297a0ad4","64afc2c9a8732ea92db0087d","64afd57be816f17cf60e0fbc","null","null","<p style=""font-size: 60px; font-family: BACS"">BKDRYBbM</p>","","","","","","","",""
"html-keyboard-response","311","372287","0.0-13.0-0.61","5ee7b7c9eef92207297a0ad4","64afc2c9a8732ea92db0087d","64afd57be816f17cf60e0fbc","null","null","<p style=""font-size: 60px; font-family: BACS"">AlQaQuda</p>","","","","","","","",""
"html-keyboard-response","312","373289","0.0-13.0-0.62","5ee7b7c9eef92207297a0ad4","64afc2c9a8732ea92db0087d","64afd57be816f17cf60e0fbc","null","null","<p style=""font-size: 60px; font-family: BACS"">TEBKbRC</p>","","","","","","","",""
"html-keyboard-response","313","374291","0.0-13.0-0.63","5ee7b7c9eef92207297a0ad4","64afc2c9a8732ea92db0087d","64afd57be816f17cf60e0fbc","null","null","<p style=""font-size: 60px; font-family: BACS"">DBlhOtM</p>","","","","","","","",""
"html-keyboard-response","314","375292","0.0-13.0-0.64","5ee7b7c9eef92207297a0ad4","64afc2c9a8732ea92db0087d","64afd57be816f17cf60e0fbc","null","null","<p style=""font-size: 60px; font-family: BACS"">JdOAYGlu</p>","","","","","","","",""
"html-keyboard-response","315","376293","0.0-13.0-0.65","5ee7b7c9eef92207297a0ad4","64afc2c9a8732ea92db0087d","64afd57be816f17cf60e0fbc","null","null","<p style=""font-size: 60px; font-family: BACS"">DkTCPAlKD</p>","","","","","","","",""
"html-keyboard-response","316","377298","0.0-13.0-0.66","5ee7b7c9eef92207297a0ad4","64afc2c9a8732ea92db0087d","64afd57be816f17cf60e0fbc","null","null","<p style=""font-size: 60px; font-family: BACS"">bYGOZuvJ</p>","","","","","","","",""
"html-keyboard-response","317","378308","0.0-13.0-0.67","5ee7b7c9eef92207297a0ad4","64afc2c9a8732ea92db0087d","64afd57be816f17cf60e0fbc","null","null","<p style=""font-size: 60px; font-family: BACS"">TEBKOtM</p>","","","","","","","",""
"html-keyboard-response","318","379310","0.0-13.0-0.68","5ee7b7c9eef92207297a0ad4","64afc2c9a8732ea92db0087d","64afd57be816f17cf60e0fbc","null","null","<p style=""font-size: 60px; font-family: BACS"">YQbcGlu</p>","","","","","","","",""
"html-keyboard-response","319","380311","0.0-13.0-0.69","5ee7b7c9eef92207297a0ad4","64afc2c9a8732ea92db0087d","64afd57be816f17cf60e0fbc","null","null","<p style=""font-size: 60px; font-family: BACS"">AlQaQlGc</p>","","","","","","","",""
"html-keyboard-response","320","381313","0.0-13.0-0.70","5ee7b7c9eef92207297a0ad4","64afc2c9a8732ea92db0087d","64afd57be816f17cf60e0fbc","null","null","<p style=""font-size: 60px; font-family: BACS"">JdOAYuvJ</p>","","","","","","","",""
"html-keyboard-response","321","382314","0.0-13.0-0.71","5ee7b7c9eef92207297a0ad4","64afc2c9a8732ea92db0087d","64afd57be816f17cf60e0fbc","null","null","<p style=""font-size: 60px; font-family: BACS"">bYGOZlGc</p>","","","","","","","",""
"html-keyboard-response","322","383316","0.0-13.0-0.72","5ee7b7c9eef92207297a0ad4","64afc2c9a8732ea92db0087d","64afd57be816f17cf60e0fbc","null","null","<p style=""font-size: 60px; font-family: BACS"">TEBKtRb</p>","","","","","","","",""
"html-keyboard-response","323","384322","0.0-13.0-0.73","5ee7b7c9eef92207297a0ad4","64afc2c9a8732ea92db0087d","64afd57be816f17cf60e0fbc","null","null","<p style=""font-size: 60px; font-family: BACS"">lkAkvAvb</p>","","","","","","","",""
"html-keyboard-response","324","385332","0.0-13.0-0.74","5ee7b7c9eef92207297a0ad4","64afc2c9a8732ea92db0087d","64afd57be816f17cf60e0fbc","null","null","<p style=""font-size: 60px; font-family: BACS"">DkTCPOtM</p>","","","","","","","",""
"html-keyboard-response","325","386333","0.0-13.0-0.75","5ee7b7c9eef92207297a0ad4","64afc2c9a8732ea92db0087d","64afd57be816f17cf60e0fbc","null","null","<p style=""font-size: 60px; font-family: BACS"">ALGZGlu</p>","","","","","","","",""
"html-keyboard-response","326","387335","0.0-13.0-0.76","5ee7b7c9eef92207297a0ad4","64afc2c9a8732ea92db0087d","64afd57be816f17cf60e0fbc","null","null","<p style=""font-size: 60px; font-family: BACS"">DcPTcOtM</p>","","","","","","","",""
"html-keyboard-response","327","388343","0.0-13.0-0.77","5ee7b7c9eef92207297a0ad4","64afc2c9a8732ea92db0087d","64afd57be816f17cf60e0fbc","null","null","<p style=""font-size: 60px; font-family: BACS"">JdOAYlGc</p>","","","","","","","",""
"html-keyboard-response","328","389348","0.0-13.0-0.78","5ee7b7c9eef92207297a0ad4","64afc2c9a8732ea92db0087d","64afd57be816f17cf60e0fbc","null","null","<p style=""font-size: 60px; font-family: BACS"">tmtEMbRC</p>","","","","","","","",""
"html-keyboard-response","329","390350","0.0-13.0-0.79","5ee7b7c9eef92207297a0ad4","64afc2c9a8732ea92db0087d","64afd57be816f17cf60e0fbc","null","null","<p style=""font-size: 60px; font-family: BACS"">BATOcOtM</p>","","","","","","","",""
"html-keyboard-response","330","393238","0.0-14.0","5ee7b7c9eef92207297a0ad4","64afc2c9a8732ea92db0087d","64afd57be816f17cf60e0fbc","2887"," ","<p>Ottimo! Hai visto tutte le parole che abbiamo ricevuto dallo spazio.</p>
      <p>Premi la barra quando sei pronta/o per continuare.</p>","","","","","","","",""
"html-keyboard-response","331","417325","0.0-15.0","5ee7b7c9eef92207297a0ad4","64afc2c9a8732ea92db0087d","64afd57be816f17cf60e0fbc","24087"," ","<p>In questa seconda parte, vedrai delle nuove parole che abbiamo ricevuto dallo stesso gruppo di alieni, e altre che invece provengono da un'altra comunicazione, con un altro gruppo di alieni. Purtroppo le due comunicazioni non arrivano a noi separatamente, per cui le parole sono mescolate tra loro. Il tuo compito sarà quello di individuare le parole che provengono dal gruppo che hai studiato nella prima parte dell'esperimento.</p>
      <p>Questo compito non è per nulla facile; le due comunicazioni infatti usano gli stessi caratteri. Il tuo meeting con i leader mondiali inizia tra poco, per cui non avrai molto tempo per prendere la tua decisione; dovrai essere veloce. Cerca di fare del tuo meglio usando la tua intuizione; non hai tempo di stare a pensare a lungo su ogni singola parola.</p>
      <p>Premi <strong>k</strong> quando pensi che la parola che stai vedendo sia degli stessi alieni che hai studiato prima, e <strong>d</strong> quando invece pensi che la parola che stai vedendo venga dall'altra comunicazione, con il nuovo gruppo di alieni.</p><p>Premi la barra quando sei pronta/o per iniziare.</p>","","","","","","","",""
"html-keyboard-response","332","420247","0.0-16.0-0.0","5ee7b7c9eef92207297a0ad4","64afc2c9a8732ea92db0087d","64afd57be816f17cf60e0fbc","2921","k","<p style=""font-size: 30px;"">La parola viene del gruppo di alieni che hai studiato prima?</p><br><p style=""font-size: 60px; font-family: BACS"">bcbMGlu<p style=""font-size: 15px"">Premi <strong>k</strong> per sì, <strong>d</strong> per no.</p>","","bcbMGlu","testing","d","false","","",""
"html-keyboard-response","333","424429","0.0-16.0-1.0-0.0","5ee7b7c9eef92207297a0ad4","64afc2c9a8732ea92db0087d","64afd57be816f17cf60e0fbc","4181"," ","<p style=""font-size: 30px; color: red"">Attenzione! Sei stato troppo lento con questa parola.</p>
      <p style=""font-size: 30px; color: red"">Cerca di essere più veloce.</p><p></p><p>Premi la barra per continuare.</p>","","","","","","","",""
"html-keyboard-response","334","424941","0.0-16.0-0.1","5ee7b7c9eef92207297a0ad4","64afc2c9a8732ea92db0087d","64afd57be816f17cf60e0fbc","511","k","<p style=""font-size: 30px;"">La parola viene del gruppo di alieni che hai studiato prima?</p><br><p style=""font-size: 60px; font-family: BACS"">BATOclGc<p style=""font-size: 15px"">Premi <strong>k</strong> per sì, <strong>d</strong> per no.</p>","","BATOclGc","testing","d","false","","",""
"html-keyboard-response","335","425969","0.0-16.0-0.2","5ee7b7c9eef92207297a0ad4","64afc2c9a8732ea92db0087d","64afd57be816f17cf60e0fbc","1028","d","<p style=""font-size: 30px;"">La parola viene del gruppo di alieni che hai studiato prima?</p><br><p style=""font-size: 60px; font-family: BACS"">YJLcAuvJ<p style=""font-size: 15px"">Premi <strong>k</strong> per sì, <strong>d</strong> per no.</p>","","YJLcAuvJ","testing","k","false","","",""
"html-keyboard-response","336","427639","0.0-16.0-0.3","5ee7b7c9eef92207297a0ad4","64afc2c9a8732ea92db0087d","64afd57be816f17cf60e0fbc","1669","k","<p style=""font-size: 30px"">&emsp;</p><br><p style=""font-size: 60px; font-family: BACS"">tmtEMAlKD<p style=""font-size: 15px"">Premi <strong>k</strong> per sì, <strong>d</strong> per no.</p>","","tmtEMAlKD","testing","k","true","","",""
"html-keyboard-response","337","429163","0.0-16.0-0.4","5ee7b7c9eef92207297a0ad4","64afc2c9a8732ea92db0087d","64afd57be816f17cf60e0fbc","1524","k","<p style=""font-size: 30px"">&emsp;</p><br><p style=""font-size: 60px; font-family: BACS"">BATOcBbM<p style=""font-size: 15px"">Premi <strong>k</strong> per sì, <strong>d</strong> per no.</p>","","BATOcBbM","testing","k","true","","",""
"html-keyboard-response","338","430538","0.0-16.0-0.5","5ee7b7c9eef92207297a0ad4","64afc2c9a8732ea92db0087d","64afd57be816f17cf60e0fbc","1374","d","<p style=""font-size: 30px"">&emsp;</p><br><p style=""font-size: 60px; font-family: BACS"">YQbcvAvb<p style=""font-size: 15px"">Premi <strong>k</strong> per sì, <strong>d</strong> per no.</p>","","YQbcvAvb","testing","k","false","","",""
"html-keyboard-response","339","431649","0.0-16.0-0.6","5ee7b7c9eef92207297a0ad4","64afc2c9a8732ea92db0087d","64afd57be816f17cf60e0fbc","1111","d","<p style=""font-size: 30px"">&emsp;</p><br><p style=""font-size: 60px; font-family: BACS"">AlQaQGlu<p style=""font-size: 15px"">Premi <strong>k</strong> per sì, <strong>d</strong> per no.</p>","","AlQaQGlu","testing","k","false","","",""
"html-keyboard-response","340","433343","0.0-16.0-0.7","5ee7b7c9eef92207297a0ad4","64afc2c9a8732ea92db0087d","64afd57be816f17cf60e0fbc","1693","k","<p style=""font-size: 30px"">&emsp;</p><br><p style=""font-size: 60px; font-family: BACS"">vYLUtRb<p style=""font-size: 15px"">Premi <strong>k</strong> per sì, <strong>d</strong> per no.</p>","","vYLUtRb","testing","d","false","","",""
"html-keyboard-response","341","434344","0.0-16.0-0.8","5ee7b7c9eef92207297a0ad4","64afc2c9a8732ea92db0087d","64afd57be816f17cf60e0fbc","1001","d","<p style=""font-size: 30px"">&emsp;</p><br><p style=""font-size: 60px; font-family: BACS"">DkTCPbRC<p style=""font-size: 15px"">Premi <strong>k</strong> per sì, <strong>d</strong> per no.</p>","","DkTCPbRC","testing","k","false","","",""
"html-keyboard-response","342","435192","0.0-16.0-0.9","5ee7b7c9eef92207297a0ad4","64afc2c9a8732ea92db0087d","64afd57be816f17cf60e0fbc","847","d","<p style=""font-size: 30px"">&emsp;</p><br><p style=""font-size: 60px; font-family: BACS"">lkAkuvJ<p style=""font-size: 15px"">Premi <strong>k</strong> per sì, <strong>d</strong> per no.</p>","","lkAkuvJ","testing","k","false","","",""
"html-keyboard-response","343","436579","0.0-16.0-0.10","5ee7b7c9eef92207297a0ad4","64afc2c9a8732ea92db0087d","64afd57be816f17cf60e0fbc","1387","d","<p style=""font-size: 30px"">&emsp;</p><br><p style=""font-size: 60px; font-family: BACS"">QbkAclGc<p style=""font-size: 15px"">Premi <strong>k</strong> per sì, <strong>d</strong> per no.</p>","","QbkAclGc","testing","k","false","","",""
"html-keyboard-response","344","437259","0.0-16.0-0.11","5ee7b7c9eef92207297a0ad4","64afc2c9a8732ea92db0087d","64afd57be816f17cf60e0fbc","680","k","<p style=""font-size: 30px"">&emsp;</p><br><p style=""font-size: 60px; font-family: BACS"">tmtEMuvJ<p style=""font-size: 15px"">Premi <strong>k</strong> per sì, <strong>d</strong> per no.</p>","","tmtEMuvJ","testing","d","false","","",""
"html-keyboard-response","345","439364","0.0-16.0-0.12","5ee7b7c9eef92207297a0ad4","64afc2c9a8732ea92db0087d","64afd57be816f17cf60e0fbc","2105","d","<p style=""font-size: 30px"">&emsp;</p><br><p style=""font-size: 60px; font-family: BACS"">YJLcAAlKD<p style=""font-size: 15px"">Premi <strong>k</strong> per sì, <strong>d</strong> per no.</p>","","YJLcAAlKD","testing","d","true","","",""
"html-keyboard-response","346","440966","0.0-16.0-1.12-0.12","5ee7b7c9eef92207297a0ad4","64afc2c9a8732ea92db0087d","64afd57be816f17cf60e0fbc","1601"," ","<p style=""font-size: 30px; color: red"">Attenzione! Sei stato troppo lento con questa parola.</p>
      <p style=""font-size: 30px; color: red"">Cerca di essere più veloce.</p><p></p><p>Premi la barra per continuare.</p>","","","","","","","",""
"html-keyboard-response","347","441654","0.0-16.0-0.13","5ee7b7c9eef92207297a0ad4","64afc2c9a8732ea92db0087d","64afd57be816f17cf60e0fbc","688","d","<p style=""font-size: 30px"">&emsp;</p><br><p style=""font-size: 60px; font-family: BACS"">DBlhGlu<p style=""font-size: 15px"">Premi <strong>k</strong> per sì, <strong>d</strong> per no.</p>","","DBlhGlu","testing","d","true","","",""
"html-keyboard-response","348","443095","0.0-16.0-0.14","5ee7b7c9eef92207297a0ad4","64afc2c9a8732ea92db0087d","64afd57be816f17cf60e0fbc","1441","d","<p style=""font-size: 30px"">&emsp;</p><br><p style=""font-size: 60px; font-family: BACS"">ALGZOtM<p style=""font-size: 15px"">Premi <strong>k</strong> per sì, <strong>d</strong> per no.</p>","","ALGZOtM","testing","d","true","","",""
"html-keyboard-response","349","444122","0.0-16.0-0.15","5ee7b7c9eef92207297a0ad4","64afc2c9a8732ea92db0087d","64afd57be816f17cf60e0fbc","1027","d","<p style=""font-size: 30px"">&emsp;</p><br><p style=""font-size: 60px; font-family: BACS"">JdOAYbRC<p style=""font-size: 15px"">Premi <strong>k</strong> per sì, <strong>d</strong> per no.</p>","","JdOAYbRC","testing","d","true","","",""
"html-keyboard-response","350","445179","0.0-16.0-0.16","5ee7b7c9eef92207297a0ad4","64afc2c9a8732ea92db0087d","64afd57be816f17cf60e0fbc","1056","d","<p style=""font-size: 30px"">&emsp;</p><br><p style=""font-size: 60px; font-family: BACS"">DdckvAvb<p style=""font-size: 15px"">Premi <strong>k</strong> per sì, <strong>d</strong> per no.</p>","","DdckvAvb","testing","d","true","","",""
"html-keyboard-response","351","445666","0.0-16.0-0.17","5ee7b7c9eef92207297a0ad4","64afc2c9a8732ea92db0087d","64afd57be816f17cf60e0fbc","487","k","<p style=""font-size: 30px"">&emsp;</p><br><p style=""font-size: 60px; font-family: BACS"">bYGOZOtM<p style=""font-size: 15px"">Premi <strong>k</strong> per sì, <strong>d</strong> per no.</p>","","bYGOZOtM","testing","d","false","","",""
"html-keyboard-response","352","446127","0.0-16.0-0.18","5ee7b7c9eef92207297a0ad4","64afc2c9a8732ea92db0087d","64afd57be816f17cf60e0fbc","461","k","<p style=""font-size: 30px"">&emsp;</p><br><p style=""font-size: 60px; font-family: BACS"">kCRmuda<p style=""font-size: 15px"">Premi <strong>k</strong> per sì, <strong>d</strong> per no.</p>","","kCRmuda","testing","d","false","","",""
"html-keyboard-response","353","446734","0.0-16.0-0.19","5ee7b7c9eef92207297a0ad4","64afc2c9a8732ea92db0087d","64afd57be816f17cf60e0fbc","606","d","<p style=""font-size: 30px"">&emsp;</p><br><p style=""font-size: 60px; font-family: BACS"">YQbcbRC<p style=""font-size: 15px"">Premi <strong>k</strong> per sì, <strong>d</strong> per no.</p>","","YQbcbRC","testing","d","true","","",""
"html-keyboard-response","354","448246","0.0-16.0-0.20","5ee7b7c9eef92207297a0ad4","64afc2c9a8732ea92db0087d","64afd57be816f17cf60e0fbc","1512","k","<p style=""font-size: 30px"">&emsp;</p><br><p style=""font-size: 60px; font-family: BACS"">JdOAYvAvb<p style=""font-size: 15px"">Premi <strong>k</strong> per sì, <strong>d</strong> per no.</p>","","JdOAYvAvb","testing","k","true","","",""
"html-keyboard-response","355","449527","0.0-16.0-0.21","5ee7b7c9eef92207297a0ad4","64afc2c9a8732ea92db0087d","64afd57be816f17cf60e0fbc","1280","d","<p style=""font-size: 30px"">&emsp;</p><br><p style=""font-size: 60px; font-family: BACS"">kbmZOlGc<p style=""font-size: 15px"">Premi <strong>k</strong> per sì, <strong>d</strong> per no.</p>","","kbmZOlGc","testing","k","false","","",""
"html-keyboard-response","356","450460","0.0-16.0-0.22","5ee7b7c9eef92207297a0ad4","64afc2c9a8732ea92db0087d","64afd57be816f17cf60e0fbc","932","d","<p style=""font-size: 30px"">&emsp;</p><br><p style=""font-size: 60px; font-family: BACS"">TEBKuvJ<p style=""font-size: 15px"">Premi <strong>k</strong> per sì, <strong>d</strong> per no.</p>","","TEBKuvJ","testing","d","true","","",""
"html-keyboard-response","357","451591","0.0-16.0-0.23","5ee7b7c9eef92207297a0ad4","64afc2c9a8732ea92db0087d","64afd57be816f17cf60e0fbc","1131","d","<p style=""font-size: 30px"">&emsp;</p><br><p style=""font-size: 60px; font-family: BACS"">bYGOZuda<p style=""font-size: 15px"">Premi <strong>k</strong> per sì, <strong>d</strong> per no.</p>","","bYGOZuda","testing","k","false","","",""
"html-keyboard-response","358","452515","0.0-16.0-0.24","5ee7b7c9eef92207297a0ad4","64afc2c9a8732ea92db0087d","64afd57be816f17cf60e0fbc","923","d","<p style=""font-size: 30px"">&emsp;</p><br><p style=""font-size: 60px; font-family: BACS"">BKDRYOtM<p style=""font-size: 15px"">Premi <strong>k</strong> per sì, <strong>d</strong> per no.</p>","","BKDRYOtM","testing","k","false","","",""
"html-keyboard-response","359","453771","0.0-16.0-0.25","5ee7b7c9eef92207297a0ad4","64afc2c9a8732ea92db0087d","64afd57be816f17cf60e0fbc","1257","d","<p style=""font-size: 30px"">&emsp;</p><br><p style=""font-size: 60px; font-family: BACS"">QbkAcBbM<p style=""font-size: 15px"">Premi <strong>k</strong> per sì, <strong>d</strong> per no.</p>","","QbkAcBbM","testing","d","true","","",""
"html-keyboard-response","360","455099","0.0-16.0-0.26","5ee7b7c9eef92207297a0ad4","64afc2c9a8732ea92db0087d","64afd57be816f17cf60e0fbc","1327","d","<p style=""font-size: 30px"">&emsp;</p><br><p style=""font-size: 60px; font-family: BACS"">DkTCPvAvb<p style=""font-size: 15px"">Premi <strong>k</strong> per sì, <strong>d</strong> per no.</p>","","DkTCPvAvb","testing","d","true","","",""
"html-keyboard-response","361","456124","0.0-16.0-0.27","5ee7b7c9eef92207297a0ad4","64afc2c9a8732ea92db0087d","64afd57be816f17cf60e0fbc","1025","d","<p style=""font-size: 30px"">&emsp;</p><br><p style=""font-size: 60px; font-family: BACS"">ALGZuda<p style=""font-size: 15px"">Premi <strong>k</strong> per sì, <strong>d</strong> per no.</p>","","ALGZuda","testing","k","false","","",""
"html-keyboard-response","362","456902","0.0-16.0-0.28","5ee7b7c9eef92207297a0ad4","64afc2c9a8732ea92db0087d","64afd57be816f17cf60e0fbc","778","k","<p style=""font-size: 30px"">&emsp;</p><br><p style=""font-size: 60px; font-family: BACS"">bcbMtRb<p style=""font-size: 15px"">Premi <strong>k</strong> per sì, <strong>d</strong> per no.</p>","","bcbMtRb","testing","k","true","","",""
"html-keyboard-response","363","457730","0.0-16.0-0.29","5ee7b7c9eef92207297a0ad4","64afc2c9a8732ea92db0087d","64afd57be816f17cf60e0fbc","827","d","<p style=""font-size: 30px"">&emsp;</p><br><p style=""font-size: 60px; font-family: BACS"">TEBKAlKD<p style=""font-size: 15px"">Premi <strong>k</strong> per sì, <strong>d</strong> per no.</p>","","TEBKAlKD","testing","k","false","","",""
"html-keyboard-response","364","458551","0.0-16.0-0.30","5ee7b7c9eef92207297a0ad4","64afc2c9a8732ea92db0087d","64afd57be816f17cf60e0fbc","821","k","<p style=""font-size: 30px"">&emsp;</p><br><p style=""font-size: 60px; font-family: BACS"">vYLUGlu<p style=""font-size: 15px"">Premi <strong>k</strong> per sì, <strong>d</strong> per no.</p>","","vYLUGlu","testing","k","true","","",""
"html-keyboard-response","365","459282","0.0-16.0-0.31","5ee7b7c9eef92207297a0ad4","64afc2c9a8732ea92db0087d","64afd57be816f17cf60e0fbc","730","d","<p style=""font-size: 30px"">&emsp;</p><br><p style=""font-size: 60px; font-family: BACS"">DcPTclGc<p style=""font-size: 15px"">Premi <strong>k</strong> per sì, <strong>d</strong> per no.</p>","","DcPTclGc","testing","d","true","","",""
"html-keyboard-response","366","460354","0.0-16.0-0.32","5ee7b7c9eef92207297a0ad4","64afc2c9a8732ea92db0087d","64afd57be816f17cf60e0fbc","1071","d","<p style=""font-size: 30px"">&emsp;</p><br><p style=""font-size: 60px; font-family: BACS"">DBlhtRb<p style=""font-size: 15px"">Premi <strong>k</strong> per sì, <strong>d</strong> per no.</p>","","DBlhtRb","testing","k","false","","",""
"html-keyboard-response","367","461402","0.0-16.0-0.33","5ee7b7c9eef92207297a0ad4","64afc2c9a8732ea92db0087d","64afd57be816f17cf60e0fbc","1048","d","<p style=""font-size: 30px"">&emsp;</p><br><p style=""font-size: 60px; font-family: BACS"">DcPTcBbM<p style=""font-size: 15px"">Premi <strong>k</strong> per sì, <strong>d</strong> per no.</p>","","DcPTcBbM","testing","k","false","","",""
"html-keyboard-response","368","462846","0.0-16.0-0.34","5ee7b7c9eef92207297a0ad4","64afc2c9a8732ea92db0087d","64afd57be816f17cf60e0fbc","1443","d","<p style=""font-size: 30px"">&emsp;</p><br><p style=""font-size: 60px; font-family: BACS"">AlQaQtRb<p style=""font-size: 15px"">Premi <strong>k</strong> per sì, <strong>d</strong> per no.</p>","","AlQaQtRb","testing","d","true","","",""
"html-keyboard-response","369","464166","0.0-16.0-0.35","5ee7b7c9eef92207297a0ad4","64afc2c9a8732ea92db0087d","64afd57be816f17cf60e0fbc","1320","d","<p style=""font-size: 30px"">&emsp;</p><br><p style=""font-size: 60px; font-family: BACS"">BKDRYuda<p style=""font-size: 15px"">Premi <strong>k</strong> per sì, <strong>d</strong> per no.</p>","","BKDRYuda","testing","d","true","","",""
"html-keyboard-response","370","464998","0.0-16.0-0.36","5ee7b7c9eef92207297a0ad4","64afc2c9a8732ea92db0087d","64afd57be816f17cf60e0fbc","831","k","<p style=""font-size: 30px"">&emsp;</p><br><p style=""font-size: 60px; font-family: BACS"">kCRmOtM<p style=""font-size: 15px"">Premi <strong>k</strong> per sì, <strong>d</strong> per no.</p>","","kCRmOtM","testing","k","true","","",""
"html-keyboard-response","371","465921","0.0-16.0-0.37","5ee7b7c9eef92207297a0ad4","64afc2c9a8732ea92db0087d","64afd57be816f17cf60e0fbc","922","k","<p style=""font-size: 30px"">&emsp;</p><br><p style=""font-size: 60px; font-family: BACS"">kbmZOBbM<p style=""font-size: 15px"">Premi <strong>k</strong> per sì, <strong>d</strong> per no.</p>","","kbmZOBbM","testing","d","false","","",""
"html-keyboard-response","372","466597","0.0-16.0-0.38","5ee7b7c9eef92207297a0ad4","64afc2c9a8732ea92db0087d","64afd57be816f17cf60e0fbc","675","k","<p style=""font-size: 30px"">&emsp;</p><br><p style=""font-size: 60px; font-family: BACS"">DdckbRC<p style=""font-size: 15px"">Premi <strong>k</strong> per sì, <strong>d</strong> per no.</p>","","DdckbRC","testing","k","true","","",""
