"trial_type","trial_index","time_elapsed","internal_node_id","subject_id","study_id","session_id","rt","response","stimulus","success","item","task","correct_response","testing_condition","correct","target","confound","name"
"pavlovia","0","816","0.0-0.0","5dcb33ab0550ef819f508abf","650c16f0f2faf8d7a0d14c09","651c1dae5a787e07d59a90e2","","","","","","","","","","","",""
"survey-html-form","1","334030","0.0-1.0","5dcb33ab0550ef819f508abf","650c16f0f2faf8d7a0d14c09","651c1dae5a787e07d59a90e2","333213","{""ID"":""5dcb33ab0550ef819f508abf""}","","","","","","","","","",""
"html-keyboard-response","2","343313","0.0-2.0","5dcb33ab0550ef819f508abf","650c16f0f2faf8d7a0d14c09","651c1dae5a787e07d59a90e2","9282"," ","<p style=""font-size: 15px;"">Before beginning, we ask that you read the consent information and confirm your agreement to participate in the experiment.</p>
      <p style=""font-size: 15px;""> We ask that you remember that this is a research project and that your participation is entirely voluntary. You can stop your participation at any time, without needing to provide any explanation. The study we're asking you to participate in aims at examining how readers process written words. You will be engaged in a session of apprximately 20 minutes, followed by a brief questionnaire. You will have the opportunity to take a few breaks during the experiment. You will be paid £4 for your participation, corresponding to a rate of £8/hour. While this experiment looks at cognitive faculties, this experiment doesn't constitute clinical proof of eventual pathologies.</p>
      <p style=""font-size: 15px;"">All of the information collected thanks to yours and others' participation will be held in a secure password-protected server, and will not be shared with anyone not authorised to view it. Your personal information will be kept with an arbitrary participant ID. Thanks to this data anonymity process, any researcher analysing the data won't be able to track the information back to a specific participant. Therefore, this process will make identifying you impossibile, even when results from the study will be published in scientific reviews, presented at congresses, or at any other public forum. More generally, the collected data will be treated in accordance with the laws on privacy and conformity to the Legislative Degree n. 196 ""Code regarding the protection of personal data"" of the 30th of June 2003 and to the European Regulation 2016/670 (General Data Protection Regulation - GDPR). The Data Protection Officer is Avv. Valentina Carollo, who can be contacted at the following email addresses: <a href=""mailto:dpo@sissa.it"">dpo@sissa.it</a> or <a href=""mailto:rpd@sissa.it"">rpd@sissa.it</a> - PEC: <a href=""mailto:protocollo@pec.sissa.it"">protocollo@pec.sissa.it</a>.</p>
      <p style=""font-size: 15px;""> Before expressing your consent to participate, we would like to remind you again that in case you need explanations on any aspect of the experimental procedure, the researcher is at your disposition (<a href=""mailto:aliebelt@sissa.it"">aliebelt@sissa.it</a>, <a href=""mailto:davide.crepaldi@sissa.it"">davide.crepaldi@sissa.it</a>).</p>
      <p style=""font-size: 15px;"">If you would like to download the informed consent form, you can do so here: <a href=""BASL-Informed_Consent.pdf"" download>informed consent form</a>.</p>
      <p style=""font-size: 15px;"">We ask that you press the spacebar to proceed to the consent section.</p>","","","","","","","","",""
"survey-html-form","3","348946","0.0-3.0","5dcb33ab0550ef819f508abf","650c16f0f2faf8d7a0d14c09","651c1dae5a787e07d59a90e2","5633","{""consent1"":""YES"",""consent2"":""YES"",""consent3"":""YES"",""consent4"":""YES"",""consent5"":""YES"",""consent6"":""YES""}","","","","","","","","","",""
"fullscreen","4","353424","0.0-4.0","5dcb33ab0550ef819f508abf","650c16f0f2faf8d7a0d14c09","651c1dae5a787e07d59a90e2","","","","true","","","","","","","",""
"html-keyboard-response","5","365360","0.0-5.0","5dcb33ab0550ef819f508abf","650c16f0f2faf8d7a0d14c09","651c1dae5a787e07d59a90e2","11936"," ","<p>Welcome, and thank you very much for your time!</p>
      <p>In this experiment, you'll be a language expert who's been asked to take a look at words that Earth has received in its first communication with aliens. Your task, in this first part of the experiment, is to pay close attention to the words you'll be shown; later, world leaders will ask you questions on what you saw. The words will be shown to you quite quickly; it seems that the aliens were in a hurry :-)</p>
      <p>Press the spacebar to continue.<p>","","","","","","","","",""
"html-keyboard-response","6","365413","0.0-6.0","5dcb33ab0550ef819f508abf","650c16f0f2faf8d7a0d14c09","651c1dae5a787e07d59a90e2","null","null","<p style=""font-size: 120px; font-family: BACS""> </p>","","","","","","","","",""
"html-keyboard-response","7","378358","0.0-7.0","5dcb33ab0550ef819f508abf","650c16f0f2faf8d7a0d14c09","651c1dae5a787e07d59a90e2","12944"," ","<p>Here is an example of the words you'll see:</p>
      <img src='esempio.png' height='400px'>
      <p>When you're ready to begin, press the spacebar.</p></div>","","","","","","","","",""
"html-keyboard-response","8","379372","0.0-8.0-0.0","5dcb33ab0550ef819f508abf","650c16f0f2faf8d7a0d14c09","651c1dae5a787e07d59a90e2","null","null","<p style=""font-size: 60px; font-family: BACS"">BdtACKEdl</p>","","","","","","","","",""
"html-keyboard-response","9","380386","0.0-8.0-0.1","5dcb33ab0550ef819f508abf","650c16f0f2faf8d7a0d14c09","651c1dae5a787e07d59a90e2","null","null","<p style=""font-size: 60px; font-family: BACS"">RlAKclMck</p>","","","","","","","","",""
"html-keyboard-response","10","381388","0.0-8.0-0.2","5dcb33ab0550ef819f508abf","650c16f0f2faf8d7a0d14c09","651c1dae5a787e07d59a90e2","null","null","<p style=""font-size: 60px; font-family: BACS"">GLYrAcbm</p>","","","","","","","","",""
"html-keyboard-response","11","382396","0.0-8.0-0.3","5dcb33ab0550ef819f508abf","650c16f0f2faf8d7a0d14c09","651c1dae5a787e07d59a90e2","null","null","<p style=""font-size: 60px; font-family: BACS"">auYAkOQAr</p>","","","","","","","","",""
"html-keyboard-response","12","383408","0.0-8.0-0.4","5dcb33ab0550ef819f508abf","650c16f0f2faf8d7a0d14c09","651c1dae5a787e07d59a90e2","null","null","<p style=""font-size: 60px; font-family: BACS"">mkmJNYZJO</p>","","","","","","","","",""
"html-keyboard-response","13","384410","0.0-8.0-0.5","5dcb33ab0550ef819f508abf","650c16f0f2faf8d7a0d14c09","651c1dae5a787e07d59a90e2","null","null","<p style=""font-size: 60px; font-family: BACS"">UmNJZAUu</p>","","","","","","","","",""
"html-keyboard-response","14","385420","0.0-8.0-0.6","5dcb33ab0550ef819f508abf","650c16f0f2faf8d7a0d14c09","651c1dae5a787e07d59a90e2","null","null","<p style=""font-size: 60px; font-family: BACS"">cAZucbm</p>","","","","","","","","",""
"html-keyboard-response","15","386429","0.0-8.0-0.7","5dcb33ab0550ef819f508abf","650c16f0f2faf8d7a0d14c09","651c1dae5a787e07d59a90e2","null","null","<p style=""font-size: 60px; font-family: BACS"">GLYrAZAUu</p>","","","","","","","","",""
"html-keyboard-response","16","387442","0.0-8.0-0.8","5dcb33ab0550ef819f508abf","650c16f0f2faf8d7a0d14c09","651c1dae5a787e07d59a90e2","null","null","<p style=""font-size: 60px; font-family: BACS"">cAZuYZJO</p>","","","","","","","","",""
"html-keyboard-response","17","388457","0.0-8.0-0.9","5dcb33ab0550ef819f508abf","650c16f0f2faf8d7a0d14c09","651c1dae5a787e07d59a90e2","null","null","<p style=""font-size: 60px; font-family: BACS"">bmdABKEdl</p>","","","","","","","","",""
"html-keyboard-response","18","389458","0.0-8.0-0.10","5dcb33ab0550ef819f508abf","650c16f0f2faf8d7a0d14c09","651c1dae5a787e07d59a90e2","null","null","<p style=""font-size: 60px; font-family: BACS"">dNZAdmkv</p>","","","","","","","","",""
"html-keyboard-response","19","390470","0.0-8.0-0.11","5dcb33ab0550ef819f508abf","650c16f0f2faf8d7a0d14c09","651c1dae5a787e07d59a90e2","null","null","<p style=""font-size: 60px; font-family: BACS"">dMThkKEdl</p>","","","","","","","","",""
"html-keyboard-response","20","391480","0.0-8.0-0.12","5dcb33ab0550ef819f508abf","650c16f0f2faf8d7a0d14c09","651c1dae5a787e07d59a90e2","null","null","<p style=""font-size: 60px; font-family: BACS"">bmdABEcR</p>","","","","","","","","",""
"html-keyboard-response","21","392485","0.0-8.0-0.13","5dcb33ab0550ef819f508abf","650c16f0f2faf8d7a0d14c09","651c1dae5a787e07d59a90e2","null","null","<p style=""font-size: 60px; font-family: BACS"">dMThkYcM</p>","","","","","","","","",""
"html-keyboard-response","22","393489","0.0-8.0-0.14","5dcb33ab0550ef819f508abf","650c16f0f2faf8d7a0d14c09","651c1dae5a787e07d59a90e2","null","null","<p style=""font-size: 60px; font-family: BACS"">mkmJNZAUu</p>","","","","","","","","",""
"html-keyboard-response","23","394499","0.0-8.0-0.15","5dcb33ab0550ef819f508abf","650c16f0f2faf8d7a0d14c09","651c1dae5a787e07d59a90e2","null","null","<p style=""font-size: 60px; font-family: BACS"">UmNJdmkv</p>","","","","","","","","",""
"html-keyboard-response","24","395514","0.0-8.0-0.16","5dcb33ab0550ef819f508abf","650c16f0f2faf8d7a0d14c09","651c1dae5a787e07d59a90e2","null","null","<p style=""font-size: 60px; font-family: BACS"">bmdABYcM</p>","","","","","","","","",""
"html-keyboard-response","25","396524","0.0-8.0-0.17","5dcb33ab0550ef819f508abf","650c16f0f2faf8d7a0d14c09","651c1dae5a787e07d59a90e2","null","null","<p style=""font-size: 60px; font-family: BACS"">NvYJYZJO</p>","","","","","","","","",""
"html-keyboard-response","26","397537","0.0-8.0-0.18","5dcb33ab0550ef819f508abf","650c16f0f2faf8d7a0d14c09","651c1dae5a787e07d59a90e2","null","null","<p style=""font-size: 60px; font-family: BACS"">auYAkcbm</p>","","","","","","","","",""
"html-keyboard-response","27","398543","0.0-8.0-0.19","5dcb33ab0550ef819f508abf","650c16f0f2faf8d7a0d14c09","651c1dae5a787e07d59a90e2","null","null","<p style=""font-size: 60px; font-family: BACS"">mkmJNdmkv</p>","","","","","","","","",""
"html-keyboard-response","28","399549","0.0-8.0-0.20","5dcb33ab0550ef819f508abf","650c16f0f2faf8d7a0d14c09","651c1dae5a787e07d59a90e2","null","null","<p style=""font-size: 60px; font-family: BACS"">dRhtEcR</p>","","","","","","","","",""
"html-keyboard-response","29","400561","0.0-8.0-0.21","5dcb33ab0550ef819f508abf","650c16f0f2faf8d7a0d14c09","651c1dae5a787e07d59a90e2","null","null","<p style=""font-size: 60px; font-family: BACS"">TklDRDM</p>","","","","","","","","",""
"html-keyboard-response","30","401572","0.0-8.0-0.22","5dcb33ab0550ef819f508abf","650c16f0f2faf8d7a0d14c09","651c1dae5a787e07d59a90e2","null","null","<p style=""font-size: 60px; font-family: BACS"">LckGNcbm</p>","","","","","","","","",""
"html-keyboard-response","31","402574","0.0-8.0-0.23","5dcb33ab0550ef819f508abf","650c16f0f2faf8d7a0d14c09","651c1dae5a787e07d59a90e2","null","null","<p style=""font-size: 60px; font-family: BACS"">dMThklMck</p>","","","","","","","","",""
"html-keyboard-response","32","403574","0.0-8.0-0.24","5dcb33ab0550ef819f508abf","650c16f0f2faf8d7a0d14c09","651c1dae5a787e07d59a90e2","null","null","<p style=""font-size: 60px; font-family: BACS"">dRhtRDM</p>","","","","","","","","",""
"html-keyboard-response","33","404585","0.0-8.0-0.25","5dcb33ab0550ef819f508abf","650c16f0f2faf8d7a0d14c09","651c1dae5a787e07d59a90e2","null","null","<p style=""font-size: 60px; font-family: BACS"">dMThkEcR</p>","","","","","","","","",""
"html-keyboard-response","34","405589","0.0-8.0-0.26","5dcb33ab0550ef819f508abf","650c16f0f2faf8d7a0d14c09","651c1dae5a787e07d59a90e2","null","null","<p style=""font-size: 60px; font-family: BACS"">NvYJcbm</p>","","","","","","","","",""
"html-keyboard-response","35","406599","0.0-8.0-0.27","5dcb33ab0550ef819f508abf","650c16f0f2faf8d7a0d14c09","651c1dae5a787e07d59a90e2","null","null","<p style=""font-size: 60px; font-family: BACS"">DhCPlMck</p>","","","","","","","","",""
"html-keyboard-response","36","407614","0.0-8.0-0.28","5dcb33ab0550ef819f508abf","650c16f0f2faf8d7a0d14c09","651c1dae5a787e07d59a90e2","null","null","<p style=""font-size: 60px; font-family: BACS"">GLYrAOQAr</p>","","","","","","","","",""
"html-keyboard-response","37","408623","0.0-8.0-0.29","5dcb33ab0550ef819f508abf","650c16f0f2faf8d7a0d14c09","651c1dae5a787e07d59a90e2","null","null","<p style=""font-size: 60px; font-family: BACS"">hYDmtEcR</p>","","","","","","","","",""
"html-keyboard-response","38","409627","0.0-8.0-0.30","5dcb33ab0550ef819f508abf","650c16f0f2faf8d7a0d14c09","651c1dae5a787e07d59a90e2","null","null","<p style=""font-size: 60px; font-family: BACS"">DhCPYcM</p>","","","","","","","","",""
"html-keyboard-response","39","410641","0.0-8.0-0.31","5dcb33ab0550ef819f508abf","650c16f0f2faf8d7a0d14c09","651c1dae5a787e07d59a90e2","null","null","<p style=""font-size: 60px; font-family: BACS"">lAOKMlMck</p>","","","","","","","","",""
"html-keyboard-response","40","411655","0.0-8.0-0.32","5dcb33ab0550ef819f508abf","650c16f0f2faf8d7a0d14c09","651c1dae5a787e07d59a90e2","null","null","<p style=""font-size: 60px; font-family: BACS"">UmNJcbm</p>","","","","","","","","",""
"html-keyboard-response","41","412665","0.0-8.0-0.33","5dcb33ab0550ef819f508abf","650c16f0f2faf8d7a0d14c09","651c1dae5a787e07d59a90e2","null","null","<p style=""font-size: 60px; font-family: BACS"">lAOKMYcM</p>","","","","","","","","",""
"html-keyboard-response","42","413674","0.0-8.0-0.34","5dcb33ab0550ef819f508abf","650c16f0f2faf8d7a0d14c09","651c1dae5a787e07d59a90e2","null","null","<p style=""font-size: 60px; font-family: BACS"">hYDmtRDM</p>","","","","","","","","",""
"html-keyboard-response","43","414688","0.0-8.0-0.35","5dcb33ab0550ef819f508abf","650c16f0f2faf8d7a0d14c09","651c1dae5a787e07d59a90e2","null","null","<p style=""font-size: 60px; font-family: BACS"">mkmJNcbm</p>","","","","","","","","",""
"html-keyboard-response","44","415690","0.0-8.0-0.36","5dcb33ab0550ef819f508abf","650c16f0f2faf8d7a0d14c09","651c1dae5a787e07d59a90e2","null","null","<p style=""font-size: 60px; font-family: BACS"">MlthlMck</p>","","","","","","","","",""
"html-keyboard-response","45","416701","0.0-8.0-0.37","5dcb33ab0550ef819f508abf","650c16f0f2faf8d7a0d14c09","651c1dae5a787e07d59a90e2","null","null","<p style=""font-size: 60px; font-family: BACS"">lAOKMRDM</p>","","","","","","","","",""
"html-keyboard-response","46","417717","0.0-8.0-0.38","5dcb33ab0550ef819f508abf","650c16f0f2faf8d7a0d14c09","651c1dae5a787e07d59a90e2","null","null","<p style=""font-size: 60px; font-family: BACS"">NvYJdmkv</p>","","","","","","","","",""
"html-keyboard-response","47","418729","0.0-8.0-0.39","5dcb33ab0550ef819f508abf","650c16f0f2faf8d7a0d14c09","651c1dae5a787e07d59a90e2","null","null","<p style=""font-size: 60px; font-family: BACS"">TklDlMck</p>","","","","","","","","",""
"html-keyboard-response","48","419738","0.0-8.0-0.40","5dcb33ab0550ef819f508abf","650c16f0f2faf8d7a0d14c09","651c1dae5a787e07d59a90e2","null","null","<p style=""font-size: 60px; font-family: BACS"">dNZAZAUu</p>","","","","","","","","",""
"html-keyboard-response","49","420749","0.0-8.0-0.41","5dcb33ab0550ef819f508abf","650c16f0f2faf8d7a0d14c09","651c1dae5a787e07d59a90e2","null","null","<p style=""font-size: 60px; font-family: BACS"">auYAkdmkv</p>","","","","","","","","",""
"html-keyboard-response","50","421751","0.0-8.0-0.42","5dcb33ab0550ef819f508abf","650c16f0f2faf8d7a0d14c09","651c1dae5a787e07d59a90e2","null","null","<p style=""font-size: 60px; font-family: BACS"">hYDmtYcM</p>","","","","","","","","",""
"html-keyboard-response","51","422761","0.0-8.0-0.43","5dcb33ab0550ef819f508abf","650c16f0f2faf8d7a0d14c09","651c1dae5a787e07d59a90e2","null","null","<p style=""font-size: 60px; font-family: BACS"">LckGNdmkv</p>","","","","","","","","",""
"html-keyboard-response","52","423772","0.0-8.0-0.44","5dcb33ab0550ef819f508abf","650c16f0f2faf8d7a0d14c09","651c1dae5a787e07d59a90e2","null","null","<p style=""font-size: 60px; font-family: BACS"">MlthRDM</p>","","","","","","","","",""
"html-keyboard-response","53","424781","0.0-8.0-0.45","5dcb33ab0550ef819f508abf","650c16f0f2faf8d7a0d14c09","651c1dae5a787e07d59a90e2","null","null","<p style=""font-size: 60px; font-family: BACS"">lAOKMKEdl</p>","","","","","","","","",""
"html-keyboard-response","54","425793","0.0-8.0-0.46","5dcb33ab0550ef819f508abf","650c16f0f2faf8d7a0d14c09","651c1dae5a787e07d59a90e2","null","null","<p style=""font-size: 60px; font-family: BACS"">rvUbZAUu</p>","","","","","","","","",""
"html-keyboard-response","55","426806","0.0-8.0-0.47","5dcb33ab0550ef819f508abf","650c16f0f2faf8d7a0d14c09","651c1dae5a787e07d59a90e2","null","null","<p style=""font-size: 60px; font-family: BACS"">dNZAcbm</p>","","","","","","","","",""
"html-keyboard-response","56","427819","0.0-8.0-0.48","5dcb33ab0550ef819f508abf","650c16f0f2faf8d7a0d14c09","651c1dae5a787e07d59a90e2","null","null","<p style=""font-size: 60px; font-family: BACS"">DhCPEcR</p>","","","","","","","","",""
"html-keyboard-response","57","428819","0.0-8.0-0.49","5dcb33ab0550ef819f508abf","650c16f0f2faf8d7a0d14c09","651c1dae5a787e07d59a90e2","null","null","<p style=""font-size: 60px; font-family: BACS"">lZcuOQAr</p>","","","","","","","","",""
"html-keyboard-response","58","429835","0.0-8.0-0.50","5dcb33ab0550ef819f508abf","650c16f0f2faf8d7a0d14c09","651c1dae5a787e07d59a90e2","null","null","<p style=""font-size: 60px; font-family: BACS"">DhCPKEdl</p>","","","","","","","","",""
"html-keyboard-response","59","430846","0.0-8.0-0.51","5dcb33ab0550ef819f508abf","650c16f0f2faf8d7a0d14c09","651c1dae5a787e07d59a90e2","null","null","<p style=""font-size: 60px; font-family: BACS"">bmdABRDM</p>","","","","","","","","",""
"html-keyboard-response","60","431854","0.0-8.0-0.52","5dcb33ab0550ef819f508abf","650c16f0f2faf8d7a0d14c09","651c1dae5a787e07d59a90e2","null","null","<p style=""font-size: 60px; font-family: BACS"">rvUbOQAr</p>","","","","","","","","",""
"html-keyboard-response","61","432861","0.0-8.0-0.53","5dcb33ab0550ef819f508abf","650c16f0f2faf8d7a0d14c09","651c1dae5a787e07d59a90e2","null","null","<p style=""font-size: 60px; font-family: BACS"">GLYrAYZJO</p>","","","","","","","","",""
"html-keyboard-response","62","433873","0.0-8.0-0.54","5dcb33ab0550ef819f508abf","650c16f0f2faf8d7a0d14c09","651c1dae5a787e07d59a90e2","null","null","<p style=""font-size: 60px; font-family: BACS"">TklDKEdl</p>","","","","","","","","",""
"html-keyboard-response","63","434873","0.0-8.0-0.55","5dcb33ab0550ef819f508abf","650c16f0f2faf8d7a0d14c09","651c1dae5a787e07d59a90e2","null","null","<p style=""font-size: 60px; font-family: BACS"">cAZuZAUu</p>","","","","","","","","",""
"html-keyboard-response","64","435887","0.0-8.0-0.56","5dcb33ab0550ef819f508abf","650c16f0f2faf8d7a0d14c09","651c1dae5a787e07d59a90e2","null","null","<p style=""font-size: 60px; font-family: BACS"">MlthEcR</p>","","","","","","","","",""
"html-keyboard-response","65","436895","0.0-8.0-0.57","5dcb33ab0550ef819f508abf","650c16f0f2faf8d7a0d14c09","651c1dae5a787e07d59a90e2","null","null","<p style=""font-size: 60px; font-family: BACS"">dNZAOQAr</p>","","","","","","","","",""
"html-keyboard-response","66","437897","0.0-8.0-0.58","5dcb33ab0550ef819f508abf","650c16f0f2faf8d7a0d14c09","651c1dae5a787e07d59a90e2","null","null","<p style=""font-size: 60px; font-family: BACS"">auYAkYZJO</p>","","","","","","","","",""
"html-keyboard-response","67","438911","0.0-8.0-0.59","5dcb33ab0550ef819f508abf","650c16f0f2faf8d7a0d14c09","651c1dae5a787e07d59a90e2","null","null","<p style=""font-size: 60px; font-family: BACS"">LckGNZAUu</p>","","","","","","","","",""
"html-keyboard-response","68","439913","0.0-8.0-0.60","5dcb33ab0550ef819f508abf","650c16f0f2faf8d7a0d14c09","651c1dae5a787e07d59a90e2","null","null","<p style=""font-size: 60px; font-family: BACS"">TklDEcR</p>","","","","","","","","",""
"html-keyboard-response","69","440924","0.0-8.0-0.61","5dcb33ab0550ef819f508abf","650c16f0f2faf8d7a0d14c09","651c1dae5a787e07d59a90e2","null","null","<p style=""font-size: 60px; font-family: BACS"">BdtAClMck</p>","","","","","","","","",""
"html-keyboard-response","70","441938","0.0-8.0-0.62","5dcb33ab0550ef819f508abf","650c16f0f2faf8d7a0d14c09","651c1dae5a787e07d59a90e2","null","null","<p style=""font-size: 60px; font-family: BACS"">cAZuOQAr</p>","","","","","","","","",""
"html-keyboard-response","71","442952","0.0-8.0-0.63","5dcb33ab0550ef819f508abf","650c16f0f2faf8d7a0d14c09","651c1dae5a787e07d59a90e2","null","null","<p style=""font-size: 60px; font-family: BACS"">lZcuYZJO</p>","","","","","","","","",""
"html-keyboard-response","72","443961","0.0-8.0-0.64","5dcb33ab0550ef819f508abf","650c16f0f2faf8d7a0d14c09","651c1dae5a787e07d59a90e2","null","null","<p style=""font-size: 60px; font-family: BACS"">RlAKcYcM</p>","","","","","","","","",""
"html-keyboard-response","73","444970","0.0-8.0-0.65","5dcb33ab0550ef819f508abf","650c16f0f2faf8d7a0d14c09","651c1dae5a787e07d59a90e2","null","null","<p style=""font-size: 60px; font-family: BACS"">hYDmtKEdl</p>","","","","","","","","",""
"html-keyboard-response","74","445983","0.0-8.0-0.66","5dcb33ab0550ef819f508abf","650c16f0f2faf8d7a0d14c09","651c1dae5a787e07d59a90e2","null","null","<p style=""font-size: 60px; font-family: BACS"">BdtACRDM</p>","","","","","","","","",""
"html-keyboard-response","75","446996","0.0-8.0-0.67","5dcb33ab0550ef819f508abf","650c16f0f2faf8d7a0d14c09","651c1dae5a787e07d59a90e2","null","null","<p style=""font-size: 60px; font-family: BACS"">rvUbdmkv</p>","","","","","","","","",""
"html-keyboard-response","76","448009","0.0-8.0-0.68","5dcb33ab0550ef819f508abf","650c16f0f2faf8d7a0d14c09","651c1dae5a787e07d59a90e2","null","null","<p style=""font-size: 60px; font-family: BACS"">dRhtKEdl</p>","","","","","","","","",""
"html-keyboard-response","77","449019","0.0-8.0-0.69","5dcb33ab0550ef819f508abf","650c16f0f2faf8d7a0d14c09","651c1dae5a787e07d59a90e2","null","null","<p style=""font-size: 60px; font-family: BACS"">MlthYcM</p>","","","","","","","","",""
"html-keyboard-response","78","450021","0.0-8.0-0.70","5dcb33ab0550ef819f508abf","650c16f0f2faf8d7a0d14c09","651c1dae5a787e07d59a90e2","null","null","<p style=""font-size: 60px; font-family: BACS"">dRhtlMck</p>","","","","","","","","",""
"html-keyboard-response","79","451035","0.0-8.0-0.71","5dcb33ab0550ef819f508abf","650c16f0f2faf8d7a0d14c09","651c1dae5a787e07d59a90e2","null","null","<p style=""font-size: 60px; font-family: BACS"">RlAKcEcR</p>","","","","","","","","",""
"html-keyboard-response","80","452048","0.0-8.0-0.72","5dcb33ab0550ef819f508abf","650c16f0f2faf8d7a0d14c09","651c1dae5a787e07d59a90e2","null","null","<p style=""font-size: 60px; font-family: BACS"">LckGNYZJO</p>","","","","","","","","",""
"html-keyboard-response","81","453059","0.0-8.0-0.73","5dcb33ab0550ef819f508abf","650c16f0f2faf8d7a0d14c09","651c1dae5a787e07d59a90e2","null","null","<p style=""font-size: 60px; font-family: BACS"">NvYJOQAr</p>","","","","","","","","",""
"html-keyboard-response","82","454061","0.0-8.0-0.74","5dcb33ab0550ef819f508abf","650c16f0f2faf8d7a0d14c09","651c1dae5a787e07d59a90e2","null","null","<p style=""font-size: 60px; font-family: BACS"">rvUbYZJO</p>","","","","","","","","",""
"html-keyboard-response","83","455076","0.0-8.0-0.75","5dcb33ab0550ef819f508abf","650c16f0f2faf8d7a0d14c09","651c1dae5a787e07d59a90e2","null","null","<p style=""font-size: 60px; font-family: BACS"">RlAKcRDM</p>","","","","","","","","",""
"html-keyboard-response","84","456082","0.0-8.0-0.76","5dcb33ab0550ef819f508abf","650c16f0f2faf8d7a0d14c09","651c1dae5a787e07d59a90e2","null","null","<p style=""font-size: 60px; font-family: BACS"">BdtACYcM</p>","","","","","","","","",""
"html-keyboard-response","85","457096","0.0-8.0-0.77","5dcb33ab0550ef819f508abf","650c16f0f2faf8d7a0d14c09","651c1dae5a787e07d59a90e2","null","null","<p style=""font-size: 60px; font-family: BACS"">lZcudmkv</p>","","","","","","","","",""
"html-keyboard-response","86","458110","0.0-8.0-0.78","5dcb33ab0550ef819f508abf","650c16f0f2faf8d7a0d14c09","651c1dae5a787e07d59a90e2","null","null","<p style=""font-size: 60px; font-family: BACS"">UmNJOQAr</p>","","","","","","","","",""
"html-keyboard-response","87","459112","0.0-8.0-0.79","5dcb33ab0550ef819f508abf","650c16f0f2faf8d7a0d14c09","651c1dae5a787e07d59a90e2","null","null","<p style=""font-size: 60px; font-family: BACS"">lZcuZAUu</p>","","","","","","","","",""
"html-keyboard-response","88","463214","0.0-9.0","5dcb33ab0550ef819f508abf","650c16f0f2faf8d7a0d14c09","651c1dae5a787e07d59a90e2","4102"," ","<p>Great, you've seen the first block of words. You may now take a short break.</p>
      <p>Press the spacebar when you're ready to continue.</p>","","","","","","","","",""
"html-keyboard-response","89","464221","0.0-10.0-0.0","5dcb33ab0550ef819f508abf","650c16f0f2faf8d7a0d14c09","651c1dae5a787e07d59a90e2","null","null","<p style=""font-size: 60px; font-family: BACS"">rvUbdmkv</p>","","","","","","","","",""
"html-keyboard-response","90","465236","0.0-10.0-0.1","5dcb33ab0550ef819f508abf","650c16f0f2faf8d7a0d14c09","651c1dae5a787e07d59a90e2","null","null","<p style=""font-size: 60px; font-family: BACS"">lAOKMRDM</p>","","","","","","","","",""
"html-keyboard-response","91","466250","0.0-10.0-0.2","5dcb33ab0550ef819f508abf","650c16f0f2faf8d7a0d14c09","651c1dae5a787e07d59a90e2","null","null","<p style=""font-size: 60px; font-family: BACS"">rvUbOQAr</p>","","","","","","","","",""
"html-keyboard-response","92","467264","0.0-10.0-0.3","5dcb33ab0550ef819f508abf","650c16f0f2faf8d7a0d14c09","651c1dae5a787e07d59a90e2","null","null","<p style=""font-size: 60px; font-family: BACS"">auYAkYZJO</p>","","","","","","","","",""
"html-keyboard-response","93","468266","0.0-10.0-0.4","5dcb33ab0550ef819f508abf","650c16f0f2faf8d7a0d14c09","651c1dae5a787e07d59a90e2","null","null","<p style=""font-size: 60px; font-family: BACS"">mkmJNcbm</p>","","","","","","","","",""
"html-keyboard-response","94","469277","0.0-10.0-0.5","5dcb33ab0550ef819f508abf","650c16f0f2faf8d7a0d14c09","651c1dae5a787e07d59a90e2","null","null","<p style=""font-size: 60px; font-family: BACS"">cAZuZAUu</p>","","","","","","","","",""
"html-keyboard-response","95","470289","0.0-10.0-0.6","5dcb33ab0550ef819f508abf","650c16f0f2faf8d7a0d14c09","651c1dae5a787e07d59a90e2","null","null","<p style=""font-size: 60px; font-family: BACS"">TklDEcR</p>","","","","","","","","",""
"html-keyboard-response","96","471301","0.0-10.0-0.7","5dcb33ab0550ef819f508abf","650c16f0f2faf8d7a0d14c09","651c1dae5a787e07d59a90e2","null","null","<p style=""font-size: 60px; font-family: BACS"">RlAKcRDM</p>","","","","","","","","",""
"html-keyboard-response","97","472316","0.0-10.0-0.8","5dcb33ab0550ef819f508abf","650c16f0f2faf8d7a0d14c09","651c1dae5a787e07d59a90e2","null","null","<p style=""font-size: 60px; font-family: BACS"">hYDmtKEdl</p>","","","","","","","","",""
"html-keyboard-response","98","473318","0.0-10.0-0.9","5dcb33ab0550ef819f508abf","650c16f0f2faf8d7a0d14c09","651c1dae5a787e07d59a90e2","null","null","<p style=""font-size: 60px; font-family: BACS"">cAZuYZJO</p>","","","","","","","","",""
"html-keyboard-response","99","474333","0.0-10.0-0.10","5dcb33ab0550ef819f508abf","650c16f0f2faf8d7a0d14c09","651c1dae5a787e07d59a90e2","null","null","<p style=""font-size: 60px; font-family: BACS"">lZcudmkv</p>","","","","","","","","",""
"html-keyboard-response","100","475343","0.0-10.0-0.11","5dcb33ab0550ef819f508abf","650c16f0f2faf8d7a0d14c09","651c1dae5a787e07d59a90e2","null","null","<p style=""font-size: 60px; font-family: BACS"">RlAKcYcM</p>","","","","","","","","",""
"html-keyboard-response","101","476351","0.0-10.0-0.12","5dcb33ab0550ef819f508abf","650c16f0f2faf8d7a0d14c09","651c1dae5a787e07d59a90e2","null","null","<p style=""font-size: 60px; font-family: BACS"">TklDRDM</p>","","","","","","","","",""
"html-keyboard-response","102","477356","0.0-10.0-0.13","5dcb33ab0550ef819f508abf","650c16f0f2faf8d7a0d14c09","651c1dae5a787e07d59a90e2","null","null","<p style=""font-size: 60px; font-family: BACS"">cAZucbm</p>","","","","","","","","",""
"html-keyboard-response","103","478367","0.0-10.0-0.14","5dcb33ab0550ef819f508abf","650c16f0f2faf8d7a0d14c09","651c1dae5a787e07d59a90e2","null","null","<p style=""font-size: 60px; font-family: BACS"">dMThklMck</p>","","","","","","","","",""
"html-keyboard-response","104","479367","0.0-10.0-0.15","5dcb33ab0550ef819f508abf","650c16f0f2faf8d7a0d14c09","651c1dae5a787e07d59a90e2","null","null","<p style=""font-size: 60px; font-family: BACS"">NvYJcbm</p>","","","","","","","","",""
"html-keyboard-response","105","480377","0.0-10.0-0.16","5dcb33ab0550ef819f508abf","650c16f0f2faf8d7a0d14c09","651c1dae5a787e07d59a90e2","null","null","<p style=""font-size: 60px; font-family: BACS"">lZcuZAUu</p>","","","","","","","","",""
"html-keyboard-response","106","481388","0.0-10.0-0.17","5dcb33ab0550ef819f508abf","650c16f0f2faf8d7a0d14c09","651c1dae5a787e07d59a90e2","null","null","<p style=""font-size: 60px; font-family: BACS"">NvYJOQAr</p>","","","","","","","","",""
"html-keyboard-response","107","482391","0.0-10.0-0.18","5dcb33ab0550ef819f508abf","650c16f0f2faf8d7a0d14c09","651c1dae5a787e07d59a90e2","null","null","<p style=""font-size: 60px; font-family: BACS"">UmNJcbm</p>","","","","","","","","",""
"html-keyboard-response","108","483405","0.0-10.0-0.19","5dcb33ab0550ef819f508abf","650c16f0f2faf8d7a0d14c09","651c1dae5a787e07d59a90e2","null","null","<p style=""font-size: 60px; font-family: BACS"">dMThkEcR</p>","","","","","","","","",""
"html-keyboard-response","109","484415","0.0-10.0-0.20","5dcb33ab0550ef819f508abf","650c16f0f2faf8d7a0d14c09","651c1dae5a787e07d59a90e2","null","null","<p style=""font-size: 60px; font-family: BACS"">bmdABRDM</p>","","","","","","","","",""
"html-keyboard-response","110","485427","0.0-10.0-0.21","5dcb33ab0550ef819f508abf","650c16f0f2faf8d7a0d14c09","651c1dae5a787e07d59a90e2","null","null","<p style=""font-size: 60px; font-family: BACS"">NvYJdmkv</p>","","","","","","","","",""
"html-keyboard-response","111","486429","0.0-10.0-0.22","5dcb33ab0550ef819f508abf","650c16f0f2faf8d7a0d14c09","651c1dae5a787e07d59a90e2","null","null","<p style=""font-size: 60px; font-family: BACS"">hYDmtRDM</p>","","","","","","","","",""
"html-keyboard-response","112","487439","0.0-10.0-0.23","5dcb33ab0550ef819f508abf","650c16f0f2faf8d7a0d14c09","651c1dae5a787e07d59a90e2","null","null","<p style=""font-size: 60px; font-family: BACS"">RlAKcEcR</p>","","","","","","","","",""
"html-keyboard-response","113","488454","0.0-10.0-0.24","5dcb33ab0550ef819f508abf","650c16f0f2faf8d7a0d14c09","651c1dae5a787e07d59a90e2","null","null","<p style=""font-size: 60px; font-family: BACS"">TklDKEdl</p>","","","","","","","","",""
"html-keyboard-response","114","489463","0.0-10.0-0.25","5dcb33ab0550ef819f508abf","650c16f0f2faf8d7a0d14c09","651c1dae5a787e07d59a90e2","null","null","<p style=""font-size: 60px; font-family: BACS"">dRhtRDM</p>","","","","","","","","",""
"html-keyboard-response","115","490469","0.0-10.0-0.26","5dcb33ab0550ef819f508abf","650c16f0f2faf8d7a0d14c09","651c1dae5a787e07d59a90e2","null","null","<p style=""font-size: 60px; font-family: BACS"">bmdABKEdl</p>","","","","","","","","",""
"html-keyboard-response","116","491482","0.0-10.0-0.27","5dcb33ab0550ef819f508abf","650c16f0f2faf8d7a0d14c09","651c1dae5a787e07d59a90e2","null","null","<p style=""font-size: 60px; font-family: BACS"">UmNJdmkv</p>","","","","","","","","",""
"html-keyboard-response","117","492495","0.0-10.0-0.28","5dcb33ab0550ef819f508abf","650c16f0f2faf8d7a0d14c09","651c1dae5a787e07d59a90e2","null","null","<p style=""font-size: 60px; font-family: BACS"">dNZAcbm</p>","","","","","","","","",""
"html-keyboard-response","118","493511","0.0-10.0-0.29","5dcb33ab0550ef819f508abf","650c16f0f2faf8d7a0d14c09","651c1dae5a787e07d59a90e2","null","null","<p style=""font-size: 60px; font-family: BACS"">auYAkOQAr</p>","","","","","","","","",""
"html-keyboard-response","119","494523","0.0-10.0-0.30","5dcb33ab0550ef819f508abf","650c16f0f2faf8d7a0d14c09","651c1dae5a787e07d59a90e2","null","null","<p style=""font-size: 60px; font-family: BACS"">lAOKMlMck</p>","","","","","","","","",""
"html-keyboard-response","120","495537","0.0-10.0-0.31","5dcb33ab0550ef819f508abf","650c16f0f2faf8d7a0d14c09","651c1dae5a787e07d59a90e2","null","null","<p style=""font-size: 60px; font-family: BACS"">MlthYcM</p>","","","","","","","","",""
"html-keyboard-response","121","496548","0.0-10.0-0.32","5dcb33ab0550ef819f508abf","650c16f0f2faf8d7a0d14c09","651c1dae5a787e07d59a90e2","null","null","<p style=""font-size: 60px; font-family: BACS"">LckGNcbm</p>","","","","","","","","",""
"html-keyboard-response","122","497560","0.0-10.0-0.33","5dcb33ab0550ef819f508abf","650c16f0f2faf8d7a0d14c09","651c1dae5a787e07d59a90e2","null","null","<p style=""font-size: 60px; font-family: BACS"">RlAKclMck</p>","","","","","","","","",""
"html-keyboard-response","123","498573","0.0-10.0-0.34","5dcb33ab0550ef819f508abf","650c16f0f2faf8d7a0d14c09","651c1dae5a787e07d59a90e2","null","null","<p style=""font-size: 60px; font-family: BACS"">mkmJNZAUu</p>","","","","","","","","",""
"html-keyboard-response","124","499585","0.0-10.0-0.35","5dcb33ab0550ef819f508abf","650c16f0f2faf8d7a0d14c09","651c1dae5a787e07d59a90e2","null","null","<p style=""font-size: 60px; font-family: BACS"">UmNJOQAr</p>","","","","","","","","",""
"html-keyboard-response","125","500595","0.0-10.0-0.36","5dcb33ab0550ef819f508abf","650c16f0f2faf8d7a0d14c09","651c1dae5a787e07d59a90e2","null","null","<p style=""font-size: 60px; font-family: BACS"">auYAkcbm</p>","","","","","","","","",""
"html-keyboard-response","126","501608","0.0-10.0-0.37","5dcb33ab0550ef819f508abf","650c16f0f2faf8d7a0d14c09","651c1dae5a787e07d59a90e2","null","null","<p style=""font-size: 60px; font-family: BACS"">hYDmtYcM</p>","","","","","","","","",""
"html-keyboard-response","127","502619","0.0-10.0-0.38","5dcb33ab0550ef819f508abf","650c16f0f2faf8d7a0d14c09","651c1dae5a787e07d59a90e2","null","null","<p style=""font-size: 60px; font-family: BACS"">cAZuOQAr</p>","","","","","","","","",""
"html-keyboard-response","128","503626","0.0-10.0-0.39","5dcb33ab0550ef819f508abf","650c16f0f2faf8d7a0d14c09","651c1dae5a787e07d59a90e2","null","null","<p style=""font-size: 60px; font-family: BACS"">BdtACRDM</p>","","","","","","","","",""
"html-keyboard-response","129","504638","0.0-10.0-0.40","5dcb33ab0550ef819f508abf","650c16f0f2faf8d7a0d14c09","651c1dae5a787e07d59a90e2","null","null","<p style=""font-size: 60px; font-family: BACS"">MlthlMck</p>","","","","","","","","",""
"html-keyboard-response","130","505652","0.0-10.0-0.41","5dcb33ab0550ef819f508abf","650c16f0f2faf8d7a0d14c09","651c1dae5a787e07d59a90e2","null","null","<p style=""font-size: 60px; font-family: BACS"">dMThkKEdl</p>","","","","","","","","",""
"html-keyboard-response","131","506662","0.0-10.0-0.42","5dcb33ab0550ef819f508abf","650c16f0f2faf8d7a0d14c09","651c1dae5a787e07d59a90e2","null","null","<p style=""font-size: 60px; font-family: BACS"">lZcuOQAr</p>","","","","","","","","",""
"html-keyboard-response","132","507675","0.0-10.0-0.43","5dcb33ab0550ef819f508abf","650c16f0f2faf8d7a0d14c09","651c1dae5a787e07d59a90e2","null","null","<p style=""font-size: 60px; font-family: BACS"">NvYJYZJO</p>","","","","","","","","",""
"html-keyboard-response","133","508677","0.0-10.0-0.44","5dcb33ab0550ef819f508abf","650c16f0f2faf8d7a0d14c09","651c1dae5a787e07d59a90e2","null","null","<p style=""font-size: 60px; font-family: BACS"">bmdABEcR</p>","","","","","","","","",""
"html-keyboard-response","134","509692","0.0-10.0-0.45","5dcb33ab0550ef819f508abf","650c16f0f2faf8d7a0d14c09","651c1dae5a787e07d59a90e2","null","null","<p style=""font-size: 60px; font-family: BACS"">LckGNdmkv</p>","","","","","","","","",""
"html-keyboard-response","135","510704","0.0-10.0-0.46","5dcb33ab0550ef819f508abf","650c16f0f2faf8d7a0d14c09","651c1dae5a787e07d59a90e2","null","null","<p style=""font-size: 60px; font-family: BACS"">DhCPlMck</p>","","","","","","","","",""
"html-keyboard-response","136","511707","0.0-10.0-0.47","5dcb33ab0550ef819f508abf","650c16f0f2faf8d7a0d14c09","651c1dae5a787e07d59a90e2","null","null","<p style=""font-size: 60px; font-family: BACS"">dNZAZAUu</p>","","","","","","","","",""
"html-keyboard-response","137","512708","0.0-10.0-0.48","5dcb33ab0550ef819f508abf","650c16f0f2faf8d7a0d14c09","651c1dae5a787e07d59a90e2","null","null","<p style=""font-size: 60px; font-family: BACS"">mkmJNYZJO</p>","","","","","","","","",""
"html-keyboard-response","138","513723","0.0-10.0-0.49","5dcb33ab0550ef819f508abf","650c16f0f2faf8d7a0d14c09","651c1dae5a787e07d59a90e2","null","null","<p style=""font-size: 60px; font-family: BACS"">bmdABYcM</p>","","","","","","","","",""
"html-keyboard-response","139","514729","0.0-10.0-0.50","5dcb33ab0550ef819f508abf","650c16f0f2faf8d7a0d14c09","651c1dae5a787e07d59a90e2","null","null","<p style=""font-size: 60px; font-family: BACS"">MlthRDM</p>","","","","","","","","",""
"html-keyboard-response","140","515742","0.0-10.0-0.51","5dcb33ab0550ef819f508abf","650c16f0f2faf8d7a0d14c09","651c1dae5a787e07d59a90e2","null","null","<p style=""font-size: 60px; font-family: BACS"">dNZAdmkv</p>","","","","","","","","",""
"html-keyboard-response","141","516754","0.0-10.0-0.52","5dcb33ab0550ef819f508abf","650c16f0f2faf8d7a0d14c09","651c1dae5a787e07d59a90e2","null","null","<p style=""font-size: 60px; font-family: BACS"">rvUbZAUu</p>","","","","","","","","",""
"html-keyboard-response","142","517764","0.0-10.0-0.53","5dcb33ab0550ef819f508abf","650c16f0f2faf8d7a0d14c09","651c1dae5a787e07d59a90e2","null","null","<p style=""font-size: 60px; font-family: BACS"">DhCPEcR</p>","","","","","","","","",""
"html-keyboard-response","143","518777","0.0-10.0-0.54","5dcb33ab0550ef819f508abf","650c16f0f2faf8d7a0d14c09","651c1dae5a787e07d59a90e2","null","null","<p style=""font-size: 60px; font-family: BACS"">lAOKMKEdl</p>","","","","","","","","",""
"html-keyboard-response","144","519786","0.0-10.0-0.55","5dcb33ab0550ef819f508abf","650c16f0f2faf8d7a0d14c09","651c1dae5a787e07d59a90e2","null","null","<p style=""font-size: 60px; font-family: BACS"">DhCPYcM</p>","","","","","","","","",""
"html-keyboard-response","145","520800","0.0-10.0-0.56","5dcb33ab0550ef819f508abf","650c16f0f2faf8d7a0d14c09","651c1dae5a787e07d59a90e2","null","null","<p style=""font-size: 60px; font-family: BACS"">GLYrAOQAr</p>","","","","","","","","",""
"html-keyboard-response","146","521809","0.0-10.0-0.57","5dcb33ab0550ef819f508abf","650c16f0f2faf8d7a0d14c09","651c1dae5a787e07d59a90e2","null","null","<p style=""font-size: 60px; font-family: BACS"">dMThkYcM</p>","","","","","","","","",""
"html-keyboard-response","147","522823","0.0-10.0-0.58","5dcb33ab0550ef819f508abf","650c16f0f2faf8d7a0d14c09","651c1dae5a787e07d59a90e2","null","null","<p style=""font-size: 60px; font-family: BACS"">rvUbYZJO</p>","","","","","","","","",""
"html-keyboard-response","148","523836","0.0-10.0-0.59","5dcb33ab0550ef819f508abf","650c16f0f2faf8d7a0d14c09","651c1dae5a787e07d59a90e2","null","null","<p style=""font-size: 60px; font-family: BACS"">MlthEcR</p>","","","","","","","","",""
"html-keyboard-response","149","524851","0.0-10.0-0.60","5dcb33ab0550ef819f508abf","650c16f0f2faf8d7a0d14c09","651c1dae5a787e07d59a90e2","null","null","<p style=""font-size: 60px; font-family: BACS"">lAOKMYcM</p>","","","","","","","","",""
"html-keyboard-response","150","525863","0.0-10.0-0.61","5dcb33ab0550ef819f508abf","650c16f0f2faf8d7a0d14c09","651c1dae5a787e07d59a90e2","null","null","<p style=""font-size: 60px; font-family: BACS"">GLYrAYZJO</p>","","","","","","","","",""
"html-keyboard-response","151","526875","0.0-10.0-0.62","5dcb33ab0550ef819f508abf","650c16f0f2faf8d7a0d14c09","651c1dae5a787e07d59a90e2","null","null","<p style=""font-size: 60px; font-family: BACS"">UmNJZAUu</p>","","","","","","","","",""
"html-keyboard-response","152","527887","0.0-10.0-0.63","5dcb33ab0550ef819f508abf","650c16f0f2faf8d7a0d14c09","651c1dae5a787e07d59a90e2","null","null","<p style=""font-size: 60px; font-family: BACS"">dRhtlMck</p>","","","","","","","","",""
"html-keyboard-response","153","528898","0.0-10.0-0.64","5dcb33ab0550ef819f508abf","650c16f0f2faf8d7a0d14c09","651c1dae5a787e07d59a90e2","null","null","<p style=""font-size: 60px; font-family: BACS"">GLYrAZAUu</p>","","","","","","","","",""
"html-keyboard-response","154","529912","0.0-10.0-0.65","5dcb33ab0550ef819f508abf","650c16f0f2faf8d7a0d14c09","651c1dae5a787e07d59a90e2","null","null","<p style=""font-size: 60px; font-family: BACS"">DhCPKEdl</p>","","","","","","","","",""
"html-keyboard-response","155","530924","0.0-10.0-0.66","5dcb33ab0550ef819f508abf","650c16f0f2faf8d7a0d14c09","651c1dae5a787e07d59a90e2","null","null","<p style=""font-size: 60px; font-family: BACS"">GLYrAcbm</p>","","","","","","","","",""
"html-keyboard-response","156","531937","0.0-10.0-0.67","5dcb33ab0550ef819f508abf","650c16f0f2faf8d7a0d14c09","651c1dae5a787e07d59a90e2","null","null","<p style=""font-size: 60px; font-family: BACS"">dRhtKEdl</p>","","","","","","","","",""
"html-keyboard-response","157","532951","0.0-10.0-0.68","5dcb33ab0550ef819f508abf","650c16f0f2faf8d7a0d14c09","651c1dae5a787e07d59a90e2","null","null","<p style=""font-size: 60px; font-family: BACS"">BdtAClMck</p>","","","","","","","","",""
"html-keyboard-response","158","533961","0.0-10.0-0.69","5dcb33ab0550ef819f508abf","650c16f0f2faf8d7a0d14c09","651c1dae5a787e07d59a90e2","null","null","<p style=""font-size: 60px; font-family: BACS"">lZcuYZJO</p>","","","","","","","","",""
"html-keyboard-response","159","534964","0.0-10.0-0.70","5dcb33ab0550ef819f508abf","650c16f0f2faf8d7a0d14c09","651c1dae5a787e07d59a90e2","null","null","<p style=""font-size: 60px; font-family: BACS"">auYAkdmkv</p>","","","","","","","","",""
"html-keyboard-response","160","535967","0.0-10.0-0.71","5dcb33ab0550ef819f508abf","650c16f0f2faf8d7a0d14c09","651c1dae5a787e07d59a90e2","null","null","<p style=""font-size: 60px; font-family: BACS"">BdtACKEdl</p>","","","","","","","","",""
"html-keyboard-response","161","536980","0.0-10.0-0.72","5dcb33ab0550ef819f508abf","650c16f0f2faf8d7a0d14c09","651c1dae5a787e07d59a90e2","null","null","<p style=""font-size: 60px; font-family: BACS"">dNZAOQAr</p>","","","","","","","","",""
"html-keyboard-response","162","537989","0.0-10.0-0.73","5dcb33ab0550ef819f508abf","650c16f0f2faf8d7a0d14c09","651c1dae5a787e07d59a90e2","null","null","<p style=""font-size: 60px; font-family: BACS"">dRhtEcR</p>","","","","","","","","",""
"html-keyboard-response","163","539004","0.0-10.0-0.74","5dcb33ab0550ef819f508abf","650c16f0f2faf8d7a0d14c09","651c1dae5a787e07d59a90e2","null","null","<p style=""font-size: 60px; font-family: BACS"">LckGNYZJO</p>","","","","","","","","",""
"html-keyboard-response","164","540018","0.0-10.0-0.75","5dcb33ab0550ef819f508abf","650c16f0f2faf8d7a0d14c09","651c1dae5a787e07d59a90e2","null","null","<p style=""font-size: 60px; font-family: BACS"">BdtACYcM</p>","","","","","","","","",""
"html-keyboard-response","165","541032","0.0-10.0-0.76","5dcb33ab0550ef819f508abf","650c16f0f2faf8d7a0d14c09","651c1dae5a787e07d59a90e2","null","null","<p style=""font-size: 60px; font-family: BACS"">LckGNZAUu</p>","","","","","","","","",""
"html-keyboard-response","166","542040","0.0-10.0-0.77","5dcb33ab0550ef819f508abf","650c16f0f2faf8d7a0d14c09","651c1dae5a787e07d59a90e2","null","null","<p style=""font-size: 60px; font-family: BACS"">mkmJNdmkv</p>","","","","","","","","",""
"html-keyboard-response","167","543040","0.0-10.0-0.78","5dcb33ab0550ef819f508abf","650c16f0f2faf8d7a0d14c09","651c1dae5a787e07d59a90e2","null","null","<p style=""font-size: 60px; font-family: BACS"">hYDmtEcR</p>","","","","","","","","",""
"html-keyboard-response","168","544056","0.0-10.0-0.79","5dcb33ab0550ef819f508abf","650c16f0f2faf8d7a0d14c09","651c1dae5a787e07d59a90e2","null","null","<p style=""font-size: 60px; font-family: BACS"">TklDlMck</p>","","","","","","","","",""
"html-keyboard-response","169","549213","0.0-11.0","5dcb33ab0550ef819f508abf","650c16f0f2faf8d7a0d14c09","651c1dae5a787e07d59a90e2","5157"," ","<p>Great, you've seen the second block of words. You may now take a short break.</p>
      <p>Press the spacebar when you're ready to continue.</p>","","","","","","","","",""
"html-keyboard-response","170","550229","0.0-12.0-0.0","5dcb33ab0550ef819f508abf","650c16f0f2faf8d7a0d14c09","651c1dae5a787e07d59a90e2","null","null","<p style=""font-size: 60px; font-family: BACS"">auYAkYZJO</p>","","","","","","","","",""
"html-keyboard-response","171","551238","0.0-12.0-0.1","5dcb33ab0550ef819f508abf","650c16f0f2faf8d7a0d14c09","651c1dae5a787e07d59a90e2","null","null","<p style=""font-size: 60px; font-family: BACS"">GLYrAcbm</p>","","","","","","","","",""
"html-keyboard-response","172","552250","0.0-12.0-0.2","5dcb33ab0550ef819f508abf","650c16f0f2faf8d7a0d14c09","651c1dae5a787e07d59a90e2","null","null","<p style=""font-size: 60px; font-family: BACS"">dNZAdmkv</p>","","","","","","","","",""
"html-keyboard-response","173","553266","0.0-12.0-0.3","5dcb33ab0550ef819f508abf","650c16f0f2faf8d7a0d14c09","651c1dae5a787e07d59a90e2","null","null","<p style=""font-size: 60px; font-family: BACS"">hYDmtRDM</p>","","","","","","","","",""
"html-keyboard-response","174","554280","0.0-12.0-0.4","5dcb33ab0550ef819f508abf","650c16f0f2faf8d7a0d14c09","651c1dae5a787e07d59a90e2","null","null","<p style=""font-size: 60px; font-family: BACS"">lZcuYZJO</p>","","","","","","","","",""
"html-keyboard-response","175","555294","0.0-12.0-0.5","5dcb33ab0550ef819f508abf","650c16f0f2faf8d7a0d14c09","651c1dae5a787e07d59a90e2","null","null","<p style=""font-size: 60px; font-family: BACS"">cAZuOQAr</p>","","","","","","","","",""
"html-keyboard-response","176","556307","0.0-12.0-0.6","5dcb33ab0550ef819f508abf","650c16f0f2faf8d7a0d14c09","651c1dae5a787e07d59a90e2","null","null","<p style=""font-size: 60px; font-family: BACS"">lAOKMRDM</p>","","","","","","","","",""
"html-keyboard-response","177","557318","0.0-12.0-0.7","5dcb33ab0550ef819f508abf","650c16f0f2faf8d7a0d14c09","651c1dae5a787e07d59a90e2","null","null","<p style=""font-size: 60px; font-family: BACS"">NvYJOQAr</p>","","","","","","","","",""
"html-keyboard-response","178","558333","0.0-12.0-0.8","5dcb33ab0550ef819f508abf","650c16f0f2faf8d7a0d14c09","651c1dae5a787e07d59a90e2","null","null","<p style=""font-size: 60px; font-family: BACS"">cAZuZAUu</p>","","","","","","","","",""
"html-keyboard-response","179","559344","0.0-12.0-0.9","5dcb33ab0550ef819f508abf","650c16f0f2faf8d7a0d14c09","651c1dae5a787e07d59a90e2","null","null","<p style=""font-size: 60px; font-family: BACS"">bmdABRDM</p>","","","","","","","","",""
"html-keyboard-response","180","560345","0.0-12.0-0.10","5dcb33ab0550ef819f508abf","650c16f0f2faf8d7a0d14c09","651c1dae5a787e07d59a90e2","null","null","<p style=""font-size: 60px; font-family: BACS"">RlAKclMck</p>","","","","","","","","",""
"html-keyboard-response","181","561359","0.0-12.0-0.11","5dcb33ab0550ef819f508abf","650c16f0f2faf8d7a0d14c09","651c1dae5a787e07d59a90e2","null","null","<p style=""font-size: 60px; font-family: BACS"">cAZuYZJO</p>","","","","","","","","",""
"html-keyboard-response","182","562361","0.0-12.0-0.12","5dcb33ab0550ef819f508abf","650c16f0f2faf8d7a0d14c09","651c1dae5a787e07d59a90e2","null","null","<p style=""font-size: 60px; font-family: BACS"">dNZAZAUu</p>","","","","","","","","",""
"html-keyboard-response","183","563375","0.0-12.0-0.13","5dcb33ab0550ef819f508abf","650c16f0f2faf8d7a0d14c09","651c1dae5a787e07d59a90e2","null","null","<p style=""font-size: 60px; font-family: BACS"">mkmJNdmkv</p>","","","","","","","","",""
"html-keyboard-response","184","564380","0.0-12.0-0.14","5dcb33ab0550ef819f508abf","650c16f0f2faf8d7a0d14c09","651c1dae5a787e07d59a90e2","null","null","<p style=""font-size: 60px; font-family: BACS"">BdtACRDM</p>","","","","","","","","",""
"html-keyboard-response","185","565393","0.0-12.0-0.15","5dcb33ab0550ef819f508abf","650c16f0f2faf8d7a0d14c09","651c1dae5a787e07d59a90e2","null","null","<p style=""font-size: 60px; font-family: BACS"">rvUbYZJO</p>","","","","","","","","",""
"html-keyboard-response","186","566406","0.0-12.0-0.16","5dcb33ab0550ef819f508abf","650c16f0f2faf8d7a0d14c09","651c1dae5a787e07d59a90e2","null","null","<p style=""font-size: 60px; font-family: BACS"">auYAkOQAr</p>","","","","","","","","",""
"html-keyboard-response","187","567417","0.0-12.0-0.17","5dcb33ab0550ef819f508abf","650c16f0f2faf8d7a0d14c09","651c1dae5a787e07d59a90e2","null","null","<p style=""font-size: 60px; font-family: BACS"">NvYJcbm</p>","","","","","","","","",""
"html-keyboard-response","188","568430","0.0-12.0-0.18","5dcb33ab0550ef819f508abf","650c16f0f2faf8d7a0d14c09","651c1dae5a787e07d59a90e2","null","null","<p style=""font-size: 60px; font-family: BACS"">TklDKEdl</p>","","","","","","","","",""
"html-keyboard-response","189","569445","0.0-12.0-0.19","5dcb33ab0550ef819f508abf","650c16f0f2faf8d7a0d14c09","651c1dae5a787e07d59a90e2","null","null","<p style=""font-size: 60px; font-family: BACS"">BdtACYcM</p>","","","","","","","","",""
"html-keyboard-response","190","570460","0.0-12.0-0.20","5dcb33ab0550ef819f508abf","650c16f0f2faf8d7a0d14c09","651c1dae5a787e07d59a90e2","null","null","<p style=""font-size: 60px; font-family: BACS"">bmdABEcR</p>","","","","","","","","",""
"html-keyboard-response","191","571468","0.0-12.0-0.21","5dcb33ab0550ef819f508abf","650c16f0f2faf8d7a0d14c09","651c1dae5a787e07d59a90e2","null","null","<p style=""font-size: 60px; font-family: BACS"">DhCPYcM</p>","","","","","","","","",""
"html-keyboard-response","192","572483","0.0-12.0-0.22","5dcb33ab0550ef819f508abf","650c16f0f2faf8d7a0d14c09","651c1dae5a787e07d59a90e2","null","null","<p style=""font-size: 60px; font-family: BACS"">auYAkcbm</p>","","","","","","","","",""
"html-keyboard-response","193","573492","0.0-12.0-0.23","5dcb33ab0550ef819f508abf","650c16f0f2faf8d7a0d14c09","651c1dae5a787e07d59a90e2","null","null","<p style=""font-size: 60px; font-family: BACS"">MlthlMck</p>","","","","","","","","",""
"html-keyboard-response","194","574503","0.0-12.0-0.24","5dcb33ab0550ef819f508abf","650c16f0f2faf8d7a0d14c09","651c1dae5a787e07d59a90e2","null","null","<p style=""font-size: 60px; font-family: BACS"">auYAkdmkv</p>","","","","","","","","",""
"html-keyboard-response","195","575507","0.0-12.0-0.25","5dcb33ab0550ef819f508abf","650c16f0f2faf8d7a0d14c09","651c1dae5a787e07d59a90e2","null","null","<p style=""font-size: 60px; font-family: BACS"">dRhtEcR</p>","","","","","","","","",""
"html-keyboard-response","196","576519","0.0-12.0-0.26","5dcb33ab0550ef819f508abf","650c16f0f2faf8d7a0d14c09","651c1dae5a787e07d59a90e2","null","null","<p style=""font-size: 60px; font-family: BACS"">BdtAClMck</p>","","","","","","","","",""
"html-keyboard-response","197","577534","0.0-12.0-0.27","5dcb33ab0550ef819f508abf","650c16f0f2faf8d7a0d14c09","651c1dae5a787e07d59a90e2","null","null","<p style=""font-size: 60px; font-family: BACS"">mkmJNcbm</p>","","","","","","","","",""
"html-keyboard-response","198","578546","0.0-12.0-0.28","5dcb33ab0550ef819f508abf","650c16f0f2faf8d7a0d14c09","651c1dae5a787e07d59a90e2","null","null","<p style=""font-size: 60px; font-family: BACS"">TklDEcR</p>","","","","","","","","",""
"html-keyboard-response","199","579557","0.0-12.0-0.29","5dcb33ab0550ef819f508abf","650c16f0f2faf8d7a0d14c09","651c1dae5a787e07d59a90e2","null","null","<p style=""font-size: 60px; font-family: BACS"">dRhtlMck</p>","","","","","","","","",""
"html-keyboard-response","200","580571","0.0-12.0-0.30","5dcb33ab0550ef819f508abf","650c16f0f2faf8d7a0d14c09","651c1dae5a787e07d59a90e2","null","null","<p style=""font-size: 60px; font-family: BACS"">MlthRDM</p>","","","","","","","","",""
"html-keyboard-response","201","581579","0.0-12.0-0.31","5dcb33ab0550ef819f508abf","650c16f0f2faf8d7a0d14c09","651c1dae5a787e07d59a90e2","null","null","<p style=""font-size: 60px; font-family: BACS"">GLYrAYZJO</p>","","","","","","","","",""
"html-keyboard-response","202","582587","0.0-12.0-0.32","5dcb33ab0550ef819f508abf","650c16f0f2faf8d7a0d14c09","651c1dae5a787e07d59a90e2","null","null","<p style=""font-size: 60px; font-family: BACS"">lZcudmkv</p>","","","","","","","","",""
"html-keyboard-response","203","583600","0.0-12.0-0.33","5dcb33ab0550ef819f508abf","650c16f0f2faf8d7a0d14c09","651c1dae5a787e07d59a90e2","null","null","<p style=""font-size: 60px; font-family: BACS"">LckGNcbm</p>","","","","","","","","",""
"html-keyboard-response","204","584602","0.0-12.0-0.34","5dcb33ab0550ef819f508abf","650c16f0f2faf8d7a0d14c09","651c1dae5a787e07d59a90e2","null","null","<p style=""font-size: 60px; font-family: BACS"">bmdABYcM</p>","","","","","","","","",""
"html-keyboard-response","205","585613","0.0-12.0-0.35","5dcb33ab0550ef819f508abf","650c16f0f2faf8d7a0d14c09","651c1dae5a787e07d59a90e2","null","null","<p style=""font-size: 60px; font-family: BACS"">mkmJNYZJO</p>","","","","","","","","",""
"html-keyboard-response","206","586627","0.0-12.0-0.36","5dcb33ab0550ef819f508abf","650c16f0f2faf8d7a0d14c09","651c1dae5a787e07d59a90e2","null","null","<p style=""font-size: 60px; font-family: BACS"">lAOKMKEdl</p>","","","","","","","","",""
"html-keyboard-response","207","587638","0.0-12.0-0.37","5dcb33ab0550ef819f508abf","650c16f0f2faf8d7a0d14c09","651c1dae5a787e07d59a90e2","null","null","<p style=""font-size: 60px; font-family: BACS"">TklDlMck</p>","","","","","","","","",""
"html-keyboard-response","208","588652","0.0-12.0-0.38","5dcb33ab0550ef819f508abf","650c16f0f2faf8d7a0d14c09","651c1dae5a787e07d59a90e2","null","null","<p style=""font-size: 60px; font-family: BACS"">hYDmtKEdl</p>","","","","","","","","",""
"html-keyboard-response","209","589653","0.0-12.0-0.39","5dcb33ab0550ef819f508abf","650c16f0f2faf8d7a0d14c09","651c1dae5a787e07d59a90e2","null","null","<p style=""font-size: 60px; font-family: BACS"">dMThkEcR</p>","","","","","","","","",""
"html-keyboard-response","210","590666","0.0-12.0-0.40","5dcb33ab0550ef819f508abf","650c16f0f2faf8d7a0d14c09","651c1dae5a787e07d59a90e2","null","null","<p style=""font-size: 60px; font-family: BACS"">DhCPKEdl</p>","","","","","","","","",""
"html-keyboard-response","211","591675","0.0-12.0-0.41","5dcb33ab0550ef819f508abf","650c16f0f2faf8d7a0d14c09","651c1dae5a787e07d59a90e2","null","null","<p style=""font-size: 60px; font-family: BACS"">LckGNdmkv</p>","","","","","","","","",""
"html-keyboard-response","212","592683","0.0-12.0-0.42","5dcb33ab0550ef819f508abf","650c16f0f2faf8d7a0d14c09","651c1dae5a787e07d59a90e2","null","null","<p style=""font-size: 60px; font-family: BACS"">mkmJNZAUu</p>","","","","","","","","",""
"html-keyboard-response","213","593689","0.0-12.0-0.43","5dcb33ab0550ef819f508abf","650c16f0f2faf8d7a0d14c09","651c1dae5a787e07d59a90e2","null","null","<p style=""font-size: 60px; font-family: BACS"">GLYrAOQAr</p>","","","","","","","","",""
"html-keyboard-response","214","594703","0.0-12.0-0.44","5dcb33ab0550ef819f508abf","650c16f0f2faf8d7a0d14c09","651c1dae5a787e07d59a90e2","null","null","<p style=""font-size: 60px; font-family: BACS"">dMThklMck</p>","","","","","","","","",""
"html-keyboard-response","215","595714","0.0-12.0-0.45","5dcb33ab0550ef819f508abf","650c16f0f2faf8d7a0d14c09","651c1dae5a787e07d59a90e2","null","null","<p style=""font-size: 60px; font-family: BACS"">rvUbZAUu</p>","","","","","","","","",""
"html-keyboard-response","216","596727","0.0-12.0-0.46","5dcb33ab0550ef819f508abf","650c16f0f2faf8d7a0d14c09","651c1dae5a787e07d59a90e2","null","null","<p style=""font-size: 60px; font-family: BACS"">BdtACKEdl</p>","","","","","","","","",""
"html-keyboard-response","217","597739","0.0-12.0-0.47","5dcb33ab0550ef819f508abf","650c16f0f2faf8d7a0d14c09","651c1dae5a787e07d59a90e2","null","null","<p style=""font-size: 60px; font-family: BACS"">NvYJYZJO</p>","","","","","","","","",""
"html-keyboard-response","218","598740","0.0-12.0-0.48","5dcb33ab0550ef819f508abf","650c16f0f2faf8d7a0d14c09","651c1dae5a787e07d59a90e2","null","null","<p style=""font-size: 60px; font-family: BACS"">RlAKcYcM</p>","","","","","","","","",""
"html-keyboard-response","219","599751","0.0-12.0-0.49","5dcb33ab0550ef819f508abf","650c16f0f2faf8d7a0d14c09","651c1dae5a787e07d59a90e2","null","null","<p style=""font-size: 60px; font-family: BACS"">dNZAOQAr</p>","","","","","","","","",""
"html-keyboard-response","220","600760","0.0-12.0-0.50","5dcb33ab0550ef819f508abf","650c16f0f2faf8d7a0d14c09","651c1dae5a787e07d59a90e2","null","null","<p style=""font-size: 60px; font-family: BACS"">hYDmtYcM</p>","","","","","","","","",""
"html-keyboard-response","221","601766","0.0-12.0-0.51","5dcb33ab0550ef819f508abf","650c16f0f2faf8d7a0d14c09","651c1dae5a787e07d59a90e2","null","null","<p style=""font-size: 60px; font-family: BACS"">rvUbOQAr</p>","","","","","","","","",""
"html-keyboard-response","222","602778","0.0-12.0-0.52","5dcb33ab0550ef819f508abf","650c16f0f2faf8d7a0d14c09","651c1dae5a787e07d59a90e2","null","null","<p style=""font-size: 60px; font-family: BACS"">dMThkKEdl</p>","","","","","","","","",""
"html-keyboard-response","223","603780","0.0-12.0-0.53","5dcb33ab0550ef819f508abf","650c16f0f2faf8d7a0d14c09","651c1dae5a787e07d59a90e2","null","null","<p style=""font-size: 60px; font-family: BACS"">MlthEcR</p>","","","","","","","","",""
"html-keyboard-response","224","604792","0.0-12.0-0.54","5dcb33ab0550ef819f508abf","650c16f0f2faf8d7a0d14c09","651c1dae5a787e07d59a90e2","null","null","<p style=""font-size: 60px; font-family: BACS"">dMThkYcM</p>","","","","","","","","",""
"html-keyboard-response","225","605807","0.0-12.0-0.55","5dcb33ab0550ef819f508abf","650c16f0f2faf8d7a0d14c09","651c1dae5a787e07d59a90e2","null","null","<p style=""font-size: 60px; font-family: BACS"">lZcuOQAr</p>","","","","","","","","",""
"html-keyboard-response","226","606818","0.0-12.0-0.56","5dcb33ab0550ef819f508abf","650c16f0f2faf8d7a0d14c09","651c1dae5a787e07d59a90e2","null","null","<p style=""font-size: 60px; font-family: BACS"">TklDRDM</p>","","","","","","","","",""
"html-keyboard-response","227","607824","0.0-12.0-0.57","5dcb33ab0550ef819f508abf","650c16f0f2faf8d7a0d14c09","651c1dae5a787e07d59a90e2","null","null","<p style=""font-size: 60px; font-family: BACS"">rvUbdmkv</p>","","","","","","","","",""
"html-keyboard-response","228","608828","0.0-12.0-0.58","5dcb33ab0550ef819f508abf","650c16f0f2faf8d7a0d14c09","651c1dae5a787e07d59a90e2","null","null","<p style=""font-size: 60px; font-family: BACS"">UmNJcbm</p>","","","","","","","","",""
"html-keyboard-response","229","609838","0.0-12.0-0.59","5dcb33ab0550ef819f508abf","650c16f0f2faf8d7a0d14c09","651c1dae5a787e07d59a90e2","null","null","<p style=""font-size: 60px; font-family: BACS"">MlthYcM</p>","","","","","","","","",""
"html-keyboard-response","230","610852","0.0-12.0-0.60","5dcb33ab0550ef819f508abf","650c16f0f2faf8d7a0d14c09","651c1dae5a787e07d59a90e2","null","null","<p style=""font-size: 60px; font-family: BACS"">NvYJdmkv</p>","","","","","","","","",""
"html-keyboard-response","231","611861","0.0-12.0-0.61","5dcb33ab0550ef819f508abf","650c16f0f2faf8d7a0d14c09","651c1dae5a787e07d59a90e2","null","null","<p style=""font-size: 60px; font-family: BACS"">lZcuZAUu</p>","","","","","","","","",""
"html-keyboard-response","232","612875","0.0-12.0-0.62","5dcb33ab0550ef819f508abf","650c16f0f2faf8d7a0d14c09","651c1dae5a787e07d59a90e2","null","null","<p style=""font-size: 60px; font-family: BACS"">cAZucbm</p>","","","","","","","","",""
"html-keyboard-response","233","613889","0.0-12.0-0.63","5dcb33ab0550ef819f508abf","650c16f0f2faf8d7a0d14c09","651c1dae5a787e07d59a90e2","null","null","<p style=""font-size: 60px; font-family: BACS"">bmdABKEdl</p>","","","","","","","","",""
"html-keyboard-response","234","614903","0.0-12.0-0.64","5dcb33ab0550ef819f508abf","650c16f0f2faf8d7a0d14c09","651c1dae5a787e07d59a90e2","null","null","<p style=""font-size: 60px; font-family: BACS"">RlAKcRDM</p>","","","","","","","","",""
"html-keyboard-response","235","615915","0.0-12.0-0.65","5dcb33ab0550ef819f508abf","650c16f0f2faf8d7a0d14c09","651c1dae5a787e07d59a90e2","null","null","<p style=""font-size: 60px; font-family: BACS"">DhCPlMck</p>","","","","","","","","",""
"html-keyboard-response","236","616922","0.0-12.0-0.66","5dcb33ab0550ef819f508abf","650c16f0f2faf8d7a0d14c09","651c1dae5a787e07d59a90e2","null","null","<p style=""font-size: 60px; font-family: BACS"">UmNJdmkv</p>","","","","","","","","",""
"html-keyboard-response","237","617938","0.0-12.0-0.67","5dcb33ab0550ef819f508abf","650c16f0f2faf8d7a0d14c09","651c1dae5a787e07d59a90e2","null","null","<p style=""font-size: 60px; font-family: BACS"">GLYrAZAUu</p>","","","","","","","","",""
"html-keyboard-response","238","618953","0.0-12.0-0.68","5dcb33ab0550ef819f508abf","650c16f0f2faf8d7a0d14c09","651c1dae5a787e07d59a90e2","null","null","<p style=""font-size: 60px; font-family: BACS"">dNZAcbm</p>","","","","","","","","",""
"html-keyboard-response","239","619955","0.0-12.0-0.69","5dcb33ab0550ef819f508abf","650c16f0f2faf8d7a0d14c09","651c1dae5a787e07d59a90e2","null","null","<p style=""font-size: 60px; font-family: BACS"">LckGNZAUu</p>","","","","","","","","",""
"html-keyboard-response","240","620956","0.0-12.0-0.70","5dcb33ab0550ef819f508abf","650c16f0f2faf8d7a0d14c09","651c1dae5a787e07d59a90e2","null","null","<p style=""font-size: 60px; font-family: BACS"">dRhtRDM</p>","","","","","","","","",""
"html-keyboard-response","241","621964","0.0-12.0-0.71","5dcb33ab0550ef819f508abf","650c16f0f2faf8d7a0d14c09","651c1dae5a787e07d59a90e2","null","null","<p style=""font-size: 60px; font-family: BACS"">UmNJOQAr</p>","","","","","","","","",""
"html-keyboard-response","242","622973","0.0-12.0-0.72","5dcb33ab0550ef819f508abf","650c16f0f2faf8d7a0d14c09","651c1dae5a787e07d59a90e2","null","null","<p style=""font-size: 60px; font-family: BACS"">lAOKMYcM</p>","","","","","","","","",""
"html-keyboard-response","243","623982","0.0-12.0-0.73","5dcb33ab0550ef819f508abf","650c16f0f2faf8d7a0d14c09","651c1dae5a787e07d59a90e2","null","null","<p style=""font-size: 60px; font-family: BACS"">dRhtKEdl</p>","","","","","","","","",""
"html-keyboard-response","244","624993","0.0-12.0-0.74","5dcb33ab0550ef819f508abf","650c16f0f2faf8d7a0d14c09","651c1dae5a787e07d59a90e2","null","null","<p style=""font-size: 60px; font-family: BACS"">hYDmtEcR</p>","","","","","","","","",""
"html-keyboard-response","245","626007","0.0-12.0-0.75","5dcb33ab0550ef819f508abf","650c16f0f2faf8d7a0d14c09","651c1dae5a787e07d59a90e2","null","null","<p style=""font-size: 60px; font-family: BACS"">lAOKMlMck</p>","","","","","","","","",""
"html-keyboard-response","246","627020","0.0-12.0-0.76","5dcb33ab0550ef819f508abf","650c16f0f2faf8d7a0d14c09","651c1dae5a787e07d59a90e2","null","null","<p style=""font-size: 60px; font-family: BACS"">UmNJZAUu</p>","","","","","","","","",""
"html-keyboard-response","247","628031","0.0-12.0-0.77","5dcb33ab0550ef819f508abf","650c16f0f2faf8d7a0d14c09","651c1dae5a787e07d59a90e2","null","null","<p style=""font-size: 60px; font-family: BACS"">DhCPEcR</p>","","","","","","","","",""
"html-keyboard-response","248","629045","0.0-12.0-0.78","5dcb33ab0550ef819f508abf","650c16f0f2faf8d7a0d14c09","651c1dae5a787e07d59a90e2","null","null","<p style=""font-size: 60px; font-family: BACS"">LckGNYZJO</p>","","","","","","","","",""
"html-keyboard-response","249","630060","0.0-12.0-0.79","5dcb33ab0550ef819f508abf","650c16f0f2faf8d7a0d14c09","651c1dae5a787e07d59a90e2","null","null","<p style=""font-size: 60px; font-family: BACS"">RlAKcEcR</p>","","","","","","","","",""
"html-keyboard-response","250","632610","0.0-13.0","5dcb33ab0550ef819f508abf","650c16f0f2faf8d7a0d14c09","651c1dae5a787e07d59a90e2","2549"," ","<p>Great, you've seen the third block of words. You may now take a short break.</p>
      <p>Press the spacebar when you're ready to continue.</p>","","","","","","","","",""
"html-keyboard-response","251","633611","0.0-14.0-0.0","5dcb33ab0550ef819f508abf","650c16f0f2faf8d7a0d14c09","651c1dae5a787e07d59a90e2","null","null","<p style=""font-size: 60px; font-family: BACS"">cAZuZAUu</p>","","","","","","","","",""
"html-keyboard-response","252","634614","0.0-14.0-0.1","5dcb33ab0550ef819f508abf","650c16f0f2faf8d7a0d14c09","651c1dae5a787e07d59a90e2","null","null","<p style=""font-size: 60px; font-family: BACS"">RlAKcRDM</p>","","","","","","","","",""
"html-keyboard-response","253","635627","0.0-14.0-0.2","5dcb33ab0550ef819f508abf","650c16f0f2faf8d7a0d14c09","651c1dae5a787e07d59a90e2","null","null","<p style=""font-size: 60px; font-family: BACS"">LckGNZAUu</p>","","","","","","","","",""
"html-keyboard-response","254","636637","0.0-14.0-0.3","5dcb33ab0550ef819f508abf","650c16f0f2faf8d7a0d14c09","651c1dae5a787e07d59a90e2","null","null","<p style=""font-size: 60px; font-family: BACS"">hYDmtRDM</p>","","","","","","","","",""
"html-keyboard-response","255","637639","0.0-14.0-0.4","5dcb33ab0550ef819f508abf","650c16f0f2faf8d7a0d14c09","651c1dae5a787e07d59a90e2","null","null","<p style=""font-size: 60px; font-family: BACS"">LckGNdmkv</p>","","","","","","","","",""
"html-keyboard-response","256","638647","0.0-14.0-0.5","5dcb33ab0550ef819f508abf","650c16f0f2faf8d7a0d14c09","651c1dae5a787e07d59a90e2","null","null","<p style=""font-size: 60px; font-family: BACS"">rvUbZAUu</p>","","","","","","","","",""
"html-keyboard-response","257","639660","0.0-14.0-0.6","5dcb33ab0550ef819f508abf","650c16f0f2faf8d7a0d14c09","651c1dae5a787e07d59a90e2","null","null","<p style=""font-size: 60px; font-family: BACS"">GLYrAcbm</p>","","","","","","","","",""
"html-keyboard-response","258","640668","0.0-14.0-0.7","5dcb33ab0550ef819f508abf","650c16f0f2faf8d7a0d14c09","651c1dae5a787e07d59a90e2","null","null","<p style=""font-size: 60px; font-family: BACS"">MlthlMck</p>","","","","","","","","",""
"html-keyboard-response","259","641682","0.0-14.0-0.8","5dcb33ab0550ef819f508abf","650c16f0f2faf8d7a0d14c09","651c1dae5a787e07d59a90e2","null","null","<p style=""font-size: 60px; font-family: BACS"">rvUbdmkv</p>","","","","","","","","",""
"html-keyboard-response","260","642694","0.0-14.0-0.9","5dcb33ab0550ef819f508abf","650c16f0f2faf8d7a0d14c09","651c1dae5a787e07d59a90e2","null","null","<p style=""font-size: 60px; font-family: BACS"">TklDRDM</p>","","","","","","","","",""
"html-keyboard-response","261","643708","0.0-14.0-0.10","5dcb33ab0550ef819f508abf","650c16f0f2faf8d7a0d14c09","651c1dae5a787e07d59a90e2","null","null","<p style=""font-size: 60px; font-family: BACS"">NvYJdmkv</p>","","","","","","","","",""
"html-keyboard-response","262","644720","0.0-14.0-0.11","5dcb33ab0550ef819f508abf","650c16f0f2faf8d7a0d14c09","651c1dae5a787e07d59a90e2","null","null","<p style=""font-size: 60px; font-family: BACS"">TklDKEdl</p>","","","","","","","","",""
"html-keyboard-response","263","645721","0.0-14.0-0.12","5dcb33ab0550ef819f508abf","650c16f0f2faf8d7a0d14c09","651c1dae5a787e07d59a90e2","null","null","<p style=""font-size: 60px; font-family: BACS"">dNZAZAUu</p>","","","","","","","","",""
"html-keyboard-response","264","646736","0.0-14.0-0.13","5dcb33ab0550ef819f508abf","650c16f0f2faf8d7a0d14c09","651c1dae5a787e07d59a90e2","null","null","<p style=""font-size: 60px; font-family: BACS"">LckGNYZJO</p>","","","","","","","","",""
"html-keyboard-response","265","647747","0.0-14.0-0.14","5dcb33ab0550ef819f508abf","650c16f0f2faf8d7a0d14c09","651c1dae5a787e07d59a90e2","null","null","<p style=""font-size: 60px; font-family: BACS"">lAOKMlMck</p>","","","","","","","","",""
"html-keyboard-response","266","648761","0.0-14.0-0.15","5dcb33ab0550ef819f508abf","650c16f0f2faf8d7a0d14c09","651c1dae5a787e07d59a90e2","null","null","<p style=""font-size: 60px; font-family: BACS"">auYAkOQAr</p>","","","","","","","","",""
"html-keyboard-response","267","649772","0.0-14.0-0.16","5dcb33ab0550ef819f508abf","650c16f0f2faf8d7a0d14c09","651c1dae5a787e07d59a90e2","null","null","<p style=""font-size: 60px; font-family: BACS"">NvYJcbm</p>","","","","","","","","",""
"html-keyboard-response","268","650786","0.0-14.0-0.17","5dcb33ab0550ef819f508abf","650c16f0f2faf8d7a0d14c09","651c1dae5a787e07d59a90e2","null","null","<p style=""font-size: 60px; font-family: BACS"">hYDmtEcR</p>","","","","","","","","",""
"html-keyboard-response","269","651799","0.0-14.0-0.18","5dcb33ab0550ef819f508abf","650c16f0f2faf8d7a0d14c09","651c1dae5a787e07d59a90e2","null","null","<p style=""font-size: 60px; font-family: BACS"">cAZucbm</p>","","","","","","","","",""
"html-keyboard-response","270","652814","0.0-14.0-0.19","5dcb33ab0550ef819f508abf","650c16f0f2faf8d7a0d14c09","651c1dae5a787e07d59a90e2","null","null","<p style=""font-size: 60px; font-family: BACS"">NvYJOQAr</p>","","","","","","","","",""
"html-keyboard-response","271","653827","0.0-14.0-0.20","5dcb33ab0550ef819f508abf","650c16f0f2faf8d7a0d14c09","651c1dae5a787e07d59a90e2","null","null","<p style=""font-size: 60px; font-family: BACS"">MlthYcM</p>","","","","","","","","",""
"html-keyboard-response","272","654840","0.0-14.0-0.21","5dcb33ab0550ef819f508abf","650c16f0f2faf8d7a0d14c09","651c1dae5a787e07d59a90e2","null","null","<p style=""font-size: 60px; font-family: BACS"">dRhtlMck</p>","","","","","","","","",""
"html-keyboard-response","273","655852","0.0-14.0-0.22","5dcb33ab0550ef819f508abf","650c16f0f2faf8d7a0d14c09","651c1dae5a787e07d59a90e2","null","null","<p style=""font-size: 60px; font-family: BACS"">mkmJNYZJO</p>","","","","","","","","",""
"html-keyboard-response","274","656861","0.0-14.0-0.23","5dcb33ab0550ef819f508abf","650c16f0f2faf8d7a0d14c09","651c1dae5a787e07d59a90e2","null","null","<p style=""font-size: 60px; font-family: BACS"">TklDlMck</p>","","","","","","","","",""
"html-keyboard-response","275","657863","0.0-14.0-0.24","5dcb33ab0550ef819f508abf","650c16f0f2faf8d7a0d14c09","651c1dae5a787e07d59a90e2","null","null","<p style=""font-size: 60px; font-family: BACS"">lZcuYZJO</p>","","","","","","","","",""
"html-keyboard-response","276","658873","0.0-14.0-0.25","5dcb33ab0550ef819f508abf","650c16f0f2faf8d7a0d14c09","651c1dae5a787e07d59a90e2","null","null","<p style=""font-size: 60px; font-family: BACS"">dRhtKEdl</p>","","","","","","","","",""
"html-keyboard-response","277","659887","0.0-14.0-0.26","5dcb33ab0550ef819f508abf","650c16f0f2faf8d7a0d14c09","651c1dae5a787e07d59a90e2","null","null","<p style=""font-size: 60px; font-family: BACS"">rvUbYZJO</p>","","","","","","","","",""
"html-keyboard-response","278","660899","0.0-14.0-0.27","5dcb33ab0550ef819f508abf","650c16f0f2faf8d7a0d14c09","651c1dae5a787e07d59a90e2","null","null","<p style=""font-size: 60px; font-family: BACS"">hYDmtKEdl</p>","","","","","","","","",""
"html-keyboard-response","279","661914","0.0-14.0-0.28","5dcb33ab0550ef819f508abf","650c16f0f2faf8d7a0d14c09","651c1dae5a787e07d59a90e2","null","null","<p style=""font-size: 60px; font-family: BACS"">TklDEcR</p>","","","","","","","","",""
"html-keyboard-response","280","662929","0.0-14.0-0.29","5dcb33ab0550ef819f508abf","650c16f0f2faf8d7a0d14c09","651c1dae5a787e07d59a90e2","null","null","<p style=""font-size: 60px; font-family: BACS"">UmNJZAUu</p>","","","","","","","","",""
"html-keyboard-response","281","663942","0.0-14.0-0.30","5dcb33ab0550ef819f508abf","650c16f0f2faf8d7a0d14c09","651c1dae5a787e07d59a90e2","null","null","<p style=""font-size: 60px; font-family: BACS"">bmdABYcM</p>","","","","","","","","",""
"html-keyboard-response","282","664954","0.0-14.0-0.31","5dcb33ab0550ef819f508abf","650c16f0f2faf8d7a0d14c09","651c1dae5a787e07d59a90e2","null","null","<p style=""font-size: 60px; font-family: BACS"">dMThkEcR</p>","","","","","","","","",""
"html-keyboard-response","283","665958","0.0-14.0-0.32","5dcb33ab0550ef819f508abf","650c16f0f2faf8d7a0d14c09","651c1dae5a787e07d59a90e2","null","null","<p style=""font-size: 60px; font-family: BACS"">DhCPYcM</p>","","","","","","","","",""
"html-keyboard-response","284","666969","0.0-14.0-0.33","5dcb33ab0550ef819f508abf","650c16f0f2faf8d7a0d14c09","651c1dae5a787e07d59a90e2","null","null","<p style=""font-size: 60px; font-family: BACS"">mkmJNdmkv</p>","","","","","","","","",""
"html-keyboard-response","285","667983","0.0-14.0-0.34","5dcb33ab0550ef819f508abf","650c16f0f2faf8d7a0d14c09","651c1dae5a787e07d59a90e2","null","null","<p style=""font-size: 60px; font-family: BACS"">BdtACRDM</p>","","","","","","","","",""
"html-keyboard-response","286","668985","0.0-14.0-0.35","5dcb33ab0550ef819f508abf","650c16f0f2faf8d7a0d14c09","651c1dae5a787e07d59a90e2","null","null","<p style=""font-size: 60px; font-family: BACS"">DhCPEcR</p>","","","","","","","","",""
"html-keyboard-response","287","669989","0.0-14.0-0.36","5dcb33ab0550ef819f508abf","650c16f0f2faf8d7a0d14c09","651c1dae5a787e07d59a90e2","null","null","<p style=""font-size: 60px; font-family: BACS"">bmdABRDM</p>","","","","","","","","",""
"html-keyboard-response","288","671003","0.0-14.0-0.37","5dcb33ab0550ef819f508abf","650c16f0f2faf8d7a0d14c09","651c1dae5a787e07d59a90e2","null","null","<p style=""font-size: 60px; font-family: BACS"">lZcuZAUu</p>","","","","","","","","",""
"html-keyboard-response","289","672018","0.0-14.0-0.38","5dcb33ab0550ef819f508abf","650c16f0f2faf8d7a0d14c09","651c1dae5a787e07d59a90e2","null","null","<p style=""font-size: 60px; font-family: BACS"">dRhtEcR</p>","","","","","","","","",""
"html-keyboard-response","290","673027","0.0-14.0-0.39","5dcb33ab0550ef819f508abf","650c16f0f2faf8d7a0d14c09","651c1dae5a787e07d59a90e2","null","null","<p style=""font-size: 60px; font-family: BACS"">lZcudmkv</p>","","","","","","","","",""
"html-keyboard-response","291","674041","0.0-14.0-0.40","5dcb33ab0550ef819f508abf","650c16f0f2faf8d7a0d14c09","651c1dae5a787e07d59a90e2","null","null","<p style=""font-size: 60px; font-family: BACS"">MlthRDM</p>","","","","","","","","",""
"html-keyboard-response","292","675048","0.0-14.0-0.41","5dcb33ab0550ef819f508abf","650c16f0f2faf8d7a0d14c09","651c1dae5a787e07d59a90e2","null","null","<p style=""font-size: 60px; font-family: BACS"">RlAKclMck</p>","","","","","","","","",""
"html-keyboard-response","293","676056","0.0-14.0-0.42","5dcb33ab0550ef819f508abf","650c16f0f2faf8d7a0d14c09","651c1dae5a787e07d59a90e2","null","null","<p style=""font-size: 60px; font-family: BACS"">LckGNcbm</p>","","","","","","","","",""
"html-keyboard-response","294","677068","0.0-14.0-0.43","5dcb33ab0550ef819f508abf","650c16f0f2faf8d7a0d14c09","651c1dae5a787e07d59a90e2","null","null","<p style=""font-size: 60px; font-family: BACS"">DhCPKEdl</p>","","","","","","","","",""
"html-keyboard-response","295","678080","0.0-14.0-0.44","5dcb33ab0550ef819f508abf","650c16f0f2faf8d7a0d14c09","651c1dae5a787e07d59a90e2","null","null","<p style=""font-size: 60px; font-family: BACS"">NvYJYZJO</p>","","","","","","","","",""
"html-keyboard-response","296","679094","0.0-14.0-0.45","5dcb33ab0550ef819f508abf","650c16f0f2faf8d7a0d14c09","651c1dae5a787e07d59a90e2","null","null","<p style=""font-size: 60px; font-family: BACS"">dRhtRDM</p>","","","","","","","","",""
"html-keyboard-response","297","680104","0.0-14.0-0.46","5dcb33ab0550ef819f508abf","650c16f0f2faf8d7a0d14c09","651c1dae5a787e07d59a90e2","null","null","<p style=""font-size: 60px; font-family: BACS"">dNZAOQAr</p>","","","","","","","","",""
"html-keyboard-response","298","681116","0.0-14.0-0.47","5dcb33ab0550ef819f508abf","650c16f0f2faf8d7a0d14c09","651c1dae5a787e07d59a90e2","null","null","<p style=""font-size: 60px; font-family: BACS"">BdtAClMck</p>","","","","","","","","",""
"html-keyboard-response","299","682127","0.0-14.0-0.48","5dcb33ab0550ef819f508abf","650c16f0f2faf8d7a0d14c09","651c1dae5a787e07d59a90e2","null","null","<p style=""font-size: 60px; font-family: BACS"">RlAKcEcR</p>","","","","","","","","",""
"html-keyboard-response","300","683128","0.0-14.0-0.49","5dcb33ab0550ef819f508abf","650c16f0f2faf8d7a0d14c09","651c1dae5a787e07d59a90e2","null","null","<p style=""font-size: 60px; font-family: BACS"">BdtACKEdl</p>","","","","","","","","",""
"html-keyboard-response","301","684139","0.0-14.0-0.50","5dcb33ab0550ef819f508abf","650c16f0f2faf8d7a0d14c09","651c1dae5a787e07d59a90e2","null","null","<p style=""font-size: 60px; font-family: BACS"">mkmJNZAUu</p>","","","","","","","","",""
"html-keyboard-response","302","685153","0.0-14.0-0.51","5dcb33ab0550ef819f508abf","650c16f0f2faf8d7a0d14c09","651c1dae5a787e07d59a90e2","null","null","<p style=""font-size: 60px; font-family: BACS"">lAOKMKEdl</p>","","","","","","","","",""
"html-keyboard-response","303","686164","0.0-14.0-0.52","5dcb33ab0550ef819f508abf","650c16f0f2faf8d7a0d14c09","651c1dae5a787e07d59a90e2","null","null","<p style=""font-size: 60px; font-family: BACS"">bmdABEcR</p>","","","","","","","","",""
"html-keyboard-response","304","687178","0.0-14.0-0.53","5dcb33ab0550ef819f508abf","650c16f0f2faf8d7a0d14c09","651c1dae5a787e07d59a90e2","null","null","<p style=""font-size: 60px; font-family: BACS"">UmNJcbm</p>","","","","","","","","",""
"html-keyboard-response","305","688193","0.0-14.0-0.54","5dcb33ab0550ef819f508abf","650c16f0f2faf8d7a0d14c09","651c1dae5a787e07d59a90e2","null","null","<p style=""font-size: 60px; font-family: BACS"">dNZAdmkv</p>","","","","","","","","",""
"html-keyboard-response","306","689208","0.0-14.0-0.55","5dcb33ab0550ef819f508abf","650c16f0f2faf8d7a0d14c09","651c1dae5a787e07d59a90e2","null","null","<p style=""font-size: 60px; font-family: BACS"">lAOKMYcM</p>","","","","","","","","",""
"html-keyboard-response","307","690222","0.0-14.0-0.56","5dcb33ab0550ef819f508abf","650c16f0f2faf8d7a0d14c09","651c1dae5a787e07d59a90e2","null","null","<p style=""font-size: 60px; font-family: BACS"">cAZuOQAr</p>","","","","","","","","",""
"html-keyboard-response","308","691235","0.0-14.0-0.57","5dcb33ab0550ef819f508abf","650c16f0f2faf8d7a0d14c09","651c1dae5a787e07d59a90e2","null","null","<p style=""font-size: 60px; font-family: BACS"">dMThkYcM</p>","","","","","","","","",""
"html-keyboard-response","309","692244","0.0-14.0-0.58","5dcb33ab0550ef819f508abf","650c16f0f2faf8d7a0d14c09","651c1dae5a787e07d59a90e2","null","null","<p style=""font-size: 60px; font-family: BACS"">lAOKMRDM</p>","","","","","","","","",""
"html-keyboard-response","310","693256","0.0-14.0-0.59","5dcb33ab0550ef819f508abf","650c16f0f2faf8d7a0d14c09","651c1dae5a787e07d59a90e2","null","null","<p style=""font-size: 60px; font-family: BACS"">GLYrAYZJO</p>","","","","","","","","",""
"html-keyboard-response","311","694270","0.0-14.0-0.60","5dcb33ab0550ef819f508abf","650c16f0f2faf8d7a0d14c09","651c1dae5a787e07d59a90e2","null","null","<p style=""font-size: 60px; font-family: BACS"">hYDmtYcM</p>","","","","","","","","",""
"html-keyboard-response","312","695284","0.0-14.0-0.61","5dcb33ab0550ef819f508abf","650c16f0f2faf8d7a0d14c09","651c1dae5a787e07d59a90e2","null","null","<p style=""font-size: 60px; font-family: BACS"">auYAkcbm</p>","","","","","","","","",""
"html-keyboard-response","313","696298","0.0-14.0-0.62","5dcb33ab0550ef819f508abf","650c16f0f2faf8d7a0d14c09","651c1dae5a787e07d59a90e2","null","null","<p style=""font-size: 60px; font-family: BACS"">dMThklMck</p>","","","","","","","","",""
"html-keyboard-response","314","697309","0.0-14.0-0.63","5dcb33ab0550ef819f508abf","650c16f0f2faf8d7a0d14c09","651c1dae5a787e07d59a90e2","null","null","<p style=""font-size: 60px; font-family: BACS"">bmdABKEdl</p>","","","","","","","","",""
"html-keyboard-response","315","698312","0.0-14.0-0.64","5dcb33ab0550ef819f508abf","650c16f0f2faf8d7a0d14c09","651c1dae5a787e07d59a90e2","null","null","<p style=""font-size: 60px; font-family: BACS"">dNZAcbm</p>","","","","","","","","",""
"html-keyboard-response","316","699326","0.0-14.0-0.65","5dcb33ab0550ef819f508abf","650c16f0f2faf8d7a0d14c09","651c1dae5a787e07d59a90e2","null","null","<p style=""font-size: 60px; font-family: BACS"">auYAkdmkv</p>","","","","","","","","",""
"html-keyboard-response","317","700342","0.0-14.0-0.66","5dcb33ab0550ef819f508abf","650c16f0f2faf8d7a0d14c09","651c1dae5a787e07d59a90e2","null","null","<p style=""font-size: 60px; font-family: BACS"">lZcuOQAr</p>","","","","","","","","",""
"html-keyboard-response","318","701357","0.0-14.0-0.67","5dcb33ab0550ef819f508abf","650c16f0f2faf8d7a0d14c09","651c1dae5a787e07d59a90e2","null","null","<p style=""font-size: 60px; font-family: BACS"">auYAkYZJO</p>","","","","","","","","",""
"html-keyboard-response","319","702367","0.0-14.0-0.68","5dcb33ab0550ef819f508abf","650c16f0f2faf8d7a0d14c09","651c1dae5a787e07d59a90e2","null","null","<p style=""font-size: 60px; font-family: BACS"">BdtACYcM</p>","","","","","","","","",""
"html-keyboard-response","320","703381","0.0-14.0-0.69","5dcb33ab0550ef819f508abf","650c16f0f2faf8d7a0d14c09","651c1dae5a787e07d59a90e2","null","null","<p style=""font-size: 60px; font-family: BACS"">cAZuYZJO</p>","","","","","","","","",""
"html-keyboard-response","321","704387","0.0-14.0-0.70","5dcb33ab0550ef819f508abf","650c16f0f2faf8d7a0d14c09","651c1dae5a787e07d59a90e2","null","null","<p style=""font-size: 60px; font-family: BACS"">MlthEcR</p>","","","","","","","","",""
"html-keyboard-response","322","705389","0.0-14.0-0.71","5dcb33ab0550ef819f508abf","650c16f0f2faf8d7a0d14c09","651c1dae5a787e07d59a90e2","null","null","<p style=""font-size: 60px; font-family: BACS"">RlAKcYcM</p>","","","","","","","","",""
"html-keyboard-response","323","706398","0.0-14.0-0.72","5dcb33ab0550ef819f508abf","650c16f0f2faf8d7a0d14c09","651c1dae5a787e07d59a90e2","null","null","<p style=""font-size: 60px; font-family: BACS"">rvUbOQAr</p>","","","","","","","","",""
"html-keyboard-response","324","707412","0.0-14.0-0.73","5dcb33ab0550ef819f508abf","650c16f0f2faf8d7a0d14c09","651c1dae5a787e07d59a90e2","null","null","<p style=""font-size: 60px; font-family: BACS"">DhCPlMck</p>","","","","","","","","",""
"html-keyboard-response","325","708425","0.0-14.0-0.74","5dcb33ab0550ef819f508abf","650c16f0f2faf8d7a0d14c09","651c1dae5a787e07d59a90e2","null","null","<p style=""font-size: 60px; font-family: BACS"">UmNJOQAr</p>","","","","","","","","",""
"html-keyboard-response","326","709436","0.0-14.0-0.75","5dcb33ab0550ef819f508abf","650c16f0f2faf8d7a0d14c09","651c1dae5a787e07d59a90e2","null","null","<p style=""font-size: 60px; font-family: BACS"">GLYrAZAUu</p>","","","","","","","","",""
"html-keyboard-response","327","710438","0.0-14.0-0.76","5dcb33ab0550ef819f508abf","650c16f0f2faf8d7a0d14c09","651c1dae5a787e07d59a90e2","null","null","<p style=""font-size: 60px; font-family: BACS"">UmNJdmkv</p>","","","","","","","","",""
"html-keyboard-response","328","711451","0.0-14.0-0.77","5dcb33ab0550ef819f508abf","650c16f0f2faf8d7a0d14c09","651c1dae5a787e07d59a90e2","null","null","<p style=""font-size: 60px; font-family: BACS"">dMThkKEdl</p>","","","","","","","","",""
"html-keyboard-response","329","712464","0.0-14.0-0.78","5dcb33ab0550ef819f508abf","650c16f0f2faf8d7a0d14c09","651c1dae5a787e07d59a90e2","null","null","<p style=""font-size: 60px; font-family: BACS"">GLYrAOQAr</p>","","","","","","","","",""
"html-keyboard-response","330","713473","0.0-14.0-0.79","5dcb33ab0550ef819f508abf","650c16f0f2faf8d7a0d14c09","651c1dae5a787e07d59a90e2","null","null","<p style=""font-size: 60px; font-family: BACS"">mkmJNcbm</p>","","","","","","","","",""
"html-keyboard-response","331","715093","0.0-15.0","5dcb33ab0550ef819f508abf","650c16f0f2faf8d7a0d14c09","651c1dae5a787e07d59a90e2","1620"," ","<p>Great, you've seen the fourth block of words. You may now take a short break.</p>
      <p>Press the spacebar when you're ready to continue.</p>","","","","","","","","",""
"html-keyboard-response","332","716095","0.0-16.0-0.0","5dcb33ab0550ef819f508abf","650c16f0f2faf8d7a0d14c09","651c1dae5a787e07d59a90e2","null","null","<p style=""font-size: 60px; font-family: BACS"">lZcuZAUu</p>","","","","","","","","",""
"html-keyboard-response","333","717097","0.0-16.0-0.1","5dcb33ab0550ef819f508abf","650c16f0f2faf8d7a0d14c09","651c1dae5a787e07d59a90e2","null","null","<p style=""font-size: 60px; font-family: BACS"">lZcuZAUu</p>","","","","","","","","",""
"html-keyboard-response","334","718099","0.0-16.0-0.2","5dcb33ab0550ef819f508abf","650c16f0f2faf8d7a0d14c09","651c1dae5a787e07d59a90e2","null","null","<p style=""font-size: 60px; font-family: BACS"">lZcuZAUu</p>","","","","","","","","",""
"html-keyboard-response","335","719112","0.0-16.0-0.3","5dcb33ab0550ef819f508abf","650c16f0f2faf8d7a0d14c09","651c1dae5a787e07d59a90e2","null","null","<p style=""font-size: 60px; font-family: BACS"">lZcuZAUu</p>","","","","","","","","",""
"html-keyboard-response","336","720128","0.0-16.0-0.4","5dcb33ab0550ef819f508abf","650c16f0f2faf8d7a0d14c09","651c1dae5a787e07d59a90e2","null","null","<p style=""font-size: 60px; font-family: BACS"">lZcuZAUu</p>","","","","","","","","",""
"html-keyboard-response","337","721130","0.0-16.0-0.5","5dcb33ab0550ef819f508abf","650c16f0f2faf8d7a0d14c09","651c1dae5a787e07d59a90e2","null","null","<p style=""font-size: 60px; font-family: BACS"">lZcuZAUu</p>","","","","","","","","",""
"html-keyboard-response","338","722139","0.0-16.0-0.6","5dcb33ab0550ef819f508abf","650c16f0f2faf8d7a0d14c09","651c1dae5a787e07d59a90e2","null","null","<p style=""font-size: 60px; font-family: BACS"">lZcuZAUu</p>","","","","","","","","",""
"html-keyboard-response","339","723152","0.0-16.0-0.7","5dcb33ab0550ef819f508abf","650c16f0f2faf8d7a0d14c09","651c1dae5a787e07d59a90e2","null","null","<p style=""font-size: 60px; font-family: BACS"">lZcuZAUu</p>","","","","","","","","",""
"html-keyboard-response","340","724168","0.0-16.0-0.8","5dcb33ab0550ef819f508abf","650c16f0f2faf8d7a0d14c09","651c1dae5a787e07d59a90e2","null","null","<p style=""font-size: 60px; font-family: BACS"">lZcuZAUu</p>","","","","","","","","",""
"html-keyboard-response","341","725182","0.0-16.0-0.9","5dcb33ab0550ef819f508abf","650c16f0f2faf8d7a0d14c09","651c1dae5a787e07d59a90e2","null","null","<p style=""font-size: 60px; font-family: BACS"">lZcuZAUu</p>","","","","","","","","",""
"html-keyboard-response","342","726195","0.0-16.0-0.10","5dcb33ab0550ef819f508abf","650c16f0f2faf8d7a0d14c09","651c1dae5a787e07d59a90e2","null","null","<p style=""font-size: 60px; font-family: BACS"">lZcuZAUu</p>","","","","","","","","",""
"html-keyboard-response","343","727208","0.0-16.0-0.11","5dcb33ab0550ef819f508abf","650c16f0f2faf8d7a0d14c09","651c1dae5a787e07d59a90e2","null","null","<p style=""font-size: 60px; font-family: BACS"">lZcuZAUu</p>","","","","","","","","",""
"html-keyboard-response","344","728220","0.0-16.0-0.12","5dcb33ab0550ef819f508abf","650c16f0f2faf8d7a0d14c09","651c1dae5a787e07d59a90e2","null","null","<p style=""font-size: 60px; font-family: BACS"">lZcuZAUu</p>","","","","","","","","",""
"html-keyboard-response","345","729235","0.0-16.0-0.13","5dcb33ab0550ef819f508abf","650c16f0f2faf8d7a0d14c09","651c1dae5a787e07d59a90e2","null","null","<p style=""font-size: 60px; font-family: BACS"">lZcuZAUu</p>","","","","","","","","",""
"html-keyboard-response","346","730249","0.0-16.0-0.14","5dcb33ab0550ef819f508abf","650c16f0f2faf8d7a0d14c09","651c1dae5a787e07d59a90e2","null","null","<p style=""font-size: 60px; font-family: BACS"">lZcuZAUu</p>","","","","","","","","",""
"html-keyboard-response","347","731251","0.0-16.0-0.15","5dcb33ab0550ef819f508abf","650c16f0f2faf8d7a0d14c09","651c1dae5a787e07d59a90e2","null","null","<p style=""font-size: 60px; font-family: BACS"">lZcuZAUu</p>","","","","","","","","",""
"html-keyboard-response","348","732264","0.0-16.0-0.16","5dcb33ab0550ef819f508abf","650c16f0f2faf8d7a0d14c09","651c1dae5a787e07d59a90e2","null","null","<p style=""font-size: 60px; font-family: BACS"">lZcuZAUu</p>","","","","","","","","",""
"html-keyboard-response","349","733275","0.0-16.0-0.17","5dcb33ab0550ef819f508abf","650c16f0f2faf8d7a0d14c09","651c1dae5a787e07d59a90e2","null","null","<p style=""font-size: 60px; font-family: BACS"">lZcuZAUu</p>","","","","","","","","",""
"html-keyboard-response","350","734287","0.0-16.0-0.18","5dcb33ab0550ef819f508abf","650c16f0f2faf8d7a0d14c09","651c1dae5a787e07d59a90e2","null","null","<p style=""font-size: 60px; font-family: BACS"">lZcuZAUu</p>","","","","","","","","",""
"html-keyboard-response","351","735290","0.0-16.0-0.19","5dcb33ab0550ef819f508abf","650c16f0f2faf8d7a0d14c09","651c1dae5a787e07d59a90e2","null","null","<p style=""font-size: 60px; font-family: BACS"">lZcuZAUu</p>","","","","","","","","",""
"html-keyboard-response","352","736304","0.0-16.0-0.20","5dcb33ab0550ef819f508abf","650c16f0f2faf8d7a0d14c09","651c1dae5a787e07d59a90e2","null","null","<p style=""font-size: 60px; font-family: BACS"">lZcuZAUu</p>","","","","","","","","",""
"html-keyboard-response","353","737318","0.0-16.0-0.21","5dcb33ab0550ef819f508abf","650c16f0f2faf8d7a0d14c09","651c1dae5a787e07d59a90e2","null","null","<p style=""font-size: 60px; font-family: BACS"">lZcuZAUu</p>","","","","","","","","",""
"html-keyboard-response","354","738334","0.0-16.0-0.22","5dcb33ab0550ef819f508abf","650c16f0f2faf8d7a0d14c09","651c1dae5a787e07d59a90e2","null","null","<p style=""font-size: 60px; font-family: BACS"">lZcuZAUu</p>","","","","","","","","",""
"html-keyboard-response","355","739335","0.0-16.0-0.23","5dcb33ab0550ef819f508abf","650c16f0f2faf8d7a0d14c09","651c1dae5a787e07d59a90e2","null","null","<p style=""font-size: 60px; font-family: BACS"">lZcuZAUu</p>","","","","","","","","",""
"html-keyboard-response","356","740349","0.0-16.0-0.24","5dcb33ab0550ef819f508abf","650c16f0f2faf8d7a0d14c09","651c1dae5a787e07d59a90e2","null","null","<p style=""font-size: 60px; font-family: BACS"">lZcuZAUu</p>","","","","","","","","",""
"html-keyboard-response","357","741357","0.0-16.0-0.25","5dcb33ab0550ef819f508abf","650c16f0f2faf8d7a0d14c09","651c1dae5a787e07d59a90e2","null","null","<p style=""font-size: 60px; font-family: BACS"">lZcuZAUu</p>","","","","","","","","",""
"html-keyboard-response","358","742370","0.0-16.0-0.26","5dcb33ab0550ef819f508abf","650c16f0f2faf8d7a0d14c09","651c1dae5a787e07d59a90e2","null","null","<p style=""font-size: 60px; font-family: BACS"">lZcuZAUu</p>","","","","","","","","",""
"html-keyboard-response","359","743384","0.0-16.0-0.27","5dcb33ab0550ef819f508abf","650c16f0f2faf8d7a0d14c09","651c1dae5a787e07d59a90e2","null","null","<p style=""font-size: 60px; font-family: BACS"">lZcuZAUu</p>","","","","","","","","",""
"html-keyboard-response","360","744396","0.0-16.0-0.28","5dcb33ab0550ef819f508abf","650c16f0f2faf8d7a0d14c09","651c1dae5a787e07d59a90e2","null","null","<p style=""font-size: 60px; font-family: BACS"">lZcuZAUu</p>","","","","","","","","",""
"html-keyboard-response","361","745410","0.0-16.0-0.29","5dcb33ab0550ef819f508abf","650c16f0f2faf8d7a0d14c09","651c1dae5a787e07d59a90e2","null","null","<p style=""font-size: 60px; font-family: BACS"">lZcuZAUu</p>","","","","","","","","",""
"html-keyboard-response","362","746422","0.0-16.0-0.30","5dcb33ab0550ef819f508abf","650c16f0f2faf8d7a0d14c09","651c1dae5a787e07d59a90e2","null","null","<p style=""font-size: 60px; font-family: BACS"">lZcuZAUu</p>","","","","","","","","",""
"html-keyboard-response","363","747433","0.0-16.0-0.31","5dcb33ab0550ef819f508abf","650c16f0f2faf8d7a0d14c09","651c1dae5a787e07d59a90e2","null","null","<p style=""font-size: 60px; font-family: BACS"">lZcuZAUu</p>","","","","","","","","",""
"html-keyboard-response","364","748447","0.0-16.0-0.32","5dcb33ab0550ef819f508abf","650c16f0f2faf8d7a0d14c09","651c1dae5a787e07d59a90e2","null","null","<p style=""font-size: 60px; font-family: BACS"">lZcuZAUu</p>","","","","","","","","",""
"html-keyboard-response","365","749462","0.0-16.0-0.33","5dcb33ab0550ef819f508abf","650c16f0f2faf8d7a0d14c09","651c1dae5a787e07d59a90e2","null","null","<p style=""font-size: 60px; font-family: BACS"">lZcuZAUu</p>","","","","","","","","",""
"html-keyboard-response","366","750475","0.0-16.0-0.34","5dcb33ab0550ef819f508abf","650c16f0f2faf8d7a0d14c09","651c1dae5a787e07d59a90e2","null","null","<p style=""font-size: 60px; font-family: BACS"">lZcuZAUu</p>","","","","","","","","",""
"html-keyboard-response","367","751488","0.0-16.0-0.35","5dcb33ab0550ef819f508abf","650c16f0f2faf8d7a0d14c09","651c1dae5a787e07d59a90e2","null","null","<p style=""font-size: 60px; font-family: BACS"">lZcuZAUu</p>","","","","","","","","",""
"html-keyboard-response","368","752492","0.0-16.0-0.36","5dcb33ab0550ef819f508abf","650c16f0f2faf8d7a0d14c09","651c1dae5a787e07d59a90e2","null","null","<p style=""font-size: 60px; font-family: BACS"">lZcuZAUu</p>","","","","","","","","",""
"html-keyboard-response","369","753503","0.0-16.0-0.37","5dcb33ab0550ef819f508abf","650c16f0f2faf8d7a0d14c09","651c1dae5a787e07d59a90e2","null","null","<p style=""font-size: 60px; font-family: BACS"">lZcuZAUu</p>","","","","","","","","",""
"html-keyboard-response","370","754518","0.0-16.0-0.38","5dcb33ab0550ef819f508abf","650c16f0f2faf8d7a0d14c09","651c1dae5a787e07d59a90e2","null","null","<p style=""font-size: 60px; font-family: BACS"">lZcuZAUu</p>","","","","","","","","",""
"html-keyboard-response","371","755526","0.0-16.0-0.39","5dcb33ab0550ef819f508abf","650c16f0f2faf8d7a0d14c09","651c1dae5a787e07d59a90e2","null","null","<p style=""font-size: 60px; font-family: BACS"">lZcuZAUu</p>","","","","","","","","",""
"html-keyboard-response","372","756537","0.0-16.0-0.40","5dcb33ab0550ef819f508abf","650c16f0f2faf8d7a0d14c09","651c1dae5a787e07d59a90e2","null","null","<p style=""font-size: 60px; font-family: BACS"">lZcuZAUu</p>","","","","","","","","",""
"html-keyboard-response","373","757552","0.0-16.0-0.41","5dcb33ab0550ef819f508abf","650c16f0f2faf8d7a0d14c09","651c1dae5a787e07d59a90e2","null","null","<p style=""font-size: 60px; font-family: BACS"">lZcuZAUu</p>","","","","","","","","",""
"html-keyboard-response","374","758561","0.0-16.0-0.42","5dcb33ab0550ef819f508abf","650c16f0f2faf8d7a0d14c09","651c1dae5a787e07d59a90e2","null","null","<p style=""font-size: 60px; font-family: BACS"">lZcuZAUu</p>","","","","","","","","",""
"html-keyboard-response","375","759574","0.0-16.0-0.43","5dcb33ab0550ef819f508abf","650c16f0f2faf8d7a0d14c09","651c1dae5a787e07d59a90e2","null","null","<p style=""font-size: 60px; font-family: BACS"">lZcuZAUu</p>","","","","","","","","",""
"html-keyboard-response","376","760588","0.0-16.0-0.44","5dcb33ab0550ef819f508abf","650c16f0f2faf8d7a0d14c09","651c1dae5a787e07d59a90e2","null","null","<p style=""font-size: 60px; font-family: BACS"">lZcuZAUu</p>","","","","","","","","",""
"html-keyboard-response","377","761600","0.0-16.0-0.45","5dcb33ab0550ef819f508abf","650c16f0f2faf8d7a0d14c09","651c1dae5a787e07d59a90e2","null","null","<p style=""font-size: 60px; font-family: BACS"">lZcuZAUu</p>","","","","","","","","",""
"html-keyboard-response","378","762610","0.0-16.0-0.46","5dcb33ab0550ef819f508abf","650c16f0f2faf8d7a0d14c09","651c1dae5a787e07d59a90e2","null","null","<p style=""font-size: 60px; font-family: BACS"">lZcuZAUu</p>","","","","","","","","",""
"html-keyboard-response","379","763623","0.0-16.0-0.47","5dcb33ab0550ef819f508abf","650c16f0f2faf8d7a0d14c09","651c1dae5a787e07d59a90e2","null","null","<p style=""font-size: 60px; font-family: BACS"">lZcuZAUu</p>","","","","","","","","",""
"html-keyboard-response","380","764637","0.0-16.0-0.48","5dcb33ab0550ef819f508abf","650c16f0f2faf8d7a0d14c09","651c1dae5a787e07d59a90e2","null","null","<p style=""font-size: 60px; font-family: BACS"">lZcuZAUu</p>","","","","","","","","",""
"html-keyboard-response","381","765646","0.0-16.0-0.49","5dcb33ab0550ef819f508abf","650c16f0f2faf8d7a0d14c09","651c1dae5a787e07d59a90e2","null","null","<p style=""font-size: 60px; font-family: BACS"">lZcuZAUu</p>","","","","","","","","",""
"html-keyboard-response","382","766661","0.0-16.0-0.50","5dcb33ab0550ef819f508abf","650c16f0f2faf8d7a0d14c09","651c1dae5a787e07d59a90e2","null","null","<p style=""font-size: 60px; font-family: BACS"">lZcuZAUu</p>","","","","","","","","",""
"html-keyboard-response","383","767677","0.0-16.0-0.51","5dcb33ab0550ef819f508abf","650c16f0f2faf8d7a0d14c09","651c1dae5a787e07d59a90e2","null","null","<p style=""font-size: 60px; font-family: BACS"">lZcuZAUu</p>","","","","","","","","",""
"html-keyboard-response","384","768688","0.0-16.0-0.52","5dcb33ab0550ef819f508abf","650c16f0f2faf8d7a0d14c09","651c1dae5a787e07d59a90e2","null","null","<p style=""font-size: 60px; font-family: BACS"">lZcuZAUu</p>","","","","","","","","",""
"html-keyboard-response","385","769694","0.0-16.0-0.53","5dcb33ab0550ef819f508abf","650c16f0f2faf8d7a0d14c09","651c1dae5a787e07d59a90e2","null","null","<p style=""font-size: 60px; font-family: BACS"">lZcuZAUu</p>","","","","","","","","",""
"html-keyboard-response","386","770705","0.0-16.0-0.54","5dcb33ab0550ef819f508abf","650c16f0f2faf8d7a0d14c09","651c1dae5a787e07d59a90e2","null","null","<p style=""font-size: 60px; font-family: BACS"">lZcuZAUu</p>","","","","","","","","",""
"html-keyboard-response","387","771706","0.0-16.0-0.55","5dcb33ab0550ef819f508abf","650c16f0f2faf8d7a0d14c09","651c1dae5a787e07d59a90e2","null","null","<p style=""font-size: 60px; font-family: BACS"">lZcuZAUu</p>","","","","","","","","",""
"html-keyboard-response","388","772719","0.0-16.0-0.56","5dcb33ab0550ef819f508abf","650c16f0f2faf8d7a0d14c09","651c1dae5a787e07d59a90e2","null","null","<p style=""font-size: 60px; font-family: BACS"">lZcuZAUu</p>","","","","","","","","",""
"html-keyboard-response","389","773720","0.0-16.0-0.57","5dcb33ab0550ef819f508abf","650c16f0f2faf8d7a0d14c09","651c1dae5a787e07d59a90e2","null","null","<p style=""font-size: 60px; font-family: BACS"">lZcuZAUu</p>","","","","","","","","",""
"html-keyboard-response","390","774735","0.0-16.0-0.58","5dcb33ab0550ef819f508abf","650c16f0f2faf8d7a0d14c09","651c1dae5a787e07d59a90e2","null","null","<p style=""font-size: 60px; font-family: BACS"">lZcuZAUu</p>","","","","","","","","",""
"html-keyboard-response","391","775748","0.0-16.0-0.59","5dcb33ab0550ef819f508abf","650c16f0f2faf8d7a0d14c09","651c1dae5a787e07d59a90e2","null","null","<p style=""font-size: 60px; font-family: BACS"">lZcuZAUu</p>","","","","","","","","",""
"html-keyboard-response","392","776754","0.0-16.0-0.60","5dcb33ab0550ef819f508abf","650c16f0f2faf8d7a0d14c09","651c1dae5a787e07d59a90e2","null","null","<p style=""font-size: 60px; font-family: BACS"">lZcuZAUu</p>","","","","","","","","",""
"html-keyboard-response","393","777763","0.0-16.0-0.61","5dcb33ab0550ef819f508abf","650c16f0f2faf8d7a0d14c09","651c1dae5a787e07d59a90e2","null","null","<p style=""font-size: 60px; font-family: BACS"">lZcuZAUu</p>","","","","","","","","",""
"html-keyboard-response","394","778763","0.0-16.0-0.62","5dcb33ab0550ef819f508abf","650c16f0f2faf8d7a0d14c09","651c1dae5a787e07d59a90e2","null","null","<p style=""font-size: 60px; font-family: BACS"">lZcuZAUu</p>","","","","","","","","",""
"html-keyboard-response","395","779766","0.0-16.0-0.63","5dcb33ab0550ef819f508abf","650c16f0f2faf8d7a0d14c09","651c1dae5a787e07d59a90e2","null","null","<p style=""font-size: 60px; font-family: BACS"">lZcuZAUu</p>","","","","","","","","",""
"html-keyboard-response","396","780768","0.0-16.0-0.64","5dcb33ab0550ef819f508abf","650c16f0f2faf8d7a0d14c09","651c1dae5a787e07d59a90e2","null","null","<p style=""font-size: 60px; font-family: BACS"">lZcuZAUu</p>","","","","","","","","",""
"html-keyboard-response","397","781777","0.0-16.0-0.65","5dcb33ab0550ef819f508abf","650c16f0f2faf8d7a0d14c09","651c1dae5a787e07d59a90e2","null","null","<p style=""font-size: 60px; font-family: BACS"">lZcuZAUu</p>","","","","","","","","",""
"html-keyboard-response","398","782789","0.0-16.0-0.66","5dcb33ab0550ef819f508abf","650c16f0f2faf8d7a0d14c09","651c1dae5a787e07d59a90e2","null","null","<p style=""font-size: 60px; font-family: BACS"">lZcuZAUu</p>","","","","","","","","",""
"html-keyboard-response","399","783796","0.0-16.0-0.67","5dcb33ab0550ef819f508abf","650c16f0f2faf8d7a0d14c09","651c1dae5a787e07d59a90e2","null","null","<p style=""font-size: 60px; font-family: BACS"">lZcuZAUu</p>","","","","","","","","",""
