"trial_type","trial_index","time_elapsed","internal_node_id","subject_id","study_id","session_id","rt","response","stimulus","success","item","task","correct_response","testing_condition","correct","target","confound","name"
"pavlovia","0","2006","0.0-0.0","60dee3200c7c3355c62326d9","650c16f0f2faf8d7a0d14c09","651c1bfc58d179ab672053ef","","","","","","","","","","","",""
"survey-html-form","1","9669","0.0-1.0","60dee3200c7c3355c62326d9","650c16f0f2faf8d7a0d14c09","651c1bfc58d179ab672053ef","7661","{""ID"":""60dee3200c7c3355c62326d9""}","","","","","","","","","",""
"html-keyboard-response","2","13973","0.0-2.0","60dee3200c7c3355c62326d9","650c16f0f2faf8d7a0d14c09","651c1bfc58d179ab672053ef","4302"," ","<p style=""font-size: 15px;"">Before beginning, we ask that you read the consent information and confirm your agreement to participate in the experiment.</p>
      <p style=""font-size: 15px;""> We ask that you remember that this is a research project and that your participation is entirely voluntary. You can stop your participation at any time, without needing to provide any explanation. The study we're asking you to participate in aims at examining how readers process written words. You will be engaged in a session of apprximately 20 minutes, followed by a brief questionnaire. You will have the opportunity to take a few breaks during the experiment. You will be paid £4 for your participation, corresponding to a rate of £8/hour. While this experiment looks at cognitive faculties, this experiment doesn't constitute clinical proof of eventual pathologies.</p>
      <p style=""font-size: 15px;"">All of the information collected thanks to yours and others' participation will be held in a secure password-protected server, and will not be shared with anyone not authorised to view it. Your personal information will be kept with an arbitrary participant ID. Thanks to this data anonymity process, any researcher analysing the data won't be able to track the information back to a specific participant. Therefore, this process will make identifying you impossibile, even when results from the study will be published in scientific reviews, presented at congresses, or at any other public forum. More generally, the collected data will be treated in accordance with the laws on privacy and conformity to the Legislative Degree n. 196 ""Code regarding the protection of personal data"" of the 30th of June 2003 and to the European Regulation 2016/670 (General Data Protection Regulation - GDPR). The Data Protection Officer is Avv. Valentina Carollo, who can be contacted at the following email addresses: <a href=""mailto:dpo@sissa.it"">dpo@sissa.it</a> or <a href=""mailto:rpd@sissa.it"">rpd@sissa.it</a> - PEC: <a href=""mailto:protocollo@pec.sissa.it"">protocollo@pec.sissa.it</a>.</p>
      <p style=""font-size: 15px;""> Before expressing your consent to participate, we would like to remind you again that in case you need explanations on any aspect of the experimental procedure, the researcher is at your disposition (<a href=""mailto:aliebelt@sissa.it"">aliebelt@sissa.it</a>, <a href=""mailto:davide.crepaldi@sissa.it"">davide.crepaldi@sissa.it</a>).</p>
      <p style=""font-size: 15px;"">If you would like to download the informed consent form, you can do so here: <a href=""BASL-Informed_Consent.pdf"" download>informed consent form</a>.</p>
      <p style=""font-size: 15px;"">We ask that you press the spacebar to proceed to the consent section.</p>","","","","","","","","",""
"survey-html-form","3","27069","0.0-3.0","60dee3200c7c3355c62326d9","650c16f0f2faf8d7a0d14c09","651c1bfc58d179ab672053ef","13093","{""consent1"":""YES"",""consent2"":""YES"",""consent3"":""YES"",""consent4"":""YES"",""consent5"":""YES"",""consent6"":""YES""}","","","","","","","","","",""
"fullscreen","4","31264","0.0-4.0","60dee3200c7c3355c62326d9","650c16f0f2faf8d7a0d14c09","651c1bfc58d179ab672053ef","","","","true","","","","","","","",""
"html-keyboard-response","5","46918","0.0-5.0","60dee3200c7c3355c62326d9","650c16f0f2faf8d7a0d14c09","651c1bfc58d179ab672053ef","15652"," ","<p>Welcome, and thank you very much for your time!</p>
      <p>In this experiment, you'll be a language expert who's been asked to take a look at words that Earth has received in its first communication with aliens. Your task, in this first part of the experiment, is to pay close attention to the words you'll be shown; later, world leaders will ask you questions on what you saw. The words will be shown to you quite quickly; it seems that the aliens were in a hurry :-)</p>
      <p>Press the spacebar to continue.<p>","","","","","","","","",""
"html-keyboard-response","6","46976","0.0-6.0","60dee3200c7c3355c62326d9","650c16f0f2faf8d7a0d14c09","651c1bfc58d179ab672053ef","null","null","<p style=""font-size: 120px; font-family: BACS""> </p>","","","","","","","","",""
"html-keyboard-response","7","52728","0.0-7.0","60dee3200c7c3355c62326d9","650c16f0f2faf8d7a0d14c09","651c1bfc58d179ab672053ef","5751"," ","<p>Here is an example of the words you'll see:</p>
      <img src='esempio.png' height='400px'>
      <p>When you're ready to begin, press the spacebar.</p></div>","","","","","","","","",""
"html-keyboard-response","8","53741","0.0-8.0-0.0","60dee3200c7c3355c62326d9","650c16f0f2faf8d7a0d14c09","651c1bfc58d179ab672053ef","null","null","<p style=""font-size: 60px; font-family: BACS"">QLrOJGrub</p>","","","","","","","","",""
"html-keyboard-response","9","54759","0.0-8.0-0.1","60dee3200c7c3355c62326d9","650c16f0f2faf8d7a0d14c09","651c1bfc58d179ab672053ef","null","null","<p style=""font-size: 60px; font-family: BACS"">mARMOtM</p>","","","","","","","","",""
"html-keyboard-response","10","55776","0.0-8.0-0.2","60dee3200c7c3355c62326d9","650c16f0f2faf8d7a0d14c09","651c1bfc58d179ab672053ef","null","null","<p style=""font-size: 60px; font-family: BACS"">rbYbuGrub</p>","","","","","","","","",""
"html-keyboard-response","11","56790","0.0-8.0-0.3","60dee3200c7c3355c62326d9","650c16f0f2faf8d7a0d14c09","651c1bfc58d179ab672053ef","null","null","<p style=""font-size: 60px; font-family: BACS"">TklDdBC</p>","","","","","","","","",""
"html-keyboard-response","12","57794","0.0-8.0-0.4","60dee3200c7c3355c62326d9","650c16f0f2faf8d7a0d14c09","651c1bfc58d179ab672053ef","null","null","<p style=""font-size: 60px; font-family: BACS"">rkJuYZJO</p>","","","","","","","","",""
"html-keyboard-response","13","58808","0.0-8.0-0.5","60dee3200c7c3355c62326d9","650c16f0f2faf8d7a0d14c09","651c1bfc58d179ab672053ef","null","null","<p style=""font-size: 60px; font-family: BACS"">BbODkMEC</p>","","","","","","","","",""
"html-keyboard-response","14","59825","0.0-8.0-0.6","60dee3200c7c3355c62326d9","650c16f0f2faf8d7a0d14c09","651c1bfc58d179ab672053ef","null","null","<p style=""font-size: 60px; font-family: BACS"">EhbtdBC</p>","","","","","","","","",""
"html-keyboard-response","15","60826","0.0-8.0-0.7","60dee3200c7c3355c62326d9","650c16f0f2faf8d7a0d14c09","651c1bfc58d179ab672053ef","null","null","<p style=""font-size: 60px; font-family: BACS"">LAclAGrub</p>","","","","","","","","",""
"html-keyboard-response","16","61838","0.0-8.0-0.8","60dee3200c7c3355c62326d9","650c16f0f2faf8d7a0d14c09","651c1bfc58d179ab672053ef","null","null","<p style=""font-size: 60px; font-family: BACS"">YlYcdBC</p>","","","","","","","","",""
"html-keyboard-response","17","62841","0.0-8.0-0.9","60dee3200c7c3355c62326d9","650c16f0f2faf8d7a0d14c09","651c1bfc58d179ab672053ef","null","null","<p style=""font-size: 60px; font-family: BACS"">vuJZuYZJO</p>","","","","","","","","",""
"html-keyboard-response","18","63856","0.0-8.0-0.10","60dee3200c7c3355c62326d9","650c16f0f2faf8d7a0d14c09","651c1bfc58d179ab672053ef","null","null","<p style=""font-size: 60px; font-family: BACS"">EhbtOtM</p>","","","","","","","","",""
"html-keyboard-response","19","64859","0.0-8.0-0.11","60dee3200c7c3355c62326d9","650c16f0f2faf8d7a0d14c09","651c1bfc58d179ab672053ef","null","null","<p style=""font-size: 60px; font-family: BACS"">kNuaYZJO</p>","","","","","","","","",""
"html-keyboard-response","20","65874","0.0-8.0-0.12","60dee3200c7c3355c62326d9","650c16f0f2faf8d7a0d14c09","651c1bfc58d179ab672053ef","null","null","<p style=""font-size: 60px; font-family: BACS"">mARMbAMO</p>","","","","","","","","",""
"html-keyboard-response","21","66890","0.0-8.0-0.13","60dee3200c7c3355c62326d9","650c16f0f2faf8d7a0d14c09","651c1bfc58d179ab672053ef","null","null","<p style=""font-size: 60px; font-family: BACS"">YlYckKE</p>","","","","","","","","",""
"html-keyboard-response","22","67892","0.0-8.0-0.14","60dee3200c7c3355c62326d9","650c16f0f2faf8d7a0d14c09","651c1bfc58d179ab672053ef","null","null","<p style=""font-size: 60px; font-family: BACS"">RkmdCdBC</p>","","","","","","","","",""
"html-keyboard-response","23","68906","0.0-8.0-0.15","60dee3200c7c3355c62326d9","650c16f0f2faf8d7a0d14c09","651c1bfc58d179ab672053ef","null","null","<p style=""font-size: 60px; font-family: BACS"">OmtlDOtM</p>","","","","","","","","",""
"html-keyboard-response","24","69909","0.0-8.0-0.16","60dee3200c7c3355c62326d9","650c16f0f2faf8d7a0d14c09","651c1bfc58d179ab672053ef","null","null","<p style=""font-size: 60px; font-family: BACS"">RkmdCkMEC</p>","","","","","","","","",""
"html-keyboard-response","25","70924","0.0-8.0-0.17","60dee3200c7c3355c62326d9","650c16f0f2faf8d7a0d14c09","651c1bfc58d179ab672053ef","null","null","<p style=""font-size: 60px; font-family: BACS"">GLluArNlZ</p>","","","","","","","","",""
"html-keyboard-response","26","71925","0.0-8.0-0.18","60dee3200c7c3355c62326d9","650c16f0f2faf8d7a0d14c09","651c1bfc58d179ab672053ef","null","null","<p style=""font-size: 60px; font-family: BACS"">rkJuLcO</p>","","","","","","","","",""
"html-keyboard-response","27","72938","0.0-8.0-0.19","60dee3200c7c3355c62326d9","650c16f0f2faf8d7a0d14c09","651c1bfc58d179ab672053ef","null","null","<p style=""font-size: 60px; font-family: BACS"">lBlEdBC</p>","","","","","","","","",""
"html-keyboard-response","28","73941","0.0-8.0-0.20","60dee3200c7c3355c62326d9","650c16f0f2faf8d7a0d14c09","651c1bfc58d179ab672053ef","null","null","<p style=""font-size: 60px; font-family: BACS"">GJGcZGUOA</p>","","","","","","","","",""
"html-keyboard-response","29","74957","0.0-8.0-0.21","60dee3200c7c3355c62326d9","650c16f0f2faf8d7a0d14c09","651c1bfc58d179ab672053ef","null","null","<p style=""font-size: 60px; font-family: BACS"">vuJZurNlZ</p>","","","","","","","","",""
"html-keyboard-response","30","75958","0.0-8.0-0.22","60dee3200c7c3355c62326d9","650c16f0f2faf8d7a0d14c09","651c1bfc58d179ab672053ef","null","null","<p style=""font-size: 60px; font-family: BACS"">PdDTkMEC</p>","","","","","","","","",""
"html-keyboard-response","31","76973","0.0-8.0-0.23","60dee3200c7c3355c62326d9","650c16f0f2faf8d7a0d14c09","651c1bfc58d179ab672053ef","null","null","<p style=""font-size: 60px; font-family: BACS"">vuJZuGUOA</p>","","","","","","","","",""
"html-keyboard-response","32","77990","0.0-8.0-0.24","60dee3200c7c3355c62326d9","650c16f0f2faf8d7a0d14c09","651c1bfc58d179ab672053ef","null","null","<p style=""font-size: 60px; font-family: BACS"">GJGcZYZJO</p>","","","","","","","","",""
"html-keyboard-response","33","79003","0.0-8.0-0.25","60dee3200c7c3355c62326d9","650c16f0f2faf8d7a0d14c09","651c1bfc58d179ab672053ef","null","null","<p style=""font-size: 60px; font-family: BACS"">RkmdCkKE</p>","","","","","","","","",""
"html-keyboard-response","34","80006","0.0-8.0-0.26","60dee3200c7c3355c62326d9","650c16f0f2faf8d7a0d14c09","651c1bfc58d179ab672053ef","null","null","<p style=""font-size: 60px; font-family: BACS"">lBlEkMEC</p>","","","","","","","","",""
"html-keyboard-response","35","81022","0.0-8.0-0.27","60dee3200c7c3355c62326d9","650c16f0f2faf8d7a0d14c09","651c1bfc58d179ab672053ef","null","null","<p style=""font-size: 60px; font-family: BACS"">TbKMEkKE</p>","","","","","","","","",""
"html-keyboard-response","36","82024","0.0-8.0-0.28","60dee3200c7c3355c62326d9","650c16f0f2faf8d7a0d14c09","651c1bfc58d179ab672053ef","null","null","<p style=""font-size: 60px; font-family: BACS"">GJGcZGrub</p>","","","","","","","","",""
"html-keyboard-response","37","83036","0.0-8.0-0.29","60dee3200c7c3355c62326d9","650c16f0f2faf8d7a0d14c09","651c1bfc58d179ab672053ef","null","null","<p style=""font-size: 60px; font-family: BACS"">BbODkKE</p>","","","","","","","","",""
"html-keyboard-response","38","84039","0.0-8.0-0.30","60dee3200c7c3355c62326d9","650c16f0f2faf8d7a0d14c09","651c1bfc58d179ab672053ef","null","null","<p style=""font-size: 60px; font-family: BACS"">GLluAGrub</p>","","","","","","","","",""
"html-keyboard-response","39","85040","0.0-8.0-0.31","60dee3200c7c3355c62326d9","650c16f0f2faf8d7a0d14c09","651c1bfc58d179ab672053ef","null","null","<p style=""font-size: 60px; font-family: BACS"">LAclArNlZ</p>","","","","","","","","",""
"html-keyboard-response","40","86055","0.0-8.0-0.32","60dee3200c7c3355c62326d9","650c16f0f2faf8d7a0d14c09","651c1bfc58d179ab672053ef","null","null","<p style=""font-size: 60px; font-family: BACS"">kNuaGrub</p>","","","","","","","","",""
"html-keyboard-response","41","87057","0.0-8.0-0.33","60dee3200c7c3355c62326d9","650c16f0f2faf8d7a0d14c09","651c1bfc58d179ab672053ef","null","null","<p style=""font-size: 60px; font-family: BACS"">TklDkMEC</p>","","","","","","","","",""
"html-keyboard-response","42","88070","0.0-8.0-0.34","60dee3200c7c3355c62326d9","650c16f0f2faf8d7a0d14c09","651c1bfc58d179ab672053ef","null","null","<p style=""font-size: 60px; font-family: BACS"">rbYbuGUOA</p>","","","","","","","","",""
"html-keyboard-response","43","89073","0.0-8.0-0.35","60dee3200c7c3355c62326d9","650c16f0f2faf8d7a0d14c09","651c1bfc58d179ab672053ef","null","null","<p style=""font-size: 60px; font-family: BACS"">mARMdBC</p>","","","","","","","","",""
"html-keyboard-response","44","90088","0.0-8.0-0.36","60dee3200c7c3355c62326d9","650c16f0f2faf8d7a0d14c09","651c1bfc58d179ab672053ef","null","null","<p style=""font-size: 60px; font-family: BACS"">YlYcbAMO</p>","","","","","","","","",""
"html-keyboard-response","45","91105","0.0-8.0-0.37","60dee3200c7c3355c62326d9","650c16f0f2faf8d7a0d14c09","651c1bfc58d179ab672053ef","null","null","<p style=""font-size: 60px; font-family: BACS"">TbKMEOtM</p>","","","","","","","","",""
"html-keyboard-response","46","92106","0.0-8.0-0.38","60dee3200c7c3355c62326d9","650c16f0f2faf8d7a0d14c09","651c1bfc58d179ab672053ef","null","null","<p style=""font-size: 60px; font-family: BACS"">EhbtkKE</p>","","","","","","","","",""
"html-keyboard-response","47","93120","0.0-8.0-0.39","60dee3200c7c3355c62326d9","650c16f0f2faf8d7a0d14c09","651c1bfc58d179ab672053ef","null","null","<p style=""font-size: 60px; font-family: BACS"">dmZvmGUOA</p>","","","","","","","","",""
"html-keyboard-response","48","94123","0.0-8.0-0.40","60dee3200c7c3355c62326d9","650c16f0f2faf8d7a0d14c09","651c1bfc58d179ab672053ef","null","null","<p style=""font-size: 60px; font-family: BACS"">BbODOtM</p>","","","","","","","","",""
"html-keyboard-response","49","95138","0.0-8.0-0.41","60dee3200c7c3355c62326d9","650c16f0f2faf8d7a0d14c09","651c1bfc58d179ab672053ef","null","null","<p style=""font-size: 60px; font-family: BACS"">rkJuGrub</p>","","","","","","","","",""
"html-keyboard-response","50","96139","0.0-8.0-0.42","60dee3200c7c3355c62326d9","650c16f0f2faf8d7a0d14c09","651c1bfc58d179ab672053ef","null","null","<p style=""font-size: 60px; font-family: BACS"">rbYbuLcO</p>","","","","","","","","",""
"html-keyboard-response","51","97149","0.0-8.0-0.43","60dee3200c7c3355c62326d9","650c16f0f2faf8d7a0d14c09","651c1bfc58d179ab672053ef","null","null","<p style=""font-size: 60px; font-family: BACS"">TklDbAMO</p>","","","","","","","","",""
"html-keyboard-response","52","98151","0.0-8.0-0.44","60dee3200c7c3355c62326d9","650c16f0f2faf8d7a0d14c09","651c1bfc58d179ab672053ef","null","null","<p style=""font-size: 60px; font-family: BACS"">OmtlDdBC</p>","","","","","","","","",""
"html-keyboard-response","53","99154","0.0-8.0-0.45","60dee3200c7c3355c62326d9","650c16f0f2faf8d7a0d14c09","651c1bfc58d179ab672053ef","null","null","<p style=""font-size: 60px; font-family: BACS"">GLluAYZJO</p>","","","","","","","","",""
"html-keyboard-response","54","100156","0.0-8.0-0.46","60dee3200c7c3355c62326d9","650c16f0f2faf8d7a0d14c09","651c1bfc58d179ab672053ef","null","null","<p style=""font-size: 60px; font-family: BACS"">TklDOtM</p>","","","","","","","","",""
"html-keyboard-response","55","101169","0.0-8.0-0.47","60dee3200c7c3355c62326d9","650c16f0f2faf8d7a0d14c09","651c1bfc58d179ab672053ef","null","null","<p style=""font-size: 60px; font-family: BACS"">vmuLlrNlZ</p>","","","","","","","","",""
"html-keyboard-response","56","102186","0.0-8.0-0.48","60dee3200c7c3355c62326d9","650c16f0f2faf8d7a0d14c09","651c1bfc58d179ab672053ef","null","null","<p style=""font-size: 60px; font-family: BACS"">PdDTbAMO</p>","","","","","","","","",""
"html-keyboard-response","57","103187","0.0-8.0-0.49","60dee3200c7c3355c62326d9","650c16f0f2faf8d7a0d14c09","651c1bfc58d179ab672053ef","null","null","<p style=""font-size: 60px; font-family: BACS"">TbKMEkMEC</p>","","","","","","","","",""
"html-keyboard-response","58","104189","0.0-8.0-0.50","60dee3200c7c3355c62326d9","650c16f0f2faf8d7a0d14c09","651c1bfc58d179ab672053ef","null","null","<p style=""font-size: 60px; font-family: BACS"">kNuaLcO</p>","","","","","","","","",""
"html-keyboard-response","59","105204","0.0-8.0-0.51","60dee3200c7c3355c62326d9","650c16f0f2faf8d7a0d14c09","651c1bfc58d179ab672053ef","null","null","<p style=""font-size: 60px; font-family: BACS"">dmZvmYZJO</p>","","","","","","","","",""
"html-keyboard-response","60","106218","0.0-8.0-0.52","60dee3200c7c3355c62326d9","650c16f0f2faf8d7a0d14c09","651c1bfc58d179ab672053ef","null","null","<p style=""font-size: 60px; font-family: BACS"">vuJZuLcO</p>","","","","","","","","",""
"html-keyboard-response","61","107222","0.0-8.0-0.53","60dee3200c7c3355c62326d9","650c16f0f2faf8d7a0d14c09","651c1bfc58d179ab672053ef","null","null","<p style=""font-size: 60px; font-family: BACS"">vmuLlYZJO</p>","","","","","","","","",""
"html-keyboard-response","62","108224","0.0-8.0-0.54","60dee3200c7c3355c62326d9","650c16f0f2faf8d7a0d14c09","651c1bfc58d179ab672053ef","null","null","<p style=""font-size: 60px; font-family: BACS"">BbODdBC</p>","","","","","","","","",""
"html-keyboard-response","63","109235","0.0-8.0-0.55","60dee3200c7c3355c62326d9","650c16f0f2faf8d7a0d14c09","651c1bfc58d179ab672053ef","null","null","<p style=""font-size: 60px; font-family: BACS"">GLluALcO</p>","","","","","","","","",""
"html-keyboard-response","64","110238","0.0-8.0-0.56","60dee3200c7c3355c62326d9","650c16f0f2faf8d7a0d14c09","651c1bfc58d179ab672053ef","null","null","<p style=""font-size: 60px; font-family: BACS"">OmtlDkKE</p>","","","","","","","","",""
"html-keyboard-response","65","111252","0.0-8.0-0.57","60dee3200c7c3355c62326d9","650c16f0f2faf8d7a0d14c09","651c1bfc58d179ab672053ef","null","null","<p style=""font-size: 60px; font-family: BACS"">lBlEbAMO</p>","","","","","","","","",""
"html-keyboard-response","66","112254","0.0-8.0-0.58","60dee3200c7c3355c62326d9","650c16f0f2faf8d7a0d14c09","651c1bfc58d179ab672053ef","null","null","<p style=""font-size: 60px; font-family: BACS"">GJGcZrNlZ</p>","","","","","","","","",""
"html-keyboard-response","67","113267","0.0-8.0-0.59","60dee3200c7c3355c62326d9","650c16f0f2faf8d7a0d14c09","651c1bfc58d179ab672053ef","null","null","<p style=""font-size: 60px; font-family: BACS"">rkJuGUOA</p>","","","","","","","","",""
"html-keyboard-response","68","114271","0.0-8.0-0.60","60dee3200c7c3355c62326d9","650c16f0f2faf8d7a0d14c09","651c1bfc58d179ab672053ef","null","null","<p style=""font-size: 60px; font-family: BACS"">PdDTkKE</p>","","","","","","","","",""
"html-keyboard-response","69","115287","0.0-8.0-0.61","60dee3200c7c3355c62326d9","650c16f0f2faf8d7a0d14c09","651c1bfc58d179ab672053ef","null","null","<p style=""font-size: 60px; font-family: BACS"">lBlEOtM</p>","","","","","","","","",""
"html-keyboard-response","70","116301","0.0-8.0-0.62","60dee3200c7c3355c62326d9","650c16f0f2faf8d7a0d14c09","651c1bfc58d179ab672053ef","null","null","<p style=""font-size: 60px; font-family: BACS"">kNuarNlZ</p>","","","","","","","","",""
"html-keyboard-response","71","117305","0.0-8.0-0.63","60dee3200c7c3355c62326d9","650c16f0f2faf8d7a0d14c09","651c1bfc58d179ab672053ef","null","null","<p style=""font-size: 60px; font-family: BACS"">YlYckMEC</p>","","","","","","","","",""
"html-keyboard-response","72","118306","0.0-8.0-0.64","60dee3200c7c3355c62326d9","650c16f0f2faf8d7a0d14c09","651c1bfc58d179ab672053ef","null","null","<p style=""font-size: 60px; font-family: BACS"">dmZvmGrub</p>","","","","","","","","",""
"html-keyboard-response","73","119320","0.0-8.0-0.65","60dee3200c7c3355c62326d9","650c16f0f2faf8d7a0d14c09","651c1bfc58d179ab672053ef","null","null","<p style=""font-size: 60px; font-family: BACS"">QLrOJGUOA</p>","","","","","","","","",""
"html-keyboard-response","74","120322","0.0-8.0-0.66","60dee3200c7c3355c62326d9","650c16f0f2faf8d7a0d14c09","651c1bfc58d179ab672053ef","null","null","<p style=""font-size: 60px; font-family: BACS"">EhbtbAMO</p>","","","","","","","","",""
"html-keyboard-response","75","121324","0.0-8.0-0.67","60dee3200c7c3355c62326d9","650c16f0f2faf8d7a0d14c09","651c1bfc58d179ab672053ef","null","null","<p style=""font-size: 60px; font-family: BACS"">QLrOJrNlZ</p>","","","","","","","","",""
"html-keyboard-response","76","122326","0.0-8.0-0.68","60dee3200c7c3355c62326d9","650c16f0f2faf8d7a0d14c09","651c1bfc58d179ab672053ef","null","null","<p style=""font-size: 60px; font-family: BACS"">RkmdCbAMO</p>","","","","","","","","",""
"html-keyboard-response","77","123328","0.0-8.0-0.69","60dee3200c7c3355c62326d9","650c16f0f2faf8d7a0d14c09","651c1bfc58d179ab672053ef","null","null","<p style=""font-size: 60px; font-family: BACS"">mARMkKE</p>","","","","","","","","",""
"html-keyboard-response","78","124334","0.0-8.0-0.70","60dee3200c7c3355c62326d9","650c16f0f2faf8d7a0d14c09","651c1bfc58d179ab672053ef","null","null","<p style=""font-size: 60px; font-family: BACS"">TbKMEbAMO</p>","","","","","","","","",""
"html-keyboard-response","79","125336","0.0-8.0-0.71","60dee3200c7c3355c62326d9","650c16f0f2faf8d7a0d14c09","651c1bfc58d179ab672053ef","null","null","<p style=""font-size: 60px; font-family: BACS"">LAclAGUOA</p>","","","","","","","","",""
"html-keyboard-response","80","126350","0.0-8.0-0.72","60dee3200c7c3355c62326d9","650c16f0f2faf8d7a0d14c09","651c1bfc58d179ab672053ef","null","null","<p style=""font-size: 60px; font-family: BACS"">dmZvmrNlZ</p>","","","","","","","","",""
"html-keyboard-response","81","127352","0.0-8.0-0.73","60dee3200c7c3355c62326d9","650c16f0f2faf8d7a0d14c09","651c1bfc58d179ab672053ef","null","null","<p style=""font-size: 60px; font-family: BACS"">LAclALcO</p>","","","","","","","","",""
"html-keyboard-response","82","128368","0.0-8.0-0.74","60dee3200c7c3355c62326d9","650c16f0f2faf8d7a0d14c09","651c1bfc58d179ab672053ef","null","null","<p style=""font-size: 60px; font-family: BACS"">OmtlDkMEC</p>","","","","","","","","",""
"html-keyboard-response","83","129383","0.0-8.0-0.75","60dee3200c7c3355c62326d9","650c16f0f2faf8d7a0d14c09","651c1bfc58d179ab672053ef","null","null","<p style=""font-size: 60px; font-family: BACS"">PdDTOtM</p>","","","","","","","","",""
"html-keyboard-response","84","130402","0.0-8.0-0.76","60dee3200c7c3355c62326d9","650c16f0f2faf8d7a0d14c09","651c1bfc58d179ab672053ef","null","null","<p style=""font-size: 60px; font-family: BACS"">vmuLlGUOA</p>","","","","","","","","",""
"html-keyboard-response","85","131417","0.0-8.0-0.77","60dee3200c7c3355c62326d9","650c16f0f2faf8d7a0d14c09","651c1bfc58d179ab672053ef","null","null","<p style=""font-size: 60px; font-family: BACS"">QLrOJLcO</p>","","","","","","","","",""
"html-keyboard-response","86","132419","0.0-8.0-0.78","60dee3200c7c3355c62326d9","650c16f0f2faf8d7a0d14c09","651c1bfc58d179ab672053ef","null","null","<p style=""font-size: 60px; font-family: BACS"">rbYbuYZJO</p>","","","","","","","","",""
"html-keyboard-response","87","133432","0.0-8.0-0.79","60dee3200c7c3355c62326d9","650c16f0f2faf8d7a0d14c09","651c1bfc58d179ab672053ef","null","null","<p style=""font-size: 60px; font-family: BACS"">vmuLlLcO</p>","","","","","","","","",""
"html-keyboard-response","88","141868","0.0-9.0","60dee3200c7c3355c62326d9","650c16f0f2faf8d7a0d14c09","651c1bfc58d179ab672053ef","8436"," ","<p>Great, you've seen the first block of words. You may now take a short break.</p>
      <p>Press the spacebar when you're ready to continue.</p>","","","","","","","","",""
"html-keyboard-response","89","142882","0.0-10.0-0.0","60dee3200c7c3355c62326d9","650c16f0f2faf8d7a0d14c09","651c1bfc58d179ab672053ef","null","null","<p style=""font-size: 60px; font-family: BACS"">rkJuYZJO</p>","","","","","","","","",""
"html-keyboard-response","90","143884","0.0-10.0-0.1","60dee3200c7c3355c62326d9","650c16f0f2faf8d7a0d14c09","651c1bfc58d179ab672053ef","null","null","<p style=""font-size: 60px; font-family: BACS"">vmuLlrNlZ</p>","","","","","","","","",""
"html-keyboard-response","91","144886","0.0-10.0-0.2","60dee3200c7c3355c62326d9","650c16f0f2faf8d7a0d14c09","651c1bfc58d179ab672053ef","null","null","<p style=""font-size: 60px; font-family: BACS"">rkJuGrub</p>","","","","","","","","",""
"html-keyboard-response","92","145898","0.0-10.0-0.3","60dee3200c7c3355c62326d9","650c16f0f2faf8d7a0d14c09","651c1bfc58d179ab672053ef","null","null","<p style=""font-size: 60px; font-family: BACS"">mARMdBC</p>","","","","","","","","",""
"html-keyboard-response","93","146900","0.0-10.0-0.4","60dee3200c7c3355c62326d9","650c16f0f2faf8d7a0d14c09","651c1bfc58d179ab672053ef","null","null","<p style=""font-size: 60px; font-family: BACS"">vmuLlGUOA</p>","","","","","","","","",""
"html-keyboard-response","94","147902","0.0-10.0-0.5","60dee3200c7c3355c62326d9","650c16f0f2faf8d7a0d14c09","651c1bfc58d179ab672053ef","null","null","<p style=""font-size: 60px; font-family: BACS"">EhbtOtM</p>","","","","","","","","",""
"html-keyboard-response","95","148914","0.0-10.0-0.6","60dee3200c7c3355c62326d9","650c16f0f2faf8d7a0d14c09","651c1bfc58d179ab672053ef","null","null","<p style=""font-size: 60px; font-family: BACS"">GJGcZrNlZ</p>","","","","","","","","",""
"html-keyboard-response","96","149917","0.0-10.0-0.7","60dee3200c7c3355c62326d9","650c16f0f2faf8d7a0d14c09","651c1bfc58d179ab672053ef","null","null","<p style=""font-size: 60px; font-family: BACS"">RkmdCbAMO</p>","","","","","","","","",""
"html-keyboard-response","97","150934","0.0-10.0-0.8","60dee3200c7c3355c62326d9","650c16f0f2faf8d7a0d14c09","651c1bfc58d179ab672053ef","null","null","<p style=""font-size: 60px; font-family: BACS"">lBlEOtM</p>","","","","","","","","",""
"html-keyboard-response","98","151936","0.0-10.0-0.9","60dee3200c7c3355c62326d9","650c16f0f2faf8d7a0d14c09","651c1bfc58d179ab672053ef","null","null","<p style=""font-size: 60px; font-family: BACS"">vmuLlYZJO</p>","","","","","","","","",""
"html-keyboard-response","99","152949","0.0-10.0-0.10","60dee3200c7c3355c62326d9","650c16f0f2faf8d7a0d14c09","651c1bfc58d179ab672053ef","null","null","<p style=""font-size: 60px; font-family: BACS"">rkJuLcO</p>","","","","","","","","",""
"html-keyboard-response","100","153964","0.0-10.0-0.11","60dee3200c7c3355c62326d9","650c16f0f2faf8d7a0d14c09","651c1bfc58d179ab672053ef","null","null","<p style=""font-size: 60px; font-family: BACS"">dmZvmGUOA</p>","","","","","","","","",""
"html-keyboard-response","101","154966","0.0-10.0-0.12","60dee3200c7c3355c62326d9","650c16f0f2faf8d7a0d14c09","651c1bfc58d179ab672053ef","null","null","<p style=""font-size: 60px; font-family: BACS"">GLluAGrub</p>","","","","","","","","",""
"html-keyboard-response","102","155980","0.0-10.0-0.13","60dee3200c7c3355c62326d9","650c16f0f2faf8d7a0d14c09","651c1bfc58d179ab672053ef","null","null","<p style=""font-size: 60px; font-family: BACS"">lBlEkMEC</p>","","","","","","","","",""
"html-keyboard-response","103","156996","0.0-10.0-0.14","60dee3200c7c3355c62326d9","650c16f0f2faf8d7a0d14c09","651c1bfc58d179ab672053ef","null","null","<p style=""font-size: 60px; font-family: BACS"">YlYcbAMO</p>","","","","","","","","",""
"html-keyboard-response","104","157999","0.0-10.0-0.15","60dee3200c7c3355c62326d9","650c16f0f2faf8d7a0d14c09","651c1bfc58d179ab672053ef","null","null","<p style=""font-size: 60px; font-family: BACS"">LAclArNlZ</p>","","","","","","","","",""
"html-keyboard-response","105","159013","0.0-10.0-0.16","60dee3200c7c3355c62326d9","650c16f0f2faf8d7a0d14c09","651c1bfc58d179ab672053ef","null","null","<p style=""font-size: 60px; font-family: BACS"">EhbtbAMO</p>","","","","","","","","",""
"html-keyboard-response","106","160016","0.0-10.0-0.17","60dee3200c7c3355c62326d9","650c16f0f2faf8d7a0d14c09","651c1bfc58d179ab672053ef","null","null","<p style=""font-size: 60px; font-family: BACS"">PdDTOtM</p>","","","","","","","","",""
"html-keyboard-response","107","161017","0.0-10.0-0.18","60dee3200c7c3355c62326d9","650c16f0f2faf8d7a0d14c09","651c1bfc58d179ab672053ef","null","null","<p style=""font-size: 60px; font-family: BACS"">OmtlDdBC</p>","","","","","","","","",""
"html-keyboard-response","108","162029","0.0-10.0-0.19","60dee3200c7c3355c62326d9","650c16f0f2faf8d7a0d14c09","651c1bfc58d179ab672053ef","null","null","<p style=""font-size: 60px; font-family: BACS"">LAclAGUOA</p>","","","","","","","","",""
"html-keyboard-response","109","163044","0.0-10.0-0.20","60dee3200c7c3355c62326d9","650c16f0f2faf8d7a0d14c09","651c1bfc58d179ab672053ef","null","null","<p style=""font-size: 60px; font-family: BACS"">vuJZurNlZ</p>","","","","","","","","",""
"html-keyboard-response","110","164046","0.0-10.0-0.21","60dee3200c7c3355c62326d9","650c16f0f2faf8d7a0d14c09","651c1bfc58d179ab672053ef","null","null","<p style=""font-size: 60px; font-family: BACS"">GJGcZGrub</p>","","","","","","","","",""
"html-keyboard-response","111","165048","0.0-10.0-0.22","60dee3200c7c3355c62326d9","650c16f0f2faf8d7a0d14c09","651c1bfc58d179ab672053ef","null","null","<p style=""font-size: 60px; font-family: BACS"">RkmdCdBC</p>","","","","","","","","",""
"html-keyboard-response","112","166050","0.0-10.0-0.23","60dee3200c7c3355c62326d9","650c16f0f2faf8d7a0d14c09","651c1bfc58d179ab672053ef","null","null","<p style=""font-size: 60px; font-family: BACS"">BbODOtM</p>","","","","","","","","",""
"html-keyboard-response","113","167052","0.0-10.0-0.24","60dee3200c7c3355c62326d9","650c16f0f2faf8d7a0d14c09","651c1bfc58d179ab672053ef","null","null","<p style=""font-size: 60px; font-family: BACS"">rbYbuYZJO</p>","","","","","","","","",""
"html-keyboard-response","114","168055","0.0-10.0-0.25","60dee3200c7c3355c62326d9","650c16f0f2faf8d7a0d14c09","651c1bfc58d179ab672053ef","null","null","<p style=""font-size: 60px; font-family: BACS"">OmtlDkMEC</p>","","","","","","","","",""
"html-keyboard-response","115","169062","0.0-10.0-0.26","60dee3200c7c3355c62326d9","650c16f0f2faf8d7a0d14c09","651c1bfc58d179ab672053ef","null","null","<p style=""font-size: 60px; font-family: BACS"">dmZvmGrub</p>","","","","","","","","",""
"html-keyboard-response","116","170064","0.0-10.0-0.27","60dee3200c7c3355c62326d9","650c16f0f2faf8d7a0d14c09","651c1bfc58d179ab672053ef","null","null","<p style=""font-size: 60px; font-family: BACS"">TklDbAMO</p>","","","","","","","","",""
"html-keyboard-response","117","171075","0.0-10.0-0.28","60dee3200c7c3355c62326d9","650c16f0f2faf8d7a0d14c09","651c1bfc58d179ab672053ef","null","null","<p style=""font-size: 60px; font-family: BACS"">BbODkKE</p>","","","","","","","","",""
"html-keyboard-response","118","172076","0.0-10.0-0.29","60dee3200c7c3355c62326d9","650c16f0f2faf8d7a0d14c09","651c1bfc58d179ab672053ef","null","null","<p style=""font-size: 60px; font-family: BACS"">rbYbuLcO</p>","","","","","","","","",""
"html-keyboard-response","119","173078","0.0-10.0-0.30","60dee3200c7c3355c62326d9","650c16f0f2faf8d7a0d14c09","651c1bfc58d179ab672053ef","null","null","<p style=""font-size: 60px; font-family: BACS"">YlYckKE</p>","","","","","","","","",""
"html-keyboard-response","120","174080","0.0-10.0-0.31","60dee3200c7c3355c62326d9","650c16f0f2faf8d7a0d14c09","651c1bfc58d179ab672053ef","null","null","<p style=""font-size: 60px; font-family: BACS"">vuJZuLcO</p>","","","","","","","","",""
"html-keyboard-response","121","175095","0.0-10.0-0.32","60dee3200c7c3355c62326d9","650c16f0f2faf8d7a0d14c09","651c1bfc58d179ab672053ef","null","null","<p style=""font-size: 60px; font-family: BACS"">rbYbuGUOA</p>","","","","","","","","",""
"html-keyboard-response","122","176096","0.0-10.0-0.33","60dee3200c7c3355c62326d9","650c16f0f2faf8d7a0d14c09","651c1bfc58d179ab672053ef","null","null","<p style=""font-size: 60px; font-family: BACS"">kNuaGrub</p>","","","","","","","","",""
"html-keyboard-response","123","177110","0.0-10.0-0.34","60dee3200c7c3355c62326d9","650c16f0f2faf8d7a0d14c09","651c1bfc58d179ab672053ef","null","null","<p style=""font-size: 60px; font-family: BACS"">TbKMEbAMO</p>","","","","","","","","",""
"html-keyboard-response","124","178112","0.0-10.0-0.35","60dee3200c7c3355c62326d9","650c16f0f2faf8d7a0d14c09","651c1bfc58d179ab672053ef","null","null","<p style=""font-size: 60px; font-family: BACS"">PdDTkKE</p>","","","","","","","","",""
"html-keyboard-response","125","179126","0.0-10.0-0.36","60dee3200c7c3355c62326d9","650c16f0f2faf8d7a0d14c09","651c1bfc58d179ab672053ef","null","null","<p style=""font-size: 60px; font-family: BACS"">TklDOtM</p>","","","","","","","","",""
"html-keyboard-response","126","180128","0.0-10.0-0.37","60dee3200c7c3355c62326d9","650c16f0f2faf8d7a0d14c09","651c1bfc58d179ab672053ef","null","null","<p style=""font-size: 60px; font-family: BACS"">GJGcZGUOA</p>","","","","","","","","",""
"html-keyboard-response","127","181143","0.0-10.0-0.38","60dee3200c7c3355c62326d9","650c16f0f2faf8d7a0d14c09","651c1bfc58d179ab672053ef","null","null","<p style=""font-size: 60px; font-family: BACS"">RkmdCkMEC</p>","","","","","","","","",""
"html-keyboard-response","128","182145","0.0-10.0-0.39","60dee3200c7c3355c62326d9","650c16f0f2faf8d7a0d14c09","651c1bfc58d179ab672053ef","null","null","<p style=""font-size: 60px; font-family: BACS"">lBlEdBC</p>","","","","","","","","",""
"html-keyboard-response","129","183159","0.0-10.0-0.40","60dee3200c7c3355c62326d9","650c16f0f2faf8d7a0d14c09","651c1bfc58d179ab672053ef","null","null","<p style=""font-size: 60px; font-family: BACS"">TbKMEkMEC</p>","","","","","","","","",""
"html-keyboard-response","130","184162","0.0-10.0-0.41","60dee3200c7c3355c62326d9","650c16f0f2faf8d7a0d14c09","651c1bfc58d179ab672053ef","null","null","<p style=""font-size: 60px; font-family: BACS"">dmZvmYZJO</p>","","","","","","","","",""
"html-keyboard-response","131","185177","0.0-10.0-0.42","60dee3200c7c3355c62326d9","650c16f0f2faf8d7a0d14c09","651c1bfc58d179ab672053ef","null","null","<p style=""font-size: 60px; font-family: BACS"">kNuaLcO</p>","","","","","","","","",""
"html-keyboard-response","132","186191","0.0-10.0-0.43","60dee3200c7c3355c62326d9","650c16f0f2faf8d7a0d14c09","651c1bfc58d179ab672053ef","null","null","<p style=""font-size: 60px; font-family: BACS"">RkmdCkKE</p>","","","","","","","","",""
"html-keyboard-response","133","187194","0.0-10.0-0.44","60dee3200c7c3355c62326d9","650c16f0f2faf8d7a0d14c09","651c1bfc58d179ab672053ef","null","null","<p style=""font-size: 60px; font-family: BACS"">kNuarNlZ</p>","","","","","","","","",""
"html-keyboard-response","134","188210","0.0-10.0-0.45","60dee3200c7c3355c62326d9","650c16f0f2faf8d7a0d14c09","651c1bfc58d179ab672053ef","null","null","<p style=""font-size: 60px; font-family: BACS"">OmtlDkKE</p>","","","","","","","","",""
"html-keyboard-response","135","189212","0.0-10.0-0.46","60dee3200c7c3355c62326d9","650c16f0f2faf8d7a0d14c09","651c1bfc58d179ab672053ef","null","null","<p style=""font-size: 60px; font-family: BACS"">QLrOJrNlZ</p>","","","","","","","","",""
"html-keyboard-response","136","190226","0.0-10.0-0.47","60dee3200c7c3355c62326d9","650c16f0f2faf8d7a0d14c09","651c1bfc58d179ab672053ef","null","null","<p style=""font-size: 60px; font-family: BACS"">GLluALcO</p>","","","","","","","","",""
"html-keyboard-response","137","191230","0.0-10.0-0.48","60dee3200c7c3355c62326d9","650c16f0f2faf8d7a0d14c09","651c1bfc58d179ab672053ef","null","null","<p style=""font-size: 60px; font-family: BACS"">vuJZuYZJO</p>","","","","","","","","",""
"html-keyboard-response","138","192242","0.0-10.0-0.49","60dee3200c7c3355c62326d9","650c16f0f2faf8d7a0d14c09","651c1bfc58d179ab672053ef","null","null","<p style=""font-size: 60px; font-family: BACS"">TbKMEOtM</p>","","","","","","","","",""
"html-keyboard-response","139","193244","0.0-10.0-0.50","60dee3200c7c3355c62326d9","650c16f0f2faf8d7a0d14c09","651c1bfc58d179ab672053ef","null","null","<p style=""font-size: 60px; font-family: BACS"">vmuLlLcO</p>","","","","","","","","",""
"html-keyboard-response","140","194258","0.0-10.0-0.51","60dee3200c7c3355c62326d9","650c16f0f2faf8d7a0d14c09","651c1bfc58d179ab672053ef","null","null","<p style=""font-size: 60px; font-family: BACS"">OmtlDOtM</p>","","","","","","","","",""
"html-keyboard-response","141","195260","0.0-10.0-0.52","60dee3200c7c3355c62326d9","650c16f0f2faf8d7a0d14c09","651c1bfc58d179ab672053ef","null","null","<p style=""font-size: 60px; font-family: BACS"">GLluArNlZ</p>","","","","","","","","",""
"html-keyboard-response","142","196275","0.0-10.0-0.53","60dee3200c7c3355c62326d9","650c16f0f2faf8d7a0d14c09","651c1bfc58d179ab672053ef","null","null","<p style=""font-size: 60px; font-family: BACS"">lBlEbAMO</p>","","","","","","","","",""
"html-keyboard-response","143","197277","0.0-10.0-0.54","60dee3200c7c3355c62326d9","650c16f0f2faf8d7a0d14c09","651c1bfc58d179ab672053ef","null","null","<p style=""font-size: 60px; font-family: BACS"">GJGcZYZJO</p>","","","","","","","","",""
"html-keyboard-response","144","198292","0.0-10.0-0.55","60dee3200c7c3355c62326d9","650c16f0f2faf8d7a0d14c09","651c1bfc58d179ab672053ef","null","null","<p style=""font-size: 60px; font-family: BACS"">dmZvmrNlZ</p>","","","","","","","","",""
"html-keyboard-response","145","199309","0.0-10.0-0.56","60dee3200c7c3355c62326d9","650c16f0f2faf8d7a0d14c09","651c1bfc58d179ab672053ef","null","null","<p style=""font-size: 60px; font-family: BACS"">LAclALcO</p>","","","","","","","","",""
"html-keyboard-response","146","200310","0.0-10.0-0.57","60dee3200c7c3355c62326d9","650c16f0f2faf8d7a0d14c09","651c1bfc58d179ab672053ef","null","null","<p style=""font-size: 60px; font-family: BACS"">rkJuGUOA</p>","","","","","","","","",""
"html-keyboard-response","147","201325","0.0-10.0-0.58","60dee3200c7c3355c62326d9","650c16f0f2faf8d7a0d14c09","651c1bfc58d179ab672053ef","null","null","<p style=""font-size: 60px; font-family: BACS"">TklDdBC</p>","","","","","","","","",""
"html-keyboard-response","148","202327","0.0-10.0-0.59","60dee3200c7c3355c62326d9","650c16f0f2faf8d7a0d14c09","651c1bfc58d179ab672053ef","null","null","<p style=""font-size: 60px; font-family: BACS"">BbODkMEC</p>","","","","","","","","",""
"html-keyboard-response","149","203342","0.0-10.0-0.60","60dee3200c7c3355c62326d9","650c16f0f2faf8d7a0d14c09","651c1bfc58d179ab672053ef","null","null","<p style=""font-size: 60px; font-family: BACS"">GLluAYZJO</p>","","","","","","","","",""
"html-keyboard-response","150","204356","0.0-10.0-0.61","60dee3200c7c3355c62326d9","650c16f0f2faf8d7a0d14c09","651c1bfc58d179ab672053ef","null","null","<p style=""font-size: 60px; font-family: BACS"">EhbtdBC</p>","","","","","","","","",""
"html-keyboard-response","151","205358","0.0-10.0-0.62","60dee3200c7c3355c62326d9","650c16f0f2faf8d7a0d14c09","651c1bfc58d179ab672053ef","null","null","<p style=""font-size: 60px; font-family: BACS"">mARMOtM</p>","","","","","","","","",""
"html-keyboard-response","152","206373","0.0-10.0-0.63","60dee3200c7c3355c62326d9","650c16f0f2faf8d7a0d14c09","651c1bfc58d179ab672053ef","null","null","<p style=""font-size: 60px; font-family: BACS"">QLrOJGUOA</p>","","","","","","","","",""
"html-keyboard-response","153","207374","0.0-10.0-0.64","60dee3200c7c3355c62326d9","650c16f0f2faf8d7a0d14c09","651c1bfc58d179ab672053ef","null","null","<p style=""font-size: 60px; font-family: BACS"">mARMbAMO</p>","","","","","","","","",""
"html-keyboard-response","154","208389","0.0-10.0-0.65","60dee3200c7c3355c62326d9","650c16f0f2faf8d7a0d14c09","651c1bfc58d179ab672053ef","null","null","<p style=""font-size: 60px; font-family: BACS"">EhbtkKE</p>","","","","","","","","",""
"html-keyboard-response","155","209390","0.0-10.0-0.66","60dee3200c7c3355c62326d9","650c16f0f2faf8d7a0d14c09","651c1bfc58d179ab672053ef","null","null","<p style=""font-size: 60px; font-family: BACS"">vuJZuGUOA</p>","","","","","","","","",""
"html-keyboard-response","156","210390","0.0-10.0-0.67","60dee3200c7c3355c62326d9","650c16f0f2faf8d7a0d14c09","651c1bfc58d179ab672053ef","null","null","<p style=""font-size: 60px; font-family: BACS"">LAclAGrub</p>","","","","","","","","",""
"html-keyboard-response","157","211405","0.0-10.0-0.68","60dee3200c7c3355c62326d9","650c16f0f2faf8d7a0d14c09","651c1bfc58d179ab672053ef","null","null","<p style=""font-size: 60px; font-family: BACS"">kNuaYZJO</p>","","","","","","","","",""
"html-keyboard-response","158","212407","0.0-10.0-0.69","60dee3200c7c3355c62326d9","650c16f0f2faf8d7a0d14c09","651c1bfc58d179ab672053ef","null","null","<p style=""font-size: 60px; font-family: BACS"">BbODdBC</p>","","","","","","","","",""
"html-keyboard-response","159","213422","0.0-10.0-0.70","60dee3200c7c3355c62326d9","650c16f0f2faf8d7a0d14c09","651c1bfc58d179ab672053ef","null","null","<p style=""font-size: 60px; font-family: BACS"">QLrOJLcO</p>","","","","","","","","",""
"html-keyboard-response","160","214425","0.0-10.0-0.71","60dee3200c7c3355c62326d9","650c16f0f2faf8d7a0d14c09","651c1bfc58d179ab672053ef","null","null","<p style=""font-size: 60px; font-family: BACS"">PdDTbAMO</p>","","","","","","","","",""
"html-keyboard-response","161","215439","0.0-10.0-0.72","60dee3200c7c3355c62326d9","650c16f0f2faf8d7a0d14c09","651c1bfc58d179ab672053ef","null","null","<p style=""font-size: 60px; font-family: BACS"">TbKMEkKE</p>","","","","","","","","",""
"html-keyboard-response","162","216441","0.0-10.0-0.73","60dee3200c7c3355c62326d9","650c16f0f2faf8d7a0d14c09","651c1bfc58d179ab672053ef","null","null","<p style=""font-size: 60px; font-family: BACS"">YlYckMEC</p>","","","","","","","","",""
"html-keyboard-response","163","217457","0.0-10.0-0.74","60dee3200c7c3355c62326d9","650c16f0f2faf8d7a0d14c09","651c1bfc58d179ab672053ef","null","null","<p style=""font-size: 60px; font-family: BACS"">mARMkKE</p>","","","","","","","","",""
"html-keyboard-response","164","218473","0.0-10.0-0.75","60dee3200c7c3355c62326d9","650c16f0f2faf8d7a0d14c09","651c1bfc58d179ab672053ef","null","null","<p style=""font-size: 60px; font-family: BACS"">YlYcdBC</p>","","","","","","","","",""
"html-keyboard-response","165","219475","0.0-10.0-0.76","60dee3200c7c3355c62326d9","650c16f0f2faf8d7a0d14c09","651c1bfc58d179ab672053ef","null","null","<p style=""font-size: 60px; font-family: BACS"">QLrOJGrub</p>","","","","","","","","",""
"html-keyboard-response","166","220488","0.0-10.0-0.77","60dee3200c7c3355c62326d9","650c16f0f2faf8d7a0d14c09","651c1bfc58d179ab672053ef","null","null","<p style=""font-size: 60px; font-family: BACS"">PdDTkMEC</p>","","","","","","","","",""
"html-keyboard-response","167","221490","0.0-10.0-0.78","60dee3200c7c3355c62326d9","650c16f0f2faf8d7a0d14c09","651c1bfc58d179ab672053ef","null","null","<p style=""font-size: 60px; font-family: BACS"">rbYbuGrub</p>","","","","","","","","",""
"html-keyboard-response","168","222506","0.0-10.0-0.79","60dee3200c7c3355c62326d9","650c16f0f2faf8d7a0d14c09","651c1bfc58d179ab672053ef","null","null","<p style=""font-size: 60px; font-family: BACS"">TklDkMEC</p>","","","","","","","","",""
"html-keyboard-response","169","363069","0.0-11.0","60dee3200c7c3355c62326d9","650c16f0f2faf8d7a0d14c09","651c1bfc58d179ab672053ef","140562"," ","<p>Great, you've seen the second block of words. You may now take a short break.</p>
      <p>Press the spacebar when you're ready to continue.</p>","","","","","","","","",""
"html-keyboard-response","170","364073","0.0-12.0-0.0","60dee3200c7c3355c62326d9","650c16f0f2faf8d7a0d14c09","651c1bfc58d179ab672053ef","null","null","<p style=""font-size: 60px; font-family: BACS"">kNuaLcO</p>","","","","","","","","",""
"html-keyboard-response","171","365088","0.0-12.0-0.1","60dee3200c7c3355c62326d9","650c16f0f2faf8d7a0d14c09","651c1bfc58d179ab672053ef","null","null","<p style=""font-size: 60px; font-family: BACS"">EhbtOtM</p>","","","","","","","","",""
"html-keyboard-response","172","366091","0.0-12.0-0.2","60dee3200c7c3355c62326d9","650c16f0f2faf8d7a0d14c09","651c1bfc58d179ab672053ef","null","null","<p style=""font-size: 60px; font-family: BACS"">TbKMEkMEC</p>","","","","","","","","",""
"html-keyboard-response","173","367105","0.0-12.0-0.3","60dee3200c7c3355c62326d9","650c16f0f2faf8d7a0d14c09","651c1bfc58d179ab672053ef","null","null","<p style=""font-size: 60px; font-family: BACS"">GLluALcO</p>","","","","","","","","",""
"html-keyboard-response","174","368107","0.0-12.0-0.4","60dee3200c7c3355c62326d9","650c16f0f2faf8d7a0d14c09","651c1bfc58d179ab672053ef","null","null","<p style=""font-size: 60px; font-family: BACS"">PdDTkMEC</p>","","","","","","","","",""
"html-keyboard-response","175","369122","0.0-12.0-0.5","60dee3200c7c3355c62326d9","650c16f0f2faf8d7a0d14c09","651c1bfc58d179ab672053ef","null","null","<p style=""font-size: 60px; font-family: BACS"">vmuLlLcO</p>","","","","","","","","",""
"html-keyboard-response","176","370124","0.0-12.0-0.6","60dee3200c7c3355c62326d9","650c16f0f2faf8d7a0d14c09","651c1bfc58d179ab672053ef","null","null","<p style=""font-size: 60px; font-family: BACS"">LAclArNlZ</p>","","","","","","","","",""
"html-keyboard-response","177","371135","0.0-12.0-0.7","60dee3200c7c3355c62326d9","650c16f0f2faf8d7a0d14c09","651c1bfc58d179ab672053ef","null","null","<p style=""font-size: 60px; font-family: BACS"">mARMOtM</p>","","","","","","","","",""
"html-keyboard-response","178","372139","0.0-12.0-0.8","60dee3200c7c3355c62326d9","650c16f0f2faf8d7a0d14c09","651c1bfc58d179ab672053ef","null","null","<p style=""font-size: 60px; font-family: BACS"">TklDbAMO</p>","","","","","","","","",""
"html-keyboard-response","179","373140","0.0-12.0-0.9","60dee3200c7c3355c62326d9","650c16f0f2faf8d7a0d14c09","651c1bfc58d179ab672053ef","null","null","<p style=""font-size: 60px; font-family: BACS"">kNuarNlZ</p>","","","","","","","","",""
"html-keyboard-response","180","374155","0.0-12.0-0.10","60dee3200c7c3355c62326d9","650c16f0f2faf8d7a0d14c09","651c1bfc58d179ab672053ef","null","null","<p style=""font-size: 60px; font-family: BACS"">EhbtbAMO</p>","","","","","","","","",""
"html-keyboard-response","181","375156","0.0-12.0-0.11","60dee3200c7c3355c62326d9","650c16f0f2faf8d7a0d14c09","651c1bfc58d179ab672053ef","null","null","<p style=""font-size: 60px; font-family: BACS"">mARMkKE</p>","","","","","","","","",""
"html-keyboard-response","182","376172","0.0-12.0-0.12","60dee3200c7c3355c62326d9","650c16f0f2faf8d7a0d14c09","651c1bfc58d179ab672053ef","null","null","<p style=""font-size: 60px; font-family: BACS"">rbYbuGUOA</p>","","","","","","","","",""
"html-keyboard-response","183","377186","0.0-12.0-0.13","60dee3200c7c3355c62326d9","650c16f0f2faf8d7a0d14c09","651c1bfc58d179ab672053ef","null","null","<p style=""font-size: 60px; font-family: BACS"">EhbtkKE</p>","","","","","","","","",""
"html-keyboard-response","184","378188","0.0-12.0-0.14","60dee3200c7c3355c62326d9","650c16f0f2faf8d7a0d14c09","651c1bfc58d179ab672053ef","null","null","<p style=""font-size: 60px; font-family: BACS"">QLrOJGUOA</p>","","","","","","","","",""
"html-keyboard-response","185","379201","0.0-12.0-0.15","60dee3200c7c3355c62326d9","650c16f0f2faf8d7a0d14c09","651c1bfc58d179ab672053ef","null","null","<p style=""font-size: 60px; font-family: BACS"">lBlEOtM</p>","","","","","","","","",""
"html-keyboard-response","186","380205","0.0-12.0-0.16","60dee3200c7c3355c62326d9","650c16f0f2faf8d7a0d14c09","651c1bfc58d179ab672053ef","null","null","<p style=""font-size: 60px; font-family: BACS"">BbODkKE</p>","","","","","","","","",""
"html-keyboard-response","187","381221","0.0-12.0-0.17","60dee3200c7c3355c62326d9","650c16f0f2faf8d7a0d14c09","651c1bfc58d179ab672053ef","null","null","<p style=""font-size: 60px; font-family: BACS"">vmuLlrNlZ</p>","","","","","","","","",""
"html-keyboard-response","188","382222","0.0-12.0-0.18","60dee3200c7c3355c62326d9","650c16f0f2faf8d7a0d14c09","651c1bfc58d179ab672053ef","null","null","<p style=""font-size: 60px; font-family: BACS"">kNuaGrub</p>","","","","","","","","",""
"html-keyboard-response","189","383237","0.0-12.0-0.19","60dee3200c7c3355c62326d9","650c16f0f2faf8d7a0d14c09","651c1bfc58d179ab672053ef","null","null","<p style=""font-size: 60px; font-family: BACS"">dmZvmrNlZ</p>","","","","","","","","",""
"html-keyboard-response","190","384252","0.0-12.0-0.20","60dee3200c7c3355c62326d9","650c16f0f2faf8d7a0d14c09","651c1bfc58d179ab672053ef","null","null","<p style=""font-size: 60px; font-family: BACS"">LAclALcO</p>","","","","","","","","",""
"html-keyboard-response","191","385255","0.0-12.0-0.21","60dee3200c7c3355c62326d9","650c16f0f2faf8d7a0d14c09","651c1bfc58d179ab672053ef","null","null","<p style=""font-size: 60px; font-family: BACS"">GJGcZYZJO</p>","","","","","","","","",""
"html-keyboard-response","192","386270","0.0-12.0-0.22","60dee3200c7c3355c62326d9","650c16f0f2faf8d7a0d14c09","651c1bfc58d179ab672053ef","null","null","<p style=""font-size: 60px; font-family: BACS"">GLluAGrub</p>","","","","","","","","",""
"html-keyboard-response","193","387272","0.0-12.0-0.23","60dee3200c7c3355c62326d9","650c16f0f2faf8d7a0d14c09","651c1bfc58d179ab672053ef","null","null","<p style=""font-size: 60px; font-family: BACS"">vmuLlGUOA</p>","","","","","","","","",""
"html-keyboard-response","194","388286","0.0-12.0-0.24","60dee3200c7c3355c62326d9","650c16f0f2faf8d7a0d14c09","651c1bfc58d179ab672053ef","null","null","<p style=""font-size: 60px; font-family: BACS"">YlYckKE</p>","","","","","","","","",""
"html-keyboard-response","195","389288","0.0-12.0-0.25","60dee3200c7c3355c62326d9","650c16f0f2faf8d7a0d14c09","651c1bfc58d179ab672053ef","null","null","<p style=""font-size: 60px; font-family: BACS"">rbYbuLcO</p>","","","","","","","","",""
"html-keyboard-response","196","390303","0.0-12.0-0.26","60dee3200c7c3355c62326d9","650c16f0f2faf8d7a0d14c09","651c1bfc58d179ab672053ef","null","null","<p style=""font-size: 60px; font-family: BACS"">OmtlDkMEC</p>","","","","","","","","",""
"html-keyboard-response","197","391305","0.0-12.0-0.27","60dee3200c7c3355c62326d9","650c16f0f2faf8d7a0d14c09","651c1bfc58d179ab672053ef","null","null","<p style=""font-size: 60px; font-family: BACS"">dmZvmYZJO</p>","","","","","","","","",""
"html-keyboard-response","198","392318","0.0-12.0-0.28","60dee3200c7c3355c62326d9","650c16f0f2faf8d7a0d14c09","651c1bfc58d179ab672053ef","null","null","<p style=""font-size: 60px; font-family: BACS"">vuJZuGUOA</p>","","","","","","","","",""
"html-keyboard-response","199","393322","0.0-12.0-0.29","60dee3200c7c3355c62326d9","650c16f0f2faf8d7a0d14c09","651c1bfc58d179ab672053ef","null","null","<p style=""font-size: 60px; font-family: BACS"">RkmdCdBC</p>","","","","","","","","",""
"html-keyboard-response","200","394336","0.0-12.0-0.30","60dee3200c7c3355c62326d9","650c16f0f2faf8d7a0d14c09","651c1bfc58d179ab672053ef","null","null","<p style=""font-size: 60px; font-family: BACS"">rbYbuGrub</p>","","","","","","","","",""
"html-keyboard-response","201","395351","0.0-12.0-0.31","60dee3200c7c3355c62326d9","650c16f0f2faf8d7a0d14c09","651c1bfc58d179ab672053ef","null","null","<p style=""font-size: 60px; font-family: BACS"">EhbtdBC</p>","","","","","","","","",""
"html-keyboard-response","202","396354","0.0-12.0-0.32","60dee3200c7c3355c62326d9","650c16f0f2faf8d7a0d14c09","651c1bfc58d179ab672053ef","null","null","<p style=""font-size: 60px; font-family: BACS"">dmZvmGrub</p>","","","","","","","","",""
"html-keyboard-response","203","397369","0.0-12.0-0.33","60dee3200c7c3355c62326d9","650c16f0f2faf8d7a0d14c09","651c1bfc58d179ab672053ef","null","null","<p style=""font-size: 60px; font-family: BACS"">rbYbuYZJO</p>","","","","","","","","",""
"html-keyboard-response","204","398370","0.0-12.0-0.34","60dee3200c7c3355c62326d9","650c16f0f2faf8d7a0d14c09","651c1bfc58d179ab672053ef","null","null","<p style=""font-size: 60px; font-family: BACS"">LAclAGUOA</p>","","","","","","","","",""
"html-keyboard-response","205","399384","0.0-12.0-0.35","60dee3200c7c3355c62326d9","650c16f0f2faf8d7a0d14c09","651c1bfc58d179ab672053ef","null","null","<p style=""font-size: 60px; font-family: BACS"">vuJZurNlZ</p>","","","","","","","","",""
"html-keyboard-response","206","400387","0.0-12.0-0.36","60dee3200c7c3355c62326d9","650c16f0f2faf8d7a0d14c09","651c1bfc58d179ab672053ef","null","null","<p style=""font-size: 60px; font-family: BACS"">BbODkMEC</p>","","","","","","","","",""
"html-keyboard-response","207","401402","0.0-12.0-0.37","60dee3200c7c3355c62326d9","650c16f0f2faf8d7a0d14c09","651c1bfc58d179ab672053ef","null","null","<p style=""font-size: 60px; font-family: BACS"">GLluArNlZ</p>","","","","","","","","",""
"html-keyboard-response","208","402416","0.0-12.0-0.38","60dee3200c7c3355c62326d9","650c16f0f2faf8d7a0d14c09","651c1bfc58d179ab672053ef","null","null","<p style=""font-size: 60px; font-family: BACS"">rkJuLcO</p>","","","","","","","","",""
"html-keyboard-response","209","403420","0.0-12.0-0.39","60dee3200c7c3355c62326d9","650c16f0f2faf8d7a0d14c09","651c1bfc58d179ab672053ef","null","null","<p style=""font-size: 60px; font-family: BACS"">lBlEbAMO</p>","","","","","","","","",""
"html-keyboard-response","210","404435","0.0-12.0-0.40","60dee3200c7c3355c62326d9","650c16f0f2faf8d7a0d14c09","651c1bfc58d179ab672053ef","null","null","<p style=""font-size: 60px; font-family: BACS"">LAclAGrub</p>","","","","","","","","",""
"html-keyboard-response","211","405450","0.0-12.0-0.41","60dee3200c7c3355c62326d9","650c16f0f2faf8d7a0d14c09","651c1bfc58d179ab672053ef","null","null","<p style=""font-size: 60px; font-family: BACS"">TklDdBC</p>","","","","","","","","",""
"html-keyboard-response","212","406451","0.0-12.0-0.42","60dee3200c7c3355c62326d9","650c16f0f2faf8d7a0d14c09","651c1bfc58d179ab672053ef","null","null","<p style=""font-size: 60px; font-family: BACS"">lBlEkMEC</p>","","","","","","","","",""
"html-keyboard-response","213","407453","0.0-12.0-0.43","60dee3200c7c3355c62326d9","650c16f0f2faf8d7a0d14c09","651c1bfc58d179ab672053ef","null","null","<p style=""font-size: 60px; font-family: BACS"">TklDOtM</p>","","","","","","","","",""
"html-keyboard-response","214","408466","0.0-12.0-0.44","60dee3200c7c3355c62326d9","650c16f0f2faf8d7a0d14c09","651c1bfc58d179ab672053ef","null","null","<p style=""font-size: 60px; font-family: BACS"">QLrOJrNlZ</p>","","","","","","","","",""
"html-keyboard-response","215","409482","0.0-12.0-0.45","60dee3200c7c3355c62326d9","650c16f0f2faf8d7a0d14c09","651c1bfc58d179ab672053ef","null","null","<p style=""font-size: 60px; font-family: BACS"">PdDTkKE</p>","","","","","","","","",""
"html-keyboard-response","216","410484","0.0-12.0-0.46","60dee3200c7c3355c62326d9","650c16f0f2faf8d7a0d14c09","651c1bfc58d179ab672053ef","null","null","<p style=""font-size: 60px; font-family: BACS"">TklDkMEC</p>","","","","","","","","",""
"html-keyboard-response","217","411501","0.0-12.0-0.47","60dee3200c7c3355c62326d9","650c16f0f2faf8d7a0d14c09","651c1bfc58d179ab672053ef","null","null","<p style=""font-size: 60px; font-family: BACS"">QLrOJLcO</p>","","","","","","","","",""
"html-keyboard-response","218","412515","0.0-12.0-0.48","60dee3200c7c3355c62326d9","650c16f0f2faf8d7a0d14c09","651c1bfc58d179ab672053ef","null","null","<p style=""font-size: 60px; font-family: BACS"">BbODdBC</p>","","","","","","","","",""
"html-keyboard-response","219","413517","0.0-12.0-0.49","60dee3200c7c3355c62326d9","650c16f0f2faf8d7a0d14c09","651c1bfc58d179ab672053ef","null","null","<p style=""font-size: 60px; font-family: BACS"">rkJuGUOA</p>","","","","","","","","",""
"html-keyboard-response","220","414518","0.0-12.0-0.50","60dee3200c7c3355c62326d9","650c16f0f2faf8d7a0d14c09","651c1bfc58d179ab672053ef","null","null","<p style=""font-size: 60px; font-family: BACS"">RkmdCkKE</p>","","","","","","","","",""
"html-keyboard-response","221","415534","0.0-12.0-0.51","60dee3200c7c3355c62326d9","650c16f0f2faf8d7a0d14c09","651c1bfc58d179ab672053ef","null","null","<p style=""font-size: 60px; font-family: BACS"">vuJZuLcO</p>","","","","","","","","",""
"html-keyboard-response","222","416547","0.0-12.0-0.52","60dee3200c7c3355c62326d9","650c16f0f2faf8d7a0d14c09","651c1bfc58d179ab672053ef","null","null","<p style=""font-size: 60px; font-family: BACS"">OmtlDkKE</p>","","","","","","","","",""
"html-keyboard-response","223","417549","0.0-12.0-0.53","60dee3200c7c3355c62326d9","650c16f0f2faf8d7a0d14c09","651c1bfc58d179ab672053ef","null","null","<p style=""font-size: 60px; font-family: BACS"">RkmdCkMEC</p>","","","","","","","","",""
"html-keyboard-response","224","418551","0.0-12.0-0.54","60dee3200c7c3355c62326d9","650c16f0f2faf8d7a0d14c09","651c1bfc58d179ab672053ef","null","null","<p style=""font-size: 60px; font-family: BACS"">YlYcdBC</p>","","","","","","","","",""
"html-keyboard-response","225","419566","0.0-12.0-0.55","60dee3200c7c3355c62326d9","650c16f0f2faf8d7a0d14c09","651c1bfc58d179ab672053ef","null","null","<p style=""font-size: 60px; font-family: BACS"">dmZvmGUOA</p>","","","","","","","","",""
"html-keyboard-response","226","420581","0.0-12.0-0.56","60dee3200c7c3355c62326d9","650c16f0f2faf8d7a0d14c09","651c1bfc58d179ab672053ef","null","null","<p style=""font-size: 60px; font-family: BACS"">PdDTOtM</p>","","","","","","","","",""
"html-keyboard-response","227","421583","0.0-12.0-0.57","60dee3200c7c3355c62326d9","650c16f0f2faf8d7a0d14c09","651c1bfc58d179ab672053ef","null","null","<p style=""font-size: 60px; font-family: BACS"">QLrOJGrub</p>","","","","","","","","",""
"html-keyboard-response","228","422584","0.0-12.0-0.58","60dee3200c7c3355c62326d9","650c16f0f2faf8d7a0d14c09","651c1bfc58d179ab672053ef","null","null","<p style=""font-size: 60px; font-family: BACS"">vmuLlYZJO</p>","","","","","","","","",""
"html-keyboard-response","229","423599","0.0-12.0-0.59","60dee3200c7c3355c62326d9","650c16f0f2faf8d7a0d14c09","651c1bfc58d179ab672053ef","null","null","<p style=""font-size: 60px; font-family: BACS"">RkmdCbAMO</p>","","","","","","","","",""
"html-keyboard-response","230","424600","0.0-12.0-0.60","60dee3200c7c3355c62326d9","650c16f0f2faf8d7a0d14c09","651c1bfc58d179ab672053ef","null","null","<p style=""font-size: 60px; font-family: BACS"">TbKMEOtM</p>","","","","","","","","",""
"html-keyboard-response","231","425615","0.0-12.0-0.61","60dee3200c7c3355c62326d9","650c16f0f2faf8d7a0d14c09","651c1bfc58d179ab672053ef","null","null","<p style=""font-size: 60px; font-family: BACS"">vuJZuYZJO</p>","","","","","","","","",""
"html-keyboard-response","232","426617","0.0-12.0-0.62","60dee3200c7c3355c62326d9","650c16f0f2faf8d7a0d14c09","651c1bfc58d179ab672053ef","null","null","<p style=""font-size: 60px; font-family: BACS"">TbKMEbAMO</p>","","","","","","","","",""
"html-keyboard-response","233","427619","0.0-12.0-0.63","60dee3200c7c3355c62326d9","650c16f0f2faf8d7a0d14c09","651c1bfc58d179ab672053ef","null","null","<p style=""font-size: 60px; font-family: BACS"">OmtlDOtM</p>","","","","","","","","",""
"html-keyboard-response","234","428630","0.0-12.0-0.64","60dee3200c7c3355c62326d9","650c16f0f2faf8d7a0d14c09","651c1bfc58d179ab672053ef","null","null","<p style=""font-size: 60px; font-family: BACS"">YlYckMEC</p>","","","","","","","","",""
"html-keyboard-response","235","429632","0.0-12.0-0.65","60dee3200c7c3355c62326d9","650c16f0f2faf8d7a0d14c09","651c1bfc58d179ab672053ef","null","null","<p style=""font-size: 60px; font-family: BACS"">rkJuGrub</p>","","","","","","","","",""
"html-keyboard-response","236","430633","0.0-12.0-0.66","60dee3200c7c3355c62326d9","650c16f0f2faf8d7a0d14c09","651c1bfc58d179ab672053ef","null","null","<p style=""font-size: 60px; font-family: BACS"">GJGcZGUOA</p>","","","","","","","","",""
"html-keyboard-response","237","431647","0.0-12.0-0.67","60dee3200c7c3355c62326d9","650c16f0f2faf8d7a0d14c09","651c1bfc58d179ab672053ef","null","null","<p style=""font-size: 60px; font-family: BACS"">TbKMEkKE</p>","","","","","","","","",""
"html-keyboard-response","238","432663","0.0-12.0-0.68","60dee3200c7c3355c62326d9","650c16f0f2faf8d7a0d14c09","651c1bfc58d179ab672053ef","null","null","<p style=""font-size: 60px; font-family: BACS"">lBlEdBC</p>","","","","","","","","",""
"html-keyboard-response","239","433665","0.0-12.0-0.69","60dee3200c7c3355c62326d9","650c16f0f2faf8d7a0d14c09","651c1bfc58d179ab672053ef","null","null","<p style=""font-size: 60px; font-family: BACS"">mARMbAMO</p>","","","","","","","","",""
"html-keyboard-response","240","434681","0.0-12.0-0.70","60dee3200c7c3355c62326d9","650c16f0f2faf8d7a0d14c09","651c1bfc58d179ab672053ef","null","null","<p style=""font-size: 60px; font-family: BACS"">BbODOtM</p>","","","","","","","","",""
"html-keyboard-response","241","435697","0.0-12.0-0.71","60dee3200c7c3355c62326d9","650c16f0f2faf8d7a0d14c09","651c1bfc58d179ab672053ef","null","null","<p style=""font-size: 60px; font-family: BACS"">PdDTbAMO</p>","","","","","","","","",""
"html-keyboard-response","242","436698","0.0-12.0-0.72","60dee3200c7c3355c62326d9","650c16f0f2faf8d7a0d14c09","651c1bfc58d179ab672053ef","null","null","<p style=""font-size: 60px; font-family: BACS"">rkJuYZJO</p>","","","","","","","","",""
"html-keyboard-response","243","437714","0.0-12.0-0.73","60dee3200c7c3355c62326d9","650c16f0f2faf8d7a0d14c09","651c1bfc58d179ab672053ef","null","null","<p style=""font-size: 60px; font-family: BACS"">OmtlDdBC</p>","","","","","","","","",""
"html-keyboard-response","244","438714","0.0-12.0-0.74","60dee3200c7c3355c62326d9","650c16f0f2faf8d7a0d14c09","651c1bfc58d179ab672053ef","null","null","<p style=""font-size: 60px; font-family: BACS"">YlYcbAMO</p>","","","","","","","","",""
"html-keyboard-response","245","439716","0.0-12.0-0.75","60dee3200c7c3355c62326d9","650c16f0f2faf8d7a0d14c09","651c1bfc58d179ab672053ef","null","null","<p style=""font-size: 60px; font-family: BACS"">GJGcZrNlZ</p>","","","","","","","","",""
"html-keyboard-response","246","440730","0.0-12.0-0.76","60dee3200c7c3355c62326d9","650c16f0f2faf8d7a0d14c09","651c1bfc58d179ab672053ef","null","null","<p style=""font-size: 60px; font-family: BACS"">mARMdBC</p>","","","","","","","","",""
"html-keyboard-response","247","441746","0.0-12.0-0.77","60dee3200c7c3355c62326d9","650c16f0f2faf8d7a0d14c09","651c1bfc58d179ab672053ef","null","null","<p style=""font-size: 60px; font-family: BACS"">GLluAYZJO</p>","","","","","","","","",""
"html-keyboard-response","248","442750","0.0-12.0-0.78","60dee3200c7c3355c62326d9","650c16f0f2faf8d7a0d14c09","651c1bfc58d179ab672053ef","null","null","<p style=""font-size: 60px; font-family: BACS"">GJGcZGrub</p>","","","","","","","","",""
"html-keyboard-response","249","443753","0.0-12.0-0.79","60dee3200c7c3355c62326d9","650c16f0f2faf8d7a0d14c09","651c1bfc58d179ab672053ef","null","null","<p style=""font-size: 60px; font-family: BACS"">kNuaYZJO</p>","","","","","","","","",""
"html-keyboard-response","250","446271","0.0-13.0","60dee3200c7c3355c62326d9","650c16f0f2faf8d7a0d14c09","651c1bfc58d179ab672053ef","2516"," ","<p>Great, you've seen the third block of words. You may now take a short break.</p>
      <p>Press the spacebar when you're ready to continue.</p>","","","","","","","","",""
"html-keyboard-response","251","447278","0.0-14.0-0.0","60dee3200c7c3355c62326d9","650c16f0f2faf8d7a0d14c09","651c1bfc58d179ab672053ef","null","null","<p style=""font-size: 60px; font-family: BACS"">BbODOtM</p>","","","","","","","","",""
"html-keyboard-response","252","448280","0.0-14.0-0.1","60dee3200c7c3355c62326d9","650c16f0f2faf8d7a0d14c09","651c1bfc58d179ab672053ef","null","null","<p style=""font-size: 60px; font-family: BACS"">kNuaGrub</p>","","","","","","","","",""
"html-keyboard-response","253","449280","0.0-14.0-0.2","60dee3200c7c3355c62326d9","650c16f0f2faf8d7a0d14c09","651c1bfc58d179ab672053ef","null","null","<p style=""font-size: 60px; font-family: BACS"">GJGcZYZJO</p>","","","","","","","","",""
"html-keyboard-response","254","450295","0.0-14.0-0.3","60dee3200c7c3355c62326d9","650c16f0f2faf8d7a0d14c09","651c1bfc58d179ab672053ef","null","null","<p style=""font-size: 60px; font-family: BACS"">YlYckKE</p>","","","","","","","","",""
"html-keyboard-response","255","451297","0.0-14.0-0.4","60dee3200c7c3355c62326d9","650c16f0f2faf8d7a0d14c09","651c1bfc58d179ab672053ef","null","null","<p style=""font-size: 60px; font-family: BACS"">rbYbuGrub</p>","","","","","","","","",""
"html-keyboard-response","256","452313","0.0-14.0-0.5","60dee3200c7c3355c62326d9","650c16f0f2faf8d7a0d14c09","651c1bfc58d179ab672053ef","null","null","<p style=""font-size: 60px; font-family: BACS"">dmZvmGUOA</p>","","","","","","","","",""
"html-keyboard-response","257","453315","0.0-14.0-0.6","60dee3200c7c3355c62326d9","650c16f0f2faf8d7a0d14c09","651c1bfc58d179ab672053ef","null","null","<p style=""font-size: 60px; font-family: BACS"">TklDkMEC</p>","","","","","","","","",""
"html-keyboard-response","258","454329","0.0-14.0-0.7","60dee3200c7c3355c62326d9","650c16f0f2faf8d7a0d14c09","651c1bfc58d179ab672053ef","null","null","<p style=""font-size: 60px; font-family: BACS"">mARMbAMO</p>","","","","","","","","",""
"html-keyboard-response","259","455346","0.0-14.0-0.8","60dee3200c7c3355c62326d9","650c16f0f2faf8d7a0d14c09","651c1bfc58d179ab672053ef","null","null","<p style=""font-size: 60px; font-family: BACS"">OmtlDOtM</p>","","","","","","","","",""
"html-keyboard-response","260","456348","0.0-14.0-0.9","60dee3200c7c3355c62326d9","650c16f0f2faf8d7a0d14c09","651c1bfc58d179ab672053ef","null","null","<p style=""font-size: 60px; font-family: BACS"">rkJuGUOA</p>","","","","","","","","",""
"html-keyboard-response","261","457360","0.0-14.0-0.10","60dee3200c7c3355c62326d9","650c16f0f2faf8d7a0d14c09","651c1bfc58d179ab672053ef","null","null","<p style=""font-size: 60px; font-family: BACS"">dmZvmYZJO</p>","","","","","","","","",""
"html-keyboard-response","262","458362","0.0-14.0-0.11","60dee3200c7c3355c62326d9","650c16f0f2faf8d7a0d14c09","651c1bfc58d179ab672053ef","null","null","<p style=""font-size: 60px; font-family: BACS"">TbKMEOtM</p>","","","","","","","","",""
"html-keyboard-response","263","459378","0.0-14.0-0.12","60dee3200c7c3355c62326d9","650c16f0f2faf8d7a0d14c09","651c1bfc58d179ab672053ef","null","null","<p style=""font-size: 60px; font-family: BACS"">vuJZuGUOA</p>","","","","","","","","",""
"html-keyboard-response","264","460380","0.0-14.0-0.13","60dee3200c7c3355c62326d9","650c16f0f2faf8d7a0d14c09","651c1bfc58d179ab672053ef","null","null","<p style=""font-size: 60px; font-family: BACS"">RkmdCbAMO</p>","","","","","","","","",""
"html-keyboard-response","265","461393","0.0-14.0-0.14","60dee3200c7c3355c62326d9","650c16f0f2faf8d7a0d14c09","651c1bfc58d179ab672053ef","null","null","<p style=""font-size: 60px; font-family: BACS"">vuJZuYZJO</p>","","","","","","","","",""
"html-keyboard-response","266","462396","0.0-14.0-0.15","60dee3200c7c3355c62326d9","650c16f0f2faf8d7a0d14c09","651c1bfc58d179ab672053ef","null","null","<p style=""font-size: 60px; font-family: BACS"">TklDbAMO</p>","","","","","","","","",""
"html-keyboard-response","267","463411","0.0-14.0-0.16","60dee3200c7c3355c62326d9","650c16f0f2faf8d7a0d14c09","651c1bfc58d179ab672053ef","null","null","<p style=""font-size: 60px; font-family: BACS"">dmZvmGrub</p>","","","","","","","","",""
"html-keyboard-response","268","464413","0.0-14.0-0.17","60dee3200c7c3355c62326d9","650c16f0f2faf8d7a0d14c09","651c1bfc58d179ab672053ef","null","null","<p style=""font-size: 60px; font-family: BACS"">kNuaLcO</p>","","","","","","","","",""
"html-keyboard-response","269","465428","0.0-14.0-0.18","60dee3200c7c3355c62326d9","650c16f0f2faf8d7a0d14c09","651c1bfc58d179ab672053ef","null","null","<p style=""font-size: 60px; font-family: BACS"">lBlEbAMO</p>","","","","","","","","",""
"html-keyboard-response","270","466443","0.0-14.0-0.19","60dee3200c7c3355c62326d9","650c16f0f2faf8d7a0d14c09","651c1bfc58d179ab672053ef","null","null","<p style=""font-size: 60px; font-family: BACS"">TbKMEkMEC</p>","","","","","","","","",""
"html-keyboard-response","271","467445","0.0-14.0-0.20","60dee3200c7c3355c62326d9","650c16f0f2faf8d7a0d14c09","651c1bfc58d179ab672053ef","null","null","<p style=""font-size: 60px; font-family: BACS"">LAclAGrub</p>","","","","","","","","",""
"html-keyboard-response","272","468459","0.0-14.0-0.21","60dee3200c7c3355c62326d9","650c16f0f2faf8d7a0d14c09","651c1bfc58d179ab672053ef","null","null","<p style=""font-size: 60px; font-family: BACS"">dmZvmrNlZ</p>","","","","","","","","",""
"html-keyboard-response","273","469462","0.0-14.0-0.22","60dee3200c7c3355c62326d9","650c16f0f2faf8d7a0d14c09","651c1bfc58d179ab672053ef","null","null","<p style=""font-size: 60px; font-family: BACS"">GLluAGrub</p>","","","","","","","","",""
"html-keyboard-response","274","470477","0.0-14.0-0.23","60dee3200c7c3355c62326d9","650c16f0f2faf8d7a0d14c09","651c1bfc58d179ab672053ef","null","null","<p style=""font-size: 60px; font-family: BACS"">vuJZuLcO</p>","","","","","","","","",""
"html-keyboard-response","275","471478","0.0-14.0-0.24","60dee3200c7c3355c62326d9","650c16f0f2faf8d7a0d14c09","651c1bfc58d179ab672053ef","null","null","<p style=""font-size: 60px; font-family: BACS"">PdDTOtM</p>","","","","","","","","",""
"html-keyboard-response","276","472494","0.0-14.0-0.25","60dee3200c7c3355c62326d9","650c16f0f2faf8d7a0d14c09","651c1bfc58d179ab672053ef","null","null","<p style=""font-size: 60px; font-family: BACS"">vuJZurNlZ</p>","","","","","","","","",""
"html-keyboard-response","277","473510","0.0-14.0-0.26","60dee3200c7c3355c62326d9","650c16f0f2faf8d7a0d14c09","651c1bfc58d179ab672053ef","null","null","<p style=""font-size: 60px; font-family: BACS"">QLrOJGrub</p>","","","","","","","","",""
"html-keyboard-response","278","474524","0.0-14.0-0.27","60dee3200c7c3355c62326d9","650c16f0f2faf8d7a0d14c09","651c1bfc58d179ab672053ef","null","null","<p style=""font-size: 60px; font-family: BACS"">vmuLlGUOA</p>","","","","","","","","",""
"html-keyboard-response","279","475528","0.0-14.0-0.28","60dee3200c7c3355c62326d9","650c16f0f2faf8d7a0d14c09","651c1bfc58d179ab672053ef","null","null","<p style=""font-size: 60px; font-family: BACS"">RkmdCkMEC</p>","","","","","","","","",""
"html-keyboard-response","280","476543","0.0-14.0-0.29","60dee3200c7c3355c62326d9","650c16f0f2faf8d7a0d14c09","651c1bfc58d179ab672053ef","null","null","<p style=""font-size: 60px; font-family: BACS"">OmtlDkKE</p>","","","","","","","","",""
"html-keyboard-response","281","477558","0.0-14.0-0.30","60dee3200c7c3355c62326d9","650c16f0f2faf8d7a0d14c09","651c1bfc58d179ab672053ef","null","null","<p style=""font-size: 60px; font-family: BACS"">rbYbuGUOA</p>","","","","","","","","",""
"html-keyboard-response","282","478561","0.0-14.0-0.31","60dee3200c7c3355c62326d9","650c16f0f2faf8d7a0d14c09","651c1bfc58d179ab672053ef","null","null","<p style=""font-size: 60px; font-family: BACS"">GLluArNlZ</p>","","","","","","","","",""
"html-keyboard-response","283","479575","0.0-14.0-0.32","60dee3200c7c3355c62326d9","650c16f0f2faf8d7a0d14c09","651c1bfc58d179ab672053ef","null","null","<p style=""font-size: 60px; font-family: BACS"">OmtlDkMEC</p>","","","","","","","","",""
"html-keyboard-response","284","480577","0.0-14.0-0.33","60dee3200c7c3355c62326d9","650c16f0f2faf8d7a0d14c09","651c1bfc58d179ab672053ef","null","null","<p style=""font-size: 60px; font-family: BACS"">EhbtbAMO</p>","","","","","","","","",""
"html-keyboard-response","285","481593","0.0-14.0-0.34","60dee3200c7c3355c62326d9","650c16f0f2faf8d7a0d14c09","651c1bfc58d179ab672053ef","null","null","<p style=""font-size: 60px; font-family: BACS"">YlYckMEC</p>","","","","","","","","",""
"html-keyboard-response","286","482609","0.0-14.0-0.35","60dee3200c7c3355c62326d9","650c16f0f2faf8d7a0d14c09","651c1bfc58d179ab672053ef","null","null","<p style=""font-size: 60px; font-family: BACS"">vmuLlrNlZ</p>","","","","","","","","",""
"html-keyboard-response","287","483626","0.0-14.0-0.36","60dee3200c7c3355c62326d9","650c16f0f2faf8d7a0d14c09","651c1bfc58d179ab672053ef","null","null","<p style=""font-size: 60px; font-family: BACS"">TklDdBC</p>","","","","","","","","",""
"html-keyboard-response","288","484627","0.0-14.0-0.37","60dee3200c7c3355c62326d9","650c16f0f2faf8d7a0d14c09","651c1bfc58d179ab672053ef","null","null","<p style=""font-size: 60px; font-family: BACS"">rkJuLcO</p>","","","","","","","","",""
"html-keyboard-response","289","485628","0.0-14.0-0.38","60dee3200c7c3355c62326d9","650c16f0f2faf8d7a0d14c09","651c1bfc58d179ab672053ef","null","null","<p style=""font-size: 60px; font-family: BACS"">YlYcbAMO</p>","","","","","","","","",""
"html-keyboard-response","290","486629","0.0-14.0-0.39","60dee3200c7c3355c62326d9","650c16f0f2faf8d7a0d14c09","651c1bfc58d179ab672053ef","null","null","<p style=""font-size: 60px; font-family: BACS"">TbKMEkKE</p>","","","","","","","","",""
"html-keyboard-response","291","487640","0.0-14.0-0.40","60dee3200c7c3355c62326d9","650c16f0f2faf8d7a0d14c09","651c1bfc58d179ab672053ef","null","null","<p style=""font-size: 60px; font-family: BACS"">rkJuGrub</p>","","","","","","","","",""
"html-keyboard-response","292","488643","0.0-14.0-0.41","60dee3200c7c3355c62326d9","650c16f0f2faf8d7a0d14c09","651c1bfc58d179ab672053ef","null","null","<p style=""font-size: 60px; font-family: BACS"">LAclAGUOA</p>","","","","","","","","",""
"html-keyboard-response","293","489658","0.0-14.0-0.42","60dee3200c7c3355c62326d9","650c16f0f2faf8d7a0d14c09","651c1bfc58d179ab672053ef","null","null","<p style=""font-size: 60px; font-family: BACS"">lBlEOtM</p>","","","","","","","","",""
"html-keyboard-response","294","490675","0.0-14.0-0.43","60dee3200c7c3355c62326d9","650c16f0f2faf8d7a0d14c09","651c1bfc58d179ab672053ef","null","null","<p style=""font-size: 60px; font-family: BACS"">kNuarNlZ</p>","","","","","","","","",""
"html-keyboard-response","295","491676","0.0-14.0-0.44","60dee3200c7c3355c62326d9","650c16f0f2faf8d7a0d14c09","651c1bfc58d179ab672053ef","null","null","<p style=""font-size: 60px; font-family: BACS"">LAclALcO</p>","","","","","","","","",""
"html-keyboard-response","296","492691","0.0-14.0-0.45","60dee3200c7c3355c62326d9","650c16f0f2faf8d7a0d14c09","651c1bfc58d179ab672053ef","null","null","<p style=""font-size: 60px; font-family: BACS"">lBlEdBC</p>","","","","","","","","",""
"html-keyboard-response","297","493693","0.0-14.0-0.46","60dee3200c7c3355c62326d9","650c16f0f2faf8d7a0d14c09","651c1bfc58d179ab672053ef","null","null","<p style=""font-size: 60px; font-family: BACS"">GJGcZGUOA</p>","","","","","","","","",""
"html-keyboard-response","298","494707","0.0-14.0-0.47","60dee3200c7c3355c62326d9","650c16f0f2faf8d7a0d14c09","651c1bfc58d179ab672053ef","null","null","<p style=""font-size: 60px; font-family: BACS"">rbYbuYZJO</p>","","","","","","","","",""
"html-keyboard-response","299","495709","0.0-14.0-0.48","60dee3200c7c3355c62326d9","650c16f0f2faf8d7a0d14c09","651c1bfc58d179ab672053ef","null","null","<p style=""font-size: 60px; font-family: BACS"">YlYcdBC</p>","","","","","","","","",""
"html-keyboard-response","300","496724","0.0-14.0-0.49","60dee3200c7c3355c62326d9","650c16f0f2faf8d7a0d14c09","651c1bfc58d179ab672053ef","null","null","<p style=""font-size: 60px; font-family: BACS"">QLrOJLcO</p>","","","","","","","","",""
"html-keyboard-response","301","497741","0.0-14.0-0.50","60dee3200c7c3355c62326d9","650c16f0f2faf8d7a0d14c09","651c1bfc58d179ab672053ef","null","null","<p style=""font-size: 60px; font-family: BACS"">RkmdCkKE</p>","","","","","","","","",""
"html-keyboard-response","302","498743","0.0-14.0-0.51","60dee3200c7c3355c62326d9","650c16f0f2faf8d7a0d14c09","651c1bfc58d179ab672053ef","null","null","<p style=""font-size: 60px; font-family: BACS"">EhbtOtM</p>","","","","","","","","",""
"html-keyboard-response","303","499758","0.0-14.0-0.52","60dee3200c7c3355c62326d9","650c16f0f2faf8d7a0d14c09","651c1bfc58d179ab672053ef","null","null","<p style=""font-size: 60px; font-family: BACS"">mARMdBC</p>","","","","","","","","",""
"html-keyboard-response","304","500776","0.0-14.0-0.53","60dee3200c7c3355c62326d9","650c16f0f2faf8d7a0d14c09","651c1bfc58d179ab672053ef","null","null","<p style=""font-size: 60px; font-family: BACS"">QLrOJrNlZ</p>","","","","","","","","",""
"html-keyboard-response","305","501789","0.0-14.0-0.54","60dee3200c7c3355c62326d9","650c16f0f2faf8d7a0d14c09","651c1bfc58d179ab672053ef","null","null","<p style=""font-size: 60px; font-family: BACS"">GJGcZGrub</p>","","","","","","","","",""
"html-keyboard-response","306","502792","0.0-14.0-0.55","60dee3200c7c3355c62326d9","650c16f0f2faf8d7a0d14c09","651c1bfc58d179ab672053ef","null","null","<p style=""font-size: 60px; font-family: BACS"">EhbtdBC</p>","","","","","","","","",""
"html-keyboard-response","307","503809","0.0-14.0-0.56","60dee3200c7c3355c62326d9","650c16f0f2faf8d7a0d14c09","651c1bfc58d179ab672053ef","null","null","<p style=""font-size: 60px; font-family: BACS"">vmuLlYZJO</p>","","","","","","","","",""
"html-keyboard-response","308","504823","0.0-14.0-0.57","60dee3200c7c3355c62326d9","650c16f0f2faf8d7a0d14c09","651c1bfc58d179ab672053ef","null","null","<p style=""font-size: 60px; font-family: BACS"">mARMkKE</p>","","","","","","","","",""
"html-keyboard-response","309","505825","0.0-14.0-0.58","60dee3200c7c3355c62326d9","650c16f0f2faf8d7a0d14c09","651c1bfc58d179ab672053ef","null","null","<p style=""font-size: 60px; font-family: BACS"">GLluAYZJO</p>","","","","","","","","",""
"html-keyboard-response","310","506840","0.0-14.0-0.59","60dee3200c7c3355c62326d9","650c16f0f2faf8d7a0d14c09","651c1bfc58d179ab672053ef","null","null","<p style=""font-size: 60px; font-family: BACS"">TklDOtM</p>","","","","","","","","",""
"html-keyboard-response","311","507842","0.0-14.0-0.60","60dee3200c7c3355c62326d9","650c16f0f2faf8d7a0d14c09","651c1bfc58d179ab672053ef","null","null","<p style=""font-size: 60px; font-family: BACS"">BbODkKE</p>","","","","","","","","",""
"html-keyboard-response","312","508856","0.0-14.0-0.61","60dee3200c7c3355c62326d9","650c16f0f2faf8d7a0d14c09","651c1bfc58d179ab672053ef","null","null","<p style=""font-size: 60px; font-family: BACS"">lBlEkMEC</p>","","","","","","","","",""
"html-keyboard-response","313","509858","0.0-14.0-0.62","60dee3200c7c3355c62326d9","650c16f0f2faf8d7a0d14c09","651c1bfc58d179ab672053ef","null","null","<p style=""font-size: 60px; font-family: BACS"">PdDTbAMO</p>","","","","","","","","",""
"html-keyboard-response","314","510872","0.0-14.0-0.63","60dee3200c7c3355c62326d9","650c16f0f2faf8d7a0d14c09","651c1bfc58d179ab672053ef","null","null","<p style=""font-size: 60px; font-family: BACS"">rkJuYZJO</p>","","","","","","","","",""
"html-keyboard-response","315","511874","0.0-14.0-0.64","60dee3200c7c3355c62326d9","650c16f0f2faf8d7a0d14c09","651c1bfc58d179ab672053ef","null","null","<p style=""font-size: 60px; font-family: BACS"">QLrOJGUOA</p>","","","","","","","","",""
"html-keyboard-response","316","512889","0.0-14.0-0.65","60dee3200c7c3355c62326d9","650c16f0f2faf8d7a0d14c09","651c1bfc58d179ab672053ef","null","null","<p style=""font-size: 60px; font-family: BACS"">mARMOtM</p>","","","","","","","","",""
"html-keyboard-response","317","513891","0.0-14.0-0.66","60dee3200c7c3355c62326d9","650c16f0f2faf8d7a0d14c09","651c1bfc58d179ab672053ef","null","null","<p style=""font-size: 60px; font-family: BACS"">rbYbuLcO</p>","","","","","","","","",""
"html-keyboard-response","318","514904","0.0-14.0-0.67","60dee3200c7c3355c62326d9","650c16f0f2faf8d7a0d14c09","651c1bfc58d179ab672053ef","null","null","<p style=""font-size: 60px; font-family: BACS"">OmtlDdBC</p>","","","","","","","","",""
"html-keyboard-response","319","515907","0.0-14.0-0.68","60dee3200c7c3355c62326d9","650c16f0f2faf8d7a0d14c09","651c1bfc58d179ab672053ef","null","null","<p style=""font-size: 60px; font-family: BACS"">TbKMEbAMO</p>","","","","","","","","",""
"html-keyboard-response","320","516920","0.0-14.0-0.69","60dee3200c7c3355c62326d9","650c16f0f2faf8d7a0d14c09","651c1bfc58d179ab672053ef","null","null","<p style=""font-size: 60px; font-family: BACS"">PdDTkKE</p>","","","","","","","","",""
"html-keyboard-response","321","517924","0.0-14.0-0.70","60dee3200c7c3355c62326d9","650c16f0f2faf8d7a0d14c09","651c1bfc58d179ab672053ef","null","null","<p style=""font-size: 60px; font-family: BACS"">GLluALcO</p>","","","","","","","","",""
"html-keyboard-response","322","518938","0.0-14.0-0.71","60dee3200c7c3355c62326d9","650c16f0f2faf8d7a0d14c09","651c1bfc58d179ab672053ef","null","null","<p style=""font-size: 60px; font-family: BACS"">LAclArNlZ</p>","","","","","","","","",""
"html-keyboard-response","323","519946","0.0-14.0-0.72","60dee3200c7c3355c62326d9","650c16f0f2faf8d7a0d14c09","651c1bfc58d179ab672053ef","null","null","<p style=""font-size: 60px; font-family: BACS"">BbODkMEC</p>","","","","","","","","",""
"html-keyboard-response","324","520948","0.0-14.0-0.73","60dee3200c7c3355c62326d9","650c16f0f2faf8d7a0d14c09","651c1bfc58d179ab672053ef","null","null","<p style=""font-size: 60px; font-family: BACS"">GJGcZrNlZ</p>","","","","","","","","",""
"html-keyboard-response","325","521950","0.0-14.0-0.74","60dee3200c7c3355c62326d9","650c16f0f2faf8d7a0d14c09","651c1bfc58d179ab672053ef","null","null","<p style=""font-size: 60px; font-family: BACS"">kNuaYZJO</p>","","","","","","","","",""
"html-keyboard-response","326","522957","0.0-14.0-0.75","60dee3200c7c3355c62326d9","650c16f0f2faf8d7a0d14c09","651c1bfc58d179ab672053ef","null","null","<p style=""font-size: 60px; font-family: BACS"">PdDTkMEC</p>","","","","","","","","",""
"html-keyboard-response","327","523971","0.0-14.0-0.76","60dee3200c7c3355c62326d9","650c16f0f2faf8d7a0d14c09","651c1bfc58d179ab672053ef","null","null","<p style=""font-size: 60px; font-family: BACS"">RkmdCdBC</p>","","","","","","","","",""
"html-keyboard-response","328","524973","0.0-14.0-0.77","60dee3200c7c3355c62326d9","650c16f0f2faf8d7a0d14c09","651c1bfc58d179ab672053ef","null","null","<p style=""font-size: 60px; font-family: BACS"">vmuLlLcO</p>","","","","","","","","",""
"html-keyboard-response","329","525990","0.0-14.0-0.78","60dee3200c7c3355c62326d9","650c16f0f2faf8d7a0d14c09","651c1bfc58d179ab672053ef","null","null","<p style=""font-size: 60px; font-family: BACS"">BbODdBC</p>","","","","","","","","",""
"html-keyboard-response","330","527004","0.0-14.0-0.79","60dee3200c7c3355c62326d9","650c16f0f2faf8d7a0d14c09","651c1bfc58d179ab672053ef","null","null","<p style=""font-size: 60px; font-family: BACS"">EhbtkKE</p>","","","","","","","","",""
"html-keyboard-response","331","529783","0.0-15.0","60dee3200c7c3355c62326d9","650c16f0f2faf8d7a0d14c09","651c1bfc58d179ab672053ef","2778"," ","<p>Great, you've seen the fourth block of words. You may now take a short break.</p>
      <p>Press the spacebar when you're ready to continue.</p>","","","","","","","","",""
"html-keyboard-response","332","530787","0.0-16.0-0.0","60dee3200c7c3355c62326d9","650c16f0f2faf8d7a0d14c09","651c1bfc58d179ab672053ef","null","null","<p style=""font-size: 60px; font-family: BACS"">vmuLlLcO</p>","","","","","","","","",""
"html-keyboard-response","333","531804","0.0-16.0-0.1","60dee3200c7c3355c62326d9","650c16f0f2faf8d7a0d14c09","651c1bfc58d179ab672053ef","null","null","<p style=""font-size: 60px; font-family: BACS"">vmuLlLcO</p>","","","","","","","","",""
"html-keyboard-response","334","532820","0.0-16.0-0.2","60dee3200c7c3355c62326d9","650c16f0f2faf8d7a0d14c09","651c1bfc58d179ab672053ef","null","null","<p style=""font-size: 60px; font-family: BACS"">vmuLlLcO</p>","","","","","","","","",""
"html-keyboard-response","335","533837","0.0-16.0-0.3","60dee3200c7c3355c62326d9","650c16f0f2faf8d7a0d14c09","651c1bfc58d179ab672053ef","null","null","<p style=""font-size: 60px; font-family: BACS"">vmuLlLcO</p>","","","","","","","","",""
"html-keyboard-response","336","534852","0.0-16.0-0.4","60dee3200c7c3355c62326d9","650c16f0f2faf8d7a0d14c09","651c1bfc58d179ab672053ef","null","null","<p style=""font-size: 60px; font-family: BACS"">vmuLlLcO</p>","","","","","","","","",""
"html-keyboard-response","337","535854","0.0-16.0-0.5","60dee3200c7c3355c62326d9","650c16f0f2faf8d7a0d14c09","651c1bfc58d179ab672053ef","null","null","<p style=""font-size: 60px; font-family: BACS"">vmuLlLcO</p>","","","","","","","","",""
"html-keyboard-response","338","536868","0.0-16.0-0.6","60dee3200c7c3355c62326d9","650c16f0f2faf8d7a0d14c09","651c1bfc58d179ab672053ef","null","null","<p style=""font-size: 60px; font-family: BACS"">vmuLlLcO</p>","","","","","","","","",""
"html-keyboard-response","339","537870","0.0-16.0-0.7","60dee3200c7c3355c62326d9","650c16f0f2faf8d7a0d14c09","651c1bfc58d179ab672053ef","null","null","<p style=""font-size: 60px; font-family: BACS"">vmuLlLcO</p>","","","","","","","","",""
"html-keyboard-response","340","538872","0.0-16.0-0.8","60dee3200c7c3355c62326d9","650c16f0f2faf8d7a0d14c09","651c1bfc58d179ab672053ef","null","null","<p style=""font-size: 60px; font-family: BACS"">vmuLlLcO</p>","","","","","","","","",""
"html-keyboard-response","341","539874","0.0-16.0-0.9","60dee3200c7c3355c62326d9","650c16f0f2faf8d7a0d14c09","651c1bfc58d179ab672053ef","null","null","<p style=""font-size: 60px; font-family: BACS"">vmuLlLcO</p>","","","","","","","","",""
"html-keyboard-response","342","540884","0.0-16.0-0.10","60dee3200c7c3355c62326d9","650c16f0f2faf8d7a0d14c09","651c1bfc58d179ab672053ef","null","null","<p style=""font-size: 60px; font-family: BACS"">vmuLlLcO</p>","","","","","","","","",""
"html-keyboard-response","343","541886","0.0-16.0-0.11","60dee3200c7c3355c62326d9","650c16f0f2faf8d7a0d14c09","651c1bfc58d179ab672053ef","null","null","<p style=""font-size: 60px; font-family: BACS"">vmuLlLcO</p>","","","","","","","","",""
"html-keyboard-response","344","542902","0.0-16.0-0.12","60dee3200c7c3355c62326d9","650c16f0f2faf8d7a0d14c09","651c1bfc58d179ab672053ef","null","null","<p style=""font-size: 60px; font-family: BACS"">vmuLlLcO</p>","","","","","","","","",""
"html-keyboard-response","345","543904","0.0-16.0-0.13","60dee3200c7c3355c62326d9","650c16f0f2faf8d7a0d14c09","651c1bfc58d179ab672053ef","null","null","<p style=""font-size: 60px; font-family: BACS"">vmuLlLcO</p>","","","","","","","","",""
"html-keyboard-response","346","544919","0.0-16.0-0.14","60dee3200c7c3355c62326d9","650c16f0f2faf8d7a0d14c09","651c1bfc58d179ab672053ef","null","null","<p style=""font-size: 60px; font-family: BACS"">vmuLlLcO</p>","","","","","","","","",""
"html-keyboard-response","347","545920","0.0-16.0-0.15","60dee3200c7c3355c62326d9","650c16f0f2faf8d7a0d14c09","651c1bfc58d179ab672053ef","null","null","<p style=""font-size: 60px; font-family: BACS"">vmuLlLcO</p>","","","","","","","","",""
"html-keyboard-response","348","546935","0.0-16.0-0.16","60dee3200c7c3355c62326d9","650c16f0f2faf8d7a0d14c09","651c1bfc58d179ab672053ef","null","null","<p style=""font-size: 60px; font-family: BACS"">vmuLlLcO</p>","","","","","","","","",""
"html-keyboard-response","349","547937","0.0-16.0-0.17","60dee3200c7c3355c62326d9","650c16f0f2faf8d7a0d14c09","651c1bfc58d179ab672053ef","null","null","<p style=""font-size: 60px; font-family: BACS"">vmuLlLcO</p>","","","","","","","","",""
"html-keyboard-response","350","548952","0.0-16.0-0.18","60dee3200c7c3355c62326d9","650c16f0f2faf8d7a0d14c09","651c1bfc58d179ab672053ef","null","null","<p style=""font-size: 60px; font-family: BACS"">vmuLlLcO</p>","","","","","","","","",""
"html-keyboard-response","351","549967","0.0-16.0-0.19","60dee3200c7c3355c62326d9","650c16f0f2faf8d7a0d14c09","651c1bfc58d179ab672053ef","null","null","<p style=""font-size: 60px; font-family: BACS"">vmuLlLcO</p>","","","","","","","","",""
"html-keyboard-response","352","550969","0.0-16.0-0.20","60dee3200c7c3355c62326d9","650c16f0f2faf8d7a0d14c09","651c1bfc58d179ab672053ef","null","null","<p style=""font-size: 60px; font-family: BACS"">vmuLlLcO</p>","","","","","","","","",""
"html-keyboard-response","353","551985","0.0-16.0-0.21","60dee3200c7c3355c62326d9","650c16f0f2faf8d7a0d14c09","651c1bfc58d179ab672053ef","null","null","<p style=""font-size: 60px; font-family: BACS"">vmuLlLcO</p>","","","","","","","","",""
"html-keyboard-response","354","553000","0.0-16.0-0.22","60dee3200c7c3355c62326d9","650c16f0f2faf8d7a0d14c09","651c1bfc58d179ab672053ef","null","null","<p style=""font-size: 60px; font-family: BACS"">vmuLlLcO</p>","","","","","","","","",""
"html-keyboard-response","355","554002","0.0-16.0-0.23","60dee3200c7c3355c62326d9","650c16f0f2faf8d7a0d14c09","651c1bfc58d179ab672053ef","null","null","<p style=""font-size: 60px; font-family: BACS"">vmuLlLcO</p>","","","","","","","","",""
"html-keyboard-response","356","555018","0.0-16.0-0.24","60dee3200c7c3355c62326d9","650c16f0f2faf8d7a0d14c09","651c1bfc58d179ab672053ef","null","null","<p style=""font-size: 60px; font-family: BACS"">vmuLlLcO</p>","","","","","","","","",""
"html-keyboard-response","357","556020","0.0-16.0-0.25","60dee3200c7c3355c62326d9","650c16f0f2faf8d7a0d14c09","651c1bfc58d179ab672053ef","null","null","<p style=""font-size: 60px; font-family: BACS"">vmuLlLcO</p>","","","","","","","","",""
"html-keyboard-response","358","557034","0.0-16.0-0.26","60dee3200c7c3355c62326d9","650c16f0f2faf8d7a0d14c09","651c1bfc58d179ab672053ef","null","null","<p style=""font-size: 60px; font-family: BACS"">vmuLlLcO</p>","","","","","","","","",""
"html-keyboard-response","359","558035","0.0-16.0-0.27","60dee3200c7c3355c62326d9","650c16f0f2faf8d7a0d14c09","651c1bfc58d179ab672053ef","null","null","<p style=""font-size: 60px; font-family: BACS"">vmuLlLcO</p>","","","","","","","","",""
"html-keyboard-response","360","559050","0.0-16.0-0.28","60dee3200c7c3355c62326d9","650c16f0f2faf8d7a0d14c09","651c1bfc58d179ab672053ef","null","null","<p style=""font-size: 60px; font-family: BACS"">vmuLlLcO</p>","","","","","","","","",""
"html-keyboard-response","361","560052","0.0-16.0-0.29","60dee3200c7c3355c62326d9","650c16f0f2faf8d7a0d14c09","651c1bfc58d179ab672053ef","null","null","<p style=""font-size: 60px; font-family: BACS"">vmuLlLcO</p>","","","","","","","","",""
"html-keyboard-response","362","561054","0.0-16.0-0.30","60dee3200c7c3355c62326d9","650c16f0f2faf8d7a0d14c09","651c1bfc58d179ab672053ef","null","null","<p style=""font-size: 60px; font-family: BACS"">vmuLlLcO</p>","","","","","","","","",""
"html-keyboard-response","363","562067","0.0-16.0-0.31","60dee3200c7c3355c62326d9","650c16f0f2faf8d7a0d14c09","651c1bfc58d179ab672053ef","null","null","<p style=""font-size: 60px; font-family: BACS"">vmuLlLcO</p>","","","","","","","","",""
"html-keyboard-response","364","563077","0.0-16.0-0.32","60dee3200c7c3355c62326d9","650c16f0f2faf8d7a0d14c09","651c1bfc58d179ab672053ef","null","null","<p style=""font-size: 60px; font-family: BACS"">vmuLlLcO</p>","","","","","","","","",""
"html-keyboard-response","365","564083","0.0-16.0-0.33","60dee3200c7c3355c62326d9","650c16f0f2faf8d7a0d14c09","651c1bfc58d179ab672053ef","null","null","<p style=""font-size: 60px; font-family: BACS"">vmuLlLcO</p>","","","","","","","","",""
"html-keyboard-response","366","565098","0.0-16.0-0.34","60dee3200c7c3355c62326d9","650c16f0f2faf8d7a0d14c09","651c1bfc58d179ab672053ef","null","null","<p style=""font-size: 60px; font-family: BACS"">vmuLlLcO</p>","","","","","","","","",""
"html-keyboard-response","367","566101","0.0-16.0-0.35","60dee3200c7c3355c62326d9","650c16f0f2faf8d7a0d14c09","651c1bfc58d179ab672053ef","null","null","<p style=""font-size: 60px; font-family: BACS"">vmuLlLcO</p>","","","","","","","","",""
"html-keyboard-response","368","567116","0.0-16.0-0.36","60dee3200c7c3355c62326d9","650c16f0f2faf8d7a0d14c09","651c1bfc58d179ab672053ef","null","null","<p style=""font-size: 60px; font-family: BACS"">vmuLlLcO</p>","","","","","","","","",""
"html-keyboard-response","369","568133","0.0-16.0-0.37","60dee3200c7c3355c62326d9","650c16f0f2faf8d7a0d14c09","651c1bfc58d179ab672053ef","null","null","<p style=""font-size: 60px; font-family: BACS"">vmuLlLcO</p>","","","","","","","","",""
"html-keyboard-response","370","569148","0.0-16.0-0.38","60dee3200c7c3355c62326d9","650c16f0f2faf8d7a0d14c09","651c1bfc58d179ab672053ef","null","null","<p style=""font-size: 60px; font-family: BACS"">vmuLlLcO</p>","","","","","","","","",""
"html-keyboard-response","371","570150","0.0-16.0-0.39","60dee3200c7c3355c62326d9","650c16f0f2faf8d7a0d14c09","651c1bfc58d179ab672053ef","null","null","<p style=""font-size: 60px; font-family: BACS"">vmuLlLcO</p>","","","","","","","","",""
"html-keyboard-response","372","571163","0.0-16.0-0.40","60dee3200c7c3355c62326d9","650c16f0f2faf8d7a0d14c09","651c1bfc58d179ab672053ef","null","null","<p style=""font-size: 60px; font-family: BACS"">vmuLlLcO</p>","","","","","","","","",""
"html-keyboard-response","373","572166","0.0-16.0-0.41","60dee3200c7c3355c62326d9","650c16f0f2faf8d7a0d14c09","651c1bfc58d179ab672053ef","null","null","<p style=""font-size: 60px; font-family: BACS"">vmuLlLcO</p>","","","","","","","","",""
"html-keyboard-response","374","573180","0.0-16.0-0.42","60dee3200c7c3355c62326d9","650c16f0f2faf8d7a0d14c09","651c1bfc58d179ab672053ef","null","null","<p style=""font-size: 60px; font-family: BACS"">vmuLlLcO</p>","","","","","","","","",""
"html-keyboard-response","375","574183","0.0-16.0-0.43","60dee3200c7c3355c62326d9","650c16f0f2faf8d7a0d14c09","651c1bfc58d179ab672053ef","null","null","<p style=""font-size: 60px; font-family: BACS"">vmuLlLcO</p>","","","","","","","","",""
"html-keyboard-response","376","575197","0.0-16.0-0.44","60dee3200c7c3355c62326d9","650c16f0f2faf8d7a0d14c09","651c1bfc58d179ab672053ef","null","null","<p style=""font-size: 60px; font-family: BACS"">vmuLlLcO</p>","","","","","","","","",""
"html-keyboard-response","377","576200","0.0-16.0-0.45","60dee3200c7c3355c62326d9","650c16f0f2faf8d7a0d14c09","651c1bfc58d179ab672053ef","null","null","<p style=""font-size: 60px; font-family: BACS"">vmuLlLcO</p>","","","","","","","","",""
"html-keyboard-response","378","577213","0.0-16.0-0.46","60dee3200c7c3355c62326d9","650c16f0f2faf8d7a0d14c09","651c1bfc58d179ab672053ef","null","null","<p style=""font-size: 60px; font-family: BACS"">vmuLlLcO</p>","","","","","","","","",""
"html-keyboard-response","379","578229","0.0-16.0-0.47","60dee3200c7c3355c62326d9","650c16f0f2faf8d7a0d14c09","651c1bfc58d179ab672053ef","null","null","<p style=""font-size: 60px; font-family: BACS"">vmuLlLcO</p>","","","","","","","","",""
"html-keyboard-response","380","579231","0.0-16.0-0.48","60dee3200c7c3355c62326d9","650c16f0f2faf8d7a0d14c09","651c1bfc58d179ab672053ef","null","null","<p style=""font-size: 60px; font-family: BACS"">vmuLlLcO</p>","","","","","","","","",""
"html-keyboard-response","381","580234","0.0-16.0-0.49","60dee3200c7c3355c62326d9","650c16f0f2faf8d7a0d14c09","651c1bfc58d179ab672053ef","null","null","<p style=""font-size: 60px; font-family: BACS"">vmuLlLcO</p>","","","","","","","","",""
"html-keyboard-response","382","581248","0.0-16.0-0.50","60dee3200c7c3355c62326d9","650c16f0f2faf8d7a0d14c09","651c1bfc58d179ab672053ef","null","null","<p style=""font-size: 60px; font-family: BACS"">vmuLlLcO</p>","","","","","","","","",""
"html-keyboard-response","383","582264","0.0-16.0-0.51","60dee3200c7c3355c62326d9","650c16f0f2faf8d7a0d14c09","651c1bfc58d179ab672053ef","null","null","<p style=""font-size: 60px; font-family: BACS"">vmuLlLcO</p>","","","","","","","","",""
"html-keyboard-response","384","583278","0.0-16.0-0.52","60dee3200c7c3355c62326d9","650c16f0f2faf8d7a0d14c09","651c1bfc58d179ab672053ef","null","null","<p style=""font-size: 60px; font-family: BACS"">vmuLlLcO</p>","","","","","","","","",""
"html-keyboard-response","385","584281","0.0-16.0-0.53","60dee3200c7c3355c62326d9","650c16f0f2faf8d7a0d14c09","651c1bfc58d179ab672053ef","null","null","<p style=""font-size: 60px; font-family: BACS"">vmuLlLcO</p>","","","","","","","","",""
"html-keyboard-response","386","585284","0.0-16.0-0.54","60dee3200c7c3355c62326d9","650c16f0f2faf8d7a0d14c09","651c1bfc58d179ab672053ef","null","null","<p style=""font-size: 60px; font-family: BACS"">vmuLlLcO</p>","","","","","","","","",""
"html-keyboard-response","387","586287","0.0-16.0-0.55","60dee3200c7c3355c62326d9","650c16f0f2faf8d7a0d14c09","651c1bfc58d179ab672053ef","null","null","<p style=""font-size: 60px; font-family: BACS"">vmuLlLcO</p>","","","","","","","","",""
"html-keyboard-response","388","587297","0.0-16.0-0.56","60dee3200c7c3355c62326d9","650c16f0f2faf8d7a0d14c09","651c1bfc58d179ab672053ef","null","null","<p style=""font-size: 60px; font-family: BACS"">vmuLlLcO</p>","","","","","","","","",""
"html-keyboard-response","389","588299","0.0-16.0-0.57","60dee3200c7c3355c62326d9","650c16f0f2faf8d7a0d14c09","651c1bfc58d179ab672053ef","null","null","<p style=""font-size: 60px; font-family: BACS"">vmuLlLcO</p>","","","","","","","","",""
"html-keyboard-response","390","589312","0.0-16.0-0.58","60dee3200c7c3355c62326d9","650c16f0f2faf8d7a0d14c09","651c1bfc58d179ab672053ef","null","null","<p style=""font-size: 60px; font-family: BACS"">vmuLlLcO</p>","","","","","","","","",""
"html-keyboard-response","391","590315","0.0-16.0-0.59","60dee3200c7c3355c62326d9","650c16f0f2faf8d7a0d14c09","651c1bfc58d179ab672053ef","null","null","<p style=""font-size: 60px; font-family: BACS"">vmuLlLcO</p>","","","","","","","","",""
"html-keyboard-response","392","591330","0.0-16.0-0.60","60dee3200c7c3355c62326d9","650c16f0f2faf8d7a0d14c09","651c1bfc58d179ab672053ef","null","null","<p style=""font-size: 60px; font-family: BACS"">vmuLlLcO</p>","","","","","","","","",""
"html-keyboard-response","393","592331","0.0-16.0-0.61","60dee3200c7c3355c62326d9","650c16f0f2faf8d7a0d14c09","651c1bfc58d179ab672053ef","null","null","<p style=""font-size: 60px; font-family: BACS"">vmuLlLcO</p>","","","","","","","","",""
"html-keyboard-response","394","593346","0.0-16.0-0.62","60dee3200c7c3355c62326d9","650c16f0f2faf8d7a0d14c09","651c1bfc58d179ab672053ef","null","null","<p style=""font-size: 60px; font-family: BACS"">vmuLlLcO</p>","","","","","","","","",""
"html-keyboard-response","395","594348","0.0-16.0-0.63","60dee3200c7c3355c62326d9","650c16f0f2faf8d7a0d14c09","651c1bfc58d179ab672053ef","null","null","<p style=""font-size: 60px; font-family: BACS"">vmuLlLcO</p>","","","","","","","","",""
"html-keyboard-response","396","595361","0.0-16.0-0.64","60dee3200c7c3355c62326d9","650c16f0f2faf8d7a0d14c09","651c1bfc58d179ab672053ef","null","null","<p style=""font-size: 60px; font-family: BACS"">vmuLlLcO</p>","","","","","","","","",""
"html-keyboard-response","397","596364","0.0-16.0-0.65","60dee3200c7c3355c62326d9","650c16f0f2faf8d7a0d14c09","651c1bfc58d179ab672053ef","null","null","<p style=""font-size: 60px; font-family: BACS"">vmuLlLcO</p>","","","","","","","","",""
"html-keyboard-response","398","597378","0.0-16.0-0.66","60dee3200c7c3355c62326d9","650c16f0f2faf8d7a0d14c09","651c1bfc58d179ab672053ef","null","null","<p style=""font-size: 60px; font-family: BACS"">vmuLlLcO</p>","","","","","","","","",""
"html-keyboard-response","399","598381","0.0-16.0-0.67","60dee3200c7c3355c62326d9","650c16f0f2faf8d7a0d14c09","651c1bfc58d179ab672053ef","null","null","<p style=""font-size: 60px; font-family: BACS"">vmuLlLcO</p>","","","","","","","","",""
