trial_type,trial_index,time_elapsed,internal_node_id,subject_id,study_id,session_id,rt,response,stimulus,success,item,task,correct_response,testing_condition,correct,target,confound,name,view_history
pavlovia,0,756,0.0-0.0,65089e7ce53888b0b3840c62,650c16f0f2faf8d7a0d14c09,651c34c9a3e74ef2f3dc1e24,,,,,,,,,,,,,
survey-html-form,1,9431,0.0-1.0,65089e7ce53888b0b3840c62,650c16f0f2faf8d7a0d14c09,651c34c9a3e74ef2f3dc1e24,8674,"{""ID"":""65089e7ce53888b0b3840c62""}",,,,,,,,,,,
html-keyboard-response,2,36883,0.0-2.0,65089e7ce53888b0b3840c62,650c16f0f2faf8d7a0d14c09,651c34c9a3e74ef2f3dc1e24,27451, ,"<p style=""font-size: 15px;"">Before beginning, we ask that you read the consent information and confirm your agreement to participate in the experiment.</p>
      <p style=""font-size: 15px;""> We ask that you remember that this is a research project and that your participation is entirely voluntary. You can stop your participation at any time, without needing to provide any explanation. The study we're asking you to participate in aims at examining how readers process written words. You will be engaged in a session of apprximately 20 minutes, followed by a brief questionnaire. You will have the opportunity to take a few breaks during the experiment. You will be paid £4 for your participation, corresponding to a rate of £8/hour. While this experiment looks at cognitive faculties, this experiment doesn't constitute clinical proof of eventual pathologies.</p>
      <p style=""font-size: 15px;"">All of the information collected thanks to yours and others' participation will be held in a secure password-protected server, and will not be shared with anyone not authorised to view it. Your personal information will be kept with an arbitrary participant ID. Thanks to this data anonymity process, any researcher analysing the data won't be able to track the information back to a specific participant. Therefore, this process will make identifying you impossibile, even when results from the study will be published in scientific reviews, presented at congresses, or at any other public forum. More generally, the collected data will be treated in accordance with the laws on privacy and conformity to the Legislative Degree n. 196 ""Code regarding the protection of personal data"" of the 30th of June 2003 and to the European Regulation 2016/670 (General Data Protection Regulation - GDPR). The Data Protection Officer is Avv. Valentina Carollo, who can be contacted at the following email addresses: <a href=""mailto:dpo@sissa.it"">dpo@sissa.it</a> or <a href=""mailto:rpd@sissa.it"">rpd@sissa.it</a> - PEC: <a href=""mailto:protocollo@pec.sissa.it"">protocollo@pec.sissa.it</a>.</p>
      <p style=""font-size: 15px;""> Before expressing your consent to participate, we would like to remind you again that in case you need explanations on any aspect of the experimental procedure, the researcher is at your disposition (<a href=""mailto:aliebelt@sissa.it"">aliebelt@sissa.it</a>, <a href=""mailto:davide.crepaldi@sissa.it"">davide.crepaldi@sissa.it</a>).</p>
      <p style=""font-size: 15px;"">If you would like to download the informed consent form, you can do so here: <a href=""BASL-Informed_Consent.pdf"" download>informed consent form</a>.</p>
      <p style=""font-size: 15px;"">We ask that you press the spacebar to proceed to the consent section.</p>",,,,,,,,,,
survey-html-form,3,64197,0.0-3.0,65089e7ce53888b0b3840c62,650c16f0f2faf8d7a0d14c09,651c34c9a3e74ef2f3dc1e24,27313,"{""consent1"":""YES"",""consent2"":""YES"",""consent3"":""YES"",""consent4"":""YES"",""consent5"":""YES"",""consent6"":""YES""}",,,,,,,,,,,
fullscreen,4,71791,0.0-4.0,65089e7ce53888b0b3840c62,650c16f0f2faf8d7a0d14c09,651c34c9a3e74ef2f3dc1e24,,,,TRUE,,,,,,,,,
html-keyboard-response,5,105691,0.0-5.0,65089e7ce53888b0b3840c62,650c16f0f2faf8d7a0d14c09,651c34c9a3e74ef2f3dc1e24,33900, ,"<p>Welcome, and thank you very much for your time!</p>
      <p>In this experiment, you'll be a language expert who's been asked to take a look at words that Earth has received in its first communication with aliens. Your task, in this first part of the experiment, is to pay close attention to the words you'll be shown; later, world leaders will ask you questions on what you saw. The words will be shown to you quite quickly; it seems that the aliens were in a hurry :-)</p>
      <p>Press the spacebar to continue.<p>",,,,,,,,,,
html-keyboard-response,6,105742,0.0-6.0,65089e7ce53888b0b3840c62,650c16f0f2faf8d7a0d14c09,651c34c9a3e74ef2f3dc1e24,null,null,"<p style=""font-size: 120px; font-family: BACS""> </p>",,,,,,,,,,
html-keyboard-response,7,123160,0.0-7.0,65089e7ce53888b0b3840c62,650c16f0f2faf8d7a0d14c09,651c34c9a3e74ef2f3dc1e24,17417, ,"<p>Here is an example of the words you'll see:</p>
      <img src='esempio.png' height='400px'>
      <p>When you're ready to begin, press the spacebar.</p></div>",,,,,,,,,,
html-keyboard-response,8,124174,0.0-8.0-0.0,65089e7ce53888b0b3840c62,650c16f0f2faf8d7a0d14c09,651c34c9a3e74ef2f3dc1e24,null,null,"<p style=""font-size: 60px; font-family: BACS"">ZcGdNGUOA</p>",,,,,,,,,,
html-keyboard-response,9,125184,0.0-8.0-0.1,65089e7ce53888b0b3840c62,650c16f0f2faf8d7a0d14c09,651c34c9a3e74ef2f3dc1e24,null,null,"<p style=""font-size: 60px; font-family: BACS"">TPCbBYhT</p>",,,,,,,,,,
html-keyboard-response,10,126194,0.0-8.0-0.2,65089e7ce53888b0b3840c62,650c16f0f2faf8d7a0d14c09,651c34c9a3e74ef2f3dc1e24,null,null,"<p style=""font-size: 60px; font-family: BACS"">ZcGdNuUmb</p>",,,,,,,,,,
html-keyboard-response,11,127207,0.0-8.0-0.3,65089e7ce53888b0b3840c62,650c16f0f2faf8d7a0d14c09,651c34c9a3e74ef2f3dc1e24,null,null,"<p style=""font-size: 60px; font-family: BACS"">lRckABYhT</p>",,,,,,,,,,
html-keyboard-response,12,128220,0.0-8.0-0.4,65089e7ce53888b0b3840c62,650c16f0f2faf8d7a0d14c09,651c34c9a3e74ef2f3dc1e24,null,null,"<p style=""font-size: 60px; font-family: BACS"">NvuGrAOUl</p>",,,,,,,,,,
html-keyboard-response,13,129232,0.0-8.0-0.5,65089e7ce53888b0b3840c62,650c16f0f2faf8d7a0d14c09,651c34c9a3e74ef2f3dc1e24,null,null,"<p style=""font-size: 60px; font-family: BACS"">htmhCKOYC</p>",,,,,,,,,,
html-keyboard-response,14,130243,0.0-8.0-0.6,65089e7ce53888b0b3840c62,650c16f0f2faf8d7a0d14c09,651c34c9a3e74ef2f3dc1e24,null,null,"<p style=""font-size: 60px; font-family: BACS"">TdmABYhT</p>",,,,,,,,,,
html-keyboard-response,15,131250,0.0-8.0-0.7,65089e7ce53888b0b3840c62,650c16f0f2faf8d7a0d14c09,651c34c9a3e74ef2f3dc1e24,null,null,"<p style=""font-size: 60px; font-family: BACS"">AZaJcAOUl</p>",,,,,,,,,,
html-keyboard-response,16,132264,0.0-8.0-0.8,65089e7ce53888b0b3840c62,650c16f0f2faf8d7a0d14c09,651c34c9a3e74ef2f3dc1e24,null,null,"<p style=""font-size: 60px; font-family: BACS"">hChYdBC</p>",,,,,,,,,,
html-keyboard-response,17,133278,0.0-8.0-0.9,65089e7ce53888b0b3840c62,650c16f0f2faf8d7a0d14c09,651c34c9a3e74ef2f3dc1e24,null,null,"<p style=""font-size: 60px; font-family: BACS"">OEPkmKcD</p>",,,,,,,,,,
html-keyboard-response,18,134290,0.0-8.0-0.10,65089e7ce53888b0b3840c62,650c16f0f2faf8d7a0d14c09,651c34c9a3e74ef2f3dc1e24,null,null,"<p style=""font-size: 60px; font-family: BACS"">cROMtOYK</p>",,,,,,,,,,
html-keyboard-response,19,135296,0.0-8.0-0.11,65089e7ce53888b0b3840c62,650c16f0f2faf8d7a0d14c09,651c34c9a3e74ef2f3dc1e24,null,null,"<p style=""font-size: 60px; font-family: BACS"">cdKBYdBC</p>",,,,,,,,,,
html-keyboard-response,20,136309,0.0-8.0-0.12,65089e7ce53888b0b3840c62,650c16f0f2faf8d7a0d14c09,651c34c9a3e74ef2f3dc1e24,null,null,"<p style=""font-size: 60px; font-family: BACS"">cuOJbAOUl</p>",,,,,,,,,,
html-keyboard-response,21,137317,0.0-8.0-0.13,65089e7ce53888b0b3840c62,650c16f0f2faf8d7a0d14c09,651c34c9a3e74ef2f3dc1e24,null,null,"<p style=""font-size: 60px; font-family: BACS"">CDEmYOYK</p>",,,,,,,,,,
html-keyboard-response,22,138330,0.0-8.0-0.14,65089e7ce53888b0b3840c62,650c16f0f2faf8d7a0d14c09,651c34c9a3e74ef2f3dc1e24,null,null,"<p style=""font-size: 60px; font-family: BACS"">vclYGUa</p>",,,,,,,,,,
html-keyboard-response,23,139339,0.0-8.0-0.15,65089e7ce53888b0b3840c62,650c16f0f2faf8d7a0d14c09,651c34c9a3e74ef2f3dc1e24,null,null,"<p style=""font-size: 60px; font-family: BACS"">cuOJbkmU</p>",,,,,,,,,,
html-keyboard-response,24,140349,0.0-8.0-0.16,65089e7ce53888b0b3840c62,650c16f0f2faf8d7a0d14c09,651c34c9a3e74ef2f3dc1e24,null,null,"<p style=""font-size: 60px; font-family: BACS"">lRckAKOYC</p>",,,,,,,,,,
html-keyboard-response,25,141364,0.0-8.0-0.17,65089e7ce53888b0b3840c62,650c16f0f2faf8d7a0d14c09,651c34c9a3e74ef2f3dc1e24,null,null,"<p style=""font-size: 60px; font-family: BACS"">OEPkdBC</p>",,,,,,,,,,
html-keyboard-response,26,142373,0.0-8.0-0.18,65089e7ce53888b0b3840c62,650c16f0f2faf8d7a0d14c09,651c34c9a3e74ef2f3dc1e24,null,null,"<p style=""font-size: 60px; font-family: BACS"">NvuGrGUa</p>",,,,,,,,,,
html-keyboard-response,27,143382,0.0-8.0-0.19,65089e7ce53888b0b3840c62,650c16f0f2faf8d7a0d14c09,651c34c9a3e74ef2f3dc1e24,null,null,"<p style=""font-size: 60px; font-family: BACS"">TdmAOYK</p>",,,,,,,,,,
html-keyboard-response,28,144394,0.0-8.0-0.20,65089e7ce53888b0b3840c62,650c16f0f2faf8d7a0d14c09,651c34c9a3e74ef2f3dc1e24,null,null,"<p style=""font-size: 60px; font-family: BACS"">TPCbmKcD</p>",,,,,,,,,,
html-keyboard-response,29,145397,0.0-8.0-0.21,65089e7ce53888b0b3840c62,650c16f0f2faf8d7a0d14c09,651c34c9a3e74ef2f3dc1e24,null,null,"<p style=""font-size: 60px; font-family: BACS"">YNrAmuUmb</p>",,,,,,,,,,
html-keyboard-response,30,146407,0.0-8.0-0.22,65089e7ce53888b0b3840c62,650c16f0f2faf8d7a0d14c09,651c34c9a3e74ef2f3dc1e24,null,null,"<p style=""font-size: 60px; font-family: BACS"">htmhCBYhT</p>",,,,,,,,,,
html-keyboard-response,31,147420,0.0-8.0-0.23,65089e7ce53888b0b3840c62,650c16f0f2faf8d7a0d14c09,651c34c9a3e74ef2f3dc1e24,null,null,"<p style=""font-size: 60px; font-family: BACS"">mcOJkmU</p>",,,,,,,,,,
html-keyboard-response,32,148427,0.0-8.0-0.24,65089e7ce53888b0b3840c62,650c16f0f2faf8d7a0d14c09,651c34c9a3e74ef2f3dc1e24,null,null,"<p style=""font-size: 60px; font-family: BACS"">JdOAYuUmb</p>",,,,,,,,,,
html-keyboard-response,33,149441,0.0-8.0-0.25,65089e7ce53888b0b3840c62,650c16f0f2faf8d7a0d14c09,651c34c9a3e74ef2f3dc1e24,null,null,"<p style=""font-size: 60px; font-family: BACS"">mcOJGUOA</p>",,,,,,,,,,
html-keyboard-response,34,150453,0.0-8.0-0.26,65089e7ce53888b0b3840c62,650c16f0f2faf8d7a0d14c09,651c34c9a3e74ef2f3dc1e24,null,null,"<p style=""font-size: 60px; font-family: BACS"">rLkmuUmb</p>",,,,,,,,,,
html-keyboard-response,35,151465,0.0-8.0-0.27,65089e7ce53888b0b3840c62,650c16f0f2faf8d7a0d14c09,651c34c9a3e74ef2f3dc1e24,null,null,"<p style=""font-size: 60px; font-family: BACS"">YNrAmkmU</p>",,,,,,,,,,
html-keyboard-response,36,152477,0.0-8.0-0.28,65089e7ce53888b0b3840c62,650c16f0f2faf8d7a0d14c09,651c34c9a3e74ef2f3dc1e24,null,null,"<p style=""font-size: 60px; font-family: BACS"">hChYmKcD</p>",,,,,,,,,,
html-keyboard-response,37,153485,0.0-8.0-0.29,65089e7ce53888b0b3840c62,650c16f0f2faf8d7a0d14c09,651c34c9a3e74ef2f3dc1e24,null,null,"<p style=""font-size: 60px; font-family: BACS"">BdtACKOYC</p>",,,,,,,,,,
html-keyboard-response,38,154491,0.0-8.0-0.30,65089e7ce53888b0b3840c62,650c16f0f2faf8d7a0d14c09,651c34c9a3e74ef2f3dc1e24,null,null,"<p style=""font-size: 60px; font-family: BACS"">rLkmGUOA</p>",,,,,,,,,,
html-keyboard-response,39,155500,0.0-8.0-0.31,65089e7ce53888b0b3840c62,650c16f0f2faf8d7a0d14c09,651c34c9a3e74ef2f3dc1e24,null,null,"<p style=""font-size: 60px; font-family: BACS"">cdKBYmKcD</p>",,,,,,,,,,
html-keyboard-response,40,156512,0.0-8.0-0.32,65089e7ce53888b0b3840c62,650c16f0f2faf8d7a0d14c09,651c34c9a3e74ef2f3dc1e24,null,null,"<p style=""font-size: 60px; font-family: BACS"">TdmAKOYC</p>",,,,,,,,,,
html-keyboard-response,41,157523,0.0-8.0-0.33,65089e7ce53888b0b3840c62,650c16f0f2faf8d7a0d14c09,651c34c9a3e74ef2f3dc1e24,null,null,"<p style=""font-size: 60px; font-family: BACS"">BdtACmKcD</p>",,,,,,,,,,
html-keyboard-response,42,158524,0.0-8.0-0.34,65089e7ce53888b0b3840c62,650c16f0f2faf8d7a0d14c09,651c34c9a3e74ef2f3dc1e24,null,null,"<p style=""font-size: 60px; font-family: BACS"">cROMtdBC</p>",,,,,,,,,,
html-keyboard-response,43,159534,0.0-8.0-0.35,65089e7ce53888b0b3840c62,650c16f0f2faf8d7a0d14c09,651c34c9a3e74ef2f3dc1e24,null,null,"<p style=""font-size: 60px; font-family: BACS"">cdKBYOYK</p>",,,,,,,,,,
html-keyboard-response,44,160545,0.0-8.0-0.36,65089e7ce53888b0b3840c62,650c16f0f2faf8d7a0d14c09,651c34c9a3e74ef2f3dc1e24,null,null,"<p style=""font-size: 60px; font-family: BACS"">JdOAYAOUl</p>",,,,,,,,,,
html-keyboard-response,45,161558,0.0-8.0-0.37,65089e7ce53888b0b3840c62,650c16f0f2faf8d7a0d14c09,651c34c9a3e74ef2f3dc1e24,null,null,"<p style=""font-size: 60px; font-family: BACS"">cROMtKOYC</p>",,,,,,,,,,
html-keyboard-response,46,162569,0.0-8.0-0.38,65089e7ce53888b0b3840c62,650c16f0f2faf8d7a0d14c09,651c34c9a3e74ef2f3dc1e24,null,null,"<p style=""font-size: 60px; font-family: BACS"">ZcGdNAOUl</p>",,,,,,,,,,
html-keyboard-response,47,163582,0.0-8.0-0.39,65089e7ce53888b0b3840c62,650c16f0f2faf8d7a0d14c09,651c34c9a3e74ef2f3dc1e24,null,null,"<p style=""font-size: 60px; font-family: BACS"">cROMtBYhT</p>",,,,,,,,,,
html-keyboard-response,48,164594,0.0-8.0-0.40,65089e7ce53888b0b3840c62,650c16f0f2faf8d7a0d14c09,651c34c9a3e74ef2f3dc1e24,null,null,"<p style=""font-size: 60px; font-family: BACS"">AZaJcuUmb</p>",,,,,,,,,,
html-keyboard-response,49,165607,0.0-8.0-0.41,65089e7ce53888b0b3840c62,650c16f0f2faf8d7a0d14c09,651c34c9a3e74ef2f3dc1e24,null,null,"<p style=""font-size: 60px; font-family: BACS"">hChYBYhT</p>",,,,,,,,,,
html-keyboard-response,50,166617,0.0-8.0-0.42,65089e7ce53888b0b3840c62,650c16f0f2faf8d7a0d14c09,651c34c9a3e74ef2f3dc1e24,null,null,"<p style=""font-size: 60px; font-family: BACS"">CDEmYmKcD</p>",,,,,,,,,,
html-keyboard-response,51,167627,0.0-8.0-0.43,65089e7ce53888b0b3840c62,650c16f0f2faf8d7a0d14c09,651c34c9a3e74ef2f3dc1e24,null,null,"<p style=""font-size: 60px; font-family: BACS"">OEPkBYhT</p>",,,,,,,,,,
html-keyboard-response,52,168638,0.0-8.0-0.44,65089e7ce53888b0b3840c62,650c16f0f2faf8d7a0d14c09,651c34c9a3e74ef2f3dc1e24,null,null,"<p style=""font-size: 60px; font-family: BACS"">AZaJcGUa</p>",,,,,,,,,,
html-keyboard-response,53,169649,0.0-8.0-0.45,65089e7ce53888b0b3840c62,650c16f0f2faf8d7a0d14c09,651c34c9a3e74ef2f3dc1e24,null,null,"<p style=""font-size: 60px; font-family: BACS"">OLJbluUmb</p>",,,,,,,,,,
html-keyboard-response,54,170663,0.0-8.0-0.46,65089e7ce53888b0b3840c62,650c16f0f2faf8d7a0d14c09,651c34c9a3e74ef2f3dc1e24,null,null,"<p style=""font-size: 60px; font-family: BACS"">OEPkOYK</p>",,,,,,,,,,
html-keyboard-response,55,171673,0.0-8.0-0.47,65089e7ce53888b0b3840c62,650c16f0f2faf8d7a0d14c09,651c34c9a3e74ef2f3dc1e24,null,null,"<p style=""font-size: 60px; font-family: BACS"">cdKBYKOYC</p>",,,,,,,,,,
html-keyboard-response,56,172685,0.0-8.0-0.48,65089e7ce53888b0b3840c62,650c16f0f2faf8d7a0d14c09,651c34c9a3e74ef2f3dc1e24,null,null,"<p style=""font-size: 60px; font-family: BACS"">YNrAmGUOA</p>",,,,,,,,,,
html-keyboard-response,57,173696,0.0-8.0-0.49,65089e7ce53888b0b3840c62,650c16f0f2faf8d7a0d14c09,651c34c9a3e74ef2f3dc1e24,null,null,"<p style=""font-size: 60px; font-family: BACS"">CDEmYKOYC</p>",,,,,,,,,,
html-keyboard-response,58,174711,0.0-8.0-0.50,65089e7ce53888b0b3840c62,650c16f0f2faf8d7a0d14c09,651c34c9a3e74ef2f3dc1e24,null,null,"<p style=""font-size: 60px; font-family: BACS"">TPCbdBC</p>",,,,,,,,,,
html-keyboard-response,59,175725,0.0-8.0-0.51,65089e7ce53888b0b3840c62,650c16f0f2faf8d7a0d14c09,651c34c9a3e74ef2f3dc1e24,null,null,"<p style=""font-size: 60px; font-family: BACS"">ZcGdNGUa</p>",,,,,,,,,,
html-keyboard-response,60,176736,0.0-8.0-0.52,65089e7ce53888b0b3840c62,650c16f0f2faf8d7a0d14c09,651c34c9a3e74ef2f3dc1e24,null,null,"<p style=""font-size: 60px; font-family: BACS"">TdmAmKcD</p>",,,,,,,,,,
html-keyboard-response,61,177746,0.0-8.0-0.53,65089e7ce53888b0b3840c62,650c16f0f2faf8d7a0d14c09,651c34c9a3e74ef2f3dc1e24,null,null,"<p style=""font-size: 60px; font-family: BACS"">NvuGrGUOA</p>",,,,,,,,,,
html-keyboard-response,62,178759,0.0-8.0-0.54,65089e7ce53888b0b3840c62,650c16f0f2faf8d7a0d14c09,651c34c9a3e74ef2f3dc1e24,null,null,"<p style=""font-size: 60px; font-family: BACS"">mcOJAOUl</p>",,,,,,,,,,
html-keyboard-response,63,179768,0.0-8.0-0.55,65089e7ce53888b0b3840c62,650c16f0f2faf8d7a0d14c09,651c34c9a3e74ef2f3dc1e24,null,null,"<p style=""font-size: 60px; font-family: BACS"">cuOJbGUa</p>",,,,,,,,,,
html-keyboard-response,64,180782,0.0-8.0-0.56,65089e7ce53888b0b3840c62,650c16f0f2faf8d7a0d14c09,651c34c9a3e74ef2f3dc1e24,null,null,"<p style=""font-size: 60px; font-family: BACS"">hChYOYK</p>",,,,,,,,,,
html-keyboard-response,65,181793,0.0-8.0-0.57,65089e7ce53888b0b3840c62,650c16f0f2faf8d7a0d14c09,651c34c9a3e74ef2f3dc1e24,null,null,"<p style=""font-size: 60px; font-family: BACS"">OLJblkmU</p>",,,,,,,,,,
html-keyboard-response,66,182806,0.0-8.0-0.58,65089e7ce53888b0b3840c62,650c16f0f2faf8d7a0d14c09,651c34c9a3e74ef2f3dc1e24,null,null,"<p style=""font-size: 60px; font-family: BACS"">YNrAmGUa</p>",,,,,,,,,,
html-keyboard-response,67,183820,0.0-8.0-0.59,65089e7ce53888b0b3840c62,650c16f0f2faf8d7a0d14c09,651c34c9a3e74ef2f3dc1e24,null,null,"<p style=""font-size: 60px; font-family: BACS"">htmhCmKcD</p>",,,,,,,,,,
html-keyboard-response,68,184831,0.0-8.0-0.60,65089e7ce53888b0b3840c62,650c16f0f2faf8d7a0d14c09,651c34c9a3e74ef2f3dc1e24,null,null,"<p style=""font-size: 60px; font-family: BACS"">OLJblAOUl</p>",,,,,,,,,,
html-keyboard-response,69,185839,0.0-8.0-0.61,65089e7ce53888b0b3840c62,650c16f0f2faf8d7a0d14c09,651c34c9a3e74ef2f3dc1e24,null,null,"<p style=""font-size: 60px; font-family: BACS"">NvuGruUmb</p>",,,,,,,,,,
html-keyboard-response,70,186850,0.0-8.0-0.62,65089e7ce53888b0b3840c62,650c16f0f2faf8d7a0d14c09,651c34c9a3e74ef2f3dc1e24,null,null,"<p style=""font-size: 60px; font-family: BACS"">TPCbKOYC</p>",,,,,,,,,,
html-keyboard-response,71,187862,0.0-8.0-0.63,65089e7ce53888b0b3840c62,650c16f0f2faf8d7a0d14c09,651c34c9a3e74ef2f3dc1e24,null,null,"<p style=""font-size: 60px; font-family: BACS"">CDEmYdBC</p>",,,,,,,,,,
html-keyboard-response,72,188872,0.0-8.0-0.64,65089e7ce53888b0b3840c62,650c16f0f2faf8d7a0d14c09,651c34c9a3e74ef2f3dc1e24,null,null,"<p style=""font-size: 60px; font-family: BACS"">JdOAYGUOA</p>",,,,,,,,,,
html-keyboard-response,73,189886,0.0-8.0-0.65,65089e7ce53888b0b3840c62,650c16f0f2faf8d7a0d14c09,651c34c9a3e74ef2f3dc1e24,null,null,"<p style=""font-size: 60px; font-family: BACS"">BdtACBYhT</p>",,,,,,,,,,
html-keyboard-response,74,190895,0.0-8.0-0.66,65089e7ce53888b0b3840c62,650c16f0f2faf8d7a0d14c09,651c34c9a3e74ef2f3dc1e24,null,null,"<p style=""font-size: 60px; font-family: BACS"">rLkmkmU</p>",,,,,,,,,,
html-keyboard-response,75,191910,0.0-8.0-0.67,65089e7ce53888b0b3840c62,650c16f0f2faf8d7a0d14c09,651c34c9a3e74ef2f3dc1e24,null,null,"<p style=""font-size: 60px; font-family: BACS"">htmhCdBC</p>",,,,,,,,,,
html-keyboard-response,76,192926,0.0-8.0-0.68,65089e7ce53888b0b3840c62,650c16f0f2faf8d7a0d14c09,651c34c9a3e74ef2f3dc1e24,null,null,"<p style=""font-size: 60px; font-family: BACS"">OLJblGUOA</p>",,,,,,,,,,
html-keyboard-response,77,193936,0.0-8.0-0.69,65089e7ce53888b0b3840c62,650c16f0f2faf8d7a0d14c09,651c34c9a3e74ef2f3dc1e24,null,null,"<p style=""font-size: 60px; font-family: BACS"">rLkmGUa</p>",,,,,,,,,,
html-keyboard-response,78,194947,0.0-8.0-0.70,65089e7ce53888b0b3840c62,650c16f0f2faf8d7a0d14c09,651c34c9a3e74ef2f3dc1e24,null,null,"<p style=""font-size: 60px; font-family: BACS"">cuOJbGUOA</p>",,,,,,,,,,
html-keyboard-response,79,195962,0.0-8.0-0.71,65089e7ce53888b0b3840c62,650c16f0f2faf8d7a0d14c09,651c34c9a3e74ef2f3dc1e24,null,null,"<p style=""font-size: 60px; font-family: BACS"">lRckAdBC</p>",,,,,,,,,,
html-keyboard-response,80,196973,0.0-8.0-0.72,65089e7ce53888b0b3840c62,650c16f0f2faf8d7a0d14c09,651c34c9a3e74ef2f3dc1e24,null,null,"<p style=""font-size: 60px; font-family: BACS"">AZaJckmU</p>",,,,,,,,,,
html-keyboard-response,81,197988,0.0-8.0-0.73,65089e7ce53888b0b3840c62,650c16f0f2faf8d7a0d14c09,651c34c9a3e74ef2f3dc1e24,null,null,"<p style=""font-size: 60px; font-family: BACS"">vclYuUmb</p>",,,,,,,,,,
html-keyboard-response,82,199000,0.0-8.0-0.74,65089e7ce53888b0b3840c62,650c16f0f2faf8d7a0d14c09,651c34c9a3e74ef2f3dc1e24,null,null,"<p style=""font-size: 60px; font-family: BACS"">BdtACOYK</p>",,,,,,,,,,
html-keyboard-response,83,200008,0.0-8.0-0.75,65089e7ce53888b0b3840c62,650c16f0f2faf8d7a0d14c09,651c34c9a3e74ef2f3dc1e24,null,null,"<p style=""font-size: 60px; font-family: BACS"">JdOAYkmU</p>",,,,,,,,,,
html-keyboard-response,84,201021,0.0-8.0-0.76,65089e7ce53888b0b3840c62,650c16f0f2faf8d7a0d14c09,651c34c9a3e74ef2f3dc1e24,null,null,"<p style=""font-size: 60px; font-family: BACS"">vclYAOUl</p>",,,,,,,,,,
html-keyboard-response,85,202031,0.0-8.0-0.77,65089e7ce53888b0b3840c62,650c16f0f2faf8d7a0d14c09,651c34c9a3e74ef2f3dc1e24,null,null,"<p style=""font-size: 60px; font-family: BACS"">mcOJGUa</p>",,,,,,,,,,
html-keyboard-response,86,203042,0.0-8.0-0.78,65089e7ce53888b0b3840c62,650c16f0f2faf8d7a0d14c09,651c34c9a3e74ef2f3dc1e24,null,null,"<p style=""font-size: 60px; font-family: BACS"">vclYkmU</p>",,,,,,,,,,
html-keyboard-response,87,204053,0.0-8.0-0.79,65089e7ce53888b0b3840c62,650c16f0f2faf8d7a0d14c09,651c34c9a3e74ef2f3dc1e24,null,null,"<p style=""font-size: 60px; font-family: BACS"">lRckAOYK</p>",,,,,,,,,,
html-keyboard-response,88,209897,0.0-9.0,65089e7ce53888b0b3840c62,650c16f0f2faf8d7a0d14c09,651c34c9a3e74ef2f3dc1e24,5843, ,"<p>Great, you've seen the first block of words. You may now take a short break.</p>
      <p>Press the spacebar when you're ready to continue.</p>",,,,,,,,,,
html-keyboard-response,89,210903,0.0-10.0-0.0,65089e7ce53888b0b3840c62,650c16f0f2faf8d7a0d14c09,651c34c9a3e74ef2f3dc1e24,null,null,"<p style=""font-size: 60px; font-family: BACS"">mcOJAOUl</p>",,,,,,,,,,
html-keyboard-response,90,211915,0.0-10.0-0.1,65089e7ce53888b0b3840c62,650c16f0f2faf8d7a0d14c09,651c34c9a3e74ef2f3dc1e24,null,null,"<p style=""font-size: 60px; font-family: BACS"">OEPkmKcD</p>",,,,,,,,,,
html-keyboard-response,91,212925,0.0-10.0-0.2,65089e7ce53888b0b3840c62,650c16f0f2faf8d7a0d14c09,651c34c9a3e74ef2f3dc1e24,null,null,"<p style=""font-size: 60px; font-family: BACS"">cuOJbkmU</p>",,,,,,,,,,
html-keyboard-response,92,213938,0.0-10.0-0.3,65089e7ce53888b0b3840c62,650c16f0f2faf8d7a0d14c09,651c34c9a3e74ef2f3dc1e24,null,null,"<p style=""font-size: 60px; font-family: BACS"">CDEmYOYK</p>",,,,,,,,,,
html-keyboard-response,93,214949,0.0-10.0-0.4,65089e7ce53888b0b3840c62,650c16f0f2faf8d7a0d14c09,651c34c9a3e74ef2f3dc1e24,null,null,"<p style=""font-size: 60px; font-family: BACS"">cdKBYKOYC</p>",,,,,,,,,,
html-keyboard-response,94,215962,0.0-10.0-0.5,65089e7ce53888b0b3840c62,650c16f0f2faf8d7a0d14c09,651c34c9a3e74ef2f3dc1e24,null,null,"<p style=""font-size: 60px; font-family: BACS"">vclYGUa</p>",,,,,,,,,,
html-keyboard-response,95,216973,0.0-10.0-0.6,65089e7ce53888b0b3840c62,650c16f0f2faf8d7a0d14c09,651c34c9a3e74ef2f3dc1e24,null,null,"<p style=""font-size: 60px; font-family: BACS"">htmhCKOYC</p>",,,,,,,,,,
html-keyboard-response,96,217983,0.0-10.0-0.7,65089e7ce53888b0b3840c62,650c16f0f2faf8d7a0d14c09,651c34c9a3e74ef2f3dc1e24,null,null,"<p style=""font-size: 60px; font-family: BACS"">NvuGruUmb</p>",,,,,,,,,,
html-keyboard-response,97,218998,0.0-10.0-0.8,65089e7ce53888b0b3840c62,650c16f0f2faf8d7a0d14c09,651c34c9a3e74ef2f3dc1e24,null,null,"<p style=""font-size: 60px; font-family: BACS"">ZcGdNGUa</p>",,,,,,,,,,
html-keyboard-response,98,220010,0.0-10.0-0.9,65089e7ce53888b0b3840c62,650c16f0f2faf8d7a0d14c09,651c34c9a3e74ef2f3dc1e24,null,null,"<p style=""font-size: 60px; font-family: BACS"">JdOAYGUOA</p>",,,,,,,,,,
html-keyboard-response,99,221022,0.0-10.0-0.10,65089e7ce53888b0b3840c62,650c16f0f2faf8d7a0d14c09,651c34c9a3e74ef2f3dc1e24,null,null,"<p style=""font-size: 60px; font-family: BACS"">rLkmuUmb</p>",,,,,,,,,,
html-keyboard-response,100,222031,0.0-10.0-0.11,65089e7ce53888b0b3840c62,650c16f0f2faf8d7a0d14c09,651c34c9a3e74ef2f3dc1e24,null,null,"<p style=""font-size: 60px; font-family: BACS"">htmhCmKcD</p>",,,,,,,,,,
html-keyboard-response,101,223043,0.0-10.0-0.12,65089e7ce53888b0b3840c62,650c16f0f2faf8d7a0d14c09,651c34c9a3e74ef2f3dc1e24,null,null,"<p style=""font-size: 60px; font-family: BACS"">rLkmkmU</p>",,,,,,,,,,
html-keyboard-response,102,224054,0.0-10.0-0.13,65089e7ce53888b0b3840c62,650c16f0f2faf8d7a0d14c09,651c34c9a3e74ef2f3dc1e24,null,null,"<p style=""font-size: 60px; font-family: BACS"">htmhCdBC</p>",,,,,,,,,,
html-keyboard-response,103,225063,0.0-10.0-0.14,65089e7ce53888b0b3840c62,650c16f0f2faf8d7a0d14c09,651c34c9a3e74ef2f3dc1e24,null,null,"<p style=""font-size: 60px; font-family: BACS"">AZaJcuUmb</p>",,,,,,,,,,
html-keyboard-response,104,226074,0.0-10.0-0.15,65089e7ce53888b0b3840c62,650c16f0f2faf8d7a0d14c09,651c34c9a3e74ef2f3dc1e24,null,null,"<p style=""font-size: 60px; font-family: BACS"">cROMtdBC</p>",,,,,,,,,,
html-keyboard-response,105,227084,0.0-10.0-0.16,65089e7ce53888b0b3840c62,650c16f0f2faf8d7a0d14c09,651c34c9a3e74ef2f3dc1e24,null,null,"<p style=""font-size: 60px; font-family: BACS"">lRckAOYK</p>",,,,,,,,,,
html-keyboard-response,106,228094,0.0-10.0-0.17,65089e7ce53888b0b3840c62,650c16f0f2faf8d7a0d14c09,651c34c9a3e74ef2f3dc1e24,null,null,"<p style=""font-size: 60px; font-family: BACS"">TdmAmKcD</p>",,,,,,,,,,
html-keyboard-response,107,229106,0.0-10.0-0.18,65089e7ce53888b0b3840c62,650c16f0f2faf8d7a0d14c09,651c34c9a3e74ef2f3dc1e24,null,null,"<p style=""font-size: 60px; font-family: BACS"">YNrAmGUOA</p>",,,,,,,,,,
html-keyboard-response,108,230116,0.0-10.0-0.19,65089e7ce53888b0b3840c62,650c16f0f2faf8d7a0d14c09,651c34c9a3e74ef2f3dc1e24,null,null,"<p style=""font-size: 60px; font-family: BACS"">cdKBYmKcD</p>",,,,,,,,,,
html-keyboard-response,109,231128,0.0-10.0-0.20,65089e7ce53888b0b3840c62,650c16f0f2faf8d7a0d14c09,651c34c9a3e74ef2f3dc1e24,null,null,"<p style=""font-size: 60px; font-family: BACS"">rLkmGUOA</p>",,,,,,,,,,
html-keyboard-response,110,232141,0.0-10.0-0.21,65089e7ce53888b0b3840c62,650c16f0f2faf8d7a0d14c09,651c34c9a3e74ef2f3dc1e24,null,null,"<p style=""font-size: 60px; font-family: BACS"">CDEmYdBC</p>",,,,,,,,,,
html-keyboard-response,111,233149,0.0-10.0-0.22,65089e7ce53888b0b3840c62,650c16f0f2faf8d7a0d14c09,651c34c9a3e74ef2f3dc1e24,null,null,"<p style=""font-size: 60px; font-family: BACS"">htmhCBYhT</p>",,,,,,,,,,
html-keyboard-response,112,234159,0.0-10.0-0.23,65089e7ce53888b0b3840c62,650c16f0f2faf8d7a0d14c09,651c34c9a3e74ef2f3dc1e24,null,null,"<p style=""font-size: 60px; font-family: BACS"">NvuGrGUOA</p>",,,,,,,,,,
html-keyboard-response,113,235172,0.0-10.0-0.24,65089e7ce53888b0b3840c62,650c16f0f2faf8d7a0d14c09,651c34c9a3e74ef2f3dc1e24,null,null,"<p style=""font-size: 60px; font-family: BACS"">cROMtOYK</p>",,,,,,,,,,
html-keyboard-response,114,236184,0.0-10.0-0.25,65089e7ce53888b0b3840c62,650c16f0f2faf8d7a0d14c09,651c34c9a3e74ef2f3dc1e24,null,null,"<p style=""font-size: 60px; font-family: BACS"">ZcGdNAOUl</p>",,,,,,,,,,
html-keyboard-response,115,237195,0.0-10.0-0.26,65089e7ce53888b0b3840c62,650c16f0f2faf8d7a0d14c09,651c34c9a3e74ef2f3dc1e24,null,null,"<p style=""font-size: 60px; font-family: BACS"">hChYBYhT</p>",,,,,,,,,,
html-keyboard-response,116,238208,0.0-10.0-0.27,65089e7ce53888b0b3840c62,650c16f0f2faf8d7a0d14c09,651c34c9a3e74ef2f3dc1e24,null,null,"<p style=""font-size: 60px; font-family: BACS"">ZcGdNuUmb</p>",,,,,,,,,,
html-keyboard-response,117,239217,0.0-10.0-0.28,65089e7ce53888b0b3840c62,650c16f0f2faf8d7a0d14c09,651c34c9a3e74ef2f3dc1e24,null,null,"<p style=""font-size: 60px; font-family: BACS"">mcOJkmU</p>",,,,,,,,,,
html-keyboard-response,118,240233,0.0-10.0-0.29,65089e7ce53888b0b3840c62,650c16f0f2faf8d7a0d14c09,651c34c9a3e74ef2f3dc1e24,null,null,"<p style=""font-size: 60px; font-family: BACS"">cROMtKOYC</p>",,,,,,,,,,
html-keyboard-response,119,241248,0.0-10.0-0.30,65089e7ce53888b0b3840c62,650c16f0f2faf8d7a0d14c09,651c34c9a3e74ef2f3dc1e24,null,null,"<p style=""font-size: 60px; font-family: BACS"">NvuGrAOUl</p>",,,,,,,,,,
html-keyboard-response,120,242258,0.0-10.0-0.31,65089e7ce53888b0b3840c62,650c16f0f2faf8d7a0d14c09,651c34c9a3e74ef2f3dc1e24,null,null,"<p style=""font-size: 60px; font-family: BACS"">CDEmYmKcD</p>",,,,,,,,,,
html-keyboard-response,121,243270,0.0-10.0-0.32,65089e7ce53888b0b3840c62,650c16f0f2faf8d7a0d14c09,651c34c9a3e74ef2f3dc1e24,null,null,"<p style=""font-size: 60px; font-family: BACS"">OEPkBYhT</p>",,,,,,,,,,
html-keyboard-response,122,244281,0.0-10.0-0.33,65089e7ce53888b0b3840c62,650c16f0f2faf8d7a0d14c09,651c34c9a3e74ef2f3dc1e24,null,null,"<p style=""font-size: 60px; font-family: BACS"">BdtACmKcD</p>",,,,,,,,,,
html-keyboard-response,123,245292,0.0-10.0-0.34,65089e7ce53888b0b3840c62,650c16f0f2faf8d7a0d14c09,651c34c9a3e74ef2f3dc1e24,null,null,"<p style=""font-size: 60px; font-family: BACS"">OEPkOYK</p>",,,,,,,,,,
html-keyboard-response,124,246300,0.0-10.0-0.35,65089e7ce53888b0b3840c62,650c16f0f2faf8d7a0d14c09,651c34c9a3e74ef2f3dc1e24,null,null,"<p style=""font-size: 60px; font-family: BACS"">cROMtBYhT</p>",,,,,,,,,,
html-keyboard-response,125,247310,0.0-10.0-0.36,65089e7ce53888b0b3840c62,650c16f0f2faf8d7a0d14c09,651c34c9a3e74ef2f3dc1e24,null,null,"<p style=""font-size: 60px; font-family: BACS"">rLkmGUa</p>",,,,,,,,,,
html-keyboard-response,126,248320,0.0-10.0-0.37,65089e7ce53888b0b3840c62,650c16f0f2faf8d7a0d14c09,651c34c9a3e74ef2f3dc1e24,null,null,"<p style=""font-size: 60px; font-family: BACS"">TPCbBYhT</p>",,,,,,,,,,
html-keyboard-response,127,249333,0.0-10.0-0.38,65089e7ce53888b0b3840c62,650c16f0f2faf8d7a0d14c09,651c34c9a3e74ef2f3dc1e24,null,null,"<p style=""font-size: 60px; font-family: BACS"">mcOJGUa</p>",,,,,,,,,,
html-keyboard-response,128,250339,0.0-10.0-0.39,65089e7ce53888b0b3840c62,650c16f0f2faf8d7a0d14c09,651c34c9a3e74ef2f3dc1e24,null,null,"<p style=""font-size: 60px; font-family: BACS"">hChYmKcD</p>",,,,,,,,,,
html-keyboard-response,129,251350,0.0-10.0-0.40,65089e7ce53888b0b3840c62,650c16f0f2faf8d7a0d14c09,651c34c9a3e74ef2f3dc1e24,null,null,"<p style=""font-size: 60px; font-family: BACS"">lRckAKOYC</p>",,,,,,,,,,
html-keyboard-response,130,252361,0.0-10.0-0.41,65089e7ce53888b0b3840c62,650c16f0f2faf8d7a0d14c09,651c34c9a3e74ef2f3dc1e24,null,null,"<p style=""font-size: 60px; font-family: BACS"">AZaJcGUa</p>",,,,,,,,,,
html-keyboard-response,131,253374,0.0-10.0-0.42,65089e7ce53888b0b3840c62,650c16f0f2faf8d7a0d14c09,651c34c9a3e74ef2f3dc1e24,null,null,"<p style=""font-size: 60px; font-family: BACS"">BdtACBYhT</p>",,,,,,,,,,
html-keyboard-response,132,254387,0.0-10.0-0.43,65089e7ce53888b0b3840c62,650c16f0f2faf8d7a0d14c09,651c34c9a3e74ef2f3dc1e24,null,null,"<p style=""font-size: 60px; font-family: BACS"">TdmAKOYC</p>",,,,,,,,,,
html-keyboard-response,133,255400,0.0-10.0-0.44,65089e7ce53888b0b3840c62,650c16f0f2faf8d7a0d14c09,651c34c9a3e74ef2f3dc1e24,null,null,"<p style=""font-size: 60px; font-family: BACS"">hChYOYK</p>",,,,,,,,,,
html-keyboard-response,134,256409,0.0-10.0-0.45,65089e7ce53888b0b3840c62,650c16f0f2faf8d7a0d14c09,651c34c9a3e74ef2f3dc1e24,null,null,"<p style=""font-size: 60px; font-family: BACS"">ZcGdNGUOA</p>",,,,,,,,,,
html-keyboard-response,135,257420,0.0-10.0-0.46,65089e7ce53888b0b3840c62,650c16f0f2faf8d7a0d14c09,651c34c9a3e74ef2f3dc1e24,null,null,"<p style=""font-size: 60px; font-family: BACS"">lRckABYhT</p>",,,,,,,,,,
html-keyboard-response,136,258432,0.0-10.0-0.47,65089e7ce53888b0b3840c62,650c16f0f2faf8d7a0d14c09,651c34c9a3e74ef2f3dc1e24,null,null,"<p style=""font-size: 60px; font-family: BACS"">NvuGrGUa</p>",,,,,,,,,,
html-keyboard-response,137,259443,0.0-10.0-0.48,65089e7ce53888b0b3840c62,650c16f0f2faf8d7a0d14c09,651c34c9a3e74ef2f3dc1e24,null,null,"<p style=""font-size: 60px; font-family: BACS"">JdOAYAOUl</p>",,,,,,,,,,
html-keyboard-response,138,260457,0.0-10.0-0.49,65089e7ce53888b0b3840c62,650c16f0f2faf8d7a0d14c09,651c34c9a3e74ef2f3dc1e24,null,null,"<p style=""font-size: 60px; font-family: BACS"">cdKBYOYK</p>",,,,,,,,,,
html-keyboard-response,139,261469,0.0-10.0-0.50,65089e7ce53888b0b3840c62,650c16f0f2faf8d7a0d14c09,651c34c9a3e74ef2f3dc1e24,null,null,"<p style=""font-size: 60px; font-family: BACS"">lRckAdBC</p>",,,,,,,,,,
html-keyboard-response,140,262485,0.0-10.0-0.51,65089e7ce53888b0b3840c62,650c16f0f2faf8d7a0d14c09,651c34c9a3e74ef2f3dc1e24,null,null,"<p style=""font-size: 60px; font-family: BACS"">OLJblGUOA</p>",,,,,,,,,,
html-keyboard-response,141,263497,0.0-10.0-0.52,65089e7ce53888b0b3840c62,650c16f0f2faf8d7a0d14c09,651c34c9a3e74ef2f3dc1e24,null,null,"<p style=""font-size: 60px; font-family: BACS"">vclYkmU</p>",,,,,,,,,,
html-keyboard-response,142,264508,0.0-10.0-0.53,65089e7ce53888b0b3840c62,650c16f0f2faf8d7a0d14c09,651c34c9a3e74ef2f3dc1e24,null,null,"<p style=""font-size: 60px; font-family: BACS"">cuOJbGUOA</p>",,,,,,,,,,
html-keyboard-response,143,265511,0.0-10.0-0.54,65089e7ce53888b0b3840c62,650c16f0f2faf8d7a0d14c09,651c34c9a3e74ef2f3dc1e24,null,null,"<p style=""font-size: 60px; font-family: BACS"">OLJbluUmb</p>",,,,,,,,,,
html-keyboard-response,144,266521,0.0-10.0-0.55,65089e7ce53888b0b3840c62,650c16f0f2faf8d7a0d14c09,651c34c9a3e74ef2f3dc1e24,null,null,"<p style=""font-size: 60px; font-family: BACS"">mcOJGUOA</p>",,,,,,,,,,
html-keyboard-response,145,267534,0.0-10.0-0.56,65089e7ce53888b0b3840c62,650c16f0f2faf8d7a0d14c09,651c34c9a3e74ef2f3dc1e24,null,null,"<p style=""font-size: 60px; font-family: BACS"">TdmABYhT</p>",,,,,,,,,,
html-keyboard-response,146,268543,0.0-10.0-0.57,65089e7ce53888b0b3840c62,650c16f0f2faf8d7a0d14c09,651c34c9a3e74ef2f3dc1e24,null,null,"<p style=""font-size: 60px; font-family: BACS"">TPCbmKcD</p>",,,,,,,,,,
html-keyboard-response,147,269553,0.0-10.0-0.58,65089e7ce53888b0b3840c62,650c16f0f2faf8d7a0d14c09,651c34c9a3e74ef2f3dc1e24,null,null,"<p style=""font-size: 60px; font-family: BACS"">OLJblkmU</p>",,,,,,,,,,
html-keyboard-response,148,270562,0.0-10.0-0.59,65089e7ce53888b0b3840c62,650c16f0f2faf8d7a0d14c09,651c34c9a3e74ef2f3dc1e24,null,null,"<p style=""font-size: 60px; font-family: BACS"">TPCbdBC</p>",,,,,,,,,,
html-keyboard-response,149,271575,0.0-10.0-0.60,65089e7ce53888b0b3840c62,650c16f0f2faf8d7a0d14c09,651c34c9a3e74ef2f3dc1e24,null,null,"<p style=""font-size: 60px; font-family: BACS"">AZaJckmU</p>",,,,,,,,,,
html-keyboard-response,150,272588,0.0-10.0-0.61,65089e7ce53888b0b3840c62,650c16f0f2faf8d7a0d14c09,651c34c9a3e74ef2f3dc1e24,null,null,"<p style=""font-size: 60px; font-family: BACS"">cdKBYdBC</p>",,,,,,,,,,
html-keyboard-response,151,273604,0.0-10.0-0.62,65089e7ce53888b0b3840c62,650c16f0f2faf8d7a0d14c09,651c34c9a3e74ef2f3dc1e24,null,null,"<p style=""font-size: 60px; font-family: BACS"">vclYAOUl</p>",,,,,,,,,,
html-keyboard-response,152,274615,0.0-10.0-0.63,65089e7ce53888b0b3840c62,650c16f0f2faf8d7a0d14c09,651c34c9a3e74ef2f3dc1e24,null,null,"<p style=""font-size: 60px; font-family: BACS"">CDEmYKOYC</p>",,,,,,,,,,
html-keyboard-response,153,275625,0.0-10.0-0.64,65089e7ce53888b0b3840c62,650c16f0f2faf8d7a0d14c09,651c34c9a3e74ef2f3dc1e24,null,null,"<p style=""font-size: 60px; font-family: BACS"">cuOJbAOUl</p>",,,,,,,,,,
html-keyboard-response,154,276638,0.0-10.0-0.65,65089e7ce53888b0b3840c62,650c16f0f2faf8d7a0d14c09,651c34c9a3e74ef2f3dc1e24,null,null,"<p style=""font-size: 60px; font-family: BACS"">TPCbKOYC</p>",,,,,,,,,,
html-keyboard-response,155,277653,0.0-10.0-0.66,65089e7ce53888b0b3840c62,650c16f0f2faf8d7a0d14c09,651c34c9a3e74ef2f3dc1e24,null,null,"<p style=""font-size: 60px; font-family: BACS"">YNrAmkmU</p>",,,,,,,,,,
html-keyboard-response,156,278664,0.0-10.0-0.67,65089e7ce53888b0b3840c62,650c16f0f2faf8d7a0d14c09,651c34c9a3e74ef2f3dc1e24,null,null,"<p style=""font-size: 60px; font-family: BACS"">hChYdBC</p>",,,,,,,,,,
html-keyboard-response,157,279677,0.0-10.0-0.68,65089e7ce53888b0b3840c62,650c16f0f2faf8d7a0d14c09,651c34c9a3e74ef2f3dc1e24,null,null,"<p style=""font-size: 60px; font-family: BACS"">YNrAmGUa</p>",,,,,,,,,,
html-keyboard-response,158,280686,0.0-10.0-0.69,65089e7ce53888b0b3840c62,650c16f0f2faf8d7a0d14c09,651c34c9a3e74ef2f3dc1e24,null,null,"<p style=""font-size: 60px; font-family: BACS"">OLJblAOUl</p>",,,,,,,,,,
html-keyboard-response,159,281700,0.0-10.0-0.70,65089e7ce53888b0b3840c62,650c16f0f2faf8d7a0d14c09,651c34c9a3e74ef2f3dc1e24,null,null,"<p style=""font-size: 60px; font-family: BACS"">BdtACOYK</p>",,,,,,,,,,
html-keyboard-response,160,282712,0.0-10.0-0.71,65089e7ce53888b0b3840c62,650c16f0f2faf8d7a0d14c09,651c34c9a3e74ef2f3dc1e24,null,null,"<p style=""font-size: 60px; font-family: BACS"">YNrAmuUmb</p>",,,,,,,,,,
html-keyboard-response,161,283722,0.0-10.0-0.72,65089e7ce53888b0b3840c62,650c16f0f2faf8d7a0d14c09,651c34c9a3e74ef2f3dc1e24,null,null,"<p style=""font-size: 60px; font-family: BACS"">BdtACKOYC</p>",,,,,,,,,,
html-keyboard-response,162,284728,0.0-10.0-0.73,65089e7ce53888b0b3840c62,650c16f0f2faf8d7a0d14c09,651c34c9a3e74ef2f3dc1e24,null,null,"<p style=""font-size: 60px; font-family: BACS"">cuOJbGUa</p>",,,,,,,,,,
html-keyboard-response,163,285744,0.0-10.0-0.74,65089e7ce53888b0b3840c62,650c16f0f2faf8d7a0d14c09,651c34c9a3e74ef2f3dc1e24,null,null,"<p style=""font-size: 60px; font-family: BACS"">OEPkdBC</p>",,,,,,,,,,
html-keyboard-response,164,286757,0.0-10.0-0.75,65089e7ce53888b0b3840c62,650c16f0f2faf8d7a0d14c09,651c34c9a3e74ef2f3dc1e24,null,null,"<p style=""font-size: 60px; font-family: BACS"">vclYuUmb</p>",,,,,,,,,,
html-keyboard-response,165,287768,0.0-10.0-0.76,65089e7ce53888b0b3840c62,650c16f0f2faf8d7a0d14c09,651c34c9a3e74ef2f3dc1e24,null,null,"<p style=""font-size: 60px; font-family: BACS"">AZaJcAOUl</p>",,,,,,,,,,
html-keyboard-response,166,288775,0.0-10.0-0.77,65089e7ce53888b0b3840c62,650c16f0f2faf8d7a0d14c09,651c34c9a3e74ef2f3dc1e24,null,null,"<p style=""font-size: 60px; font-family: BACS"">JdOAYuUmb</p>",,,,,,,,,,
html-keyboard-response,167,289789,0.0-10.0-0.78,65089e7ce53888b0b3840c62,650c16f0f2faf8d7a0d14c09,651c34c9a3e74ef2f3dc1e24,null,null,"<p style=""font-size: 60px; font-family: BACS"">TdmAOYK</p>",,,,,,,,,,
html-keyboard-response,168,290798,0.0-10.0-0.79,65089e7ce53888b0b3840c62,650c16f0f2faf8d7a0d14c09,651c34c9a3e74ef2f3dc1e24,null,null,"<p style=""font-size: 60px; font-family: BACS"">JdOAYkmU</p>",,,,,,,,,,
html-keyboard-response,169,298918,0.0-11.0,65089e7ce53888b0b3840c62,650c16f0f2faf8d7a0d14c09,651c34c9a3e74ef2f3dc1e24,8119, ,"<p>Great, you've seen the second block of words. You may now take a short break.</p>
      <p>Press the spacebar when you're ready to continue.</p>",,,,,,,,,,
html-keyboard-response,170,299924,0.0-12.0-0.0,65089e7ce53888b0b3840c62,650c16f0f2faf8d7a0d14c09,651c34c9a3e74ef2f3dc1e24,null,null,"<p style=""font-size: 60px; font-family: BACS"">BdtACKOYC</p>",,,,,,,,,,
html-keyboard-response,171,300936,0.0-12.0-0.1,65089e7ce53888b0b3840c62,650c16f0f2faf8d7a0d14c09,651c34c9a3e74ef2f3dc1e24,null,null,"<p style=""font-size: 60px; font-family: BACS"">ZcGdNGUOA</p>",,,,,,,,,,
html-keyboard-response,172,301948,0.0-12.0-0.2,65089e7ce53888b0b3840c62,650c16f0f2faf8d7a0d14c09,651c34c9a3e74ef2f3dc1e24,null,null,"<p style=""font-size: 60px; font-family: BACS"">JdOAYkmU</p>",,,,,,,,,,
html-keyboard-response,173,302956,0.0-12.0-0.3,65089e7ce53888b0b3840c62,650c16f0f2faf8d7a0d14c09,651c34c9a3e74ef2f3dc1e24,null,null,"<p style=""font-size: 60px; font-family: BACS"">TdmAmKcD</p>",,,,,,,,,,
html-keyboard-response,174,303970,0.0-12.0-0.4,65089e7ce53888b0b3840c62,650c16f0f2faf8d7a0d14c09,651c34c9a3e74ef2f3dc1e24,null,null,"<p style=""font-size: 60px; font-family: BACS"">htmhCBYhT</p>",,,,,,,,,,
html-keyboard-response,175,304979,0.0-12.0-0.5,65089e7ce53888b0b3840c62,650c16f0f2faf8d7a0d14c09,651c34c9a3e74ef2f3dc1e24,null,null,"<p style=""font-size: 60px; font-family: BACS"">vclYkmU</p>",,,,,,,,,,
html-keyboard-response,176,305992,0.0-12.0-0.6,65089e7ce53888b0b3840c62,650c16f0f2faf8d7a0d14c09,651c34c9a3e74ef2f3dc1e24,null,null,"<p style=""font-size: 60px; font-family: BACS"">ZcGdNuUmb</p>",,,,,,,,,,
html-keyboard-response,177,307005,0.0-12.0-0.7,65089e7ce53888b0b3840c62,650c16f0f2faf8d7a0d14c09,651c34c9a3e74ef2f3dc1e24,null,null,"<p style=""font-size: 60px; font-family: BACS"">JdOAYGUOA</p>",,,,,,,,,,
html-keyboard-response,178,308017,0.0-12.0-0.8,65089e7ce53888b0b3840c62,650c16f0f2faf8d7a0d14c09,651c34c9a3e74ef2f3dc1e24,null,null,"<p style=""font-size: 60px; font-family: BACS"">YNrAmuUmb</p>",,,,,,,,,,
html-keyboard-response,179,309027,0.0-12.0-0.9,65089e7ce53888b0b3840c62,650c16f0f2faf8d7a0d14c09,651c34c9a3e74ef2f3dc1e24,null,null,"<p style=""font-size: 60px; font-family: BACS"">TdmABYhT</p>",,,,,,,,,,
html-keyboard-response,180,310039,0.0-12.0-0.10,65089e7ce53888b0b3840c62,650c16f0f2faf8d7a0d14c09,651c34c9a3e74ef2f3dc1e24,null,null,"<p style=""font-size: 60px; font-family: BACS"">OLJblAOUl</p>",,,,,,,,,,
html-keyboard-response,181,311048,0.0-12.0-0.11,65089e7ce53888b0b3840c62,650c16f0f2faf8d7a0d14c09,651c34c9a3e74ef2f3dc1e24,null,null,"<p style=""font-size: 60px; font-family: BACS"">NvuGruUmb</p>",,,,,,,,,,
html-keyboard-response,182,312059,0.0-12.0-0.12,65089e7ce53888b0b3840c62,650c16f0f2faf8d7a0d14c09,651c34c9a3e74ef2f3dc1e24,null,null,"<p style=""font-size: 60px; font-family: BACS"">OLJblkmU</p>",,,,,,,,,,
html-keyboard-response,183,313070,0.0-12.0-0.13,65089e7ce53888b0b3840c62,650c16f0f2faf8d7a0d14c09,651c34c9a3e74ef2f3dc1e24,null,null,"<p style=""font-size: 60px; font-family: BACS"">htmhCdBC</p>",,,,,,,,,,
html-keyboard-response,184,314085,0.0-12.0-0.14,65089e7ce53888b0b3840c62,650c16f0f2faf8d7a0d14c09,651c34c9a3e74ef2f3dc1e24,null,null,"<p style=""font-size: 60px; font-family: BACS"">cuOJbkmU</p>",,,,,,,,,,
html-keyboard-response,185,315094,0.0-12.0-0.15,65089e7ce53888b0b3840c62,650c16f0f2faf8d7a0d14c09,651c34c9a3e74ef2f3dc1e24,null,null,"<p style=""font-size: 60px; font-family: BACS"">lRckAdBC</p>",,,,,,,,,,
html-keyboard-response,186,316100,0.0-12.0-0.16,65089e7ce53888b0b3840c62,650c16f0f2faf8d7a0d14c09,651c34c9a3e74ef2f3dc1e24,null,null,"<p style=""font-size: 60px; font-family: BACS"">cuOJbAOUl</p>",,,,,,,,,,
html-keyboard-response,187,317110,0.0-12.0-0.17,65089e7ce53888b0b3840c62,650c16f0f2faf8d7a0d14c09,651c34c9a3e74ef2f3dc1e24,null,null,"<p style=""font-size: 60px; font-family: BACS"">cROMtBYhT</p>",,,,,,,,,,
html-keyboard-response,188,318123,0.0-12.0-0.18,65089e7ce53888b0b3840c62,650c16f0f2faf8d7a0d14c09,651c34c9a3e74ef2f3dc1e24,null,null,"<p style=""font-size: 60px; font-family: BACS"">mcOJkmU</p>",,,,,,,,,,
html-keyboard-response,189,319133,0.0-12.0-0.19,65089e7ce53888b0b3840c62,650c16f0f2faf8d7a0d14c09,651c34c9a3e74ef2f3dc1e24,null,null,"<p style=""font-size: 60px; font-family: BACS"">OLJbluUmb</p>",,,,,,,,,,
html-keyboard-response,190,320149,0.0-12.0-0.20,65089e7ce53888b0b3840c62,650c16f0f2faf8d7a0d14c09,651c34c9a3e74ef2f3dc1e24,null,null,"<p style=""font-size: 60px; font-family: BACS"">CDEmYKOYC</p>",,,,,,,,,,
html-keyboard-response,191,321160,0.0-12.0-0.21,65089e7ce53888b0b3840c62,650c16f0f2faf8d7a0d14c09,651c34c9a3e74ef2f3dc1e24,null,null,"<p style=""font-size: 60px; font-family: BACS"">YNrAmGUa</p>",,,,,,,,,,
html-keyboard-response,192,322172,0.0-12.0-0.22,65089e7ce53888b0b3840c62,650c16f0f2faf8d7a0d14c09,651c34c9a3e74ef2f3dc1e24,null,null,"<p style=""font-size: 60px; font-family: BACS"">hChYOYK</p>",,,,,,,,,,
html-keyboard-response,193,323182,0.0-12.0-0.23,65089e7ce53888b0b3840c62,650c16f0f2faf8d7a0d14c09,651c34c9a3e74ef2f3dc1e24,null,null,"<p style=""font-size: 60px; font-family: BACS"">vclYAOUl</p>",,,,,,,,,,
html-keyboard-response,194,324194,0.0-12.0-0.24,65089e7ce53888b0b3840c62,650c16f0f2faf8d7a0d14c09,651c34c9a3e74ef2f3dc1e24,null,null,"<p style=""font-size: 60px; font-family: BACS"">OEPkOYK</p>",,,,,,,,,,
html-keyboard-response,195,325206,0.0-12.0-0.25,65089e7ce53888b0b3840c62,650c16f0f2faf8d7a0d14c09,651c34c9a3e74ef2f3dc1e24,null,null,"<p style=""font-size: 60px; font-family: BACS"">htmhCKOYC</p>",,,,,,,,,,
html-keyboard-response,196,326220,0.0-12.0-0.26,65089e7ce53888b0b3840c62,650c16f0f2faf8d7a0d14c09,651c34c9a3e74ef2f3dc1e24,null,null,"<p style=""font-size: 60px; font-family: BACS"">JdOAYuUmb</p>",,,,,,,,,,
html-keyboard-response,197,327232,0.0-12.0-0.27,65089e7ce53888b0b3840c62,650c16f0f2faf8d7a0d14c09,651c34c9a3e74ef2f3dc1e24,null,null,"<p style=""font-size: 60px; font-family: BACS"">cuOJbGUOA</p>",,,,,,,,,,
html-keyboard-response,198,328243,0.0-12.0-0.28,65089e7ce53888b0b3840c62,650c16f0f2faf8d7a0d14c09,651c34c9a3e74ef2f3dc1e24,null,null,"<p style=""font-size: 60px; font-family: BACS"">ZcGdNAOUl</p>",,,,,,,,,,
html-keyboard-response,199,329250,0.0-12.0-0.29,65089e7ce53888b0b3840c62,650c16f0f2faf8d7a0d14c09,651c34c9a3e74ef2f3dc1e24,null,null,"<p style=""font-size: 60px; font-family: BACS"">rLkmGUOA</p>",,,,,,,,,,
html-keyboard-response,200,330265,0.0-12.0-0.30,65089e7ce53888b0b3840c62,650c16f0f2faf8d7a0d14c09,651c34c9a3e74ef2f3dc1e24,null,null,"<p style=""font-size: 60px; font-family: BACS"">TPCbBYhT</p>",,,,,,,,,,
html-keyboard-response,201,331278,0.0-12.0-0.31,65089e7ce53888b0b3840c62,650c16f0f2faf8d7a0d14c09,651c34c9a3e74ef2f3dc1e24,null,null,"<p style=""font-size: 60px; font-family: BACS"">hChYdBC</p>",,,,,,,,,,
html-keyboard-response,202,332290,0.0-12.0-0.32,65089e7ce53888b0b3840c62,650c16f0f2faf8d7a0d14c09,651c34c9a3e74ef2f3dc1e24,null,null,"<p style=""font-size: 60px; font-family: BACS"">OEPkBYhT</p>",,,,,,,,,,
html-keyboard-response,203,333301,0.0-12.0-0.33,65089e7ce53888b0b3840c62,650c16f0f2faf8d7a0d14c09,651c34c9a3e74ef2f3dc1e24,null,null,"<p style=""font-size: 60px; font-family: BACS"">CDEmYmKcD</p>",,,,,,,,,,
html-keyboard-response,204,334312,0.0-12.0-0.34,65089e7ce53888b0b3840c62,650c16f0f2faf8d7a0d14c09,651c34c9a3e74ef2f3dc1e24,null,null,"<p style=""font-size: 60px; font-family: BACS"">NvuGrGUOA</p>",,,,,,,,,,
html-keyboard-response,205,335326,0.0-12.0-0.35,65089e7ce53888b0b3840c62,650c16f0f2faf8d7a0d14c09,651c34c9a3e74ef2f3dc1e24,null,null,"<p style=""font-size: 60px; font-family: BACS"">AZaJckmU</p>",,,,,,,,,,
html-keyboard-response,206,336335,0.0-12.0-0.36,65089e7ce53888b0b3840c62,650c16f0f2faf8d7a0d14c09,651c34c9a3e74ef2f3dc1e24,null,null,"<p style=""font-size: 60px; font-family: BACS"">JdOAYAOUl</p>",,,,,,,,,,
html-keyboard-response,207,337349,0.0-12.0-0.37,65089e7ce53888b0b3840c62,650c16f0f2faf8d7a0d14c09,651c34c9a3e74ef2f3dc1e24,null,null,"<p style=""font-size: 60px; font-family: BACS"">htmhCmKcD</p>",,,,,,,,,,
html-keyboard-response,208,338361,0.0-12.0-0.38,65089e7ce53888b0b3840c62,650c16f0f2faf8d7a0d14c09,651c34c9a3e74ef2f3dc1e24,null,null,"<p style=""font-size: 60px; font-family: BACS"">CDEmYOYK</p>",,,,,,,,,,
html-keyboard-response,209,339375,0.0-12.0-0.39,65089e7ce53888b0b3840c62,650c16f0f2faf8d7a0d14c09,651c34c9a3e74ef2f3dc1e24,null,null,"<p style=""font-size: 60px; font-family: BACS"">AZaJcuUmb</p>",,,,,,,,,,
html-keyboard-response,210,340388,0.0-12.0-0.40,65089e7ce53888b0b3840c62,650c16f0f2faf8d7a0d14c09,651c34c9a3e74ef2f3dc1e24,null,null,"<p style=""font-size: 60px; font-family: BACS"">NvuGrAOUl</p>",,,,,,,,,,
html-keyboard-response,211,341401,0.0-12.0-0.41,65089e7ce53888b0b3840c62,650c16f0f2faf8d7a0d14c09,651c34c9a3e74ef2f3dc1e24,null,null,"<p style=""font-size: 60px; font-family: BACS"">hChYBYhT</p>",,,,,,,,,,
html-keyboard-response,212,342411,0.0-12.0-0.42,65089e7ce53888b0b3840c62,650c16f0f2faf8d7a0d14c09,651c34c9a3e74ef2f3dc1e24,null,null,"<p style=""font-size: 60px; font-family: BACS"">AZaJcAOUl</p>",,,,,,,,,,
html-keyboard-response,213,343420,0.0-12.0-0.43,65089e7ce53888b0b3840c62,650c16f0f2faf8d7a0d14c09,651c34c9a3e74ef2f3dc1e24,null,null,"<p style=""font-size: 60px; font-family: BACS"">ZcGdNGUa</p>",,,,,,,,,,
html-keyboard-response,214,344432,0.0-12.0-0.44,65089e7ce53888b0b3840c62,650c16f0f2faf8d7a0d14c09,651c34c9a3e74ef2f3dc1e24,null,null,"<p style=""font-size: 60px; font-family: BACS"">YNrAmkmU</p>",,,,,,,,,,
html-keyboard-response,215,345443,0.0-12.0-0.45,65089e7ce53888b0b3840c62,650c16f0f2faf8d7a0d14c09,651c34c9a3e74ef2f3dc1e24,null,null,"<p style=""font-size: 60px; font-family: BACS"">OEPkmKcD</p>",,,,,,,,,,
html-keyboard-response,216,346454,0.0-12.0-0.46,65089e7ce53888b0b3840c62,650c16f0f2faf8d7a0d14c09,651c34c9a3e74ef2f3dc1e24,null,null,"<p style=""font-size: 60px; font-family: BACS"">cROMtKOYC</p>",,,,,,,,,,
html-keyboard-response,217,347468,0.0-12.0-0.47,65089e7ce53888b0b3840c62,650c16f0f2faf8d7a0d14c09,651c34c9a3e74ef2f3dc1e24,null,null,"<p style=""font-size: 60px; font-family: BACS"">YNrAmGUOA</p>",,,,,,,,,,
html-keyboard-response,218,348475,0.0-12.0-0.48,65089e7ce53888b0b3840c62,650c16f0f2faf8d7a0d14c09,651c34c9a3e74ef2f3dc1e24,null,null,"<p style=""font-size: 60px; font-family: BACS"">vclYGUa</p>",,,,,,,,,,
html-keyboard-response,219,349486,0.0-12.0-0.49,65089e7ce53888b0b3840c62,650c16f0f2faf8d7a0d14c09,651c34c9a3e74ef2f3dc1e24,null,null,"<p style=""font-size: 60px; font-family: BACS"">rLkmuUmb</p>",,,,,,,,,,
html-keyboard-response,220,350500,0.0-12.0-0.50,65089e7ce53888b0b3840c62,650c16f0f2faf8d7a0d14c09,651c34c9a3e74ef2f3dc1e24,null,null,"<p style=""font-size: 60px; font-family: BACS"">cdKBYdBC</p>",,,,,,,,,,
html-keyboard-response,221,351513,0.0-12.0-0.51,65089e7ce53888b0b3840c62,650c16f0f2faf8d7a0d14c09,651c34c9a3e74ef2f3dc1e24,null,null,"<p style=""font-size: 60px; font-family: BACS"">NvuGrGUa</p>",,,,,,,,,,
html-keyboard-response,222,352522,0.0-12.0-0.52,65089e7ce53888b0b3840c62,650c16f0f2faf8d7a0d14c09,651c34c9a3e74ef2f3dc1e24,null,null,"<p style=""font-size: 60px; font-family: BACS"">CDEmYdBC</p>",,,,,,,,,,
html-keyboard-response,223,353533,0.0-12.0-0.53,65089e7ce53888b0b3840c62,650c16f0f2faf8d7a0d14c09,651c34c9a3e74ef2f3dc1e24,null,null,"<p style=""font-size: 60px; font-family: BACS"">lRckAOYK</p>",,,,,,,,,,
html-keyboard-response,224,354540,0.0-12.0-0.54,65089e7ce53888b0b3840c62,650c16f0f2faf8d7a0d14c09,651c34c9a3e74ef2f3dc1e24,null,null,"<p style=""font-size: 60px; font-family: BACS"">cuOJbGUa</p>",,,,,,,,,,
html-keyboard-response,225,355550,0.0-12.0-0.55,65089e7ce53888b0b3840c62,650c16f0f2faf8d7a0d14c09,651c34c9a3e74ef2f3dc1e24,null,null,"<p style=""font-size: 60px; font-family: BACS"">rLkmkmU</p>",,,,,,,,,,
html-keyboard-response,226,356563,0.0-12.0-0.56,65089e7ce53888b0b3840c62,650c16f0f2faf8d7a0d14c09,651c34c9a3e74ef2f3dc1e24,null,null,"<p style=""font-size: 60px; font-family: BACS"">TPCbKOYC</p>",,,,,,,,,,
html-keyboard-response,227,357575,0.0-12.0-0.57,65089e7ce53888b0b3840c62,650c16f0f2faf8d7a0d14c09,651c34c9a3e74ef2f3dc1e24,null,null,"<p style=""font-size: 60px; font-family: BACS"">vclYuUmb</p>",,,,,,,,,,
html-keyboard-response,228,358590,0.0-12.0-0.58,65089e7ce53888b0b3840c62,650c16f0f2faf8d7a0d14c09,651c34c9a3e74ef2f3dc1e24,null,null,"<p style=""font-size: 60px; font-family: BACS"">OEPkdBC</p>",,,,,,,,,,
html-keyboard-response,229,359600,0.0-12.0-0.59,65089e7ce53888b0b3840c62,650c16f0f2faf8d7a0d14c09,651c34c9a3e74ef2f3dc1e24,null,null,"<p style=""font-size: 60px; font-family: BACS"">mcOJGUOA</p>",,,,,,,,,,
html-keyboard-response,230,360609,0.0-12.0-0.60,65089e7ce53888b0b3840c62,650c16f0f2faf8d7a0d14c09,651c34c9a3e74ef2f3dc1e24,null,null,"<p style=""font-size: 60px; font-family: BACS"">cROMtOYK</p>",,,,,,,,,,
html-keyboard-response,231,361620,0.0-12.0-0.61,65089e7ce53888b0b3840c62,650c16f0f2faf8d7a0d14c09,651c34c9a3e74ef2f3dc1e24,null,null,"<p style=""font-size: 60px; font-family: BACS"">TdmAKOYC</p>",,,,,,,,,,
html-keyboard-response,232,362632,0.0-12.0-0.62,65089e7ce53888b0b3840c62,650c16f0f2faf8d7a0d14c09,651c34c9a3e74ef2f3dc1e24,null,null,"<p style=""font-size: 60px; font-family: BACS"">rLkmGUa</p>",,,,,,,,,,
html-keyboard-response,233,363641,0.0-12.0-0.63,65089e7ce53888b0b3840c62,650c16f0f2faf8d7a0d14c09,651c34c9a3e74ef2f3dc1e24,null,null,"<p style=""font-size: 60px; font-family: BACS"">OLJblGUOA</p>",,,,,,,,,,
html-keyboard-response,234,364653,0.0-12.0-0.64,65089e7ce53888b0b3840c62,650c16f0f2faf8d7a0d14c09,651c34c9a3e74ef2f3dc1e24,null,null,"<p style=""font-size: 60px; font-family: BACS"">cdKBYOYK</p>",,,,,,,,,,
html-keyboard-response,235,365661,0.0-12.0-0.65,65089e7ce53888b0b3840c62,650c16f0f2faf8d7a0d14c09,651c34c9a3e74ef2f3dc1e24,null,null,"<p style=""font-size: 60px; font-family: BACS"">TPCbmKcD</p>",,,,,,,,,,
html-keyboard-response,236,366670,0.0-12.0-0.66,65089e7ce53888b0b3840c62,650c16f0f2faf8d7a0d14c09,651c34c9a3e74ef2f3dc1e24,null,null,"<p style=""font-size: 60px; font-family: BACS"">lRckABYhT</p>",,,,,,,,,,
html-keyboard-response,237,367680,0.0-12.0-0.67,65089e7ce53888b0b3840c62,650c16f0f2faf8d7a0d14c09,651c34c9a3e74ef2f3dc1e24,null,null,"<p style=""font-size: 60px; font-family: BACS"">mcOJAOUl</p>",,,,,,,,,,
html-keyboard-response,238,368687,0.0-12.0-0.68,65089e7ce53888b0b3840c62,650c16f0f2faf8d7a0d14c09,651c34c9a3e74ef2f3dc1e24,null,null,"<p style=""font-size: 60px; font-family: BACS"">AZaJcGUa</p>",,,,,,,,,,
html-keyboard-response,239,369698,0.0-12.0-0.69,65089e7ce53888b0b3840c62,650c16f0f2faf8d7a0d14c09,651c34c9a3e74ef2f3dc1e24,null,null,"<p style=""font-size: 60px; font-family: BACS"">BdtACBYhT</p>",,,,,,,,,,
html-keyboard-response,240,370709,0.0-12.0-0.70,65089e7ce53888b0b3840c62,650c16f0f2faf8d7a0d14c09,651c34c9a3e74ef2f3dc1e24,null,null,"<p style=""font-size: 60px; font-family: BACS"">cdKBYmKcD</p>",,,,,,,,,,
html-keyboard-response,241,371722,0.0-12.0-0.71,65089e7ce53888b0b3840c62,650c16f0f2faf8d7a0d14c09,651c34c9a3e74ef2f3dc1e24,null,null,"<p style=""font-size: 60px; font-family: BACS"">lRckAKOYC</p>",,,,,,,,,,
html-keyboard-response,242,372734,0.0-12.0-0.72,65089e7ce53888b0b3840c62,650c16f0f2faf8d7a0d14c09,651c34c9a3e74ef2f3dc1e24,null,null,"<p style=""font-size: 60px; font-family: BACS"">BdtACmKcD</p>",,,,,,,,,,
html-keyboard-response,243,373743,0.0-12.0-0.73,65089e7ce53888b0b3840c62,650c16f0f2faf8d7a0d14c09,651c34c9a3e74ef2f3dc1e24,null,null,"<p style=""font-size: 60px; font-family: BACS"">mcOJGUa</p>",,,,,,,,,,
html-keyboard-response,244,374750,0.0-12.0-0.74,65089e7ce53888b0b3840c62,650c16f0f2faf8d7a0d14c09,651c34c9a3e74ef2f3dc1e24,null,null,"<p style=""font-size: 60px; font-family: BACS"">hChYmKcD</p>",,,,,,,,,,
html-keyboard-response,245,375765,0.0-12.0-0.75,65089e7ce53888b0b3840c62,650c16f0f2faf8d7a0d14c09,651c34c9a3e74ef2f3dc1e24,null,null,"<p style=""font-size: 60px; font-family: BACS"">cdKBYKOYC</p>",,,,,,,,,,
html-keyboard-response,246,376771,0.0-12.0-0.76,65089e7ce53888b0b3840c62,650c16f0f2faf8d7a0d14c09,651c34c9a3e74ef2f3dc1e24,null,null,"<p style=""font-size: 60px; font-family: BACS"">TPCbdBC</p>",,,,,,,,,,
html-keyboard-response,247,377780,0.0-12.0-0.77,65089e7ce53888b0b3840c62,650c16f0f2faf8d7a0d14c09,651c34c9a3e74ef2f3dc1e24,null,null,"<p style=""font-size: 60px; font-family: BACS"">TdmAOYK</p>",,,,,,,,,,
html-keyboard-response,248,378792,0.0-12.0-0.78,65089e7ce53888b0b3840c62,650c16f0f2faf8d7a0d14c09,651c34c9a3e74ef2f3dc1e24,null,null,"<p style=""font-size: 60px; font-family: BACS"">cROMtdBC</p>",,,,,,,,,,
html-keyboard-response,249,379803,0.0-12.0-0.79,65089e7ce53888b0b3840c62,650c16f0f2faf8d7a0d14c09,651c34c9a3e74ef2f3dc1e24,null,null,"<p style=""font-size: 60px; font-family: BACS"">BdtACOYK</p>",,,,,,,,,,
html-keyboard-response,250,387425,0.0-13.0,65089e7ce53888b0b3840c62,650c16f0f2faf8d7a0d14c09,651c34c9a3e74ef2f3dc1e24,7621, ,"<p>Great, you've seen the third block of words. You may now take a short break.</p>
      <p>Press the spacebar when you're ready to continue.</p>",,,,,,,,,,
html-keyboard-response,251,388429,0.0-14.0-0.0,65089e7ce53888b0b3840c62,650c16f0f2faf8d7a0d14c09,651c34c9a3e74ef2f3dc1e24,null,null,"<p style=""font-size: 60px; font-family: BACS"">OEPkdBC</p>",,,,,,,,,,
html-keyboard-response,252,389436,0.0-14.0-0.1,65089e7ce53888b0b3840c62,650c16f0f2faf8d7a0d14c09,651c34c9a3e74ef2f3dc1e24,null,null,"<p style=""font-size: 60px; font-family: BACS"">mcOJGUa</p>",,,,,,,,,,
html-keyboard-response,253,390444,0.0-14.0-0.2,65089e7ce53888b0b3840c62,650c16f0f2faf8d7a0d14c09,651c34c9a3e74ef2f3dc1e24,null,null,"<p style=""font-size: 60px; font-family: BACS"">cROMtKOYC</p>",,,,,,,,,,
html-keyboard-response,254,391456,0.0-14.0-0.3,65089e7ce53888b0b3840c62,650c16f0f2faf8d7a0d14c09,651c34c9a3e74ef2f3dc1e24,null,null,"<p style=""font-size: 60px; font-family: BACS"">TPCbmKcD</p>",,,,,,,,,,
html-keyboard-response,255,392470,0.0-14.0-0.4,65089e7ce53888b0b3840c62,650c16f0f2faf8d7a0d14c09,651c34c9a3e74ef2f3dc1e24,null,null,"<p style=""font-size: 60px; font-family: BACS"">rLkmkmU</p>",,,,,,,,,,
html-keyboard-response,256,393483,0.0-14.0-0.5,65089e7ce53888b0b3840c62,650c16f0f2faf8d7a0d14c09,651c34c9a3e74ef2f3dc1e24,null,null,"<p style=""font-size: 60px; font-family: BACS"">htmhCBYhT</p>",,,,,,,,,,
html-keyboard-response,257,394497,0.0-14.0-0.6,65089e7ce53888b0b3840c62,650c16f0f2faf8d7a0d14c09,651c34c9a3e74ef2f3dc1e24,null,null,"<p style=""font-size: 60px; font-family: BACS"">OLJbluUmb</p>",,,,,,,,,,
html-keyboard-response,258,395508,0.0-14.0-0.7,65089e7ce53888b0b3840c62,650c16f0f2faf8d7a0d14c09,651c34c9a3e74ef2f3dc1e24,null,null,"<p style=""font-size: 60px; font-family: BACS"">CDEmYKOYC</p>",,,,,,,,,,
html-keyboard-response,259,396519,0.0-14.0-0.8,65089e7ce53888b0b3840c62,650c16f0f2faf8d7a0d14c09,651c34c9a3e74ef2f3dc1e24,null,null,"<p style=""font-size: 60px; font-family: BACS"">BdtACOYK</p>",,,,,,,,,,
html-keyboard-response,260,397534,0.0-14.0-0.9,65089e7ce53888b0b3840c62,650c16f0f2faf8d7a0d14c09,651c34c9a3e74ef2f3dc1e24,null,null,"<p style=""font-size: 60px; font-family: BACS"">mcOJkmU</p>",,,,,,,,,,
html-keyboard-response,261,398549,0.0-14.0-0.10,65089e7ce53888b0b3840c62,650c16f0f2faf8d7a0d14c09,651c34c9a3e74ef2f3dc1e24,null,null,"<p style=""font-size: 60px; font-family: BACS"">TdmAmKcD</p>",,,,,,,,,,
html-keyboard-response,262,399560,0.0-14.0-0.11,65089e7ce53888b0b3840c62,650c16f0f2faf8d7a0d14c09,651c34c9a3e74ef2f3dc1e24,null,null,"<p style=""font-size: 60px; font-family: BACS"">cuOJbkmU</p>",,,,,,,,,,
html-keyboard-response,263,400576,0.0-14.0-0.12,65089e7ce53888b0b3840c62,650c16f0f2faf8d7a0d14c09,651c34c9a3e74ef2f3dc1e24,null,null,"<p style=""font-size: 60px; font-family: BACS"">htmhCmKcD</p>",,,,,,,,,,
html-keyboard-response,264,401577,0.0-14.0-0.13,65089e7ce53888b0b3840c62,650c16f0f2faf8d7a0d14c09,651c34c9a3e74ef2f3dc1e24,null,null,"<p style=""font-size: 60px; font-family: BACS"">hChYBYhT</p>",,,,,,,,,,
html-keyboard-response,265,402591,0.0-14.0-0.14,65089e7ce53888b0b3840c62,650c16f0f2faf8d7a0d14c09,651c34c9a3e74ef2f3dc1e24,null,null,"<p style=""font-size: 60px; font-family: BACS"">vclYAOUl</p>",,,,,,,,,,
html-keyboard-response,266,403602,0.0-14.0-0.15,65089e7ce53888b0b3840c62,650c16f0f2faf8d7a0d14c09,651c34c9a3e74ef2f3dc1e24,null,null,"<p style=""font-size: 60px; font-family: BACS"">OLJblGUOA</p>",,,,,,,,,,
html-keyboard-response,267,404614,0.0-14.0-0.16,65089e7ce53888b0b3840c62,650c16f0f2faf8d7a0d14c09,651c34c9a3e74ef2f3dc1e24,null,null,"<p style=""font-size: 60px; font-family: BACS"">CDEmYmKcD</p>",,,,,,,,,,
html-keyboard-response,268,405628,0.0-14.0-0.17,65089e7ce53888b0b3840c62,650c16f0f2faf8d7a0d14c09,651c34c9a3e74ef2f3dc1e24,null,null,"<p style=""font-size: 60px; font-family: BACS"">TdmAKOYC</p>",,,,,,,,,,
html-keyboard-response,269,406636,0.0-14.0-0.18,65089e7ce53888b0b3840c62,650c16f0f2faf8d7a0d14c09,651c34c9a3e74ef2f3dc1e24,null,null,"<p style=""font-size: 60px; font-family: BACS"">hChYmKcD</p>",,,,,,,,,,
html-keyboard-response,270,407647,0.0-14.0-0.19,65089e7ce53888b0b3840c62,650c16f0f2faf8d7a0d14c09,651c34c9a3e74ef2f3dc1e24,null,null,"<p style=""font-size: 60px; font-family: BACS"">NvuGrGUa</p>",,,,,,,,,,
html-keyboard-response,271,408658,0.0-14.0-0.20,65089e7ce53888b0b3840c62,650c16f0f2faf8d7a0d14c09,651c34c9a3e74ef2f3dc1e24,null,null,"<p style=""font-size: 60px; font-family: BACS"">JdOAYuUmb</p>",,,,,,,,,,
html-keyboard-response,272,409669,0.0-14.0-0.21,65089e7ce53888b0b3840c62,650c16f0f2faf8d7a0d14c09,651c34c9a3e74ef2f3dc1e24,null,null,"<p style=""font-size: 60px; font-family: BACS"">CDEmYOYK</p>",,,,,,,,,,
html-keyboard-response,273,410673,0.0-14.0-0.22,65089e7ce53888b0b3840c62,650c16f0f2faf8d7a0d14c09,651c34c9a3e74ef2f3dc1e24,null,null,"<p style=""font-size: 60px; font-family: BACS"">NvuGrAOUl</p>",,,,,,,,,,
html-keyboard-response,274,411683,0.0-14.0-0.23,65089e7ce53888b0b3840c62,650c16f0f2faf8d7a0d14c09,651c34c9a3e74ef2f3dc1e24,null,null,"<p style=""font-size: 60px; font-family: BACS"">YNrAmGUa</p>",,,,,,,,,,
html-keyboard-response,275,412692,0.0-14.0-0.24,65089e7ce53888b0b3840c62,650c16f0f2faf8d7a0d14c09,651c34c9a3e74ef2f3dc1e24,null,null,"<p style=""font-size: 60px; font-family: BACS"">htmhCKOYC</p>",,,,,,,,,,
html-keyboard-response,276,413703,0.0-14.0-0.25,65089e7ce53888b0b3840c62,650c16f0f2faf8d7a0d14c09,651c34c9a3e74ef2f3dc1e24,null,null,"<p style=""font-size: 60px; font-family: BACS"">YNrAmkmU</p>",,,,,,,,,,
html-keyboard-response,277,414713,0.0-14.0-0.26,65089e7ce53888b0b3840c62,650c16f0f2faf8d7a0d14c09,651c34c9a3e74ef2f3dc1e24,null,null,"<p style=""font-size: 60px; font-family: BACS"">TdmABYhT</p>",,,,,,,,,,
html-keyboard-response,278,415722,0.0-14.0-0.27,65089e7ce53888b0b3840c62,650c16f0f2faf8d7a0d14c09,651c34c9a3e74ef2f3dc1e24,null,null,"<p style=""font-size: 60px; font-family: BACS"">TPCbdBC</p>",,,,,,,,,,
html-keyboard-response,279,416736,0.0-14.0-0.28,65089e7ce53888b0b3840c62,650c16f0f2faf8d7a0d14c09,651c34c9a3e74ef2f3dc1e24,null,null,"<p style=""font-size: 60px; font-family: BACS"">AZaJcGUa</p>",,,,,,,,,,
html-keyboard-response,280,417746,0.0-14.0-0.29,65089e7ce53888b0b3840c62,650c16f0f2faf8d7a0d14c09,651c34c9a3e74ef2f3dc1e24,null,null,"<p style=""font-size: 60px; font-family: BACS"">YNrAmGUOA</p>",,,,,,,,,,
html-keyboard-response,281,418755,0.0-14.0-0.30,65089e7ce53888b0b3840c62,650c16f0f2faf8d7a0d14c09,651c34c9a3e74ef2f3dc1e24,null,null,"<p style=""font-size: 60px; font-family: BACS"">BdtACKOYC</p>",,,,,,,,,,
html-keyboard-response,282,419765,0.0-14.0-0.31,65089e7ce53888b0b3840c62,650c16f0f2faf8d7a0d14c09,651c34c9a3e74ef2f3dc1e24,null,null,"<p style=""font-size: 60px; font-family: BACS"">lRckAOYK</p>",,,,,,,,,,
html-keyboard-response,283,420776,0.0-14.0-0.32,65089e7ce53888b0b3840c62,650c16f0f2faf8d7a0d14c09,651c34c9a3e74ef2f3dc1e24,null,null,"<p style=""font-size: 60px; font-family: BACS"">mcOJGUOA</p>",,,,,,,,,,
html-keyboard-response,284,421783,0.0-14.0-0.33,65089e7ce53888b0b3840c62,650c16f0f2faf8d7a0d14c09,651c34c9a3e74ef2f3dc1e24,null,null,"<p style=""font-size: 60px; font-family: BACS"">rLkmuUmb</p>",,,,,,,,,,
html-keyboard-response,285,422793,0.0-14.0-0.34,65089e7ce53888b0b3840c62,650c16f0f2faf8d7a0d14c09,651c34c9a3e74ef2f3dc1e24,null,null,"<p style=""font-size: 60px; font-family: BACS"">AZaJcAOUl</p>",,,,,,,,,,
html-keyboard-response,286,423805,0.0-14.0-0.35,65089e7ce53888b0b3840c62,650c16f0f2faf8d7a0d14c09,651c34c9a3e74ef2f3dc1e24,null,null,"<p style=""font-size: 60px; font-family: BACS"">ZcGdNGUa</p>",,,,,,,,,,
html-keyboard-response,287,424814,0.0-14.0-0.36,65089e7ce53888b0b3840c62,650c16f0f2faf8d7a0d14c09,651c34c9a3e74ef2f3dc1e24,null,null,"<p style=""font-size: 60px; font-family: BACS"">cdKBYmKcD</p>",,,,,,,,,,
html-keyboard-response,288,425827,0.0-14.0-0.37,65089e7ce53888b0b3840c62,650c16f0f2faf8d7a0d14c09,651c34c9a3e74ef2f3dc1e24,null,null,"<p style=""font-size: 60px; font-family: BACS"">NvuGrGUOA</p>",,,,,,,,,,
html-keyboard-response,289,426839,0.0-14.0-0.38,65089e7ce53888b0b3840c62,650c16f0f2faf8d7a0d14c09,651c34c9a3e74ef2f3dc1e24,null,null,"<p style=""font-size: 60px; font-family: BACS"">OEPkmKcD</p>",,,,,,,,,,
html-keyboard-response,290,427848,0.0-14.0-0.39,65089e7ce53888b0b3840c62,650c16f0f2faf8d7a0d14c09,651c34c9a3e74ef2f3dc1e24,null,null,"<p style=""font-size: 60px; font-family: BACS"">lRckAKOYC</p>",,,,,,,,,,
html-keyboard-response,291,428860,0.0-14.0-0.40,65089e7ce53888b0b3840c62,650c16f0f2faf8d7a0d14c09,651c34c9a3e74ef2f3dc1e24,null,null,"<p style=""font-size: 60px; font-family: BACS"">YNrAmuUmb</p>",,,,,,,,,,
html-keyboard-response,292,429871,0.0-14.0-0.41,65089e7ce53888b0b3840c62,650c16f0f2faf8d7a0d14c09,651c34c9a3e74ef2f3dc1e24,null,null,"<p style=""font-size: 60px; font-family: BACS"">OEPkOYK</p>",,,,,,,,,,
html-keyboard-response,293,430886,0.0-14.0-0.42,65089e7ce53888b0b3840c62,650c16f0f2faf8d7a0d14c09,651c34c9a3e74ef2f3dc1e24,null,null,"<p style=""font-size: 60px; font-family: BACS"">CDEmYdBC</p>",,,,,,,,,,
html-keyboard-response,294,431897,0.0-14.0-0.43,65089e7ce53888b0b3840c62,650c16f0f2faf8d7a0d14c09,651c34c9a3e74ef2f3dc1e24,null,null,"<p style=""font-size: 60px; font-family: BACS"">ZcGdNAOUl</p>",,,,,,,,,,
html-keyboard-response,295,432906,0.0-14.0-0.44,65089e7ce53888b0b3840c62,650c16f0f2faf8d7a0d14c09,651c34c9a3e74ef2f3dc1e24,null,null,"<p style=""font-size: 60px; font-family: BACS"">cROMtBYhT</p>",,,,,,,,,,
html-keyboard-response,296,433916,0.0-14.0-0.45,65089e7ce53888b0b3840c62,650c16f0f2faf8d7a0d14c09,651c34c9a3e74ef2f3dc1e24,null,null,"<p style=""font-size: 60px; font-family: BACS"">OLJblAOUl</p>",,,,,,,,,,
html-keyboard-response,297,434927,0.0-14.0-0.46,65089e7ce53888b0b3840c62,650c16f0f2faf8d7a0d14c09,651c34c9a3e74ef2f3dc1e24,null,null,"<p style=""font-size: 60px; font-family: BACS"">cdKBYOYK</p>",,,,,,,,,,
html-keyboard-response,298,435940,0.0-14.0-0.47,65089e7ce53888b0b3840c62,650c16f0f2faf8d7a0d14c09,651c34c9a3e74ef2f3dc1e24,null,null,"<p style=""font-size: 60px; font-family: BACS"">AZaJcuUmb</p>",,,,,,,,,,
html-keyboard-response,299,436953,0.0-14.0-0.48,65089e7ce53888b0b3840c62,650c16f0f2faf8d7a0d14c09,651c34c9a3e74ef2f3dc1e24,null,null,"<p style=""font-size: 60px; font-family: BACS"">htmhCdBC</p>",,,,,,,,,,
html-keyboard-response,300,437967,0.0-14.0-0.49,65089e7ce53888b0b3840c62,650c16f0f2faf8d7a0d14c09,651c34c9a3e74ef2f3dc1e24,null,null,"<p style=""font-size: 60px; font-family: BACS"">lRckABYhT</p>",,,,,,,,,,
html-keyboard-response,301,438978,0.0-14.0-0.50,65089e7ce53888b0b3840c62,650c16f0f2faf8d7a0d14c09,651c34c9a3e74ef2f3dc1e24,null,null,"<p style=""font-size: 60px; font-family: BACS"">ZcGdNuUmb</p>",,,,,,,,,,
html-keyboard-response,302,439993,0.0-14.0-0.51,65089e7ce53888b0b3840c62,650c16f0f2faf8d7a0d14c09,651c34c9a3e74ef2f3dc1e24,null,null,"<p style=""font-size: 60px; font-family: BACS"">hChYOYK</p>",,,,,,,,,,
html-keyboard-response,303,441007,0.0-14.0-0.52,65089e7ce53888b0b3840c62,650c16f0f2faf8d7a0d14c09,651c34c9a3e74ef2f3dc1e24,null,null,"<p style=""font-size: 60px; font-family: BACS"">cuOJbGUa</p>",,,,,,,,,,
html-keyboard-response,304,442017,0.0-14.0-0.53,65089e7ce53888b0b3840c62,650c16f0f2faf8d7a0d14c09,651c34c9a3e74ef2f3dc1e24,null,null,"<p style=""font-size: 60px; font-family: BACS"">NvuGruUmb</p>",,,,,,,,,,
html-keyboard-response,305,443030,0.0-14.0-0.54,65089e7ce53888b0b3840c62,650c16f0f2faf8d7a0d14c09,651c34c9a3e74ef2f3dc1e24,null,null,"<p style=""font-size: 60px; font-family: BACS"">TPCbKOYC</p>",,,,,,,,,,
html-keyboard-response,306,444042,0.0-14.0-0.55,65089e7ce53888b0b3840c62,650c16f0f2faf8d7a0d14c09,651c34c9a3e74ef2f3dc1e24,null,null,"<p style=""font-size: 60px; font-family: BACS"">vclYuUmb</p>",,,,,,,,,,
html-keyboard-response,307,445053,0.0-14.0-0.56,65089e7ce53888b0b3840c62,650c16f0f2faf8d7a0d14c09,651c34c9a3e74ef2f3dc1e24,null,null,"<p style=""font-size: 60px; font-family: BACS"">hChYdBC</p>",,,,,,,,,,
html-keyboard-response,308,446067,0.0-14.0-0.57,65089e7ce53888b0b3840c62,650c16f0f2faf8d7a0d14c09,651c34c9a3e74ef2f3dc1e24,null,null,"<p style=""font-size: 60px; font-family: BACS"">JdOAYAOUl</p>",,,,,,,,,,
html-keyboard-response,309,447072,0.0-14.0-0.58,65089e7ce53888b0b3840c62,650c16f0f2faf8d7a0d14c09,651c34c9a3e74ef2f3dc1e24,null,null,"<p style=""font-size: 60px; font-family: BACS"">cuOJbGUOA</p>",,,,,,,,,,
html-keyboard-response,310,448083,0.0-14.0-0.59,65089e7ce53888b0b3840c62,650c16f0f2faf8d7a0d14c09,651c34c9a3e74ef2f3dc1e24,null,null,"<p style=""font-size: 60px; font-family: BACS"">OLJblkmU</p>",,,,,,,,,,
html-keyboard-response,311,449092,0.0-14.0-0.60,65089e7ce53888b0b3840c62,650c16f0f2faf8d7a0d14c09,651c34c9a3e74ef2f3dc1e24,null,null,"<p style=""font-size: 60px; font-family: BACS"">rLkmGUa</p>",,,,,,,,,,
html-keyboard-response,312,450100,0.0-14.0-0.61,65089e7ce53888b0b3840c62,650c16f0f2faf8d7a0d14c09,651c34c9a3e74ef2f3dc1e24,null,null,"<p style=""font-size: 60px; font-family: BACS"">cdKBYKOYC</p>",,,,,,,,,,
html-keyboard-response,313,451112,0.0-14.0-0.62,65089e7ce53888b0b3840c62,650c16f0f2faf8d7a0d14c09,651c34c9a3e74ef2f3dc1e24,null,null,"<p style=""font-size: 60px; font-family: BACS"">JdOAYkmU</p>",,,,,,,,,,
html-keyboard-response,314,452122,0.0-14.0-0.63,65089e7ce53888b0b3840c62,650c16f0f2faf8d7a0d14c09,651c34c9a3e74ef2f3dc1e24,null,null,"<p style=""font-size: 60px; font-family: BACS"">vclYGUa</p>",,,,,,,,,,
html-keyboard-response,315,453134,0.0-14.0-0.64,65089e7ce53888b0b3840c62,650c16f0f2faf8d7a0d14c09,651c34c9a3e74ef2f3dc1e24,null,null,"<p style=""font-size: 60px; font-family: BACS"">ZcGdNGUOA</p>",,,,,,,,,,
html-keyboard-response,316,454146,0.0-14.0-0.65,65089e7ce53888b0b3840c62,650c16f0f2faf8d7a0d14c09,651c34c9a3e74ef2f3dc1e24,null,null,"<p style=""font-size: 60px; font-family: BACS"">OEPkBYhT</p>",,,,,,,,,,
html-keyboard-response,317,455156,0.0-14.0-0.66,65089e7ce53888b0b3840c62,650c16f0f2faf8d7a0d14c09,651c34c9a3e74ef2f3dc1e24,null,null,"<p style=""font-size: 60px; font-family: BACS"">cROMtOYK</p>",,,,,,,,,,
html-keyboard-response,318,456168,0.0-14.0-0.67,65089e7ce53888b0b3840c62,650c16f0f2faf8d7a0d14c09,651c34c9a3e74ef2f3dc1e24,null,null,"<p style=""font-size: 60px; font-family: BACS"">AZaJckmU</p>",,,,,,,,,,
html-keyboard-response,319,457180,0.0-14.0-0.68,65089e7ce53888b0b3840c62,650c16f0f2faf8d7a0d14c09,651c34c9a3e74ef2f3dc1e24,null,null,"<p style=""font-size: 60px; font-family: BACS"">TdmAOYK</p>",,,,,,,,,,
html-keyboard-response,320,458192,0.0-14.0-0.69,65089e7ce53888b0b3840c62,650c16f0f2faf8d7a0d14c09,651c34c9a3e74ef2f3dc1e24,null,null,"<p style=""font-size: 60px; font-family: BACS"">lRckAdBC</p>",,,,,,,,,,
html-keyboard-response,321,459207,0.0-14.0-0.70,65089e7ce53888b0b3840c62,650c16f0f2faf8d7a0d14c09,651c34c9a3e74ef2f3dc1e24,null,null,"<p style=""font-size: 60px; font-family: BACS"">JdOAYGUOA</p>",,,,,,,,,,
html-keyboard-response,322,460217,0.0-14.0-0.71,65089e7ce53888b0b3840c62,650c16f0f2faf8d7a0d14c09,651c34c9a3e74ef2f3dc1e24,null,null,"<p style=""font-size: 60px; font-family: BACS"">cdKBYdBC</p>",,,,,,,,,,
html-keyboard-response,323,461227,0.0-14.0-0.72,65089e7ce53888b0b3840c62,650c16f0f2faf8d7a0d14c09,651c34c9a3e74ef2f3dc1e24,null,null,"<p style=""font-size: 60px; font-family: BACS"">rLkmGUOA</p>",,,,,,,,,,
html-keyboard-response,324,462241,0.0-14.0-0.73,65089e7ce53888b0b3840c62,650c16f0f2faf8d7a0d14c09,651c34c9a3e74ef2f3dc1e24,null,null,"<p style=""font-size: 60px; font-family: BACS"">cuOJbAOUl</p>",,,,,,,,,,
html-keyboard-response,325,463251,0.0-14.0-0.74,65089e7ce53888b0b3840c62,650c16f0f2faf8d7a0d14c09,651c34c9a3e74ef2f3dc1e24,null,null,"<p style=""font-size: 60px; font-family: BACS"">BdtACmKcD</p>",,,,,,,,,,
html-keyboard-response,326,464263,0.0-14.0-0.75,65089e7ce53888b0b3840c62,650c16f0f2faf8d7a0d14c09,651c34c9a3e74ef2f3dc1e24,null,null,"<p style=""font-size: 60px; font-family: BACS"">TPCbBYhT</p>",,,,,,,,,,
html-keyboard-response,327,465273,0.0-14.0-0.76,65089e7ce53888b0b3840c62,650c16f0f2faf8d7a0d14c09,651c34c9a3e74ef2f3dc1e24,null,null,"<p style=""font-size: 60px; font-family: BACS"">mcOJAOUl</p>",,,,,,,,,,
html-keyboard-response,328,466286,0.0-14.0-0.77,65089e7ce53888b0b3840c62,650c16f0f2faf8d7a0d14c09,651c34c9a3e74ef2f3dc1e24,null,null,"<p style=""font-size: 60px; font-family: BACS"">cROMtdBC</p>",,,,,,,,,,
html-keyboard-response,329,467298,0.0-14.0-0.78,65089e7ce53888b0b3840c62,650c16f0f2faf8d7a0d14c09,651c34c9a3e74ef2f3dc1e24,null,null,"<p style=""font-size: 60px; font-family: BACS"">vclYkmU</p>",,,,,,,,,,
html-keyboard-response,330,468309,0.0-14.0-0.79,65089e7ce53888b0b3840c62,650c16f0f2faf8d7a0d14c09,651c34c9a3e74ef2f3dc1e24,null,null,"<p style=""font-size: 60px; font-family: BACS"">BdtACBYhT</p>",,,,,,,,,,
html-keyboard-response,331,473746,0.0-15.0,65089e7ce53888b0b3840c62,650c16f0f2faf8d7a0d14c09,651c34c9a3e74ef2f3dc1e24,5437, ,"<p>Great, you've seen the fourth block of words. You may now take a short break.</p>
      <p>Press the spacebar when you're ready to continue.</p>",,,,,,,,,,
html-keyboard-response,332,474748,0.0-16.0-0.0,65089e7ce53888b0b3840c62,650c16f0f2faf8d7a0d14c09,651c34c9a3e74ef2f3dc1e24,null,null,"<p style=""font-size: 60px; font-family: BACS"">lRckAOYK</p>",,,,,,,,,,
html-keyboard-response,333,475755,0.0-16.0-0.1,65089e7ce53888b0b3840c62,650c16f0f2faf8d7a0d14c09,651c34c9a3e74ef2f3dc1e24,null,null,"<p style=""font-size: 60px; font-family: BACS"">lRckAOYK</p>",,,,,,,,,,
html-keyboard-response,334,476769,0.0-16.0-0.2,65089e7ce53888b0b3840c62,650c16f0f2faf8d7a0d14c09,651c34c9a3e74ef2f3dc1e24,null,null,"<p style=""font-size: 60px; font-family: BACS"">lRckAOYK</p>",,,,,,,,,,
html-keyboard-response,335,477780,0.0-16.0-0.3,65089e7ce53888b0b3840c62,650c16f0f2faf8d7a0d14c09,651c34c9a3e74ef2f3dc1e24,null,null,"<p style=""font-size: 60px; font-family: BACS"">lRckAOYK</p>",,,,,,,,,,
html-keyboard-response,336,478789,0.0-16.0-0.4,65089e7ce53888b0b3840c62,650c16f0f2faf8d7a0d14c09,651c34c9a3e74ef2f3dc1e24,null,null,"<p style=""font-size: 60px; font-family: BACS"">lRckAOYK</p>",,,,,,,,,,
html-keyboard-response,337,479797,0.0-16.0-0.5,65089e7ce53888b0b3840c62,650c16f0f2faf8d7a0d14c09,651c34c9a3e74ef2f3dc1e24,null,null,"<p style=""font-size: 60px; font-family: BACS"">lRckAOYK</p>",,,,,,,,,,
html-keyboard-response,338,480811,0.0-16.0-0.6,65089e7ce53888b0b3840c62,650c16f0f2faf8d7a0d14c09,651c34c9a3e74ef2f3dc1e24,null,null,"<p style=""font-size: 60px; font-family: BACS"">lRckAOYK</p>",,,,,,,,,,
html-keyboard-response,339,481821,0.0-16.0-0.7,65089e7ce53888b0b3840c62,650c16f0f2faf8d7a0d14c09,651c34c9a3e74ef2f3dc1e24,null,null,"<p style=""font-size: 60px; font-family: BACS"">lRckAOYK</p>",,,,,,,,,,
html-keyboard-response,340,482831,0.0-16.0-0.8,65089e7ce53888b0b3840c62,650c16f0f2faf8d7a0d14c09,651c34c9a3e74ef2f3dc1e24,null,null,"<p style=""font-size: 60px; font-family: BACS"">lRckAOYK</p>",,,,,,,,,,
html-keyboard-response,341,483843,0.0-16.0-0.9,65089e7ce53888b0b3840c62,650c16f0f2faf8d7a0d14c09,651c34c9a3e74ef2f3dc1e24,null,null,"<p style=""font-size: 60px; font-family: BACS"">lRckAOYK</p>",,,,,,,,,,
html-keyboard-response,342,484854,0.0-16.0-0.10,65089e7ce53888b0b3840c62,650c16f0f2faf8d7a0d14c09,651c34c9a3e74ef2f3dc1e24,null,null,"<p style=""font-size: 60px; font-family: BACS"">lRckAOYK</p>",,,,,,,,,,
html-keyboard-response,343,485867,0.0-16.0-0.11,65089e7ce53888b0b3840c62,650c16f0f2faf8d7a0d14c09,651c34c9a3e74ef2f3dc1e24,null,null,"<p style=""font-size: 60px; font-family: BACS"">lRckAOYK</p>",,,,,,,,,,
html-keyboard-response,344,486877,0.0-16.0-0.12,65089e7ce53888b0b3840c62,650c16f0f2faf8d7a0d14c09,651c34c9a3e74ef2f3dc1e24,null,null,"<p style=""font-size: 60px; font-family: BACS"">lRckAOYK</p>",,,,,,,,,,
html-keyboard-response,345,487885,0.0-16.0-0.13,65089e7ce53888b0b3840c62,650c16f0f2faf8d7a0d14c09,651c34c9a3e74ef2f3dc1e24,null,null,"<p style=""font-size: 60px; font-family: BACS"">lRckAOYK</p>",,,,,,,,,,
html-keyboard-response,346,488896,0.0-16.0-0.14,65089e7ce53888b0b3840c62,650c16f0f2faf8d7a0d14c09,651c34c9a3e74ef2f3dc1e24,null,null,"<p style=""font-size: 60px; font-family: BACS"">lRckAOYK</p>",,,,,,,,,,
html-keyboard-response,347,489906,0.0-16.0-0.15,65089e7ce53888b0b3840c62,650c16f0f2faf8d7a0d14c09,651c34c9a3e74ef2f3dc1e24,null,null,"<p style=""font-size: 60px; font-family: BACS"">lRckAOYK</p>",,,,,,,,,,
html-keyboard-response,348,490917,0.0-16.0-0.16,65089e7ce53888b0b3840c62,650c16f0f2faf8d7a0d14c09,651c34c9a3e74ef2f3dc1e24,null,null,"<p style=""font-size: 60px; font-family: BACS"">lRckAOYK</p>",,,,,,,,,,
html-keyboard-response,349,491924,0.0-16.0-0.17,65089e7ce53888b0b3840c62,650c16f0f2faf8d7a0d14c09,651c34c9a3e74ef2f3dc1e24,null,null,"<p style=""font-size: 60px; font-family: BACS"">lRckAOYK</p>",,,,,,,,,,
html-keyboard-response,350,492939,0.0-16.0-0.18,65089e7ce53888b0b3840c62,650c16f0f2faf8d7a0d14c09,651c34c9a3e74ef2f3dc1e24,null,null,"<p style=""font-size: 60px; font-family: BACS"">lRckAOYK</p>",,,,,,,,,,
html-keyboard-response,351,493951,0.0-16.0-0.19,65089e7ce53888b0b3840c62,650c16f0f2faf8d7a0d14c09,651c34c9a3e74ef2f3dc1e24,null,null,"<p style=""font-size: 60px; font-family: BACS"">lRckAOYK</p>",,,,,,,,,,
html-keyboard-response,352,494961,0.0-16.0-0.20,65089e7ce53888b0b3840c62,650c16f0f2faf8d7a0d14c09,651c34c9a3e74ef2f3dc1e24,null,null,"<p style=""font-size: 60px; font-family: BACS"">lRckAOYK</p>",,,,,,,,,,
html-keyboard-response,353,495976,0.0-16.0-0.21,65089e7ce53888b0b3840c62,650c16f0f2faf8d7a0d14c09,651c34c9a3e74ef2f3dc1e24,null,null,"<p style=""font-size: 60px; font-family: BACS"">lRckAOYK</p>",,,,,,,,,,
html-keyboard-response,354,496981,0.0-16.0-0.22,65089e7ce53888b0b3840c62,650c16f0f2faf8d7a0d14c09,651c34c9a3e74ef2f3dc1e24,null,null,"<p style=""font-size: 60px; font-family: BACS"">lRckAOYK</p>",,,,,,,,,,
html-keyboard-response,355,497983,0.0-16.0-0.23,65089e7ce53888b0b3840c62,650c16f0f2faf8d7a0d14c09,651c34c9a3e74ef2f3dc1e24,null,null,"<p style=""font-size: 60px; font-family: BACS"">lRckAOYK</p>",,,,,,,,,,
html-keyboard-response,356,498993,0.0-16.0-0.24,65089e7ce53888b0b3840c62,650c16f0f2faf8d7a0d14c09,651c34c9a3e74ef2f3dc1e24,null,null,"<p style=""font-size: 60px; font-family: BACS"">lRckAOYK</p>",,,,,,,,,,
html-keyboard-response,357,499998,0.0-16.0-0.25,65089e7ce53888b0b3840c62,650c16f0f2faf8d7a0d14c09,651c34c9a3e74ef2f3dc1e24,null,null,"<p style=""font-size: 60px; font-family: BACS"">lRckAOYK</p>",,,,,,,,,,
html-keyboard-response,358,501008,0.0-16.0-0.26,65089e7ce53888b0b3840c62,650c16f0f2faf8d7a0d14c09,651c34c9a3e74ef2f3dc1e24,null,null,"<p style=""font-size: 60px; font-family: BACS"">lRckAOYK</p>",,,,,,,,,,
html-keyboard-response,359,502015,0.0-16.0-0.27,65089e7ce53888b0b3840c62,650c16f0f2faf8d7a0d14c09,651c34c9a3e74ef2f3dc1e24,null,null,"<p style=""font-size: 60px; font-family: BACS"">lRckAOYK</p>",,,,,,,,,,
html-keyboard-response,360,503028,0.0-16.0-0.28,65089e7ce53888b0b3840c62,650c16f0f2faf8d7a0d14c09,651c34c9a3e74ef2f3dc1e24,null,null,"<p style=""font-size: 60px; font-family: BACS"">lRckAOYK</p>",,,,,,,,,,
html-keyboard-response,361,504036,0.0-16.0-0.29,65089e7ce53888b0b3840c62,650c16f0f2faf8d7a0d14c09,651c34c9a3e74ef2f3dc1e24,null,null,"<p style=""font-size: 60px; font-family: BACS"">lRckAOYK</p>",,,,,,,,,,
html-keyboard-response,362,505042,0.0-16.0-0.30,65089e7ce53888b0b3840c62,650c16f0f2faf8d7a0d14c09,651c34c9a3e74ef2f3dc1e24,null,null,"<p style=""font-size: 60px; font-family: BACS"">lRckAOYK</p>",,,,,,,,,,
html-keyboard-response,363,506054,0.0-16.0-0.31,65089e7ce53888b0b3840c62,650c16f0f2faf8d7a0d14c09,651c34c9a3e74ef2f3dc1e24,null,null,"<p style=""font-size: 60px; font-family: BACS"">lRckAOYK</p>",,,,,,,,,,
html-keyboard-response,364,507061,0.0-16.0-0.32,65089e7ce53888b0b3840c62,650c16f0f2faf8d7a0d14c09,651c34c9a3e74ef2f3dc1e24,null,null,"<p style=""font-size: 60px; font-family: BACS"">lRckAOYK</p>",,,,,,,,,,
html-keyboard-response,365,508066,0.0-16.0-0.33,65089e7ce53888b0b3840c62,650c16f0f2faf8d7a0d14c09,651c34c9a3e74ef2f3dc1e24,null,null,"<p style=""font-size: 60px; font-family: BACS"">lRckAOYK</p>",,,,,,,,,,
html-keyboard-response,366,509074,0.0-16.0-0.34,65089e7ce53888b0b3840c62,650c16f0f2faf8d7a0d14c09,651c34c9a3e74ef2f3dc1e24,null,null,"<p style=""font-size: 60px; font-family: BACS"">lRckAOYK</p>",,,,,,,,,,
html-keyboard-response,367,510088,0.0-16.0-0.35,65089e7ce53888b0b3840c62,650c16f0f2faf8d7a0d14c09,651c34c9a3e74ef2f3dc1e24,null,null,"<p style=""font-size: 60px; font-family: BACS"">lRckAOYK</p>",,,,,,,,,,
html-keyboard-response,368,511098,0.0-16.0-0.36,65089e7ce53888b0b3840c62,650c16f0f2faf8d7a0d14c09,651c34c9a3e74ef2f3dc1e24,null,null,"<p style=""font-size: 60px; font-family: BACS"">lRckAOYK</p>",,,,,,,,,,
html-keyboard-response,369,512113,0.0-16.0-0.37,65089e7ce53888b0b3840c62,650c16f0f2faf8d7a0d14c09,651c34c9a3e74ef2f3dc1e24,null,null,"<p style=""font-size: 60px; font-family: BACS"">lRckAOYK</p>",,,,,,,,,,
html-keyboard-response,370,513125,0.0-16.0-0.38,65089e7ce53888b0b3840c62,650c16f0f2faf8d7a0d14c09,651c34c9a3e74ef2f3dc1e24,null,null,"<p style=""font-size: 60px; font-family: BACS"">lRckAOYK</p>",,,,,,,,,,
html-keyboard-response,371,514127,0.0-16.0-0.39,65089e7ce53888b0b3840c62,650c16f0f2faf8d7a0d14c09,651c34c9a3e74ef2f3dc1e24,null,null,"<p style=""font-size: 60px; font-family: BACS"">lRckAOYK</p>",,,,,,,,,,
html-keyboard-response,372,515138,0.0-16.0-0.40,65089e7ce53888b0b3840c62,650c16f0f2faf8d7a0d14c09,651c34c9a3e74ef2f3dc1e24,null,null,"<p style=""font-size: 60px; font-family: BACS"">lRckAOYK</p>",,,,,,,,,,
html-keyboard-response,373,516150,0.0-16.0-0.41,65089e7ce53888b0b3840c62,650c16f0f2faf8d7a0d14c09,651c34c9a3e74ef2f3dc1e24,null,null,"<p style=""font-size: 60px; font-family: BACS"">lRckAOYK</p>",,,,,,,,,,
html-keyboard-response,374,517160,0.0-16.0-0.42,65089e7ce53888b0b3840c62,650c16f0f2faf8d7a0d14c09,651c34c9a3e74ef2f3dc1e24,null,null,"<p style=""font-size: 60px; font-family: BACS"">lRckAOYK</p>",,,,,,,,,,
html-keyboard-response,375,518176,0.0-16.0-0.43,65089e7ce53888b0b3840c62,650c16f0f2faf8d7a0d14c09,651c34c9a3e74ef2f3dc1e24,null,null,"<p style=""font-size: 60px; font-family: BACS"">lRckAOYK</p>",,,,,,,,,,
html-keyboard-response,376,519186,0.0-16.0-0.44,65089e7ce53888b0b3840c62,650c16f0f2faf8d7a0d14c09,651c34c9a3e74ef2f3dc1e24,null,null,"<p style=""font-size: 60px; font-family: BACS"">lRckAOYK</p>",,,,,,,,,,
html-keyboard-response,377,520195,0.0-16.0-0.45,65089e7ce53888b0b3840c62,650c16f0f2faf8d7a0d14c09,651c34c9a3e74ef2f3dc1e24,null,null,"<p style=""font-size: 60px; font-family: BACS"">lRckAOYK</p>",,,,,,,,,,
html-keyboard-response,378,521206,0.0-16.0-0.46,65089e7ce53888b0b3840c62,650c16f0f2faf8d7a0d14c09,651c34c9a3e74ef2f3dc1e24,null,null,"<p style=""font-size: 60px; font-family: BACS"">lRckAOYK</p>",,,,,,,,,,
html-keyboard-response,379,522216,0.0-16.0-0.47,65089e7ce53888b0b3840c62,650c16f0f2faf8d7a0d14c09,651c34c9a3e74ef2f3dc1e24,null,null,"<p style=""font-size: 60px; font-family: BACS"">lRckAOYK</p>",,,,,,,,,,
html-keyboard-response,380,523226,0.0-16.0-0.48,65089e7ce53888b0b3840c62,650c16f0f2faf8d7a0d14c09,651c34c9a3e74ef2f3dc1e24,null,null,"<p style=""font-size: 60px; font-family: BACS"">lRckAOYK</p>",,,,,,,,,,
html-keyboard-response,381,524238,0.0-16.0-0.49,65089e7ce53888b0b3840c62,650c16f0f2faf8d7a0d14c09,651c34c9a3e74ef2f3dc1e24,null,null,"<p style=""font-size: 60px; font-family: BACS"">lRckAOYK</p>",,,,,,,,,,
html-keyboard-response,382,525247,0.0-16.0-0.50,65089e7ce53888b0b3840c62,650c16f0f2faf8d7a0d14c09,651c34c9a3e74ef2f3dc1e24,null,null,"<p style=""font-size: 60px; font-family: BACS"">lRckAOYK</p>",,,,,,,,,,
html-keyboard-response,383,526257,0.0-16.0-0.51,65089e7ce53888b0b3840c62,650c16f0f2faf8d7a0d14c09,651c34c9a3e74ef2f3dc1e24,null,null,"<p style=""font-size: 60px; font-family: BACS"">lRckAOYK</p>",,,,,,,,,,
html-keyboard-response,384,527270,0.0-16.0-0.52,65089e7ce53888b0b3840c62,650c16f0f2faf8d7a0d14c09,651c34c9a3e74ef2f3dc1e24,null,null,"<p style=""font-size: 60px; font-family: BACS"">lRckAOYK</p>",,,,,,,,,,
html-keyboard-response,385,528281,0.0-16.0-0.53,65089e7ce53888b0b3840c62,650c16f0f2faf8d7a0d14c09,651c34c9a3e74ef2f3dc1e24,null,null,"<p style=""font-size: 60px; font-family: BACS"">lRckAOYK</p>",,,,,,,,,,
html-keyboard-response,386,529291,0.0-16.0-0.54,65089e7ce53888b0b3840c62,650c16f0f2faf8d7a0d14c09,651c34c9a3e74ef2f3dc1e24,null,null,"<p style=""font-size: 60px; font-family: BACS"">lRckAOYK</p>",,,,,,,,,,
html-keyboard-response,387,530306,0.0-16.0-0.55,65089e7ce53888b0b3840c62,650c16f0f2faf8d7a0d14c09,651c34c9a3e74ef2f3dc1e24,null,null,"<p style=""font-size: 60px; font-family: BACS"">lRckAOYK</p>",,,,,,,,,,
html-keyboard-response,388,531317,0.0-16.0-0.56,65089e7ce53888b0b3840c62,650c16f0f2faf8d7a0d14c09,651c34c9a3e74ef2f3dc1e24,null,null,"<p style=""font-size: 60px; font-family: BACS"">lRckAOYK</p>",,,,,,,,,,
html-keyboard-response,389,532332,0.0-16.0-0.57,65089e7ce53888b0b3840c62,650c16f0f2faf8d7a0d14c09,651c34c9a3e74ef2f3dc1e24,null,null,"<p style=""font-size: 60px; font-family: BACS"">lRckAOYK</p>",,,,,,,,,,
html-keyboard-response,390,533333,0.0-16.0-0.58,65089e7ce53888b0b3840c62,650c16f0f2faf8d7a0d14c09,651c34c9a3e74ef2f3dc1e24,null,null,"<p style=""font-size: 60px; font-family: BACS"">lRckAOYK</p>",,,,,,,,,,
html-keyboard-response,391,534340,0.0-16.0-0.59,65089e7ce53888b0b3840c62,650c16f0f2faf8d7a0d14c09,651c34c9a3e74ef2f3dc1e24,null,null,"<p style=""font-size: 60px; font-family: BACS"">lRckAOYK</p>",,,,,,,,,,
html-keyboard-response,392,535354,0.0-16.0-0.60,65089e7ce53888b0b3840c62,650c16f0f2faf8d7a0d14c09,651c34c9a3e74ef2f3dc1e24,null,null,"<p style=""font-size: 60px; font-family: BACS"">lRckAOYK</p>",,,,,,,,,,
html-keyboard-response,393,536368,0.0-16.0-0.61,65089e7ce53888b0b3840c62,650c16f0f2faf8d7a0d14c09,651c34c9a3e74ef2f3dc1e24,null,null,"<p style=""font-size: 60px; font-family: BACS"">lRckAOYK</p>",,,,,,,,,,
html-keyboard-response,394,537383,0.0-16.0-0.62,65089e7ce53888b0b3840c62,650c16f0f2faf8d7a0d14c09,651c34c9a3e74ef2f3dc1e24,null,null,"<p style=""font-size: 60px; font-family: BACS"">lRckAOYK</p>",,,,,,,,,,
html-keyboard-response,395,538393,0.0-16.0-0.63,65089e7ce53888b0b3840c62,650c16f0f2faf8d7a0d14c09,651c34c9a3e74ef2f3dc1e24,null,null,"<p style=""font-size: 60px; font-family: BACS"">lRckAOYK</p>",,,,,,,,,,
html-keyboard-response,396,539405,0.0-16.0-0.64,65089e7ce53888b0b3840c62,650c16f0f2faf8d7a0d14c09,651c34c9a3e74ef2f3dc1e24,null,null,"<p style=""font-size: 60px; font-family: BACS"">lRckAOYK</p>",,,,,,,,,,
html-keyboard-response,397,540416,0.0-16.0-0.65,65089e7ce53888b0b3840c62,650c16f0f2faf8d7a0d14c09,651c34c9a3e74ef2f3dc1e24,null,null,"<p style=""font-size: 60px; font-family: BACS"">lRckAOYK</p>",,,,,,,,,,
html-keyboard-response,398,541428,0.0-16.0-0.66,65089e7ce53888b0b3840c62,650c16f0f2faf8d7a0d14c09,651c34c9a3e74ef2f3dc1e24,null,null,"<p style=""font-size: 60px; font-family: BACS"">lRckAOYK</p>",,,,,,,,,,
html-keyboard-response,399,542441,0.0-16.0-0.67,65089e7ce53888b0b3840c62,650c16f0f2faf8d7a0d14c09,651c34c9a3e74ef2f3dc1e24,null,null,"<p style=""font-size: 60px; font-family: BACS"">lRckAOYK</p>",,,,,,,,,,
html-keyboard-response,400,543452,0.0-16.0-0.68,65089e7ce53888b0b3840c62,650c16f0f2faf8d7a0d14c09,651c34c9a3e74ef2f3dc1e24,null,null,"<p style=""font-size: 60px; font-family: BACS"">lRckAOYK</p>",,,,,,,,,,
html-keyboard-response,401,544465,0.0-16.0-0.69,65089e7ce53888b0b3840c62,650c16f0f2faf8d7a0d14c09,651c34c9a3e74ef2f3dc1e24,null,null,"<p style=""font-size: 60px; font-family: BACS"">lRckAOYK</p>",,,,,,,,,,
html-keyboard-response,402,545478,0.0-16.0-0.70,65089e7ce53888b0b3840c62,650c16f0f2faf8d7a0d14c09,651c34c9a3e74ef2f3dc1e24,null,null,"<p style=""font-size: 60px; font-family: BACS"">lRckAOYK</p>",,,,,,,,,,
html-keyboard-response,403,546489,0.0-16.0-0.71,65089e7ce53888b0b3840c62,650c16f0f2faf8d7a0d14c09,651c34c9a3e74ef2f3dc1e24,null,null,"<p style=""font-size: 60px; font-family: BACS"">lRckAOYK</p>",,,,,,,,,,
html-keyboard-response,404,547505,0.0-16.0-0.72,65089e7ce53888b0b3840c62,650c16f0f2faf8d7a0d14c09,651c34c9a3e74ef2f3dc1e24,null,null,"<p style=""font-size: 60px; font-family: BACS"">lRckAOYK</p>",,,,,,,,,,
html-keyboard-response,405,548513,0.0-16.0-0.73,65089e7ce53888b0b3840c62,650c16f0f2faf8d7a0d14c09,651c34c9a3e74ef2f3dc1e24,null,null,"<p style=""font-size: 60px; font-family: BACS"">lRckAOYK</p>",,,,,,,,,,
html-keyboard-response,406,549526,0.0-16.0-0.74,65089e7ce53888b0b3840c62,650c16f0f2faf8d7a0d14c09,651c34c9a3e74ef2f3dc1e24,null,null,"<p style=""font-size: 60px; font-family: BACS"">lRckAOYK</p>",,,,,,,,,,
html-keyboard-response,407,550538,0.0-16.0-0.75,65089e7ce53888b0b3840c62,650c16f0f2faf8d7a0d14c09,651c34c9a3e74ef2f3dc1e24,null,null,"<p style=""font-size: 60px; font-family: BACS"">lRckAOYK</p>",,,,,,,,,,
html-keyboard-response,408,551549,0.0-16.0-0.76,65089e7ce53888b0b3840c62,650c16f0f2faf8d7a0d14c09,651c34c9a3e74ef2f3dc1e24,null,null,"<p style=""font-size: 60px; font-family: BACS"">lRckAOYK</p>",,,,,,,,,,
html-keyboard-response,409,552559,0.0-16.0-0.77,65089e7ce53888b0b3840c62,650c16f0f2faf8d7a0d14c09,651c34c9a3e74ef2f3dc1e24,null,null,"<p style=""font-size: 60px; font-family: BACS"">lRckAOYK</p>",,,,,,,,,,
html-keyboard-response,410,553574,0.0-16.0-0.78,65089e7ce53888b0b3840c62,650c16f0f2faf8d7a0d14c09,651c34c9a3e74ef2f3dc1e24,null,null,"<p style=""font-size: 60px; font-family: BACS"">lRckAOYK</p>",,,,,,,,,,
html-keyboard-response,411,554583,0.0-16.0-0.79,65089e7ce53888b0b3840c62,650c16f0f2faf8d7a0d14c09,651c34c9a3e74ef2f3dc1e24,null,null,"<p style=""font-size: 60px; font-family: BACS"">lRckAOYK</p>",,,,,,,,,,
html-keyboard-response,412,560637,0.0-17.0,65089e7ce53888b0b3840c62,650c16f0f2faf8d7a0d14c09,651c34c9a3e74ef2f3dc1e24,6054, ,"<p>Great, you've seen the fifth block of words. You may now take a short break.</p>
      <p>Press the spacebar when you're ready to continue.</p>",,,,,,,,,,
html-keyboard-response,413,561651,0.0-18.0-0.0,65089e7ce53888b0b3840c62,650c16f0f2faf8d7a0d14c09,651c34c9a3e74ef2f3dc1e24,null,null,"<p style=""font-size: 60px; font-family: BACS"">vclYGUa</p>",,,,,,,,,,
html-keyboard-response,414,562663,0.0-18.0-0.1,65089e7ce53888b0b3840c62,650c16f0f2faf8d7a0d14c09,651c34c9a3e74ef2f3dc1e24,null,null,"<p style=""font-size: 60px; font-family: BACS"">lRckAKOYC</p>",,,,,,,,,,
html-keyboard-response,415,563673,0.0-18.0-0.2,65089e7ce53888b0b3840c62,650c16f0f2faf8d7a0d14c09,651c34c9a3e74ef2f3dc1e24,null,null,"<p style=""font-size: 60px; font-family: BACS"">OLJblkmU</p>",,,,,,,,,,
html-keyboard-response,416,564684,0.0-18.0-0.3,65089e7ce53888b0b3840c62,650c16f0f2faf8d7a0d14c09,651c34c9a3e74ef2f3dc1e24,null,null,"<p style=""font-size: 60px; font-family: BACS"">vclYuUmb</p>",,,,,,,,,,
html-keyboard-response,417,565700,0.0-18.0-0.4,65089e7ce53888b0b3840c62,650c16f0f2faf8d7a0d14c09,651c34c9a3e74ef2f3dc1e24,null,null,"<p style=""font-size: 60px; font-family: BACS"">YNrAmkmU</p>",,,,,,,,,,
html-keyboard-response,418,566712,0.0-18.0-0.5,65089e7ce53888b0b3840c62,650c16f0f2faf8d7a0d14c09,651c34c9a3e74ef2f3dc1e24,null,null,"<p style=""font-size: 60px; font-family: BACS"">hChYBYhT</p>",,,,,,,,,,
html-keyboard-response,419,567715,0.0-18.0-0.6,65089e7ce53888b0b3840c62,650c16f0f2faf8d7a0d14c09,651c34c9a3e74ef2f3dc1e24,null,null,"<p style=""font-size: 60px; font-family: BACS"">cdKBYdBC</p>",,,,,,,,,,
html-keyboard-response,420,568729,0.0-18.0-0.7,65089e7ce53888b0b3840c62,650c16f0f2faf8d7a0d14c09,651c34c9a3e74ef2f3dc1e24,null,null,"<p style=""font-size: 60px; font-family: BACS"">BdtACKOYC</p>",,,,,,,,,,
html-keyboard-response,421,569742,0.0-18.0-0.8,65089e7ce53888b0b3840c62,650c16f0f2faf8d7a0d14c09,651c34c9a3e74ef2f3dc1e24,null,null,"<p style=""font-size: 60px; font-family: BACS"">cROMtOYK</p>",,,,,,,,,,
html-keyboard-response,422,570755,0.0-18.0-0.9,65089e7ce53888b0b3840c62,650c16f0f2faf8d7a0d14c09,651c34c9a3e74ef2f3dc1e24,null,null,"<p style=""font-size: 60px; font-family: BACS"">TPCbBYhT</p>",,,,,,,,,,
html-keyboard-response,423,571764,0.0-18.0-0.10,65089e7ce53888b0b3840c62,650c16f0f2faf8d7a0d14c09,651c34c9a3e74ef2f3dc1e24,null,null,"<p style=""font-size: 60px; font-family: BACS"">BdtACmKcD</p>",,,,,,,,,,
html-keyboard-response,424,572773,0.0-18.0-0.11,65089e7ce53888b0b3840c62,650c16f0f2faf8d7a0d14c09,651c34c9a3e74ef2f3dc1e24,null,null,"<p style=""font-size: 60px; font-family: BACS"">mcOJGUOA</p>",,,,,,,,,,
html-keyboard-response,425,573780,0.0-18.0-0.12,65089e7ce53888b0b3840c62,650c16f0f2faf8d7a0d14c09,651c34c9a3e74ef2f3dc1e24,null,null,"<p style=""font-size: 60px; font-family: BACS"">TPCbmKcD</p>",,,,,,,,,,
html-keyboard-response,426,574793,0.0-18.0-0.13,65089e7ce53888b0b3840c62,650c16f0f2faf8d7a0d14c09,651c34c9a3e74ef2f3dc1e24,null,null,"<p style=""font-size: 60px; font-family: BACS"">htmhCdBC</p>",,,,,,,,,,
html-keyboard-response,427,575801,0.0-18.0-0.14,65089e7ce53888b0b3840c62,650c16f0f2faf8d7a0d14c09,651c34c9a3e74ef2f3dc1e24,null,null,"<p style=""font-size: 60px; font-family: BACS"">OEPkmKcD</p>",,,,,,,,,,
html-keyboard-response,428,576813,0.0-18.0-0.15,65089e7ce53888b0b3840c62,650c16f0f2faf8d7a0d14c09,651c34c9a3e74ef2f3dc1e24,null,null,"<p style=""font-size: 60px; font-family: BACS"">YNrAmGUa</p>",,,,,,,,,,
html-keyboard-response,429,577824,0.0-18.0-0.16,65089e7ce53888b0b3840c62,650c16f0f2faf8d7a0d14c09,651c34c9a3e74ef2f3dc1e24,null,null,"<p style=""font-size: 60px; font-family: BACS"">htmhCKOYC</p>",,,,,,,,,,
html-keyboard-response,430,578838,0.0-18.0-0.17,65089e7ce53888b0b3840c62,650c16f0f2faf8d7a0d14c09,651c34c9a3e74ef2f3dc1e24,null,null,"<p style=""font-size: 60px; font-family: BACS"">JdOAYuUmb</p>",,,,,,,,,,
html-keyboard-response,431,579850,0.0-18.0-0.18,65089e7ce53888b0b3840c62,650c16f0f2faf8d7a0d14c09,651c34c9a3e74ef2f3dc1e24,null,null,"<p style=""font-size: 60px; font-family: BACS"">cdKBYKOYC</p>",,,,,,,,,,
html-keyboard-response,432,580862,0.0-18.0-0.19,65089e7ce53888b0b3840c62,650c16f0f2faf8d7a0d14c09,651c34c9a3e74ef2f3dc1e24,null,null,"<p style=""font-size: 60px; font-family: BACS"">hChYmKcD</p>",,,,,,,,,,
html-keyboard-response,433,581870,0.0-18.0-0.20,65089e7ce53888b0b3840c62,650c16f0f2faf8d7a0d14c09,651c34c9a3e74ef2f3dc1e24,null,null,"<p style=""font-size: 60px; font-family: BACS"">OEPkBYhT</p>",,,,,,,,,,
html-keyboard-response,434,582880,0.0-18.0-0.21,65089e7ce53888b0b3840c62,650c16f0f2faf8d7a0d14c09,651c34c9a3e74ef2f3dc1e24,null,null,"<p style=""font-size: 60px; font-family: BACS"">vclYAOUl</p>",,,,,,,,,,
html-keyboard-response,435,583882,0.0-18.0-0.22,65089e7ce53888b0b3840c62,650c16f0f2faf8d7a0d14c09,651c34c9a3e74ef2f3dc1e24,null,null,"<p style=""font-size: 60px; font-family: BACS"">CDEmYdBC</p>",,,,,,,,,,
html-keyboard-response,436,584893,0.0-18.0-0.23,65089e7ce53888b0b3840c62,650c16f0f2faf8d7a0d14c09,651c34c9a3e74ef2f3dc1e24,null,null,"<p style=""font-size: 60px; font-family: BACS"">cuOJbkmU</p>",,,,,,,,,,
html-keyboard-response,437,585901,0.0-18.0-0.24,65089e7ce53888b0b3840c62,650c16f0f2faf8d7a0d14c09,651c34c9a3e74ef2f3dc1e24,null,null,"<p style=""font-size: 60px; font-family: BACS"">cROMtBYhT</p>",,,,,,,,,,
html-keyboard-response,438,586911,0.0-18.0-0.25,65089e7ce53888b0b3840c62,650c16f0f2faf8d7a0d14c09,651c34c9a3e74ef2f3dc1e24,null,null,"<p style=""font-size: 60px; font-family: BACS"">JdOAYAOUl</p>",,,,,,,,,,
html-keyboard-response,439,587922,0.0-18.0-0.26,65089e7ce53888b0b3840c62,650c16f0f2faf8d7a0d14c09,651c34c9a3e74ef2f3dc1e24,null,null,"<p style=""font-size: 60px; font-family: BACS"">AZaJckmU</p>",,,,,,,,,,
html-keyboard-response,440,588935,0.0-18.0-0.27,65089e7ce53888b0b3840c62,650c16f0f2faf8d7a0d14c09,651c34c9a3e74ef2f3dc1e24,null,null,"<p style=""font-size: 60px; font-family: BACS"">rLkmuUmb</p>",,,,,,,,,,
html-keyboard-response,441,589943,0.0-18.0-0.28,65089e7ce53888b0b3840c62,650c16f0f2faf8d7a0d14c09,651c34c9a3e74ef2f3dc1e24,null,null,"<p style=""font-size: 60px; font-family: BACS"">TdmAmKcD</p>",,,,,,,,,,
html-keyboard-response,442,590954,0.0-18.0-0.29,65089e7ce53888b0b3840c62,650c16f0f2faf8d7a0d14c09,651c34c9a3e74ef2f3dc1e24,null,null,"<p style=""font-size: 60px; font-family: BACS"">hChYOYK</p>",,,,,,,,,,
html-keyboard-response,443,591967,0.0-18.0-0.30,65089e7ce53888b0b3840c62,650c16f0f2faf8d7a0d14c09,651c34c9a3e74ef2f3dc1e24,null,null,"<p style=""font-size: 60px; font-family: BACS"">ZcGdNAOUl</p>",,,,,,,,,,
html-keyboard-response,444,592977,0.0-18.0-0.31,65089e7ce53888b0b3840c62,650c16f0f2faf8d7a0d14c09,651c34c9a3e74ef2f3dc1e24,null,null,"<p style=""font-size: 60px; font-family: BACS"">OEPkdBC</p>",,,,,,,,,,
html-keyboard-response,445,593984,0.0-18.0-0.32,65089e7ce53888b0b3840c62,650c16f0f2faf8d7a0d14c09,651c34c9a3e74ef2f3dc1e24,null,null,"<p style=""font-size: 60px; font-family: BACS"">mcOJGUa</p>",,,,,,,,,,
html-keyboard-response,446,594994,0.0-18.0-0.33,65089e7ce53888b0b3840c62,650c16f0f2faf8d7a0d14c09,651c34c9a3e74ef2f3dc1e24,null,null,"<p style=""font-size: 60px; font-family: BACS"">BdtACOYK</p>",,,,,,,,,,
html-keyboard-response,447,596007,0.0-18.0-0.34,65089e7ce53888b0b3840c62,650c16f0f2faf8d7a0d14c09,651c34c9a3e74ef2f3dc1e24,null,null,"<p style=""font-size: 60px; font-family: BACS"">CDEmYKOYC</p>",,,,,,,,,,
html-keyboard-response,448,597019,0.0-18.0-0.35,65089e7ce53888b0b3840c62,650c16f0f2faf8d7a0d14c09,651c34c9a3e74ef2f3dc1e24,null,null,"<p style=""font-size: 60px; font-family: BACS"">ZcGdNGUa</p>",,,,,,,,,,
html-keyboard-response,449,598033,0.0-18.0-0.36,65089e7ce53888b0b3840c62,650c16f0f2faf8d7a0d14c09,651c34c9a3e74ef2f3dc1e24,null,null,"<p style=""font-size: 60px; font-family: BACS"">YNrAmGUOA</p>",,,,,,,,,,
html-keyboard-response,450,599045,0.0-18.0-0.37,65089e7ce53888b0b3840c62,650c16f0f2faf8d7a0d14c09,651c34c9a3e74ef2f3dc1e24,null,null,"<p style=""font-size: 60px; font-family: BACS"">rLkmGUa</p>",,,,,,,,,,
html-keyboard-response,451,600056,0.0-18.0-0.38,65089e7ce53888b0b3840c62,650c16f0f2faf8d7a0d14c09,651c34c9a3e74ef2f3dc1e24,null,null,"<p style=""font-size: 60px; font-family: BACS"">OLJbluUmb</p>",,,,,,,,,,
html-keyboard-response,452,601066,0.0-18.0-0.39,65089e7ce53888b0b3840c62,650c16f0f2faf8d7a0d14c09,651c34c9a3e74ef2f3dc1e24,null,null,"<p style=""font-size: 60px; font-family: BACS"">AZaJcAOUl</p>",,,,,,,,,,
html-keyboard-response,453,602074,0.0-18.0-0.40,65089e7ce53888b0b3840c62,650c16f0f2faf8d7a0d14c09,651c34c9a3e74ef2f3dc1e24,null,null,"<p style=""font-size: 60px; font-family: BACS"">OLJblGUOA</p>",,,,,,,,,,
html-keyboard-response,454,603089,0.0-18.0-0.41,65089e7ce53888b0b3840c62,650c16f0f2faf8d7a0d14c09,651c34c9a3e74ef2f3dc1e24,null,null,"<p style=""font-size: 60px; font-family: BACS"">lRckAdBC</p>",,,,,,,,,,
html-keyboard-response,455,604100,0.0-18.0-0.42,65089e7ce53888b0b3840c62,650c16f0f2faf8d7a0d14c09,651c34c9a3e74ef2f3dc1e24,null,null,"<p style=""font-size: 60px; font-family: BACS"">rLkmGUOA</p>",,,,,,,,,,
html-keyboard-response,456,605109,0.0-18.0-0.43,65089e7ce53888b0b3840c62,650c16f0f2faf8d7a0d14c09,651c34c9a3e74ef2f3dc1e24,null,null,"<p style=""font-size: 60px; font-family: BACS"">JdOAYkmU</p>",,,,,,,,,,
html-keyboard-response,457,606118,0.0-18.0-0.44,65089e7ce53888b0b3840c62,650c16f0f2faf8d7a0d14c09,651c34c9a3e74ef2f3dc1e24,null,null,"<p style=""font-size: 60px; font-family: BACS"">TdmAKOYC</p>",,,,,,,,,,
html-keyboard-response,458,607120,0.0-18.0-0.45,65089e7ce53888b0b3840c62,650c16f0f2faf8d7a0d14c09,651c34c9a3e74ef2f3dc1e24,null,null,"<p style=""font-size: 60px; font-family: BACS"">lRckABYhT</p>",,,,,,,,,,
html-keyboard-response,459,608136,0.0-18.0-0.46,65089e7ce53888b0b3840c62,650c16f0f2faf8d7a0d14c09,651c34c9a3e74ef2f3dc1e24,null,null,"<p style=""font-size: 60px; font-family: BACS"">vclYkmU</p>",,,,,,,,,,
html-keyboard-response,460,609144,0.0-18.0-0.47,65089e7ce53888b0b3840c62,650c16f0f2faf8d7a0d14c09,651c34c9a3e74ef2f3dc1e24,null,null,"<p style=""font-size: 60px; font-family: BACS"">cuOJbGUa</p>",,,,,,,,,,
html-keyboard-response,461,610151,0.0-18.0-0.48,65089e7ce53888b0b3840c62,650c16f0f2faf8d7a0d14c09,651c34c9a3e74ef2f3dc1e24,null,null,"<p style=""font-size: 60px; font-family: BACS"">cdKBYOYK</p>",,,,,,,,,,
html-keyboard-response,462,611159,0.0-18.0-0.49,65089e7ce53888b0b3840c62,650c16f0f2faf8d7a0d14c09,651c34c9a3e74ef2f3dc1e24,null,null,"<p style=""font-size: 60px; font-family: BACS"">htmhCBYhT</p>",,,,,,,,,,
html-keyboard-response,463,612172,0.0-18.0-0.50,65089e7ce53888b0b3840c62,650c16f0f2faf8d7a0d14c09,651c34c9a3e74ef2f3dc1e24,null,null,"<p style=""font-size: 60px; font-family: BACS"">TPCbdBC</p>",,,,,,,,,,
html-keyboard-response,464,613181,0.0-18.0-0.51,65089e7ce53888b0b3840c62,650c16f0f2faf8d7a0d14c09,651c34c9a3e74ef2f3dc1e24,null,null,"<p style=""font-size: 60px; font-family: BACS"">BdtACBYhT</p>",,,,,,,,,,
html-keyboard-response,465,614190,0.0-18.0-0.52,65089e7ce53888b0b3840c62,650c16f0f2faf8d7a0d14c09,651c34c9a3e74ef2f3dc1e24,null,null,"<p style=""font-size: 60px; font-family: BACS"">lRckAOYK</p>",,,,,,,,,,
html-keyboard-response,466,615202,0.0-18.0-0.53,65089e7ce53888b0b3840c62,650c16f0f2faf8d7a0d14c09,651c34c9a3e74ef2f3dc1e24,null,null,"<p style=""font-size: 60px; font-family: BACS"">cuOJbGUOA</p>",,,,,,,,,,
html-keyboard-response,467,616213,0.0-18.0-0.54,65089e7ce53888b0b3840c62,650c16f0f2faf8d7a0d14c09,651c34c9a3e74ef2f3dc1e24,null,null,"<p style=""font-size: 60px; font-family: BACS"">cdKBYmKcD</p>",,,,,,,,,,
