trial_type,trial_index,time_elapsed,internal_node_id,subject_id,study_id,session_id,rt,response,stimulus,success,item,task,correct_response,testing_condition,correct,target,confound,name,view_history
pavlovia,0,698,0.0-0.0,5f708f5f0d32bb66960d4473,650c16f0f2faf8d7a0d14c09,651c1d75e3f827a6d91a6219,,,,,,,,,,,,,
survey-html-form,1,6759,0.0-1.0,5f708f5f0d32bb66960d4473,650c16f0f2faf8d7a0d14c09,651c1d75e3f827a6d91a6219,6060,"{""ID"":""5f708f5f0d32bb66960d4473""}",,,,,,,,,,,
html-keyboard-response,2,24262,0.0-2.0,5f708f5f0d32bb66960d4473,650c16f0f2faf8d7a0d14c09,651c1d75e3f827a6d91a6219,17501, ,"<p style=""font-size: 15px;"">Before beginning, we ask that you read the consent information and confirm your agreement to participate in the experiment.</p>
      <p style=""font-size: 15px;""> We ask that you remember that this is a research project and that your participation is entirely voluntary. You can stop your participation at any time, without needing to provide any explanation. The study we're asking you to participate in aims at examining how readers process written words. You will be engaged in a session of apprximately 20 minutes, followed by a brief questionnaire. You will have the opportunity to take a few breaks during the experiment. You will be paid £4 for your participation, corresponding to a rate of £8/hour. While this experiment looks at cognitive faculties, this experiment doesn't constitute clinical proof of eventual pathologies.</p>
      <p style=""font-size: 15px;"">All of the information collected thanks to yours and others' participation will be held in a secure password-protected server, and will not be shared with anyone not authorised to view it. Your personal information will be kept with an arbitrary participant ID. Thanks to this data anonymity process, any researcher analysing the data won't be able to track the information back to a specific participant. Therefore, this process will make identifying you impossibile, even when results from the study will be published in scientific reviews, presented at congresses, or at any other public forum. More generally, the collected data will be treated in accordance with the laws on privacy and conformity to the Legislative Degree n. 196 ""Code regarding the protection of personal data"" of the 30th of June 2003 and to the European Regulation 2016/670 (General Data Protection Regulation - GDPR). The Data Protection Officer is Avv. Valentina Carollo, who can be contacted at the following email addresses: <a href=""mailto:dpo@sissa.it"">dpo@sissa.it</a> or <a href=""mailto:rpd@sissa.it"">rpd@sissa.it</a> - PEC: <a href=""mailto:protocollo@pec.sissa.it"">protocollo@pec.sissa.it</a>.</p>
      <p style=""font-size: 15px;""> Before expressing your consent to participate, we would like to remind you again that in case you need explanations on any aspect of the experimental procedure, the researcher is at your disposition (<a href=""mailto:aliebelt@sissa.it"">aliebelt@sissa.it</a>, <a href=""mailto:davide.crepaldi@sissa.it"">davide.crepaldi@sissa.it</a>).</p>
      <p style=""font-size: 15px;"">If you would like to download the informed consent form, you can do so here: <a href=""BASL-Informed_Consent.pdf"" download>informed consent form</a>.</p>
      <p style=""font-size: 15px;"">We ask that you press the spacebar to proceed to the consent section.</p>",,,,,,,,,,
survey-html-form,3,47816,0.0-3.0,5f708f5f0d32bb66960d4473,650c16f0f2faf8d7a0d14c09,651c1d75e3f827a6d91a6219,23553,"{""consent1"":""YES"",""consent2"":""YES"",""consent3"":""YES"",""consent4"":""YES"",""consent5"":""YES"",""consent6"":""YES""}",,,,,,,,,,,
fullscreen,4,52771,0.0-4.0,5f708f5f0d32bb66960d4473,650c16f0f2faf8d7a0d14c09,651c1d75e3f827a6d91a6219,,,,TRUE,,,,,,,,,
html-keyboard-response,5,72622,0.0-5.0,5f708f5f0d32bb66960d4473,650c16f0f2faf8d7a0d14c09,651c1d75e3f827a6d91a6219,19851, ,"<p>Welcome, and thank you very much for your time!</p>
      <p>In this experiment, you'll be a language expert who's been asked to take a look at words that Earth has received in its first communication with aliens. Your task, in this first part of the experiment, is to pay close attention to the words you'll be shown; later, world leaders will ask you questions on what you saw. The words will be shown to you quite quickly; it seems that the aliens were in a hurry :-)</p>
      <p>Press the spacebar to continue.<p>",,,,,,,,,,
html-keyboard-response,6,72674,0.0-6.0,5f708f5f0d32bb66960d4473,650c16f0f2faf8d7a0d14c09,651c1d75e3f827a6d91a6219,null,null,"<p style=""font-size: 120px; font-family: BACS""> </p>",,,,,,,,,,
html-keyboard-response,7,77823,0.0-7.0,5f708f5f0d32bb66960d4473,650c16f0f2faf8d7a0d14c09,651c1d75e3f827a6d91a6219,5149, ,"<p>Here is an example of the words you'll see:</p>
      <img src='esempio.png' height='400px'>
      <p>When you're ready to begin, press the spacebar.</p></div>",,,,,,,,,,
html-keyboard-response,8,78832,0.0-8.0-0.0,5f708f5f0d32bb66960d4473,650c16f0f2faf8d7a0d14c09,651c1d75e3f827a6d91a6219,null,null,"<p style=""font-size: 60px; font-family: BACS"">hlbtbYTOM</p>",,,,,,,,,,
html-keyboard-response,9,79841,0.0-8.0-0.1,5f708f5f0d32bb66960d4473,650c16f0f2faf8d7a0d14c09,651c1d75e3f827a6d91a6219,null,null,"<p style=""font-size: 60px; font-family: BACS"">bvuZAOUl</p>",,,,,,,,,,
html-keyboard-response,10,80854,0.0-8.0-0.2,5f708f5f0d32bb66960d4473,650c16f0f2faf8d7a0d14c09,651c1d75e3f827a6d91a6219,null,null,"<p style=""font-size: 60px; font-family: BACS"">TPCbPMd</p>",,,,,,,,,,
html-keyboard-response,11,81869,0.0-8.0-0.3,5f708f5f0d32bb66960d4473,650c16f0f2faf8d7a0d14c09,651c1d75e3f827a6d91a6219,null,null,"<p style=""font-size: 60px; font-family: BACS"">bvuZArv</p>",,,,,,,,,,
html-keyboard-response,12,82871,0.0-8.0-0.4,5f708f5f0d32bb66960d4473,650c16f0f2faf8d7a0d14c09,651c1d75e3f827a6d91a6219,null,null,"<p style=""font-size: 60px; font-family: BACS"">mARMmtKP</p>",,,,,,,,,,
html-keyboard-response,13,83882,0.0-8.0-0.5,5f708f5f0d32bb66960d4473,650c16f0f2faf8d7a0d14c09,651c1d75e3f827a6d91a6219,null,null,"<p style=""font-size: 60px; font-family: BACS"">DOchlhEct</p>",,,,,,,,,,
html-keyboard-response,14,84890,0.0-8.0-0.6,5f708f5f0d32bb66960d4473,650c16f0f2faf8d7a0d14c09,651c1d75e3f827a6d91a6219,null,null,"<p style=""font-size: 60px; font-family: BACS"">PdDTYcM</p>",,,,,,,,,,
html-keyboard-response,15,85899,0.0-8.0-0.7,5f708f5f0d32bb66960d4473,650c16f0f2faf8d7a0d14c09,651c1d75e3f827a6d91a6219,null,null,"<p style=""font-size: 60px; font-family: BACS"">DOchlmtKP</p>",,,,,,,,,,
html-keyboard-response,16,86911,0.0-8.0-0.8,5f708f5f0d32bb66960d4473,650c16f0f2faf8d7a0d14c09,651c1d75e3f827a6d91a6219,null,null,"<p style=""font-size: 60px; font-family: BACS"">mARMYTOM</p>",,,,,,,,,,
html-keyboard-response,17,87919,0.0-8.0-0.9,5f708f5f0d32bb66960d4473,650c16f0f2faf8d7a0d14c09,651c1d75e3f827a6d91a6219,null,null,"<p style=""font-size: 60px; font-family: BACS"">lRckAYcM</p>",,,,,,,,,,
html-keyboard-response,18,88922,0.0-8.0-0.10,5f708f5f0d32bb66960d4473,650c16f0f2faf8d7a0d14c09,651c1d75e3f827a6d91a6219,null,null,"<p style=""font-size: 60px; font-family: BACS"">muYNArv</p>",,,,,,,,,,
html-keyboard-response,19,89927,0.0-8.0-0.11,5f708f5f0d32bb66960d4473,650c16f0f2faf8d7a0d14c09,651c1d75e3f827a6d91a6219,null,null,"<p style=""font-size: 60px; font-family: BACS"">ckLALkdrO</p>",,,,,,,,,,
html-keyboard-response,20,90942,0.0-8.0-0.12,5f708f5f0d32bb66960d4473,650c16f0f2faf8d7a0d14c09,651c1d75e3f827a6d91a6219,null,null,"<p style=""font-size: 60px; font-family: BACS"">hTtBbPMd</p>",,,,,,,,,,
html-keyboard-response,21,91947,0.0-8.0-0.13,5f708f5f0d32bb66960d4473,650c16f0f2faf8d7a0d14c09,651c1d75e3f827a6d91a6219,null,null,"<p style=""font-size: 60px; font-family: BACS"">TPCbYTOM</p>",,,,,,,,,,
html-keyboard-response,22,92957,0.0-8.0-0.14,5f708f5f0d32bb66960d4473,650c16f0f2faf8d7a0d14c09,651c1d75e3f827a6d91a6219,null,null,"<p style=""font-size: 60px; font-family: BACS"">mhtcYcM</p>",,,,,,,,,,
html-keyboard-response,23,93965,0.0-8.0-0.15,5f708f5f0d32bb66960d4473,650c16f0f2faf8d7a0d14c09,651c1d75e3f827a6d91a6219,null,null,"<p style=""font-size: 60px; font-family: BACS"">lRckAPMd</p>",,,,,,,,,,
html-keyboard-response,24,94981,0.0-8.0-0.16,5f708f5f0d32bb66960d4473,650c16f0f2faf8d7a0d14c09,651c1d75e3f827a6d91a6219,null,null,"<p style=""font-size: 60px; font-family: BACS"">DhMthEct</p>",,,,,,,,,,
html-keyboard-response,25,95987,0.0-8.0-0.17,5f708f5f0d32bb66960d4473,650c16f0f2faf8d7a0d14c09,651c1d75e3f827a6d91a6219,null,null,"<p style=""font-size: 60px; font-family: BACS"">GumLlGrbk</p>",,,,,,,,,,
html-keyboard-response,26,97000,0.0-8.0-0.18,5f708f5f0d32bb66960d4473,650c16f0f2faf8d7a0d14c09,651c1d75e3f827a6d91a6219,null,null,"<p style=""font-size: 60px; font-family: BACS"">KBKBEmtKP</p>",,,,,,,,,,
html-keyboard-response,27,98009,0.0-8.0-0.19,5f708f5f0d32bb66960d4473,650c16f0f2faf8d7a0d14c09,651c1d75e3f827a6d91a6219,null,null,"<p style=""font-size: 60px; font-family: BACS"">ckLALkuvb</p>",,,,,,,,,,
html-keyboard-response,28,99017,0.0-8.0-0.20,5f708f5f0d32bb66960d4473,650c16f0f2faf8d7a0d14c09,651c1d75e3f827a6d91a6219,null,null,"<p style=""font-size: 60px; font-family: BACS"">mARMPMd</p>",,,,,,,,,,
html-keyboard-response,29,100042,0.0-8.0-0.21,5f708f5f0d32bb66960d4473,650c16f0f2faf8d7a0d14c09,651c1d75e3f827a6d91a6219,null,null,"<p style=""font-size: 60px; font-family: BACS"">muYNAOUl</p>",,,,,,,,,,
html-keyboard-response,30,101057,0.0-8.0-0.22,5f708f5f0d32bb66960d4473,650c16f0f2faf8d7a0d14c09,651c1d75e3f827a6d91a6219,null,null,"<p style=""font-size: 60px; font-family: BACS"">rkYLGrbk</p>",,,,,,,,,,
html-keyboard-response,31,102058,0.0-8.0-0.23,5f708f5f0d32bb66960d4473,650c16f0f2faf8d7a0d14c09,651c1d75e3f827a6d91a6219,null,null,"<p style=""font-size: 60px; font-family: BACS"">TPCbmtKP</p>",,,,,,,,,,
html-keyboard-response,32,103072,0.0-8.0-0.24,5f708f5f0d32bb66960d4473,650c16f0f2faf8d7a0d14c09,651c1d75e3f827a6d91a6219,null,null,"<p style=""font-size: 60px; font-family: BACS"">ZJLmrkdrO</p>",,,,,,,,,,
html-keyboard-response,33,104073,0.0-8.0-0.25,5f708f5f0d32bb66960d4473,650c16f0f2faf8d7a0d14c09,651c1d75e3f827a6d91a6219,null,null,"<p style=""font-size: 60px; font-family: BACS"">GumLlArv</p>",,,,,,,,,,
html-keyboard-response,34,105089,0.0-8.0-0.26,5f708f5f0d32bb66960d4473,650c16f0f2faf8d7a0d14c09,651c1d75e3f827a6d91a6219,null,null,"<p style=""font-size: 60px; font-family: BACS"">rkYLkuvb</p>",,,,,,,,,,
html-keyboard-response,35,106093,0.0-8.0-0.27,5f708f5f0d32bb66960d4473,650c16f0f2faf8d7a0d14c09,651c1d75e3f827a6d91a6219,null,null,"<p style=""font-size: 60px; font-family: BACS"">mhtcYTOM</p>",,,,,,,,,,
html-keyboard-response,36,107098,0.0-8.0-0.28,5f708f5f0d32bb66960d4473,650c16f0f2faf8d7a0d14c09,651c1d75e3f827a6d91a6219,null,null,"<p style=""font-size: 60px; font-family: BACS"">muYNkdrO</p>",,,,,,,,,,
html-keyboard-response,37,108111,0.0-8.0-0.29,5f708f5f0d32bb66960d4473,650c16f0f2faf8d7a0d14c09,651c1d75e3f827a6d91a6219,null,null,"<p style=""font-size: 60px; font-family: BACS"">DOchlYTOM</p>",,,,,,,,,,
html-keyboard-response,38,109122,0.0-8.0-0.30,5f708f5f0d32bb66960d4473,650c16f0f2faf8d7a0d14c09,651c1d75e3f827a6d91a6219,null,null,"<p style=""font-size: 60px; font-family: BACS"">rvUbArv</p>",,,,,,,,,,
html-keyboard-response,39,110130,0.0-8.0-0.31,5f708f5f0d32bb66960d4473,650c16f0f2faf8d7a0d14c09,651c1d75e3f827a6d91a6219,null,null,"<p style=""font-size: 60px; font-family: BACS"">KBKBEPMd</p>",,,,,,,,,,
html-keyboard-response,40,111147,0.0-8.0-0.32,5f708f5f0d32bb66960d4473,650c16f0f2faf8d7a0d14c09,651c1d75e3f827a6d91a6219,null,null,"<p style=""font-size: 60px; font-family: BACS"">LuaUAOUl</p>",,,,,,,,,,
html-keyboard-response,41,112160,0.0-8.0-0.33,5f708f5f0d32bb66960d4473,650c16f0f2faf8d7a0d14c09,651c1d75e3f827a6d91a6219,null,null,"<p style=""font-size: 60px; font-family: BACS"">vQdOGrbk</p>",,,,,,,,,,
html-keyboard-response,42,113173,0.0-8.0-0.34,5f708f5f0d32bb66960d4473,650c16f0f2faf8d7a0d14c09,651c1d75e3f827a6d91a6219,null,null,"<p style=""font-size: 60px; font-family: BACS"">rkYLkdrO</p>",,,,,,,,,,
html-keyboard-response,43,114186,0.0-8.0-0.35,5f708f5f0d32bb66960d4473,650c16f0f2faf8d7a0d14c09,651c1d75e3f827a6d91a6219,null,null,"<p style=""font-size: 60px; font-family: BACS"">mhtchEct</p>",,,,,,,,,,
html-keyboard-response,44,115197,0.0-8.0-0.36,5f708f5f0d32bb66960d4473,650c16f0f2faf8d7a0d14c09,651c1d75e3f827a6d91a6219,null,null,"<p style=""font-size: 60px; font-family: BACS"">ZJLmrkuvb</p>",,,,,,,,,,
html-keyboard-response,45,116209,0.0-8.0-0.37,5f708f5f0d32bb66960d4473,650c16f0f2faf8d7a0d14c09,651c1d75e3f827a6d91a6219,null,null,"<p style=""font-size: 60px; font-family: BACS"">KBKBEhEct</p>",,,,,,,,,,
html-keyboard-response,46,117216,0.0-8.0-0.38,5f708f5f0d32bb66960d4473,650c16f0f2faf8d7a0d14c09,651c1d75e3f827a6d91a6219,null,null,"<p style=""font-size: 60px; font-family: BACS"">vQdOArv</p>",,,,,,,,,,
html-keyboard-response,47,118222,0.0-8.0-0.39,5f708f5f0d32bb66960d4473,650c16f0f2faf8d7a0d14c09,651c1d75e3f827a6d91a6219,null,null,"<p style=""font-size: 60px; font-family: BACS"">LuaUkdrO</p>",,,,,,,,,,
html-keyboard-response,48,119233,0.0-8.0-0.40,5f708f5f0d32bb66960d4473,650c16f0f2faf8d7a0d14c09,651c1d75e3f827a6d91a6219,null,null,"<p style=""font-size: 60px; font-family: BACS"">JdGmkuvb</p>",,,,,,,,,,
html-keyboard-response,49,120245,0.0-8.0-0.41,5f708f5f0d32bb66960d4473,650c16f0f2faf8d7a0d14c09,651c1d75e3f827a6d91a6219,null,null,"<p style=""font-size: 60px; font-family: BACS"">GumLlkdrO</p>",,,,,,,,,,
html-keyboard-response,50,121253,0.0-8.0-0.42,5f708f5f0d32bb66960d4473,650c16f0f2faf8d7a0d14c09,651c1d75e3f827a6d91a6219,null,null,"<p style=""font-size: 60px; font-family: BACS"">hlbtbmtKP</p>",,,,,,,,,,
html-keyboard-response,51,122263,0.0-8.0-0.43,5f708f5f0d32bb66960d4473,650c16f0f2faf8d7a0d14c09,651c1d75e3f827a6d91a6219,null,null,"<p style=""font-size: 60px; font-family: BACS"">DOchlYcM</p>",,,,,,,,,,
html-keyboard-response,52,123273,0.0-8.0-0.44,5f708f5f0d32bb66960d4473,650c16f0f2faf8d7a0d14c09,651c1d75e3f827a6d91a6219,null,null,"<p style=""font-size: 60px; font-family: BACS"">rvUbGrbk</p>",,,,,,,,,,
html-keyboard-response,53,124281,0.0-8.0-0.45,5f708f5f0d32bb66960d4473,650c16f0f2faf8d7a0d14c09,651c1d75e3f827a6d91a6219,null,null,"<p style=""font-size: 60px; font-family: BACS"">LuaUkuvb</p>",,,,,,,,,,
html-keyboard-response,54,125292,0.0-8.0-0.46,5f708f5f0d32bb66960d4473,650c16f0f2faf8d7a0d14c09,651c1d75e3f827a6d91a6219,null,null,"<p style=""font-size: 60px; font-family: BACS"">DhMtPMd</p>",,,,,,,,,,
html-keyboard-response,55,126307,0.0-8.0-0.47,5f708f5f0d32bb66960d4473,650c16f0f2faf8d7a0d14c09,651c1d75e3f827a6d91a6219,null,null,"<p style=""font-size: 60px; font-family: BACS"">bvuZGrbk</p>",,,,,,,,,,
html-keyboard-response,56,127311,0.0-8.0-0.48,5f708f5f0d32bb66960d4473,650c16f0f2faf8d7a0d14c09,651c1d75e3f827a6d91a6219,null,null,"<p style=""font-size: 60px; font-family: BACS"">JdGmkdrO</p>",,,,,,,,,,
html-keyboard-response,57,128326,0.0-8.0-0.49,5f708f5f0d32bb66960d4473,650c16f0f2faf8d7a0d14c09,651c1d75e3f827a6d91a6219,null,null,"<p style=""font-size: 60px; font-family: BACS"">LuaUGrbk</p>",,,,,,,,,,
html-keyboard-response,58,129335,0.0-8.0-0.50,5f708f5f0d32bb66960d4473,650c16f0f2faf8d7a0d14c09,651c1d75e3f827a6d91a6219,null,null,"<p style=""font-size: 60px; font-family: BACS"">TPCbhEct</p>",,,,,,,,,,
html-keyboard-response,59,130344,0.0-8.0-0.51,5f708f5f0d32bb66960d4473,650c16f0f2faf8d7a0d14c09,651c1d75e3f827a6d91a6219,null,null,"<p style=""font-size: 60px; font-family: BACS"">bvuZkuvb</p>",,,,,,,,,,
html-keyboard-response,60,131350,0.0-8.0-0.52,5f708f5f0d32bb66960d4473,650c16f0f2faf8d7a0d14c09,651c1d75e3f827a6d91a6219,null,null,"<p style=""font-size: 60px; font-family: BACS"">PdDThEct</p>",,,,,,,,,,
html-keyboard-response,61,132361,0.0-8.0-0.53,5f708f5f0d32bb66960d4473,650c16f0f2faf8d7a0d14c09,651c1d75e3f827a6d91a6219,null,null,"<p style=""font-size: 60px; font-family: BACS"">mhtcmtKP</p>",,,,,,,,,,
html-keyboard-response,62,133366,0.0-8.0-0.54,5f708f5f0d32bb66960d4473,650c16f0f2faf8d7a0d14c09,651c1d75e3f827a6d91a6219,null,null,"<p style=""font-size: 60px; font-family: BACS"">ZJLmrGrbk</p>",,,,,,,,,,
html-keyboard-response,63,134368,0.0-8.0-0.55,5f708f5f0d32bb66960d4473,650c16f0f2faf8d7a0d14c09,651c1d75e3f827a6d91a6219,null,null,"<p style=""font-size: 60px; font-family: BACS"">hlbtbYcM</p>",,,,,,,,,,
html-keyboard-response,64,135381,0.0-8.0-0.56,5f708f5f0d32bb66960d4473,650c16f0f2faf8d7a0d14c09,651c1d75e3f827a6d91a6219,null,null,"<p style=""font-size: 60px; font-family: BACS"">ckLALArv</p>",,,,,,,,,,
html-keyboard-response,65,136390,0.0-8.0-0.57,5f708f5f0d32bb66960d4473,650c16f0f2faf8d7a0d14c09,651c1d75e3f827a6d91a6219,null,null,"<p style=""font-size: 60px; font-family: BACS"">hTtBbhEct</p>",,,,,,,,,,
html-keyboard-response,66,137407,0.0-8.0-0.58,5f708f5f0d32bb66960d4473,650c16f0f2faf8d7a0d14c09,651c1d75e3f827a6d91a6219,null,null,"<p style=""font-size: 60px; font-family: BACS"">vQdOkuvb</p>",,,,,,,,,,
html-keyboard-response,67,138417,0.0-8.0-0.59,5f708f5f0d32bb66960d4473,650c16f0f2faf8d7a0d14c09,651c1d75e3f827a6d91a6219,null,null,"<p style=""font-size: 60px; font-family: BACS"">lRckAYTOM</p>",,,,,,,,,,
html-keyboard-response,68,139432,0.0-8.0-0.60,5f708f5f0d32bb66960d4473,650c16f0f2faf8d7a0d14c09,651c1d75e3f827a6d91a6219,null,null,"<p style=""font-size: 60px; font-family: BACS"">rvUbAOUl</p>",,,,,,,,,,
html-keyboard-response,69,140434,0.0-8.0-0.61,5f708f5f0d32bb66960d4473,650c16f0f2faf8d7a0d14c09,651c1d75e3f827a6d91a6219,null,null,"<p style=""font-size: 60px; font-family: BACS"">hTtBbmtKP</p>",,,,,,,,,,
html-keyboard-response,70,141443,0.0-8.0-0.62,5f708f5f0d32bb66960d4473,650c16f0f2faf8d7a0d14c09,651c1d75e3f827a6d91a6219,null,null,"<p style=""font-size: 60px; font-family: BACS"">mARMhEct</p>",,,,,,,,,,
html-keyboard-response,71,142453,0.0-8.0-0.63,5f708f5f0d32bb66960d4473,650c16f0f2faf8d7a0d14c09,651c1d75e3f827a6d91a6219,null,null,"<p style=""font-size: 60px; font-family: BACS"">DhMtYTOM</p>",,,,,,,,,,
html-keyboard-response,72,143467,0.0-8.0-0.64,5f708f5f0d32bb66960d4473,650c16f0f2faf8d7a0d14c09,651c1d75e3f827a6d91a6219,null,null,"<p style=""font-size: 60px; font-family: BACS"">PdDTPMd</p>",,,,,,,,,,
html-keyboard-response,73,144478,0.0-8.0-0.65,5f708f5f0d32bb66960d4473,650c16f0f2faf8d7a0d14c09,651c1d75e3f827a6d91a6219,null,null,"<p style=""font-size: 60px; font-family: BACS"">lRckAmtKP</p>",,,,,,,,,,
html-keyboard-response,74,145481,0.0-8.0-0.66,5f708f5f0d32bb66960d4473,650c16f0f2faf8d7a0d14c09,651c1d75e3f827a6d91a6219,null,null,"<p style=""font-size: 60px; font-family: BACS"">PdDTYTOM</p>",,,,,,,,,,
html-keyboard-response,75,146492,0.0-8.0-0.67,5f708f5f0d32bb66960d4473,650c16f0f2faf8d7a0d14c09,651c1d75e3f827a6d91a6219,null,null,"<p style=""font-size: 60px; font-family: BACS"">muYNkuvb</p>",,,,,,,,,,
html-keyboard-response,76,147506,0.0-8.0-0.68,5f708f5f0d32bb66960d4473,650c16f0f2faf8d7a0d14c09,651c1d75e3f827a6d91a6219,null,null,"<p style=""font-size: 60px; font-family: BACS"">rkYLAOUl</p>",,,,,,,,,,
html-keyboard-response,77,148508,0.0-8.0-0.69,5f708f5f0d32bb66960d4473,650c16f0f2faf8d7a0d14c09,651c1d75e3f827a6d91a6219,null,null,"<p style=""font-size: 60px; font-family: BACS"">KBKBEYcM</p>",,,,,,,,,,
html-keyboard-response,78,149514,0.0-8.0-0.70,5f708f5f0d32bb66960d4473,650c16f0f2faf8d7a0d14c09,651c1d75e3f827a6d91a6219,null,null,"<p style=""font-size: 60px; font-family: BACS"">ZJLmrArv</p>",,,,,,,,,,
html-keyboard-response,79,150522,0.0-8.0-0.71,5f708f5f0d32bb66960d4473,650c16f0f2faf8d7a0d14c09,651c1d75e3f827a6d91a6219,null,null,"<p style=""font-size: 60px; font-family: BACS"">rvUbkdrO</p>",,,,,,,,,,
html-keyboard-response,80,151528,0.0-8.0-0.72,5f708f5f0d32bb66960d4473,650c16f0f2faf8d7a0d14c09,651c1d75e3f827a6d91a6219,null,null,"<p style=""font-size: 60px; font-family: BACS"">ckLALAOUl</p>",,,,,,,,,,
html-keyboard-response,81,152544,0.0-8.0-0.73,5f708f5f0d32bb66960d4473,650c16f0f2faf8d7a0d14c09,651c1d75e3f827a6d91a6219,null,null,"<p style=""font-size: 60px; font-family: BACS"">JdGmGrbk</p>",,,,,,,,,,
html-keyboard-response,82,153553,0.0-8.0-0.74,5f708f5f0d32bb66960d4473,650c16f0f2faf8d7a0d14c09,651c1d75e3f827a6d91a6219,null,null,"<p style=""font-size: 60px; font-family: BACS"">hTtBbYcM</p>",,,,,,,,,,
html-keyboard-response,83,154566,0.0-8.0-0.75,5f708f5f0d32bb66960d4473,650c16f0f2faf8d7a0d14c09,651c1d75e3f827a6d91a6219,null,null,"<p style=""font-size: 60px; font-family: BACS"">JdGmArv</p>",,,,,,,,,,
html-keyboard-response,84,155578,0.0-8.0-0.76,5f708f5f0d32bb66960d4473,650c16f0f2faf8d7a0d14c09,651c1d75e3f827a6d91a6219,null,null,"<p style=""font-size: 60px; font-family: BACS"">GumLlAOUl</p>",,,,,,,,,,
html-keyboard-response,85,156582,0.0-8.0-0.77,5f708f5f0d32bb66960d4473,650c16f0f2faf8d7a0d14c09,651c1d75e3f827a6d91a6219,null,null,"<p style=""font-size: 60px; font-family: BACS"">hlbtbPMd</p>",,,,,,,,,,
html-keyboard-response,86,157586,0.0-8.0-0.78,5f708f5f0d32bb66960d4473,650c16f0f2faf8d7a0d14c09,651c1d75e3f827a6d91a6219,null,null,"<p style=""font-size: 60px; font-family: BACS"">vQdOAOUl</p>",,,,,,,,,,
html-keyboard-response,87,158600,0.0-8.0-0.79,5f708f5f0d32bb66960d4473,650c16f0f2faf8d7a0d14c09,651c1d75e3f827a6d91a6219,null,null,"<p style=""font-size: 60px; font-family: BACS"">DhMtYcM</p>",,,,,,,,,,
html-keyboard-response,88,164344,0.0-9.0,5f708f5f0d32bb66960d4473,650c16f0f2faf8d7a0d14c09,651c1d75e3f827a6d91a6219,5744, ,"<p>Great, you've seen the first block of words. You may now take a short break.</p>
      <p>Press the spacebar when you're ready to continue.</p>",,,,,,,,,,
html-keyboard-response,89,165348,0.0-10.0-0.0,5f708f5f0d32bb66960d4473,650c16f0f2faf8d7a0d14c09,651c1d75e3f827a6d91a6219,null,null,"<p style=""font-size: 60px; font-family: BACS"">lRckAYcM</p>",,,,,,,,,,
html-keyboard-response,90,166351,0.0-10.0-0.1,5f708f5f0d32bb66960d4473,650c16f0f2faf8d7a0d14c09,651c1d75e3f827a6d91a6219,null,null,"<p style=""font-size: 60px; font-family: BACS"">LuaUkuvb</p>",,,,,,,,,,
html-keyboard-response,91,167352,0.0-10.0-0.2,5f708f5f0d32bb66960d4473,650c16f0f2faf8d7a0d14c09,651c1d75e3f827a6d91a6219,null,null,"<p style=""font-size: 60px; font-family: BACS"">lRckAmtKP</p>",,,,,,,,,,
html-keyboard-response,92,168367,0.0-10.0-0.3,5f708f5f0d32bb66960d4473,650c16f0f2faf8d7a0d14c09,651c1d75e3f827a6d91a6219,null,null,"<p style=""font-size: 60px; font-family: BACS"">ckLALArv</p>",,,,,,,,,,
html-keyboard-response,93,169378,0.0-10.0-0.4,5f708f5f0d32bb66960d4473,650c16f0f2faf8d7a0d14c09,651c1d75e3f827a6d91a6219,null,null,"<p style=""font-size: 60px; font-family: BACS"">DOchlYTOM</p>",,,,,,,,,,
html-keyboard-response,94,170386,0.0-10.0-0.5,5f708f5f0d32bb66960d4473,650c16f0f2faf8d7a0d14c09,651c1d75e3f827a6d91a6219,null,null,"<p style=""font-size: 60px; font-family: BACS"">rkYLkdrO</p>",,,,,,,,,,
html-keyboard-response,95,171402,0.0-10.0-0.6,5f708f5f0d32bb66960d4473,650c16f0f2faf8d7a0d14c09,651c1d75e3f827a6d91a6219,null,null,"<p style=""font-size: 60px; font-family: BACS"">mhtchEct</p>",,,,,,,,,,
html-keyboard-response,96,172410,0.0-10.0-0.7,5f708f5f0d32bb66960d4473,650c16f0f2faf8d7a0d14c09,651c1d75e3f827a6d91a6219,null,null,"<p style=""font-size: 60px; font-family: BACS"">hlbtbYcM</p>",,,,,,,,,,
html-keyboard-response,97,173420,0.0-10.0-0.8,5f708f5f0d32bb66960d4473,650c16f0f2faf8d7a0d14c09,651c1d75e3f827a6d91a6219,null,null,"<p style=""font-size: 60px; font-family: BACS"">ZJLmrArv</p>",,,,,,,,,,
html-keyboard-response,98,174426,0.0-10.0-0.9,5f708f5f0d32bb66960d4473,650c16f0f2faf8d7a0d14c09,651c1d75e3f827a6d91a6219,null,null,"<p style=""font-size: 60px; font-family: BACS"">GumLlAOUl</p>",,,,,,,,,,
html-keyboard-response,99,175429,0.0-10.0-0.10,5f708f5f0d32bb66960d4473,650c16f0f2faf8d7a0d14c09,651c1d75e3f827a6d91a6219,null,null,"<p style=""font-size: 60px; font-family: BACS"">PdDTYcM</p>",,,,,,,,,,
html-keyboard-response,100,176437,0.0-10.0-0.11,5f708f5f0d32bb66960d4473,650c16f0f2faf8d7a0d14c09,651c1d75e3f827a6d91a6219,null,null,"<p style=""font-size: 60px; font-family: BACS"">JdGmkdrO</p>",,,,,,,,,,
html-keyboard-response,101,177442,0.0-10.0-0.12,5f708f5f0d32bb66960d4473,650c16f0f2faf8d7a0d14c09,651c1d75e3f827a6d91a6219,null,null,"<p style=""font-size: 60px; font-family: BACS"">rkYLGrbk</p>",,,,,,,,,,
html-keyboard-response,102,178447,0.0-10.0-0.13,5f708f5f0d32bb66960d4473,650c16f0f2faf8d7a0d14c09,651c1d75e3f827a6d91a6219,null,null,"<p style=""font-size: 60px; font-family: BACS"">vQdOArv</p>",,,,,,,,,,
html-keyboard-response,103,179461,0.0-10.0-0.14,5f708f5f0d32bb66960d4473,650c16f0f2faf8d7a0d14c09,651c1d75e3f827a6d91a6219,null,null,"<p style=""font-size: 60px; font-family: BACS"">KBKBEPMd</p>",,,,,,,,,,
html-keyboard-response,104,180472,0.0-10.0-0.15,5f708f5f0d32bb66960d4473,650c16f0f2faf8d7a0d14c09,651c1d75e3f827a6d91a6219,null,null,"<p style=""font-size: 60px; font-family: BACS"">muYNArv</p>",,,,,,,,,,
html-keyboard-response,105,181483,0.0-10.0-0.16,5f708f5f0d32bb66960d4473,650c16f0f2faf8d7a0d14c09,651c1d75e3f827a6d91a6219,null,null,"<p style=""font-size: 60px; font-family: BACS"">GumLlGrbk</p>",,,,,,,,,,
html-keyboard-response,106,182497,0.0-10.0-0.17,5f708f5f0d32bb66960d4473,650c16f0f2faf8d7a0d14c09,651c1d75e3f827a6d91a6219,null,null,"<p style=""font-size: 60px; font-family: BACS"">hTtBbPMd</p>",,,,,,,,,,
html-keyboard-response,107,183512,0.0-10.0-0.18,5f708f5f0d32bb66960d4473,650c16f0f2faf8d7a0d14c09,651c1d75e3f827a6d91a6219,null,null,"<p style=""font-size: 60px; font-family: BACS"">mhtcYTOM</p>",,,,,,,,,,
html-keyboard-response,108,184520,0.0-10.0-0.19,5f708f5f0d32bb66960d4473,650c16f0f2faf8d7a0d14c09,651c1d75e3f827a6d91a6219,null,null,"<p style=""font-size: 60px; font-family: BACS"">DhMtYcM</p>",,,,,,,,,,
html-keyboard-response,109,185521,0.0-10.0-0.20,5f708f5f0d32bb66960d4473,650c16f0f2faf8d7a0d14c09,651c1d75e3f827a6d91a6219,null,null,"<p style=""font-size: 60px; font-family: BACS"">TPCbmtKP</p>",,,,,,,,,,
html-keyboard-response,110,186528,0.0-10.0-0.21,5f708f5f0d32bb66960d4473,650c16f0f2faf8d7a0d14c09,651c1d75e3f827a6d91a6219,null,null,"<p style=""font-size: 60px; font-family: BACS"">GumLlArv</p>",,,,,,,,,,
html-keyboard-response,111,187532,0.0-10.0-0.22,5f708f5f0d32bb66960d4473,650c16f0f2faf8d7a0d14c09,651c1d75e3f827a6d91a6219,null,null,"<p style=""font-size: 60px; font-family: BACS"">PdDThEct</p>",,,,,,,,,,
html-keyboard-response,112,188543,0.0-10.0-0.23,5f708f5f0d32bb66960d4473,650c16f0f2faf8d7a0d14c09,651c1d75e3f827a6d91a6219,null,null,"<p style=""font-size: 60px; font-family: BACS"">ZJLmrGrbk</p>",,,,,,,,,,
html-keyboard-response,113,189550,0.0-10.0-0.24,5f708f5f0d32bb66960d4473,650c16f0f2faf8d7a0d14c09,651c1d75e3f827a6d91a6219,null,null,"<p style=""font-size: 60px; font-family: BACS"">rkYLAOUl</p>",,,,,,,,,,
html-keyboard-response,114,190554,0.0-10.0-0.25,5f708f5f0d32bb66960d4473,650c16f0f2faf8d7a0d14c09,651c1d75e3f827a6d91a6219,null,null,"<p style=""font-size: 60px; font-family: BACS"">hlbtbYTOM</p>",,,,,,,,,,
html-keyboard-response,115,191560,0.0-10.0-0.26,5f708f5f0d32bb66960d4473,650c16f0f2faf8d7a0d14c09,651c1d75e3f827a6d91a6219,null,null,"<p style=""font-size: 60px; font-family: BACS"">LuaUkdrO</p>",,,,,,,,,,
html-keyboard-response,116,192566,0.0-10.0-0.27,5f708f5f0d32bb66960d4473,650c16f0f2faf8d7a0d14c09,651c1d75e3f827a6d91a6219,null,null,"<p style=""font-size: 60px; font-family: BACS"">vQdOAOUl</p>",,,,,,,,,,
html-keyboard-response,117,193578,0.0-10.0-0.28,5f708f5f0d32bb66960d4473,650c16f0f2faf8d7a0d14c09,651c1d75e3f827a6d91a6219,null,null,"<p style=""font-size: 60px; font-family: BACS"">KBKBEhEct</p>",,,,,,,,,,
html-keyboard-response,118,194579,0.0-10.0-0.29,5f708f5f0d32bb66960d4473,650c16f0f2faf8d7a0d14c09,651c1d75e3f827a6d91a6219,null,null,"<p style=""font-size: 60px; font-family: BACS"">muYNkdrO</p>",,,,,,,,,,
html-keyboard-response,119,195589,0.0-10.0-0.30,5f708f5f0d32bb66960d4473,650c16f0f2faf8d7a0d14c09,651c1d75e3f827a6d91a6219,null,null,"<p style=""font-size: 60px; font-family: BACS"">hTtBbYcM</p>",,,,,,,,,,
html-keyboard-response,120,196599,0.0-10.0-0.31,5f708f5f0d32bb66960d4473,650c16f0f2faf8d7a0d14c09,651c1d75e3f827a6d91a6219,null,null,"<p style=""font-size: 60px; font-family: BACS"">LuaUGrbk</p>",,,,,,,,,,
html-keyboard-response,121,197610,0.0-10.0-0.32,5f708f5f0d32bb66960d4473,650c16f0f2faf8d7a0d14c09,651c1d75e3f827a6d91a6219,null,null,"<p style=""font-size: 60px; font-family: BACS"">muYNAOUl</p>",,,,,,,,,,
html-keyboard-response,122,198622,0.0-10.0-0.33,5f708f5f0d32bb66960d4473,650c16f0f2faf8d7a0d14c09,651c1d75e3f827a6d91a6219,null,null,"<p style=""font-size: 60px; font-family: BACS"">rvUbArv</p>",,,,,,,,,,
html-keyboard-response,123,199637,0.0-10.0-0.34,5f708f5f0d32bb66960d4473,650c16f0f2faf8d7a0d14c09,651c1d75e3f827a6d91a6219,null,null,"<p style=""font-size: 60px; font-family: BACS"">mARMmtKP</p>",,,,,,,,,,
html-keyboard-response,124,200649,0.0-10.0-0.35,5f708f5f0d32bb66960d4473,650c16f0f2faf8d7a0d14c09,651c1d75e3f827a6d91a6219,null,null,"<p style=""font-size: 60px; font-family: BACS"">KBKBEYcM</p>",,,,,,,,,,
html-keyboard-response,125,201653,0.0-10.0-0.36,5f708f5f0d32bb66960d4473,650c16f0f2faf8d7a0d14c09,651c1d75e3f827a6d91a6219,null,null,"<p style=""font-size: 60px; font-family: BACS"">DhMtPMd</p>",,,,,,,,,,
html-keyboard-response,126,202667,0.0-10.0-0.37,5f708f5f0d32bb66960d4473,650c16f0f2faf8d7a0d14c09,651c1d75e3f827a6d91a6219,null,null,"<p style=""font-size: 60px; font-family: BACS"">mhtcmtKP</p>",,,,,,,,,,
html-keyboard-response,127,203682,0.0-10.0-0.38,5f708f5f0d32bb66960d4473,650c16f0f2faf8d7a0d14c09,651c1d75e3f827a6d91a6219,null,null,"<p style=""font-size: 60px; font-family: BACS"">DhMtYTOM</p>",,,,,,,,,,
html-keyboard-response,128,204694,0.0-10.0-0.39,5f708f5f0d32bb66960d4473,650c16f0f2faf8d7a0d14c09,651c1d75e3f827a6d91a6219,null,null,"<p style=""font-size: 60px; font-family: BACS"">vQdOkuvb</p>",,,,,,,,,,
html-keyboard-response,129,205701,0.0-10.0-0.40,5f708f5f0d32bb66960d4473,650c16f0f2faf8d7a0d14c09,651c1d75e3f827a6d91a6219,null,null,"<p style=""font-size: 60px; font-family: BACS"">hlbtbmtKP</p>",,,,,,,,,,
html-keyboard-response,130,206709,0.0-10.0-0.41,5f708f5f0d32bb66960d4473,650c16f0f2faf8d7a0d14c09,651c1d75e3f827a6d91a6219,null,null,"<p style=""font-size: 60px; font-family: BACS"">DOchlhEct</p>",,,,,,,,,,
html-keyboard-response,131,207724,0.0-10.0-0.42,5f708f5f0d32bb66960d4473,650c16f0f2faf8d7a0d14c09,651c1d75e3f827a6d91a6219,null,null,"<p style=""font-size: 60px; font-family: BACS"">ZJLmrkuvb</p>",,,,,,,,,,
html-keyboard-response,132,208728,0.0-10.0-0.43,5f708f5f0d32bb66960d4473,650c16f0f2faf8d7a0d14c09,651c1d75e3f827a6d91a6219,null,null,"<p style=""font-size: 60px; font-family: BACS"">TPCbPMd</p>",,,,,,,,,,
html-keyboard-response,133,209732,0.0-10.0-0.44,5f708f5f0d32bb66960d4473,650c16f0f2faf8d7a0d14c09,651c1d75e3f827a6d91a6219,null,null,"<p style=""font-size: 60px; font-family: BACS"">rvUbAOUl</p>",,,,,,,,,,
html-keyboard-response,134,210735,0.0-10.0-0.45,5f708f5f0d32bb66960d4473,650c16f0f2faf8d7a0d14c09,651c1d75e3f827a6d91a6219,null,null,"<p style=""font-size: 60px; font-family: BACS"">JdGmGrbk</p>",,,,,,,,,,
html-keyboard-response,135,211744,0.0-10.0-0.46,5f708f5f0d32bb66960d4473,650c16f0f2faf8d7a0d14c09,651c1d75e3f827a6d91a6219,null,null,"<p style=""font-size: 60px; font-family: BACS"">rvUbkdrO</p>",,,,,,,,,,
html-keyboard-response,136,212747,0.0-10.0-0.47,5f708f5f0d32bb66960d4473,650c16f0f2faf8d7a0d14c09,651c1d75e3f827a6d91a6219,null,null,"<p style=""font-size: 60px; font-family: BACS"">DOchlYcM</p>",,,,,,,,,,
html-keyboard-response,137,213751,0.0-10.0-0.48,5f708f5f0d32bb66960d4473,650c16f0f2faf8d7a0d14c09,651c1d75e3f827a6d91a6219,null,null,"<p style=""font-size: 60px; font-family: BACS"">PdDTYTOM</p>",,,,,,,,,,
html-keyboard-response,138,214763,0.0-10.0-0.49,5f708f5f0d32bb66960d4473,650c16f0f2faf8d7a0d14c09,651c1d75e3f827a6d91a6219,null,null,"<p style=""font-size: 60px; font-family: BACS"">mARMhEct</p>",,,,,,,,,,
html-keyboard-response,139,215771,0.0-10.0-0.50,5f708f5f0d32bb66960d4473,650c16f0f2faf8d7a0d14c09,651c1d75e3f827a6d91a6219,null,null,"<p style=""font-size: 60px; font-family: BACS"">JdGmkuvb</p>",,,,,,,,,,
html-keyboard-response,140,216780,0.0-10.0-0.51,5f708f5f0d32bb66960d4473,650c16f0f2faf8d7a0d14c09,651c1d75e3f827a6d91a6219,null,null,"<p style=""font-size: 60px; font-family: BACS"">mhtcYcM</p>",,,,,,,,,,
html-keyboard-response,141,217796,0.0-10.0-0.52,5f708f5f0d32bb66960d4473,650c16f0f2faf8d7a0d14c09,651c1d75e3f827a6d91a6219,null,null,"<p style=""font-size: 60px; font-family: BACS"">GumLlkdrO</p>",,,,,,,,,,
html-keyboard-response,142,218806,0.0-10.0-0.53,5f708f5f0d32bb66960d4473,650c16f0f2faf8d7a0d14c09,651c1d75e3f827a6d91a6219,null,null,"<p style=""font-size: 60px; font-family: BACS"">bvuZAOUl</p>",,,,,,,,,,
html-keyboard-response,143,219821,0.0-10.0-0.54,5f708f5f0d32bb66960d4473,650c16f0f2faf8d7a0d14c09,651c1d75e3f827a6d91a6219,null,null,"<p style=""font-size: 60px; font-family: BACS"">vQdOGrbk</p>",,,,,,,,,,
html-keyboard-response,144,220835,0.0-10.0-0.55,5f708f5f0d32bb66960d4473,650c16f0f2faf8d7a0d14c09,651c1d75e3f827a6d91a6219,null,null,"<p style=""font-size: 60px; font-family: BACS"">JdGmArv</p>",,,,,,,,,,
html-keyboard-response,145,221848,0.0-10.0-0.56,5f708f5f0d32bb66960d4473,650c16f0f2faf8d7a0d14c09,651c1d75e3f827a6d91a6219,null,null,"<p style=""font-size: 60px; font-family: BACS"">muYNkuvb</p>",,,,,,,,,,
html-keyboard-response,146,222854,0.0-10.0-0.57,5f708f5f0d32bb66960d4473,650c16f0f2faf8d7a0d14c09,651c1d75e3f827a6d91a6219,null,null,"<p style=""font-size: 60px; font-family: BACS"">DOchlmtKP</p>",,,,,,,,,,
html-keyboard-response,147,223866,0.0-10.0-0.58,5f708f5f0d32bb66960d4473,650c16f0f2faf8d7a0d14c09,651c1d75e3f827a6d91a6219,null,null,"<p style=""font-size: 60px; font-family: BACS"">hTtBbhEct</p>",,,,,,,,,,
html-keyboard-response,148,224869,0.0-10.0-0.59,5f708f5f0d32bb66960d4473,650c16f0f2faf8d7a0d14c09,651c1d75e3f827a6d91a6219,null,null,"<p style=""font-size: 60px; font-family: BACS"">hlbtbPMd</p>",,,,,,,,,,
html-keyboard-response,149,225881,0.0-10.0-0.60,5f708f5f0d32bb66960d4473,650c16f0f2faf8d7a0d14c09,651c1d75e3f827a6d91a6219,null,null,"<p style=""font-size: 60px; font-family: BACS"">LuaUAOUl</p>",,,,,,,,,,
html-keyboard-response,150,226891,0.0-10.0-0.61,5f708f5f0d32bb66960d4473,650c16f0f2faf8d7a0d14c09,651c1d75e3f827a6d91a6219,null,null,"<p style=""font-size: 60px; font-family: BACS"">rvUbGrbk</p>",,,,,,,,,,
html-keyboard-response,151,227901,0.0-10.0-0.62,5f708f5f0d32bb66960d4473,650c16f0f2faf8d7a0d14c09,651c1d75e3f827a6d91a6219,null,null,"<p style=""font-size: 60px; font-family: BACS"">TPCbhEct</p>",,,,,,,,,,
html-keyboard-response,152,228901,0.0-10.0-0.63,5f708f5f0d32bb66960d4473,650c16f0f2faf8d7a0d14c09,651c1d75e3f827a6d91a6219,null,null,"<p style=""font-size: 60px; font-family: BACS"">ZJLmrkdrO</p>",,,,,,,,,,
html-keyboard-response,153,229912,0.0-10.0-0.64,5f708f5f0d32bb66960d4473,650c16f0f2faf8d7a0d14c09,651c1d75e3f827a6d91a6219,null,null,"<p style=""font-size: 60px; font-family: BACS"">lRckAYTOM</p>",,,,,,,,,,
html-keyboard-response,154,230922,0.0-10.0-0.65,5f708f5f0d32bb66960d4473,650c16f0f2faf8d7a0d14c09,651c1d75e3f827a6d91a6219,null,null,"<p style=""font-size: 60px; font-family: BACS"">mARMPMd</p>",,,,,,,,,,
html-keyboard-response,155,231928,0.0-10.0-0.66,5f708f5f0d32bb66960d4473,650c16f0f2faf8d7a0d14c09,651c1d75e3f827a6d91a6219,null,null,"<p style=""font-size: 60px; font-family: BACS"">rkYLkuvb</p>",,,,,,,,,,
html-keyboard-response,156,232935,0.0-10.0-0.67,5f708f5f0d32bb66960d4473,650c16f0f2faf8d7a0d14c09,651c1d75e3f827a6d91a6219,null,null,"<p style=""font-size: 60px; font-family: BACS"">TPCbYTOM</p>",,,,,,,,,,
html-keyboard-response,157,233946,0.0-10.0-0.68,5f708f5f0d32bb66960d4473,650c16f0f2faf8d7a0d14c09,651c1d75e3f827a6d91a6219,null,null,"<p style=""font-size: 60px; font-family: BACS"">KBKBEmtKP</p>",,,,,,,,,,
html-keyboard-response,158,234971,0.0-10.0-0.69,5f708f5f0d32bb66960d4473,650c16f0f2faf8d7a0d14c09,651c1d75e3f827a6d91a6219,null,null,"<p style=""font-size: 60px; font-family: BACS"">DhMthEct</p>",,,,,,,,,,
html-keyboard-response,159,235998,0.0-10.0-0.70,5f708f5f0d32bb66960d4473,650c16f0f2faf8d7a0d14c09,651c1d75e3f827a6d91a6219,null,null,"<p style=""font-size: 60px; font-family: BACS"">ckLALkuvb</p>",,,,,,,,,,
html-keyboard-response,160,237001,0.0-10.0-0.71,5f708f5f0d32bb66960d4473,650c16f0f2faf8d7a0d14c09,651c1d75e3f827a6d91a6219,null,null,"<p style=""font-size: 60px; font-family: BACS"">hTtBbmtKP</p>",,,,,,,,,,
html-keyboard-response,161,238003,0.0-10.0-0.72,5f708f5f0d32bb66960d4473,650c16f0f2faf8d7a0d14c09,651c1d75e3f827a6d91a6219,null,null,"<p style=""font-size: 60px; font-family: BACS"">bvuZGrbk</p>",,,,,,,,,,
html-keyboard-response,162,239014,0.0-10.0-0.73,5f708f5f0d32bb66960d4473,650c16f0f2faf8d7a0d14c09,651c1d75e3f827a6d91a6219,null,null,"<p style=""font-size: 60px; font-family: BACS"">ckLALAOUl</p>",,,,,,,,,,
html-keyboard-response,163,240027,0.0-10.0-0.74,5f708f5f0d32bb66960d4473,650c16f0f2faf8d7a0d14c09,651c1d75e3f827a6d91a6219,null,null,"<p style=""font-size: 60px; font-family: BACS"">lRckAPMd</p>",,,,,,,,,,
html-keyboard-response,164,241031,0.0-10.0-0.75,5f708f5f0d32bb66960d4473,650c16f0f2faf8d7a0d14c09,651c1d75e3f827a6d91a6219,null,null,"<p style=""font-size: 60px; font-family: BACS"">ckLALkdrO</p>",,,,,,,,,,
html-keyboard-response,165,242044,0.0-10.0-0.76,5f708f5f0d32bb66960d4473,650c16f0f2faf8d7a0d14c09,651c1d75e3f827a6d91a6219,null,null,"<p style=""font-size: 60px; font-family: BACS"">PdDTPMd</p>",,,,,,,,,,
html-keyboard-response,166,243048,0.0-10.0-0.77,5f708f5f0d32bb66960d4473,650c16f0f2faf8d7a0d14c09,651c1d75e3f827a6d91a6219,null,null,"<p style=""font-size: 60px; font-family: BACS"">bvuZkuvb</p>",,,,,,,,,,
html-keyboard-response,167,244061,0.0-10.0-0.78,5f708f5f0d32bb66960d4473,650c16f0f2faf8d7a0d14c09,651c1d75e3f827a6d91a6219,null,null,"<p style=""font-size: 60px; font-family: BACS"">mARMYTOM</p>",,,,,,,,,,
html-keyboard-response,168,245070,0.0-10.0-0.79,5f708f5f0d32bb66960d4473,650c16f0f2faf8d7a0d14c09,651c1d75e3f827a6d91a6219,null,null,"<p style=""font-size: 60px; font-family: BACS"">bvuZArv</p>",,,,,,,,,,
html-keyboard-response,169,254232,0.0-11.0,5f708f5f0d32bb66960d4473,650c16f0f2faf8d7a0d14c09,651c1d75e3f827a6d91a6219,9162, ,"<p>Great, you've seen the second block of words. You may now take a short break.</p>
      <p>Press the spacebar when you're ready to continue.</p>",,,,,,,,,,
html-keyboard-response,170,255234,0.0-12.0-0.0,5f708f5f0d32bb66960d4473,650c16f0f2faf8d7a0d14c09,651c1d75e3f827a6d91a6219,null,null,"<p style=""font-size: 60px; font-family: BACS"">ckLALAOUl</p>",,,,,,,,,,
html-keyboard-response,171,256250,0.0-12.0-0.1,5f708f5f0d32bb66960d4473,650c16f0f2faf8d7a0d14c09,651c1d75e3f827a6d91a6219,null,null,"<p style=""font-size: 60px; font-family: BACS"">muYNArv</p>",,,,,,,,,,
html-keyboard-response,172,257266,0.0-12.0-0.2,5f708f5f0d32bb66960d4473,650c16f0f2faf8d7a0d14c09,651c1d75e3f827a6d91a6219,null,null,"<p style=""font-size: 60px; font-family: BACS"">KBKBEPMd</p>",,,,,,,,,,
html-keyboard-response,173,258278,0.0-12.0-0.3,5f708f5f0d32bb66960d4473,650c16f0f2faf8d7a0d14c09,651c1d75e3f827a6d91a6219,null,null,"<p style=""font-size: 60px; font-family: BACS"">PdDThEct</p>",,,,,,,,,,
html-keyboard-response,174,259286,0.0-12.0-0.4,5f708f5f0d32bb66960d4473,650c16f0f2faf8d7a0d14c09,651c1d75e3f827a6d91a6219,null,null,"<p style=""font-size: 60px; font-family: BACS"">JdGmArv</p>",,,,,,,,,,
html-keyboard-response,175,260287,0.0-12.0-0.5,5f708f5f0d32bb66960d4473,650c16f0f2faf8d7a0d14c09,651c1d75e3f827a6d91a6219,null,null,"<p style=""font-size: 60px; font-family: BACS"">TPCbYTOM</p>",,,,,,,,,,
html-keyboard-response,176,261302,0.0-12.0-0.6,5f708f5f0d32bb66960d4473,650c16f0f2faf8d7a0d14c09,651c1d75e3f827a6d91a6219,null,null,"<p style=""font-size: 60px; font-family: BACS"">rkYLAOUl</p>",,,,,,,,,,
html-keyboard-response,177,262309,0.0-12.0-0.7,5f708f5f0d32bb66960d4473,650c16f0f2faf8d7a0d14c09,651c1d75e3f827a6d91a6219,null,null,"<p style=""font-size: 60px; font-family: BACS"">vQdOkuvb</p>",,,,,,,,,,
html-keyboard-response,178,263316,0.0-12.0-0.8,5f708f5f0d32bb66960d4473,650c16f0f2faf8d7a0d14c09,651c1d75e3f827a6d91a6219,null,null,"<p style=""font-size: 60px; font-family: BACS"">PdDTPMd</p>",,,,,,,,,,
html-keyboard-response,179,264325,0.0-12.0-0.9,5f708f5f0d32bb66960d4473,650c16f0f2faf8d7a0d14c09,651c1d75e3f827a6d91a6219,null,null,"<p style=""font-size: 60px; font-family: BACS"">GumLlArv</p>",,,,,,,,,,
html-keyboard-response,180,265335,0.0-12.0-0.10,5f708f5f0d32bb66960d4473,650c16f0f2faf8d7a0d14c09,651c1d75e3f827a6d91a6219,null,null,"<p style=""font-size: 60px; font-family: BACS"">rvUbGrbk</p>",,,,,,,,,,
html-keyboard-response,181,266346,0.0-12.0-0.11,5f708f5f0d32bb66960d4473,650c16f0f2faf8d7a0d14c09,651c1d75e3f827a6d91a6219,null,null,"<p style=""font-size: 60px; font-family: BACS"">KBKBEhEct</p>",,,,,,,,,,
html-keyboard-response,182,267361,0.0-12.0-0.12,5f708f5f0d32bb66960d4473,650c16f0f2faf8d7a0d14c09,651c1d75e3f827a6d91a6219,null,null,"<p style=""font-size: 60px; font-family: BACS"">GumLlAOUl</p>",,,,,,,,,,
html-keyboard-response,183,268370,0.0-12.0-0.13,5f708f5f0d32bb66960d4473,650c16f0f2faf8d7a0d14c09,651c1d75e3f827a6d91a6219,null,null,"<p style=""font-size: 60px; font-family: BACS"">DOchlYTOM</p>",,,,,,,,,,
html-keyboard-response,184,269376,0.0-12.0-0.14,5f708f5f0d32bb66960d4473,650c16f0f2faf8d7a0d14c09,651c1d75e3f827a6d91a6219,null,null,"<p style=""font-size: 60px; font-family: BACS"">muYNAOUl</p>",,,,,,,,,,
html-keyboard-response,185,270388,0.0-12.0-0.15,5f708f5f0d32bb66960d4473,650c16f0f2faf8d7a0d14c09,651c1d75e3f827a6d91a6219,null,null,"<p style=""font-size: 60px; font-family: BACS"">hTtBbhEct</p>",,,,,,,,,,
html-keyboard-response,186,271400,0.0-12.0-0.16,5f708f5f0d32bb66960d4473,650c16f0f2faf8d7a0d14c09,651c1d75e3f827a6d91a6219,null,null,"<p style=""font-size: 60px; font-family: BACS"">lRckAPMd</p>",,,,,,,,,,
html-keyboard-response,187,272403,0.0-12.0-0.17,5f708f5f0d32bb66960d4473,650c16f0f2faf8d7a0d14c09,651c1d75e3f827a6d91a6219,null,null,"<p style=""font-size: 60px; font-family: BACS"">mARMmtKP</p>",,,,,,,,,,
html-keyboard-response,188,273412,0.0-12.0-0.18,5f708f5f0d32bb66960d4473,650c16f0f2faf8d7a0d14c09,651c1d75e3f827a6d91a6219,null,null,"<p style=""font-size: 60px; font-family: BACS"">ckLALkuvb</p>",,,,,,,,,,
html-keyboard-response,189,274422,0.0-12.0-0.19,5f708f5f0d32bb66960d4473,650c16f0f2faf8d7a0d14c09,651c1d75e3f827a6d91a6219,null,null,"<p style=""font-size: 60px; font-family: BACS"">hTtBbPMd</p>",,,,,,,,,,
html-keyboard-response,190,275428,0.0-12.0-0.20,5f708f5f0d32bb66960d4473,650c16f0f2faf8d7a0d14c09,651c1d75e3f827a6d91a6219,null,null,"<p style=""font-size: 60px; font-family: BACS"">DOchlmtKP</p>",,,,,,,,,,
html-keyboard-response,191,276429,0.0-12.0-0.21,5f708f5f0d32bb66960d4473,650c16f0f2faf8d7a0d14c09,651c1d75e3f827a6d91a6219,null,null,"<p style=""font-size: 60px; font-family: BACS"">LuaUAOUl</p>",,,,,,,,,,
html-keyboard-response,192,277439,0.0-12.0-0.22,5f708f5f0d32bb66960d4473,650c16f0f2faf8d7a0d14c09,651c1d75e3f827a6d91a6219,null,null,"<p style=""font-size: 60px; font-family: BACS"">KBKBEmtKP</p>",,,,,,,,,,
html-keyboard-response,193,278441,0.0-12.0-0.23,5f708f5f0d32bb66960d4473,650c16f0f2faf8d7a0d14c09,651c1d75e3f827a6d91a6219,null,null,"<p style=""font-size: 60px; font-family: BACS"">bvuZkuvb</p>",,,,,,,,,,
html-keyboard-response,194,279444,0.0-12.0-0.24,5f708f5f0d32bb66960d4473,650c16f0f2faf8d7a0d14c09,651c1d75e3f827a6d91a6219,null,null,"<p style=""font-size: 60px; font-family: BACS"">PdDTYcM</p>",,,,,,,,,,
html-keyboard-response,195,280456,0.0-12.0-0.25,5f708f5f0d32bb66960d4473,650c16f0f2faf8d7a0d14c09,651c1d75e3f827a6d91a6219,null,null,"<p style=""font-size: 60px; font-family: BACS"">LuaUGrbk</p>",,,,,,,,,,
html-keyboard-response,196,281472,0.0-12.0-0.26,5f708f5f0d32bb66960d4473,650c16f0f2faf8d7a0d14c09,651c1d75e3f827a6d91a6219,null,null,"<p style=""font-size: 60px; font-family: BACS"">vQdOAOUl</p>",,,,,,,,,,
html-keyboard-response,197,282485,0.0-12.0-0.27,5f708f5f0d32bb66960d4473,650c16f0f2faf8d7a0d14c09,651c1d75e3f827a6d91a6219,null,null,"<p style=""font-size: 60px; font-family: BACS"">ZJLmrkdrO</p>",,,,,,,,,,
html-keyboard-response,198,283488,0.0-12.0-0.28,5f708f5f0d32bb66960d4473,650c16f0f2faf8d7a0d14c09,651c1d75e3f827a6d91a6219,null,null,"<p style=""font-size: 60px; font-family: BACS"">lRckAYcM</p>",,,,,,,,,,
html-keyboard-response,199,284501,0.0-12.0-0.29,5f708f5f0d32bb66960d4473,650c16f0f2faf8d7a0d14c09,651c1d75e3f827a6d91a6219,null,null,"<p style=""font-size: 60px; font-family: BACS"">DhMtPMd</p>",,,,,,,,,,
html-keyboard-response,200,285514,0.0-12.0-0.30,5f708f5f0d32bb66960d4473,650c16f0f2faf8d7a0d14c09,651c1d75e3f827a6d91a6219,null,null,"<p style=""font-size: 60px; font-family: BACS"">rvUbkdrO</p>",,,,,,,,,,
html-keyboard-response,201,286529,0.0-12.0-0.31,5f708f5f0d32bb66960d4473,650c16f0f2faf8d7a0d14c09,651c1d75e3f827a6d91a6219,null,null,"<p style=""font-size: 60px; font-family: BACS"">ZJLmrkuvb</p>",,,,,,,,,,
html-keyboard-response,202,287535,0.0-12.0-0.32,5f708f5f0d32bb66960d4473,650c16f0f2faf8d7a0d14c09,651c1d75e3f827a6d91a6219,null,null,"<p style=""font-size: 60px; font-family: BACS"">DOchlhEct</p>",,,,,,,,,,
html-keyboard-response,203,288544,0.0-12.0-0.33,5f708f5f0d32bb66960d4473,650c16f0f2faf8d7a0d14c09,651c1d75e3f827a6d91a6219,null,null,"<p style=""font-size: 60px; font-family: BACS"">hTtBbYcM</p>",,,,,,,,,,
html-keyboard-response,204,289548,0.0-12.0-0.34,5f708f5f0d32bb66960d4473,650c16f0f2faf8d7a0d14c09,651c1d75e3f827a6d91a6219,null,null,"<p style=""font-size: 60px; font-family: BACS"">rkYLkdrO</p>",,,,,,,,,,
html-keyboard-response,205,290555,0.0-12.0-0.35,5f708f5f0d32bb66960d4473,650c16f0f2faf8d7a0d14c09,651c1d75e3f827a6d91a6219,null,null,"<p style=""font-size: 60px; font-family: BACS"">hlbtbYcM</p>",,,,,,,,,,
html-keyboard-response,206,291577,0.0-12.0-0.36,5f708f5f0d32bb66960d4473,650c16f0f2faf8d7a0d14c09,651c1d75e3f827a6d91a6219,null,null,"<p style=""font-size: 60px; font-family: BACS"">rkYLkuvb</p>",,,,,,,,,,
html-keyboard-response,207,292601,0.0-12.0-0.37,5f708f5f0d32bb66960d4473,650c16f0f2faf8d7a0d14c09,651c1d75e3f827a6d91a6219,null,null,"<p style=""font-size: 60px; font-family: BACS"">ZJLmrGrbk</p>",,,,,,,,,,
html-keyboard-response,208,293610,0.0-12.0-0.38,5f708f5f0d32bb66960d4473,650c16f0f2faf8d7a0d14c09,651c1d75e3f827a6d91a6219,null,null,"<p style=""font-size: 60px; font-family: BACS"">ckLALkdrO</p>",,,,,,,,,,
html-keyboard-response,209,294612,0.0-12.0-0.39,5f708f5f0d32bb66960d4473,650c16f0f2faf8d7a0d14c09,651c1d75e3f827a6d91a6219,null,null,"<p style=""font-size: 60px; font-family: BACS"">bvuZArv</p>",,,,,,,,,,
html-keyboard-response,210,295617,0.0-12.0-0.40,5f708f5f0d32bb66960d4473,650c16f0f2faf8d7a0d14c09,651c1d75e3f827a6d91a6219,null,null,"<p style=""font-size: 60px; font-family: BACS"">GumLlkdrO</p>",,,,,,,,,,
html-keyboard-response,211,296632,0.0-12.0-0.41,5f708f5f0d32bb66960d4473,650c16f0f2faf8d7a0d14c09,651c1d75e3f827a6d91a6219,null,null,"<p style=""font-size: 60px; font-family: BACS"">mhtchEct</p>",,,,,,,,,,
html-keyboard-response,212,297647,0.0-12.0-0.42,5f708f5f0d32bb66960d4473,650c16f0f2faf8d7a0d14c09,651c1d75e3f827a6d91a6219,null,null,"<p style=""font-size: 60px; font-family: BACS"">JdGmGrbk</p>",,,,,,,,,,
html-keyboard-response,213,298659,0.0-12.0-0.43,5f708f5f0d32bb66960d4473,650c16f0f2faf8d7a0d14c09,651c1d75e3f827a6d91a6219,null,null,"<p style=""font-size: 60px; font-family: BACS"">hlbtbmtKP</p>",,,,,,,,,,
html-keyboard-response,214,299664,0.0-12.0-0.44,5f708f5f0d32bb66960d4473,650c16f0f2faf8d7a0d14c09,651c1d75e3f827a6d91a6219,null,null,"<p style=""font-size: 60px; font-family: BACS"">JdGmkdrO</p>",,,,,,,,,,
html-keyboard-response,215,300667,0.0-12.0-0.45,5f708f5f0d32bb66960d4473,650c16f0f2faf8d7a0d14c09,651c1d75e3f827a6d91a6219,null,null,"<p style=""font-size: 60px; font-family: BACS"">hlbtbPMd</p>",,,,,,,,,,
html-keyboard-response,216,301669,0.0-12.0-0.46,5f708f5f0d32bb66960d4473,650c16f0f2faf8d7a0d14c09,651c1d75e3f827a6d91a6219,null,null,"<p style=""font-size: 60px; font-family: BACS"">DhMtYTOM</p>",,,,,,,,,,
html-keyboard-response,217,302677,0.0-12.0-0.47,5f708f5f0d32bb66960d4473,650c16f0f2faf8d7a0d14c09,651c1d75e3f827a6d91a6219,null,null,"<p style=""font-size: 60px; font-family: BACS"">lRckAmtKP</p>",,,,,,,,,,
html-keyboard-response,218,303689,0.0-12.0-0.48,5f708f5f0d32bb66960d4473,650c16f0f2faf8d7a0d14c09,651c1d75e3f827a6d91a6219,null,null,"<p style=""font-size: 60px; font-family: BACS"">LuaUkdrO</p>",,,,,,,,,,
html-keyboard-response,219,304690,0.0-12.0-0.49,5f708f5f0d32bb66960d4473,650c16f0f2faf8d7a0d14c09,651c1d75e3f827a6d91a6219,null,null,"<p style=""font-size: 60px; font-family: BACS"">bvuZGrbk</p>",,,,,,,,,,
html-keyboard-response,220,305703,0.0-12.0-0.50,5f708f5f0d32bb66960d4473,650c16f0f2faf8d7a0d14c09,651c1d75e3f827a6d91a6219,null,null,"<p style=""font-size: 60px; font-family: BACS"">ZJLmrArv</p>",,,,,,,,,,
html-keyboard-response,221,306704,0.0-12.0-0.51,5f708f5f0d32bb66960d4473,650c16f0f2faf8d7a0d14c09,651c1d75e3f827a6d91a6219,null,null,"<p style=""font-size: 60px; font-family: BACS"">LuaUkuvb</p>",,,,,,,,,,
html-keyboard-response,222,307712,0.0-12.0-0.52,5f708f5f0d32bb66960d4473,650c16f0f2faf8d7a0d14c09,651c1d75e3f827a6d91a6219,null,null,"<p style=""font-size: 60px; font-family: BACS"">rvUbAOUl</p>",,,,,,,,,,
html-keyboard-response,223,308724,0.0-12.0-0.53,5f708f5f0d32bb66960d4473,650c16f0f2faf8d7a0d14c09,651c1d75e3f827a6d91a6219,null,null,"<p style=""font-size: 60px; font-family: BACS"">mARMPMd</p>",,,,,,,,,,
html-keyboard-response,224,309734,0.0-12.0-0.54,5f708f5f0d32bb66960d4473,650c16f0f2faf8d7a0d14c09,651c1d75e3f827a6d91a6219,null,null,"<p style=""font-size: 60px; font-family: BACS"">TPCbhEct</p>",,,,,,,,,,
html-keyboard-response,225,310735,0.0-12.0-0.55,5f708f5f0d32bb66960d4473,650c16f0f2faf8d7a0d14c09,651c1d75e3f827a6d91a6219,null,null,"<p style=""font-size: 60px; font-family: BACS"">mhtcYcM</p>",,,,,,,,,,
html-keyboard-response,226,311747,0.0-12.0-0.56,5f708f5f0d32bb66960d4473,650c16f0f2faf8d7a0d14c09,651c1d75e3f827a6d91a6219,null,null,"<p style=""font-size: 60px; font-family: BACS"">mARMYTOM</p>",,,,,,,,,,
html-keyboard-response,227,312758,0.0-12.0-0.57,5f708f5f0d32bb66960d4473,650c16f0f2faf8d7a0d14c09,651c1d75e3f827a6d91a6219,null,null,"<p style=""font-size: 60px; font-family: BACS"">GumLlGrbk</p>",,,,,,,,,,
html-keyboard-response,228,313767,0.0-12.0-0.58,5f708f5f0d32bb66960d4473,650c16f0f2faf8d7a0d14c09,651c1d75e3f827a6d91a6219,null,null,"<p style=""font-size: 60px; font-family: BACS"">KBKBEYcM</p>",,,,,,,,,,
html-keyboard-response,229,314778,0.0-12.0-0.59,5f708f5f0d32bb66960d4473,650c16f0f2faf8d7a0d14c09,651c1d75e3f827a6d91a6219,null,null,"<p style=""font-size: 60px; font-family: BACS"">TPCbPMd</p>",,,,,,,,,,
html-keyboard-response,230,315790,0.0-12.0-0.60,5f708f5f0d32bb66960d4473,650c16f0f2faf8d7a0d14c09,651c1d75e3f827a6d91a6219,null,null,"<p style=""font-size: 60px; font-family: BACS"">mhtcmtKP</p>",,,,,,,,,,
html-keyboard-response,231,316802,0.0-12.0-0.61,5f708f5f0d32bb66960d4473,650c16f0f2faf8d7a0d14c09,651c1d75e3f827a6d91a6219,null,null,"<p style=""font-size: 60px; font-family: BACS"">rvUbArv</p>",,,,,,,,,,
html-keyboard-response,232,317817,0.0-12.0-0.62,5f708f5f0d32bb66960d4473,650c16f0f2faf8d7a0d14c09,651c1d75e3f827a6d91a6219,null,null,"<p style=""font-size: 60px; font-family: BACS"">lRckAYTOM</p>",,,,,,,,,,
html-keyboard-response,233,318831,0.0-12.0-0.63,5f708f5f0d32bb66960d4473,650c16f0f2faf8d7a0d14c09,651c1d75e3f827a6d91a6219,null,null,"<p style=""font-size: 60px; font-family: BACS"">vQdOGrbk</p>",,,,,,,,,,
html-keyboard-response,234,319843,0.0-12.0-0.64,5f708f5f0d32bb66960d4473,650c16f0f2faf8d7a0d14c09,651c1d75e3f827a6d91a6219,null,null,"<p style=""font-size: 60px; font-family: BACS"">hTtBbmtKP</p>",,,,,,,,,,
html-keyboard-response,235,320844,0.0-12.0-0.65,5f708f5f0d32bb66960d4473,650c16f0f2faf8d7a0d14c09,651c1d75e3f827a6d91a6219,null,null,"<p style=""font-size: 60px; font-family: BACS"">PdDTYTOM</p>",,,,,,,,,,
html-keyboard-response,236,321850,0.0-12.0-0.66,5f708f5f0d32bb66960d4473,650c16f0f2faf8d7a0d14c09,651c1d75e3f827a6d91a6219,null,null,"<p style=""font-size: 60px; font-family: BACS"">DOchlYcM</p>",,,,,,,,,,
html-keyboard-response,237,322864,0.0-12.0-0.67,5f708f5f0d32bb66960d4473,650c16f0f2faf8d7a0d14c09,651c1d75e3f827a6d91a6219,null,null,"<p style=""font-size: 60px; font-family: BACS"">hlbtbYTOM</p>",,,,,,,,,,
html-keyboard-response,238,323871,0.0-12.0-0.68,5f708f5f0d32bb66960d4473,650c16f0f2faf8d7a0d14c09,651c1d75e3f827a6d91a6219,null,null,"<p style=""font-size: 60px; font-family: BACS"">muYNkuvb</p>",,,,,,,,,,
html-keyboard-response,239,324878,0.0-12.0-0.69,5f708f5f0d32bb66960d4473,650c16f0f2faf8d7a0d14c09,651c1d75e3f827a6d91a6219,null,null,"<p style=""font-size: 60px; font-family: BACS"">DhMtYcM</p>",,,,,,,,,,
html-keyboard-response,240,325883,0.0-12.0-0.70,5f708f5f0d32bb66960d4473,650c16f0f2faf8d7a0d14c09,651c1d75e3f827a6d91a6219,null,null,"<p style=""font-size: 60px; font-family: BACS"">bvuZAOUl</p>",,,,,,,,,,
html-keyboard-response,241,326896,0.0-12.0-0.71,5f708f5f0d32bb66960d4473,650c16f0f2faf8d7a0d14c09,651c1d75e3f827a6d91a6219,null,null,"<p style=""font-size: 60px; font-family: BACS"">rkYLGrbk</p>",,,,,,,,,,
html-keyboard-response,242,327912,0.0-12.0-0.72,5f708f5f0d32bb66960d4473,650c16f0f2faf8d7a0d14c09,651c1d75e3f827a6d91a6219,null,null,"<p style=""font-size: 60px; font-family: BACS"">mhtcYTOM</p>",,,,,,,,,,
html-keyboard-response,243,328922,0.0-12.0-0.73,5f708f5f0d32bb66960d4473,650c16f0f2faf8d7a0d14c09,651c1d75e3f827a6d91a6219,null,null,"<p style=""font-size: 60px; font-family: BACS"">TPCbmtKP</p>",,,,,,,,,,
html-keyboard-response,244,329926,0.0-12.0-0.74,5f708f5f0d32bb66960d4473,650c16f0f2faf8d7a0d14c09,651c1d75e3f827a6d91a6219,null,null,"<p style=""font-size: 60px; font-family: BACS"">DhMthEct</p>",,,,,,,,,,
html-keyboard-response,245,330937,0.0-12.0-0.75,5f708f5f0d32bb66960d4473,650c16f0f2faf8d7a0d14c09,651c1d75e3f827a6d91a6219,null,null,"<p style=""font-size: 60px; font-family: BACS"">ckLALArv</p>",,,,,,,,,,
html-keyboard-response,246,331942,0.0-12.0-0.76,5f708f5f0d32bb66960d4473,650c16f0f2faf8d7a0d14c09,651c1d75e3f827a6d91a6219,null,null,"<p style=""font-size: 60px; font-family: BACS"">JdGmkuvb</p>",,,,,,,,,,
html-keyboard-response,247,332944,0.0-12.0-0.77,5f708f5f0d32bb66960d4473,650c16f0f2faf8d7a0d14c09,651c1d75e3f827a6d91a6219,null,null,"<p style=""font-size: 60px; font-family: BACS"">muYNkdrO</p>",,,,,,,,,,
html-keyboard-response,248,333953,0.0-12.0-0.78,5f708f5f0d32bb66960d4473,650c16f0f2faf8d7a0d14c09,651c1d75e3f827a6d91a6219,null,null,"<p style=""font-size: 60px; font-family: BACS"">vQdOArv</p>",,,,,,,,,,
html-keyboard-response,249,334959,0.0-12.0-0.79,5f708f5f0d32bb66960d4473,650c16f0f2faf8d7a0d14c09,651c1d75e3f827a6d91a6219,null,null,"<p style=""font-size: 60px; font-family: BACS"">mARMhEct</p>",,,,,,,,,,
html-keyboard-response,250,354828,0.0-13.0,5f708f5f0d32bb66960d4473,650c16f0f2faf8d7a0d14c09,651c1d75e3f827a6d91a6219,19868, ,"<p>Great, you've seen the third block of words. You may now take a short break.</p>
      <p>Press the spacebar when you're ready to continue.</p>",,,,,,,,,,
html-keyboard-response,251,355843,0.0-14.0-0.0,5f708f5f0d32bb66960d4473,650c16f0f2faf8d7a0d14c09,651c1d75e3f827a6d91a6219,null,null,"<p style=""font-size: 60px; font-family: BACS"">rkYLkuvb</p>",,,,,,,,,,
html-keyboard-response,252,356857,0.0-14.0-0.1,5f708f5f0d32bb66960d4473,650c16f0f2faf8d7a0d14c09,651c1d75e3f827a6d91a6219,null,null,"<p style=""font-size: 60px; font-family: BACS"">lRckAPMd</p>",,,,,,,,,,
html-keyboard-response,253,357870,0.0-14.0-0.2,5f708f5f0d32bb66960d4473,650c16f0f2faf8d7a0d14c09,651c1d75e3f827a6d91a6219,null,null,"<p style=""font-size: 60px; font-family: BACS"">mARMYTOM</p>",,,,,,,,,,
html-keyboard-response,254,358878,0.0-14.0-0.3,5f708f5f0d32bb66960d4473,650c16f0f2faf8d7a0d14c09,651c1d75e3f827a6d91a6219,null,null,"<p style=""font-size: 60px; font-family: BACS"">muYNAOUl</p>",,,,,,,,,,
html-keyboard-response,255,359887,0.0-14.0-0.4,5f708f5f0d32bb66960d4473,650c16f0f2faf8d7a0d14c09,651c1d75e3f827a6d91a6219,null,null,"<p style=""font-size: 60px; font-family: BACS"">LuaUGrbk</p>",,,,,,,,,,
html-keyboard-response,256,360901,0.0-14.0-0.5,5f708f5f0d32bb66960d4473,650c16f0f2faf8d7a0d14c09,651c1d75e3f827a6d91a6219,null,null,"<p style=""font-size: 60px; font-family: BACS"">DOchlmtKP</p>",,,,,,,,,,
html-keyboard-response,257,361914,0.0-14.0-0.6,5f708f5f0d32bb66960d4473,650c16f0f2faf8d7a0d14c09,651c1d75e3f827a6d91a6219,null,null,"<p style=""font-size: 60px; font-family: BACS"">bvuZAOUl</p>",,,,,,,,,,
html-keyboard-response,258,362916,0.0-14.0-0.7,5f708f5f0d32bb66960d4473,650c16f0f2faf8d7a0d14c09,651c1d75e3f827a6d91a6219,null,null,"<p style=""font-size: 60px; font-family: BACS"">rvUbArv</p>",,,,,,,,,,
html-keyboard-response,259,363929,0.0-14.0-0.8,5f708f5f0d32bb66960d4473,650c16f0f2faf8d7a0d14c09,651c1d75e3f827a6d91a6219,null,null,"<p style=""font-size: 60px; font-family: BACS"">TPCbhEct</p>",,,,,,,,,,
html-keyboard-response,260,364935,0.0-14.0-0.9,5f708f5f0d32bb66960d4473,650c16f0f2faf8d7a0d14c09,651c1d75e3f827a6d91a6219,null,null,"<p style=""font-size: 60px; font-family: BACS"">LuaUkdrO</p>",,,,,,,,,,
html-keyboard-response,261,365952,0.0-14.0-0.10,5f708f5f0d32bb66960d4473,650c16f0f2faf8d7a0d14c09,651c1d75e3f827a6d91a6219,null,null,"<p style=""font-size: 60px; font-family: BACS"">bvuZGrbk</p>",,,,,,,,,,
html-keyboard-response,262,366966,0.0-14.0-0.11,5f708f5f0d32bb66960d4473,650c16f0f2faf8d7a0d14c09,651c1d75e3f827a6d91a6219,null,null,"<p style=""font-size: 60px; font-family: BACS"">muYNkuvb</p>",,,,,,,,,,
html-keyboard-response,263,367979,0.0-14.0-0.12,5f708f5f0d32bb66960d4473,650c16f0f2faf8d7a0d14c09,651c1d75e3f827a6d91a6219,null,null,"<p style=""font-size: 60px; font-family: BACS"">mARMhEct</p>",,,,,,,,,,
html-keyboard-response,264,368990,0.0-14.0-0.13,5f708f5f0d32bb66960d4473,650c16f0f2faf8d7a0d14c09,651c1d75e3f827a6d91a6219,null,null,"<p style=""font-size: 60px; font-family: BACS"">ZJLmrArv</p>",,,,,,,,,,
html-keyboard-response,265,370002,0.0-14.0-0.14,5f708f5f0d32bb66960d4473,650c16f0f2faf8d7a0d14c09,651c1d75e3f827a6d91a6219,null,null,"<p style=""font-size: 60px; font-family: BACS"">vQdOAOUl</p>",,,,,,,,,,
html-keyboard-response,266,371008,0.0-14.0-0.15,5f708f5f0d32bb66960d4473,650c16f0f2faf8d7a0d14c09,651c1d75e3f827a6d91a6219,null,null,"<p style=""font-size: 60px; font-family: BACS"">lRckAYcM</p>",,,,,,,,,,
html-keyboard-response,267,372018,0.0-14.0-0.16,5f708f5f0d32bb66960d4473,650c16f0f2faf8d7a0d14c09,651c1d75e3f827a6d91a6219,null,null,"<p style=""font-size: 60px; font-family: BACS"">bvuZArv</p>",,,,,,,,,,
html-keyboard-response,268,373028,0.0-14.0-0.17,5f708f5f0d32bb66960d4473,650c16f0f2faf8d7a0d14c09,651c1d75e3f827a6d91a6219,null,null,"<p style=""font-size: 60px; font-family: BACS"">PdDTYcM</p>",,,,,,,,,,
html-keyboard-response,269,374041,0.0-14.0-0.18,5f708f5f0d32bb66960d4473,650c16f0f2faf8d7a0d14c09,651c1d75e3f827a6d91a6219,null,null,"<p style=""font-size: 60px; font-family: BACS"">ZJLmrkdrO</p>",,,,,,,,,,
html-keyboard-response,270,375058,0.0-14.0-0.19,5f708f5f0d32bb66960d4473,650c16f0f2faf8d7a0d14c09,651c1d75e3f827a6d91a6219,null,null,"<p style=""font-size: 60px; font-family: BACS"">lRckAYTOM</p>",,,,,,,,,,
html-keyboard-response,271,376062,0.0-14.0-0.20,5f708f5f0d32bb66960d4473,650c16f0f2faf8d7a0d14c09,651c1d75e3f827a6d91a6219,null,null,"<p style=""font-size: 60px; font-family: BACS"">ckLALArv</p>",,,,,,,,,,
html-keyboard-response,272,377078,0.0-14.0-0.21,5f708f5f0d32bb66960d4473,650c16f0f2faf8d7a0d14c09,651c1d75e3f827a6d91a6219,null,null,"<p style=""font-size: 60px; font-family: BACS"">ZJLmrGrbk</p>",,,,,,,,,,
html-keyboard-response,273,378080,0.0-14.0-0.22,5f708f5f0d32bb66960d4473,650c16f0f2faf8d7a0d14c09,651c1d75e3f827a6d91a6219,null,null,"<p style=""font-size: 60px; font-family: BACS"">hTtBbmtKP</p>",,,,,,,,,,
html-keyboard-response,274,379091,0.0-14.0-0.23,5f708f5f0d32bb66960d4473,650c16f0f2faf8d7a0d14c09,651c1d75e3f827a6d91a6219,null,null,"<p style=""font-size: 60px; font-family: BACS"">LuaUAOUl</p>",,,,,,,,,,
html-keyboard-response,275,380106,0.0-14.0-0.24,5f708f5f0d32bb66960d4473,650c16f0f2faf8d7a0d14c09,651c1d75e3f827a6d91a6219,null,null,"<p style=""font-size: 60px; font-family: BACS"">muYNkdrO</p>",,,,,,,,,,
html-keyboard-response,276,381108,0.0-14.0-0.25,5f708f5f0d32bb66960d4473,650c16f0f2faf8d7a0d14c09,651c1d75e3f827a6d91a6219,null,null,"<p style=""font-size: 60px; font-family: BACS"">hlbtbYcM</p>",,,,,,,,,,
html-keyboard-response,277,382114,0.0-14.0-0.26,5f708f5f0d32bb66960d4473,650c16f0f2faf8d7a0d14c09,651c1d75e3f827a6d91a6219,null,null,"<p style=""font-size: 60px; font-family: BACS"">rkYLGrbk</p>",,,,,,,,,,
html-keyboard-response,278,383128,0.0-14.0-0.27,5f708f5f0d32bb66960d4473,650c16f0f2faf8d7a0d14c09,651c1d75e3f827a6d91a6219,null,null,"<p style=""font-size: 60px; font-family: BACS"">KBKBEmtKP</p>",,,,,,,,,,
html-keyboard-response,279,384139,0.0-14.0-0.28,5f708f5f0d32bb66960d4473,650c16f0f2faf8d7a0d14c09,651c1d75e3f827a6d91a6219,null,null,"<p style=""font-size: 60px; font-family: BACS"">rkYLkdrO</p>",,,,,,,,,,
html-keyboard-response,280,385150,0.0-14.0-0.29,5f708f5f0d32bb66960d4473,650c16f0f2faf8d7a0d14c09,651c1d75e3f827a6d91a6219,null,null,"<p style=""font-size: 60px; font-family: BACS"">DhMtYcM</p>",,,,,,,,,,
html-keyboard-response,281,386152,0.0-14.0-0.30,5f708f5f0d32bb66960d4473,650c16f0f2faf8d7a0d14c09,651c1d75e3f827a6d91a6219,null,null,"<p style=""font-size: 60px; font-family: BACS"">JdGmArv</p>",,,,,,,,,,
html-keyboard-response,282,387162,0.0-14.0-0.31,5f708f5f0d32bb66960d4473,650c16f0f2faf8d7a0d14c09,651c1d75e3f827a6d91a6219,null,null,"<p style=""font-size: 60px; font-family: BACS"">TPCbPMd</p>",,,,,,,,,,
html-keyboard-response,283,388174,0.0-14.0-0.32,5f708f5f0d32bb66960d4473,650c16f0f2faf8d7a0d14c09,651c1d75e3f827a6d91a6219,null,null,"<p style=""font-size: 60px; font-family: BACS"">mhtchEct</p>",,,,,,,,,,
html-keyboard-response,284,389186,0.0-14.0-0.33,5f708f5f0d32bb66960d4473,650c16f0f2faf8d7a0d14c09,651c1d75e3f827a6d91a6219,null,null,"<p style=""font-size: 60px; font-family: BACS"">hlbtbPMd</p>",,,,,,,,,,
html-keyboard-response,285,390196,0.0-14.0-0.34,5f708f5f0d32bb66960d4473,650c16f0f2faf8d7a0d14c09,651c1d75e3f827a6d91a6219,null,null,"<p style=""font-size: 60px; font-family: BACS"">TPCbYTOM</p>",,,,,,,,,,
html-keyboard-response,286,391211,0.0-14.0-0.35,5f708f5f0d32bb66960d4473,650c16f0f2faf8d7a0d14c09,651c1d75e3f827a6d91a6219,null,null,"<p style=""font-size: 60px; font-family: BACS"">PdDThEct</p>",,,,,,,,,,
html-keyboard-response,287,392221,0.0-14.0-0.36,5f708f5f0d32bb66960d4473,650c16f0f2faf8d7a0d14c09,651c1d75e3f827a6d91a6219,null,null,"<p style=""font-size: 60px; font-family: BACS"">ZJLmrkuvb</p>",,,,,,,,,,
html-keyboard-response,288,393231,0.0-14.0-0.37,5f708f5f0d32bb66960d4473,650c16f0f2faf8d7a0d14c09,651c1d75e3f827a6d91a6219,null,null,"<p style=""font-size: 60px; font-family: BACS"">ckLALAOUl</p>",,,,,,,,,,
html-keyboard-response,289,394247,0.0-14.0-0.38,5f708f5f0d32bb66960d4473,650c16f0f2faf8d7a0d14c09,651c1d75e3f827a6d91a6219,null,null,"<p style=""font-size: 60px; font-family: BACS"">lRckAmtKP</p>",,,,,,,,,,
html-keyboard-response,290,395255,0.0-14.0-0.39,5f708f5f0d32bb66960d4473,650c16f0f2faf8d7a0d14c09,651c1d75e3f827a6d91a6219,null,null,"<p style=""font-size: 60px; font-family: BACS"">hTtBbPMd</p>",,,,,,,,,,
html-keyboard-response,291,396270,0.0-14.0-0.40,5f708f5f0d32bb66960d4473,650c16f0f2faf8d7a0d14c09,651c1d75e3f827a6d91a6219,null,null,"<p style=""font-size: 60px; font-family: BACS"">GumLlArv</p>",,,,,,,,,,
html-keyboard-response,292,397283,0.0-14.0-0.41,5f708f5f0d32bb66960d4473,650c16f0f2faf8d7a0d14c09,651c1d75e3f827a6d91a6219,null,null,"<p style=""font-size: 60px; font-family: BACS"">PdDTYTOM</p>",,,,,,,,,,
html-keyboard-response,293,398284,0.0-14.0-0.42,5f708f5f0d32bb66960d4473,650c16f0f2faf8d7a0d14c09,651c1d75e3f827a6d91a6219,null,null,"<p style=""font-size: 60px; font-family: BACS"">rvUbGrbk</p>",,,,,,,,,,
html-keyboard-response,294,399298,0.0-14.0-0.43,5f708f5f0d32bb66960d4473,650c16f0f2faf8d7a0d14c09,651c1d75e3f827a6d91a6219,null,null,"<p style=""font-size: 60px; font-family: BACS"">JdGmkdrO</p>",,,,,,,,,,
html-keyboard-response,295,400322,0.0-14.0-0.44,5f708f5f0d32bb66960d4473,650c16f0f2faf8d7a0d14c09,651c1d75e3f827a6d91a6219,null,null,"<p style=""font-size: 60px; font-family: BACS"">mhtcYcM</p>",,,,,,,,,,
html-keyboard-response,296,401346,0.0-14.0-0.45,5f708f5f0d32bb66960d4473,650c16f0f2faf8d7a0d14c09,651c1d75e3f827a6d91a6219,null,null,"<p style=""font-size: 60px; font-family: BACS"">rvUbAOUl</p>",,,,,,,,,,
html-keyboard-response,297,402351,0.0-14.0-0.46,5f708f5f0d32bb66960d4473,650c16f0f2faf8d7a0d14c09,651c1d75e3f827a6d91a6219,null,null,"<p style=""font-size: 60px; font-family: BACS"">DhMtPMd</p>",,,,,,,,,,
html-keyboard-response,298,403364,0.0-14.0-0.47,5f708f5f0d32bb66960d4473,650c16f0f2faf8d7a0d14c09,651c1d75e3f827a6d91a6219,null,null,"<p style=""font-size: 60px; font-family: BACS"">vQdOArv</p>",,,,,,,,,,
html-keyboard-response,299,404385,0.0-14.0-0.48,5f708f5f0d32bb66960d4473,650c16f0f2faf8d7a0d14c09,651c1d75e3f827a6d91a6219,null,null,"<p style=""font-size: 60px; font-family: BACS"">TPCbmtKP</p>",,,,,,,,,,
html-keyboard-response,300,405395,0.0-14.0-0.49,5f708f5f0d32bb66960d4473,650c16f0f2faf8d7a0d14c09,651c1d75e3f827a6d91a6219,null,null,"<p style=""font-size: 60px; font-family: BACS"">KBKBEhEct</p>",,,,,,,,,,
html-keyboard-response,301,406403,0.0-14.0-0.50,5f708f5f0d32bb66960d4473,650c16f0f2faf8d7a0d14c09,651c1d75e3f827a6d91a6219,null,null,"<p style=""font-size: 60px; font-family: BACS"">mARMmtKP</p>",,,,,,,,,,
html-keyboard-response,302,407405,0.0-14.0-0.51,5f708f5f0d32bb66960d4473,650c16f0f2faf8d7a0d14c09,651c1d75e3f827a6d91a6219,null,null,"<p style=""font-size: 60px; font-family: BACS"">hTtBbhEct</p>",,,,,,,,,,
html-keyboard-response,303,408418,0.0-14.0-0.52,5f708f5f0d32bb66960d4473,650c16f0f2faf8d7a0d14c09,651c1d75e3f827a6d91a6219,null,null,"<p style=""font-size: 60px; font-family: BACS"">LuaUkuvb</p>",,,,,,,,,,
html-keyboard-response,304,409422,0.0-14.0-0.53,5f708f5f0d32bb66960d4473,650c16f0f2faf8d7a0d14c09,651c1d75e3f827a6d91a6219,null,null,"<p style=""font-size: 60px; font-family: BACS"">JdGmGrbk</p>",,,,,,,,,,
html-keyboard-response,305,410433,0.0-14.0-0.54,5f708f5f0d32bb66960d4473,650c16f0f2faf8d7a0d14c09,651c1d75e3f827a6d91a6219,null,null,"<p style=""font-size: 60px; font-family: BACS"">vQdOkuvb</p>",,,,,,,,,,
html-keyboard-response,306,411442,0.0-14.0-0.55,5f708f5f0d32bb66960d4473,650c16f0f2faf8d7a0d14c09,651c1d75e3f827a6d91a6219,null,null,"<p style=""font-size: 60px; font-family: BACS"">rkYLAOUl</p>",,,,,,,,,,
html-keyboard-response,307,412452,0.0-14.0-0.56,5f708f5f0d32bb66960d4473,650c16f0f2faf8d7a0d14c09,651c1d75e3f827a6d91a6219,null,null,"<p style=""font-size: 60px; font-family: BACS"">GumLlGrbk</p>",,,,,,,,,,
html-keyboard-response,308,413462,0.0-14.0-0.57,5f708f5f0d32bb66960d4473,650c16f0f2faf8d7a0d14c09,651c1d75e3f827a6d91a6219,null,null,"<p style=""font-size: 60px; font-family: BACS"">ckLALkdrO</p>",,,,,,,,,,
html-keyboard-response,309,414470,0.0-14.0-0.58,5f708f5f0d32bb66960d4473,650c16f0f2faf8d7a0d14c09,651c1d75e3f827a6d91a6219,null,null,"<p style=""font-size: 60px; font-family: BACS"">KBKBEYcM</p>",,,,,,,,,,
html-keyboard-response,310,415472,0.0-14.0-0.59,5f708f5f0d32bb66960d4473,650c16f0f2faf8d7a0d14c09,651c1d75e3f827a6d91a6219,null,null,"<p style=""font-size: 60px; font-family: BACS"">PdDTPMd</p>",,,,,,,,,,
html-keyboard-response,311,416485,0.0-14.0-0.60,5f708f5f0d32bb66960d4473,650c16f0f2faf8d7a0d14c09,651c1d75e3f827a6d91a6219,null,null,"<p style=""font-size: 60px; font-family: BACS"">muYNArv</p>",,,,,,,,,,
html-keyboard-response,312,417496,0.0-14.0-0.61,5f708f5f0d32bb66960d4473,650c16f0f2faf8d7a0d14c09,651c1d75e3f827a6d91a6219,null,null,"<p style=""font-size: 60px; font-family: BACS"">rvUbkdrO</p>",,,,,,,,,,
html-keyboard-response,313,418508,0.0-14.0-0.62,5f708f5f0d32bb66960d4473,650c16f0f2faf8d7a0d14c09,651c1d75e3f827a6d91a6219,null,null,"<p style=""font-size: 60px; font-family: BACS"">JdGmkuvb</p>",,,,,,,,,,
html-keyboard-response,314,419517,0.0-14.0-0.63,5f708f5f0d32bb66960d4473,650c16f0f2faf8d7a0d14c09,651c1d75e3f827a6d91a6219,null,null,"<p style=""font-size: 60px; font-family: BACS"">mhtcmtKP</p>",,,,,,,,,,
html-keyboard-response,315,420529,0.0-14.0-0.64,5f708f5f0d32bb66960d4473,650c16f0f2faf8d7a0d14c09,651c1d75e3f827a6d91a6219,null,null,"<p style=""font-size: 60px; font-family: BACS"">DhMthEct</p>",,,,,,,,,,
html-keyboard-response,316,421540,0.0-14.0-0.65,5f708f5f0d32bb66960d4473,650c16f0f2faf8d7a0d14c09,651c1d75e3f827a6d91a6219,null,null,"<p style=""font-size: 60px; font-family: BACS"">GumLlAOUl</p>",,,,,,,,,,
html-keyboard-response,317,422548,0.0-14.0-0.66,5f708f5f0d32bb66960d4473,650c16f0f2faf8d7a0d14c09,651c1d75e3f827a6d91a6219,null,null,"<p style=""font-size: 60px; font-family: BACS"">bvuZkuvb</p>",,,,,,,,,,
html-keyboard-response,318,423550,0.0-14.0-0.67,5f708f5f0d32bb66960d4473,650c16f0f2faf8d7a0d14c09,651c1d75e3f827a6d91a6219,null,null,"<p style=""font-size: 60px; font-family: BACS"">hlbtbmtKP</p>",,,,,,,,,,
html-keyboard-response,319,424562,0.0-14.0-0.68,5f708f5f0d32bb66960d4473,650c16f0f2faf8d7a0d14c09,651c1d75e3f827a6d91a6219,null,null,"<p style=""font-size: 60px; font-family: BACS"">ckLALkuvb</p>",,,,,,,,,,
html-keyboard-response,320,425575,0.0-14.0-0.69,5f708f5f0d32bb66960d4473,650c16f0f2faf8d7a0d14c09,651c1d75e3f827a6d91a6219,null,null,"<p style=""font-size: 60px; font-family: BACS"">DOchlYTOM</p>",,,,,,,,,,
html-keyboard-response,321,426590,0.0-14.0-0.70,5f708f5f0d32bb66960d4473,650c16f0f2faf8d7a0d14c09,651c1d75e3f827a6d91a6219,null,null,"<p style=""font-size: 60px; font-family: BACS"">vQdOGrbk</p>",,,,,,,,,,
html-keyboard-response,322,427599,0.0-14.0-0.71,5f708f5f0d32bb66960d4473,650c16f0f2faf8d7a0d14c09,651c1d75e3f827a6d91a6219,null,null,"<p style=""font-size: 60px; font-family: BACS"">mhtcYTOM</p>",,,,,,,,,,
html-keyboard-response,323,428602,0.0-14.0-0.72,5f708f5f0d32bb66960d4473,650c16f0f2faf8d7a0d14c09,651c1d75e3f827a6d91a6219,null,null,"<p style=""font-size: 60px; font-family: BACS"">mARMPMd</p>",,,,,,,,,,
html-keyboard-response,324,429610,0.0-14.0-0.73,5f708f5f0d32bb66960d4473,650c16f0f2faf8d7a0d14c09,651c1d75e3f827a6d91a6219,null,null,"<p style=""font-size: 60px; font-family: BACS"">DOchlYcM</p>",,,,,,,,,,
html-keyboard-response,325,430625,0.0-14.0-0.74,5f708f5f0d32bb66960d4473,650c16f0f2faf8d7a0d14c09,651c1d75e3f827a6d91a6219,null,null,"<p style=""font-size: 60px; font-family: BACS"">KBKBEPMd</p>",,,,,,,,,,
html-keyboard-response,326,431631,0.0-14.0-0.75,5f708f5f0d32bb66960d4473,650c16f0f2faf8d7a0d14c09,651c1d75e3f827a6d91a6219,null,null,"<p style=""font-size: 60px; font-family: BACS"">GumLlkdrO</p>",,,,,,,,,,
html-keyboard-response,327,432641,0.0-14.0-0.76,5f708f5f0d32bb66960d4473,650c16f0f2faf8d7a0d14c09,651c1d75e3f827a6d91a6219,null,null,"<p style=""font-size: 60px; font-family: BACS"">DhMtYTOM</p>",,,,,,,,,,
html-keyboard-response,328,433648,0.0-14.0-0.77,5f708f5f0d32bb66960d4473,650c16f0f2faf8d7a0d14c09,651c1d75e3f827a6d91a6219,null,null,"<p style=""font-size: 60px; font-family: BACS"">DOchlhEct</p>",,,,,,,,,,
html-keyboard-response,329,434661,0.0-14.0-0.78,5f708f5f0d32bb66960d4473,650c16f0f2faf8d7a0d14c09,651c1d75e3f827a6d91a6219,null,null,"<p style=""font-size: 60px; font-family: BACS"">hTtBbYcM</p>",,,,,,,,,,
html-keyboard-response,330,435677,0.0-14.0-0.79,5f708f5f0d32bb66960d4473,650c16f0f2faf8d7a0d14c09,651c1d75e3f827a6d91a6219,null,null,"<p style=""font-size: 60px; font-family: BACS"">hlbtbYTOM</p>",,,,,,,,,,
html-keyboard-response,331,446116,0.0-15.0,5f708f5f0d32bb66960d4473,650c16f0f2faf8d7a0d14c09,651c1d75e3f827a6d91a6219,10439, ,"<p>Great, you've seen the fourth block of words. You may now take a short break.</p>
      <p>Press the spacebar when you're ready to continue.</p>",,,,,,,,,,
html-keyboard-response,332,447130,0.0-16.0-0.0,5f708f5f0d32bb66960d4473,650c16f0f2faf8d7a0d14c09,651c1d75e3f827a6d91a6219,null,null,"<p style=""font-size: 60px; font-family: BACS"">DhMtYcM</p>",,,,,,,,,,
html-keyboard-response,333,448138,0.0-16.0-0.1,5f708f5f0d32bb66960d4473,650c16f0f2faf8d7a0d14c09,651c1d75e3f827a6d91a6219,null,null,"<p style=""font-size: 60px; font-family: BACS"">DhMtYcM</p>",,,,,,,,,,
html-keyboard-response,334,449153,0.0-16.0-0.2,5f708f5f0d32bb66960d4473,650c16f0f2faf8d7a0d14c09,651c1d75e3f827a6d91a6219,null,null,"<p style=""font-size: 60px; font-family: BACS"">DhMtYcM</p>",,,,,,,,,,
html-keyboard-response,335,450158,0.0-16.0-0.3,5f708f5f0d32bb66960d4473,650c16f0f2faf8d7a0d14c09,651c1d75e3f827a6d91a6219,null,null,"<p style=""font-size: 60px; font-family: BACS"">DhMtYcM</p>",,,,,,,,,,
html-keyboard-response,336,451173,0.0-16.0-0.4,5f708f5f0d32bb66960d4473,650c16f0f2faf8d7a0d14c09,651c1d75e3f827a6d91a6219,null,null,"<p style=""font-size: 60px; font-family: BACS"">DhMtYcM</p>",,,,,,,,,,
html-keyboard-response,337,452182,0.0-16.0-0.5,5f708f5f0d32bb66960d4473,650c16f0f2faf8d7a0d14c09,651c1d75e3f827a6d91a6219,null,null,"<p style=""font-size: 60px; font-family: BACS"">DhMtYcM</p>",,,,,,,,,,
html-keyboard-response,338,453188,0.0-16.0-0.6,5f708f5f0d32bb66960d4473,650c16f0f2faf8d7a0d14c09,651c1d75e3f827a6d91a6219,null,null,"<p style=""font-size: 60px; font-family: BACS"">DhMtYcM</p>",,,,,,,,,,
html-keyboard-response,339,454205,0.0-16.0-0.7,5f708f5f0d32bb66960d4473,650c16f0f2faf8d7a0d14c09,651c1d75e3f827a6d91a6219,null,null,"<p style=""font-size: 60px; font-family: BACS"">DhMtYcM</p>",,,,,,,,,,
html-keyboard-response,340,455217,0.0-16.0-0.8,5f708f5f0d32bb66960d4473,650c16f0f2faf8d7a0d14c09,651c1d75e3f827a6d91a6219,null,null,"<p style=""font-size: 60px; font-family: BACS"">DhMtYcM</p>",,,,,,,,,,
html-keyboard-response,341,456223,0.0-16.0-0.9,5f708f5f0d32bb66960d4473,650c16f0f2faf8d7a0d14c09,651c1d75e3f827a6d91a6219,null,null,"<p style=""font-size: 60px; font-family: BACS"">DhMtYcM</p>",,,,,,,,,,
html-keyboard-response,342,457235,0.0-16.0-0.10,5f708f5f0d32bb66960d4473,650c16f0f2faf8d7a0d14c09,651c1d75e3f827a6d91a6219,null,null,"<p style=""font-size: 60px; font-family: BACS"">DhMtYcM</p>",,,,,,,,,,
html-keyboard-response,343,458245,0.0-16.0-0.11,5f708f5f0d32bb66960d4473,650c16f0f2faf8d7a0d14c09,651c1d75e3f827a6d91a6219,null,null,"<p style=""font-size: 60px; font-family: BACS"">DhMtYcM</p>",,,,,,,,,,
html-keyboard-response,344,459246,0.0-16.0-0.12,5f708f5f0d32bb66960d4473,650c16f0f2faf8d7a0d14c09,651c1d75e3f827a6d91a6219,null,null,"<p style=""font-size: 60px; font-family: BACS"">DhMtYcM</p>",,,,,,,,,,
html-keyboard-response,345,460249,0.0-16.0-0.13,5f708f5f0d32bb66960d4473,650c16f0f2faf8d7a0d14c09,651c1d75e3f827a6d91a6219,null,null,"<p style=""font-size: 60px; font-family: BACS"">DhMtYcM</p>",,,,,,,,,,
html-keyboard-response,346,461266,0.0-16.0-0.14,5f708f5f0d32bb66960d4473,650c16f0f2faf8d7a0d14c09,651c1d75e3f827a6d91a6219,null,null,"<p style=""font-size: 60px; font-family: BACS"">DhMtYcM</p>",,,,,,,,,,
html-keyboard-response,347,462275,0.0-16.0-0.15,5f708f5f0d32bb66960d4473,650c16f0f2faf8d7a0d14c09,651c1d75e3f827a6d91a6219,null,null,"<p style=""font-size: 60px; font-family: BACS"">DhMtYcM</p>",,,,,,,,,,
html-keyboard-response,348,463279,0.0-16.0-0.16,5f708f5f0d32bb66960d4473,650c16f0f2faf8d7a0d14c09,651c1d75e3f827a6d91a6219,null,null,"<p style=""font-size: 60px; font-family: BACS"">DhMtYcM</p>",,,,,,,,,,
html-keyboard-response,349,464293,0.0-16.0-0.17,5f708f5f0d32bb66960d4473,650c16f0f2faf8d7a0d14c09,651c1d75e3f827a6d91a6219,null,null,"<p style=""font-size: 60px; font-family: BACS"">DhMtYcM</p>",,,,,,,,,,
html-keyboard-response,350,465310,0.0-16.0-0.18,5f708f5f0d32bb66960d4473,650c16f0f2faf8d7a0d14c09,651c1d75e3f827a6d91a6219,null,null,"<p style=""font-size: 60px; font-family: BACS"">DhMtYcM</p>",,,,,,,,,,
html-keyboard-response,351,466315,0.0-16.0-0.19,5f708f5f0d32bb66960d4473,650c16f0f2faf8d7a0d14c09,651c1d75e3f827a6d91a6219,null,null,"<p style=""font-size: 60px; font-family: BACS"">DhMtYcM</p>",,,,,,,,,,
html-keyboard-response,352,467316,0.0-16.0-0.20,5f708f5f0d32bb66960d4473,650c16f0f2faf8d7a0d14c09,651c1d75e3f827a6d91a6219,null,null,"<p style=""font-size: 60px; font-family: BACS"">DhMtYcM</p>",,,,,,,,,,
html-keyboard-response,353,468321,0.0-16.0-0.21,5f708f5f0d32bb66960d4473,650c16f0f2faf8d7a0d14c09,651c1d75e3f827a6d91a6219,null,null,"<p style=""font-size: 60px; font-family: BACS"">DhMtYcM</p>",,,,,,,,,,
html-keyboard-response,354,469330,0.0-16.0-0.22,5f708f5f0d32bb66960d4473,650c16f0f2faf8d7a0d14c09,651c1d75e3f827a6d91a6219,null,null,"<p style=""font-size: 60px; font-family: BACS"">DhMtYcM</p>",,,,,,,,,,
html-keyboard-response,355,470339,0.0-16.0-0.23,5f708f5f0d32bb66960d4473,650c16f0f2faf8d7a0d14c09,651c1d75e3f827a6d91a6219,null,null,"<p style=""font-size: 60px; font-family: BACS"">DhMtYcM</p>",,,,,,,,,,
html-keyboard-response,356,471353,0.0-16.0-0.24,5f708f5f0d32bb66960d4473,650c16f0f2faf8d7a0d14c09,651c1d75e3f827a6d91a6219,null,null,"<p style=""font-size: 60px; font-family: BACS"">DhMtYcM</p>",,,,,,,,,,
html-keyboard-response,357,472366,0.0-16.0-0.25,5f708f5f0d32bb66960d4473,650c16f0f2faf8d7a0d14c09,651c1d75e3f827a6d91a6219,null,null,"<p style=""font-size: 60px; font-family: BACS"">DhMtYcM</p>",,,,,,,,,,
html-keyboard-response,358,473379,0.0-16.0-0.26,5f708f5f0d32bb66960d4473,650c16f0f2faf8d7a0d14c09,651c1d75e3f827a6d91a6219,null,null,"<p style=""font-size: 60px; font-family: BACS"">DhMtYcM</p>",,,,,,,,,,
html-keyboard-response,359,474391,0.0-16.0-0.27,5f708f5f0d32bb66960d4473,650c16f0f2faf8d7a0d14c09,651c1d75e3f827a6d91a6219,null,null,"<p style=""font-size: 60px; font-family: BACS"">DhMtYcM</p>",,,,,,,,,,
html-keyboard-response,360,475392,0.0-16.0-0.28,5f708f5f0d32bb66960d4473,650c16f0f2faf8d7a0d14c09,651c1d75e3f827a6d91a6219,null,null,"<p style=""font-size: 60px; font-family: BACS"">DhMtYcM</p>",,,,,,,,,,
html-keyboard-response,361,476407,0.0-16.0-0.29,5f708f5f0d32bb66960d4473,650c16f0f2faf8d7a0d14c09,651c1d75e3f827a6d91a6219,null,null,"<p style=""font-size: 60px; font-family: BACS"">DhMtYcM</p>",,,,,,,,,,
html-keyboard-response,362,477434,0.0-16.0-0.30,5f708f5f0d32bb66960d4473,650c16f0f2faf8d7a0d14c09,651c1d75e3f827a6d91a6219,null,null,"<p style=""font-size: 60px; font-family: BACS"">DhMtYcM</p>",,,,,,,,,,
html-keyboard-response,363,478437,0.0-16.0-0.31,5f708f5f0d32bb66960d4473,650c16f0f2faf8d7a0d14c09,651c1d75e3f827a6d91a6219,null,null,"<p style=""font-size: 60px; font-family: BACS"">DhMtYcM</p>",,,,,,,,,,
html-keyboard-response,364,479446,0.0-16.0-0.32,5f708f5f0d32bb66960d4473,650c16f0f2faf8d7a0d14c09,651c1d75e3f827a6d91a6219,null,null,"<p style=""font-size: 60px; font-family: BACS"">DhMtYcM</p>",,,,,,,,,,
html-keyboard-response,365,480462,0.0-16.0-0.33,5f708f5f0d32bb66960d4473,650c16f0f2faf8d7a0d14c09,651c1d75e3f827a6d91a6219,null,null,"<p style=""font-size: 60px; font-family: BACS"">DhMtYcM</p>",,,,,,,,,,
html-keyboard-response,366,481466,0.0-16.0-0.34,5f708f5f0d32bb66960d4473,650c16f0f2faf8d7a0d14c09,651c1d75e3f827a6d91a6219,null,null,"<p style=""font-size: 60px; font-family: BACS"">DhMtYcM</p>",,,,,,,,,,
html-keyboard-response,367,482480,0.0-16.0-0.35,5f708f5f0d32bb66960d4473,650c16f0f2faf8d7a0d14c09,651c1d75e3f827a6d91a6219,null,null,"<p style=""font-size: 60px; font-family: BACS"">DhMtYcM</p>",,,,,,,,,,
html-keyboard-response,368,483492,0.0-16.0-0.36,5f708f5f0d32bb66960d4473,650c16f0f2faf8d7a0d14c09,651c1d75e3f827a6d91a6219,null,null,"<p style=""font-size: 60px; font-family: BACS"">DhMtYcM</p>",,,,,,,,,,
html-keyboard-response,369,484499,0.0-16.0-0.37,5f708f5f0d32bb66960d4473,650c16f0f2faf8d7a0d14c09,651c1d75e3f827a6d91a6219,null,null,"<p style=""font-size: 60px; font-family: BACS"">DhMtYcM</p>",,,,,,,,,,
html-keyboard-response,370,485501,0.0-16.0-0.38,5f708f5f0d32bb66960d4473,650c16f0f2faf8d7a0d14c09,651c1d75e3f827a6d91a6219,null,null,"<p style=""font-size: 60px; font-family: BACS"">DhMtYcM</p>",,,,,,,,,,
html-keyboard-response,371,486507,0.0-16.0-0.39,5f708f5f0d32bb66960d4473,650c16f0f2faf8d7a0d14c09,651c1d75e3f827a6d91a6219,null,null,"<p style=""font-size: 60px; font-family: BACS"">DhMtYcM</p>",,,,,,,,,,
html-keyboard-response,372,487517,0.0-16.0-0.40,5f708f5f0d32bb66960d4473,650c16f0f2faf8d7a0d14c09,651c1d75e3f827a6d91a6219,null,null,"<p style=""font-size: 60px; font-family: BACS"">DhMtYcM</p>",,,,,,,,,,
html-keyboard-response,373,488524,0.0-16.0-0.41,5f708f5f0d32bb66960d4473,650c16f0f2faf8d7a0d14c09,651c1d75e3f827a6d91a6219,null,null,"<p style=""font-size: 60px; font-family: BACS"">DhMtYcM</p>",,,,,,,,,,
html-keyboard-response,374,489539,0.0-16.0-0.42,5f708f5f0d32bb66960d4473,650c16f0f2faf8d7a0d14c09,651c1d75e3f827a6d91a6219,null,null,"<p style=""font-size: 60px; font-family: BACS"">DhMtYcM</p>",,,,,,,,,,
html-keyboard-response,375,490549,0.0-16.0-0.43,5f708f5f0d32bb66960d4473,650c16f0f2faf8d7a0d14c09,651c1d75e3f827a6d91a6219,null,null,"<p style=""font-size: 60px; font-family: BACS"">DhMtYcM</p>",,,,,,,,,,
html-keyboard-response,376,491553,0.0-16.0-0.44,5f708f5f0d32bb66960d4473,650c16f0f2faf8d7a0d14c09,651c1d75e3f827a6d91a6219,null,null,"<p style=""font-size: 60px; font-family: BACS"">DhMtYcM</p>",,,,,,,,,,
html-keyboard-response,377,492567,0.0-16.0-0.45,5f708f5f0d32bb66960d4473,650c16f0f2faf8d7a0d14c09,651c1d75e3f827a6d91a6219,null,null,"<p style=""font-size: 60px; font-family: BACS"">DhMtYcM</p>",,,,,,,,,,
html-keyboard-response,378,493581,0.0-16.0-0.46,5f708f5f0d32bb66960d4473,650c16f0f2faf8d7a0d14c09,651c1d75e3f827a6d91a6219,null,null,"<p style=""font-size: 60px; font-family: BACS"">DhMtYcM</p>",,,,,,,,,,
html-keyboard-response,379,494593,0.0-16.0-0.47,5f708f5f0d32bb66960d4473,650c16f0f2faf8d7a0d14c09,651c1d75e3f827a6d91a6219,null,null,"<p style=""font-size: 60px; font-family: BACS"">DhMtYcM</p>",,,,,,,,,,
html-keyboard-response,380,495601,0.0-16.0-0.48,5f708f5f0d32bb66960d4473,650c16f0f2faf8d7a0d14c09,651c1d75e3f827a6d91a6219,null,null,"<p style=""font-size: 60px; font-family: BACS"">DhMtYcM</p>",,,,,,,,,,
html-keyboard-response,381,496611,0.0-16.0-0.49,5f708f5f0d32bb66960d4473,650c16f0f2faf8d7a0d14c09,651c1d75e3f827a6d91a6219,null,null,"<p style=""font-size: 60px; font-family: BACS"">DhMtYcM</p>",,,,,,,,,,
html-keyboard-response,382,497624,0.0-16.0-0.50,5f708f5f0d32bb66960d4473,650c16f0f2faf8d7a0d14c09,651c1d75e3f827a6d91a6219,null,null,"<p style=""font-size: 60px; font-family: BACS"">DhMtYcM</p>",,,,,,,,,,
html-keyboard-response,383,498636,0.0-16.0-0.51,5f708f5f0d32bb66960d4473,650c16f0f2faf8d7a0d14c09,651c1d75e3f827a6d91a6219,null,null,"<p style=""font-size: 60px; font-family: BACS"">DhMtYcM</p>",,,,,,,,,,
html-keyboard-response,384,499643,0.0-16.0-0.52,5f708f5f0d32bb66960d4473,650c16f0f2faf8d7a0d14c09,651c1d75e3f827a6d91a6219,null,null,"<p style=""font-size: 60px; font-family: BACS"">DhMtYcM</p>",,,,,,,,,,
html-keyboard-response,385,500655,0.0-16.0-0.53,5f708f5f0d32bb66960d4473,650c16f0f2faf8d7a0d14c09,651c1d75e3f827a6d91a6219,null,null,"<p style=""font-size: 60px; font-family: BACS"">DhMtYcM</p>",,,,,,,,,,
html-keyboard-response,386,501665,0.0-16.0-0.54,5f708f5f0d32bb66960d4473,650c16f0f2faf8d7a0d14c09,651c1d75e3f827a6d91a6219,null,null,"<p style=""font-size: 60px; font-family: BACS"">DhMtYcM</p>",,,,,,,,,,
html-keyboard-response,387,502679,0.0-16.0-0.55,5f708f5f0d32bb66960d4473,650c16f0f2faf8d7a0d14c09,651c1d75e3f827a6d91a6219,null,null,"<p style=""font-size: 60px; font-family: BACS"">DhMtYcM</p>",,,,,,,,,,
html-keyboard-response,388,503682,0.0-16.0-0.56,5f708f5f0d32bb66960d4473,650c16f0f2faf8d7a0d14c09,651c1d75e3f827a6d91a6219,null,null,"<p style=""font-size: 60px; font-family: BACS"">DhMtYcM</p>",,,,,,,,,,
html-keyboard-response,389,504689,0.0-16.0-0.57,5f708f5f0d32bb66960d4473,650c16f0f2faf8d7a0d14c09,651c1d75e3f827a6d91a6219,null,null,"<p style=""font-size: 60px; font-family: BACS"">DhMtYcM</p>",,,,,,,,,,
html-keyboard-response,390,505696,0.0-16.0-0.58,5f708f5f0d32bb66960d4473,650c16f0f2faf8d7a0d14c09,651c1d75e3f827a6d91a6219,null,null,"<p style=""font-size: 60px; font-family: BACS"">DhMtYcM</p>",,,,,,,,,,
html-keyboard-response,391,506711,0.0-16.0-0.59,5f708f5f0d32bb66960d4473,650c16f0f2faf8d7a0d14c09,651c1d75e3f827a6d91a6219,null,null,"<p style=""font-size: 60px; font-family: BACS"">DhMtYcM</p>",,,,,,,,,,
html-keyboard-response,392,507718,0.0-16.0-0.60,5f708f5f0d32bb66960d4473,650c16f0f2faf8d7a0d14c09,651c1d75e3f827a6d91a6219,null,null,"<p style=""font-size: 60px; font-family: BACS"">DhMtYcM</p>",,,,,,,,,,
html-keyboard-response,393,508723,0.0-16.0-0.61,5f708f5f0d32bb66960d4473,650c16f0f2faf8d7a0d14c09,651c1d75e3f827a6d91a6219,null,null,"<p style=""font-size: 60px; font-family: BACS"">DhMtYcM</p>",,,,,,,,,,
html-keyboard-response,394,509735,0.0-16.0-0.62,5f708f5f0d32bb66960d4473,650c16f0f2faf8d7a0d14c09,651c1d75e3f827a6d91a6219,null,null,"<p style=""font-size: 60px; font-family: BACS"">DhMtYcM</p>",,,,,,,,,,
html-keyboard-response,395,510737,0.0-16.0-0.63,5f708f5f0d32bb66960d4473,650c16f0f2faf8d7a0d14c09,651c1d75e3f827a6d91a6219,null,null,"<p style=""font-size: 60px; font-family: BACS"">DhMtYcM</p>",,,,,,,,,,
html-keyboard-response,396,511751,0.0-16.0-0.64,5f708f5f0d32bb66960d4473,650c16f0f2faf8d7a0d14c09,651c1d75e3f827a6d91a6219,null,null,"<p style=""font-size: 60px; font-family: BACS"">DhMtYcM</p>",,,,,,,,,,
html-keyboard-response,397,512763,0.0-16.0-0.65,5f708f5f0d32bb66960d4473,650c16f0f2faf8d7a0d14c09,651c1d75e3f827a6d91a6219,null,null,"<p style=""font-size: 60px; font-family: BACS"">DhMtYcM</p>",,,,,,,,,,
html-keyboard-response,398,513777,0.0-16.0-0.66,5f708f5f0d32bb66960d4473,650c16f0f2faf8d7a0d14c09,651c1d75e3f827a6d91a6219,null,null,"<p style=""font-size: 60px; font-family: BACS"">DhMtYcM</p>",,,,,,,,,,
html-keyboard-response,399,514779,0.0-16.0-0.67,5f708f5f0d32bb66960d4473,650c16f0f2faf8d7a0d14c09,651c1d75e3f827a6d91a6219,null,null,"<p style=""font-size: 60px; font-family: BACS"">DhMtYcM</p>",,,,,,,,,,
html-keyboard-response,400,515791,0.0-16.0-0.68,5f708f5f0d32bb66960d4473,650c16f0f2faf8d7a0d14c09,651c1d75e3f827a6d91a6219,null,null,"<p style=""font-size: 60px; font-family: BACS"">DhMtYcM</p>",,,,,,,,,,
html-keyboard-response,401,516795,0.0-16.0-0.69,5f708f5f0d32bb66960d4473,650c16f0f2faf8d7a0d14c09,651c1d75e3f827a6d91a6219,null,null,"<p style=""font-size: 60px; font-family: BACS"">DhMtYcM</p>",,,,,,,,,,
html-keyboard-response,402,517798,0.0-16.0-0.70,5f708f5f0d32bb66960d4473,650c16f0f2faf8d7a0d14c09,651c1d75e3f827a6d91a6219,null,null,"<p style=""font-size: 60px; font-family: BACS"">DhMtYcM</p>",,,,,,,,,,
html-keyboard-response,403,518811,0.0-16.0-0.71,5f708f5f0d32bb66960d4473,650c16f0f2faf8d7a0d14c09,651c1d75e3f827a6d91a6219,null,null,"<p style=""font-size: 60px; font-family: BACS"">DhMtYcM</p>",,,,,,,,,,
html-keyboard-response,404,519820,0.0-16.0-0.72,5f708f5f0d32bb66960d4473,650c16f0f2faf8d7a0d14c09,651c1d75e3f827a6d91a6219,null,null,"<p style=""font-size: 60px; font-family: BACS"">DhMtYcM</p>",,,,,,,,,,
html-keyboard-response,405,520824,0.0-16.0-0.73,5f708f5f0d32bb66960d4473,650c16f0f2faf8d7a0d14c09,651c1d75e3f827a6d91a6219,null,null,"<p style=""font-size: 60px; font-family: BACS"">DhMtYcM</p>",,,,,,,,,,
html-keyboard-response,406,521836,0.0-16.0-0.74,5f708f5f0d32bb66960d4473,650c16f0f2faf8d7a0d14c09,651c1d75e3f827a6d91a6219,null,null,"<p style=""font-size: 60px; font-family: BACS"">DhMtYcM</p>",,,,,,,,,,
html-keyboard-response,407,522846,0.0-16.0-0.75,5f708f5f0d32bb66960d4473,650c16f0f2faf8d7a0d14c09,651c1d75e3f827a6d91a6219,null,null,"<p style=""font-size: 60px; font-family: BACS"">DhMtYcM</p>",,,,,,,,,,
html-keyboard-response,408,523855,0.0-16.0-0.76,5f708f5f0d32bb66960d4473,650c16f0f2faf8d7a0d14c09,651c1d75e3f827a6d91a6219,null,null,"<p style=""font-size: 60px; font-family: BACS"">DhMtYcM</p>",,,,,,,,,,
html-keyboard-response,409,524858,0.0-16.0-0.77,5f708f5f0d32bb66960d4473,650c16f0f2faf8d7a0d14c09,651c1d75e3f827a6d91a6219,null,null,"<p style=""font-size: 60px; font-family: BACS"">DhMtYcM</p>",,,,,,,,,,
html-keyboard-response,410,525866,0.0-16.0-0.78,5f708f5f0d32bb66960d4473,650c16f0f2faf8d7a0d14c09,651c1d75e3f827a6d91a6219,null,null,"<p style=""font-size: 60px; font-family: BACS"">DhMtYcM</p>",,,,,,,,,,
html-keyboard-response,411,526878,0.0-16.0-0.79,5f708f5f0d32bb66960d4473,650c16f0f2faf8d7a0d14c09,651c1d75e3f827a6d91a6219,null,null,"<p style=""font-size: 60px; font-family: BACS"">DhMtYcM</p>",,,,,,,,,,
html-keyboard-response,412,529007,0.0-17.0,5f708f5f0d32bb66960d4473,650c16f0f2faf8d7a0d14c09,651c1d75e3f827a6d91a6219,2129, ,"<p>Great, you've seen the fifth block of words. You may now take a short break.</p>
      <p>Press the spacebar when you're ready to continue.</p>",,,,,,,,,,
html-keyboard-response,413,530020,0.0-18.0-0.0,5f708f5f0d32bb66960d4473,650c16f0f2faf8d7a0d14c09,651c1d75e3f827a6d91a6219,null,null,"<p style=""font-size: 60px; font-family: BACS"">rkYLGrbk</p>",,,,,,,,,,
html-keyboard-response,414,531025,0.0-18.0-0.1,5f708f5f0d32bb66960d4473,650c16f0f2faf8d7a0d14c09,651c1d75e3f827a6d91a6219,null,null,"<p style=""font-size: 60px; font-family: BACS"">JdGmArv</p>",,,,,,,,,,
html-keyboard-response,415,532030,0.0-18.0-0.2,5f708f5f0d32bb66960d4473,650c16f0f2faf8d7a0d14c09,651c1d75e3f827a6d91a6219,null,null,"<p style=""font-size: 60px; font-family: BACS"">hlbtbPMd</p>",,,,,,,,,,
html-keyboard-response,416,533036,0.0-18.0-0.3,5f708f5f0d32bb66960d4473,650c16f0f2faf8d7a0d14c09,651c1d75e3f827a6d91a6219,null,null,"<p style=""font-size: 60px; font-family: BACS"">rkYLAOUl</p>",,,,,,,,,,
html-keyboard-response,417,534037,0.0-18.0-0.4,5f708f5f0d32bb66960d4473,650c16f0f2faf8d7a0d14c09,651c1d75e3f827a6d91a6219,null,null,"<p style=""font-size: 60px; font-family: BACS"">ckLALArv</p>",,,,,,,,,,
html-keyboard-response,418,535049,0.0-18.0-0.5,5f708f5f0d32bb66960d4473,650c16f0f2faf8d7a0d14c09,651c1d75e3f827a6d91a6219,null,null,"<p style=""font-size: 60px; font-family: BACS"">JdGmGrbk</p>",,,,,,,,,,
html-keyboard-response,419,536052,0.0-18.0-0.6,5f708f5f0d32bb66960d4473,650c16f0f2faf8d7a0d14c09,651c1d75e3f827a6d91a6219,null,null,"<p style=""font-size: 60px; font-family: BACS"">TPCbhEct</p>",,,,,,,,,,
html-keyboard-response,420,537064,0.0-18.0-0.7,5f708f5f0d32bb66960d4473,650c16f0f2faf8d7a0d14c09,651c1d75e3f827a6d91a6219,null,null,"<p style=""font-size: 60px; font-family: BACS"">muYNkuvb</p>",,,,,,,,,,
html-keyboard-response,421,538076,0.0-18.0-0.8,5f708f5f0d32bb66960d4473,650c16f0f2faf8d7a0d14c09,651c1d75e3f827a6d91a6219,null,null,"<p style=""font-size: 60px; font-family: BACS"">bvuZGrbk</p>",,,,,,,,,,
html-keyboard-response,422,539095,0.0-18.0-0.9,5f708f5f0d32bb66960d4473,650c16f0f2faf8d7a0d14c09,651c1d75e3f827a6d91a6219,null,null,"<p style=""font-size: 60px; font-family: BACS"">muYNArv</p>",,,,,,,,,,
html-keyboard-response,423,540116,0.0-18.0-0.10,5f708f5f0d32bb66960d4473,650c16f0f2faf8d7a0d14c09,651c1d75e3f827a6d91a6219,null,null,"<p style=""font-size: 60px; font-family: BACS"">TPCbmtKP</p>",,,,,,,,,,
html-keyboard-response,424,541118,0.0-18.0-0.11,5f708f5f0d32bb66960d4473,650c16f0f2faf8d7a0d14c09,651c1d75e3f827a6d91a6219,null,null,"<p style=""font-size: 60px; font-family: BACS"">DOchlhEct</p>",,,,,,,,,,
html-keyboard-response,425,542134,0.0-18.0-0.12,5f708f5f0d32bb66960d4473,650c16f0f2faf8d7a0d14c09,651c1d75e3f827a6d91a6219,null,null,"<p style=""font-size: 60px; font-family: BACS"">rkYLkdrO</p>",,,,,,,,,,
html-keyboard-response,426,543145,0.0-18.0-0.13,5f708f5f0d32bb66960d4473,650c16f0f2faf8d7a0d14c09,651c1d75e3f827a6d91a6219,null,null,"<p style=""font-size: 60px; font-family: BACS"">DhMtPMd</p>",,,,,,,,,,
html-keyboard-response,427,544151,0.0-18.0-0.14,5f708f5f0d32bb66960d4473,650c16f0f2faf8d7a0d14c09,651c1d75e3f827a6d91a6219,null,null,"<p style=""font-size: 60px; font-family: BACS"">hlbtbYTOM</p>",,,,,,,,,,
html-keyboard-response,428,545156,0.0-18.0-0.15,5f708f5f0d32bb66960d4473,650c16f0f2faf8d7a0d14c09,651c1d75e3f827a6d91a6219,null,null,"<p style=""font-size: 60px; font-family: BACS"">mARMPMd</p>",,,,,,,,,,
html-keyboard-response,429,546170,0.0-18.0-0.16,5f708f5f0d32bb66960d4473,650c16f0f2faf8d7a0d14c09,651c1d75e3f827a6d91a6219,null,null,"<p style=""font-size: 60px; font-family: BACS"">vQdOAOUl</p>",,,,,,,,,,
html-keyboard-response,430,547176,0.0-18.0-0.17,5f708f5f0d32bb66960d4473,650c16f0f2faf8d7a0d14c09,651c1d75e3f827a6d91a6219,null,null,"<p style=""font-size: 60px; font-family: BACS"">KBKBEPMd</p>",,,,,,,,,,
html-keyboard-response,431,548188,0.0-18.0-0.18,5f708f5f0d32bb66960d4473,650c16f0f2faf8d7a0d14c09,651c1d75e3f827a6d91a6219,null,null,"<p style=""font-size: 60px; font-family: BACS"">mhtcmtKP</p>",,,,,,,,,,
html-keyboard-response,432,549192,0.0-18.0-0.19,5f708f5f0d32bb66960d4473,650c16f0f2faf8d7a0d14c09,651c1d75e3f827a6d91a6219,null,null,"<p style=""font-size: 60px; font-family: BACS"">lRckAPMd</p>",,,,,,,,,,
html-keyboard-response,433,550207,0.0-18.0-0.20,5f708f5f0d32bb66960d4473,650c16f0f2faf8d7a0d14c09,651c1d75e3f827a6d91a6219,null,null,"<p style=""font-size: 60px; font-family: BACS"">bvuZAOUl</p>",,,,,,,,,,
html-keyboard-response,434,551218,0.0-18.0-0.21,5f708f5f0d32bb66960d4473,650c16f0f2faf8d7a0d14c09,651c1d75e3f827a6d91a6219,null,null,"<p style=""font-size: 60px; font-family: BACS"">rkYLkuvb</p>",,,,,,,,,,
html-keyboard-response,435,552219,0.0-18.0-0.22,5f708f5f0d32bb66960d4473,650c16f0f2faf8d7a0d14c09,651c1d75e3f827a6d91a6219,null,null,"<p style=""font-size: 60px; font-family: BACS"">TPCbYTOM</p>",,,,,,,,,,
html-keyboard-response,436,553220,0.0-18.0-0.23,5f708f5f0d32bb66960d4473,650c16f0f2faf8d7a0d14c09,651c1d75e3f827a6d91a6219,null,null,"<p style=""font-size: 60px; font-family: BACS"">GumLlAOUl</p>",,,,,,,,,,
html-keyboard-response,437,554232,0.0-18.0-0.24,5f708f5f0d32bb66960d4473,650c16f0f2faf8d7a0d14c09,651c1d75e3f827a6d91a6219,null,null,"<p style=""font-size: 60px; font-family: BACS"">bvuZArv</p>",,,,,,,,,,
html-keyboard-response,438,555247,0.0-18.0-0.25,5f708f5f0d32bb66960d4473,650c16f0f2faf8d7a0d14c09,651c1d75e3f827a6d91a6219,null,null,"<p style=""font-size: 60px; font-family: BACS"">lRckAYTOM</p>",,,,,,,,,,
html-keyboard-response,439,556253,0.0-18.0-0.26,5f708f5f0d32bb66960d4473,650c16f0f2faf8d7a0d14c09,651c1d75e3f827a6d91a6219,null,null,"<p style=""font-size: 60px; font-family: BACS"">LuaUAOUl</p>",,,,,,,,,,
html-keyboard-response,440,557268,0.0-18.0-0.27,5f708f5f0d32bb66960d4473,650c16f0f2faf8d7a0d14c09,651c1d75e3f827a6d91a6219,null,null,"<p style=""font-size: 60px; font-family: BACS"">lRckAmtKP</p>",,,,,,,,,,
html-keyboard-response,441,558280,0.0-18.0-0.28,5f708f5f0d32bb66960d4473,650c16f0f2faf8d7a0d14c09,651c1d75e3f827a6d91a6219,null,null,"<p style=""font-size: 60px; font-family: BACS"">DhMthEct</p>",,,,,,,,,,
html-keyboard-response,442,559284,0.0-18.0-0.29,5f708f5f0d32bb66960d4473,650c16f0f2faf8d7a0d14c09,651c1d75e3f827a6d91a6219,null,null,"<p style=""font-size: 60px; font-family: BACS"">hlbtbmtKP</p>",,,,,,,,,,
html-keyboard-response,443,560290,0.0-18.0-0.30,5f708f5f0d32bb66960d4473,650c16f0f2faf8d7a0d14c09,651c1d75e3f827a6d91a6219,null,null,"<p style=""font-size: 60px; font-family: BACS"">muYNkdrO</p>",,,,,,,,,,
html-keyboard-response,444,561292,0.0-18.0-0.31,5f708f5f0d32bb66960d4473,650c16f0f2faf8d7a0d14c09,651c1d75e3f827a6d91a6219,null,null,"<p style=""font-size: 60px; font-family: BACS"">GumLlArv</p>",,,,,,,,,,
html-keyboard-response,445,562295,0.0-18.0-0.32,5f708f5f0d32bb66960d4473,650c16f0f2faf8d7a0d14c09,651c1d75e3f827a6d91a6219,null,null,"<p style=""font-size: 60px; font-family: BACS"">JdGmkdrO</p>",,,,,,,,,,
html-keyboard-response,446,563307,0.0-18.0-0.33,5f708f5f0d32bb66960d4473,650c16f0f2faf8d7a0d14c09,651c1d75e3f827a6d91a6219,null,null,"<p style=""font-size: 60px; font-family: BACS"">vQdOArv</p>",,,,,,,,,,
html-keyboard-response,447,564321,0.0-18.0-0.34,5f708f5f0d32bb66960d4473,650c16f0f2faf8d7a0d14c09,651c1d75e3f827a6d91a6219,null,null,"<p style=""font-size: 60px; font-family: BACS"">PdDThEct</p>",,,,,,,,,,
html-keyboard-response,448,565331,0.0-18.0-0.35,5f708f5f0d32bb66960d4473,650c16f0f2faf8d7a0d14c09,651c1d75e3f827a6d91a6219,null,null,"<p style=""font-size: 60px; font-family: BACS"">vQdOGrbk</p>",,,,,,,,,,
html-keyboard-response,449,566343,0.0-18.0-0.36,5f708f5f0d32bb66960d4473,650c16f0f2faf8d7a0d14c09,651c1d75e3f827a6d91a6219,null,null,"<p style=""font-size: 60px; font-family: BACS"">bvuZkuvb</p>",,,,,,,,,,
html-keyboard-response,450,567345,0.0-18.0-0.37,5f708f5f0d32bb66960d4473,650c16f0f2faf8d7a0d14c09,651c1d75e3f827a6d91a6219,null,null,"<p style=""font-size: 60px; font-family: BACS"">hTtBbYcM</p>",,,,,,,,,,
html-keyboard-response,451,568359,0.0-18.0-0.38,5f708f5f0d32bb66960d4473,650c16f0f2faf8d7a0d14c09,651c1d75e3f827a6d91a6219,null,null,"<p style=""font-size: 60px; font-family: BACS"">mhtcYTOM</p>",,,,,,,,,,
html-keyboard-response,452,569366,0.0-18.0-0.39,5f708f5f0d32bb66960d4473,650c16f0f2faf8d7a0d14c09,651c1d75e3f827a6d91a6219,null,null,"<p style=""font-size: 60px; font-family: BACS"">rvUbArv</p>",,,,,,,,,,
html-keyboard-response,453,570378,0.0-18.0-0.40,5f708f5f0d32bb66960d4473,650c16f0f2faf8d7a0d14c09,651c1d75e3f827a6d91a6219,null,null,"<p style=""font-size: 60px; font-family: BACS"">ZJLmrkdrO</p>",,,,,,,,,,
html-keyboard-response,454,571388,0.0-18.0-0.41,5f708f5f0d32bb66960d4473,650c16f0f2faf8d7a0d14c09,651c1d75e3f827a6d91a6219,null,null,"<p style=""font-size: 60px; font-family: BACS"">mARMhEct</p>",,,,,,,,,,
html-keyboard-response,455,572400,0.0-18.0-0.42,5f708f5f0d32bb66960d4473,650c16f0f2faf8d7a0d14c09,651c1d75e3f827a6d91a6219,null,null,"<p style=""font-size: 60px; font-family: BACS"">ZJLmrGrbk</p>",,,,,,,,,,
html-keyboard-response,456,573401,0.0-18.0-0.43,5f708f5f0d32bb66960d4473,650c16f0f2faf8d7a0d14c09,651c1d75e3f827a6d91a6219,null,null,"<p style=""font-size: 60px; font-family: BACS"">LuaUkuvb</p>",,,,,,,,,,
html-keyboard-response,457,574406,0.0-18.0-0.44,5f708f5f0d32bb66960d4473,650c16f0f2faf8d7a0d14c09,651c1d75e3f827a6d91a6219,null,null,"<p style=""font-size: 60px; font-family: BACS"">ZJLmrArv</p>",,,,,,,,,,
html-keyboard-response,458,575420,0.0-18.0-0.45,5f708f5f0d32bb66960d4473,650c16f0f2faf8d7a0d14c09,651c1d75e3f827a6d91a6219,null,null,"<p style=""font-size: 60px; font-family: BACS"">DOchlYTOM</p>",,,,,,,,,,
html-keyboard-response,459,576437,0.0-18.0-0.46,5f708f5f0d32bb66960d4473,650c16f0f2faf8d7a0d14c09,651c1d75e3f827a6d91a6219,null,null,"<p style=""font-size: 60px; font-family: BACS"">PdDTYcM</p>",,,,,,,,,,
html-keyboard-response,460,577444,0.0-18.0-0.47,5f708f5f0d32bb66960d4473,650c16f0f2faf8d7a0d14c09,651c1d75e3f827a6d91a6219,null,null,"<p style=""font-size: 60px; font-family: BACS"">LuaUGrbk</p>",,,,,,,,,,
html-keyboard-response,461,578456,0.0-18.0-0.48,5f708f5f0d32bb66960d4473,650c16f0f2faf8d7a0d14c09,651c1d75e3f827a6d91a6219,null,null,"<p style=""font-size: 60px; font-family: BACS"">hTtBbhEct</p>",,,,,,,,,,
html-keyboard-response,462,579463,0.0-18.0-0.49,5f708f5f0d32bb66960d4473,650c16f0f2faf8d7a0d14c09,651c1d75e3f827a6d91a6219,null,null,"<p style=""font-size: 60px; font-family: BACS"">GumLlkdrO</p>",,,,,,,,,,
html-keyboard-response,463,580476,0.0-18.0-0.50,5f708f5f0d32bb66960d4473,650c16f0f2faf8d7a0d14c09,651c1d75e3f827a6d91a6219,null,null,"<p style=""font-size: 60px; font-family: BACS"">DhMtYcM</p>",,,,,,,,,,
html-keyboard-response,464,581480,0.0-18.0-0.51,5f708f5f0d32bb66960d4473,650c16f0f2faf8d7a0d14c09,651c1d75e3f827a6d91a6219,null,null,"<p style=""font-size: 60px; font-family: BACS"">GumLlGrbk</p>",,,,,,,,,,
html-keyboard-response,465,582494,0.0-18.0-0.52,5f708f5f0d32bb66960d4473,650c16f0f2faf8d7a0d14c09,651c1d75e3f827a6d91a6219,null,null,"<p style=""font-size: 60px; font-family: BACS"">KBKBEYcM</p>",,,,,,,,,,
html-keyboard-response,466,583507,0.0-18.0-0.53,5f708f5f0d32bb66960d4473,650c16f0f2faf8d7a0d14c09,651c1d75e3f827a6d91a6219,null,null,"<p style=""font-size: 60px; font-family: BACS"">ckLALkuvb</p>",,,,,,,,,,
html-keyboard-response,467,584519,0.0-18.0-0.54,5f708f5f0d32bb66960d4473,650c16f0f2faf8d7a0d14c09,651c1d75e3f827a6d91a6219,null,null,"<p style=""font-size: 60px; font-family: BACS"">TPCbPMd</p>",,,,,,,,,,
html-keyboard-response,468,585533,0.0-18.0-0.55,5f708f5f0d32bb66960d4473,650c16f0f2faf8d7a0d14c09,651c1d75e3f827a6d91a6219,null,null,"<p style=""font-size: 60px; font-family: BACS"">DOchlmtKP</p>",,,,,,,,,,
