"trial_type","trial_index","time_elapsed","internal_node_id","subject_id","study_id","session_id","rt","response","stimulus","success","item","task","correct_response","correct","target","confound","name"
"pavlovia","0","3470","0.0-0.0","6175a0a52e748285b3476b27","64afc2c9a8732ea92db0087d","64afd5a08be969841ccd791f","","","","","","","","","","",""
"survey-html-form","1","9671","0.0-1.0","6175a0a52e748285b3476b27","64afc2c9a8732ea92db0087d","64afd5a08be969841ccd791f","6200","{""ID"":""6175a0a52e748285b3476b27""}","","","","","","","","",""
"html-keyboard-response","2","20117","0.0-2.0","6175a0a52e748285b3476b27","64afc2c9a8732ea92db0087d","64afd5a08be969841ccd791f","10444"," ","<p style=""font-size: 15px;"">Prima di cominciare, le chiediamo di leggere il modulo di consenso informato e confermare la sua volontà di partecipare all'esperimento.</p>
      <p style=""font-size: 15px;""> La preghiamo di ricordare che questo è un progetto di ricerca e che la sua partecipazione è completamente volontaria. Lei si potra' ritirare in qualunque momento, senza necessariamente dover dare alcuna spiegazione. Lo studio al quale Le si chiede di partecipare ha lo scopo di esaminare come i lettori elaborano le parole scritte. La somministrazione delle prove è individuale. Lei sarà impegnato in una sessione di lavoro della durata media di 10 minuti, e un questionario di 10 minuti. L’ordine delle prove ed il loro svolgimento sono stabiliti in modo tale da evitare un eventuale affaticamento. Tutte le prove saranno precedute da un breve addestramento in modo tale che abbia la possibilità di familiarizzare con il compito. Sono previste alcune pause nel corso dello svolgimento dell’esperimento. Una ricompensa di £4 (£8 per ora) Le verrà consegnata al termine della sessione di testing. Nonostante il testing preveda delle prove cognitive, il presente esperimento non costituisce una prova clinica che permetta la diagnosi di eventuali patologie.</p>
      <p style=""font-size: 15px;"">Tutti i dati raccolti grazie alla partecipazione Sua e di altre persone volontarie saranno custoditi in server sicuri e protetti da password, e non sarà consentito ad alcuna persona non autorizzata di accedervi. Le Sue informazioni personali saranno conservate separatamente dai risultati della presente ricerca, cui saranno associati soltanto attraverso un ID arbitrario. Grazie a questo processo di anonimizzazione dei dati, a nessun ricercatore sarà possibile analizzare i risultati sapendo da quale specifico partecipante essi provengono. Inoltre, questa procedura renderà impossibile la Sua identificazione anche nel momento in cui i risultati della ricerca fossero pubblicati su riviste scientifiche, o presentati a congressi o in qualsiasi altro pubblico consesso. Più in generale, i dati raccolti saranno trattati in accordo con le leggi sulla privacy e in conformità al Decreto Legislativo 30 giugno 2003 n. 196 “Codice in materia di protezione dei dati personali” e al Regolamento Europeo 2016/679 (General Data Protection Regulation - GDPR). Il Responsabile della protezione dei dati (RPD) è l’Avv. Valentina Carollo che può essere contattato ai seguenti indirizzi email: <a href=""mailto:dpo@sissa.it"">dpo@sissa.it</a> oppure <a href=""mailto:rpd@sissa.it"">rpd@sissa.it</a> - PEC: <a href=""mailto:protocollo@pec.sissa.it"">protocollo@pec.sissa.it</a>.</p>
      <p style=""font-size: 15px;""> Prima di esprimere il suo consenso alla partecipazione, Le ricordiamo ancora che in caso Lei abbia bisogno di delucidazioni su qualunque aspetto della procedura sperimentale, il ricercatore è a Sua completa disposizione (<a href=""mailto:aliebelt@sissa.it"">aliebelt@sissa.it</a>, <a href=""mailto:davide.crepaldi@sissa.it"">davide.crepaldi@sissa.it</a>).</p>
      <p style=""font-size: 15px;"">Se vuole scaricare il modulo di consenso informato, clicca qui: <a href=""BASL_modulo_consenso.pdf"" download>modulo di consenso</a>.</p>
      <p style=""font-size: 15px;""> Le chiediamo di premere la barra per continuare al consenso.</p>","","","","","","","",""
"survey-html-form","3","31008","0.0-3.0","6175a0a52e748285b3476b27","64afc2c9a8732ea92db0087d","64afd5a08be969841ccd791f","10890","{""consent1"":""YES"",""consent2"":""YES"",""consent3"":""YES"",""consent4"":""YES"",""consent5"":""YES"",""consent6"":""YES""}","","","","","","","","",""
"fullscreen","4","34583","0.0-4.0","6175a0a52e748285b3476b27","64afc2c9a8732ea92db0087d","64afd5a08be969841ccd791f","","","","true","","","","","","",""
"html-keyboard-response","5","46514","0.0-5.0","6175a0a52e748285b3476b27","64afc2c9a8732ea92db0087d","64afd5a08be969841ccd791f","11929"," ","<p>Benvenuta/o, e grazie mille del tuo tempo!</p>
      <p>In questo esperimento sarai un esperto/un'esperta di linguaggio cui è stato chiesto di dare un'occhiata ad alcuni messaggi che la Terra ha ricevuto dallo spazio. Il tuo compito, in questa prima parte dell'esperimento, sarà di fare molta attenzione alle parole che ti verranno mostrate; più tardi, i leader del mondo ti chiederanno qualche informazione su quello che hai visto. Le parole si susseguiranno abbastanza velocemente; sembra che questi alieni abbiano una certa fretta :-) </p>
      <p>Per favore, chiama lo sperimentatore se ha qualche domanda.</p><p>Premi la barra per continuare.</p>","","","","","","","",""
"html-keyboard-response","6","50556","0.0-6.0","6175a0a52e748285b3476b27","64afc2c9a8732ea92db0087d","64afd5a08be969841ccd791f","4041"," ","<p>Ecco un esempio delle parole che vedrai:</p>
      <img src='esempio.png' height='400px'>
      <p>Quando sei pronti per iniziare, premi la barra.</p></div>","","","","","","","",""
"html-keyboard-response","7","51558","0.0-7.0-0.0","6175a0a52e748285b3476b27","64afc2c9a8732ea92db0087d","64afd5a08be969841ccd791f","null","null","<p style=""font-size: 60px; font-family: BACS"">EtMDMdPc</p>","","","","","","","",""
"html-keyboard-response","8","52570","0.0-7.0-0.1","6175a0a52e748285b3476b27","64afc2c9a8732ea92db0087d","64afd5a08be969841ccd791f","null","null","<p style=""font-size: 60px; font-family: BACS"">AbKDbTE</p>","","","","","","","",""
"html-keyboard-response","9","53584","0.0-7.0-0.2","6175a0a52e748285b3476b27","64afc2c9a8732ea92db0087d","64afd5a08be969841ccd791f","null","null","<p style=""font-size: 60px; font-family: BACS"">adkrYmb</p>","","","","","","","",""
"html-keyboard-response","10","54599","0.0-7.0-0.3","6175a0a52e748285b3476b27","64afc2c9a8732ea92db0087d","64afd5a08be969841ccd791f","null","null","<p style=""font-size: 60px; font-family: BACS"">EtMDMCKOb</p>","","","","","","","",""
"html-keyboard-response","11","55612","0.0-7.0-0.4","6175a0a52e748285b3476b27","64afc2c9a8732ea92db0087d","64afd5a08be969841ccd791f","null","null","<p style=""font-size: 60px; font-family: BACS"">ctktdPc</p>","","","","","","","",""
"html-keyboard-response","12","56620","0.0-7.0-0.5","6175a0a52e748285b3476b27","64afc2c9a8732ea92db0087d","64afd5a08be969841ccd791f","null","null","<p style=""font-size: 60px; font-family: BACS"">EhbtbTE</p>","","","","","","","",""
"html-keyboard-response","13","57634","0.0-7.0-0.6","6175a0a52e748285b3476b27","64afc2c9a8732ea92db0087d","64afd5a08be969841ccd791f","null","null","<p style=""font-size: 60px; font-family: BACS"">adYrcAZbl</p>","","","","","","","",""
"html-keyboard-response","14","58643","0.0-7.0-0.7","6175a0a52e748285b3476b27","64afc2c9a8732ea92db0087d","64afd5a08be969841ccd791f","null","null","<p style=""font-size: 60px; font-family: BACS"">AZlLNAvdk</p>","","","","","","","",""
"html-keyboard-response","15","59655","0.0-7.0-0.8","6175a0a52e748285b3476b27","64afc2c9a8732ea92db0087d","64afd5a08be969841ccd791f","null","null","<p style=""font-size: 60px; font-family: BACS"">dmZvmGlu</p>","","","","","","","",""
"html-keyboard-response","16","60671","0.0-7.0-0.9","6175a0a52e748285b3476b27","64afc2c9a8732ea92db0087d","64afd5a08be969841ccd791f","null","null","<p style=""font-size: 60px; font-family: BACS"">ctktCKOb</p>","","","","","","","",""
"html-keyboard-response","17","61674","0.0-7.0-0.10","6175a0a52e748285b3476b27","64afc2c9a8732ea92db0087d","64afd5a08be969841ccd791f","null","null","<p style=""font-size: 60px; font-family: BACS"">OdlNmAvdk</p>","","","","","","","",""
"html-keyboard-response","18","62686","0.0-7.0-0.11","6175a0a52e748285b3476b27","64afc2c9a8732ea92db0087d","64afd5a08be969841ccd791f","null","null","<p style=""font-size: 60px; font-family: BACS"">EhbtCKOb</p>","","","","","","","",""
"html-keyboard-response","19","63699","0.0-7.0-0.12","6175a0a52e748285b3476b27","64afc2c9a8732ea92db0087d","64afd5a08be969841ccd791f","null","null","<p style=""font-size: 60px; font-family: BACS"">advYOAZbl</p>","","","","","","","",""
"html-keyboard-response","20","64705","0.0-7.0-0.13","6175a0a52e748285b3476b27","64afc2c9a8732ea92db0087d","64afd5a08be969841ccd791f","null","null","<p style=""font-size: 60px; font-family: BACS"">OdlNmQGb</p>","","","","","","","",""
"html-keyboard-response","21","65715","0.0-7.0-0.14","6175a0a52e748285b3476b27","64afc2c9a8732ea92db0087d","64afd5a08be969841ccd791f","null","null","<p style=""font-size: 60px; font-family: BACS"">EhbtBRDh</p>","","","","","","","",""
"html-keyboard-response","22","66725","0.0-7.0-0.15","6175a0a52e748285b3476b27","64afc2c9a8732ea92db0087d","64afd5a08be969841ccd791f","null","null","<p style=""font-size: 60px; font-family: BACS"">lBKtdPc</p>","","","","","","","",""
"html-keyboard-response","23","67734","0.0-7.0-0.16","6175a0a52e748285b3476b27","64afc2c9a8732ea92db0087d","64afd5a08be969841ccd791f","null","null","<p style=""font-size: 60px; font-family: BACS"">PhktkBRDh</p>","","","","","","","",""
"html-keyboard-response","24","68749","0.0-7.0-0.17","6175a0a52e748285b3476b27","64afc2c9a8732ea92db0087d","64afd5a08be969841ccd791f","null","null","<p style=""font-size: 60px; font-family: BACS"">cAZuQGb</p>","","","","","","","",""
"html-keyboard-response","25","69760","0.0-7.0-0.18","6175a0a52e748285b3476b27","64afc2c9a8732ea92db0087d","64afd5a08be969841ccd791f","null","null","<p style=""font-size: 60px; font-family: BACS"">OdlNmAZbl</p>","","","","","","","",""
"html-keyboard-response","26","70771","0.0-7.0-0.19","6175a0a52e748285b3476b27","64afc2c9a8732ea92db0087d","64afd5a08be969841ccd791f","null","null","<p style=""font-size: 60px; font-family: BACS"">dmZvmYmb</p>","","","","","","","",""
"html-keyboard-response","27","71781","0.0-7.0-0.20","6175a0a52e748285b3476b27","64afc2c9a8732ea92db0087d","64afd5a08be969841ccd791f","null","null","<p style=""font-size: 60px; font-family: BACS"">adYrcAvdk</p>","","","","","","","",""
"html-keyboard-response","28","72789","0.0-7.0-0.21","6175a0a52e748285b3476b27","64afc2c9a8732ea92db0087d","64afd5a08be969841ccd791f","null","null","<p style=""font-size: 60px; font-family: BACS"">OCmkdPc</p>","","","","","","","",""
"html-keyboard-response","29","73804","0.0-7.0-0.22","6175a0a52e748285b3476b27","64afc2c9a8732ea92db0087d","64afd5a08be969841ccd791f","null","null","<p style=""font-size: 60px; font-family: BACS"">lBKtCKOb</p>","","","","","","","",""
"html-keyboard-response","30","74815","0.0-7.0-0.23","6175a0a52e748285b3476b27","64afc2c9a8732ea92db0087d","64afd5a08be969841ccd791f","null","null","<p style=""font-size: 60px; font-family: BACS"">OCmkRYlD</p>","","","","","","","",""
"html-keyboard-response","31","75824","0.0-7.0-0.24","6175a0a52e748285b3476b27","64afc2c9a8732ea92db0087d","64afd5a08be969841ccd791f","null","null","<p style=""font-size: 60px; font-family: BACS"">PhktkbTE</p>","","","","","","","",""
"html-keyboard-response","32","76826","0.0-7.0-0.25","6175a0a52e748285b3476b27","64afc2c9a8732ea92db0087d","64afd5a08be969841ccd791f","null","null","<p style=""font-size: 60px; font-family: BACS"">AlNUAZbl</p>","","","","","","","",""
"html-keyboard-response","33","77833","0.0-7.0-0.26","6175a0a52e748285b3476b27","64afc2c9a8732ea92db0087d","64afd5a08be969841ccd791f","null","null","<p style=""font-size: 60px; font-family: BACS"">kNuaAvdk</p>","","","","","","","",""
"html-keyboard-response","34","78847","0.0-7.0-0.27","6175a0a52e748285b3476b27","64afc2c9a8732ea92db0087d","64afd5a08be969841ccd791f","null","null","<p style=""font-size: 60px; font-family: BACS"">adYrcGlu</p>","","","","","","","",""
"html-keyboard-response","35","79862","0.0-7.0-0.28","6175a0a52e748285b3476b27","64afc2c9a8732ea92db0087d","64afd5a08be969841ccd791f","null","null","<p style=""font-size: 60px; font-family: BACS"">AlNUAvdk</p>","","","","","","","",""
"html-keyboard-response","36","80874","0.0-7.0-0.29","6175a0a52e748285b3476b27","64afc2c9a8732ea92db0087d","64afd5a08be969841ccd791f","null","null","<p style=""font-size: 60px; font-family: BACS"">PhktkdPc</p>","","","","","","","",""
"html-keyboard-response","37","81880","0.0-7.0-0.30","6175a0a52e748285b3476b27","64afc2c9a8732ea92db0087d","64afd5a08be969841ccd791f","null","null","<p style=""font-size: 60px; font-family: BACS"">AbKDCKOb</p>","","","","","","","",""
"html-keyboard-response","38","82886","0.0-7.0-0.31","6175a0a52e748285b3476b27","64afc2c9a8732ea92db0087d","64afd5a08be969841ccd791f","null","null","<p style=""font-size: 60px; font-family: BACS"">bRABtbTE</p>","","","","","","","",""
"html-keyboard-response","39","83896","0.0-7.0-0.32","6175a0a52e748285b3476b27","64afc2c9a8732ea92db0087d","64afd5a08be969841ccd791f","null","null","<p style=""font-size: 60px; font-family: BACS"">EtMDMBRDh</p>","","","","","","","",""
"html-keyboard-response","40","84903","0.0-7.0-0.33","6175a0a52e748285b3476b27","64afc2c9a8732ea92db0087d","64afd5a08be969841ccd791f","null","null","<p style=""font-size: 60px; font-family: BACS"">vkYGlQGb</p>","","","","","","","",""
"html-keyboard-response","41","85907","0.0-7.0-0.34","6175a0a52e748285b3476b27","64afc2c9a8732ea92db0087d","64afd5a08be969841ccd791f","null","null","<p style=""font-size: 60px; font-family: BACS"">DkTCPRYlD</p>","","","","","","","",""
"html-keyboard-response","42","86910","0.0-7.0-0.35","6175a0a52e748285b3476b27","64afc2c9a8732ea92db0087d","64afd5a08be969841ccd791f","null","null","<p style=""font-size: 60px; font-family: BACS"">vkYGlAvdk</p>","","","","","","","",""
"html-keyboard-response","43","87918","0.0-7.0-0.36","6175a0a52e748285b3476b27","64afc2c9a8732ea92db0087d","64afd5a08be969841ccd791f","null","null","<p style=""font-size: 60px; font-family: BACS"">bRABtCKOb</p>","","","","","","","",""
"html-keyboard-response","44","88927","0.0-7.0-0.37","6175a0a52e748285b3476b27","64afc2c9a8732ea92db0087d","64afd5a08be969841ccd791f","null","null","<p style=""font-size: 60px; font-family: BACS"">cAZuGlu</p>","","","","","","","",""
"html-keyboard-response","45","89930","0.0-7.0-0.38","6175a0a52e748285b3476b27","64afc2c9a8732ea92db0087d","64afd5a08be969841ccd791f","null","null","<p style=""font-size: 60px; font-family: BACS"">advYOAvdk</p>","","","","","","","",""
"html-keyboard-response","46","90940","0.0-7.0-0.39","6175a0a52e748285b3476b27","64afc2c9a8732ea92db0087d","64afd5a08be969841ccd791f","null","null","<p style=""font-size: 60px; font-family: BACS"">EhbtRYlD</p>","","","","","","","",""
"html-keyboard-response","47","91952","0.0-7.0-0.40","6175a0a52e748285b3476b27","64afc2c9a8732ea92db0087d","64afd5a08be969841ccd791f","null","null","<p style=""font-size: 60px; font-family: BACS"">AlNUQGb</p>","","","","","","","",""
"html-keyboard-response","48","92955","0.0-7.0-0.41","6175a0a52e748285b3476b27","64afc2c9a8732ea92db0087d","64afd5a08be969841ccd791f","null","null","<p style=""font-size: 60px; font-family: BACS"">DkTCPbTE</p>","","","","","","","",""
"html-keyboard-response","49","93967","0.0-7.0-0.42","6175a0a52e748285b3476b27","64afc2c9a8732ea92db0087d","64afd5a08be969841ccd791f","null","null","<p style=""font-size: 60px; font-family: BACS"">cdKBYRYlD</p>","","","","","","","",""
"html-keyboard-response","50","94978","0.0-7.0-0.43","6175a0a52e748285b3476b27","64afc2c9a8732ea92db0087d","64afd5a08be969841ccd791f","null","null","<p style=""font-size: 60px; font-family: BACS"">EtMDMbTE</p>","","","","","","","",""
"html-keyboard-response","51","95983","0.0-7.0-0.44","6175a0a52e748285b3476b27","64afc2c9a8732ea92db0087d","64afd5a08be969841ccd791f","null","null","<p style=""font-size: 60px; font-family: BACS"">bRABtdPc</p>","","","","","","","",""
"html-keyboard-response","52","96997","0.0-7.0-0.45","6175a0a52e748285b3476b27","64afc2c9a8732ea92db0087d","64afd5a08be969841ccd791f","null","null","<p style=""font-size: 60px; font-family: BACS"">kNuaGlu</p>","","","","","","","",""
"html-keyboard-response","53","98008","0.0-7.0-0.46","6175a0a52e748285b3476b27","64afc2c9a8732ea92db0087d","64afd5a08be969841ccd791f","null","null","<p style=""font-size: 60px; font-family: BACS"">cdKBYdPc</p>","","","","","","","",""
"html-keyboard-response","54","99014","0.0-7.0-0.47","6175a0a52e748285b3476b27","64afc2c9a8732ea92db0087d","64afd5a08be969841ccd791f","null","null","<p style=""font-size: 60px; font-family: BACS"">cAZuYmb</p>","","","","","","","",""
"html-keyboard-response","55","100024","0.0-7.0-0.48","6175a0a52e748285b3476b27","64afc2c9a8732ea92db0087d","64afd5a08be969841ccd791f","null","null","<p style=""font-size: 60px; font-family: BACS"">dmZvmAZbl</p>","","","","","","","",""
"html-keyboard-response","56","101030","0.0-7.0-0.49","6175a0a52e748285b3476b27","64afc2c9a8732ea92db0087d","64afd5a08be969841ccd791f","null","null","<p style=""font-size: 60px; font-family: BACS"">ctktbTE</p>","","","","","","","",""
"html-keyboard-response","57","102038","0.0-7.0-0.50","6175a0a52e748285b3476b27","64afc2c9a8732ea92db0087d","64afd5a08be969841ccd791f","null","null","<p style=""font-size: 60px; font-family: BACS"">DkTCPdPc</p>","","","","","","","",""
"html-keyboard-response","58","103042","0.0-7.0-0.51","6175a0a52e748285b3476b27","64afc2c9a8732ea92db0087d","64afd5a08be969841ccd791f","null","null","<p style=""font-size: 60px; font-family: BACS"">AZlLNQGb</p>","","","","","","","",""
"html-keyboard-response","59","104047","0.0-7.0-0.52","6175a0a52e748285b3476b27","64afc2c9a8732ea92db0087d","64afd5a08be969841ccd791f","null","null","<p style=""font-size: 60px; font-family: BACS"">AbKDRYlD</p>","","","","","","","",""
"html-keyboard-response","60","105051","0.0-7.0-0.53","6175a0a52e748285b3476b27","64afc2c9a8732ea92db0087d","64afd5a08be969841ccd791f","null","null","<p style=""font-size: 60px; font-family: BACS"">cAZuAZbl</p>","","","","","","","",""
"html-keyboard-response","61","106058","0.0-7.0-0.54","6175a0a52e748285b3476b27","64afc2c9a8732ea92db0087d","64afd5a08be969841ccd791f","null","null","<p style=""font-size: 60px; font-family: BACS"">OCmkBRDh</p>","","","","","","","",""
"html-keyboard-response","62","107063","0.0-7.0-0.55","6175a0a52e748285b3476b27","64afc2c9a8732ea92db0087d","64afd5a08be969841ccd791f","null","null","<p style=""font-size: 60px; font-family: BACS"">lBKtRYlD</p>","","","","","","","",""
"html-keyboard-response","63","108066","0.0-7.0-0.56","6175a0a52e748285b3476b27","64afc2c9a8732ea92db0087d","64afd5a08be969841ccd791f","null","null","<p style=""font-size: 60px; font-family: BACS"">vkYGlGlu</p>","","","","","","","",""
"html-keyboard-response","64","109077","0.0-7.0-0.57","6175a0a52e748285b3476b27","64afc2c9a8732ea92db0087d","64afd5a08be969841ccd791f","null","null","<p style=""font-size: 60px; font-family: BACS"">kNuaAZbl</p>","","","","","","","",""
"html-keyboard-response","65","110085","0.0-7.0-0.58","6175a0a52e748285b3476b27","64afc2c9a8732ea92db0087d","64afd5a08be969841ccd791f","null","null","<p style=""font-size: 60px; font-family: BACS"">AZlLNGlu</p>","","","","","","","",""
"html-keyboard-response","66","111088","0.0-7.0-0.59","6175a0a52e748285b3476b27","64afc2c9a8732ea92db0087d","64afd5a08be969841ccd791f","null","null","<p style=""font-size: 60px; font-family: BACS"">advYOQGb</p>","","","","","","","",""
"html-keyboard-response","67","112093","0.0-7.0-0.60","6175a0a52e748285b3476b27","64afc2c9a8732ea92db0087d","64afd5a08be969841ccd791f","null","null","<p style=""font-size: 60px; font-family: BACS"">AbKDBRDh</p>","","","","","","","",""
"html-keyboard-response","68","113098","0.0-7.0-0.61","6175a0a52e748285b3476b27","64afc2c9a8732ea92db0087d","64afd5a08be969841ccd791f","null","null","<p style=""font-size: 60px; font-family: BACS"">PhktkRYlD</p>","","","","","","","",""
"html-keyboard-response","69","114105","0.0-7.0-0.62","6175a0a52e748285b3476b27","64afc2c9a8732ea92db0087d","64afd5a08be969841ccd791f","null","null","<p style=""font-size: 60px; font-family: BACS"">ctktBRDh</p>","","","","","","","",""
"html-keyboard-response","70","115112","0.0-7.0-0.63","6175a0a52e748285b3476b27","64afc2c9a8732ea92db0087d","64afd5a08be969841ccd791f","null","null","<p style=""font-size: 60px; font-family: BACS"">kNuaYmb</p>","","","","","","","",""
"html-keyboard-response","71","116119","0.0-7.0-0.64","6175a0a52e748285b3476b27","64afc2c9a8732ea92db0087d","64afd5a08be969841ccd791f","null","null","<p style=""font-size: 60px; font-family: BACS"">lBKtbTE</p>","","","","","","","",""
"html-keyboard-response","72","117130","0.0-7.0-0.65","6175a0a52e748285b3476b27","64afc2c9a8732ea92db0087d","64afd5a08be969841ccd791f","null","null","<p style=""font-size: 60px; font-family: BACS"">DkTCPBRDh</p>","","","","","","","",""
"html-keyboard-response","73","118130","0.0-7.0-0.66","6175a0a52e748285b3476b27","64afc2c9a8732ea92db0087d","64afd5a08be969841ccd791f","null","null","<p style=""font-size: 60px; font-family: BACS"">OdlNmGlu</p>","","","","","","","",""
"html-keyboard-response","74","119138","0.0-7.0-0.67","6175a0a52e748285b3476b27","64afc2c9a8732ea92db0087d","64afd5a08be969841ccd791f","null","null","<p style=""font-size: 60px; font-family: BACS"">adkrAvdk</p>","","","","","","","",""
"html-keyboard-response","75","120143","0.0-7.0-0.68","6175a0a52e748285b3476b27","64afc2c9a8732ea92db0087d","64afd5a08be969841ccd791f","null","null","<p style=""font-size: 60px; font-family: BACS"">cdKBYBRDh</p>","","","","","","","",""
"html-keyboard-response","76","121147","0.0-7.0-0.69","6175a0a52e748285b3476b27","64afc2c9a8732ea92db0087d","64afd5a08be969841ccd791f","null","null","<p style=""font-size: 60px; font-family: BACS"">bRABtRYlD</p>","","","","","","","",""
"html-keyboard-response","77","122152","0.0-7.0-0.70","6175a0a52e748285b3476b27","64afc2c9a8732ea92db0087d","64afd5a08be969841ccd791f","null","null","<p style=""font-size: 60px; font-family: BACS"">dmZvmQGb</p>","","","","","","","",""
"html-keyboard-response","78","123154","0.0-7.0-0.71","6175a0a52e748285b3476b27","64afc2c9a8732ea92db0087d","64afd5a08be969841ccd791f","null","null","<p style=""font-size: 60px; font-family: BACS"">AlNUYmb</p>","","","","","","","",""
"html-keyboard-response","79","124156","0.0-7.0-0.72","6175a0a52e748285b3476b27","64afc2c9a8732ea92db0087d","64afd5a08be969841ccd791f","null","null","<p style=""font-size: 60px; font-family: BACS"">OCmkCKOb</p>","","","","","","","",""
"html-keyboard-response","80","125161","0.0-7.0-0.73","6175a0a52e748285b3476b27","64afc2c9a8732ea92db0087d","64afd5a08be969841ccd791f","null","null","<p style=""font-size: 60px; font-family: BACS"">advYOYmb</p>","","","","","","","",""
"html-keyboard-response","81","126175","0.0-7.0-0.74","6175a0a52e748285b3476b27","64afc2c9a8732ea92db0087d","64afd5a08be969841ccd791f","null","null","<p style=""font-size: 60px; font-family: BACS"">cdKBYCKOb</p>","","","","","","","",""
"html-keyboard-response","82","127181","0.0-7.0-0.75","6175a0a52e748285b3476b27","64afc2c9a8732ea92db0087d","64afd5a08be969841ccd791f","null","null","<p style=""font-size: 60px; font-family: BACS"">adYrcQGb</p>","","","","","","","",""
"html-keyboard-response","83","128181","0.0-7.0-0.76","6175a0a52e748285b3476b27","64afc2c9a8732ea92db0087d","64afd5a08be969841ccd791f","null","null","<p style=""font-size: 60px; font-family: BACS"">vkYGlYmb</p>","","","","","","","",""
"html-keyboard-response","84","129186","0.0-7.0-0.77","6175a0a52e748285b3476b27","64afc2c9a8732ea92db0087d","64afd5a08be969841ccd791f","null","null","<p style=""font-size: 60px; font-family: BACS"">adkrAZbl</p>","","","","","","","",""
"html-keyboard-response","85","130189","0.0-7.0-0.78","6175a0a52e748285b3476b27","64afc2c9a8732ea92db0087d","64afd5a08be969841ccd791f","null","null","<p style=""font-size: 60px; font-family: BACS"">AZlLNYmb</p>","","","","","","","",""
"html-keyboard-response","86","131193","0.0-7.0-0.79","6175a0a52e748285b3476b27","64afc2c9a8732ea92db0087d","64afd5a08be969841ccd791f","null","null","<p style=""font-size: 60px; font-family: BACS"">adkrGlu</p>","","","","","","","",""
"html-keyboard-response","87","162322","0.0-8.0","6175a0a52e748285b3476b27","64afc2c9a8732ea92db0087d","64afd5a08be969841ccd791f","31130"," ","<p>Ottimo, hai visto il primo blocco di parole. Ora puoi prenderti una piccola pausa.</p>
      <p>Premi la barra quando sei pronta/o per riprendere.</p>","","","","","","","",""
"html-keyboard-response","88","163325","0.0-9.0-0.0","6175a0a52e748285b3476b27","64afc2c9a8732ea92db0087d","64afd5a08be969841ccd791f","null","null","<p style=""font-size: 60px; font-family: BACS"">cAZuAZbl</p>","","","","","","","",""
"html-keyboard-response","89","164336","0.0-9.0-0.1","6175a0a52e748285b3476b27","64afc2c9a8732ea92db0087d","64afd5a08be969841ccd791f","null","null","<p style=""font-size: 60px; font-family: BACS"">PhktkbTE</p>","","","","","","","",""
"html-keyboard-response","90","165345","0.0-9.0-0.2","6175a0a52e748285b3476b27","64afc2c9a8732ea92db0087d","64afd5a08be969841ccd791f","null","null","<p style=""font-size: 60px; font-family: BACS"">adkrYmb</p>","","","","","","","",""
"html-keyboard-response","91","166356","0.0-9.0-0.3","6175a0a52e748285b3476b27","64afc2c9a8732ea92db0087d","64afd5a08be969841ccd791f","null","null","<p style=""font-size: 60px; font-family: BACS"">bRABtbTE</p>","","","","","","","",""
"html-keyboard-response","92","167366","0.0-9.0-0.4","6175a0a52e748285b3476b27","64afc2c9a8732ea92db0087d","64afd5a08be969841ccd791f","null","null","<p style=""font-size: 60px; font-family: BACS"">AbKDBRDh</p>","","","","","","","",""
"html-keyboard-response","93","168373","0.0-9.0-0.5","6175a0a52e748285b3476b27","64afc2c9a8732ea92db0087d","64afd5a08be969841ccd791f","null","null","<p style=""font-size: 60px; font-family: BACS"">vkYGlQGb</p>","","","","","","","",""
"html-keyboard-response","94","169380","0.0-9.0-0.6","6175a0a52e748285b3476b27","64afc2c9a8732ea92db0087d","64afd5a08be969841ccd791f","null","null","<p style=""font-size: 60px; font-family: BACS"">kNuaYmb</p>","","","","","","","",""
"html-keyboard-response","95","170387","0.0-9.0-0.7","6175a0a52e748285b3476b27","64afc2c9a8732ea92db0087d","64afd5a08be969841ccd791f","null","null","<p style=""font-size: 60px; font-family: BACS"">dmZvmQGb</p>","","","","","","","",""
"html-keyboard-response","96","171391","0.0-9.0-0.8","6175a0a52e748285b3476b27","64afc2c9a8732ea92db0087d","64afd5a08be969841ccd791f","null","null","<p style=""font-size: 60px; font-family: BACS"">bRABtCKOb</p>","","","","","","","",""
"html-keyboard-response","97","172392","0.0-9.0-0.9","6175a0a52e748285b3476b27","64afc2c9a8732ea92db0087d","64afd5a08be969841ccd791f","null","null","<p style=""font-size: 60px; font-family: BACS"">lBKtbTE</p>","","","","","","","",""
"html-keyboard-response","98","173396","0.0-9.0-0.10","6175a0a52e748285b3476b27","64afc2c9a8732ea92db0087d","64afd5a08be969841ccd791f","null","null","<p style=""font-size: 60px; font-family: BACS"">cAZuYmb</p>","","","","","","","",""
"html-keyboard-response","99","174407","0.0-9.0-0.11","6175a0a52e748285b3476b27","64afc2c9a8732ea92db0087d","64afd5a08be969841ccd791f","null","null","<p style=""font-size: 60px; font-family: BACS"">PhktkRYlD</p>","","","","","","","",""
"html-keyboard-response","100","175408","0.0-9.0-0.12","6175a0a52e748285b3476b27","64afc2c9a8732ea92db0087d","64afd5a08be969841ccd791f","null","null","<p style=""font-size: 60px; font-family: BACS"">cAZuQGb</p>","","","","","","","",""
"html-keyboard-response","101","176411","0.0-9.0-0.13","6175a0a52e748285b3476b27","64afc2c9a8732ea92db0087d","64afd5a08be969841ccd791f","null","null","<p style=""font-size: 60px; font-family: BACS"">OCmkBRDh</p>","","","","","","","",""
"html-keyboard-response","102","177420","0.0-9.0-0.14","6175a0a52e748285b3476b27","64afc2c9a8732ea92db0087d","64afd5a08be969841ccd791f","null","null","<p style=""font-size: 60px; font-family: BACS"">DkTCPbTE</p>","","","","","","","",""
"html-keyboard-response","103","178425","0.0-9.0-0.15","6175a0a52e748285b3476b27","64afc2c9a8732ea92db0087d","64afd5a08be969841ccd791f","null","null","<p style=""font-size: 60px; font-family: BACS"">adkrGlu</p>","","","","","","","",""
"html-keyboard-response","104","179431","0.0-9.0-0.16","6175a0a52e748285b3476b27","64afc2c9a8732ea92db0087d","64afd5a08be969841ccd791f","null","null","<p style=""font-size: 60px; font-family: BACS"">DkTCPRYlD</p>","","","","","","","",""
"html-keyboard-response","105","180445","0.0-9.0-0.17","6175a0a52e748285b3476b27","64afc2c9a8732ea92db0087d","64afd5a08be969841ccd791f","null","null","<p style=""font-size: 60px; font-family: BACS"">ctktCKOb</p>","","","","","","","",""
"html-keyboard-response","106","181453","0.0-9.0-0.18","6175a0a52e748285b3476b27","64afc2c9a8732ea92db0087d","64afd5a08be969841ccd791f","null","null","<p style=""font-size: 60px; font-family: BACS"">cdKBYdPc</p>","","","","","","","",""
"html-keyboard-response","107","182460","0.0-9.0-0.19","6175a0a52e748285b3476b27","64afc2c9a8732ea92db0087d","64afd5a08be969841ccd791f","null","null","<p style=""font-size: 60px; font-family: BACS"">ctktbTE</p>","","","","","","","",""
"html-keyboard-response","108","183462","0.0-9.0-0.20","6175a0a52e748285b3476b27","64afc2c9a8732ea92db0087d","64afd5a08be969841ccd791f","null","null","<p style=""font-size: 60px; font-family: BACS"">EtMDMdPc</p>","","","","","","","",""
"html-keyboard-response","109","184471","0.0-9.0-0.21","6175a0a52e748285b3476b27","64afc2c9a8732ea92db0087d","64afd5a08be969841ccd791f","null","null","<p style=""font-size: 60px; font-family: BACS"">bRABtRYlD</p>","","","","","","","",""
"html-keyboard-response","110","185472","0.0-9.0-0.22","6175a0a52e748285b3476b27","64afc2c9a8732ea92db0087d","64afd5a08be969841ccd791f","null","null","<p style=""font-size: 60px; font-family: BACS"">AbKDbTE</p>","","","","","","","",""
"html-keyboard-response","111","186478","0.0-9.0-0.23","6175a0a52e748285b3476b27","64afc2c9a8732ea92db0087d","64afd5a08be969841ccd791f","null","null","<p style=""font-size: 60px; font-family: BACS"">EtMDMBRDh</p>","","","","","","","",""
"html-keyboard-response","112","187482","0.0-9.0-0.24","6175a0a52e748285b3476b27","64afc2c9a8732ea92db0087d","64afd5a08be969841ccd791f","null","null","<p style=""font-size: 60px; font-family: BACS"">EhbtbTE</p>","","","","","","","",""
"html-keyboard-response","113","188488","0.0-9.0-0.25","6175a0a52e748285b3476b27","64afc2c9a8732ea92db0087d","64afd5a08be969841ccd791f","null","null","<p style=""font-size: 60px; font-family: BACS"">ctktBRDh</p>","","","","","","","",""
"html-keyboard-response","114","189497","0.0-9.0-0.26","6175a0a52e748285b3476b27","64afc2c9a8732ea92db0087d","64afd5a08be969841ccd791f","null","null","<p style=""font-size: 60px; font-family: BACS"">lBKtRYlD</p>","","","","","","","",""
"html-keyboard-response","115","190505","0.0-9.0-0.27","6175a0a52e748285b3476b27","64afc2c9a8732ea92db0087d","64afd5a08be969841ccd791f","null","null","<p style=""font-size: 60px; font-family: BACS"">advYOAZbl</p>","","","","","","","",""
"html-keyboard-response","116","191517","0.0-9.0-0.28","6175a0a52e748285b3476b27","64afc2c9a8732ea92db0087d","64afd5a08be969841ccd791f","null","null","<p style=""font-size: 60px; font-family: BACS"">EhbtCKOb</p>","","","","","","","",""
"html-keyboard-response","117","192527","0.0-9.0-0.29","6175a0a52e748285b3476b27","64afc2c9a8732ea92db0087d","64afd5a08be969841ccd791f","null","null","<p style=""font-size: 60px; font-family: BACS"">PhktkBRDh</p>","","","","","","","",""
"html-keyboard-response","118","193535","0.0-9.0-0.30","6175a0a52e748285b3476b27","64afc2c9a8732ea92db0087d","64afd5a08be969841ccd791f","null","null","<p style=""font-size: 60px; font-family: BACS"">DkTCPdPc</p>","","","","","","","",""
"html-keyboard-response","119","194541","0.0-9.0-0.31","6175a0a52e748285b3476b27","64afc2c9a8732ea92db0087d","64afd5a08be969841ccd791f","null","null","<p style=""font-size: 60px; font-family: BACS"">AlNUAvdk</p>","","","","","","","",""
"html-keyboard-response","120","195549","0.0-9.0-0.32","6175a0a52e748285b3476b27","64afc2c9a8732ea92db0087d","64afd5a08be969841ccd791f","null","null","<p style=""font-size: 60px; font-family: BACS"">cAZuGlu</p>","","","","","","","",""
"html-keyboard-response","121","196557","0.0-9.0-0.33","6175a0a52e748285b3476b27","64afc2c9a8732ea92db0087d","64afd5a08be969841ccd791f","null","null","<p style=""font-size: 60px; font-family: BACS"">lBKtdPc</p>","","","","","","","",""
"html-keyboard-response","122","197563","0.0-9.0-0.34","6175a0a52e748285b3476b27","64afc2c9a8732ea92db0087d","64afd5a08be969841ccd791f","null","null","<p style=""font-size: 60px; font-family: BACS"">AZlLNQGb</p>","","","","","","","",""
"html-keyboard-response","123","198564","0.0-9.0-0.35","6175a0a52e748285b3476b27","64afc2c9a8732ea92db0087d","64afd5a08be969841ccd791f","null","null","<p style=""font-size: 60px; font-family: BACS"">vkYGlYmb</p>","","","","","","","",""
"html-keyboard-response","124","199570","0.0-9.0-0.36","6175a0a52e748285b3476b27","64afc2c9a8732ea92db0087d","64afd5a08be969841ccd791f","null","null","<p style=""font-size: 60px; font-family: BACS"">adYrcGlu</p>","","","","","","","",""
"html-keyboard-response","125","200573","0.0-9.0-0.37","6175a0a52e748285b3476b27","64afc2c9a8732ea92db0087d","64afd5a08be969841ccd791f","null","null","<p style=""font-size: 60px; font-family: BACS"">DkTCPBRDh</p>","","","","","","","",""
"html-keyboard-response","126","201579","0.0-9.0-0.38","6175a0a52e748285b3476b27","64afc2c9a8732ea92db0087d","64afd5a08be969841ccd791f","null","null","<p style=""font-size: 60px; font-family: BACS"">OdlNmQGb</p>","","","","","","","",""
"html-keyboard-response","127","202585","0.0-9.0-0.39","6175a0a52e748285b3476b27","64afc2c9a8732ea92db0087d","64afd5a08be969841ccd791f","null","null","<p style=""font-size: 60px; font-family: BACS"">OCmkRYlD</p>","","","","","","","",""
"html-keyboard-response","128","203589","0.0-9.0-0.40","6175a0a52e748285b3476b27","64afc2c9a8732ea92db0087d","64afd5a08be969841ccd791f","null","null","<p style=""font-size: 60px; font-family: BACS"">advYOQGb</p>","","","","","","","",""
"html-keyboard-response","129","204594","0.0-9.0-0.41","6175a0a52e748285b3476b27","64afc2c9a8732ea92db0087d","64afd5a08be969841ccd791f","null","null","<p style=""font-size: 60px; font-family: BACS"">AbKDCKOb</p>","","","","","","","",""
"html-keyboard-response","130","205599","0.0-9.0-0.42","6175a0a52e748285b3476b27","64afc2c9a8732ea92db0087d","64afd5a08be969841ccd791f","null","null","<p style=""font-size: 60px; font-family: BACS"">EtMDMbTE</p>","","","","","","","",""
"html-keyboard-response","131","206605","0.0-9.0-0.43","6175a0a52e748285b3476b27","64afc2c9a8732ea92db0087d","64afd5a08be969841ccd791f","null","null","<p style=""font-size: 60px; font-family: BACS"">adkrAZbl</p>","","","","","","","",""
"html-keyboard-response","132","207607","0.0-9.0-0.44","6175a0a52e748285b3476b27","64afc2c9a8732ea92db0087d","64afd5a08be969841ccd791f","null","null","<p style=""font-size: 60px; font-family: BACS"">cdKBYBRDh</p>","","","","","","","",""
"html-keyboard-response","133","208616","0.0-9.0-0.45","6175a0a52e748285b3476b27","64afc2c9a8732ea92db0087d","64afd5a08be969841ccd791f","null","null","<p style=""font-size: 60px; font-family: BACS"">adkrAvdk</p>","","","","","","","",""
"html-keyboard-response","134","209618","0.0-9.0-0.46","6175a0a52e748285b3476b27","64afc2c9a8732ea92db0087d","64afd5a08be969841ccd791f","null","null","<p style=""font-size: 60px; font-family: BACS"">EtMDMCKOb</p>","","","","","","","",""
"html-keyboard-response","135","210624","0.0-9.0-0.47","6175a0a52e748285b3476b27","64afc2c9a8732ea92db0087d","64afd5a08be969841ccd791f","null","null","<p style=""font-size: 60px; font-family: BACS"">dmZvmGlu</p>","","","","","","","",""
"html-keyboard-response","136","211632","0.0-9.0-0.48","6175a0a52e748285b3476b27","64afc2c9a8732ea92db0087d","64afd5a08be969841ccd791f","null","null","<p style=""font-size: 60px; font-family: BACS"">vkYGlAvdk</p>","","","","","","","",""
"html-keyboard-response","137","212638","0.0-9.0-0.49","6175a0a52e748285b3476b27","64afc2c9a8732ea92db0087d","64afd5a08be969841ccd791f","null","null","<p style=""font-size: 60px; font-family: BACS"">EhbtBRDh</p>","","","","","","","",""
"html-keyboard-response","138","213646","0.0-9.0-0.50","6175a0a52e748285b3476b27","64afc2c9a8732ea92db0087d","64afd5a08be969841ccd791f","null","null","<p style=""font-size: 60px; font-family: BACS"">kNuaGlu</p>","","","","","","","",""
"html-keyboard-response","139","214653","0.0-9.0-0.51","6175a0a52e748285b3476b27","64afc2c9a8732ea92db0087d","64afd5a08be969841ccd791f","null","null","<p style=""font-size: 60px; font-family: BACS"">OCmkCKOb</p>","","","","","","","",""
"html-keyboard-response","140","215663","0.0-9.0-0.52","6175a0a52e748285b3476b27","64afc2c9a8732ea92db0087d","64afd5a08be969841ccd791f","null","null","<p style=""font-size: 60px; font-family: BACS"">AlNUYmb</p>","","","","","","","",""
"html-keyboard-response","141","216663","0.0-9.0-0.53","6175a0a52e748285b3476b27","64afc2c9a8732ea92db0087d","64afd5a08be969841ccd791f","null","null","<p style=""font-size: 60px; font-family: BACS"">cdKBYCKOb</p>","","","","","","","",""
"html-keyboard-response","142","217678","0.0-9.0-0.54","6175a0a52e748285b3476b27","64afc2c9a8732ea92db0087d","64afd5a08be969841ccd791f","null","null","<p style=""font-size: 60px; font-family: BACS"">vkYGlGlu</p>","","","","","","","",""
"html-keyboard-response","143","218690","0.0-9.0-0.55","6175a0a52e748285b3476b27","64afc2c9a8732ea92db0087d","64afd5a08be969841ccd791f","null","null","<p style=""font-size: 60px; font-family: BACS"">PhktkdPc</p>","","","","","","","",""
"html-keyboard-response","144","219705","0.0-9.0-0.56","6175a0a52e748285b3476b27","64afc2c9a8732ea92db0087d","64afd5a08be969841ccd791f","null","null","<p style=""font-size: 60px; font-family: BACS"">kNuaAvdk</p>","","","","","","","",""
"html-keyboard-response","145","220718","0.0-9.0-0.57","6175a0a52e748285b3476b27","64afc2c9a8732ea92db0087d","64afd5a08be969841ccd791f","null","null","<p style=""font-size: 60px; font-family: BACS"">OdlNmAZbl</p>","","","","","","","",""
"html-keyboard-response","146","221723","0.0-9.0-0.58","6175a0a52e748285b3476b27","64afc2c9a8732ea92db0087d","64afd5a08be969841ccd791f","null","null","<p style=""font-size: 60px; font-family: BACS"">EhbtRYlD</p>","","","","","","","",""
"html-keyboard-response","147","222733","0.0-9.0-0.59","6175a0a52e748285b3476b27","64afc2c9a8732ea92db0087d","64afd5a08be969841ccd791f","null","null","<p style=""font-size: 60px; font-family: BACS"">lBKtCKOb</p>","","","","","","","",""
"html-keyboard-response","148","223748","0.0-9.0-0.60","6175a0a52e748285b3476b27","64afc2c9a8732ea92db0087d","64afd5a08be969841ccd791f","null","null","<p style=""font-size: 60px; font-family: BACS"">advYOAvdk</p>","","","","","","","",""
"html-keyboard-response","149","224764","0.0-9.0-0.61","6175a0a52e748285b3476b27","64afc2c9a8732ea92db0087d","64afd5a08be969841ccd791f","null","null","<p style=""font-size: 60px; font-family: BACS"">AbKDRYlD</p>","","","","","","","",""
"html-keyboard-response","150","225778","0.0-9.0-0.62","6175a0a52e748285b3476b27","64afc2c9a8732ea92db0087d","64afd5a08be969841ccd791f","null","null","<p style=""font-size: 60px; font-family: BACS"">AZlLNGlu</p>","","","","","","","",""
"html-keyboard-response","151","226794","0.0-9.0-0.63","6175a0a52e748285b3476b27","64afc2c9a8732ea92db0087d","64afd5a08be969841ccd791f","null","null","<p style=""font-size: 60px; font-family: BACS"">dmZvmYmb</p>","","","","","","","",""
"html-keyboard-response","152","227808","0.0-9.0-0.64","6175a0a52e748285b3476b27","64afc2c9a8732ea92db0087d","64afd5a08be969841ccd791f","null","null","<p style=""font-size: 60px; font-family: BACS"">OdlNmAvdk</p>","","","","","","","",""
"html-keyboard-response","153","228822","0.0-9.0-0.65","6175a0a52e748285b3476b27","64afc2c9a8732ea92db0087d","64afd5a08be969841ccd791f","null","null","<p style=""font-size: 60px; font-family: BACS"">adYrcQGb</p>","","","","","","","",""
"html-keyboard-response","154","229824","0.0-9.0-0.66","6175a0a52e748285b3476b27","64afc2c9a8732ea92db0087d","64afd5a08be969841ccd791f","null","null","<p style=""font-size: 60px; font-family: BACS"">cdKBYRYlD</p>","","","","","","","",""
"html-keyboard-response","155","230831","0.0-9.0-0.67","6175a0a52e748285b3476b27","64afc2c9a8732ea92db0087d","64afd5a08be969841ccd791f","null","null","<p style=""font-size: 60px; font-family: BACS"">bRABtdPc</p>","","","","","","","",""
"html-keyboard-response","156","231833","0.0-9.0-0.68","6175a0a52e748285b3476b27","64afc2c9a8732ea92db0087d","64afd5a08be969841ccd791f","null","null","<p style=""font-size: 60px; font-family: BACS"">kNuaAZbl</p>","","","","","","","",""
"html-keyboard-response","157","232834","0.0-9.0-0.69","6175a0a52e748285b3476b27","64afc2c9a8732ea92db0087d","64afd5a08be969841ccd791f","null","null","<p style=""font-size: 60px; font-family: BACS"">AZlLNYmb</p>","","","","","","","",""
"html-keyboard-response","158","233839","0.0-9.0-0.70","6175a0a52e748285b3476b27","64afc2c9a8732ea92db0087d","64afd5a08be969841ccd791f","null","null","<p style=""font-size: 60px; font-family: BACS"">adYrcAZbl</p>","","","","","","","",""
"html-keyboard-response","159","234849","0.0-9.0-0.71","6175a0a52e748285b3476b27","64afc2c9a8732ea92db0087d","64afd5a08be969841ccd791f","null","null","<p style=""font-size: 60px; font-family: BACS"">AlNUQGb</p>","","","","","","","",""
"html-keyboard-response","160","235853","0.0-9.0-0.72","6175a0a52e748285b3476b27","64afc2c9a8732ea92db0087d","64afd5a08be969841ccd791f","null","null","<p style=""font-size: 60px; font-family: BACS"">dmZvmAZbl</p>","","","","","","","",""
"html-keyboard-response","161","236858","0.0-9.0-0.73","6175a0a52e748285b3476b27","64afc2c9a8732ea92db0087d","64afd5a08be969841ccd791f","null","null","<p style=""font-size: 60px; font-family: BACS"">AZlLNAvdk</p>","","","","","","","",""
"html-keyboard-response","162","237865","0.0-9.0-0.74","6175a0a52e748285b3476b27","64afc2c9a8732ea92db0087d","64afd5a08be969841ccd791f","null","null","<p style=""font-size: 60px; font-family: BACS"">ctktdPc</p>","","","","","","","",""
"html-keyboard-response","163","238866","0.0-9.0-0.75","6175a0a52e748285b3476b27","64afc2c9a8732ea92db0087d","64afd5a08be969841ccd791f","null","null","<p style=""font-size: 60px; font-family: BACS"">AlNUAZbl</p>","","","","","","","",""
"html-keyboard-response","164","239879","0.0-9.0-0.76","6175a0a52e748285b3476b27","64afc2c9a8732ea92db0087d","64afd5a08be969841ccd791f","null","null","<p style=""font-size: 60px; font-family: BACS"">adYrcAvdk</p>","","","","","","","",""
"html-keyboard-response","165","240888","0.0-9.0-0.77","6175a0a52e748285b3476b27","64afc2c9a8732ea92db0087d","64afd5a08be969841ccd791f","null","null","<p style=""font-size: 60px; font-family: BACS"">OCmkdPc</p>","","","","","","","",""
"html-keyboard-response","166","241893","0.0-9.0-0.78","6175a0a52e748285b3476b27","64afc2c9a8732ea92db0087d","64afd5a08be969841ccd791f","null","null","<p style=""font-size: 60px; font-family: BACS"">advYOYmb</p>","","","","","","","",""
"html-keyboard-response","167","242896","0.0-9.0-0.79","6175a0a52e748285b3476b27","64afc2c9a8732ea92db0087d","64afd5a08be969841ccd791f","null","null","<p style=""font-size: 60px; font-family: BACS"">OdlNmGlu</p>","","","","","","","",""
"html-keyboard-response","168","245327","0.0-10.0","6175a0a52e748285b3476b27","64afc2c9a8732ea92db0087d","64afd5a08be969841ccd791f","2429"," ","<p>Ottimo, hai visto il secondo blocco di parole. Ora puoi prenderti una piccola pausa.</p>
      <p>Premi la barra quando sei pronta/o per riprendere.</p>","","","","","","","",""
"html-keyboard-response","169","246330","0.0-11.0-0.0","6175a0a52e748285b3476b27","64afc2c9a8732ea92db0087d","64afd5a08be969841ccd791f","null","null","<p style=""font-size: 60px; font-family: BACS"">bRABtbTE</p>","","","","","","","",""
"html-keyboard-response","170","247336","0.0-11.0-0.1","6175a0a52e748285b3476b27","64afc2c9a8732ea92db0087d","64afd5a08be969841ccd791f","null","null","<p style=""font-size: 60px; font-family: BACS"">EtMDMCKOb</p>","","","","","","","",""
"html-keyboard-response","171","248341","0.0-11.0-0.2","6175a0a52e748285b3476b27","64afc2c9a8732ea92db0087d","64afd5a08be969841ccd791f","null","null","<p style=""font-size: 60px; font-family: BACS"">AZlLNYmb</p>","","","","","","","",""
"html-keyboard-response","172","249342","0.0-11.0-0.3","6175a0a52e748285b3476b27","64afc2c9a8732ea92db0087d","64afd5a08be969841ccd791f","null","null","<p style=""font-size: 60px; font-family: BACS"">EtMDMbTE</p>","","","","","","","",""
"html-keyboard-response","173","250346","0.0-11.0-0.4","6175a0a52e748285b3476b27","64afc2c9a8732ea92db0087d","64afd5a08be969841ccd791f","null","null","<p style=""font-size: 60px; font-family: BACS"">adYrcAZbl</p>","","","","","","","",""
"html-keyboard-response","174","251353","0.0-11.0-0.5","6175a0a52e748285b3476b27","64afc2c9a8732ea92db0087d","64afd5a08be969841ccd791f","null","null","<p style=""font-size: 60px; font-family: BACS"">bRABtdPc</p>","","","","","","","",""
"html-keyboard-response","175","252361","0.0-11.0-0.6","6175a0a52e748285b3476b27","64afc2c9a8732ea92db0087d","64afd5a08be969841ccd791f","null","null","<p style=""font-size: 60px; font-family: BACS"">OdlNmAvdk</p>","","","","","","","",""
"html-keyboard-response","176","253371","0.0-11.0-0.7","6175a0a52e748285b3476b27","64afc2c9a8732ea92db0087d","64afd5a08be969841ccd791f","null","null","<p style=""font-size: 60px; font-family: BACS"">AbKDBRDh</p>","","","","","","","",""
"html-keyboard-response","177","254380","0.0-11.0-0.8","6175a0a52e748285b3476b27","64afc2c9a8732ea92db0087d","64afd5a08be969841ccd791f","null","null","<p style=""font-size: 60px; font-family: BACS"">ctktdPc</p>","","","","","","","",""
"html-keyboard-response","178","255390","0.0-11.0-0.9","6175a0a52e748285b3476b27","64afc2c9a8732ea92db0087d","64afd5a08be969841ccd791f","null","null","<p style=""font-size: 60px; font-family: BACS"">EhbtbTE</p>","","","","","","","",""
"html-keyboard-response","179","256394","0.0-11.0-0.10","6175a0a52e748285b3476b27","64afc2c9a8732ea92db0087d","64afd5a08be969841ccd791f","null","null","<p style=""font-size: 60px; font-family: BACS"">vkYGlGlu</p>","","","","","","","",""
"html-keyboard-response","180","257405","0.0-11.0-0.11","6175a0a52e748285b3476b27","64afc2c9a8732ea92db0087d","64afd5a08be969841ccd791f","null","null","<p style=""font-size: 60px; font-family: BACS"">DkTCPdPc</p>","","","","","","","",""
"html-keyboard-response","181","258412","0.0-11.0-0.12","6175a0a52e748285b3476b27","64afc2c9a8732ea92db0087d","64afd5a08be969841ccd791f","null","null","<p style=""font-size: 60px; font-family: BACS"">ctktCKOb</p>","","","","","","","",""
"html-keyboard-response","182","259418","0.0-11.0-0.13","6175a0a52e748285b3476b27","64afc2c9a8732ea92db0087d","64afd5a08be969841ccd791f","null","null","<p style=""font-size: 60px; font-family: BACS"">adkrAvdk</p>","","","","","","","",""
"html-keyboard-response","183","260420","0.0-11.0-0.14","6175a0a52e748285b3476b27","64afc2c9a8732ea92db0087d","64afd5a08be969841ccd791f","null","null","<p style=""font-size: 60px; font-family: BACS"">OdlNmAZbl</p>","","","","","","","",""
"html-keyboard-response","184","261425","0.0-11.0-0.15","6175a0a52e748285b3476b27","64afc2c9a8732ea92db0087d","64afd5a08be969841ccd791f","null","null","<p style=""font-size: 60px; font-family: BACS"">vkYGlQGb</p>","","","","","","","",""
"html-keyboard-response","185","262429","0.0-11.0-0.16","6175a0a52e748285b3476b27","64afc2c9a8732ea92db0087d","64afd5a08be969841ccd791f","null","null","<p style=""font-size: 60px; font-family: BACS"">lBKtCKOb</p>","","","","","","","",""
"html-keyboard-response","186","263435","0.0-11.0-0.17","6175a0a52e748285b3476b27","64afc2c9a8732ea92db0087d","64afd5a08be969841ccd791f","null","null","<p style=""font-size: 60px; font-family: BACS"">vkYGlYmb</p>","","","","","","","",""
"html-keyboard-response","187","264439","0.0-11.0-0.18","6175a0a52e748285b3476b27","64afc2c9a8732ea92db0087d","64afd5a08be969841ccd791f","null","null","<p style=""font-size: 60px; font-family: BACS"">advYOQGb</p>","","","","","","","",""
"html-keyboard-response","188","265456","0.0-11.0-0.19","6175a0a52e748285b3476b27","64afc2c9a8732ea92db0087d","64afd5a08be969841ccd791f","null","null","<p style=""font-size: 60px; font-family: BACS"">lBKtRYlD</p>","","","","","","","",""
"html-keyboard-response","189","266463","0.0-11.0-0.20","6175a0a52e748285b3476b27","64afc2c9a8732ea92db0087d","64afd5a08be969841ccd791f","null","null","<p style=""font-size: 60px; font-family: BACS"">dmZvmQGb</p>","","","","","","","",""
"html-keyboard-response","190","267472","0.0-11.0-0.21","6175a0a52e748285b3476b27","64afc2c9a8732ea92db0087d","64afd5a08be969841ccd791f","null","null","<p style=""font-size: 60px; font-family: BACS"">DkTCPRYlD</p>","","","","","","","",""
"html-keyboard-response","191","268481","0.0-11.0-0.22","6175a0a52e748285b3476b27","64afc2c9a8732ea92db0087d","64afd5a08be969841ccd791f","null","null","<p style=""font-size: 60px; font-family: BACS"">dmZvmYmb</p>","","","","","","","",""
"html-keyboard-response","192","269483","0.0-11.0-0.23","6175a0a52e748285b3476b27","64afc2c9a8732ea92db0087d","64afd5a08be969841ccd791f","null","null","<p style=""font-size: 60px; font-family: BACS"">EhbtRYlD</p>","","","","","","","",""
"html-keyboard-response","193","270489","0.0-11.0-0.24","6175a0a52e748285b3476b27","64afc2c9a8732ea92db0087d","64afd5a08be969841ccd791f","null","null","<p style=""font-size: 60px; font-family: BACS"">cAZuYmb</p>","","","","","","","",""
"html-keyboard-response","194","271493","0.0-11.0-0.25","6175a0a52e748285b3476b27","64afc2c9a8732ea92db0087d","64afd5a08be969841ccd791f","null","null","<p style=""font-size: 60px; font-family: BACS"">AlNUAZbl</p>","","","","","","","",""
"html-keyboard-response","195","272499","0.0-11.0-0.26","6175a0a52e748285b3476b27","64afc2c9a8732ea92db0087d","64afd5a08be969841ccd791f","null","null","<p style=""font-size: 60px; font-family: BACS"">OCmkdPc</p>","","","","","","","",""
"html-keyboard-response","196","273505","0.0-11.0-0.27","6175a0a52e748285b3476b27","64afc2c9a8732ea92db0087d","64afd5a08be969841ccd791f","null","null","<p style=""font-size: 60px; font-family: BACS"">EhbtCKOb</p>","","","","","","","",""
"html-keyboard-response","197","274507","0.0-11.0-0.28","6175a0a52e748285b3476b27","64afc2c9a8732ea92db0087d","64afd5a08be969841ccd791f","null","null","<p style=""font-size: 60px; font-family: BACS"">cAZuGlu</p>","","","","","","","",""
"html-keyboard-response","198","275509","0.0-11.0-0.29","6175a0a52e748285b3476b27","64afc2c9a8732ea92db0087d","64afd5a08be969841ccd791f","null","null","<p style=""font-size: 60px; font-family: BACS"">advYOAvdk</p>","","","","","","","",""
"html-keyboard-response","199","276517","0.0-11.0-0.30","6175a0a52e748285b3476b27","64afc2c9a8732ea92db0087d","64afd5a08be969841ccd791f","null","null","<p style=""font-size: 60px; font-family: BACS"">PhktkRYlD</p>","","","","","","","",""
"html-keyboard-response","200","277525","0.0-11.0-0.31","6175a0a52e748285b3476b27","64afc2c9a8732ea92db0087d","64afd5a08be969841ccd791f","null","null","<p style=""font-size: 60px; font-family: BACS"">AZlLNQGb</p>","","","","","","","",""
"html-keyboard-response","201","278531","0.0-11.0-0.32","6175a0a52e748285b3476b27","64afc2c9a8732ea92db0087d","64afd5a08be969841ccd791f","null","null","<p style=""font-size: 60px; font-family: BACS"">adkrAZbl</p>","","","","","","","",""
"html-keyboard-response","202","279545","0.0-11.0-0.33","6175a0a52e748285b3476b27","64afc2c9a8732ea92db0087d","64afd5a08be969841ccd791f","null","null","<p style=""font-size: 60px; font-family: BACS"">kNuaYmb</p>","","","","","","","",""
"html-keyboard-response","203","280550","0.0-11.0-0.34","6175a0a52e748285b3476b27","64afc2c9a8732ea92db0087d","64afd5a08be969841ccd791f","null","null","<p style=""font-size: 60px; font-family: BACS"">cAZuQGb</p>","","","","","","","",""
"html-keyboard-response","204","281558","0.0-11.0-0.35","6175a0a52e748285b3476b27","64afc2c9a8732ea92db0087d","64afd5a08be969841ccd791f","null","null","<p style=""font-size: 60px; font-family: BACS"">kNuaAvdk</p>","","","","","","","",""
"html-keyboard-response","205","282563","0.0-11.0-0.36","6175a0a52e748285b3476b27","64afc2c9a8732ea92db0087d","64afd5a08be969841ccd791f","null","null","<p style=""font-size: 60px; font-family: BACS"">adkrGlu</p>","","","","","","","",""
"html-keyboard-response","206","283567","0.0-11.0-0.37","6175a0a52e748285b3476b27","64afc2c9a8732ea92db0087d","64afd5a08be969841ccd791f","null","null","<p style=""font-size: 60px; font-family: BACS"">cdKBYBRDh</p>","","","","","","","",""
"html-keyboard-response","207","284571","0.0-11.0-0.38","6175a0a52e748285b3476b27","64afc2c9a8732ea92db0087d","64afd5a08be969841ccd791f","null","null","<p style=""font-size: 60px; font-family: BACS"">cAZuAZbl</p>","","","","","","","",""
"html-keyboard-response","208","285579","0.0-11.0-0.39","6175a0a52e748285b3476b27","64afc2c9a8732ea92db0087d","64afd5a08be969841ccd791f","null","null","<p style=""font-size: 60px; font-family: BACS"">AlNUQGb</p>","","","","","","","",""
"html-keyboard-response","209","286583","0.0-11.0-0.40","6175a0a52e748285b3476b27","64afc2c9a8732ea92db0087d","64afd5a08be969841ccd791f","null","null","<p style=""font-size: 60px; font-family: BACS"">EtMDMBRDh</p>","","","","","","","",""
"html-keyboard-response","210","287589","0.0-11.0-0.41","6175a0a52e748285b3476b27","64afc2c9a8732ea92db0087d","64afd5a08be969841ccd791f","null","null","<p style=""font-size: 60px; font-family: BACS"">adYrcGlu</p>","","","","","","","",""
"html-keyboard-response","211","288591","0.0-11.0-0.42","6175a0a52e748285b3476b27","64afc2c9a8732ea92db0087d","64afd5a08be969841ccd791f","null","null","<p style=""font-size: 60px; font-family: BACS"">DkTCPbTE</p>","","","","","","","",""
"html-keyboard-response","212","289602","0.0-11.0-0.43","6175a0a52e748285b3476b27","64afc2c9a8732ea92db0087d","64afd5a08be969841ccd791f","null","null","<p style=""font-size: 60px; font-family: BACS"">EhbtBRDh</p>","","","","","","","",""
"html-keyboard-response","213","290607","0.0-11.0-0.44","6175a0a52e748285b3476b27","64afc2c9a8732ea92db0087d","64afd5a08be969841ccd791f","null","null","<p style=""font-size: 60px; font-family: BACS"">OCmkRYlD</p>","","","","","","","",""
"html-keyboard-response","214","291613","0.0-11.0-0.45","6175a0a52e748285b3476b27","64afc2c9a8732ea92db0087d","64afd5a08be969841ccd791f","null","null","<p style=""font-size: 60px; font-family: BACS"">EtMDMdPc</p>","","","","","","","",""
"html-keyboard-response","215","292618","0.0-11.0-0.46","6175a0a52e748285b3476b27","64afc2c9a8732ea92db0087d","64afd5a08be969841ccd791f","null","null","<p style=""font-size: 60px; font-family: BACS"">adYrcQGb</p>","","","","","","","",""
"html-keyboard-response","216","293620","0.0-11.0-0.47","6175a0a52e748285b3476b27","64afc2c9a8732ea92db0087d","64afd5a08be969841ccd791f","null","null","<p style=""font-size: 60px; font-family: BACS"">dmZvmAZbl</p>","","","","","","","",""
"html-keyboard-response","217","294625","0.0-11.0-0.48","6175a0a52e748285b3476b27","64afc2c9a8732ea92db0087d","64afd5a08be969841ccd791f","null","null","<p style=""font-size: 60px; font-family: BACS"">PhktkbTE</p>","","","","","","","",""
"html-keyboard-response","218","295635","0.0-11.0-0.49","6175a0a52e748285b3476b27","64afc2c9a8732ea92db0087d","64afd5a08be969841ccd791f","null","null","<p style=""font-size: 60px; font-family: BACS"">DkTCPBRDh</p>","","","","","","","",""
"html-keyboard-response","219","296642","0.0-11.0-0.50","6175a0a52e748285b3476b27","64afc2c9a8732ea92db0087d","64afd5a08be969841ccd791f","null","null","<p style=""font-size: 60px; font-family: BACS"">AbKDRYlD</p>","","","","","","","",""
"html-keyboard-response","220","297645","0.0-11.0-0.51","6175a0a52e748285b3476b27","64afc2c9a8732ea92db0087d","64afd5a08be969841ccd791f","null","null","<p style=""font-size: 60px; font-family: BACS"">AlNUYmb</p>","","","","","","","",""
"html-keyboard-response","221","298649","0.0-11.0-0.52","6175a0a52e748285b3476b27","64afc2c9a8732ea92db0087d","64afd5a08be969841ccd791f","null","null","<p style=""font-size: 60px; font-family: BACS"">PhktkdPc</p>","","","","","","","",""
"html-keyboard-response","222","299659","0.0-11.0-0.53","6175a0a52e748285b3476b27","64afc2c9a8732ea92db0087d","64afd5a08be969841ccd791f","null","null","<p style=""font-size: 60px; font-family: BACS"">OdlNmGlu</p>","","","","","","","",""
"html-keyboard-response","223","300662","0.0-11.0-0.54","6175a0a52e748285b3476b27","64afc2c9a8732ea92db0087d","64afd5a08be969841ccd791f","null","null","<p style=""font-size: 60px; font-family: BACS"">bRABtCKOb</p>","","","","","","","",""
"html-keyboard-response","224","301669","0.0-11.0-0.55","6175a0a52e748285b3476b27","64afc2c9a8732ea92db0087d","64afd5a08be969841ccd791f","null","null","<p style=""font-size: 60px; font-family: BACS"">ctktbTE</p>","","","","","","","",""
"html-keyboard-response","225","302683","0.0-11.0-0.56","6175a0a52e748285b3476b27","64afc2c9a8732ea92db0087d","64afd5a08be969841ccd791f","null","null","<p style=""font-size: 60px; font-family: BACS"">kNuaAZbl</p>","","","","","","","",""
"html-keyboard-response","226","303694","0.0-11.0-0.57","6175a0a52e748285b3476b27","64afc2c9a8732ea92db0087d","64afd5a08be969841ccd791f","null","null","<p style=""font-size: 60px; font-family: BACS"">lBKtdPc</p>","","","","","","","",""
"html-keyboard-response","227","304697","0.0-11.0-0.58","6175a0a52e748285b3476b27","64afc2c9a8732ea92db0087d","64afd5a08be969841ccd791f","null","null","<p style=""font-size: 60px; font-family: BACS"">bRABtRYlD</p>","","","","","","","",""
"html-keyboard-response","228","305700","0.0-11.0-0.59","6175a0a52e748285b3476b27","64afc2c9a8732ea92db0087d","64afd5a08be969841ccd791f","null","null","<p style=""font-size: 60px; font-family: BACS"">dmZvmGlu</p>","","","","","","","",""
"html-keyboard-response","229","306715","0.0-11.0-0.60","6175a0a52e748285b3476b27","64afc2c9a8732ea92db0087d","64afd5a08be969841ccd791f","null","null","<p style=""font-size: 60px; font-family: BACS"">advYOAZbl</p>","","","","","","","",""
"html-keyboard-response","230","307723","0.0-11.0-0.61","6175a0a52e748285b3476b27","64afc2c9a8732ea92db0087d","64afd5a08be969841ccd791f","null","null","<p style=""font-size: 60px; font-family: BACS"">lBKtbTE</p>","","","","","","","",""
"html-keyboard-response","231","308733","0.0-11.0-0.62","6175a0a52e748285b3476b27","64afc2c9a8732ea92db0087d","64afd5a08be969841ccd791f","null","null","<p style=""font-size: 60px; font-family: BACS"">OCmkBRDh</p>","","","","","","","",""
"html-keyboard-response","232","309742","0.0-11.0-0.63","6175a0a52e748285b3476b27","64afc2c9a8732ea92db0087d","64afd5a08be969841ccd791f","null","null","<p style=""font-size: 60px; font-family: BACS"">cdKBYCKOb</p>","","","","","","","",""
"html-keyboard-response","233","310747","0.0-11.0-0.64","6175a0a52e748285b3476b27","64afc2c9a8732ea92db0087d","64afd5a08be969841ccd791f","null","null","<p style=""font-size: 60px; font-family: BACS"">PhktkBRDh</p>","","","","","","","",""
"html-keyboard-response","234","311753","0.0-11.0-0.65","6175a0a52e748285b3476b27","64afc2c9a8732ea92db0087d","64afd5a08be969841ccd791f","null","null","<p style=""font-size: 60px; font-family: BACS"">vkYGlAvdk</p>","","","","","","","",""
"html-keyboard-response","235","312757","0.0-11.0-0.66","6175a0a52e748285b3476b27","64afc2c9a8732ea92db0087d","64afd5a08be969841ccd791f","null","null","<p style=""font-size: 60px; font-family: BACS"">OdlNmQGb</p>","","","","","","","",""
"html-keyboard-response","236","313764","0.0-11.0-0.67","6175a0a52e748285b3476b27","64afc2c9a8732ea92db0087d","64afd5a08be969841ccd791f","null","null","<p style=""font-size: 60px; font-family: BACS"">ctktBRDh</p>","","","","","","","",""
"html-keyboard-response","237","314774","0.0-11.0-0.68","6175a0a52e748285b3476b27","64afc2c9a8732ea92db0087d","64afd5a08be969841ccd791f","null","null","<p style=""font-size: 60px; font-family: BACS"">adkrYmb</p>","","","","","","","",""
"html-keyboard-response","238","315780","0.0-11.0-0.69","6175a0a52e748285b3476b27","64afc2c9a8732ea92db0087d","64afd5a08be969841ccd791f","null","null","<p style=""font-size: 60px; font-family: BACS"">AZlLNGlu</p>","","","","","","","",""
"html-keyboard-response","239","316786","0.0-11.0-0.70","6175a0a52e748285b3476b27","64afc2c9a8732ea92db0087d","64afd5a08be969841ccd791f","null","null","<p style=""font-size: 60px; font-family: BACS"">OCmkCKOb</p>","","","","","","","",""
"html-keyboard-response","240","317791","0.0-11.0-0.71","6175a0a52e748285b3476b27","64afc2c9a8732ea92db0087d","64afd5a08be969841ccd791f","null","null","<p style=""font-size: 60px; font-family: BACS"">advYOYmb</p>","","","","","","","",""
"html-keyboard-response","241","318799","0.0-11.0-0.72","6175a0a52e748285b3476b27","64afc2c9a8732ea92db0087d","64afd5a08be969841ccd791f","null","null","<p style=""font-size: 60px; font-family: BACS"">cdKBYRYlD</p>","","","","","","","",""
"html-keyboard-response","242","319803","0.0-11.0-0.73","6175a0a52e748285b3476b27","64afc2c9a8732ea92db0087d","64afd5a08be969841ccd791f","null","null","<p style=""font-size: 60px; font-family: BACS"">kNuaGlu</p>","","","","","","","",""
"html-keyboard-response","243","320810","0.0-11.0-0.74","6175a0a52e748285b3476b27","64afc2c9a8732ea92db0087d","64afd5a08be969841ccd791f","null","null","<p style=""font-size: 60px; font-family: BACS"">adYrcAvdk</p>","","","","","","","",""
"html-keyboard-response","244","321816","0.0-11.0-0.75","6175a0a52e748285b3476b27","64afc2c9a8732ea92db0087d","64afd5a08be969841ccd791f","null","null","<p style=""font-size: 60px; font-family: BACS"">AbKDbTE</p>","","","","","","","",""
"html-keyboard-response","245","322827","0.0-11.0-0.76","6175a0a52e748285b3476b27","64afc2c9a8732ea92db0087d","64afd5a08be969841ccd791f","null","null","<p style=""font-size: 60px; font-family: BACS"">AZlLNAvdk</p>","","","","","","","",""
"html-keyboard-response","246","323833","0.0-11.0-0.77","6175a0a52e748285b3476b27","64afc2c9a8732ea92db0087d","64afd5a08be969841ccd791f","null","null","<p style=""font-size: 60px; font-family: BACS"">AbKDCKOb</p>","","","","","","","",""
"html-keyboard-response","247","324838","0.0-11.0-0.78","6175a0a52e748285b3476b27","64afc2c9a8732ea92db0087d","64afd5a08be969841ccd791f","null","null","<p style=""font-size: 60px; font-family: BACS"">AlNUAvdk</p>","","","","","","","",""
"html-keyboard-response","248","325843","0.0-11.0-0.79","6175a0a52e748285b3476b27","64afc2c9a8732ea92db0087d","64afd5a08be969841ccd791f","null","null","<p style=""font-size: 60px; font-family: BACS"">cdKBYdPc</p>","","","","","","","",""
"html-keyboard-response","249","328430","0.0-12.0","6175a0a52e748285b3476b27","64afc2c9a8732ea92db0087d","64afd5a08be969841ccd791f","2587"," ","<p>Ottimo, hai visto il terzo blocco di parole. Ora puoi prenderti una piccola pausa.</p>
      <p>Premi la barra quando sei pronta/o per riprendere.</p>","","","","","","","",""
"html-keyboard-response","250","329434","0.0-13.0-0.0","6175a0a52e748285b3476b27","64afc2c9a8732ea92db0087d","64afd5a08be969841ccd791f","null","null","<p style=""font-size: 60px; font-family: BACS"">cAZuYmb</p>","","","","","","","",""
"html-keyboard-response","251","330441","0.0-13.0-0.1","6175a0a52e748285b3476b27","64afc2c9a8732ea92db0087d","64afd5a08be969841ccd791f","null","null","<p style=""font-size: 60px; font-family: BACS"">AZlLNAvdk</p>","","","","","","","",""
"html-keyboard-response","252","331447","0.0-13.0-0.2","6175a0a52e748285b3476b27","64afc2c9a8732ea92db0087d","64afd5a08be969841ccd791f","null","null","<p style=""font-size: 60px; font-family: BACS"">OdlNmAZbl</p>","","","","","","","",""
"html-keyboard-response","253","332449","0.0-13.0-0.3","6175a0a52e748285b3476b27","64afc2c9a8732ea92db0087d","64afd5a08be969841ccd791f","null","null","<p style=""font-size: 60px; font-family: BACS"">DkTCPbTE</p>","","","","","","","",""
"html-keyboard-response","254","333456","0.0-13.0-0.4","6175a0a52e748285b3476b27","64afc2c9a8732ea92db0087d","64afd5a08be969841ccd791f","null","null","<p style=""font-size: 60px; font-family: BACS"">PhktkdPc</p>","","","","","","","",""
"html-keyboard-response","255","334461","0.0-13.0-0.5","6175a0a52e748285b3476b27","64afc2c9a8732ea92db0087d","64afd5a08be969841ccd791f","null","null","<p style=""font-size: 60px; font-family: BACS"">adYrcAZbl</p>","","","","","","","",""
"html-keyboard-response","256","335466","0.0-13.0-0.6","6175a0a52e748285b3476b27","64afc2c9a8732ea92db0087d","64afd5a08be969841ccd791f","null","null","<p style=""font-size: 60px; font-family: BACS"">DkTCPdPc</p>","","","","","","","",""
"html-keyboard-response","257","336474","0.0-13.0-0.7","6175a0a52e748285b3476b27","64afc2c9a8732ea92db0087d","64afd5a08be969841ccd791f","null","null","<p style=""font-size: 60px; font-family: BACS"">advYOAZbl</p>","","","","","","","",""
"html-keyboard-response","258","337476","0.0-13.0-0.8","6175a0a52e748285b3476b27","64afc2c9a8732ea92db0087d","64afd5a08be969841ccd791f","null","null","<p style=""font-size: 60px; font-family: BACS"">AbKDBRDh</p>","","","","","","","",""
"html-keyboard-response","259","338483","0.0-13.0-0.9","6175a0a52e748285b3476b27","64afc2c9a8732ea92db0087d","64afd5a08be969841ccd791f","null","null","<p style=""font-size: 60px; font-family: BACS"">EtMDMCKOb</p>","","","","","","","",""
"html-keyboard-response","260","339487","0.0-13.0-0.10","6175a0a52e748285b3476b27","64afc2c9a8732ea92db0087d","64afd5a08be969841ccd791f","null","null","<p style=""font-size: 60px; font-family: BACS"">adYrcQGb</p>","","","","","","","",""
"html-keyboard-response","261","340490","0.0-13.0-0.11","6175a0a52e748285b3476b27","64afc2c9a8732ea92db0087d","64afd5a08be969841ccd791f","null","null","<p style=""font-size: 60px; font-family: BACS"">kNuaAZbl</p>","","","","","","","",""
"html-keyboard-response","262","341495","0.0-13.0-0.12","6175a0a52e748285b3476b27","64afc2c9a8732ea92db0087d","64afd5a08be969841ccd791f","null","null","<p style=""font-size: 60px; font-family: BACS"">cAZuGlu</p>","","","","","","","",""
"html-keyboard-response","263","342503","0.0-13.0-0.13","6175a0a52e748285b3476b27","64afc2c9a8732ea92db0087d","64afd5a08be969841ccd791f","null","null","<p style=""font-size: 60px; font-family: BACS"">DkTCPRYlD</p>","","","","","","","",""
"html-keyboard-response","264","343509","0.0-13.0-0.14","6175a0a52e748285b3476b27","64afc2c9a8732ea92db0087d","64afd5a08be969841ccd791f","null","null","<p style=""font-size: 60px; font-family: BACS"">adkrGlu</p>","","","","","","","",""
"html-keyboard-response","265","344516","0.0-13.0-0.15","6175a0a52e748285b3476b27","64afc2c9a8732ea92db0087d","64afd5a08be969841ccd791f","null","null","<p style=""font-size: 60px; font-family: BACS"">AlNUAZbl</p>","","","","","","","",""
"html-keyboard-response","266","345517","0.0-13.0-0.16","6175a0a52e748285b3476b27","64afc2c9a8732ea92db0087d","64afd5a08be969841ccd791f","null","null","<p style=""font-size: 60px; font-family: BACS"">EhbtbTE</p>","","","","","","","",""
"html-keyboard-response","267","346518","0.0-13.0-0.17","6175a0a52e748285b3476b27","64afc2c9a8732ea92db0087d","64afd5a08be969841ccd791f","null","null","<p style=""font-size: 60px; font-family: BACS"">lBKtdPc</p>","","","","","","","",""
"html-keyboard-response","268","347521","0.0-13.0-0.18","6175a0a52e748285b3476b27","64afc2c9a8732ea92db0087d","64afd5a08be969841ccd791f","null","null","<p style=""font-size: 60px; font-family: BACS"">bRABtCKOb</p>","","","","","","","",""
"html-keyboard-response","269","348524","0.0-13.0-0.19","6175a0a52e748285b3476b27","64afc2c9a8732ea92db0087d","64afd5a08be969841ccd791f","null","null","<p style=""font-size: 60px; font-family: BACS"">EhbtBRDh</p>","","","","","","","",""
"html-keyboard-response","270","349531","0.0-13.0-0.20","6175a0a52e748285b3476b27","64afc2c9a8732ea92db0087d","64afd5a08be969841ccd791f","null","null","<p style=""font-size: 60px; font-family: BACS"">dmZvmAZbl</p>","","","","","","","",""
"html-keyboard-response","271","350541","0.0-13.0-0.21","6175a0a52e748285b3476b27","64afc2c9a8732ea92db0087d","64afd5a08be969841ccd791f","null","null","<p style=""font-size: 60px; font-family: BACS"">lBKtbTE</p>","","","","","","","",""
"html-keyboard-response","272","351546","0.0-13.0-0.22","6175a0a52e748285b3476b27","64afc2c9a8732ea92db0087d","64afd5a08be969841ccd791f","null","null","<p style=""font-size: 60px; font-family: BACS"">AlNUAvdk</p>","","","","","","","",""
"html-keyboard-response","273","352551","0.0-13.0-0.23","6175a0a52e748285b3476b27","64afc2c9a8732ea92db0087d","64afd5a08be969841ccd791f","null","null","<p style=""font-size: 60px; font-family: BACS"">kNuaYmb</p>","","","","","","","",""
"html-keyboard-response","274","353559","0.0-13.0-0.24","6175a0a52e748285b3476b27","64afc2c9a8732ea92db0087d","64afd5a08be969841ccd791f","null","null","<p style=""font-size: 60px; font-family: BACS"">EtMDMdPc</p>","","","","","","","",""
"html-keyboard-response","275","354569","0.0-13.0-0.25","6175a0a52e748285b3476b27","64afc2c9a8732ea92db0087d","64afd5a08be969841ccd791f","null","null","<p style=""font-size: 60px; font-family: BACS"">OdlNmQGb</p>","","","","","","","",""
"html-keyboard-response","276","355572","0.0-13.0-0.26","6175a0a52e748285b3476b27","64afc2c9a8732ea92db0087d","64afd5a08be969841ccd791f","null","null","<p style=""font-size: 60px; font-family: BACS"">OCmkRYlD</p>","","","","","","","",""
"html-keyboard-response","277","356580","0.0-13.0-0.27","6175a0a52e748285b3476b27","64afc2c9a8732ea92db0087d","64afd5a08be969841ccd791f","null","null","<p style=""font-size: 60px; font-family: BACS"">dmZvmQGb</p>","","","","","","","",""
"html-keyboard-response","278","357585","0.0-13.0-0.28","6175a0a52e748285b3476b27","64afc2c9a8732ea92db0087d","64afd5a08be969841ccd791f","null","null","<p style=""font-size: 60px; font-family: BACS"">vkYGlGlu</p>","","","","","","","",""
"html-keyboard-response","279","358589","0.0-13.0-0.29","6175a0a52e748285b3476b27","64afc2c9a8732ea92db0087d","64afd5a08be969841ccd791f","null","null","<p style=""font-size: 60px; font-family: BACS"">ctktbTE</p>","","","","","","","",""
"html-keyboard-response","280","359595","0.0-13.0-0.30","6175a0a52e748285b3476b27","64afc2c9a8732ea92db0087d","64afd5a08be969841ccd791f","null","null","<p style=""font-size: 60px; font-family: BACS"">adYrcAvdk</p>","","","","","","","",""
"html-keyboard-response","281","360601","0.0-13.0-0.31","6175a0a52e748285b3476b27","64afc2c9a8732ea92db0087d","64afd5a08be969841ccd791f","null","null","<p style=""font-size: 60px; font-family: BACS"">AbKDbTE</p>","","","","","","","",""
"html-keyboard-response","282","361607","0.0-13.0-0.32","6175a0a52e748285b3476b27","64afc2c9a8732ea92db0087d","64afd5a08be969841ccd791f","null","null","<p style=""font-size: 60px; font-family: BACS"">AZlLNYmb</p>","","","","","","","",""
"html-keyboard-response","283","362615","0.0-13.0-0.33","6175a0a52e748285b3476b27","64afc2c9a8732ea92db0087d","64afd5a08be969841ccd791f","null","null","<p style=""font-size: 60px; font-family: BACS"">vkYGlQGb</p>","","","","","","","",""
"html-keyboard-response","284","363622","0.0-13.0-0.34","6175a0a52e748285b3476b27","64afc2c9a8732ea92db0087d","64afd5a08be969841ccd791f","null","null","<p style=""font-size: 60px; font-family: BACS"">advYOAvdk</p>","","","","","","","",""
"html-keyboard-response","285","364630","0.0-13.0-0.35","6175a0a52e748285b3476b27","64afc2c9a8732ea92db0087d","64afd5a08be969841ccd791f","null","null","<p style=""font-size: 60px; font-family: BACS"">DkTCPBRDh</p>","","","","","","","",""
"html-keyboard-response","286","365636","0.0-13.0-0.36","6175a0a52e748285b3476b27","64afc2c9a8732ea92db0087d","64afd5a08be969841ccd791f","null","null","<p style=""font-size: 60px; font-family: BACS"">PhktkRYlD</p>","","","","","","","",""
"html-keyboard-response","287","366637","0.0-13.0-0.37","6175a0a52e748285b3476b27","64afc2c9a8732ea92db0087d","64afd5a08be969841ccd791f","null","null","<p style=""font-size: 60px; font-family: BACS"">adkrAvdk</p>","","","","","","","",""
"html-keyboard-response","288","367645","0.0-13.0-0.38","6175a0a52e748285b3476b27","64afc2c9a8732ea92db0087d","64afd5a08be969841ccd791f","null","null","<p style=""font-size: 60px; font-family: BACS"">OCmkdPc</p>","","","","","","","",""
"html-keyboard-response","289","368649","0.0-13.0-0.39","6175a0a52e748285b3476b27","64afc2c9a8732ea92db0087d","64afd5a08be969841ccd791f","null","null","<p style=""font-size: 60px; font-family: BACS"">kNuaAvdk</p>","","","","","","","",""
"html-keyboard-response","290","369652","0.0-13.0-0.40","6175a0a52e748285b3476b27","64afc2c9a8732ea92db0087d","64afd5a08be969841ccd791f","null","null","<p style=""font-size: 60px; font-family: BACS"">OCmkCKOb</p>","","","","","","","",""
"html-keyboard-response","291","370660","0.0-13.0-0.41","6175a0a52e748285b3476b27","64afc2c9a8732ea92db0087d","64afd5a08be969841ccd791f","null","null","<p style=""font-size: 60px; font-family: BACS"">bRABtRYlD</p>","","","","","","","",""
"html-keyboard-response","292","371667","0.0-13.0-0.42","6175a0a52e748285b3476b27","64afc2c9a8732ea92db0087d","64afd5a08be969841ccd791f","null","null","<p style=""font-size: 60px; font-family: BACS"">adYrcGlu</p>","","","","","","","",""
"html-keyboard-response","293","372675","0.0-13.0-0.43","6175a0a52e748285b3476b27","64afc2c9a8732ea92db0087d","64afd5a08be969841ccd791f","null","null","<p style=""font-size: 60px; font-family: BACS"">ctktdPc</p>","","","","","","","",""
"html-keyboard-response","294","373680","0.0-13.0-0.44","6175a0a52e748285b3476b27","64afc2c9a8732ea92db0087d","64afd5a08be969841ccd791f","null","null","<p style=""font-size: 60px; font-family: BACS"">bRABtbTE</p>","","","","","","","",""
"html-keyboard-response","295","374696","0.0-13.0-0.45","6175a0a52e748285b3476b27","64afc2c9a8732ea92db0087d","64afd5a08be969841ccd791f","null","null","<p style=""font-size: 60px; font-family: BACS"">cAZuQGb</p>","","","","","","","",""
"html-keyboard-response","296","375700","0.0-13.0-0.46","6175a0a52e748285b3476b27","64afc2c9a8732ea92db0087d","64afd5a08be969841ccd791f","null","null","<p style=""font-size: 60px; font-family: BACS"">lBKtCKOb</p>","","","","","","","",""
"html-keyboard-response","297","376710","0.0-13.0-0.47","6175a0a52e748285b3476b27","64afc2c9a8732ea92db0087d","64afd5a08be969841ccd791f","null","null","<p style=""font-size: 60px; font-family: BACS"">PhktkbTE</p>","","","","","","","",""
"html-keyboard-response","298","377714","0.0-13.0-0.48","6175a0a52e748285b3476b27","64afc2c9a8732ea92db0087d","64afd5a08be969841ccd791f","null","null","<p style=""font-size: 60px; font-family: BACS"">cdKBYCKOb</p>","","","","","","","",""
"html-keyboard-response","299","378720","0.0-13.0-0.49","6175a0a52e748285b3476b27","64afc2c9a8732ea92db0087d","64afd5a08be969841ccd791f","null","null","<p style=""font-size: 60px; font-family: BACS"">dmZvmYmb</p>","","","","","","","",""
"html-keyboard-response","300","379730","0.0-13.0-0.50","6175a0a52e748285b3476b27","64afc2c9a8732ea92db0087d","64afd5a08be969841ccd791f","null","null","<p style=""font-size: 60px; font-family: BACS"">kNuaGlu</p>","","","","","","","",""
"html-keyboard-response","301","380735","0.0-13.0-0.51","6175a0a52e748285b3476b27","64afc2c9a8732ea92db0087d","64afd5a08be969841ccd791f","null","null","<p style=""font-size: 60px; font-family: BACS"">vkYGlYmb</p>","","","","","","","",""
"html-keyboard-response","302","381736","0.0-13.0-0.52","6175a0a52e748285b3476b27","64afc2c9a8732ea92db0087d","64afd5a08be969841ccd791f","null","null","<p style=""font-size: 60px; font-family: BACS"">dmZvmGlu</p>","","","","","","","",""
"html-keyboard-response","303","382738","0.0-13.0-0.53","6175a0a52e748285b3476b27","64afc2c9a8732ea92db0087d","64afd5a08be969841ccd791f","null","null","<p style=""font-size: 60px; font-family: BACS"">vkYGlAvdk</p>","","","","","","","",""
"html-keyboard-response","304","383741","0.0-13.0-0.54","6175a0a52e748285b3476b27","64afc2c9a8732ea92db0087d","64afd5a08be969841ccd791f","null","null","<p style=""font-size: 60px; font-family: BACS"">ctktCKOb</p>","","","","","","","",""
"html-keyboard-response","305","384748","0.0-13.0-0.55","6175a0a52e748285b3476b27","64afc2c9a8732ea92db0087d","64afd5a08be969841ccd791f","null","null","<p style=""font-size: 60px; font-family: BACS"">advYOYmb</p>","","","","","","","",""
"html-keyboard-response","306","385751","0.0-13.0-0.56","6175a0a52e748285b3476b27","64afc2c9a8732ea92db0087d","64afd5a08be969841ccd791f","null","null","<p style=""font-size: 60px; font-family: BACS"">cdKBYBRDh</p>","","","","","","","",""
"html-keyboard-response","307","386755","0.0-13.0-0.57","6175a0a52e748285b3476b27","64afc2c9a8732ea92db0087d","64afd5a08be969841ccd791f","null","null","<p style=""font-size: 60px; font-family: BACS"">AZlLNGlu</p>","","","","","","","",""
"html-keyboard-response","308","387757","0.0-13.0-0.58","6175a0a52e748285b3476b27","64afc2c9a8732ea92db0087d","64afd5a08be969841ccd791f","null","null","<p style=""font-size: 60px; font-family: BACS"">adkrAZbl</p>","","","","","","","",""
"html-keyboard-response","309","388758","0.0-13.0-0.59","6175a0a52e748285b3476b27","64afc2c9a8732ea92db0087d","64afd5a08be969841ccd791f","null","null","<p style=""font-size: 60px; font-family: BACS"">AbKDRYlD</p>","","","","","","","",""
"html-keyboard-response","310","389762","0.0-13.0-0.60","6175a0a52e748285b3476b27","64afc2c9a8732ea92db0087d","64afd5a08be969841ccd791f","null","null","<p style=""font-size: 60px; font-family: BACS"">EhbtCKOb</p>","","","","","","","",""
"html-keyboard-response","311","390762","0.0-13.0-0.61","6175a0a52e748285b3476b27","64afc2c9a8732ea92db0087d","64afd5a08be969841ccd791f","null","null","<p style=""font-size: 60px; font-family: BACS"">cdKBYRYlD</p>","","","","","","","",""
"html-keyboard-response","312","391767","0.0-13.0-0.62","6175a0a52e748285b3476b27","64afc2c9a8732ea92db0087d","64afd5a08be969841ccd791f","null","null","<p style=""font-size: 60px; font-family: BACS"">OCmkBRDh</p>","","","","","","","",""
"html-keyboard-response","313","392773","0.0-13.0-0.63","6175a0a52e748285b3476b27","64afc2c9a8732ea92db0087d","64afd5a08be969841ccd791f","null","null","<p style=""font-size: 60px; font-family: BACS"">cAZuAZbl</p>","","","","","","","",""
"html-keyboard-response","314","393781","0.0-13.0-0.64","6175a0a52e748285b3476b27","64afc2c9a8732ea92db0087d","64afd5a08be969841ccd791f","null","null","<p style=""font-size: 60px; font-family: BACS"">AZlLNQGb</p>","","","","","","","",""
"html-keyboard-response","315","394783","0.0-13.0-0.65","6175a0a52e748285b3476b27","64afc2c9a8732ea92db0087d","64afd5a08be969841ccd791f","null","null","<p style=""font-size: 60px; font-family: BACS"">EhbtRYlD</p>","","","","","","","",""
"html-keyboard-response","316","395785","0.0-13.0-0.66","6175a0a52e748285b3476b27","64afc2c9a8732ea92db0087d","64afd5a08be969841ccd791f","null","null","<p style=""font-size: 60px; font-family: BACS"">AlNUQGb</p>","","","","","","","",""
"html-keyboard-response","317","396789","0.0-13.0-0.67","6175a0a52e748285b3476b27","64afc2c9a8732ea92db0087d","64afd5a08be969841ccd791f","null","null","<p style=""font-size: 60px; font-family: BACS"">cdKBYdPc</p>","","","","","","","",""
"html-keyboard-response","318","397797","0.0-13.0-0.68","6175a0a52e748285b3476b27","64afc2c9a8732ea92db0087d","64afd5a08be969841ccd791f","null","null","<p style=""font-size: 60px; font-family: BACS"">EtMDMbTE</p>","","","","","","","",""
"html-keyboard-response","319","398801","0.0-13.0-0.69","6175a0a52e748285b3476b27","64afc2c9a8732ea92db0087d","64afd5a08be969841ccd791f","null","null","<p style=""font-size: 60px; font-family: BACS"">advYOQGb</p>","","","","","","","",""
"html-keyboard-response","320","399807","0.0-13.0-0.70","6175a0a52e748285b3476b27","64afc2c9a8732ea92db0087d","64afd5a08be969841ccd791f","null","null","<p style=""font-size: 60px; font-family: BACS"">bRABtdPc</p>","","","","","","","",""
"html-keyboard-response","321","400811","0.0-13.0-0.71","6175a0a52e748285b3476b27","64afc2c9a8732ea92db0087d","64afd5a08be969841ccd791f","null","null","<p style=""font-size: 60px; font-family: BACS"">EtMDMBRDh</p>","","","","","","","",""
"html-keyboard-response","322","401817","0.0-13.0-0.72","6175a0a52e748285b3476b27","64afc2c9a8732ea92db0087d","64afd5a08be969841ccd791f","null","null","<p style=""font-size: 60px; font-family: BACS"">OdlNmAvdk</p>","","","","","","","",""
"html-keyboard-response","323","402822","0.0-13.0-0.73","6175a0a52e748285b3476b27","64afc2c9a8732ea92db0087d","64afd5a08be969841ccd791f","null","null","<p style=""font-size: 60px; font-family: BACS"">PhktkBRDh</p>","","","","","","","",""
"html-keyboard-response","324","403827","0.0-13.0-0.74","6175a0a52e748285b3476b27","64afc2c9a8732ea92db0087d","64afd5a08be969841ccd791f","null","null","<p style=""font-size: 60px; font-family: BACS"">OdlNmGlu</p>","","","","","","","",""
"html-keyboard-response","325","404835","0.0-13.0-0.75","6175a0a52e748285b3476b27","64afc2c9a8732ea92db0087d","64afd5a08be969841ccd791f","null","null","<p style=""font-size: 60px; font-family: BACS"">adkrYmb</p>","","","","","","","",""
"html-keyboard-response","326","405840","0.0-13.0-0.76","6175a0a52e748285b3476b27","64afc2c9a8732ea92db0087d","64afd5a08be969841ccd791f","null","null","<p style=""font-size: 60px; font-family: BACS"">ctktBRDh</p>","","","","","","","",""
"html-keyboard-response","327","406848","0.0-13.0-0.77","6175a0a52e748285b3476b27","64afc2c9a8732ea92db0087d","64afd5a08be969841ccd791f","null","null","<p style=""font-size: 60px; font-family: BACS"">AbKDCKOb</p>","","","","","","","",""
"html-keyboard-response","328","407856","0.0-13.0-0.78","6175a0a52e748285b3476b27","64afc2c9a8732ea92db0087d","64afd5a08be969841ccd791f","null","null","<p style=""font-size: 60px; font-family: BACS"">AlNUYmb</p>","","","","","","","",""
"html-keyboard-response","329","408862","0.0-13.0-0.79","6175a0a52e748285b3476b27","64afc2c9a8732ea92db0087d","64afd5a08be969841ccd791f","null","null","<p style=""font-size: 60px; font-family: BACS"">lBKtRYlD</p>","","","","","","","",""
"html-keyboard-response","330","425474","0.0-14.0","6175a0a52e748285b3476b27","64afc2c9a8732ea92db0087d","64afd5a08be969841ccd791f","16612"," ","<p>Ottimo! Hai visto tutte le parole che abbiamo ricevuto dallo spazio.</p>
      <p>Premi la barra quando sei pronta/o per continuare.</p>","","","","","","","",""
"html-keyboard-response","331","443463","0.0-15.0","6175a0a52e748285b3476b27","64afc2c9a8732ea92db0087d","64afd5a08be969841ccd791f","17986"," ","<p>In questa seconda parte, vedrai delle nuove parole che abbiamo ricevuto dallo stesso gruppo di alieni, e altre che invece provengono da un'altra comunicazione, con un altro gruppo di alieni. Purtroppo le due comunicazioni non arrivano a noi separatamente, per cui le parole sono mescolate tra loro. Il tuo compito sarà quello di individuare le parole che provengono dal gruppo che hai studiato nella prima parte dell'esperimento.</p>
      <p>Questo compito non è per nulla facile; le due comunicazioni infatti usano gli stessi caratteri. Il tuo meeting con i leader mondiali inizia tra poco, per cui non avrai molto tempo per prendere la tua decisione; dovrai essere veloce. Cerca di fare del tuo meglio usando la tua intuizione; non hai tempo di stare a pensare a lungo su ogni singola parola.</p>
      <p>Premi <strong>k</strong> quando pensi che la parola che stai vedendo sia degli stessi alieni che hai studiato prima, e <strong>d</strong> quando invece pensi che la parola che stai vedendo venga dall'altra comunicazione, con il nuovo gruppo di alieni.</p><p>Premi la barra quando sei pronta/o per iniziare.</p>","","","","","","","",""
"html-keyboard-response","332","450782","0.0-16.0-0.0","6175a0a52e748285b3476b27","64afc2c9a8732ea92db0087d","64afd5a08be969841ccd791f","7319","d","<p style=""font-size: 30px;"">La parola viene del gruppo di alieni che hai studiato prima?</p><br><p style=""font-size: 60px; font-family: BACS"">vkYGlCKOb<p style=""font-size: 15px"">Premi <strong>k</strong> per sì, <strong>d</strong> per no.</p>","","vkYGlCKOb","testing","d","true","","",""
"html-keyboard-response","333","454535","0.0-16.0-1.0-0.0","6175a0a52e748285b3476b27","64afc2c9a8732ea92db0087d","64afd5a08be969841ccd791f","3752"," ","<p style=""font-size: 30px; color: red"">Attenzione! Sei stato troppo lento con questa parola.</p>
      <p style=""font-size: 30px; color: red"">Cerca di essere più veloce.</p><p></p><p>Premi la barra per continuare.</p>","","","","","","","",""
"html-keyboard-response","334","456633","0.0-16.0-0.1","6175a0a52e748285b3476b27","64afc2c9a8732ea92db0087d","64afd5a08be969841ccd791f","2097","k","<p style=""font-size: 30px;"">La parola viene del gruppo di alieni che hai studiato prima?</p><br><p style=""font-size: 60px; font-family: BACS"">kNuaQGb<p style=""font-size: 15px"">Premi <strong>k</strong> per sì, <strong>d</strong> per no.</p>","","kNuaQGb","testing","k","true","","",""
"html-keyboard-response","335","459226","0.0-16.0-1.1-0.1","6175a0a52e748285b3476b27","64afc2c9a8732ea92db0087d","64afd5a08be969841ccd791f","2593"," ","<p style=""font-size: 30px; color: red"">Attenzione! Sei stato troppo lento con questa parola.</p>
      <p style=""font-size: 30px; color: red"">Cerca di essere più veloce.</p><p></p><p>Premi la barra per continuare.</p>","","","","","","","",""
"html-keyboard-response","336","459712","0.0-16.0-0.2","6175a0a52e748285b3476b27","64afc2c9a8732ea92db0087d","64afd5a08be969841ccd791f","486","k","<p style=""font-size: 30px;"">La parola viene del gruppo di alieni che hai studiato prima?</p><br><p style=""font-size: 60px; font-family: BACS"">cdKBYbTE<p style=""font-size: 15px"">Premi <strong>k</strong> per sì, <strong>d</strong> per no.</p>","","cdKBYbTE","testing","k","true","","",""
"html-keyboard-response","337","460294","0.0-16.0-0.3","6175a0a52e748285b3476b27","64afc2c9a8732ea92db0087d","64afd5a08be969841ccd791f","582","k","<p style=""font-size: 30px"">&emsp;</p><br><p style=""font-size: 60px; font-family: BACS"">ctktYmb<p style=""font-size: 15px"">Premi <strong>k</strong> per sì, <strong>d</strong> per no.</p>","","ctktYmb","testing","d","false","","",""
"html-keyboard-response","338","460715","0.0-16.0-0.4","6175a0a52e748285b3476b27","64afc2c9a8732ea92db0087d","64afd5a08be969841ccd791f","419","d","<p style=""font-size: 30px"">&emsp;</p><br><p style=""font-size: 60px; font-family: BACS"">advYOGlu<p style=""font-size: 15px"">Premi <strong>k</strong> per sì, <strong>d</strong> per no.</p>","","advYOGlu","testing","k","false","","",""
"html-keyboard-response","339","461027","0.0-16.0-0.5","6175a0a52e748285b3476b27","64afc2c9a8732ea92db0087d","64afd5a08be969841ccd791f","311","k","<p style=""font-size: 30px"">&emsp;</p><br><p style=""font-size: 60px; font-family: BACS"">dmZvmAvdk<p style=""font-size: 15px"">Premi <strong>k</strong> per sì, <strong>d</strong> per no.</p>","","dmZvmAvdk","testing","k","true","","",""
"html-keyboard-response","340","461347","0.0-16.0-0.6","6175a0a52e748285b3476b27","64afc2c9a8732ea92db0087d","64afd5a08be969841ccd791f","319","d","<p style=""font-size: 30px"">&emsp;</p><br><p style=""font-size: 60px; font-family: BACS"">OdlNmRYlD<p style=""font-size: 15px"">Premi <strong>k</strong> per sì, <strong>d</strong> per no.</p>","","OdlNmRYlD","testing","d","true","","",""
"html-keyboard-response","341","461642","0.0-16.0-0.7","6175a0a52e748285b3476b27","64afc2c9a8732ea92db0087d","64afd5a08be969841ccd791f","294","k","<p style=""font-size: 30px"">&emsp;</p><br><p style=""font-size: 60px; font-family: BACS"">PhktkAZbl<p style=""font-size: 15px"">Premi <strong>k</strong> per sì, <strong>d</strong> per no.</p>","","PhktkAZbl","testing","d","false","","",""
"html-keyboard-response","342","461963","0.0-16.0-0.8","6175a0a52e748285b3476b27","64afc2c9a8732ea92db0087d","64afd5a08be969841ccd791f","321","k","<p style=""font-size: 30px"">&emsp;</p><br><p style=""font-size: 60px; font-family: BACS"">EhbtdPc<p style=""font-size: 15px"">Premi <strong>k</strong> per sì, <strong>d</strong> per no.</p>","","EhbtdPc","testing","k","true","","",""
"html-keyboard-response","343","462232","0.0-16.0-0.9","6175a0a52e748285b3476b27","64afc2c9a8732ea92db0087d","64afd5a08be969841ccd791f","269","d","<p style=""font-size: 30px"">&emsp;</p><br><p style=""font-size: 60px; font-family: BACS"">AZlLNAZbl<p style=""font-size: 15px"">Premi <strong>k</strong> per sì, <strong>d</strong> per no.</p>","","AZlLNAZbl","testing","k","false","","",""
"html-keyboard-response","344","462585","0.0-16.0-0.10","6175a0a52e748285b3476b27","64afc2c9a8732ea92db0087d","64afd5a08be969841ccd791f","353","k","<p style=""font-size: 30px"">&emsp;</p><br><p style=""font-size: 60px; font-family: BACS"">adYrcRYlD<p style=""font-size: 15px"">Premi <strong>k</strong> per sì, <strong>d</strong> per no.</p>","","adYrcRYlD","testing","d","false","","",""
"html-keyboard-response","345","462980","0.0-16.0-0.11","6175a0a52e748285b3476b27","64afc2c9a8732ea92db0087d","64afd5a08be969841ccd791f","394","k","<p style=""font-size: 30px"">&emsp;</p><br><p style=""font-size: 60px; font-family: BACS"">kNuabTE<p style=""font-size: 15px"">Premi <strong>k</strong> per sì, <strong>d</strong> per no.</p>","","kNuabTE","testing","d","false","","",""
"html-keyboard-response","346","463285","0.0-16.0-0.12","6175a0a52e748285b3476b27","64afc2c9a8732ea92db0087d","64afd5a08be969841ccd791f","305","d","<p style=""font-size: 30px"">&emsp;</p><br><p style=""font-size: 60px; font-family: BACS"">AlNUdPc<p style=""font-size: 15px"">Premi <strong>k</strong> per sì, <strong>d</strong> per no.</p>","","AlNUdPc","testing","d","true","","",""
"html-keyboard-response","347","463705","0.0-16.0-0.13","6175a0a52e748285b3476b27","64afc2c9a8732ea92db0087d","64afd5a08be969841ccd791f","419","k","<p style=""font-size: 30px"">&emsp;</p><br><p style=""font-size: 60px; font-family: BACS"">ctktRYlD<p style=""font-size: 15px"">Premi <strong>k</strong> per sì, <strong>d</strong> per no.</p>","","ctktRYlD","testing","k","true","","",""
"html-keyboard-response","348","464142","0.0-16.0-0.14","6175a0a52e748285b3476b27","64afc2c9a8732ea92db0087d","64afd5a08be969841ccd791f","436","k","<p style=""font-size: 30px"">&emsp;</p><br><p style=""font-size: 60px; font-family: BACS"">cAZuAvdk<p style=""font-size: 15px"">Premi <strong>k</strong> per sì, <strong>d</strong> per no.</p>","","cAZuAvdk","testing","k","true","","",""
"html-keyboard-response","349","464393","0.0-16.0-0.15","6175a0a52e748285b3476b27","64afc2c9a8732ea92db0087d","64afd5a08be969841ccd791f","252","d","<p style=""font-size: 30px"">&emsp;</p><br><p style=""font-size: 60px; font-family: BACS"">lBKtBRDh<p style=""font-size: 15px"">Premi <strong>k</strong> per sì, <strong>d</strong> per no.</p>","","lBKtBRDh","testing","k","false","","",""
"html-keyboard-response","350","464935","0.0-16.0-0.16","6175a0a52e748285b3476b27","64afc2c9a8732ea92db0087d","64afd5a08be969841ccd791f","541","k","<p style=""font-size: 30px"">&emsp;</p><br><p style=""font-size: 60px; font-family: BACS"">adkrbTE<p style=""font-size: 15px"">Premi <strong>k</strong> per sì, <strong>d</strong> per no.</p>","","adkrbTE","testing","d","false","","",""
"html-keyboard-response","351","465350","0.0-16.0-0.17","6175a0a52e748285b3476b27","64afc2c9a8732ea92db0087d","64afd5a08be969841ccd791f","414","k","<p style=""font-size: 30px"">&emsp;</p><br><p style=""font-size: 60px; font-family: BACS"">cdKBYQGb<p style=""font-size: 15px"">Premi <strong>k</strong> per sì, <strong>d</strong> per no.</p>","","cdKBYQGb","testing","d","false","","",""
"html-keyboard-response","352","465508","0.0-16.0-0.18","6175a0a52e748285b3476b27","64afc2c9a8732ea92db0087d","64afd5a08be969841ccd791f","158","k","<p style=""font-size: 30px"">&emsp;</p><br><p style=""font-size: 60px; font-family: BACS"">OCmkbTE<p style=""font-size: 15px"">Premi <strong>k</strong> per sì, <strong>d</strong> per no.</p>","","OCmkbTE","testing","k","true","","",""
"html-keyboard-response","353","465862","0.0-16.0-0.19","6175a0a52e748285b3476b27","64afc2c9a8732ea92db0087d","64afd5a08be969841ccd791f","354","d","<p style=""font-size: 30px"">&emsp;</p><br><p style=""font-size: 60px; font-family: BACS"">bRABtAvdk<p style=""font-size: 15px"">Premi <strong>k</strong> per sì, <strong>d</strong> per no.</p>","","bRABtAvdk","testing","d","true","","",""
"html-keyboard-response","354","466419","0.0-16.0-0.20","6175a0a52e748285b3476b27","64afc2c9a8732ea92db0087d","64afd5a08be969841ccd791f","556","k","<p style=""font-size: 30px"">&emsp;</p><br><p style=""font-size: 60px; font-family: BACS"">advYOdPc<p style=""font-size: 15px"">Premi <strong>k</strong> per sì, <strong>d</strong> per no.</p>","","advYOdPc","testing","d","false","","",""
"html-keyboard-response","355","466812","0.0-16.0-0.21","6175a0a52e748285b3476b27","64afc2c9a8732ea92db0087d","64afd5a08be969841ccd791f","392","d","<p style=""font-size: 30px"">&emsp;</p><br><p style=""font-size: 60px; font-family: BACS"">cAZuBRDh<p style=""font-size: 15px"">Premi <strong>k</strong> per sì, <strong>d</strong> per no.</p>","","cAZuBRDh","testing","d","true","","",""
"html-keyboard-response","356","467559","0.0-16.0-0.22","6175a0a52e748285b3476b27","64afc2c9a8732ea92db0087d","64afd5a08be969841ccd791f","747","k","<p style=""font-size: 30px"">&emsp;</p><br><p style=""font-size: 60px; font-family: BACS"">AbKDGlu<p style=""font-size: 15px"">Premi <strong>k</strong> per sì, <strong>d</strong> per no.</p>","","AbKDGlu","testing","d","false","","",""
"html-keyboard-response","357","468323","0.0-16.0-0.23","6175a0a52e748285b3476b27","64afc2c9a8732ea92db0087d","64afd5a08be969841ccd791f","763","d","<p style=""font-size: 30px"">&emsp;</p><br><p style=""font-size: 60px; font-family: BACS"">EtMDMRYlD<p style=""font-size: 15px"">Premi <strong>k</strong> per sì, <strong>d</strong> per no.</p>","","EtMDMRYlD","testing","k","false","","",""
"html-keyboard-response","358","468892","0.0-16.0-0.24","6175a0a52e748285b3476b27","64afc2c9a8732ea92db0087d","64afd5a08be969841ccd791f","570","d","<p style=""font-size: 30px"">&emsp;</p><br><p style=""font-size: 60px; font-family: BACS"">OCmkQGb<p style=""font-size: 15px"">Premi <strong>k</strong> per sì, <strong>d</strong> per no.</p>","","OCmkQGb","testing","d","true","","",""
"html-keyboard-response","359","469285","0.0-16.0-0.25","6175a0a52e748285b3476b27","64afc2c9a8732ea92db0087d","64afd5a08be969841ccd791f","391","k","<p style=""font-size: 30px"">&emsp;</p><br><p style=""font-size: 60px; font-family: BACS"">DkTCPAZbl<p style=""font-size: 15px"">Premi <strong>k</strong> per sì, <strong>d</strong> per no.</p>","","DkTCPAZbl","testing","d","false","","",""
"html-keyboard-response","360","469719","0.0-16.0-0.26","6175a0a52e748285b3476b27","64afc2c9a8732ea92db0087d","64afd5a08be969841ccd791f","434","k","<p style=""font-size: 30px"">&emsp;</p><br><p style=""font-size: 60px; font-family: BACS"">AZlLNCKOb<p style=""font-size: 15px"">Premi <strong>k</strong> per sì, <strong>d</strong> per no.</p>","","AZlLNCKOb","testing","d","false","","",""
"html-keyboard-response","361","469936","0.0-16.0-0.27","6175a0a52e748285b3476b27","64afc2c9a8732ea92db0087d","64afd5a08be969841ccd791f","216","k","<p style=""font-size: 30px"">&emsp;</p><br><p style=""font-size: 60px; font-family: BACS"">AbKDdPc<p style=""font-size: 15px"">Premi <strong>k</strong> per sì, <strong>d</strong> per no.</p>","","AbKDdPc","testing","k","true","","",""
"html-keyboard-response","362","470533","0.0-16.0-0.28","6175a0a52e748285b3476b27","64afc2c9a8732ea92db0087d","64afd5a08be969841ccd791f","597","k","<p style=""font-size: 30px"">&emsp;</p><br><p style=""font-size: 60px; font-family: BACS"">EtMDMYmb<p style=""font-size: 15px"">Premi <strong>k</strong> per sì, <strong>d</strong> per no.</p>","","EtMDMYmb","testing","d","false","","",""
"html-keyboard-response","363","470996","0.0-16.0-0.29","6175a0a52e748285b3476b27","64afc2c9a8732ea92db0087d","64afd5a08be969841ccd791f","463","k","<p style=""font-size: 30px"">&emsp;</p><br><p style=""font-size: 60px; font-family: BACS"">lBKtAvdk<p style=""font-size: 15px"">Premi <strong>k</strong> per sì, <strong>d</strong> per no.</p>","","lBKtAvdk","testing","d","false","","",""
"html-keyboard-response","364","471135","0.0-16.0-0.30","6175a0a52e748285b3476b27","64afc2c9a8732ea92db0087d","64afd5a08be969841ccd791f","138","k","<p style=""font-size: 30px"">&emsp;</p><br><p style=""font-size: 60px; font-family: BACS"">bRABtBRDh<p style=""font-size: 15px"">Premi <strong>k</strong> per sì, <strong>d</strong> per no.</p>","","bRABtBRDh","testing","k","true","","",""
"html-keyboard-response","365","471660","0.0-16.0-0.31","6175a0a52e748285b3476b27","64afc2c9a8732ea92db0087d","64afd5a08be969841ccd791f","526","k","<p style=""font-size: 30px"">&emsp;</p><br><p style=""font-size: 60px; font-family: BACS"">OdlNmYmb<p style=""font-size: 15px"">Premi <strong>k</strong> per sì, <strong>d</strong> per no.</p>","","OdlNmYmb","testing","k","true","","",""
"html-keyboard-response","366","471994","0.0-16.0-0.32","6175a0a52e748285b3476b27","64afc2c9a8732ea92db0087d","64afd5a08be969841ccd791f","333","k","<p style=""font-size: 30px"">&emsp;</p><br><p style=""font-size: 60px; font-family: BACS"">dmZvmBRDh<p style=""font-size: 15px"">Premi <strong>k</strong> per sì, <strong>d</strong> per no.</p>","","dmZvmBRDh","testing","d","false","","",""
"html-keyboard-response","367","472529","0.0-16.0-0.33","6175a0a52e748285b3476b27","64afc2c9a8732ea92db0087d","64afd5a08be969841ccd791f","534","d","<p style=""font-size: 30px"">&emsp;</p><br><p style=""font-size: 60px; font-family: BACS"">PhktkCKOb<p style=""font-size: 15px"">Premi <strong>k</strong> per sì, <strong>d</strong> per no.</p>","","PhktkCKOb","testing","k","false","","",""
"html-keyboard-response","368","472719","0.0-16.0-0.34","6175a0a52e748285b3476b27","64afc2c9a8732ea92db0087d","64afd5a08be969841ccd791f","189","k","<p style=""font-size: 30px"">&emsp;</p><br><p style=""font-size: 60px; font-family: BACS"">adYrcYmb<p style=""font-size: 15px"">Premi <strong>k</strong> per sì, <strong>d</strong> per no.</p>","","adYrcYmb","testing","k","true","","",""
"html-keyboard-response","369","472919","0.0-16.0-0.35","6175a0a52e748285b3476b27","64afc2c9a8732ea92db0087d","64afd5a08be969841ccd791f","200","k","<p style=""font-size: 30px"">&emsp;</p><br><p style=""font-size: 60px; font-family: BACS"">vkYGlAZbl<p style=""font-size: 15px"">Premi <strong>k</strong> per sì, <strong>d</strong> per no.</p>","","vkYGlAZbl","testing","k","true","","",""
"html-keyboard-response","370","473194","0.0-16.0-0.36","6175a0a52e748285b3476b27","64afc2c9a8732ea92db0087d","64afd5a08be969841ccd791f","274","d","<p style=""font-size: 30px"">&emsp;</p><br><p style=""font-size: 60px; font-family: BACS"">adkrQGb<p style=""font-size: 15px"">Premi <strong>k</strong> per sì, <strong>d</strong> per no.</p>","","adkrQGb","testing","k","false","","",""
"html-keyboard-response","371","473384","0.0-16.0-0.37","6175a0a52e748285b3476b27","64afc2c9a8732ea92db0087d","64afd5a08be969841ccd791f","190","k","<p style=""font-size: 30px"">&emsp;</p><br><p style=""font-size: 60px; font-family: BACS"">AlNUGlu<p style=""font-size: 15px"">Premi <strong>k</strong> per sì, <strong>d</strong> per no.</p>","","AlNUGlu","testing","k","true","","",""
