"trial_type","trial_index","time_elapsed","internal_node_id","subject_id","study_id","session_id","rt","response","stimulus","success","item","task","correct_response","correct","target","confound","name"
"pavlovia","0","3287","0.0-0.0","5cb4adc019ee7300189e8547","64afc2c9a8732ea92db0087d","64aff7ffb55438b6207f6fae","","","","","","","","","","",""
"survey-html-form","1","19540","0.0-1.0","5cb4adc019ee7300189e8547","64afc2c9a8732ea92db0087d","64aff7ffb55438b6207f6fae","16252","{""ID"":""5cb4adc019ee7300189e8547""}","","","","","","","","",""
"html-keyboard-response","2","25344","0.0-2.0","5cb4adc019ee7300189e8547","64afc2c9a8732ea92db0087d","64aff7ffb55438b6207f6fae","5802"," ","<p style=""font-size: 15px;"">Prima di cominciare, le chiediamo di leggere il modulo di consenso informato e confermare la sua volontà di partecipare all'esperimento.</p>
      <p style=""font-size: 15px;""> La preghiamo di ricordare che questo è un progetto di ricerca e che la sua partecipazione è completamente volontaria. Lei si potra' ritirare in qualunque momento, senza necessariamente dover dare alcuna spiegazione. Lo studio al quale Le si chiede di partecipare ha lo scopo di esaminare come i lettori elaborano le parole scritte. La somministrazione delle prove è individuale. Lei sarà impegnato in una sessione di lavoro della durata media di 10 minuti, e un questionario di 10 minuti. L’ordine delle prove ed il loro svolgimento sono stabiliti in modo tale da evitare un eventuale affaticamento. Tutte le prove saranno precedute da un breve addestramento in modo tale che abbia la possibilità di familiarizzare con il compito. Sono previste alcune pause nel corso dello svolgimento dell’esperimento. Una ricompensa di £4 (£8 per ora) Le verrà consegnata al termine della sessione di testing. Nonostante il testing preveda delle prove cognitive, il presente esperimento non costituisce una prova clinica che permetta la diagnosi di eventuali patologie.</p>
      <p style=""font-size: 15px;"">Tutti i dati raccolti grazie alla partecipazione Sua e di altre persone volontarie saranno custoditi in server sicuri e protetti da password, e non sarà consentito ad alcuna persona non autorizzata di accedervi. Le Sue informazioni personali saranno conservate separatamente dai risultati della presente ricerca, cui saranno associati soltanto attraverso un ID arbitrario. Grazie a questo processo di anonimizzazione dei dati, a nessun ricercatore sarà possibile analizzare i risultati sapendo da quale specifico partecipante essi provengono. Inoltre, questa procedura renderà impossibile la Sua identificazione anche nel momento in cui i risultati della ricerca fossero pubblicati su riviste scientifiche, o presentati a congressi o in qualsiasi altro pubblico consesso. Più in generale, i dati raccolti saranno trattati in accordo con le leggi sulla privacy e in conformità al Decreto Legislativo 30 giugno 2003 n. 196 “Codice in materia di protezione dei dati personali” e al Regolamento Europeo 2016/679 (General Data Protection Regulation - GDPR). Il Responsabile della protezione dei dati (RPD) è l’Avv. Valentina Carollo che può essere contattato ai seguenti indirizzi email: <a href=""mailto:dpo@sissa.it"">dpo@sissa.it</a> oppure <a href=""mailto:rpd@sissa.it"">rpd@sissa.it</a> - PEC: <a href=""mailto:protocollo@pec.sissa.it"">protocollo@pec.sissa.it</a>.</p>
      <p style=""font-size: 15px;""> Prima di esprimere il suo consenso alla partecipazione, Le ricordiamo ancora che in caso Lei abbia bisogno di delucidazioni su qualunque aspetto della procedura sperimentale, il ricercatore è a Sua completa disposizione (<a href=""mailto:aliebelt@sissa.it"">aliebelt@sissa.it</a>, <a href=""mailto:davide.crepaldi@sissa.it"">davide.crepaldi@sissa.it</a>).</p>
      <p style=""font-size: 15px;"">Se vuole scaricare il modulo di consenso informato, clicca qui: <a href=""BASL_modulo_consenso.pdf"" download>modulo di consenso</a>.</p>
      <p style=""font-size: 15px;""> Le chiediamo di premere la barra per continuare al consenso.</p>","","","","","","","",""
"survey-html-form","3","36356","0.0-3.0","5cb4adc019ee7300189e8547","64afc2c9a8732ea92db0087d","64aff7ffb55438b6207f6fae","11009","{""consent1"":""YES"",""consent2"":""YES"",""consent3"":""YES"",""consent4"":""YES"",""consent5"":""YES"",""consent6"":""YES""}","","","","","","","","",""
"fullscreen","4","48640","0.0-4.0","5cb4adc019ee7300189e8547","64afc2c9a8732ea92db0087d","64aff7ffb55438b6207f6fae","","","","true","","","","","","",""
"html-keyboard-response","5","65887","0.0-5.0","5cb4adc019ee7300189e8547","64afc2c9a8732ea92db0087d","64aff7ffb55438b6207f6fae","17246"," ","<p>Benvenuta/o, e grazie mille del tuo tempo!</p>
      <p>In questo esperimento sarai un esperto/un'esperta di linguaggio cui è stato chiesto di dare un'occhiata ad alcuni messaggi che la Terra ha ricevuto dallo spazio. Il tuo compito, in questa prima parte dell'esperimento, sarà di fare molta attenzione alle parole che ti verranno mostrate; più tardi, i leader del mondo ti chiederanno qualche informazione su quello che hai visto. Le parole si susseguiranno abbastanza velocemente; sembra che questi alieni abbiano una certa fretta :-) </p>
      <p>Per favore, chiama lo sperimentatore se ha qualche domanda.</p><p>Premi la barra per continuare.</p>","","","","","","","",""
"html-keyboard-response","6","70845","0.0-6.0","5cb4adc019ee7300189e8547","64afc2c9a8732ea92db0087d","64aff7ffb55438b6207f6fae","4956"," ","<p>Ecco un esempio delle parole che vedrai:</p>
      <img src='esempio.png' height='400px'>
      <p>Quando sei pronti per iniziare, premi la barra.</p></div>","","","","","","","",""
"html-keyboard-response","7","71855","0.0-7.0-0.0","5cb4adc019ee7300189e8547","64afc2c9a8732ea92db0087d","64aff7ffb55438b6207f6fae","null","null","<p style=""font-size: 60px; font-family: BACS"">Zvalvkbu</p>","","","","","","","",""
"html-keyboard-response","8","72864","0.0-7.0-0.1","5cb4adc019ee7300189e8547","64afc2c9a8732ea92db0087d","64aff7ffb55438b6207f6fae","null","null","<p style=""font-size: 60px; font-family: BACS"">kRCkObRC</p>","","","","","","","",""
"html-keyboard-response","9","73885","0.0-7.0-0.2","5cb4adc019ee7300189e8547","64afc2c9a8732ea92db0087d","64aff7ffb55438b6207f6fae","null","null","<p style=""font-size: 60px; font-family: BACS"">lYruaQONk</p>","","","","","","","",""
"html-keyboard-response","10","74895","0.0-7.0-0.3","5cb4adc019ee7300189e8547","64afc2c9a8732ea92db0087d","64aff7ffb55438b6207f6fae","null","null","<p style=""font-size: 60px; font-family: BACS"">YcdOkmU</p>","","","","","","","",""
"html-keyboard-response","11","75903","0.0-7.0-0.4","5cb4adc019ee7300189e8547","64afc2c9a8732ea92db0087d","64aff7ffb55438b6207f6fae","null","null","<p style=""font-size: 60px; font-family: BACS"">dvNvAkbu</p>","","","","","","","",""
"html-keyboard-response","12","76911","0.0-7.0-0.5","5cb4adc019ee7300189e8547","64afc2c9a8732ea92db0087d","64aff7ffb55438b6207f6fae","null","null","<p style=""font-size: 60px; font-family: BACS"">OcYMdEPD</p>","","","","","","","",""
"html-keyboard-response","13","77918","0.0-7.0-0.6","5cb4adc019ee7300189e8547","64afc2c9a8732ea92db0087d","64aff7ffb55438b6207f6fae","null","null","<p style=""font-size: 60px; font-family: BACS"">lGZvkbu</p>","","","","","","","",""
"html-keyboard-response","14","78927","0.0-7.0-0.7","5cb4adc019ee7300189e8547","64afc2c9a8732ea92db0087d","64aff7ffb55438b6207f6fae","null","null","<p style=""font-size: 60px; font-family: BACS"">Zvalvrab</p>","","","","","","","",""
"html-keyboard-response","15","79936","0.0-7.0-0.8","5cb4adc019ee7300189e8547","64afc2c9a8732ea92db0087d","64aff7ffb55438b6207f6fae","null","null","<p style=""font-size: 60px; font-family: BACS"">kCRmRDM</p>","","","","","","","",""
"html-keyboard-response","16","80943","0.0-7.0-0.9","5cb4adc019ee7300189e8547","64afc2c9a8732ea92db0087d","64aff7ffb55438b6207f6fae","null","null","<p style=""font-size: 60px; font-family: BACS"">bmbNrab</p>","","","","","","","",""
"html-keyboard-response","17","81951","0.0-7.0-0.10","5cb4adc019ee7300189e8547","64afc2c9a8732ea92db0087d","64aff7ffb55438b6207f6fae","null","null","<p style=""font-size: 60px; font-family: BACS"">lYruakbu</p>","","","","","","","",""
"html-keyboard-response","18","82958","0.0-7.0-0.11","5cb4adc019ee7300189e8547","64afc2c9a8732ea92db0087d","64aff7ffb55438b6207f6fae","null","null","<p style=""font-size: 60px; font-family: BACS"">lGZvrab</p>","","","","","","","",""
"html-keyboard-response","19","83967","0.0-7.0-0.12","5cb4adc019ee7300189e8547","64afc2c9a8732ea92db0087d","64aff7ffb55438b6207f6fae","null","null","<p style=""font-size: 60px; font-family: BACS"">kPkRAKEdl</p>","","","","","","","",""
"html-keyboard-response","20","84975","0.0-7.0-0.13","5cb4adc019ee7300189e8547","64afc2c9a8732ea92db0087d","64aff7ffb55438b6207f6fae","null","null","<p style=""font-size: 60px; font-family: BACS"">kRCkORDM</p>","","","","","","","",""
"html-keyboard-response","21","85983","0.0-7.0-0.14","5cb4adc019ee7300189e8547","64afc2c9a8732ea92db0087d","64aff7ffb55438b6207f6fae","null","null","<p style=""font-size: 60px; font-family: BACS"">KElBdEPD</p>","","","","","","","",""
"html-keyboard-response","22","86991","0.0-7.0-0.15","5cb4adc019ee7300189e8547","64afc2c9a8732ea92db0087d","64aff7ffb55438b6207f6fae","null","null","<p style=""font-size: 60px; font-family: BACS"">lBlEKEdl</p>","","","","","","","",""
"html-keyboard-response","23","88000","0.0-7.0-0.16","5cb4adc019ee7300189e8547","64afc2c9a8732ea92db0087d","64aff7ffb55438b6207f6fae","null","null","<p style=""font-size: 60px; font-family: BACS"">kPkRARDM</p>","","","","","","","",""
"html-keyboard-response","24","89007","0.0-7.0-0.17","5cb4adc019ee7300189e8547","64afc2c9a8732ea92db0087d","64aff7ffb55438b6207f6fae","null","null","<p style=""font-size: 60px; font-family: BACS"">DhCPdEPD</p>","","","","","","","",""
"html-keyboard-response","25","90015","0.0-7.0-0.18","5cb4adc019ee7300189e8547","64afc2c9a8732ea92db0087d","64aff7ffb55438b6207f6fae","null","null","<p style=""font-size: 60px; font-family: BACS"">kPkRAbRC</p>","","","","","","","",""
"html-keyboard-response","26","91024","0.0-7.0-0.19","5cb4adc019ee7300189e8547","64afc2c9a8732ea92db0087d","64aff7ffb55438b6207f6fae","null","null","<p style=""font-size: 60px; font-family: BACS"">JdGmrab</p>","","","","","","","",""
"html-keyboard-response","27","92031","0.0-7.0-0.20","5cb4adc019ee7300189e8547","64afc2c9a8732ea92db0087d","64aff7ffb55438b6207f6fae","null","null","<p style=""font-size: 60px; font-family: BACS"">mBmlAbRC</p>","","","","","","","",""
"html-keyboard-response","28","93038","0.0-7.0-0.21","5cb4adc019ee7300189e8547","64afc2c9a8732ea92db0087d","64aff7ffb55438b6207f6fae","null","null","<p style=""font-size: 60px; font-family: BACS"">kcdOtRDM</p>","","","","","","","",""
"html-keyboard-response","29","94047","0.0-7.0-0.22","5cb4adc019ee7300189e8547","64afc2c9a8732ea92db0087d","64aff7ffb55438b6207f6fae","null","null","<p style=""font-size: 60px; font-family: BACS"">ukYZkmU</p>","","","","","","","",""
"html-keyboard-response","30","95055","0.0-7.0-0.23","5cb4adc019ee7300189e8547","64afc2c9a8732ea92db0087d","64aff7ffb55438b6207f6fae","null","null","<p style=""font-size: 60px; font-family: BACS"">kRCkOKEdl</p>","","","","","","","",""
"html-keyboard-response","31","96063","0.0-7.0-0.24","5cb4adc019ee7300189e8547","64afc2c9a8732ea92db0087d","64aff7ffb55438b6207f6fae","null","null","<p style=""font-size: 60px; font-family: BACS"">kCRmbRC</p>","","","","","","","",""
"html-keyboard-response","32","97071","0.0-7.0-0.25","5cb4adc019ee7300189e8547","64afc2c9a8732ea92db0087d","64aff7ffb55438b6207f6fae","null","null","<p style=""font-size: 60px; font-family: BACS"">COtBDTRkY</p>","","","","","","","",""
"html-keyboard-response","33","98079","0.0-7.0-0.26","5cb4adc019ee7300189e8547","64afc2c9a8732ea92db0087d","64aff7ffb55438b6207f6fae","null","null","<p style=""font-size: 60px; font-family: BACS"">DhCPRDM</p>","","","","","","","",""
"html-keyboard-response","34","99087","0.0-7.0-0.27","5cb4adc019ee7300189e8547","64afc2c9a8732ea92db0087d","64aff7ffb55438b6207f6fae","null","null","<p style=""font-size: 60px; font-family: BACS"">kcdOtKEdl</p>","","","","","","","",""
"html-keyboard-response","35","100095","0.0-7.0-0.28","5cb4adc019ee7300189e8547","64afc2c9a8732ea92db0087d","64aff7ffb55438b6207f6fae","null","null","<p style=""font-size: 60px; font-family: BACS"">kCRmTRkY</p>","","","","","","","",""
"html-keyboard-response","36","101103","0.0-7.0-0.29","5cb4adc019ee7300189e8547","64afc2c9a8732ea92db0087d","64aff7ffb55438b6207f6fae","null","null","<p style=""font-size: 60px; font-family: BACS"">lBlEbRC</p>","","","","","","","",""
"html-keyboard-response","37","102115","0.0-7.0-0.30","5cb4adc019ee7300189e8547","64afc2c9a8732ea92db0087d","64aff7ffb55438b6207f6fae","null","null","<p style=""font-size: 60px; font-family: BACS"">LcNUJkGua</p>","","","","","","","",""
"html-keyboard-response","38","103118","0.0-7.0-0.31","5cb4adc019ee7300189e8547","64afc2c9a8732ea92db0087d","64aff7ffb55438b6207f6fae","null","null","<p style=""font-size: 60px; font-family: BACS"">kcdOtTRkY</p>","","","","","","","",""
"html-keyboard-response","39","104124","0.0-7.0-0.32","5cb4adc019ee7300189e8547","64afc2c9a8732ea92db0087d","64aff7ffb55438b6207f6fae","null","null","<p style=""font-size: 60px; font-family: BACS"">COtBDbRC</p>","","","","","","","",""
"html-keyboard-response","40","105135","0.0-7.0-0.33","5cb4adc019ee7300189e8547","64afc2c9a8732ea92db0087d","64aff7ffb55438b6207f6fae","null","null","<p style=""font-size: 60px; font-family: BACS"">bmbNkmU</p>","","","","","","","",""
"html-keyboard-response","41","106143","0.0-7.0-0.34","5cb4adc019ee7300189e8547","64afc2c9a8732ea92db0087d","64aff7ffb55438b6207f6fae","null","null","<p style=""font-size: 60px; font-family: BACS"">OcYMRDM</p>","","","","","","","",""
"html-keyboard-response","42","107147","0.0-7.0-0.35","5cb4adc019ee7300189e8547","64afc2c9a8732ea92db0087d","64aff7ffb55438b6207f6fae","null","null","<p style=""font-size: 60px; font-family: BACS"">lYruakmU</p>","","","","","","","",""
"html-keyboard-response","43","108151","0.0-7.0-0.36","5cb4adc019ee7300189e8547","64afc2c9a8732ea92db0087d","64aff7ffb55438b6207f6fae","null","null","<p style=""font-size: 60px; font-family: BACS"">ukYZkbu</p>","","","","","","","",""
"html-keyboard-response","44","109159","0.0-7.0-0.37","5cb4adc019ee7300189e8547","64afc2c9a8732ea92db0087d","64aff7ffb55438b6207f6fae","null","null","<p style=""font-size: 60px; font-family: BACS"">KElBKEdl</p>","","","","","","","",""
"html-keyboard-response","45","110167","0.0-7.0-0.38","5cb4adc019ee7300189e8547","64afc2c9a8732ea92db0087d","64aff7ffb55438b6207f6fae","null","null","<p style=""font-size: 60px; font-family: BACS"">kCRmdEPD</p>","","","","","","","",""
"html-keyboard-response","46","111174","0.0-7.0-0.39","5cb4adc019ee7300189e8547","64afc2c9a8732ea92db0087d","64aff7ffb55438b6207f6fae","null","null","<p style=""font-size: 60px; font-family: BACS"">ZvalvQONk</p>","","","","","","","",""
"html-keyboard-response","47","112183","0.0-7.0-0.40","5cb4adc019ee7300189e8547","64afc2c9a8732ea92db0087d","64aff7ffb55438b6207f6fae","null","null","<p style=""font-size: 60px; font-family: BACS"">YcdOkGua</p>","","","","","","","",""
"html-keyboard-response","48","113191","0.0-7.0-0.41","5cb4adc019ee7300189e8547","64afc2c9a8732ea92db0087d","64aff7ffb55438b6207f6fae","null","null","<p style=""font-size: 60px; font-family: BACS"">mBmlAKEdl</p>","","","","","","","",""
"html-keyboard-response","49","114199","0.0-7.0-0.42","5cb4adc019ee7300189e8547","64afc2c9a8732ea92db0087d","64aff7ffb55438b6207f6fae","null","null","<p style=""font-size: 60px; font-family: BACS"">LcNUJrab</p>","","","","","","","",""
"html-keyboard-response","50","115207","0.0-7.0-0.43","5cb4adc019ee7300189e8547","64afc2c9a8732ea92db0087d","64aff7ffb55438b6207f6fae","null","null","<p style=""font-size: 60px; font-family: BACS"">mBmlATRkY</p>","","","","","","","",""
"html-keyboard-response","51","116215","0.0-7.0-0.44","5cb4adc019ee7300189e8547","64afc2c9a8732ea92db0087d","64aff7ffb55438b6207f6fae","null","null","<p style=""font-size: 60px; font-family: BACS"">JdGmkGua</p>","","","","","","","",""
"html-keyboard-response","52","117224","0.0-7.0-0.45","5cb4adc019ee7300189e8547","64afc2c9a8732ea92db0087d","64aff7ffb55438b6207f6fae","null","null","<p style=""font-size: 60px; font-family: BACS"">KElBRDM</p>","","","","","","","",""
"html-keyboard-response","53","118231","0.0-7.0-0.46","5cb4adc019ee7300189e8547","64afc2c9a8732ea92db0087d","64aff7ffb55438b6207f6fae","null","null","<p style=""font-size: 60px; font-family: BACS"">OcYMKEdl</p>","","","","","","","",""
"html-keyboard-response","54","119239","0.0-7.0-0.47","5cb4adc019ee7300189e8547","64afc2c9a8732ea92db0087d","64aff7ffb55438b6207f6fae","null","null","<p style=""font-size: 60px; font-family: BACS"">lBlETRkY</p>","","","","","","","",""
"html-keyboard-response","55","120247","0.0-7.0-0.48","5cb4adc019ee7300189e8547","64afc2c9a8732ea92db0087d","64aff7ffb55438b6207f6fae","null","null","<p style=""font-size: 60px; font-family: BACS"">DhCPbRC</p>","","","","","","","",""
"html-keyboard-response","56","121255","0.0-7.0-0.49","5cb4adc019ee7300189e8547","64afc2c9a8732ea92db0087d","64aff7ffb55438b6207f6fae","null","null","<p style=""font-size: 60px; font-family: BACS"">mBmlAdEPD</p>","","","","","","","",""
"html-keyboard-response","57","122262","0.0-7.0-0.50","5cb4adc019ee7300189e8547","64afc2c9a8732ea92db0087d","64aff7ffb55438b6207f6fae","null","null","<p style=""font-size: 60px; font-family: BACS"">dvNvAkGua</p>","","","","","","","",""
"html-keyboard-response","58","123271","0.0-7.0-0.51","5cb4adc019ee7300189e8547","64afc2c9a8732ea92db0087d","64aff7ffb55438b6207f6fae","null","null","<p style=""font-size: 60px; font-family: BACS"">JrGvQONk</p>","","","","","","","",""
"html-keyboard-response","59","124279","0.0-7.0-0.52","5cb4adc019ee7300189e8547","64afc2c9a8732ea92db0087d","64aff7ffb55438b6207f6fae","null","null","<p style=""font-size: 60px; font-family: BACS"">ukYZrab</p>","","","","","","","",""
"html-keyboard-response","60","125287","0.0-7.0-0.53","5cb4adc019ee7300189e8547","64afc2c9a8732ea92db0087d","64aff7ffb55438b6207f6fae","null","null","<p style=""font-size: 60px; font-family: BACS"">JrGvkGua</p>","","","","","","","",""
"html-keyboard-response","61","126296","0.0-7.0-0.54","5cb4adc019ee7300189e8547","64afc2c9a8732ea92db0087d","64aff7ffb55438b6207f6fae","null","null","<p style=""font-size: 60px; font-family: BACS"">kRCkOTRkY</p>","","","","","","","",""
"html-keyboard-response","62","127303","0.0-7.0-0.55","5cb4adc019ee7300189e8547","64afc2c9a8732ea92db0087d","64aff7ffb55438b6207f6fae","null","null","<p style=""font-size: 60px; font-family: BACS"">JdGmkbu</p>","","","","","","","",""
"html-keyboard-response","63","128311","0.0-7.0-0.56","5cb4adc019ee7300189e8547","64afc2c9a8732ea92db0087d","64aff7ffb55438b6207f6fae","null","null","<p style=""font-size: 60px; font-family: BACS"">YcdOQONk</p>","","","","","","","",""
"html-keyboard-response","64","129319","0.0-7.0-0.57","5cb4adc019ee7300189e8547","64afc2c9a8732ea92db0087d","64aff7ffb55438b6207f6fae","null","null","<p style=""font-size: 60px; font-family: BACS"">JrGvkbu</p>","","","","","","","",""
"html-keyboard-response","65","130327","0.0-7.0-0.58","5cb4adc019ee7300189e8547","64afc2c9a8732ea92db0087d","64aff7ffb55438b6207f6fae","null","null","<p style=""font-size: 60px; font-family: BACS"">lYruarab</p>","","","","","","","",""
"html-keyboard-response","66","131335","0.0-7.0-0.59","5cb4adc019ee7300189e8547","64afc2c9a8732ea92db0087d","64aff7ffb55438b6207f6fae","null","null","<p style=""font-size: 60px; font-family: BACS"">LcNUJQONk</p>","","","","","","","",""
"html-keyboard-response","67","132343","0.0-7.0-0.60","5cb4adc019ee7300189e8547","64afc2c9a8732ea92db0087d","64aff7ffb55438b6207f6fae","null","null","<p style=""font-size: 60px; font-family: BACS"">COtBDRDM</p>","","","","","","","",""
"html-keyboard-response","68","133351","0.0-7.0-0.61","5cb4adc019ee7300189e8547","64afc2c9a8732ea92db0087d","64aff7ffb55438b6207f6fae","null","null","<p style=""font-size: 60px; font-family: BACS"">DhCPKEdl</p>","","","","","","","",""
"html-keyboard-response","69","134358","0.0-7.0-0.62","5cb4adc019ee7300189e8547","64afc2c9a8732ea92db0087d","64aff7ffb55438b6207f6fae","null","null","<p style=""font-size: 60px; font-family: BACS"">YcdOkbu</p>","","","","","","","",""
"html-keyboard-response","70","135367","0.0-7.0-0.63","5cb4adc019ee7300189e8547","64afc2c9a8732ea92db0087d","64aff7ffb55438b6207f6fae","null","null","<p style=""font-size: 60px; font-family: BACS"">ukYZQONk</p>","","","","","","","",""
"html-keyboard-response","71","136375","0.0-7.0-0.64","5cb4adc019ee7300189e8547","64afc2c9a8732ea92db0087d","64aff7ffb55438b6207f6fae","null","null","<p style=""font-size: 60px; font-family: BACS"">JdGmkmU</p>","","","","","","","",""
"html-keyboard-response","72","137384","0.0-7.0-0.65","5cb4adc019ee7300189e8547","64afc2c9a8732ea92db0087d","64aff7ffb55438b6207f6fae","null","null","<p style=""font-size: 60px; font-family: BACS"">bmbNQONk</p>","","","","","","","",""
"html-keyboard-response","73","138392","0.0-7.0-0.66","5cb4adc019ee7300189e8547","64afc2c9a8732ea92db0087d","64aff7ffb55438b6207f6fae","null","null","<p style=""font-size: 60px; font-family: BACS"">LcNUJkmU</p>","","","","","","","",""
"html-keyboard-response","74","139399","0.0-7.0-0.67","5cb4adc019ee7300189e8547","64afc2c9a8732ea92db0087d","64aff7ffb55438b6207f6fae","null","null","<p style=""font-size: 60px; font-family: BACS"">ZvalvkGua</p>","","","","","","","",""
"html-keyboard-response","75","140406","0.0-7.0-0.68","5cb4adc019ee7300189e8547","64afc2c9a8732ea92db0087d","64aff7ffb55438b6207f6fae","null","null","<p style=""font-size: 60px; font-family: BACS"">KElBTRkY</p>","","","","","","","",""
"html-keyboard-response","76","141409","0.0-7.0-0.69","5cb4adc019ee7300189e8547","64afc2c9a8732ea92db0087d","64aff7ffb55438b6207f6fae","null","null","<p style=""font-size: 60px; font-family: BACS"">dvNvAQONk</p>","","","","","","","",""
"html-keyboard-response","77","142415","0.0-7.0-0.70","5cb4adc019ee7300189e8547","64afc2c9a8732ea92db0087d","64aff7ffb55438b6207f6fae","null","null","<p style=""font-size: 60px; font-family: BACS"">lGZvkGua</p>","","","","","","","",""
"html-keyboard-response","78","143423","0.0-7.0-0.71","5cb4adc019ee7300189e8547","64afc2c9a8732ea92db0087d","64aff7ffb55438b6207f6fae","null","null","<p style=""font-size: 60px; font-family: BACS"">JrGvkmU</p>","","","","","","","",""
"html-keyboard-response","79","144431","0.0-7.0-0.72","5cb4adc019ee7300189e8547","64afc2c9a8732ea92db0087d","64aff7ffb55438b6207f6fae","null","null","<p style=""font-size: 60px; font-family: BACS"">OcYMTRkY</p>","","","","","","","",""
"html-keyboard-response","80","145439","0.0-7.0-0.73","5cb4adc019ee7300189e8547","64afc2c9a8732ea92db0087d","64aff7ffb55438b6207f6fae","null","null","<p style=""font-size: 60px; font-family: BACS"">kcdOtbRC</p>","","","","","","","",""
"html-keyboard-response","81","146446","0.0-7.0-0.74","5cb4adc019ee7300189e8547","64afc2c9a8732ea92db0087d","64aff7ffb55438b6207f6fae","null","null","<p style=""font-size: 60px; font-family: BACS"">bmbNkGua</p>","","","","","","","",""
"html-keyboard-response","82","147455","0.0-7.0-0.75","5cb4adc019ee7300189e8547","64afc2c9a8732ea92db0087d","64aff7ffb55438b6207f6fae","null","null","<p style=""font-size: 60px; font-family: BACS"">lBlEdEPD</p>","","","","","","","",""
"html-keyboard-response","83","148464","0.0-7.0-0.76","5cb4adc019ee7300189e8547","64afc2c9a8732ea92db0087d","64aff7ffb55438b6207f6fae","null","null","<p style=""font-size: 60px; font-family: BACS"">dvNvArab</p>","","","","","","","",""
"html-keyboard-response","84","149471","0.0-7.0-0.77","5cb4adc019ee7300189e8547","64afc2c9a8732ea92db0087d","64aff7ffb55438b6207f6fae","null","null","<p style=""font-size: 60px; font-family: BACS"">COtBDdEPD</p>","","","","","","","",""
"html-keyboard-response","85","150479","0.0-7.0-0.78","5cb4adc019ee7300189e8547","64afc2c9a8732ea92db0087d","64aff7ffb55438b6207f6fae","null","null","<p style=""font-size: 60px; font-family: BACS"">lGZvkmU</p>","","","","","","","",""
"html-keyboard-response","86","151487","0.0-7.0-0.79","5cb4adc019ee7300189e8547","64afc2c9a8732ea92db0087d","64aff7ffb55438b6207f6fae","null","null","<p style=""font-size: 60px; font-family: BACS"">kPkRAdEPD</p>","","","","","","","",""
"html-keyboard-response","87","161273","0.0-8.0","5cb4adc019ee7300189e8547","64afc2c9a8732ea92db0087d","64aff7ffb55438b6207f6fae","9783"," ","<p>Ottimo, hai visto il primo blocco di parole. Ora puoi prenderti una piccola pausa.</p>
      <p>Premi la barra quando sei pronta/o per riprendere.</p>","","","","","","","",""
"html-keyboard-response","88","162279","0.0-9.0-0.0","5cb4adc019ee7300189e8547","64afc2c9a8732ea92db0087d","64aff7ffb55438b6207f6fae","null","null","<p style=""font-size: 60px; font-family: BACS"">kRCkOKEdl</p>","","","","","","","",""
"html-keyboard-response","89","163287","0.0-9.0-0.1","5cb4adc019ee7300189e8547","64afc2c9a8732ea92db0087d","64aff7ffb55438b6207f6fae","null","null","<p style=""font-size: 60px; font-family: BACS"">ukYZkmU</p>","","","","","","","",""
"html-keyboard-response","90","164296","0.0-9.0-0.2","5cb4adc019ee7300189e8547","64afc2c9a8732ea92db0087d","64aff7ffb55438b6207f6fae","null","null","<p style=""font-size: 60px; font-family: BACS"">DhCPbRC</p>","","","","","","","",""
"html-keyboard-response","91","165303","0.0-9.0-0.3","5cb4adc019ee7300189e8547","64afc2c9a8732ea92db0087d","64aff7ffb55438b6207f6fae","null","null","<p style=""font-size: 60px; font-family: BACS"">YcdOkGua</p>","","","","","","","",""
"html-keyboard-response","92","166311","0.0-9.0-0.4","5cb4adc019ee7300189e8547","64afc2c9a8732ea92db0087d","64aff7ffb55438b6207f6fae","null","null","<p style=""font-size: 60px; font-family: BACS"">lYruakbu</p>","","","","","","","",""
"html-keyboard-response","93","167319","0.0-9.0-0.5","5cb4adc019ee7300189e8547","64afc2c9a8732ea92db0087d","64aff7ffb55438b6207f6fae","null","null","<p style=""font-size: 60px; font-family: BACS"">lBlEdEPD</p>","","","","","","","",""
"html-keyboard-response","94","168328","0.0-9.0-0.6","5cb4adc019ee7300189e8547","64afc2c9a8732ea92db0087d","64aff7ffb55438b6207f6fae","null","null","<p style=""font-size: 60px; font-family: BACS"">COtBDbRC</p>","","","","","","","",""
"html-keyboard-response","95","169335","0.0-9.0-0.7","5cb4adc019ee7300189e8547","64afc2c9a8732ea92db0087d","64aff7ffb55438b6207f6fae","null","null","<p style=""font-size: 60px; font-family: BACS"">ZvalvQONk</p>","","","","","","","",""
"html-keyboard-response","96","170343","0.0-9.0-0.8","5cb4adc019ee7300189e8547","64afc2c9a8732ea92db0087d","64aff7ffb55438b6207f6fae","null","null","<p style=""font-size: 60px; font-family: BACS"">JdGmkGua</p>","","","","","","","",""
"html-keyboard-response","97","171351","0.0-9.0-0.9","5cb4adc019ee7300189e8547","64afc2c9a8732ea92db0087d","64aff7ffb55438b6207f6fae","null","null","<p style=""font-size: 60px; font-family: BACS"">JrGvQONk</p>","","","","","","","",""
"html-keyboard-response","98","172359","0.0-9.0-0.10","5cb4adc019ee7300189e8547","64afc2c9a8732ea92db0087d","64aff7ffb55438b6207f6fae","null","null","<p style=""font-size: 60px; font-family: BACS"">mBmlAKEdl</p>","","","","","","","",""
"html-keyboard-response","99","173367","0.0-9.0-0.11","5cb4adc019ee7300189e8547","64afc2c9a8732ea92db0087d","64aff7ffb55438b6207f6fae","null","null","<p style=""font-size: 60px; font-family: BACS"">JdGmrab</p>","","","","","","","",""
"html-keyboard-response","100","174375","0.0-9.0-0.12","5cb4adc019ee7300189e8547","64afc2c9a8732ea92db0087d","64aff7ffb55438b6207f6fae","null","null","<p style=""font-size: 60px; font-family: BACS"">COtBDTRkY</p>","","","","","","","",""
"html-keyboard-response","101","175383","0.0-9.0-0.13","5cb4adc019ee7300189e8547","64afc2c9a8732ea92db0087d","64aff7ffb55438b6207f6fae","null","null","<p style=""font-size: 60px; font-family: BACS"">lGZvkGua</p>","","","","","","","",""
"html-keyboard-response","102","176391","0.0-9.0-0.14","5cb4adc019ee7300189e8547","64afc2c9a8732ea92db0087d","64aff7ffb55438b6207f6fae","null","null","<p style=""font-size: 60px; font-family: BACS"">mBmlAbRC</p>","","","","","","","",""
"html-keyboard-response","103","177400","0.0-9.0-0.15","5cb4adc019ee7300189e8547","64afc2c9a8732ea92db0087d","64aff7ffb55438b6207f6fae","null","null","<p style=""font-size: 60px; font-family: BACS"">JrGvkGua</p>","","","","","","","",""
"html-keyboard-response","104","178407","0.0-9.0-0.16","5cb4adc019ee7300189e8547","64afc2c9a8732ea92db0087d","64aff7ffb55438b6207f6fae","null","null","<p style=""font-size: 60px; font-family: BACS"">kCRmbRC</p>","","","","","","","",""
"html-keyboard-response","105","179415","0.0-9.0-0.17","5cb4adc019ee7300189e8547","64afc2c9a8732ea92db0087d","64aff7ffb55438b6207f6fae","null","null","<p style=""font-size: 60px; font-family: BACS"">dvNvAkbu</p>","","","","","","","",""
"html-keyboard-response","106","180423","0.0-9.0-0.18","5cb4adc019ee7300189e8547","64afc2c9a8732ea92db0087d","64aff7ffb55438b6207f6fae","null","null","<p style=""font-size: 60px; font-family: BACS"">KElBRDM</p>","","","","","","","",""
"html-keyboard-response","107","181431","0.0-9.0-0.19","5cb4adc019ee7300189e8547","64afc2c9a8732ea92db0087d","64aff7ffb55438b6207f6fae","null","null","<p style=""font-size: 60px; font-family: BACS"">kcdOtKEdl</p>","","","","","","","",""
"html-keyboard-response","108","182439","0.0-9.0-0.20","5cb4adc019ee7300189e8547","64afc2c9a8732ea92db0087d","64aff7ffb55438b6207f6fae","null","null","<p style=""font-size: 60px; font-family: BACS"">lYruakmU</p>","","","","","","","",""
"html-keyboard-response","109","183448","0.0-9.0-0.21","5cb4adc019ee7300189e8547","64afc2c9a8732ea92db0087d","64aff7ffb55438b6207f6fae","null","null","<p style=""font-size: 60px; font-family: BACS"">bmbNQONk</p>","","","","","","","",""
"html-keyboard-response","110","184457","0.0-9.0-0.22","5cb4adc019ee7300189e8547","64afc2c9a8732ea92db0087d","64aff7ffb55438b6207f6fae","null","null","<p style=""font-size: 60px; font-family: BACS"">kPkRAdEPD</p>","","","","","","","",""
"html-keyboard-response","111","185464","0.0-9.0-0.23","5cb4adc019ee7300189e8547","64afc2c9a8732ea92db0087d","64aff7ffb55438b6207f6fae","null","null","<p style=""font-size: 60px; font-family: BACS"">JdGmkmU</p>","","","","","","","",""
"html-keyboard-response","112","186471","0.0-9.0-0.24","5cb4adc019ee7300189e8547","64afc2c9a8732ea92db0087d","64aff7ffb55438b6207f6fae","null","null","<p style=""font-size: 60px; font-family: BACS"">lBlEKEdl</p>","","","","","","","",""
"html-keyboard-response","113","187480","0.0-9.0-0.25","5cb4adc019ee7300189e8547","64afc2c9a8732ea92db0087d","64aff7ffb55438b6207f6fae","null","null","<p style=""font-size: 60px; font-family: BACS"">kPkRAbRC</p>","","","","","","","",""
"html-keyboard-response","114","188488","0.0-9.0-0.26","5cb4adc019ee7300189e8547","64afc2c9a8732ea92db0087d","64aff7ffb55438b6207f6fae","null","null","<p style=""font-size: 60px; font-family: BACS"">dvNvAQONk</p>","","","","","","","",""
"html-keyboard-response","115","189496","0.0-9.0-0.27","5cb4adc019ee7300189e8547","64afc2c9a8732ea92db0087d","64aff7ffb55438b6207f6fae","null","null","<p style=""font-size: 60px; font-family: BACS"">JdGmkbu</p>","","","","","","","",""
"html-keyboard-response","116","190504","0.0-9.0-0.28","5cb4adc019ee7300189e8547","64afc2c9a8732ea92db0087d","64aff7ffb55438b6207f6fae","null","null","<p style=""font-size: 60px; font-family: BACS"">dvNvAkGua</p>","","","","","","","",""
"html-keyboard-response","117","191511","0.0-9.0-0.29","5cb4adc019ee7300189e8547","64afc2c9a8732ea92db0087d","64aff7ffb55438b6207f6fae","null","null","<p style=""font-size: 60px; font-family: BACS"">JrGvkmU</p>","","","","","","","",""
"html-keyboard-response","118","192521","0.0-9.0-0.30","5cb4adc019ee7300189e8547","64afc2c9a8732ea92db0087d","64aff7ffb55438b6207f6fae","null","null","<p style=""font-size: 60px; font-family: BACS"">YcdOQONk</p>","","","","","","","",""
"html-keyboard-response","119","193528","0.0-9.0-0.31","5cb4adc019ee7300189e8547","64afc2c9a8732ea92db0087d","64aff7ffb55438b6207f6fae","null","null","<p style=""font-size: 60px; font-family: BACS"">ZvalvkGua</p>","","","","","","","",""
"html-keyboard-response","120","194537","0.0-9.0-0.32","5cb4adc019ee7300189e8547","64afc2c9a8732ea92db0087d","64aff7ffb55438b6207f6fae","null","null","<p style=""font-size: 60px; font-family: BACS"">OcYMRDM</p>","","","","","","","",""
"html-keyboard-response","121","195541","0.0-9.0-0.33","5cb4adc019ee7300189e8547","64afc2c9a8732ea92db0087d","64aff7ffb55438b6207f6fae","null","null","<p style=""font-size: 60px; font-family: BACS"">lYruarab</p>","","","","","","","",""
"html-keyboard-response","122","196544","0.0-9.0-0.34","5cb4adc019ee7300189e8547","64afc2c9a8732ea92db0087d","64aff7ffb55438b6207f6fae","null","null","<p style=""font-size: 60px; font-family: BACS"">kPkRARDM</p>","","","","","","","",""
"html-keyboard-response","123","197553","0.0-9.0-0.35","5cb4adc019ee7300189e8547","64afc2c9a8732ea92db0087d","64aff7ffb55438b6207f6fae","null","null","<p style=""font-size: 60px; font-family: BACS"">OcYMdEPD</p>","","","","","","","",""
"html-keyboard-response","124","198560","0.0-9.0-0.36","5cb4adc019ee7300189e8547","64afc2c9a8732ea92db0087d","64aff7ffb55438b6207f6fae","null","null","<p style=""font-size: 60px; font-family: BACS"">LcNUJrab</p>","","","","","","","",""
"html-keyboard-response","125","199568","0.0-9.0-0.37","5cb4adc019ee7300189e8547","64afc2c9a8732ea92db0087d","64aff7ffb55438b6207f6fae","null","null","<p style=""font-size: 60px; font-family: BACS"">YcdOkmU</p>","","","","","","","",""
"html-keyboard-response","126","200576","0.0-9.0-0.38","5cb4adc019ee7300189e8547","64afc2c9a8732ea92db0087d","64aff7ffb55438b6207f6fae","null","null","<p style=""font-size: 60px; font-family: BACS"">kPkRAKEdl</p>","","","","","","","",""
"html-keyboard-response","127","201585","0.0-9.0-0.39","5cb4adc019ee7300189e8547","64afc2c9a8732ea92db0087d","64aff7ffb55438b6207f6fae","null","null","<p style=""font-size: 60px; font-family: BACS"">COtBDdEPD</p>","","","","","","","",""
"html-keyboard-response","128","202592","0.0-9.0-0.40","5cb4adc019ee7300189e8547","64afc2c9a8732ea92db0087d","64aff7ffb55438b6207f6fae","null","null","<p style=""font-size: 60px; font-family: BACS"">LcNUJkGua</p>","","","","","","","",""
"html-keyboard-response","129","203599","0.0-9.0-0.41","5cb4adc019ee7300189e8547","64afc2c9a8732ea92db0087d","64aff7ffb55438b6207f6fae","null","null","<p style=""font-size: 60px; font-family: BACS"">kRCkObRC</p>","","","","","","","",""
"html-keyboard-response","130","204607","0.0-9.0-0.42","5cb4adc019ee7300189e8547","64afc2c9a8732ea92db0087d","64aff7ffb55438b6207f6fae","null","null","<p style=""font-size: 60px; font-family: BACS"">Zvalvrab</p>","","","","","","","",""
"html-keyboard-response","131","205616","0.0-9.0-0.43","5cb4adc019ee7300189e8547","64afc2c9a8732ea92db0087d","64aff7ffb55438b6207f6fae","null","null","<p style=""font-size: 60px; font-family: BACS"">COtBDRDM</p>","","","","","","","",""
"html-keyboard-response","132","206625","0.0-9.0-0.44","5cb4adc019ee7300189e8547","64afc2c9a8732ea92db0087d","64aff7ffb55438b6207f6fae","null","null","<p style=""font-size: 60px; font-family: BACS"">lGZvkmU</p>","","","","","","","",""
"html-keyboard-response","133","207633","0.0-9.0-0.45","5cb4adc019ee7300189e8547","64afc2c9a8732ea92db0087d","64aff7ffb55438b6207f6fae","null","null","<p style=""font-size: 60px; font-family: BACS"">mBmlAdEPD</p>","","","","","","","",""
"html-keyboard-response","134","208640","0.0-9.0-0.46","5cb4adc019ee7300189e8547","64afc2c9a8732ea92db0087d","64aff7ffb55438b6207f6fae","null","null","<p style=""font-size: 60px; font-family: BACS"">LcNUJQONk</p>","","","","","","","",""
"html-keyboard-response","135","209648","0.0-9.0-0.47","5cb4adc019ee7300189e8547","64afc2c9a8732ea92db0087d","64aff7ffb55438b6207f6fae","null","null","<p style=""font-size: 60px; font-family: BACS"">bmbNrab</p>","","","","","","","",""
"html-keyboard-response","136","210656","0.0-9.0-0.48","5cb4adc019ee7300189e8547","64afc2c9a8732ea92db0087d","64aff7ffb55438b6207f6fae","null","null","<p style=""font-size: 60px; font-family: BACS"">OcYMKEdl</p>","","","","","","","",""
"html-keyboard-response","137","211663","0.0-9.0-0.49","5cb4adc019ee7300189e8547","64afc2c9a8732ea92db0087d","64aff7ffb55438b6207f6fae","null","null","<p style=""font-size: 60px; font-family: BACS"">lBlEbRC</p>","","","","","","","",""
"html-keyboard-response","138","212672","0.0-9.0-0.50","5cb4adc019ee7300189e8547","64afc2c9a8732ea92db0087d","64aff7ffb55438b6207f6fae","null","null","<p style=""font-size: 60px; font-family: BACS"">lYruaQONk</p>","","","","","","","",""
"html-keyboard-response","139","213680","0.0-9.0-0.51","5cb4adc019ee7300189e8547","64afc2c9a8732ea92db0087d","64aff7ffb55438b6207f6fae","null","null","<p style=""font-size: 60px; font-family: BACS"">ukYZrab</p>","","","","","","","",""
"html-keyboard-response","140","214687","0.0-9.0-0.52","5cb4adc019ee7300189e8547","64afc2c9a8732ea92db0087d","64aff7ffb55438b6207f6fae","null","null","<p style=""font-size: 60px; font-family: BACS"">bmbNkGua</p>","","","","","","","",""
"html-keyboard-response","141","215696","0.0-9.0-0.53","5cb4adc019ee7300189e8547","64afc2c9a8732ea92db0087d","64aff7ffb55438b6207f6fae","null","null","<p style=""font-size: 60px; font-family: BACS"">JrGvkbu</p>","","","","","","","",""
"html-keyboard-response","142","216704","0.0-9.0-0.54","5cb4adc019ee7300189e8547","64afc2c9a8732ea92db0087d","64aff7ffb55438b6207f6fae","null","null","<p style=""font-size: 60px; font-family: BACS"">kCRmRDM</p>","","","","","","","",""
"html-keyboard-response","143","217712","0.0-9.0-0.55","5cb4adc019ee7300189e8547","64afc2c9a8732ea92db0087d","64aff7ffb55438b6207f6fae","null","null","<p style=""font-size: 60px; font-family: BACS"">DhCPKEdl</p>","","","","","","","",""
"html-keyboard-response","144","218721","0.0-9.0-0.56","5cb4adc019ee7300189e8547","64afc2c9a8732ea92db0087d","64aff7ffb55438b6207f6fae","null","null","<p style=""font-size: 60px; font-family: BACS"">dvNvArab</p>","","","","","","","",""
"html-keyboard-response","145","219728","0.0-9.0-0.57","5cb4adc019ee7300189e8547","64afc2c9a8732ea92db0087d","64aff7ffb55438b6207f6fae","null","null","<p style=""font-size: 60px; font-family: BACS"">lBlETRkY</p>","","","","","","","",""
"html-keyboard-response","146","220736","0.0-9.0-0.58","5cb4adc019ee7300189e8547","64afc2c9a8732ea92db0087d","64aff7ffb55438b6207f6fae","null","null","<p style=""font-size: 60px; font-family: BACS"">LcNUJkmU</p>","","","","","","","",""
"html-keyboard-response","147","221744","0.0-9.0-0.59","5cb4adc019ee7300189e8547","64afc2c9a8732ea92db0087d","64aff7ffb55438b6207f6fae","null","null","<p style=""font-size: 60px; font-family: BACS"">OcYMTRkY</p>","","","","","","","",""
"html-keyboard-response","148","222752","0.0-9.0-0.60","5cb4adc019ee7300189e8547","64afc2c9a8732ea92db0087d","64aff7ffb55438b6207f6fae","null","null","<p style=""font-size: 60px; font-family: BACS"">kcdOtbRC</p>","","","","","","","",""
"html-keyboard-response","149","223760","0.0-9.0-0.61","5cb4adc019ee7300189e8547","64afc2c9a8732ea92db0087d","64aff7ffb55438b6207f6fae","null","null","<p style=""font-size: 60px; font-family: BACS"">kCRmTRkY</p>","","","","","","","",""
"html-keyboard-response","150","224768","0.0-9.0-0.62","5cb4adc019ee7300189e8547","64afc2c9a8732ea92db0087d","64aff7ffb55438b6207f6fae","null","null","<p style=""font-size: 60px; font-family: BACS"">DhCPdEPD</p>","","","","","","","",""
"html-keyboard-response","151","225784","0.0-9.0-0.63","5cb4adc019ee7300189e8547","64afc2c9a8732ea92db0087d","64aff7ffb55438b6207f6fae","null","null","<p style=""font-size: 60px; font-family: BACS"">lGZvrab</p>","","","","","","","",""
"html-keyboard-response","152","226791","0.0-9.0-0.64","5cb4adc019ee7300189e8547","64afc2c9a8732ea92db0087d","64aff7ffb55438b6207f6fae","null","null","<p style=""font-size: 60px; font-family: BACS"">Zvalvkbu</p>","","","","","","","",""
"html-keyboard-response","153","227799","0.0-9.0-0.65","5cb4adc019ee7300189e8547","64afc2c9a8732ea92db0087d","64aff7ffb55438b6207f6fae","null","null","<p style=""font-size: 60px; font-family: BACS"">kcdOtRDM</p>","","","","","","","",""
"html-keyboard-response","154","228807","0.0-9.0-0.66","5cb4adc019ee7300189e8547","64afc2c9a8732ea92db0087d","64aff7ffb55438b6207f6fae","null","null","<p style=""font-size: 60px; font-family: BACS"">ukYZQONk</p>","","","","","","","",""
"html-keyboard-response","155","229816","0.0-9.0-0.67","5cb4adc019ee7300189e8547","64afc2c9a8732ea92db0087d","64aff7ffb55438b6207f6fae","null","null","<p style=""font-size: 60px; font-family: BACS"">KElBTRkY</p>","","","","","","","",""
"html-keyboard-response","156","230824","0.0-9.0-0.68","5cb4adc019ee7300189e8547","64afc2c9a8732ea92db0087d","64aff7ffb55438b6207f6fae","null","null","<p style=""font-size: 60px; font-family: BACS"">kCRmdEPD</p>","","","","","","","",""
"html-keyboard-response","157","231831","0.0-9.0-0.69","5cb4adc019ee7300189e8547","64afc2c9a8732ea92db0087d","64aff7ffb55438b6207f6fae","null","null","<p style=""font-size: 60px; font-family: BACS"">mBmlATRkY</p>","","","","","","","",""
"html-keyboard-response","158","232839","0.0-9.0-0.70","5cb4adc019ee7300189e8547","64afc2c9a8732ea92db0087d","64aff7ffb55438b6207f6fae","null","null","<p style=""font-size: 60px; font-family: BACS"">KElBKEdl</p>","","","","","","","",""
"html-keyboard-response","159","233845","0.0-9.0-0.71","5cb4adc019ee7300189e8547","64afc2c9a8732ea92db0087d","64aff7ffb55438b6207f6fae","null","null","<p style=""font-size: 60px; font-family: BACS"">YcdOkbu</p>","","","","","","","",""
"html-keyboard-response","160","234848","0.0-9.0-0.72","5cb4adc019ee7300189e8547","64afc2c9a8732ea92db0087d","64aff7ffb55438b6207f6fae","null","null","<p style=""font-size: 60px; font-family: BACS"">kRCkORDM</p>","","","","","","","",""
"html-keyboard-response","161","235856","0.0-9.0-0.73","5cb4adc019ee7300189e8547","64afc2c9a8732ea92db0087d","64aff7ffb55438b6207f6fae","null","null","<p style=""font-size: 60px; font-family: BACS"">KElBdEPD</p>","","","","","","","",""
"html-keyboard-response","162","236863","0.0-9.0-0.74","5cb4adc019ee7300189e8547","64afc2c9a8732ea92db0087d","64aff7ffb55438b6207f6fae","null","null","<p style=""font-size: 60px; font-family: BACS"">kRCkOTRkY</p>","","","","","","","",""
"html-keyboard-response","163","237874","0.0-9.0-0.75","5cb4adc019ee7300189e8547","64afc2c9a8732ea92db0087d","64aff7ffb55438b6207f6fae","null","null","<p style=""font-size: 60px; font-family: BACS"">ukYZkbu</p>","","","","","","","",""
"html-keyboard-response","164","238883","0.0-9.0-0.76","5cb4adc019ee7300189e8547","64afc2c9a8732ea92db0087d","64aff7ffb55438b6207f6fae","null","null","<p style=""font-size: 60px; font-family: BACS"">kcdOtTRkY</p>","","","","","","","",""
"html-keyboard-response","165","239888","0.0-9.0-0.77","5cb4adc019ee7300189e8547","64afc2c9a8732ea92db0087d","64aff7ffb55438b6207f6fae","null","null","<p style=""font-size: 60px; font-family: BACS"">DhCPRDM</p>","","","","","","","",""
"html-keyboard-response","166","240896","0.0-9.0-0.78","5cb4adc019ee7300189e8547","64afc2c9a8732ea92db0087d","64aff7ffb55438b6207f6fae","null","null","<p style=""font-size: 60px; font-family: BACS"">bmbNkmU</p>","","","","","","","",""
"html-keyboard-response","167","241904","0.0-9.0-0.79","5cb4adc019ee7300189e8547","64afc2c9a8732ea92db0087d","64aff7ffb55438b6207f6fae","null","null","<p style=""font-size: 60px; font-family: BACS"">lGZvkbu</p>","","","","","","","",""
"html-keyboard-response","168","251683","0.0-10.0","5cb4adc019ee7300189e8547","64afc2c9a8732ea92db0087d","64aff7ffb55438b6207f6fae","9777"," ","<p>Ottimo, hai visto il secondo blocco di parole. Ora puoi prenderti una piccola pausa.</p>
      <p>Premi la barra quando sei pronta/o per riprendere.</p>","","","","","","","",""
"html-keyboard-response","169","252688","0.0-11.0-0.0","5cb4adc019ee7300189e8547","64afc2c9a8732ea92db0087d","64aff7ffb55438b6207f6fae","null","null","<p style=""font-size: 60px; font-family: BACS"">DhCPdEPD</p>","","","","","","","",""
"html-keyboard-response","170","253696","0.0-11.0-0.1","5cb4adc019ee7300189e8547","64afc2c9a8732ea92db0087d","64aff7ffb55438b6207f6fae","null","null","<p style=""font-size: 60px; font-family: BACS"">lYruaQONk</p>","","","","","","","",""
"html-keyboard-response","171","254704","0.0-11.0-0.2","5cb4adc019ee7300189e8547","64afc2c9a8732ea92db0087d","64aff7ffb55438b6207f6fae","null","null","<p style=""font-size: 60px; font-family: BACS"">KElBRDM</p>","","","","","","","",""
"html-keyboard-response","172","255711","0.0-11.0-0.3","5cb4adc019ee7300189e8547","64afc2c9a8732ea92db0087d","64aff7ffb55438b6207f6fae","null","null","<p style=""font-size: 60px; font-family: BACS"">kPkRAdEPD</p>","","","","","","","",""
"html-keyboard-response","173","256725","0.0-11.0-0.4","5cb4adc019ee7300189e8547","64afc2c9a8732ea92db0087d","64aff7ffb55438b6207f6fae","null","null","<p style=""font-size: 60px; font-family: BACS"">ZvalvQONk</p>","","","","","","","",""
"html-keyboard-response","174","257731","0.0-11.0-0.5","5cb4adc019ee7300189e8547","64afc2c9a8732ea92db0087d","64aff7ffb55438b6207f6fae","null","null","<p style=""font-size: 60px; font-family: BACS"">lBlETRkY</p>","","","","","","","",""
"html-keyboard-response","175","258736","0.0-11.0-0.6","5cb4adc019ee7300189e8547","64afc2c9a8732ea92db0087d","64aff7ffb55438b6207f6fae","null","null","<p style=""font-size: 60px; font-family: BACS"">ukYZQONk</p>","","","","","","","",""
"html-keyboard-response","176","259743","0.0-11.0-0.7","5cb4adc019ee7300189e8547","64afc2c9a8732ea92db0087d","64aff7ffb55438b6207f6fae","null","null","<p style=""font-size: 60px; font-family: BACS"">kcdOtTRkY</p>","","","","","","","",""
"html-keyboard-response","177","260751","0.0-11.0-0.8","5cb4adc019ee7300189e8547","64afc2c9a8732ea92db0087d","64aff7ffb55438b6207f6fae","null","null","<p style=""font-size: 60px; font-family: BACS"">OcYMKEdl</p>","","","","","","","",""
"html-keyboard-response","178","261760","0.0-11.0-0.9","5cb4adc019ee7300189e8547","64afc2c9a8732ea92db0087d","64aff7ffb55438b6207f6fae","null","null","<p style=""font-size: 60px; font-family: BACS"">ukYZkmU</p>","","","","","","","",""
"html-keyboard-response","179","262768","0.0-11.0-0.10","5cb4adc019ee7300189e8547","64afc2c9a8732ea92db0087d","64aff7ffb55438b6207f6fae","null","null","<p style=""font-size: 60px; font-family: BACS"">DhCPbRC</p>","","","","","","","",""
"html-keyboard-response","180","263775","0.0-11.0-0.11","5cb4adc019ee7300189e8547","64afc2c9a8732ea92db0087d","64aff7ffb55438b6207f6fae","null","null","<p style=""font-size: 60px; font-family: BACS"">kPkRAKEdl</p>","","","","","","","",""
"html-keyboard-response","181","264783","0.0-11.0-0.12","5cb4adc019ee7300189e8547","64afc2c9a8732ea92db0087d","64aff7ffb55438b6207f6fae","null","null","<p style=""font-size: 60px; font-family: BACS"">mBmlAdEPD</p>","","","","","","","",""
"html-keyboard-response","182","265792","0.0-11.0-0.13","5cb4adc019ee7300189e8547","64afc2c9a8732ea92db0087d","64aff7ffb55438b6207f6fae","null","null","<p style=""font-size: 60px; font-family: BACS"">DhCPKEdl</p>","","","","","","","",""
"html-keyboard-response","183","266801","0.0-11.0-0.14","5cb4adc019ee7300189e8547","64afc2c9a8732ea92db0087d","64aff7ffb55438b6207f6fae","null","null","<p style=""font-size: 60px; font-family: BACS"">kcdOtRDM</p>","","","","","","","",""
"html-keyboard-response","184","267808","0.0-11.0-0.15","5cb4adc019ee7300189e8547","64afc2c9a8732ea92db0087d","64aff7ffb55438b6207f6fae","null","null","<p style=""font-size: 60px; font-family: BACS"">YcdOkmU</p>","","","","","","","",""
"html-keyboard-response","185","268816","0.0-11.0-0.16","5cb4adc019ee7300189e8547","64afc2c9a8732ea92db0087d","64aff7ffb55438b6207f6fae","null","null","<p style=""font-size: 60px; font-family: BACS"">OcYMdEPD</p>","","","","","","","",""
"html-keyboard-response","186","269823","0.0-11.0-0.17","5cb4adc019ee7300189e8547","64afc2c9a8732ea92db0087d","64aff7ffb55438b6207f6fae","null","null","<p style=""font-size: 60px; font-family: BACS"">LcNUJkGua</p>","","","","","","","",""
"html-keyboard-response","187","270831","0.0-11.0-0.18","5cb4adc019ee7300189e8547","64afc2c9a8732ea92db0087d","64aff7ffb55438b6207f6fae","null","null","<p style=""font-size: 60px; font-family: BACS"">kCRmRDM</p>","","","","","","","",""
"html-keyboard-response","188","271840","0.0-11.0-0.19","5cb4adc019ee7300189e8547","64afc2c9a8732ea92db0087d","64aff7ffb55438b6207f6fae","null","null","<p style=""font-size: 60px; font-family: BACS"">JdGmrab</p>","","","","","","","",""
"html-keyboard-response","189","272847","0.0-11.0-0.20","5cb4adc019ee7300189e8547","64afc2c9a8732ea92db0087d","64aff7ffb55438b6207f6fae","null","null","<p style=""font-size: 60px; font-family: BACS"">JrGvQONk</p>","","","","","","","",""
"html-keyboard-response","190","273856","0.0-11.0-0.21","5cb4adc019ee7300189e8547","64afc2c9a8732ea92db0087d","64aff7ffb55438b6207f6fae","null","null","<p style=""font-size: 60px; font-family: BACS"">Zvalvkbu</p>","","","","","","","",""
"html-keyboard-response","191","274864","0.0-11.0-0.22","5cb4adc019ee7300189e8547","64afc2c9a8732ea92db0087d","64aff7ffb55438b6207f6fae","null","null","<p style=""font-size: 60px; font-family: BACS"">mBmlAKEdl</p>","","","","","","","",""
"html-keyboard-response","192","275871","0.0-11.0-0.23","5cb4adc019ee7300189e8547","64afc2c9a8732ea92db0087d","64aff7ffb55438b6207f6fae","null","null","<p style=""font-size: 60px; font-family: BACS"">kCRmTRkY</p>","","","","","","","",""
"html-keyboard-response","193","276879","0.0-11.0-0.24","5cb4adc019ee7300189e8547","64afc2c9a8732ea92db0087d","64aff7ffb55438b6207f6fae","null","null","<p style=""font-size: 60px; font-family: BACS"">COtBDRDM</p>","","","","","","","",""
"html-keyboard-response","194","277888","0.0-11.0-0.25","5cb4adc019ee7300189e8547","64afc2c9a8732ea92db0087d","64aff7ffb55438b6207f6fae","null","null","<p style=""font-size: 60px; font-family: BACS"">KElBTRkY</p>","","","","","","","",""
"html-keyboard-response","195","278896","0.0-11.0-0.26","5cb4adc019ee7300189e8547","64afc2c9a8732ea92db0087d","64aff7ffb55438b6207f6fae","null","null","<p style=""font-size: 60px; font-family: BACS"">lGZvkGua</p>","","","","","","","",""
"html-keyboard-response","196","279903","0.0-11.0-0.27","5cb4adc019ee7300189e8547","64afc2c9a8732ea92db0087d","64aff7ffb55438b6207f6fae","null","null","<p style=""font-size: 60px; font-family: BACS"">KElBKEdl</p>","","","","","","","",""
"html-keyboard-response","197","280911","0.0-11.0-0.28","5cb4adc019ee7300189e8547","64afc2c9a8732ea92db0087d","64aff7ffb55438b6207f6fae","null","null","<p style=""font-size: 60px; font-family: BACS"">lYruakmU</p>","","","","","","","",""
"html-keyboard-response","198","281920","0.0-11.0-0.29","5cb4adc019ee7300189e8547","64afc2c9a8732ea92db0087d","64aff7ffb55438b6207f6fae","null","null","<p style=""font-size: 60px; font-family: BACS"">YcdOkbu</p>","","","","","","","",""
"html-keyboard-response","199","282927","0.0-11.0-0.30","5cb4adc019ee7300189e8547","64afc2c9a8732ea92db0087d","64aff7ffb55438b6207f6fae","null","null","<p style=""font-size: 60px; font-family: BACS"">ZvalvkGua</p>","","","","","","","",""
"html-keyboard-response","200","283936","0.0-11.0-0.31","5cb4adc019ee7300189e8547","64afc2c9a8732ea92db0087d","64aff7ffb55438b6207f6fae","null","null","<p style=""font-size: 60px; font-family: BACS"">lBlEbRC</p>","","","","","","","",""
"html-keyboard-response","201","284944","0.0-11.0-0.32","5cb4adc019ee7300189e8547","64afc2c9a8732ea92db0087d","64aff7ffb55438b6207f6fae","null","null","<p style=""font-size: 60px; font-family: BACS"">OcYMTRkY</p>","","","","","","","",""
"html-keyboard-response","202","285952","0.0-11.0-0.33","5cb4adc019ee7300189e8547","64afc2c9a8732ea92db0087d","64aff7ffb55438b6207f6fae","null","null","<p style=""font-size: 60px; font-family: BACS"">JrGvkmU</p>","","","","","","","",""
"html-keyboard-response","203","286960","0.0-11.0-0.34","5cb4adc019ee7300189e8547","64afc2c9a8732ea92db0087d","64aff7ffb55438b6207f6fae","null","null","<p style=""font-size: 60px; font-family: BACS"">lBlEKEdl</p>","","","","","","","",""
"html-keyboard-response","204","287967","0.0-11.0-0.35","5cb4adc019ee7300189e8547","64afc2c9a8732ea92db0087d","64aff7ffb55438b6207f6fae","null","null","<p style=""font-size: 60px; font-family: BACS"">JdGmkbu</p>","","","","","","","",""
"html-keyboard-response","205","288976","0.0-11.0-0.36","5cb4adc019ee7300189e8547","64afc2c9a8732ea92db0087d","64aff7ffb55438b6207f6fae","null","null","<p style=""font-size: 60px; font-family: BACS"">mBmlATRkY</p>","","","","","","","",""
"html-keyboard-response","206","289984","0.0-11.0-0.37","5cb4adc019ee7300189e8547","64afc2c9a8732ea92db0087d","64aff7ffb55438b6207f6fae","null","null","<p style=""font-size: 60px; font-family: BACS"">kCRmdEPD</p>","","","","","","","",""
"html-keyboard-response","207","290992","0.0-11.0-0.38","5cb4adc019ee7300189e8547","64afc2c9a8732ea92db0087d","64aff7ffb55438b6207f6fae","null","null","<p style=""font-size: 60px; font-family: BACS"">dvNvAkGua</p>","","","","","","","",""
"html-keyboard-response","208","292000","0.0-11.0-0.39","5cb4adc019ee7300189e8547","64afc2c9a8732ea92db0087d","64aff7ffb55438b6207f6fae","null","null","<p style=""font-size: 60px; font-family: BACS"">COtBDdEPD</p>","","","","","","","",""
"html-keyboard-response","209","293008","0.0-11.0-0.40","5cb4adc019ee7300189e8547","64afc2c9a8732ea92db0087d","64aff7ffb55438b6207f6fae","null","null","<p style=""font-size: 60px; font-family: BACS"">bmbNQONk</p>","","","","","","","",""
"html-keyboard-response","210","294016","0.0-11.0-0.41","5cb4adc019ee7300189e8547","64afc2c9a8732ea92db0087d","64aff7ffb55438b6207f6fae","null","null","<p style=""font-size: 60px; font-family: BACS"">lYruarab</p>","","","","","","","",""
"html-keyboard-response","211","295023","0.0-11.0-0.42","5cb4adc019ee7300189e8547","64afc2c9a8732ea92db0087d","64aff7ffb55438b6207f6fae","null","null","<p style=""font-size: 60px; font-family: BACS"">JrGvkbu</p>","","","","","","","",""
"html-keyboard-response","212","296032","0.0-11.0-0.43","5cb4adc019ee7300189e8547","64afc2c9a8732ea92db0087d","64aff7ffb55438b6207f6fae","null","null","<p style=""font-size: 60px; font-family: BACS"">YcdOQONk</p>","","","","","","","",""
"html-keyboard-response","213","297040","0.0-11.0-0.44","5cb4adc019ee7300189e8547","64afc2c9a8732ea92db0087d","64aff7ffb55438b6207f6fae","null","null","<p style=""font-size: 60px; font-family: BACS"">lBlEdEPD</p>","","","","","","","",""
"html-keyboard-response","214","298048","0.0-11.0-0.45","5cb4adc019ee7300189e8547","64afc2c9a8732ea92db0087d","64aff7ffb55438b6207f6fae","null","null","<p style=""font-size: 60px; font-family: BACS"">bmbNrab</p>","","","","","","","",""
"html-keyboard-response","215","299056","0.0-11.0-0.46","5cb4adc019ee7300189e8547","64afc2c9a8732ea92db0087d","64aff7ffb55438b6207f6fae","null","null","<p style=""font-size: 60px; font-family: BACS"">kPkRAbRC</p>","","","","","","","",""
"html-keyboard-response","216","300063","0.0-11.0-0.47","5cb4adc019ee7300189e8547","64afc2c9a8732ea92db0087d","64aff7ffb55438b6207f6fae","null","null","<p style=""font-size: 60px; font-family: BACS"">kRCkORDM</p>","","","","","","","",""
"html-keyboard-response","217","301071","0.0-11.0-0.48","5cb4adc019ee7300189e8547","64afc2c9a8732ea92db0087d","64aff7ffb55438b6207f6fae","null","null","<p style=""font-size: 60px; font-family: BACS"">ukYZrab</p>","","","","","","","",""
"html-keyboard-response","218","302079","0.0-11.0-0.49","5cb4adc019ee7300189e8547","64afc2c9a8732ea92db0087d","64aff7ffb55438b6207f6fae","null","null","<p style=""font-size: 60px; font-family: BACS"">bmbNkmU</p>","","","","","","","",""
"html-keyboard-response","219","303087","0.0-11.0-0.50","5cb4adc019ee7300189e8547","64afc2c9a8732ea92db0087d","64aff7ffb55438b6207f6fae","null","null","<p style=""font-size: 60px; font-family: BACS"">KElBdEPD</p>","","","","","","","",""
"html-keyboard-response","220","304095","0.0-11.0-0.51","5cb4adc019ee7300189e8547","64afc2c9a8732ea92db0087d","64aff7ffb55438b6207f6fae","null","null","<p style=""font-size: 60px; font-family: BACS"">lGZvkmU</p>","","","","","","","",""
"html-keyboard-response","221","305113","0.0-11.0-0.52","5cb4adc019ee7300189e8547","64afc2c9a8732ea92db0087d","64aff7ffb55438b6207f6fae","null","null","<p style=""font-size: 60px; font-family: BACS"">LcNUJQONk</p>","","","","","","","",""
"html-keyboard-response","222","306119","0.0-11.0-0.53","5cb4adc019ee7300189e8547","64afc2c9a8732ea92db0087d","64aff7ffb55438b6207f6fae","null","null","<p style=""font-size: 60px; font-family: BACS"">kRCkOTRkY</p>","","","","","","","",""
"html-keyboard-response","223","307127","0.0-11.0-0.54","5cb4adc019ee7300189e8547","64afc2c9a8732ea92db0087d","64aff7ffb55438b6207f6fae","null","null","<p style=""font-size: 60px; font-family: BACS"">dvNvArab</p>","","","","","","","",""
"html-keyboard-response","224","308135","0.0-11.0-0.55","5cb4adc019ee7300189e8547","64afc2c9a8732ea92db0087d","64aff7ffb55438b6207f6fae","null","null","<p style=""font-size: 60px; font-family: BACS"">JdGmkmU</p>","","","","","","","",""
"html-keyboard-response","225","309143","0.0-11.0-0.56","5cb4adc019ee7300189e8547","64afc2c9a8732ea92db0087d","64aff7ffb55438b6207f6fae","null","null","<p style=""font-size: 60px; font-family: BACS"">OcYMRDM</p>","","","","","","","",""
"html-keyboard-response","226","310152","0.0-11.0-0.57","5cb4adc019ee7300189e8547","64afc2c9a8732ea92db0087d","64aff7ffb55438b6207f6fae","null","null","<p style=""font-size: 60px; font-family: BACS"">LcNUJkmU</p>","","","","","","","",""
"html-keyboard-response","227","311161","0.0-11.0-0.58","5cb4adc019ee7300189e8547","64afc2c9a8732ea92db0087d","64aff7ffb55438b6207f6fae","null","null","<p style=""font-size: 60px; font-family: BACS"">kRCkObRC</p>","","","","","","","",""
"html-keyboard-response","228","312166","0.0-11.0-0.59","5cb4adc019ee7300189e8547","64afc2c9a8732ea92db0087d","64aff7ffb55438b6207f6fae","null","null","<p style=""font-size: 60px; font-family: BACS"">lGZvkbu</p>","","","","","","","",""
"html-keyboard-response","229","313175","0.0-11.0-0.60","5cb4adc019ee7300189e8547","64afc2c9a8732ea92db0087d","64aff7ffb55438b6207f6fae","null","null","<p style=""font-size: 60px; font-family: BACS"">DhCPRDM</p>","","","","","","","",""
"html-keyboard-response","230","314182","0.0-11.0-0.61","5cb4adc019ee7300189e8547","64afc2c9a8732ea92db0087d","64aff7ffb55438b6207f6fae","null","null","<p style=""font-size: 60px; font-family: BACS"">LcNUJrab</p>","","","","","","","",""
"html-keyboard-response","231","315191","0.0-11.0-0.62","5cb4adc019ee7300189e8547","64afc2c9a8732ea92db0087d","64aff7ffb55438b6207f6fae","null","null","<p style=""font-size: 60px; font-family: BACS"">kcdOtKEdl</p>","","","","","","","",""
"html-keyboard-response","232","316199","0.0-11.0-0.63","5cb4adc019ee7300189e8547","64afc2c9a8732ea92db0087d","64aff7ffb55438b6207f6fae","null","null","<p style=""font-size: 60px; font-family: BACS"">lYruakbu</p>","","","","","","","",""
"html-keyboard-response","233","317219","0.0-11.0-0.64","5cb4adc019ee7300189e8547","64afc2c9a8732ea92db0087d","64aff7ffb55438b6207f6fae","null","null","<p style=""font-size: 60px; font-family: BACS"">COtBDTRkY</p>","","","","","","","",""
"html-keyboard-response","234","318222","0.0-11.0-0.65","5cb4adc019ee7300189e8547","64afc2c9a8732ea92db0087d","64aff7ffb55438b6207f6fae","null","null","<p style=""font-size: 60px; font-family: BACS"">lGZvrab</p>","","","","","","","",""
"html-keyboard-response","235","319238","0.0-11.0-0.66","5cb4adc019ee7300189e8547","64afc2c9a8732ea92db0087d","64aff7ffb55438b6207f6fae","null","null","<p style=""font-size: 60px; font-family: BACS"">kcdOtbRC</p>","","","","","","","",""
"html-keyboard-response","236","320247","0.0-11.0-0.67","5cb4adc019ee7300189e8547","64afc2c9a8732ea92db0087d","64aff7ffb55438b6207f6fae","null","null","<p style=""font-size: 60px; font-family: BACS"">ukYZkbu</p>","","","","","","","",""
"html-keyboard-response","237","321255","0.0-11.0-0.68","5cb4adc019ee7300189e8547","64afc2c9a8732ea92db0087d","64aff7ffb55438b6207f6fae","null","null","<p style=""font-size: 60px; font-family: BACS"">JdGmkGua</p>","","","","","","","",""
"html-keyboard-response","238","322262","0.0-11.0-0.69","5cb4adc019ee7300189e8547","64afc2c9a8732ea92db0087d","64aff7ffb55438b6207f6fae","null","null","<p style=""font-size: 60px; font-family: BACS"">dvNvAkbu</p>","","","","","","","",""
"html-keyboard-response","239","323271","0.0-11.0-0.70","5cb4adc019ee7300189e8547","64afc2c9a8732ea92db0087d","64aff7ffb55438b6207f6fae","null","null","<p style=""font-size: 60px; font-family: BACS"">bmbNkGua</p>","","","","","","","",""
"html-keyboard-response","240","324279","0.0-11.0-0.71","5cb4adc019ee7300189e8547","64afc2c9a8732ea92db0087d","64aff7ffb55438b6207f6fae","null","null","<p style=""font-size: 60px; font-family: BACS"">kCRmbRC</p>","","","","","","","",""
"html-keyboard-response","241","325287","0.0-11.0-0.72","5cb4adc019ee7300189e8547","64afc2c9a8732ea92db0087d","64aff7ffb55438b6207f6fae","null","null","<p style=""font-size: 60px; font-family: BACS"">YcdOkGua</p>","","","","","","","",""
"html-keyboard-response","242","326295","0.0-11.0-0.73","5cb4adc019ee7300189e8547","64afc2c9a8732ea92db0087d","64aff7ffb55438b6207f6fae","null","null","<p style=""font-size: 60px; font-family: BACS"">kRCkOKEdl</p>","","","","","","","",""
"html-keyboard-response","243","327304","0.0-11.0-0.74","5cb4adc019ee7300189e8547","64afc2c9a8732ea92db0087d","64aff7ffb55438b6207f6fae","null","null","<p style=""font-size: 60px; font-family: BACS"">COtBDbRC</p>","","","","","","","",""
"html-keyboard-response","244","328311","0.0-11.0-0.75","5cb4adc019ee7300189e8547","64afc2c9a8732ea92db0087d","64aff7ffb55438b6207f6fae","null","null","<p style=""font-size: 60px; font-family: BACS"">JrGvkGua</p>","","","","","","","",""
"html-keyboard-response","245","329319","0.0-11.0-0.76","5cb4adc019ee7300189e8547","64afc2c9a8732ea92db0087d","64aff7ffb55438b6207f6fae","null","null","<p style=""font-size: 60px; font-family: BACS"">mBmlAbRC</p>","","","","","","","",""
"html-keyboard-response","246","330326","0.0-11.0-0.77","5cb4adc019ee7300189e8547","64afc2c9a8732ea92db0087d","64aff7ffb55438b6207f6fae","null","null","<p style=""font-size: 60px; font-family: BACS"">dvNvAQONk</p>","","","","","","","",""
"html-keyboard-response","247","331335","0.0-11.0-0.78","5cb4adc019ee7300189e8547","64afc2c9a8732ea92db0087d","64aff7ffb55438b6207f6fae","null","null","<p style=""font-size: 60px; font-family: BACS"">Zvalvrab</p>","","","","","","","",""
"html-keyboard-response","248","332343","0.0-11.0-0.79","5cb4adc019ee7300189e8547","64afc2c9a8732ea92db0087d","64aff7ffb55438b6207f6fae","null","null","<p style=""font-size: 60px; font-family: BACS"">kPkRARDM</p>","","","","","","","",""
"html-keyboard-response","249","335365","0.0-12.0","5cb4adc019ee7300189e8547","64afc2c9a8732ea92db0087d","64aff7ffb55438b6207f6fae","3021"," ","<p>Ottimo, hai visto il terzo blocco di parole. Ora puoi prenderti una piccola pausa.</p>
      <p>Premi la barra quando sei pronta/o per riprendere.</p>","","","","","","","",""
"html-keyboard-response","250","336375","0.0-13.0-0.0","5cb4adc019ee7300189e8547","64afc2c9a8732ea92db0087d","64aff7ffb55438b6207f6fae","null","null","<p style=""font-size: 60px; font-family: BACS"">COtBDTRkY</p>","","","","","","","",""
"html-keyboard-response","251","337382","0.0-13.0-0.1","5cb4adc019ee7300189e8547","64afc2c9a8732ea92db0087d","64aff7ffb55438b6207f6fae","null","null","<p style=""font-size: 60px; font-family: BACS"">ukYZQONk</p>","","","","","","","",""
"html-keyboard-response","252","338391","0.0-13.0-0.2","5cb4adc019ee7300189e8547","64afc2c9a8732ea92db0087d","64aff7ffb55438b6207f6fae","null","null","<p style=""font-size: 60px; font-family: BACS"">KElBRDM</p>","","","","","","","",""
"html-keyboard-response","253","339399","0.0-13.0-0.3","5cb4adc019ee7300189e8547","64afc2c9a8732ea92db0087d","64aff7ffb55438b6207f6fae","null","null","<p style=""font-size: 60px; font-family: BACS"">ukYZkmU</p>","","","","","","","",""
"html-keyboard-response","254","340407","0.0-13.0-0.4","5cb4adc019ee7300189e8547","64afc2c9a8732ea92db0087d","64aff7ffb55438b6207f6fae","null","null","<p style=""font-size: 60px; font-family: BACS"">mBmlATRkY</p>","","","","","","","",""
"html-keyboard-response","255","341415","0.0-13.0-0.5","5cb4adc019ee7300189e8547","64afc2c9a8732ea92db0087d","64aff7ffb55438b6207f6fae","null","null","<p style=""font-size: 60px; font-family: BACS"">kPkRAdEPD</p>","","","","","","","",""
"html-keyboard-response","256","342422","0.0-13.0-0.6","5cb4adc019ee7300189e8547","64afc2c9a8732ea92db0087d","64aff7ffb55438b6207f6fae","null","null","<p style=""font-size: 60px; font-family: BACS"">JdGmkbu</p>","","","","","","","",""
"html-keyboard-response","257","343431","0.0-13.0-0.7","5cb4adc019ee7300189e8547","64afc2c9a8732ea92db0087d","64aff7ffb55438b6207f6fae","null","null","<p style=""font-size: 60px; font-family: BACS"">Zvalvrab</p>","","","","","","","",""
"html-keyboard-response","258","344439","0.0-13.0-0.8","5cb4adc019ee7300189e8547","64afc2c9a8732ea92db0087d","64aff7ffb55438b6207f6fae","null","null","<p style=""font-size: 60px; font-family: BACS"">lBlEbRC</p>","","","","","","","",""
"html-keyboard-response","259","345447","0.0-13.0-0.9","5cb4adc019ee7300189e8547","64afc2c9a8732ea92db0087d","64aff7ffb55438b6207f6fae","null","null","<p style=""font-size: 60px; font-family: BACS"">dvNvAkGua</p>","","","","","","","",""
"html-keyboard-response","260","346455","0.0-13.0-0.10","5cb4adc019ee7300189e8547","64afc2c9a8732ea92db0087d","64aff7ffb55438b6207f6fae","null","null","<p style=""font-size: 60px; font-family: BACS"">YcdOkmU</p>","","","","","","","",""
"html-keyboard-response","261","347463","0.0-13.0-0.11","5cb4adc019ee7300189e8547","64afc2c9a8732ea92db0087d","64aff7ffb55438b6207f6fae","null","null","<p style=""font-size: 60px; font-family: BACS"">mBmlAKEdl</p>","","","","","","","",""
"html-keyboard-response","262","348471","0.0-13.0-0.12","5cb4adc019ee7300189e8547","64afc2c9a8732ea92db0087d","64aff7ffb55438b6207f6fae","null","null","<p style=""font-size: 60px; font-family: BACS"">dvNvArab</p>","","","","","","","",""
"html-keyboard-response","263","349479","0.0-13.0-0.13","5cb4adc019ee7300189e8547","64afc2c9a8732ea92db0087d","64aff7ffb55438b6207f6fae","null","null","<p style=""font-size: 60px; font-family: BACS"">kRCkObRC</p>","","","","","","","",""
"html-keyboard-response","264","350487","0.0-13.0-0.14","5cb4adc019ee7300189e8547","64afc2c9a8732ea92db0087d","64aff7ffb55438b6207f6fae","null","null","<p style=""font-size: 60px; font-family: BACS"">kcdOtTRkY</p>","","","","","","","",""
"html-keyboard-response","265","351495","0.0-13.0-0.15","5cb4adc019ee7300189e8547","64afc2c9a8732ea92db0087d","64aff7ffb55438b6207f6fae","null","null","<p style=""font-size: 60px; font-family: BACS"">OcYMKEdl</p>","","","","","","","",""
"html-keyboard-response","266","352502","0.0-13.0-0.16","5cb4adc019ee7300189e8547","64afc2c9a8732ea92db0087d","64aff7ffb55438b6207f6fae","null","null","<p style=""font-size: 60px; font-family: BACS"">COtBDdEPD</p>","","","","","","","",""
"html-keyboard-response","267","353512","0.0-13.0-0.17","5cb4adc019ee7300189e8547","64afc2c9a8732ea92db0087d","64aff7ffb55438b6207f6fae","null","null","<p style=""font-size: 60px; font-family: BACS"">JdGmkmU</p>","","","","","","","",""
"html-keyboard-response","268","354519","0.0-13.0-0.18","5cb4adc019ee7300189e8547","64afc2c9a8732ea92db0087d","64aff7ffb55438b6207f6fae","null","null","<p style=""font-size: 60px; font-family: BACS"">ukYZkbu</p>","","","","","","","",""
"html-keyboard-response","269","355527","0.0-13.0-0.19","5cb4adc019ee7300189e8547","64afc2c9a8732ea92db0087d","64aff7ffb55438b6207f6fae","null","null","<p style=""font-size: 60px; font-family: BACS"">lYruaQONk</p>","","","","","","","",""
"html-keyboard-response","270","356531","0.0-13.0-0.20","5cb4adc019ee7300189e8547","64afc2c9a8732ea92db0087d","64aff7ffb55438b6207f6fae","null","null","<p style=""font-size: 60px; font-family: BACS"">kcdOtbRC</p>","","","","","","","",""
"html-keyboard-response","271","357535","0.0-13.0-0.21","5cb4adc019ee7300189e8547","64afc2c9a8732ea92db0087d","64aff7ffb55438b6207f6fae","null","null","<p style=""font-size: 60px; font-family: BACS"">KElBdEPD</p>","","","","","","","",""
"html-keyboard-response","272","358543","0.0-13.0-0.22","5cb4adc019ee7300189e8547","64afc2c9a8732ea92db0087d","64aff7ffb55438b6207f6fae","null","null","<p style=""font-size: 60px; font-family: BACS"">lYruakbu</p>","","","","","","","",""
"html-keyboard-response","273","359551","0.0-13.0-0.23","5cb4adc019ee7300189e8547","64afc2c9a8732ea92db0087d","64aff7ffb55438b6207f6fae","null","null","<p style=""font-size: 60px; font-family: BACS"">kPkRAKEdl</p>","","","","","","","",""
"html-keyboard-response","274","360559","0.0-13.0-0.24","5cb4adc019ee7300189e8547","64afc2c9a8732ea92db0087d","64aff7ffb55438b6207f6fae","null","null","<p style=""font-size: 60px; font-family: BACS"">bmbNkGua</p>","","","","","","","",""
"html-keyboard-response","275","361567","0.0-13.0-0.25","5cb4adc019ee7300189e8547","64afc2c9a8732ea92db0087d","64aff7ffb55438b6207f6fae","null","null","<p style=""font-size: 60px; font-family: BACS"">dvNvAQONk</p>","","","","","","","",""
"html-keyboard-response","276","362575","0.0-13.0-0.26","5cb4adc019ee7300189e8547","64afc2c9a8732ea92db0087d","64aff7ffb55438b6207f6fae","null","null","<p style=""font-size: 60px; font-family: BACS"">JdGmkGua</p>","","","","","","","",""
"html-keyboard-response","277","363582","0.0-13.0-0.27","5cb4adc019ee7300189e8547","64afc2c9a8732ea92db0087d","64aff7ffb55438b6207f6fae","null","null","<p style=""font-size: 60px; font-family: BACS"">lGZvkbu</p>","","","","","","","",""
"html-keyboard-response","278","364591","0.0-13.0-0.28","5cb4adc019ee7300189e8547","64afc2c9a8732ea92db0087d","64aff7ffb55438b6207f6fae","null","null","<p style=""font-size: 60px; font-family: BACS"">bmbNrab</p>","","","","","","","",""
"html-keyboard-response","279","365599","0.0-13.0-0.29","5cb4adc019ee7300189e8547","64afc2c9a8732ea92db0087d","64aff7ffb55438b6207f6fae","null","null","<p style=""font-size: 60px; font-family: BACS"">lBlETRkY</p>","","","","","","","",""
"html-keyboard-response","280","366607","0.0-13.0-0.30","5cb4adc019ee7300189e8547","64afc2c9a8732ea92db0087d","64aff7ffb55438b6207f6fae","null","null","<p style=""font-size: 60px; font-family: BACS"">lGZvkGua</p>","","","","","","","",""
"html-keyboard-response","281","367615","0.0-13.0-0.31","5cb4adc019ee7300189e8547","64afc2c9a8732ea92db0087d","64aff7ffb55438b6207f6fae","null","null","<p style=""font-size: 60px; font-family: BACS"">LcNUJQONk</p>","","","","","","","",""
"html-keyboard-response","282","368623","0.0-13.0-0.32","5cb4adc019ee7300189e8547","64afc2c9a8732ea92db0087d","64aff7ffb55438b6207f6fae","null","null","<p style=""font-size: 60px; font-family: BACS"">lYruarab</p>","","","","","","","",""
"html-keyboard-response","283","369631","0.0-13.0-0.33","5cb4adc019ee7300189e8547","64afc2c9a8732ea92db0087d","64aff7ffb55438b6207f6fae","null","null","<p style=""font-size: 60px; font-family: BACS"">kCRmdEPD</p>","","","","","","","",""
"html-keyboard-response","284","370639","0.0-13.0-0.34","5cb4adc019ee7300189e8547","64afc2c9a8732ea92db0087d","64aff7ffb55438b6207f6fae","null","null","<p style=""font-size: 60px; font-family: BACS"">JrGvkmU</p>","","","","","","","",""
"html-keyboard-response","285","371647","0.0-13.0-0.35","5cb4adc019ee7300189e8547","64afc2c9a8732ea92db0087d","64aff7ffb55438b6207f6fae","null","null","<p style=""font-size: 60px; font-family: BACS"">dvNvAkbu</p>","","","","","","","",""
"html-keyboard-response","286","372656","0.0-13.0-0.36","5cb4adc019ee7300189e8547","64afc2c9a8732ea92db0087d","64aff7ffb55438b6207f6fae","null","null","<p style=""font-size: 60px; font-family: BACS"">mBmlAbRC</p>","","","","","","","",""
"html-keyboard-response","287","373663","0.0-13.0-0.37","5cb4adc019ee7300189e8547","64afc2c9a8732ea92db0087d","64aff7ffb55438b6207f6fae","null","null","<p style=""font-size: 60px; font-family: BACS"">KElBTRkY</p>","","","","","","","",""
"html-keyboard-response","288","374671","0.0-13.0-0.38","5cb4adc019ee7300189e8547","64afc2c9a8732ea92db0087d","64aff7ffb55438b6207f6fae","null","null","<p style=""font-size: 60px; font-family: BACS"">YcdOQONk</p>","","","","","","","",""
"html-keyboard-response","289","375680","0.0-13.0-0.39","5cb4adc019ee7300189e8547","64afc2c9a8732ea92db0087d","64aff7ffb55438b6207f6fae","null","null","<p style=""font-size: 60px; font-family: BACS"">kRCkOTRkY</p>","","","","","","","",""
"html-keyboard-response","290","376687","0.0-13.0-0.40","5cb4adc019ee7300189e8547","64afc2c9a8732ea92db0087d","64aff7ffb55438b6207f6fae","null","null","<p style=""font-size: 60px; font-family: BACS"">bmbNQONk</p>","","","","","","","",""
"html-keyboard-response","291","377697","0.0-13.0-0.41","5cb4adc019ee7300189e8547","64afc2c9a8732ea92db0087d","64aff7ffb55438b6207f6fae","null","null","<p style=""font-size: 60px; font-family: BACS"">OcYMTRkY</p>","","","","","","","",""
"html-keyboard-response","292","378704","0.0-13.0-0.42","5cb4adc019ee7300189e8547","64afc2c9a8732ea92db0087d","64aff7ffb55438b6207f6fae","null","null","<p style=""font-size: 60px; font-family: BACS"">YcdOkGua</p>","","","","","","","",""
"html-keyboard-response","293","379712","0.0-13.0-0.43","5cb4adc019ee7300189e8547","64afc2c9a8732ea92db0087d","64aff7ffb55438b6207f6fae","null","null","<p style=""font-size: 60px; font-family: BACS"">ZvalvQONk</p>","","","","","","","",""
"html-keyboard-response","294","380719","0.0-13.0-0.44","5cb4adc019ee7300189e8547","64afc2c9a8732ea92db0087d","64aff7ffb55438b6207f6fae","null","null","<p style=""font-size: 60px; font-family: BACS"">YcdOkbu</p>","","","","","","","",""
"html-keyboard-response","295","381727","0.0-13.0-0.45","5cb4adc019ee7300189e8547","64afc2c9a8732ea92db0087d","64aff7ffb55438b6207f6fae","null","null","<p style=""font-size: 60px; font-family: BACS"">LcNUJkGua</p>","","","","","","","",""
"html-keyboard-response","296","382736","0.0-13.0-0.46","5cb4adc019ee7300189e8547","64afc2c9a8732ea92db0087d","64aff7ffb55438b6207f6fae","null","null","<p style=""font-size: 60px; font-family: BACS"">kCRmTRkY</p>","","","","","","","",""
"html-keyboard-response","297","383743","0.0-13.0-0.47","5cb4adc019ee7300189e8547","64afc2c9a8732ea92db0087d","64aff7ffb55438b6207f6fae","null","null","<p style=""font-size: 60px; font-family: BACS"">KElBKEdl</p>","","","","","","","",""
"html-keyboard-response","298","384752","0.0-13.0-0.48","5cb4adc019ee7300189e8547","64afc2c9a8732ea92db0087d","64aff7ffb55438b6207f6fae","null","null","<p style=""font-size: 60px; font-family: BACS"">lGZvkmU</p>","","","","","","","",""
"html-keyboard-response","299","385761","0.0-13.0-0.49","5cb4adc019ee7300189e8547","64afc2c9a8732ea92db0087d","64aff7ffb55438b6207f6fae","null","null","<p style=""font-size: 60px; font-family: BACS"">OcYMdEPD</p>","","","","","","","",""
"html-keyboard-response","300","386767","0.0-13.0-0.50","5cb4adc019ee7300189e8547","64afc2c9a8732ea92db0087d","64aff7ffb55438b6207f6fae","null","null","<p style=""font-size: 60px; font-family: BACS"">LcNUJkmU</p>","","","","","","","",""
"html-keyboard-response","301","387776","0.0-13.0-0.51","5cb4adc019ee7300189e8547","64afc2c9a8732ea92db0087d","64aff7ffb55438b6207f6fae","null","null","<p style=""font-size: 60px; font-family: BACS"">Zvalvkbu</p>","","","","","","","",""
"html-keyboard-response","302","388783","0.0-13.0-0.52","5cb4adc019ee7300189e8547","64afc2c9a8732ea92db0087d","64aff7ffb55438b6207f6fae","null","null","<p style=""font-size: 60px; font-family: BACS"">ukYZrab</p>","","","","","","","",""
"html-keyboard-response","303","389792","0.0-13.0-0.53","5cb4adc019ee7300189e8547","64afc2c9a8732ea92db0087d","64aff7ffb55438b6207f6fae","null","null","<p style=""font-size: 60px; font-family: BACS"">kPkRARDM</p>","","","","","","","",""
"html-keyboard-response","304","390800","0.0-13.0-0.54","5cb4adc019ee7300189e8547","64afc2c9a8732ea92db0087d","64aff7ffb55438b6207f6fae","null","null","<p style=""font-size: 60px; font-family: BACS"">DhCPdEPD</p>","","","","","","","",""
"html-keyboard-response","305","391807","0.0-13.0-0.55","5cb4adc019ee7300189e8547","64afc2c9a8732ea92db0087d","64aff7ffb55438b6207f6fae","null","null","<p style=""font-size: 60px; font-family: BACS"">lYruakmU</p>","","","","","","","",""
"html-keyboard-response","306","392815","0.0-13.0-0.56","5cb4adc019ee7300189e8547","64afc2c9a8732ea92db0087d","64aff7ffb55438b6207f6fae","null","null","<p style=""font-size: 60px; font-family: BACS"">ZvalvkGua</p>","","","","","","","",""
"html-keyboard-response","307","393825","0.0-13.0-0.57","5cb4adc019ee7300189e8547","64afc2c9a8732ea92db0087d","64aff7ffb55438b6207f6fae","null","null","<p style=""font-size: 60px; font-family: BACS"">LcNUJrab</p>","","","","","","","",""
"html-keyboard-response","308","394831","0.0-13.0-0.58","5cb4adc019ee7300189e8547","64afc2c9a8732ea92db0087d","64aff7ffb55438b6207f6fae","null","null","<p style=""font-size: 60px; font-family: BACS"">COtBDbRC</p>","","","","","","","",""
"html-keyboard-response","309","395839","0.0-13.0-0.59","5cb4adc019ee7300189e8547","64afc2c9a8732ea92db0087d","64aff7ffb55438b6207f6fae","null","null","<p style=""font-size: 60px; font-family: BACS"">kcdOtKEdl</p>","","","","","","","",""
"html-keyboard-response","310","396848","0.0-13.0-0.60","5cb4adc019ee7300189e8547","64afc2c9a8732ea92db0087d","64aff7ffb55438b6207f6fae","null","null","<p style=""font-size: 60px; font-family: BACS"">JrGvQONk</p>","","","","","","","",""
"html-keyboard-response","311","397856","0.0-13.0-0.61","5cb4adc019ee7300189e8547","64afc2c9a8732ea92db0087d","64aff7ffb55438b6207f6fae","null","null","<p style=""font-size: 60px; font-family: BACS"">bmbNkmU</p>","","","","","","","",""
"html-keyboard-response","312","398863","0.0-13.0-0.62","5cb4adc019ee7300189e8547","64afc2c9a8732ea92db0087d","64aff7ffb55438b6207f6fae","null","null","<p style=""font-size: 60px; font-family: BACS"">JrGvkGua</p>","","","","","","","",""
"html-keyboard-response","313","399872","0.0-13.0-0.63","5cb4adc019ee7300189e8547","64afc2c9a8732ea92db0087d","64aff7ffb55438b6207f6fae","null","null","<p style=""font-size: 60px; font-family: BACS"">kRCkORDM</p>","","","","","","","",""
"html-keyboard-response","314","400879","0.0-13.0-0.64","5cb4adc019ee7300189e8547","64afc2c9a8732ea92db0087d","64aff7ffb55438b6207f6fae","null","null","<p style=""font-size: 60px; font-family: BACS"">JrGvkbu</p>","","","","","","","",""
"html-keyboard-response","315","401887","0.0-13.0-0.65","5cb4adc019ee7300189e8547","64afc2c9a8732ea92db0087d","64aff7ffb55438b6207f6fae","null","null","<p style=""font-size: 60px; font-family: BACS"">DhCPbRC</p>","","","","","","","",""
"html-keyboard-response","316","402895","0.0-13.0-0.66","5cb4adc019ee7300189e8547","64afc2c9a8732ea92db0087d","64aff7ffb55438b6207f6fae","null","null","<p style=""font-size: 60px; font-family: BACS"">kcdOtRDM</p>","","","","","","","",""
"html-keyboard-response","317","403904","0.0-13.0-0.67","5cb4adc019ee7300189e8547","64afc2c9a8732ea92db0087d","64aff7ffb55438b6207f6fae","null","null","<p style=""font-size: 60px; font-family: BACS"">lGZvrab</p>","","","","","","","",""
"html-keyboard-response","318","404912","0.0-13.0-0.68","5cb4adc019ee7300189e8547","64afc2c9a8732ea92db0087d","64aff7ffb55438b6207f6fae","null","null","<p style=""font-size: 60px; font-family: BACS"">kRCkOKEdl</p>","","","","","","","",""
"html-keyboard-response","319","405920","0.0-13.0-0.69","5cb4adc019ee7300189e8547","64afc2c9a8732ea92db0087d","64aff7ffb55438b6207f6fae","null","null","<p style=""font-size: 60px; font-family: BACS"">OcYMRDM</p>","","","","","","","",""
"html-keyboard-response","320","406927","0.0-13.0-0.70","5cb4adc019ee7300189e8547","64afc2c9a8732ea92db0087d","64aff7ffb55438b6207f6fae","null","null","<p style=""font-size: 60px; font-family: BACS"">JdGmrab</p>","","","","","","","",""
"html-keyboard-response","321","407936","0.0-13.0-0.71","5cb4adc019ee7300189e8547","64afc2c9a8732ea92db0087d","64aff7ffb55438b6207f6fae","null","null","<p style=""font-size: 60px; font-family: BACS"">DhCPKEdl</p>","","","","","","","",""
"html-keyboard-response","322","408943","0.0-13.0-0.72","5cb4adc019ee7300189e8547","64afc2c9a8732ea92db0087d","64aff7ffb55438b6207f6fae","null","null","<p style=""font-size: 60px; font-family: BACS"">kCRmbRC</p>","","","","","","","",""
"html-keyboard-response","323","409951","0.0-13.0-0.73","5cb4adc019ee7300189e8547","64afc2c9a8732ea92db0087d","64aff7ffb55438b6207f6fae","null","null","<p style=""font-size: 60px; font-family: BACS"">COtBDRDM</p>","","","","","","","",""
"html-keyboard-response","324","410960","0.0-13.0-0.74","5cb4adc019ee7300189e8547","64afc2c9a8732ea92db0087d","64aff7ffb55438b6207f6fae","null","null","<p style=""font-size: 60px; font-family: BACS"">lBlEdEPD</p>","","","","","","","",""
"html-keyboard-response","325","411968","0.0-13.0-0.75","5cb4adc019ee7300189e8547","64afc2c9a8732ea92db0087d","64aff7ffb55438b6207f6fae","null","null","<p style=""font-size: 60px; font-family: BACS"">DhCPRDM</p>","","","","","","","",""
"html-keyboard-response","326","412976","0.0-13.0-0.76","5cb4adc019ee7300189e8547","64afc2c9a8732ea92db0087d","64aff7ffb55438b6207f6fae","null","null","<p style=""font-size: 60px; font-family: BACS"">kPkRAbRC</p>","","","","","","","",""
"html-keyboard-response","327","413984","0.0-13.0-0.77","5cb4adc019ee7300189e8547","64afc2c9a8732ea92db0087d","64aff7ffb55438b6207f6fae","null","null","<p style=""font-size: 60px; font-family: BACS"">kCRmRDM</p>","","","","","","","",""
"html-keyboard-response","328","414993","0.0-13.0-0.78","5cb4adc019ee7300189e8547","64afc2c9a8732ea92db0087d","64aff7ffb55438b6207f6fae","null","null","<p style=""font-size: 60px; font-family: BACS"">mBmlAdEPD</p>","","","","","","","",""
"html-keyboard-response","329","416000","0.0-13.0-0.79","5cb4adc019ee7300189e8547","64afc2c9a8732ea92db0087d","64aff7ffb55438b6207f6fae","null","null","<p style=""font-size: 60px; font-family: BACS"">lBlEKEdl</p>","","","","","","","",""
"html-keyboard-response","330","421682","0.0-14.0","5cb4adc019ee7300189e8547","64afc2c9a8732ea92db0087d","64aff7ffb55438b6207f6fae","5681"," ","<p>Ottimo! Hai visto tutte le parole che abbiamo ricevuto dallo spazio.</p>
      <p>Premi la barra quando sei pronta/o per continuare.</p>","","","","","","","",""
"html-keyboard-response","331","453069","0.0-15.0","5cb4adc019ee7300189e8547","64afc2c9a8732ea92db0087d","64aff7ffb55438b6207f6fae","31386"," ","<p>In questa seconda parte, vedrai delle nuove parole che abbiamo ricevuto dallo stesso gruppo di alieni, e altre che invece provengono da un'altra comunicazione, con un altro gruppo di alieni. Purtroppo le due comunicazioni non arrivano a noi separatamente, per cui le parole sono mescolate tra loro. Il tuo compito sarà quello di individuare le parole che provengono dal gruppo che hai studiato nella prima parte dell'esperimento.</p>
      <p>Questo compito non è per nulla facile; le due comunicazioni infatti usano gli stessi caratteri. Il tuo meeting con i leader mondiali inizia tra poco, per cui non avrai molto tempo per prendere la tua decisione; dovrai essere veloce. Cerca di fare del tuo meglio usando la tua intuizione; non hai tempo di stare a pensare a lungo su ogni singola parola.</p>
      <p>Premi <strong>k</strong> quando pensi che la parola che stai vedendo sia degli stessi alieni che hai studiato prima, e <strong>d</strong> quando invece pensi che la parola che stai vedendo venga dall'altra comunicazione, con il nuovo gruppo di alieni.</p><p>Premi la barra quando sei pronta/o per iniziare.</p>","","","","","","","",""
"html-keyboard-response","332","455415","0.0-16.0-0.0","5cb4adc019ee7300189e8547","64afc2c9a8732ea92db0087d","64aff7ffb55438b6207f6fae","2344","k","<p style=""font-size: 30px;"">La parola viene del gruppo di alieni che hai studiato prima?</p><br><p style=""font-size: 60px; font-family: BACS"">lYruakGua<p style=""font-size: 15px"">Premi <strong>k</strong> per sì, <strong>d</strong> per no.</p>","","lYruakGua","testing","k","true","","",""
"html-keyboard-response","333","458567","0.0-16.0-1.0-0.0","5cb4adc019ee7300189e8547","64afc2c9a8732ea92db0087d","64aff7ffb55438b6207f6fae","3148"," ","<p style=""font-size: 30px; color: red"">Attenzione! Sei stato troppo lento con questa parola.</p>
      <p style=""font-size: 30px; color: red"">Cerca di essere più veloce.</p><p></p><p>Premi la barra per continuare.</p>","","","","","","","",""
"html-keyboard-response","334","459535","0.0-16.0-0.1","5cb4adc019ee7300189e8547","64afc2c9a8732ea92db0087d","64aff7ffb55438b6207f6fae","966","k","<p style=""font-size: 30px;"">La parola viene del gruppo di alieni che hai studiato prima?</p><br><p style=""font-size: 60px; font-family: BACS"">lBlEkmU<p style=""font-size: 15px"">Premi <strong>k</strong> per sì, <strong>d</strong> per no.</p>","","lBlEkmU","testing","d","false","","",""
"html-keyboard-response","335","460440","0.0-16.0-0.2","5cb4adc019ee7300189e8547","64afc2c9a8732ea92db0087d","64aff7ffb55438b6207f6fae","903","k","<p style=""font-size: 30px;"">La parola viene del gruppo di alieni che hai studiato prima?</p><br><p style=""font-size: 60px; font-family: BACS"">kRCkOdEPD<p style=""font-size: 15px"">Premi <strong>k</strong> per sì, <strong>d</strong> per no.</p>","","kRCkOdEPD","testing","k","true","","",""
"html-keyboard-response","336","461297","0.0-16.0-0.3","5cb4adc019ee7300189e8547","64afc2c9a8732ea92db0087d","64aff7ffb55438b6207f6fae","854","d","<p style=""font-size: 30px"">&emsp;</p><br><p style=""font-size: 60px; font-family: BACS"">dvNvARDM<p style=""font-size: 15px"">Premi <strong>k</strong> per sì, <strong>d</strong> per no.</p>","","dvNvARDM","testing","d","true","","",""
"html-keyboard-response","337","462088","0.0-16.0-0.4","5cb4adc019ee7300189e8547","64afc2c9a8732ea92db0087d","64aff7ffb55438b6207f6fae","788","d","<p style=""font-size: 30px"">&emsp;</p><br><p style=""font-size: 60px; font-family: BACS"">LcNUJTRkY<p style=""font-size: 15px"">Premi <strong>k</strong> per sì, <strong>d</strong> per no.</p>","","LcNUJTRkY","testing","d","true","","",""
"html-keyboard-response","338","463039","0.0-16.0-0.5","5cb4adc019ee7300189e8547","64afc2c9a8732ea92db0087d","64aff7ffb55438b6207f6fae","948","d","<p style=""font-size: 30px"">&emsp;</p><br><p style=""font-size: 60px; font-family: BACS"">OcYMbRC<p style=""font-size: 15px"">Premi <strong>k</strong> per sì, <strong>d</strong> per no.</p>","","OcYMbRC","testing","k","false","","",""
"html-keyboard-response","339","463711","0.0-16.0-0.6","5cb4adc019ee7300189e8547","64afc2c9a8732ea92db0087d","64aff7ffb55438b6207f6fae","670","k","<p style=""font-size: 30px"">&emsp;</p><br><p style=""font-size: 60px; font-family: BACS"">LcNUJkbu<p style=""font-size: 15px"">Premi <strong>k</strong> per sì, <strong>d</strong> per no.</p>","","LcNUJkbu","testing","k","true","","",""
"html-keyboard-response","340","464474","0.0-16.0-0.7","5cb4adc019ee7300189e8547","64afc2c9a8732ea92db0087d","64aff7ffb55438b6207f6fae","760","k","<p style=""font-size: 30px"">&emsp;</p><br><p style=""font-size: 60px; font-family: BACS"">bmbNTRkY<p style=""font-size: 15px"">Premi <strong>k</strong> per sì, <strong>d</strong> per no.</p>","","bmbNTRkY","testing","d","false","","",""
"html-keyboard-response","341","465221","0.0-16.0-0.8","5cb4adc019ee7300189e8547","64afc2c9a8732ea92db0087d","64aff7ffb55438b6207f6fae","746","d","<p style=""font-size: 30px"">&emsp;</p><br><p style=""font-size: 60px; font-family: BACS"">mBmlAkmU<p style=""font-size: 15px"">Premi <strong>k</strong> per sì, <strong>d</strong> per no.</p>","","mBmlAkmU","testing","d","true","","",""
"html-keyboard-response","342","466046","0.0-16.0-0.9","5cb4adc019ee7300189e8547","64afc2c9a8732ea92db0087d","64aff7ffb55438b6207f6fae","823","k","<p style=""font-size: 30px"">&emsp;</p><br><p style=""font-size: 60px; font-family: BACS"">bmbNkbu<p style=""font-size: 15px"">Premi <strong>k</strong> per sì, <strong>d</strong> per no.</p>","","bmbNkbu","testing","k","true","","",""
"html-keyboard-response","343","466706","0.0-16.0-0.10","5cb4adc019ee7300189e8547","64afc2c9a8732ea92db0087d","64aff7ffb55438b6207f6fae","657","k","<p style=""font-size: 30px"">&emsp;</p><br><p style=""font-size: 60px; font-family: BACS"">KElBrab<p style=""font-size: 15px"">Premi <strong>k</strong> per sì, <strong>d</strong> per no.</p>","","KElBrab","testing","d","false","","",""
"html-keyboard-response","344","467394","0.0-16.0-0.11","5cb4adc019ee7300189e8547","64afc2c9a8732ea92db0087d","64aff7ffb55438b6207f6fae","686","k","<p style=""font-size: 30px"">&emsp;</p><br><p style=""font-size: 60px; font-family: BACS"">ZvalvRDM<p style=""font-size: 15px"">Premi <strong>k</strong> per sì, <strong>d</strong> per no.</p>","","ZvalvRDM","testing","d","false","","",""
"html-keyboard-response","345","467847","0.0-16.0-0.12","5cb4adc019ee7300189e8547","64afc2c9a8732ea92db0087d","64aff7ffb55438b6207f6fae","450","d","<p style=""font-size: 30px"">&emsp;</p><br><p style=""font-size: 60px; font-family: BACS"">dvNvAkmU<p style=""font-size: 15px"">Premi <strong>k</strong> per sì, <strong>d</strong> per no.</p>","","dvNvAkmU","testing","k","false","","",""
"html-keyboard-response","346","468620","0.0-16.0-0.13","5cb4adc019ee7300189e8547","64afc2c9a8732ea92db0087d","64aff7ffb55438b6207f6fae","771","k","<p style=""font-size: 30px"">&emsp;</p><br><p style=""font-size: 60px; font-family: BACS"">OcYMrab<p style=""font-size: 15px"">Premi <strong>k</strong> per sì, <strong>d</strong> per no.</p>","","OcYMrab","testing","d","false","","",""
"html-keyboard-response","347","469221","0.0-16.0-0.14","5cb4adc019ee7300189e8547","64afc2c9a8732ea92db0087d","64aff7ffb55438b6207f6fae","598","k","<p style=""font-size: 30px"">&emsp;</p><br><p style=""font-size: 60px; font-family: BACS"">kcdOtdEPD<p style=""font-size: 15px"">Premi <strong>k</strong> per sì, <strong>d</strong> per no.</p>","","kcdOtdEPD","testing","k","true","","",""
"html-keyboard-response","348","469970","0.0-16.0-0.15","5cb4adc019ee7300189e8547","64afc2c9a8732ea92db0087d","64aff7ffb55438b6207f6fae","747","k","<p style=""font-size: 30px"">&emsp;</p><br><p style=""font-size: 60px; font-family: BACS"">COtBDKEdl<p style=""font-size: 15px"">Premi <strong>k</strong> per sì, <strong>d</strong> per no.</p>","","COtBDKEdl","testing","k","true","","",""
"html-keyboard-response","349","470746","0.0-16.0-0.16","5cb4adc019ee7300189e8547","64afc2c9a8732ea92db0087d","64aff7ffb55438b6207f6fae","774","k","<p style=""font-size: 30px"">&emsp;</p><br><p style=""font-size: 60px; font-family: BACS"">kPkRATRkY<p style=""font-size: 15px"">Premi <strong>k</strong> per sì, <strong>d</strong> per no.</p>","","kPkRATRkY","testing","k","true","","",""
"html-keyboard-response","350","471492","0.0-16.0-0.17","5cb4adc019ee7300189e8547","64afc2c9a8732ea92db0087d","64aff7ffb55438b6207f6fae","744","d","<p style=""font-size: 30px"">&emsp;</p><br><p style=""font-size: 60px; font-family: BACS"">COtBDkGua<p style=""font-size: 15px"">Premi <strong>k</strong> per sì, <strong>d</strong> per no.</p>","","COtBDkGua","testing","d","true","","",""
"html-keyboard-response","351","472114","0.0-16.0-0.18","5cb4adc019ee7300189e8547","64afc2c9a8732ea92db0087d","64aff7ffb55438b6207f6fae","620","d","<p style=""font-size: 30px"">&emsp;</p><br><p style=""font-size: 60px; font-family: BACS"">kPkRAkbu<p style=""font-size: 15px"">Premi <strong>k</strong> per sì, <strong>d</strong> per no.</p>","","kPkRAkbu","testing","d","true","","",""
"html-keyboard-response","352","472660","0.0-16.0-0.19","5cb4adc019ee7300189e8547","64afc2c9a8732ea92db0087d","64aff7ffb55438b6207f6fae","543","d","<p style=""font-size: 30px"">&emsp;</p><br><p style=""font-size: 60px; font-family: BACS"">JrGvbRC<p style=""font-size: 15px"">Premi <strong>k</strong> per sì, <strong>d</strong> per no.</p>","","JrGvbRC","testing","d","true","","",""
"html-keyboard-response","353","473163","0.0-16.0-0.20","5cb4adc019ee7300189e8547","64afc2c9a8732ea92db0087d","64aff7ffb55438b6207f6fae","502","d","<p style=""font-size: 30px"">&emsp;</p><br><p style=""font-size: 60px; font-family: BACS"">ukYZKEdl<p style=""font-size: 15px"">Premi <strong>k</strong> per sì, <strong>d</strong> per no.</p>","","ukYZKEdl","testing","d","true","","",""
"html-keyboard-response","354","473989","0.0-16.0-0.21","5cb4adc019ee7300189e8547","64afc2c9a8732ea92db0087d","64aff7ffb55438b6207f6fae","824","k","<p style=""font-size: 30px"">&emsp;</p><br><p style=""font-size: 60px; font-family: BACS"">DhCPkbu<p style=""font-size: 15px"">Premi <strong>k</strong> per sì, <strong>d</strong> per no.</p>","","DhCPkbu","testing","d","false","","",""
"html-keyboard-response","355","474529","0.0-16.0-0.22","5cb4adc019ee7300189e8547","64afc2c9a8732ea92db0087d","64aff7ffb55438b6207f6fae","538","k","<p style=""font-size: 30px"">&emsp;</p><br><p style=""font-size: 60px; font-family: BACS"">ZvalvkmU<p style=""font-size: 15px"">Premi <strong>k</strong> per sì, <strong>d</strong> per no.</p>","","ZvalvkmU","testing","k","true","","",""
"html-keyboard-response","356","474859","0.0-16.0-0.23","5cb4adc019ee7300189e8547","64afc2c9a8732ea92db0087d","64aff7ffb55438b6207f6fae","329","k","<p style=""font-size: 30px"">&emsp;</p><br><p style=""font-size: 60px; font-family: BACS"">JdGmQONk<p style=""font-size: 15px"">Premi <strong>k</strong> per sì, <strong>d</strong> per no.</p>","","JdGmQONk","testing","k","true","","",""
"html-keyboard-response","357","475561","0.0-16.0-0.24","5cb4adc019ee7300189e8547","64afc2c9a8732ea92db0087d","64aff7ffb55438b6207f6fae","699","k","<p style=""font-size: 30px"">&emsp;</p><br><p style=""font-size: 60px; font-family: BACS"">lGZvdEPD<p style=""font-size: 15px"">Premi <strong>k</strong> per sì, <strong>d</strong> per no.</p>","","lGZvdEPD","testing","d","false","","",""
"html-keyboard-response","358","476259","0.0-16.0-0.25","5cb4adc019ee7300189e8547","64afc2c9a8732ea92db0087d","64aff7ffb55438b6207f6fae","697","d","<p style=""font-size: 30px"">&emsp;</p><br><p style=""font-size: 60px; font-family: BACS"">kCRmkGua<p style=""font-size: 15px"">Premi <strong>k</strong> per sì, <strong>d</strong> per no.</p>","","kCRmkGua","testing","d","true","","",""
"html-keyboard-response","359","476789","0.0-16.0-0.26","5cb4adc019ee7300189e8547","64afc2c9a8732ea92db0087d","64aff7ffb55438b6207f6fae","528","d","<p style=""font-size: 30px"">&emsp;</p><br><p style=""font-size: 60px; font-family: BACS"">kRCkOQONk<p style=""font-size: 15px"">Premi <strong>k</strong> per sì, <strong>d</strong> per no.</p>","","kRCkOQONk","testing","d","true","","",""
"html-keyboard-response","360","477510","0.0-16.0-0.27","5cb4adc019ee7300189e8547","64afc2c9a8732ea92db0087d","64aff7ffb55438b6207f6fae","719","k","<p style=""font-size: 30px"">&emsp;</p><br><p style=""font-size: 60px; font-family: BACS"">lBlERDM<p style=""font-size: 15px"">Premi <strong>k</strong> per sì, <strong>d</strong> per no.</p>","","lBlERDM","testing","k","true","","",""
"html-keyboard-response","361","478371","0.0-16.0-0.28","5cb4adc019ee7300189e8547","64afc2c9a8732ea92db0087d","64aff7ffb55438b6207f6fae","859","k","<p style=""font-size: 30px"">&emsp;</p><br><p style=""font-size: 60px; font-family: BACS"">YcdObRC<p style=""font-size: 15px"">Premi <strong>k</strong> per sì, <strong>d</strong> per no.</p>","","YcdObRC","testing","d","false","","",""
"html-keyboard-response","362","479236","0.0-16.0-0.29","5cb4adc019ee7300189e8547","64afc2c9a8732ea92db0087d","64aff7ffb55438b6207f6fae","863","k","<p style=""font-size: 30px"">&emsp;</p><br><p style=""font-size: 60px; font-family: BACS"">kCRmKEdl<p style=""font-size: 15px"">Premi <strong>k</strong> per sì, <strong>d</strong> per no.</p>","","kCRmKEdl","testing","k","true","","",""
"html-keyboard-response","363","480034","0.0-16.0-0.30","5cb4adc019ee7300189e8547","64afc2c9a8732ea92db0087d","64aff7ffb55438b6207f6fae","796","d","<p style=""font-size: 30px"">&emsp;</p><br><p style=""font-size: 60px; font-family: BACS"">mBmlARDM<p style=""font-size: 15px"">Premi <strong>k</strong> per sì, <strong>d</strong> per no.</p>","","mBmlARDM","testing","k","false","","",""
"html-keyboard-response","364","480767","0.0-16.0-0.31","5cb4adc019ee7300189e8547","64afc2c9a8732ea92db0087d","64aff7ffb55438b6207f6fae","731","d","<p style=""font-size: 30px"">&emsp;</p><br><p style=""font-size: 60px; font-family: BACS"">ukYZkGua<p style=""font-size: 15px"">Premi <strong>k</strong> per sì, <strong>d</strong> per no.</p>","","ukYZkGua","testing","k","false","","",""
"html-keyboard-response","365","481659","0.0-16.0-0.32","5cb4adc019ee7300189e8547","64afc2c9a8732ea92db0087d","64aff7ffb55438b6207f6fae","891","k","<p style=""font-size: 30px"">&emsp;</p><br><p style=""font-size: 60px; font-family: BACS"">JdGmdEPD<p style=""font-size: 15px"">Premi <strong>k</strong> per sì, <strong>d</strong> per no.</p>","","JdGmdEPD","testing","d","false","","",""
"html-keyboard-response","366","482333","0.0-16.0-0.33","5cb4adc019ee7300189e8547","64afc2c9a8732ea92db0087d","64aff7ffb55438b6207f6fae","671","k","<p style=""font-size: 30px"">&emsp;</p><br><p style=""font-size: 60px; font-family: BACS"">lGZvQONk<p style=""font-size: 15px"">Premi <strong>k</strong> per sì, <strong>d</strong> per no.</p>","","lGZvQONk","testing","k","true","","",""
"html-keyboard-response","367","482844","0.0-16.0-0.34","5cb4adc019ee7300189e8547","64afc2c9a8732ea92db0087d","64aff7ffb55438b6207f6fae","509","k","<p style=""font-size: 30px"">&emsp;</p><br><p style=""font-size: 60px; font-family: BACS"">YcdOrab<p style=""font-size: 15px"">Premi <strong>k</strong> per sì, <strong>d</strong> per no.</p>","","YcdOrab","testing","k","true","","",""
"html-keyboard-response","368","483616","0.0-16.0-0.35","5cb4adc019ee7300189e8547","64afc2c9a8732ea92db0087d","64aff7ffb55438b6207f6fae","770","k","<p style=""font-size: 30px"">&emsp;</p><br><p style=""font-size: 60px; font-family: BACS"">lYruaKEdl<p style=""font-size: 15px"">Premi <strong>k</strong> per sì, <strong>d</strong> per no.</p>","","lYruaKEdl","testing","d","false","","",""
"html-keyboard-response","369","484479","0.0-16.0-0.36","5cb4adc019ee7300189e8547","64afc2c9a8732ea92db0087d","64aff7ffb55438b6207f6fae","861","k","<p style=""font-size: 30px"">&emsp;</p><br><p style=""font-size: 60px; font-family: BACS"">DhCPTRkY<p style=""font-size: 15px"">Premi <strong>k</strong> per sì, <strong>d</strong> per no.</p>","","DhCPTRkY","testing","k","true","","",""
"html-keyboard-response","370","485289","0.0-16.0-0.37","5cb4adc019ee7300189e8547","64afc2c9a8732ea92db0087d","64aff7ffb55438b6207f6fae","808","k","<p style=""font-size: 30px"">&emsp;</p><br><p style=""font-size: 60px; font-family: BACS"">KElBbRC<p style=""font-size: 15px"">Premi <strong>k</strong> per sì, <strong>d</strong> per no.</p>","","KElBbRC","testing","k","true","","",""
"html-keyboard-response","371","485782","0.0-16.0-0.38","5cb4adc019ee7300189e8547","64afc2c9a8732ea92db0087d","64aff7ffb55438b6207f6fae","491","k","<p style=""font-size: 30px"">&emsp;</p><br><p style=""font-size: 60px; font-family: BACS"">JrGvrab<p style=""font-size: 15px"">Premi <strong>k</strong> per sì, <strong>d</strong> per no.</p>","","JrGvrab","testing","k","true","","",""
