"trial_type","trial_index","time_elapsed","internal_node_id","subject_id","study_id","session_id","rt","response","stimulus","success","item","task","correct_response","testing_condition","correct","target","confound","name"
"pavlovia","0","650","0.0-0.0","63ee5d8aaee278de46b7d4cc","650c16f0f2faf8d7a0d14c09","651c1db760516f334f1dfa47","","","","","","","","","","","",""
"survey-html-form","1","18557","0.0-1.0","63ee5d8aaee278de46b7d4cc","650c16f0f2faf8d7a0d14c09","651c1db760516f334f1dfa47","17906","{""ID"":""63ee5d8aaee278de46b7d4cc""}","","","","","","","","","",""
"html-keyboard-response","2","41003","0.0-2.0","63ee5d8aaee278de46b7d4cc","650c16f0f2faf8d7a0d14c09","651c1db760516f334f1dfa47","22445"," ","<p style=""font-size: 15px;"">Before beginning, we ask that you read the consent information and confirm your agreement to participate in the experiment.</p>
      <p style=""font-size: 15px;""> We ask that you remember that this is a research project and that your participation is entirely voluntary. You can stop your participation at any time, without needing to provide any explanation. The study we're asking you to participate in aims at examining how readers process written words. You will be engaged in a session of apprximately 20 minutes, followed by a brief questionnaire. You will have the opportunity to take a few breaks during the experiment. You will be paid £4 for your participation, corresponding to a rate of £8/hour. While this experiment looks at cognitive faculties, this experiment doesn't constitute clinical proof of eventual pathologies.</p>
      <p style=""font-size: 15px;"">All of the information collected thanks to yours and others' participation will be held in a secure password-protected server, and will not be shared with anyone not authorised to view it. Your personal information will be kept with an arbitrary participant ID. Thanks to this data anonymity process, any researcher analysing the data won't be able to track the information back to a specific participant. Therefore, this process will make identifying you impossibile, even when results from the study will be published in scientific reviews, presented at congresses, or at any other public forum. More generally, the collected data will be treated in accordance with the laws on privacy and conformity to the Legislative Degree n. 196 ""Code regarding the protection of personal data"" of the 30th of June 2003 and to the European Regulation 2016/670 (General Data Protection Regulation - GDPR). The Data Protection Officer is Avv. Valentina Carollo, who can be contacted at the following email addresses: <a href=""mailto:dpo@sissa.it"">dpo@sissa.it</a> or <a href=""mailto:rpd@sissa.it"">rpd@sissa.it</a> - PEC: <a href=""mailto:protocollo@pec.sissa.it"">protocollo@pec.sissa.it</a>.</p>
      <p style=""font-size: 15px;""> Before expressing your consent to participate, we would like to remind you again that in case you need explanations on any aspect of the experimental procedure, the researcher is at your disposition (<a href=""mailto:aliebelt@sissa.it"">aliebelt@sissa.it</a>, <a href=""mailto:davide.crepaldi@sissa.it"">davide.crepaldi@sissa.it</a>).</p>
      <p style=""font-size: 15px;"">If you would like to download the informed consent form, you can do so here: <a href=""BASL-Informed_Consent.pdf"" download>informed consent form</a>.</p>
      <p style=""font-size: 15px;"">We ask that you press the spacebar to proceed to the consent section.</p>","","","","","","","","",""
"survey-html-form","3","53481","0.0-3.0","63ee5d8aaee278de46b7d4cc","650c16f0f2faf8d7a0d14c09","651c1db760516f334f1dfa47","12477","{""consent1"":""YES"",""consent2"":""YES"",""consent3"":""YES"",""consent4"":""YES"",""consent5"":""YES"",""consent6"":""YES""}","","","","","","","","","",""
"fullscreen","4","58704","0.0-4.0","63ee5d8aaee278de46b7d4cc","650c16f0f2faf8d7a0d14c09","651c1db760516f334f1dfa47","","","","true","","","","","","","",""
"html-keyboard-response","5","76409","0.0-5.0","63ee5d8aaee278de46b7d4cc","650c16f0f2faf8d7a0d14c09","651c1db760516f334f1dfa47","17705"," ","<p>Welcome, and thank you very much for your time!</p>
      <p>In this experiment, you'll be a language expert who's been asked to take a look at words that Earth has received in its first communication with aliens. Your task, in this first part of the experiment, is to pay close attention to the words you'll be shown; later, world leaders will ask you questions on what you saw. The words will be shown to you quite quickly; it seems that the aliens were in a hurry :-)</p>
      <p>Press the spacebar to continue.<p>","","","","","","","","",""
"html-keyboard-response","6","76470","0.0-6.0","63ee5d8aaee278de46b7d4cc","650c16f0f2faf8d7a0d14c09","651c1db760516f334f1dfa47","null","null","<p style=""font-size: 120px; font-family: BACS""> </p>","","","","","","","","",""
"html-keyboard-response","7","89150","0.0-7.0","63ee5d8aaee278de46b7d4cc","650c16f0f2faf8d7a0d14c09","651c1db760516f334f1dfa47","12680"," ","<p>Here is an example of the words you'll see:</p>
      <img src='esempio.png' height='400px'>
      <p>When you're ready to begin, press the spacebar.</p></div>","","","","","","","","",""
"html-keyboard-response","8","90162","0.0-8.0-0.0","63ee5d8aaee278de46b7d4cc","650c16f0f2faf8d7a0d14c09","651c1db760516f334f1dfa47","null","null","<p style=""font-size: 60px; font-family: BACS"">uvaUAZbl</p>","","","","","","","","",""
"html-keyboard-response","9","91176","0.0-8.0-0.1","63ee5d8aaee278de46b7d4cc","650c16f0f2faf8d7a0d14c09","651c1db760516f334f1dfa47","null","null","<p style=""font-size: 60px; font-family: BACS"">KMOcTAm</p>","","","","","","","","",""
"html-keyboard-response","10","92178","0.0-8.0-0.2","63ee5d8aaee278de46b7d4cc","650c16f0f2faf8d7a0d14c09","651c1db760516f334f1dfa47","null","null","<p style=""font-size: 60px; font-family: BACS"">EMYKCmYA</p>","","","","","","","","",""
"html-keyboard-response","11","93193","0.0-8.0-0.3","63ee5d8aaee278de46b7d4cc","650c16f0f2faf8d7a0d14c09","651c1db760516f334f1dfa47","null","null","<p style=""font-size: 60px; font-family: BACS"">rvAJkam</p>","","","","","","","","",""
"html-keyboard-response","12","94205","0.0-8.0-0.4","63ee5d8aaee278de46b7d4cc","650c16f0f2faf8d7a0d14c09","651c1db760516f334f1dfa47","null","null","<p style=""font-size: 60px; font-family: BACS"">YlCPBmtKP</p>","","","","","","","","",""
"html-keyboard-response","13","95221","0.0-8.0-0.5","63ee5d8aaee278de46b7d4cc","650c16f0f2faf8d7a0d14c09","651c1db760516f334f1dfa47","null","null","<p style=""font-size: 60px; font-family: BACS"">uauOrAJu</p>","","","","","","","","",""
"html-keyboard-response","14","96237","0.0-8.0-0.6","63ee5d8aaee278de46b7d4cc","650c16f0f2faf8d7a0d14c09","651c1db760516f334f1dfa47","null","null","<p style=""font-size: 60px; font-family: BACS"">YlYcTAm</p>","","","","","","","","",""
"html-keyboard-response","15","97252","0.0-8.0-0.7","63ee5d8aaee278de46b7d4cc","650c16f0f2faf8d7a0d14c09","651c1db760516f334f1dfa47","null","null","<p style=""font-size: 60px; font-family: BACS"">uauOkam</p>","","","","","","","","",""
"html-keyboard-response","16","98267","0.0-8.0-0.8","63ee5d8aaee278de46b7d4cc","650c16f0f2faf8d7a0d14c09","651c1db760516f334f1dfa47","null","null","<p style=""font-size: 60px; font-family: BACS"">rvAJAZbl</p>","","","","","","","","",""
"html-keyboard-response","17","99269","0.0-8.0-0.9","63ee5d8aaee278de46b7d4cc","650c16f0f2faf8d7a0d14c09","651c1db760516f334f1dfa47","null","null","<p style=""font-size: 60px; font-family: BACS"">EMYKmtKP</p>","","","","","","","","",""
"html-keyboard-response","18","100284","0.0-8.0-0.10","63ee5d8aaee278de46b7d4cc","650c16f0f2faf8d7a0d14c09","651c1db760516f334f1dfa47","null","null","<p style=""font-size: 60px; font-family: BACS"">JNkaYLU</p>","","","","","","","","",""
"html-keyboard-response","19","101298","0.0-8.0-0.11","63ee5d8aaee278de46b7d4cc","650c16f0f2faf8d7a0d14c09","651c1db760516f334f1dfa47","null","null","<p style=""font-size: 60px; font-family: BACS"">YlYcCMdP</p>","","","","","","","","",""
"html-keyboard-response","20","102312","0.0-8.0-0.12","63ee5d8aaee278de46b7d4cc","650c16f0f2faf8d7a0d14c09","651c1db760516f334f1dfa47","null","null","<p style=""font-size: 60px; font-family: BACS"">EdBbCmYA</p>","","","","","","","","",""
"html-keyboard-response","21","103328","0.0-8.0-0.13","63ee5d8aaee278de46b7d4cc","650c16f0f2faf8d7a0d14c09","651c1db760516f334f1dfa47","null","null","<p style=""font-size: 60px; font-family: BACS"">rvAJYLU</p>","","","","","","","","",""
"html-keyboard-response","22","104344","0.0-8.0-0.14","63ee5d8aaee278de46b7d4cc","650c16f0f2faf8d7a0d14c09","651c1db760516f334f1dfa47","null","null","<p style=""font-size: 60px; font-family: BACS"">kbmZOrAJu</p>","","","","","","","","",""
"html-keyboard-response","23","105345","0.0-8.0-0.15","63ee5d8aaee278de46b7d4cc","650c16f0f2faf8d7a0d14c09","651c1db760516f334f1dfa47","null","null","<p style=""font-size: 60px; font-family: BACS"">CchtdDbMR</p>","","","","","","","","",""
"html-keyboard-response","24","106347","0.0-8.0-0.16","63ee5d8aaee278de46b7d4cc","650c16f0f2faf8d7a0d14c09","651c1db760516f334f1dfa47","null","null","<p style=""font-size: 60px; font-family: BACS"">ZdlOAZbl</p>","","","","","","","","",""
"html-keyboard-response","25","107348","0.0-8.0-0.17","63ee5d8aaee278de46b7d4cc","650c16f0f2faf8d7a0d14c09","651c1db760516f334f1dfa47","null","null","<p style=""font-size: 60px; font-family: BACS"">chEDODbMR</p>","","","","","","","","",""
"html-keyboard-response","26","108348","0.0-8.0-0.18","63ee5d8aaee278de46b7d4cc","650c16f0f2faf8d7a0d14c09","651c1db760516f334f1dfa47","null","null","<p style=""font-size: 60px; font-family: BACS"">GQrcmLJ</p>","","","","","","","","",""
"html-keyboard-response","27","109351","0.0-8.0-0.19","63ee5d8aaee278de46b7d4cc","650c16f0f2faf8d7a0d14c09","651c1db760516f334f1dfa47","null","null","<p style=""font-size: 60px; font-family: BACS"">YlCPBTAm</p>","","","","","","","","",""
"html-keyboard-response","28","110365","0.0-8.0-0.20","63ee5d8aaee278de46b7d4cc","650c16f0f2faf8d7a0d14c09","651c1db760516f334f1dfa47","null","null","<p style=""font-size: 60px; font-family: BACS"">btlckCMdP</p>","","","","","","","","",""
"html-keyboard-response","29","111381","0.0-8.0-0.21","63ee5d8aaee278de46b7d4cc","650c16f0f2faf8d7a0d14c09","651c1db760516f334f1dfa47","null","null","<p style=""font-size: 60px; font-family: BACS"">kbmZOmLJ</p>","","","","","","","","",""
"html-keyboard-response","30","112382","0.0-8.0-0.22","63ee5d8aaee278de46b7d4cc","650c16f0f2faf8d7a0d14c09","651c1db760516f334f1dfa47","null","null","<p style=""font-size: 60px; font-family: BACS"">EdBbCMdP</p>","","","","","","","","",""
"html-keyboard-response","31","113398","0.0-8.0-0.23","63ee5d8aaee278de46b7d4cc","650c16f0f2faf8d7a0d14c09","651c1db760516f334f1dfa47","null","null","<p style=""font-size: 60px; font-family: BACS"">uauOmLJ</p>","","","","","","","","",""
"html-keyboard-response","32","114399","0.0-8.0-0.24","63ee5d8aaee278de46b7d4cc","650c16f0f2faf8d7a0d14c09","651c1db760516f334f1dfa47","null","null","<p style=""font-size: 60px; font-family: BACS"">KElBCmYA</p>","","","","","","","","",""
"html-keyboard-response","33","115402","0.0-8.0-0.25","63ee5d8aaee278de46b7d4cc","650c16f0f2faf8d7a0d14c09","651c1db760516f334f1dfa47","null","null","<p style=""font-size: 60px; font-family: BACS"">kZUbAZbl</p>","","","","","","","","",""
"html-keyboard-response","34","116406","0.0-8.0-0.26","63ee5d8aaee278de46b7d4cc","650c16f0f2faf8d7a0d14c09","651c1db760516f334f1dfa47","null","null","<p style=""font-size: 60px; font-family: BACS"">krUQmLJ</p>","","","","","","","","",""
"html-keyboard-response","35","117408","0.0-8.0-0.27","63ee5d8aaee278de46b7d4cc","650c16f0f2faf8d7a0d14c09","651c1db760516f334f1dfa47","null","null","<p style=""font-size: 60px; font-family: BACS"">JNkaAZbl</p>","","","","","","","","",""
"html-keyboard-response","36","118409","0.0-8.0-0.28","63ee5d8aaee278de46b7d4cc","650c16f0f2faf8d7a0d14c09","651c1db760516f334f1dfa47","null","null","<p style=""font-size: 60px; font-family: BACS"">KMOcmtKP</p>","","","","","","","","",""
"html-keyboard-response","37","119411","0.0-8.0-0.29","63ee5d8aaee278de46b7d4cc","650c16f0f2faf8d7a0d14c09","651c1db760516f334f1dfa47","null","null","<p style=""font-size: 60px; font-family: BACS"">btlckCmYA</p>","","","","","","","","",""
"html-keyboard-response","38","120412","0.0-8.0-0.30","63ee5d8aaee278de46b7d4cc","650c16f0f2faf8d7a0d14c09","651c1db760516f334f1dfa47","null","null","<p style=""font-size: 60px; font-family: BACS"">CchtdTAm</p>","","","","","","","","",""
"html-keyboard-response","39","121414","0.0-8.0-0.31","63ee5d8aaee278de46b7d4cc","650c16f0f2faf8d7a0d14c09","651c1db760516f334f1dfa47","null","null","<p style=""font-size: 60px; font-family: BACS"">GQrcAZbl</p>","","","","","","","","",""
"html-keyboard-response","40","122417","0.0-8.0-0.32","63ee5d8aaee278de46b7d4cc","650c16f0f2faf8d7a0d14c09","651c1db760516f334f1dfa47","null","null","<p style=""font-size: 60px; font-family: BACS"">ZdlOmLJ</p>","","","","","","","","",""
"html-keyboard-response","41","123431","0.0-8.0-0.33","63ee5d8aaee278de46b7d4cc","650c16f0f2faf8d7a0d14c09","651c1db760516f334f1dfa47","null","null","<p style=""font-size: 60px; font-family: BACS"">chEDOTAm</p>","","","","","","","","",""
"html-keyboard-response","42","124447","0.0-8.0-0.34","63ee5d8aaee278de46b7d4cc","650c16f0f2faf8d7a0d14c09","651c1db760516f334f1dfa47","null","null","<p style=""font-size: 60px; font-family: BACS"">KElBmtKP</p>","","","","","","","","",""
"html-keyboard-response","43","125448","0.0-8.0-0.35","63ee5d8aaee278de46b7d4cc","650c16f0f2faf8d7a0d14c09","651c1db760516f334f1dfa47","null","null","<p style=""font-size: 60px; font-family: BACS"">uvaUrAJu</p>","","","","","","","","",""
"html-keyboard-response","44","126450","0.0-8.0-0.36","63ee5d8aaee278de46b7d4cc","650c16f0f2faf8d7a0d14c09","651c1db760516f334f1dfa47","null","null","<p style=""font-size: 60px; font-family: BACS"">YlYcmtKP</p>","","","","","","","","",""
"html-keyboard-response","45","127465","0.0-8.0-0.37","63ee5d8aaee278de46b7d4cc","650c16f0f2faf8d7a0d14c09","651c1db760516f334f1dfa47","null","null","<p style=""font-size: 60px; font-family: BACS"">btlckDbMR</p>","","","","","","","","",""
"html-keyboard-response","46","128466","0.0-8.0-0.38","63ee5d8aaee278de46b7d4cc","650c16f0f2faf8d7a0d14c09","651c1db760516f334f1dfa47","null","null","<p style=""font-size: 60px; font-family: BACS"">kZUbmLJ</p>","","","","","","","","",""
"html-keyboard-response","47","129467","0.0-8.0-0.39","63ee5d8aaee278de46b7d4cc","650c16f0f2faf8d7a0d14c09","651c1db760516f334f1dfa47","null","null","<p style=""font-size: 60px; font-family: BACS"">ZdlOYLU</p>","","","","","","","","",""
"html-keyboard-response","48","130471","0.0-8.0-0.40","63ee5d8aaee278de46b7d4cc","650c16f0f2faf8d7a0d14c09","651c1db760516f334f1dfa47","null","null","<p style=""font-size: 60px; font-family: BACS"">kZUbrAJu</p>","","","","","","","","",""
"html-keyboard-response","49","131472","0.0-8.0-0.41","63ee5d8aaee278de46b7d4cc","650c16f0f2faf8d7a0d14c09","651c1db760516f334f1dfa47","null","null","<p style=""font-size: 60px; font-family: BACS"">NaJbYLU</p>","","","","","","","","",""
"html-keyboard-response","50","132475","0.0-8.0-0.42","63ee5d8aaee278de46b7d4cc","650c16f0f2faf8d7a0d14c09","651c1db760516f334f1dfa47","null","null","<p style=""font-size: 60px; font-family: BACS"">KElBDbMR</p>","","","","","","","","",""
"html-keyboard-response","51","133478","0.0-8.0-0.43","63ee5d8aaee278de46b7d4cc","650c16f0f2faf8d7a0d14c09","651c1db760516f334f1dfa47","null","null","<p style=""font-size: 60px; font-family: BACS"">JNkamLJ</p>","","","","","","","","",""
"html-keyboard-response","52","134493","0.0-8.0-0.44","63ee5d8aaee278de46b7d4cc","650c16f0f2faf8d7a0d14c09","651c1db760516f334f1dfa47","null","null","<p style=""font-size: 60px; font-family: BACS"">krUQAZbl</p>","","","","","","","","",""
"html-keyboard-response","53","135509","0.0-8.0-0.45","63ee5d8aaee278de46b7d4cc","650c16f0f2faf8d7a0d14c09","651c1db760516f334f1dfa47","null","null","<p style=""font-size: 60px; font-family: BACS"">NaJbmLJ</p>","","","","","","","","",""
"html-keyboard-response","54","136511","0.0-8.0-0.46","63ee5d8aaee278de46b7d4cc","650c16f0f2faf8d7a0d14c09","651c1db760516f334f1dfa47","null","null","<p style=""font-size: 60px; font-family: BACS"">OcYMDbMR</p>","","","","","","","","",""
"html-keyboard-response","55","137526","0.0-8.0-0.47","63ee5d8aaee278de46b7d4cc","650c16f0f2faf8d7a0d14c09","651c1db760516f334f1dfa47","null","null","<p style=""font-size: 60px; font-family: BACS"">chEDOCMdP</p>","","","","","","","","",""
"html-keyboard-response","56","138529","0.0-8.0-0.48","63ee5d8aaee278de46b7d4cc","650c16f0f2faf8d7a0d14c09","651c1db760516f334f1dfa47","null","null","<p style=""font-size: 60px; font-family: BACS"">btlckTAm</p>","","","","","","","","",""
"html-keyboard-response","57","139545","0.0-8.0-0.49","63ee5d8aaee278de46b7d4cc","650c16f0f2faf8d7a0d14c09","651c1db760516f334f1dfa47","null","null","<p style=""font-size: 60px; font-family: BACS"">uauOYLU</p>","","","","","","","","",""
"html-keyboard-response","58","140561","0.0-8.0-0.50","63ee5d8aaee278de46b7d4cc","650c16f0f2faf8d7a0d14c09","651c1db760516f334f1dfa47","null","null","<p style=""font-size: 60px; font-family: BACS"">EMYKTAm</p>","","","","","","","","",""
"html-keyboard-response","59","141577","0.0-8.0-0.51","63ee5d8aaee278de46b7d4cc","650c16f0f2faf8d7a0d14c09","651c1db760516f334f1dfa47","null","null","<p style=""font-size: 60px; font-family: BACS"">GQrckam</p>","","","","","","","","",""
"html-keyboard-response","60","142578","0.0-8.0-0.52","63ee5d8aaee278de46b7d4cc","650c16f0f2faf8d7a0d14c09","651c1db760516f334f1dfa47","null","null","<p style=""font-size: 60px; font-family: BACS"">rvAJrAJu</p>","","","","","","","","",""
"html-keyboard-response","61","143579","0.0-8.0-0.53","63ee5d8aaee278de46b7d4cc","650c16f0f2faf8d7a0d14c09","651c1db760516f334f1dfa47","null","null","<p style=""font-size: 60px; font-family: BACS"">EMYKCMdP</p>","","","","","","","","",""
"html-keyboard-response","62","144595","0.0-8.0-0.54","63ee5d8aaee278de46b7d4cc","650c16f0f2faf8d7a0d14c09","651c1db760516f334f1dfa47","null","null","<p style=""font-size: 60px; font-family: BACS"">CchtdCmYA</p>","","","","","","","","",""
"html-keyboard-response","63","145598","0.0-8.0-0.55","63ee5d8aaee278de46b7d4cc","650c16f0f2faf8d7a0d14c09","651c1db760516f334f1dfa47","null","null","<p style=""font-size: 60px; font-family: BACS"">EdBbDbMR</p>","","","","","","","","",""
"html-keyboard-response","64","146601","0.0-8.0-0.56","63ee5d8aaee278de46b7d4cc","650c16f0f2faf8d7a0d14c09","651c1db760516f334f1dfa47","null","null","<p style=""font-size: 60px; font-family: BACS"">ZdlOrAJu</p>","","","","","","","","",""
"html-keyboard-response","65","147606","0.0-8.0-0.57","63ee5d8aaee278de46b7d4cc","650c16f0f2faf8d7a0d14c09","651c1db760516f334f1dfa47","null","null","<p style=""font-size: 60px; font-family: BACS"">KMOcDbMR</p>","","","","","","","","",""
"html-keyboard-response","66","148609","0.0-8.0-0.58","63ee5d8aaee278de46b7d4cc","650c16f0f2faf8d7a0d14c09","651c1db760516f334f1dfa47","null","null","<p style=""font-size: 60px; font-family: BACS"">JNkakam</p>","","","","","","","","",""
"html-keyboard-response","67","149623","0.0-8.0-0.59","63ee5d8aaee278de46b7d4cc","650c16f0f2faf8d7a0d14c09","651c1db760516f334f1dfa47","null","null","<p style=""font-size: 60px; font-family: BACS"">NaJbrAJu</p>","","","","","","","","",""
"html-keyboard-response","68","150625","0.0-8.0-0.60","63ee5d8aaee278de46b7d4cc","650c16f0f2faf8d7a0d14c09","651c1db760516f334f1dfa47","null","null","<p style=""font-size: 60px; font-family: BACS"">kbmZOkam</p>","","","","","","","","",""
"html-keyboard-response","69","151638","0.0-8.0-0.61","63ee5d8aaee278de46b7d4cc","650c16f0f2faf8d7a0d14c09","651c1db760516f334f1dfa47","null","null","<p style=""font-size: 60px; font-family: BACS"">OcYMTAm</p>","","","","","","","","",""
"html-keyboard-response","70","152641","0.0-8.0-0.62","63ee5d8aaee278de46b7d4cc","650c16f0f2faf8d7a0d14c09","651c1db760516f334f1dfa47","null","null","<p style=""font-size: 60px; font-family: BACS"">uvaUkam</p>","","","","","","","","",""
"html-keyboard-response","71","153655","0.0-8.0-0.63","63ee5d8aaee278de46b7d4cc","650c16f0f2faf8d7a0d14c09","651c1db760516f334f1dfa47","null","null","<p style=""font-size: 60px; font-family: BACS"">chEDOCmYA</p>","","","","","","","","",""
"html-keyboard-response","72","154670","0.0-8.0-0.64","63ee5d8aaee278de46b7d4cc","650c16f0f2faf8d7a0d14c09","651c1db760516f334f1dfa47","null","null","<p style=""font-size: 60px; font-family: BACS"">kZUbYLU</p>","","","","","","","","",""
"html-keyboard-response","73","155672","0.0-8.0-0.65","63ee5d8aaee278de46b7d4cc","650c16f0f2faf8d7a0d14c09","651c1db760516f334f1dfa47","null","null","<p style=""font-size: 60px; font-family: BACS"">YlCPBCMdP</p>","","","","","","","","",""
"html-keyboard-response","74","156673","0.0-8.0-0.66","63ee5d8aaee278de46b7d4cc","650c16f0f2faf8d7a0d14c09","651c1db760516f334f1dfa47","null","null","<p style=""font-size: 60px; font-family: BACS"">GQrcYLU</p>","","","","","","","","",""
"html-keyboard-response","75","157676","0.0-8.0-0.67","63ee5d8aaee278de46b7d4cc","650c16f0f2faf8d7a0d14c09","651c1db760516f334f1dfa47","null","null","<p style=""font-size: 60px; font-family: BACS"">OcYMmtKP</p>","","","","","","","","",""
"html-keyboard-response","76","158678","0.0-8.0-0.68","63ee5d8aaee278de46b7d4cc","650c16f0f2faf8d7a0d14c09","651c1db760516f334f1dfa47","null","null","<p style=""font-size: 60px; font-family: BACS"">KElBCMdP</p>","","","","","","","","",""
"html-keyboard-response","77","159693","0.0-8.0-0.69","63ee5d8aaee278de46b7d4cc","650c16f0f2faf8d7a0d14c09","651c1db760516f334f1dfa47","null","null","<p style=""font-size: 60px; font-family: BACS"">kbmZOAZbl</p>","","","","","","","","",""
"html-keyboard-response","78","160694","0.0-8.0-0.70","63ee5d8aaee278de46b7d4cc","650c16f0f2faf8d7a0d14c09","651c1db760516f334f1dfa47","null","null","<p style=""font-size: 60px; font-family: BACS"">KMOcCmYA</p>","","","","","","","","",""
"html-keyboard-response","79","161695","0.0-8.0-0.71","63ee5d8aaee278de46b7d4cc","650c16f0f2faf8d7a0d14c09","651c1db760516f334f1dfa47","null","null","<p style=""font-size: 60px; font-family: BACS"">YlCPBDbMR</p>","","","","","","","","",""
"html-keyboard-response","80","162698","0.0-8.0-0.72","63ee5d8aaee278de46b7d4cc","650c16f0f2faf8d7a0d14c09","651c1db760516f334f1dfa47","null","null","<p style=""font-size: 60px; font-family: BACS"">krUQrAJu</p>","","","","","","","","",""
"html-keyboard-response","81","163698","0.0-8.0-0.73","63ee5d8aaee278de46b7d4cc","650c16f0f2faf8d7a0d14c09","651c1db760516f334f1dfa47","null","null","<p style=""font-size: 60px; font-family: BACS"">uvaUYLU</p>","","","","","","","","",""
"html-keyboard-response","82","164702","0.0-8.0-0.74","63ee5d8aaee278de46b7d4cc","650c16f0f2faf8d7a0d14c09","651c1db760516f334f1dfa47","null","null","<p style=""font-size: 60px; font-family: BACS"">CchtdmtKP</p>","","","","","","","","",""
"html-keyboard-response","83","165705","0.0-8.0-0.75","63ee5d8aaee278de46b7d4cc","650c16f0f2faf8d7a0d14c09","651c1db760516f334f1dfa47","null","null","<p style=""font-size: 60px; font-family: BACS"">krUQkam</p>","","","","","","","","",""
"html-keyboard-response","84","166706","0.0-8.0-0.76","63ee5d8aaee278de46b7d4cc","650c16f0f2faf8d7a0d14c09","651c1db760516f334f1dfa47","null","null","<p style=""font-size: 60px; font-family: BACS"">YlYcCmYA</p>","","","","","","","","",""
"html-keyboard-response","85","167722","0.0-8.0-0.77","63ee5d8aaee278de46b7d4cc","650c16f0f2faf8d7a0d14c09","651c1db760516f334f1dfa47","null","null","<p style=""font-size: 60px; font-family: BACS"">EdBbmtKP</p>","","","","","","","","",""
"html-keyboard-response","86","168726","0.0-8.0-0.78","63ee5d8aaee278de46b7d4cc","650c16f0f2faf8d7a0d14c09","651c1db760516f334f1dfa47","null","null","<p style=""font-size: 60px; font-family: BACS"">NaJbkam</p>","","","","","","","","",""
"html-keyboard-response","87","169727","0.0-8.0-0.79","63ee5d8aaee278de46b7d4cc","650c16f0f2faf8d7a0d14c09","651c1db760516f334f1dfa47","null","null","<p style=""font-size: 60px; font-family: BACS"">OcYMCMdP</p>","","","","","","","","",""
"html-keyboard-response","88","173655","0.0-9.0","63ee5d8aaee278de46b7d4cc","650c16f0f2faf8d7a0d14c09","651c1db760516f334f1dfa47","3928"," ","<p>Great, you've seen the first block of words. You may now take a short break.</p>
      <p>Press the spacebar when you're ready to continue.</p>","","","","","","","","",""
"html-keyboard-response","89","174669","0.0-10.0-0.0","63ee5d8aaee278de46b7d4cc","650c16f0f2faf8d7a0d14c09","651c1db760516f334f1dfa47","null","null","<p style=""font-size: 60px; font-family: BACS"">NaJbkam</p>","","","","","","","","",""
"html-keyboard-response","90","175670","0.0-10.0-0.1","63ee5d8aaee278de46b7d4cc","650c16f0f2faf8d7a0d14c09","651c1db760516f334f1dfa47","null","null","<p style=""font-size: 60px; font-family: BACS"">kbmZOrAJu</p>","","","","","","","","",""
"html-keyboard-response","91","176685","0.0-10.0-0.2","63ee5d8aaee278de46b7d4cc","650c16f0f2faf8d7a0d14c09","651c1db760516f334f1dfa47","null","null","<p style=""font-size: 60px; font-family: BACS"">YlYcCmYA</p>","","","","","","","","",""
"html-keyboard-response","92","177686","0.0-10.0-0.3","63ee5d8aaee278de46b7d4cc","650c16f0f2faf8d7a0d14c09","651c1db760516f334f1dfa47","null","null","<p style=""font-size: 60px; font-family: BACS"">uvaUAZbl</p>","","","","","","","","",""
"html-keyboard-response","93","178689","0.0-10.0-0.4","63ee5d8aaee278de46b7d4cc","650c16f0f2faf8d7a0d14c09","651c1db760516f334f1dfa47","null","null","<p style=""font-size: 60px; font-family: BACS"">uauOkam</p>","","","","","","","","",""
"html-keyboard-response","94","179704","0.0-10.0-0.5","63ee5d8aaee278de46b7d4cc","650c16f0f2faf8d7a0d14c09","651c1db760516f334f1dfa47","null","null","<p style=""font-size: 60px; font-family: BACS"">KElBCMdP</p>","","","","","","","","",""
"html-keyboard-response","95","180706","0.0-10.0-0.6","63ee5d8aaee278de46b7d4cc","650c16f0f2faf8d7a0d14c09","651c1db760516f334f1dfa47","null","null","<p style=""font-size: 60px; font-family: BACS"">kbmZOkam</p>","","","","","","","","",""
"html-keyboard-response","96","181710","0.0-10.0-0.7","63ee5d8aaee278de46b7d4cc","650c16f0f2faf8d7a0d14c09","651c1db760516f334f1dfa47","null","null","<p style=""font-size: 60px; font-family: BACS"">JNkaAZbl</p>","","","","","","","","",""
"html-keyboard-response","97","182712","0.0-10.0-0.8","63ee5d8aaee278de46b7d4cc","650c16f0f2faf8d7a0d14c09","651c1db760516f334f1dfa47","null","null","<p style=""font-size: 60px; font-family: BACS"">chEDODbMR</p>","","","","","","","","",""
"html-keyboard-response","98","183727","0.0-10.0-0.9","63ee5d8aaee278de46b7d4cc","650c16f0f2faf8d7a0d14c09","651c1db760516f334f1dfa47","null","null","<p style=""font-size: 60px; font-family: BACS"">NaJbrAJu</p>","","","","","","","","",""
"html-keyboard-response","99","184740","0.0-10.0-0.10","63ee5d8aaee278de46b7d4cc","650c16f0f2faf8d7a0d14c09","651c1db760516f334f1dfa47","null","null","<p style=""font-size: 60px; font-family: BACS"">EMYKTAm</p>","","","","","","","","",""
"html-keyboard-response","100","185742","0.0-10.0-0.11","63ee5d8aaee278de46b7d4cc","650c16f0f2faf8d7a0d14c09","651c1db760516f334f1dfa47","null","null","<p style=""font-size: 60px; font-family: BACS"">krUQAZbl</p>","","","","","","","","",""
"html-keyboard-response","101","186757","0.0-10.0-0.12","63ee5d8aaee278de46b7d4cc","650c16f0f2faf8d7a0d14c09","651c1db760516f334f1dfa47","null","null","<p style=""font-size: 60px; font-family: BACS"">KElBDbMR</p>","","","","","","","","",""
"html-keyboard-response","102","187758","0.0-10.0-0.13","63ee5d8aaee278de46b7d4cc","650c16f0f2faf8d7a0d14c09","651c1db760516f334f1dfa47","null","null","<p style=""font-size: 60px; font-family: BACS"">rvAJkam</p>","","","","","","","","",""
"html-keyboard-response","103","188774","0.0-10.0-0.14","63ee5d8aaee278de46b7d4cc","650c16f0f2faf8d7a0d14c09","651c1db760516f334f1dfa47","null","null","<p style=""font-size: 60px; font-family: BACS"">EMYKmtKP</p>","","","","","","","","",""
"html-keyboard-response","104","189776","0.0-10.0-0.15","63ee5d8aaee278de46b7d4cc","650c16f0f2faf8d7a0d14c09","651c1db760516f334f1dfa47","null","null","<p style=""font-size: 60px; font-family: BACS"">btlckCMdP</p>","","","","","","","","",""
"html-keyboard-response","105","190792","0.0-10.0-0.16","63ee5d8aaee278de46b7d4cc","650c16f0f2faf8d7a0d14c09","651c1db760516f334f1dfa47","null","null","<p style=""font-size: 60px; font-family: BACS"">YlYcTAm</p>","","","","","","","","",""
"html-keyboard-response","106","191794","0.0-10.0-0.17","63ee5d8aaee278de46b7d4cc","650c16f0f2faf8d7a0d14c09","651c1db760516f334f1dfa47","null","null","<p style=""font-size: 60px; font-family: BACS"">kZUbmLJ</p>","","","","","","","","",""
"html-keyboard-response","107","192796","0.0-10.0-0.18","63ee5d8aaee278de46b7d4cc","650c16f0f2faf8d7a0d14c09","651c1db760516f334f1dfa47","null","null","<p style=""font-size: 60px; font-family: BACS"">rvAJrAJu</p>","","","","","","","","",""
"html-keyboard-response","108","193811","0.0-10.0-0.19","63ee5d8aaee278de46b7d4cc","650c16f0f2faf8d7a0d14c09","651c1db760516f334f1dfa47","null","null","<p style=""font-size: 60px; font-family: BACS"">KElBmtKP</p>","","","","","","","","",""
"html-keyboard-response","109","194825","0.0-10.0-0.20","63ee5d8aaee278de46b7d4cc","650c16f0f2faf8d7a0d14c09","651c1db760516f334f1dfa47","null","null","<p style=""font-size: 60px; font-family: BACS"">krUQmLJ</p>","","","","","","","","",""
"html-keyboard-response","110","195828","0.0-10.0-0.21","63ee5d8aaee278de46b7d4cc","650c16f0f2faf8d7a0d14c09","651c1db760516f334f1dfa47","null","null","<p style=""font-size: 60px; font-family: BACS"">kZUbAZbl</p>","","","","","","","","",""
"html-keyboard-response","111","196844","0.0-10.0-0.22","63ee5d8aaee278de46b7d4cc","650c16f0f2faf8d7a0d14c09","651c1db760516f334f1dfa47","null","null","<p style=""font-size: 60px; font-family: BACS"">KMOcDbMR</p>","","","","","","","","",""
"html-keyboard-response","112","197848","0.0-10.0-0.23","63ee5d8aaee278de46b7d4cc","650c16f0f2faf8d7a0d14c09","651c1db760516f334f1dfa47","null","null","<p style=""font-size: 60px; font-family: BACS"">JNkaYLU</p>","","","","","","","","",""
"html-keyboard-response","113","198851","0.0-10.0-0.24","63ee5d8aaee278de46b7d4cc","650c16f0f2faf8d7a0d14c09","651c1db760516f334f1dfa47","null","null","<p style=""font-size: 60px; font-family: BACS"">CchtdDbMR</p>","","","","","","","","",""
"html-keyboard-response","114","199864","0.0-10.0-0.25","63ee5d8aaee278de46b7d4cc","650c16f0f2faf8d7a0d14c09","651c1db760516f334f1dfa47","null","null","<p style=""font-size: 60px; font-family: BACS"">chEDOTAm</p>","","","","","","","","",""
"html-keyboard-response","115","200866","0.0-10.0-0.26","63ee5d8aaee278de46b7d4cc","650c16f0f2faf8d7a0d14c09","651c1db760516f334f1dfa47","null","null","<p style=""font-size: 60px; font-family: BACS"">OcYMCMdP</p>","","","","","","","","",""
"html-keyboard-response","116","201867","0.0-10.0-0.27","63ee5d8aaee278de46b7d4cc","650c16f0f2faf8d7a0d14c09","651c1db760516f334f1dfa47","null","null","<p style=""font-size: 60px; font-family: BACS"">KMOcTAm</p>","","","","","","","","",""
"html-keyboard-response","117","202884","0.0-10.0-0.28","63ee5d8aaee278de46b7d4cc","650c16f0f2faf8d7a0d14c09","651c1db760516f334f1dfa47","null","null","<p style=""font-size: 60px; font-family: BACS"">GQrcmLJ</p>","","","","","","","","",""
"html-keyboard-response","118","203900","0.0-10.0-0.29","63ee5d8aaee278de46b7d4cc","650c16f0f2faf8d7a0d14c09","651c1db760516f334f1dfa47","null","null","<p style=""font-size: 60px; font-family: BACS"">uvaUrAJu</p>","","","","","","","","",""
"html-keyboard-response","119","204916","0.0-10.0-0.30","63ee5d8aaee278de46b7d4cc","650c16f0f2faf8d7a0d14c09","651c1db760516f334f1dfa47","null","null","<p style=""font-size: 60px; font-family: BACS"">GQrckam</p>","","","","","","","","",""
"html-keyboard-response","120","205930","0.0-10.0-0.31","63ee5d8aaee278de46b7d4cc","650c16f0f2faf8d7a0d14c09","651c1db760516f334f1dfa47","null","null","<p style=""font-size: 60px; font-family: BACS"">chEDOCMdP</p>","","","","","","","","",""
"html-keyboard-response","121","206944","0.0-10.0-0.32","63ee5d8aaee278de46b7d4cc","650c16f0f2faf8d7a0d14c09","651c1db760516f334f1dfa47","null","null","<p style=""font-size: 60px; font-family: BACS"">YlCPBDbMR</p>","","","","","","","","",""
"html-keyboard-response","122","207946","0.0-10.0-0.33","63ee5d8aaee278de46b7d4cc","650c16f0f2faf8d7a0d14c09","651c1db760516f334f1dfa47","null","null","<p style=""font-size: 60px; font-family: BACS"">KElBCmYA</p>","","","","","","","","",""
"html-keyboard-response","123","208960","0.0-10.0-0.34","63ee5d8aaee278de46b7d4cc","650c16f0f2faf8d7a0d14c09","651c1db760516f334f1dfa47","null","null","<p style=""font-size: 60px; font-family: BACS"">CchtdTAm</p>","","","","","","","","",""
"html-keyboard-response","124","209975","0.0-10.0-0.35","63ee5d8aaee278de46b7d4cc","650c16f0f2faf8d7a0d14c09","651c1db760516f334f1dfa47","null","null","<p style=""font-size: 60px; font-family: BACS"">EdBbCMdP</p>","","","","","","","","",""
"html-keyboard-response","125","210977","0.0-10.0-0.36","63ee5d8aaee278de46b7d4cc","650c16f0f2faf8d7a0d14c09","651c1db760516f334f1dfa47","null","null","<p style=""font-size: 60px; font-family: BACS"">rvAJYLU</p>","","","","","","","","",""
"html-keyboard-response","126","211981","0.0-10.0-0.37","63ee5d8aaee278de46b7d4cc","650c16f0f2faf8d7a0d14c09","651c1db760516f334f1dfa47","null","null","<p style=""font-size: 60px; font-family: BACS"">EMYKCMdP</p>","","","","","","","","",""
"html-keyboard-response","127","212982","0.0-10.0-0.38","63ee5d8aaee278de46b7d4cc","650c16f0f2faf8d7a0d14c09","651c1db760516f334f1dfa47","null","null","<p style=""font-size: 60px; font-family: BACS"">KMOcmtKP</p>","","","","","","","","",""
"html-keyboard-response","128","213984","0.0-10.0-0.39","63ee5d8aaee278de46b7d4cc","650c16f0f2faf8d7a0d14c09","651c1db760516f334f1dfa47","null","null","<p style=""font-size: 60px; font-family: BACS"">JNkamLJ</p>","","","","","","","","",""
"html-keyboard-response","129","214987","0.0-10.0-0.40","63ee5d8aaee278de46b7d4cc","650c16f0f2faf8d7a0d14c09","651c1db760516f334f1dfa47","null","null","<p style=""font-size: 60px; font-family: BACS"">CchtdmtKP</p>","","","","","","","","",""
"html-keyboard-response","130","215988","0.0-10.0-0.41","63ee5d8aaee278de46b7d4cc","650c16f0f2faf8d7a0d14c09","651c1db760516f334f1dfa47","null","null","<p style=""font-size: 60px; font-family: BACS"">uvaUkam</p>","","","","","","","","",""
"html-keyboard-response","131","216990","0.0-10.0-0.42","63ee5d8aaee278de46b7d4cc","650c16f0f2faf8d7a0d14c09","651c1db760516f334f1dfa47","null","null","<p style=""font-size: 60px; font-family: BACS"">rvAJAZbl</p>","","","","","","","","",""
"html-keyboard-response","132","217991","0.0-10.0-0.43","63ee5d8aaee278de46b7d4cc","650c16f0f2faf8d7a0d14c09","651c1db760516f334f1dfa47","null","null","<p style=""font-size: 60px; font-family: BACS"">EdBbDbMR</p>","","","","","","","","",""
"html-keyboard-response","133","219005","0.0-10.0-0.44","63ee5d8aaee278de46b7d4cc","650c16f0f2faf8d7a0d14c09","651c1db760516f334f1dfa47","null","null","<p style=""font-size: 60px; font-family: BACS"">btlckTAm</p>","","","","","","","","",""
"html-keyboard-response","134","220010","0.0-10.0-0.45","63ee5d8aaee278de46b7d4cc","650c16f0f2faf8d7a0d14c09","651c1db760516f334f1dfa47","null","null","<p style=""font-size: 60px; font-family: BACS"">kZUbYLU</p>","","","","","","","","",""
"html-keyboard-response","135","221025","0.0-10.0-0.46","63ee5d8aaee278de46b7d4cc","650c16f0f2faf8d7a0d14c09","651c1db760516f334f1dfa47","null","null","<p style=""font-size: 60px; font-family: BACS"">ZdlOmLJ</p>","","","","","","","","",""
"html-keyboard-response","136","222041","0.0-10.0-0.47","63ee5d8aaee278de46b7d4cc","650c16f0f2faf8d7a0d14c09","651c1db760516f334f1dfa47","null","null","<p style=""font-size: 60px; font-family: BACS"">uvaUYLU</p>","","","","","","","","",""
"html-keyboard-response","137","223043","0.0-10.0-0.48","63ee5d8aaee278de46b7d4cc","650c16f0f2faf8d7a0d14c09","651c1db760516f334f1dfa47","null","null","<p style=""font-size: 60px; font-family: BACS"">kbmZOmLJ</p>","","","","","","","","",""
"html-keyboard-response","138","224058","0.0-10.0-0.49","63ee5d8aaee278de46b7d4cc","650c16f0f2faf8d7a0d14c09","651c1db760516f334f1dfa47","null","null","<p style=""font-size: 60px; font-family: BACS"">krUQkam</p>","","","","","","","","",""
"html-keyboard-response","139","225059","0.0-10.0-0.50","63ee5d8aaee278de46b7d4cc","650c16f0f2faf8d7a0d14c09","651c1db760516f334f1dfa47","null","null","<p style=""font-size: 60px; font-family: BACS"">ZdlOAZbl</p>","","","","","","","","",""
"html-keyboard-response","140","226062","0.0-10.0-0.51","63ee5d8aaee278de46b7d4cc","650c16f0f2faf8d7a0d14c09","651c1db760516f334f1dfa47","null","null","<p style=""font-size: 60px; font-family: BACS"">NaJbmLJ</p>","","","","","","","","",""
"html-keyboard-response","141","227066","0.0-10.0-0.52","63ee5d8aaee278de46b7d4cc","650c16f0f2faf8d7a0d14c09","651c1db760516f334f1dfa47","null","null","<p style=""font-size: 60px; font-family: BACS"">kbmZOAZbl</p>","","","","","","","","",""
"html-keyboard-response","142","228067","0.0-10.0-0.53","63ee5d8aaee278de46b7d4cc","650c16f0f2faf8d7a0d14c09","651c1db760516f334f1dfa47","null","null","<p style=""font-size: 60px; font-family: BACS"">YlCPBCMdP</p>","","","","","","","","",""
"html-keyboard-response","143","229082","0.0-10.0-0.54","63ee5d8aaee278de46b7d4cc","650c16f0f2faf8d7a0d14c09","651c1db760516f334f1dfa47","null","null","<p style=""font-size: 60px; font-family: BACS"">GQrcAZbl</p>","","","","","","","","",""
"html-keyboard-response","144","230085","0.0-10.0-0.55","63ee5d8aaee278de46b7d4cc","650c16f0f2faf8d7a0d14c09","651c1db760516f334f1dfa47","null","null","<p style=""font-size: 60px; font-family: BACS"">EdBbCmYA</p>","","","","","","","","",""
"html-keyboard-response","145","231100","0.0-10.0-0.56","63ee5d8aaee278de46b7d4cc","650c16f0f2faf8d7a0d14c09","651c1db760516f334f1dfa47","null","null","<p style=""font-size: 60px; font-family: BACS"">OcYMmtKP</p>","","","","","","","","",""
"html-keyboard-response","146","232101","0.0-10.0-0.57","63ee5d8aaee278de46b7d4cc","650c16f0f2faf8d7a0d14c09","651c1db760516f334f1dfa47","null","null","<p style=""font-size: 60px; font-family: BACS"">btlckDbMR</p>","","","","","","","","",""
"html-keyboard-response","147","233104","0.0-10.0-0.58","63ee5d8aaee278de46b7d4cc","650c16f0f2faf8d7a0d14c09","651c1db760516f334f1dfa47","null","null","<p style=""font-size: 60px; font-family: BACS"">EdBbmtKP</p>","","","","","","","","",""
"html-keyboard-response","148","234120","0.0-10.0-0.59","63ee5d8aaee278de46b7d4cc","650c16f0f2faf8d7a0d14c09","651c1db760516f334f1dfa47","null","null","<p style=""font-size: 60px; font-family: BACS"">YlCPBTAm</p>","","","","","","","","",""
"html-keyboard-response","149","235122","0.0-10.0-0.60","63ee5d8aaee278de46b7d4cc","650c16f0f2faf8d7a0d14c09","651c1db760516f334f1dfa47","null","null","<p style=""font-size: 60px; font-family: BACS"">kZUbrAJu</p>","","","","","","","","",""
"html-keyboard-response","150","236137","0.0-10.0-0.61","63ee5d8aaee278de46b7d4cc","650c16f0f2faf8d7a0d14c09","651c1db760516f334f1dfa47","null","null","<p style=""font-size: 60px; font-family: BACS"">YlYcCMdP</p>","","","","","","","","",""
"html-keyboard-response","151","237153","0.0-10.0-0.62","63ee5d8aaee278de46b7d4cc","650c16f0f2faf8d7a0d14c09","651c1db760516f334f1dfa47","null","null","<p style=""font-size: 60px; font-family: BACS"">OcYMTAm</p>","","","","","","","","",""
"html-keyboard-response","152","238168","0.0-10.0-0.63","63ee5d8aaee278de46b7d4cc","650c16f0f2faf8d7a0d14c09","651c1db760516f334f1dfa47","null","null","<p style=""font-size: 60px; font-family: BACS"">uauOrAJu</p>","","","","","","","","",""
"html-keyboard-response","153","239169","0.0-10.0-0.64","63ee5d8aaee278de46b7d4cc","650c16f0f2faf8d7a0d14c09","651c1db760516f334f1dfa47","null","null","<p style=""font-size: 60px; font-family: BACS"">YlYcmtKP</p>","","","","","","","","",""
"html-keyboard-response","154","240185","0.0-10.0-0.65","63ee5d8aaee278de46b7d4cc","650c16f0f2faf8d7a0d14c09","651c1db760516f334f1dfa47","null","null","<p style=""font-size: 60px; font-family: BACS"">NaJbYLU</p>","","","","","","","","",""
"html-keyboard-response","155","241187","0.0-10.0-0.66","63ee5d8aaee278de46b7d4cc","650c16f0f2faf8d7a0d14c09","651c1db760516f334f1dfa47","null","null","<p style=""font-size: 60px; font-family: BACS"">ZdlOrAJu</p>","","","","","","","","",""
"html-keyboard-response","156","242190","0.0-10.0-0.67","63ee5d8aaee278de46b7d4cc","650c16f0f2faf8d7a0d14c09","651c1db760516f334f1dfa47","null","null","<p style=""font-size: 60px; font-family: BACS"">JNkakam</p>","","","","","","","","",""
"html-keyboard-response","157","243191","0.0-10.0-0.68","63ee5d8aaee278de46b7d4cc","650c16f0f2faf8d7a0d14c09","651c1db760516f334f1dfa47","null","null","<p style=""font-size: 60px; font-family: BACS"">krUQrAJu</p>","","","","","","","","",""
"html-keyboard-response","158","244191","0.0-10.0-0.69","63ee5d8aaee278de46b7d4cc","650c16f0f2faf8d7a0d14c09","651c1db760516f334f1dfa47","null","null","<p style=""font-size: 60px; font-family: BACS"">CchtdCmYA</p>","","","","","","","","",""
"html-keyboard-response","159","245194","0.0-10.0-0.70","63ee5d8aaee278de46b7d4cc","650c16f0f2faf8d7a0d14c09","651c1db760516f334f1dfa47","null","null","<p style=""font-size: 60px; font-family: BACS"">YlCPBmtKP</p>","","","","","","","","",""
"html-keyboard-response","160","246196","0.0-10.0-0.71","63ee5d8aaee278de46b7d4cc","650c16f0f2faf8d7a0d14c09","651c1db760516f334f1dfa47","null","null","<p style=""font-size: 60px; font-family: BACS"">btlckCmYA</p>","","","","","","","","",""
"html-keyboard-response","161","247199","0.0-10.0-0.72","63ee5d8aaee278de46b7d4cc","650c16f0f2faf8d7a0d14c09","651c1db760516f334f1dfa47","null","null","<p style=""font-size: 60px; font-family: BACS"">ZdlOYLU</p>","","","","","","","","",""
"html-keyboard-response","162","248200","0.0-10.0-0.73","63ee5d8aaee278de46b7d4cc","650c16f0f2faf8d7a0d14c09","651c1db760516f334f1dfa47","null","null","<p style=""font-size: 60px; font-family: BACS"">OcYMDbMR</p>","","","","","","","","",""
"html-keyboard-response","163","249203","0.0-10.0-0.74","63ee5d8aaee278de46b7d4cc","650c16f0f2faf8d7a0d14c09","651c1db760516f334f1dfa47","null","null","<p style=""font-size: 60px; font-family: BACS"">EMYKCmYA</p>","","","","","","","","",""
"html-keyboard-response","164","250206","0.0-10.0-0.75","63ee5d8aaee278de46b7d4cc","650c16f0f2faf8d7a0d14c09","651c1db760516f334f1dfa47","null","null","<p style=""font-size: 60px; font-family: BACS"">GQrcYLU</p>","","","","","","","","",""
"html-keyboard-response","165","251221","0.0-10.0-0.76","63ee5d8aaee278de46b7d4cc","650c16f0f2faf8d7a0d14c09","651c1db760516f334f1dfa47","null","null","<p style=""font-size: 60px; font-family: BACS"">chEDOCmYA</p>","","","","","","","","",""
"html-keyboard-response","166","252223","0.0-10.0-0.77","63ee5d8aaee278de46b7d4cc","650c16f0f2faf8d7a0d14c09","651c1db760516f334f1dfa47","null","null","<p style=""font-size: 60px; font-family: BACS"">uauOYLU</p>","","","","","","","","",""
"html-keyboard-response","167","253225","0.0-10.0-0.78","63ee5d8aaee278de46b7d4cc","650c16f0f2faf8d7a0d14c09","651c1db760516f334f1dfa47","null","null","<p style=""font-size: 60px; font-family: BACS"">KMOcCmYA</p>","","","","","","","","",""
"html-keyboard-response","168","254240","0.0-10.0-0.79","63ee5d8aaee278de46b7d4cc","650c16f0f2faf8d7a0d14c09","651c1db760516f334f1dfa47","null","null","<p style=""font-size: 60px; font-family: BACS"">uauOmLJ</p>","","","","","","","","",""
"html-keyboard-response","169","263695","0.0-11.0","63ee5d8aaee278de46b7d4cc","650c16f0f2faf8d7a0d14c09","651c1db760516f334f1dfa47","9455"," ","<p>Great, you've seen the second block of words. You may now take a short break.</p>
      <p>Press the spacebar when you're ready to continue.</p>","","","","","","","","",""
"html-keyboard-response","170","264707","0.0-12.0-0.0","63ee5d8aaee278de46b7d4cc","650c16f0f2faf8d7a0d14c09","651c1db760516f334f1dfa47","null","null","<p style=""font-size: 60px; font-family: BACS"">btlckTAm</p>","","","","","","","","",""
"html-keyboard-response","171","265709","0.0-12.0-0.1","63ee5d8aaee278de46b7d4cc","650c16f0f2faf8d7a0d14c09","651c1db760516f334f1dfa47","null","null","<p style=""font-size: 60px; font-family: BACS"">YlCPBDbMR</p>","","","","","","","","",""
"html-keyboard-response","172","266710","0.0-12.0-0.2","63ee5d8aaee278de46b7d4cc","650c16f0f2faf8d7a0d14c09","651c1db760516f334f1dfa47","null","null","<p style=""font-size: 60px; font-family: BACS"">kZUbrAJu</p>","","","","","","","","",""
"html-keyboard-response","173","267726","0.0-12.0-0.3","63ee5d8aaee278de46b7d4cc","650c16f0f2faf8d7a0d14c09","651c1db760516f334f1dfa47","null","null","<p style=""font-size: 60px; font-family: BACS"">chEDOCMdP</p>","","","","","","","","",""
"html-keyboard-response","174","268741","0.0-12.0-0.4","63ee5d8aaee278de46b7d4cc","650c16f0f2faf8d7a0d14c09","651c1db760516f334f1dfa47","null","null","<p style=""font-size: 60px; font-family: BACS"">krUQkam</p>","","","","","","","","",""
"html-keyboard-response","175","269744","0.0-12.0-0.5","63ee5d8aaee278de46b7d4cc","650c16f0f2faf8d7a0d14c09","651c1db760516f334f1dfa47","null","null","<p style=""font-size: 60px; font-family: BACS"">YlYcCMdP</p>","","","","","","","","",""
"html-keyboard-response","176","270759","0.0-12.0-0.6","63ee5d8aaee278de46b7d4cc","650c16f0f2faf8d7a0d14c09","651c1db760516f334f1dfa47","null","null","<p style=""font-size: 60px; font-family: BACS"">ZdlOmLJ</p>","","","","","","","","",""
"html-keyboard-response","177","271774","0.0-12.0-0.7","63ee5d8aaee278de46b7d4cc","650c16f0f2faf8d7a0d14c09","651c1db760516f334f1dfa47","null","null","<p style=""font-size: 60px; font-family: BACS"">EdBbCmYA</p>","","","","","","","","",""
"html-keyboard-response","178","272791","0.0-12.0-0.8","63ee5d8aaee278de46b7d4cc","650c16f0f2faf8d7a0d14c09","651c1db760516f334f1dfa47","null","null","<p style=""font-size: 60px; font-family: BACS"">ZdlOYLU</p>","","","","","","","","",""
"html-keyboard-response","179","273792","0.0-12.0-0.9","63ee5d8aaee278de46b7d4cc","650c16f0f2faf8d7a0d14c09","651c1db760516f334f1dfa47","null","null","<p style=""font-size: 60px; font-family: BACS"">KMOcCmYA</p>","","","","","","","","",""
"html-keyboard-response","180","274807","0.0-12.0-0.10","63ee5d8aaee278de46b7d4cc","650c16f0f2faf8d7a0d14c09","651c1db760516f334f1dfa47","null","null","<p style=""font-size: 60px; font-family: BACS"">GQrcYLU</p>","","","","","","","","",""
"html-keyboard-response","181","275809","0.0-12.0-0.11","63ee5d8aaee278de46b7d4cc","650c16f0f2faf8d7a0d14c09","651c1db760516f334f1dfa47","null","null","<p style=""font-size: 60px; font-family: BACS"">kbmZOAZbl</p>","","","","","","","","",""
"html-keyboard-response","182","276823","0.0-12.0-0.12","63ee5d8aaee278de46b7d4cc","650c16f0f2faf8d7a0d14c09","651c1db760516f334f1dfa47","null","null","<p style=""font-size: 60px; font-family: BACS"">krUQmLJ</p>","","","","","","","","",""
"html-keyboard-response","183","277826","0.0-12.0-0.13","63ee5d8aaee278de46b7d4cc","650c16f0f2faf8d7a0d14c09","651c1db760516f334f1dfa47","null","null","<p style=""font-size: 60px; font-family: BACS"">YlCPBCMdP</p>","","","","","","","","",""
"html-keyboard-response","184","278829","0.0-12.0-0.14","63ee5d8aaee278de46b7d4cc","650c16f0f2faf8d7a0d14c09","651c1db760516f334f1dfa47","null","null","<p style=""font-size: 60px; font-family: BACS"">kbmZOkam</p>","","","","","","","","",""
"html-keyboard-response","185","279831","0.0-12.0-0.15","63ee5d8aaee278de46b7d4cc","650c16f0f2faf8d7a0d14c09","651c1db760516f334f1dfa47","null","null","<p style=""font-size: 60px; font-family: BACS"">CchtdmtKP</p>","","","","","","","","",""
"html-keyboard-response","186","280832","0.0-12.0-0.16","63ee5d8aaee278de46b7d4cc","650c16f0f2faf8d7a0d14c09","651c1db760516f334f1dfa47","null","null","<p style=""font-size: 60px; font-family: BACS"">GQrckam</p>","","","","","","","","",""
"html-keyboard-response","187","281848","0.0-12.0-0.17","63ee5d8aaee278de46b7d4cc","650c16f0f2faf8d7a0d14c09","651c1db760516f334f1dfa47","null","null","<p style=""font-size: 60px; font-family: BACS"">kZUbAZbl</p>","","","","","","","","",""
"html-keyboard-response","188","282851","0.0-12.0-0.18","63ee5d8aaee278de46b7d4cc","650c16f0f2faf8d7a0d14c09","651c1db760516f334f1dfa47","null","null","<p style=""font-size: 60px; font-family: BACS"">OcYMmtKP</p>","","","","","","","","",""
"html-keyboard-response","189","283866","0.0-12.0-0.19","63ee5d8aaee278de46b7d4cc","650c16f0f2faf8d7a0d14c09","651c1db760516f334f1dfa47","null","null","<p style=""font-size: 60px; font-family: BACS"">CchtdTAm</p>","","","","","","","","",""
"html-keyboard-response","190","284868","0.0-12.0-0.20","63ee5d8aaee278de46b7d4cc","650c16f0f2faf8d7a0d14c09","651c1db760516f334f1dfa47","null","null","<p style=""font-size: 60px; font-family: BACS"">ZdlOrAJu</p>","","","","","","","","",""
"html-keyboard-response","191","285870","0.0-12.0-0.21","63ee5d8aaee278de46b7d4cc","650c16f0f2faf8d7a0d14c09","651c1db760516f334f1dfa47","null","null","<p style=""font-size: 60px; font-family: BACS"">OcYMCMdP</p>","","","","","","","","",""
"html-keyboard-response","192","286885","0.0-12.0-0.22","63ee5d8aaee278de46b7d4cc","650c16f0f2faf8d7a0d14c09","651c1db760516f334f1dfa47","null","null","<p style=""font-size: 60px; font-family: BACS"">KElBDbMR</p>","","","","","","","","",""
"html-keyboard-response","193","287887","0.0-12.0-0.23","63ee5d8aaee278de46b7d4cc","650c16f0f2faf8d7a0d14c09","651c1db760516f334f1dfa47","null","null","<p style=""font-size: 60px; font-family: BACS"">EMYKCMdP</p>","","","","","","","","",""
"html-keyboard-response","194","288902","0.0-12.0-0.24","63ee5d8aaee278de46b7d4cc","650c16f0f2faf8d7a0d14c09","651c1db760516f334f1dfa47","null","null","<p style=""font-size: 60px; font-family: BACS"">rvAJkam</p>","","","","","","","","",""
"html-keyboard-response","195","289919","0.0-12.0-0.25","63ee5d8aaee278de46b7d4cc","650c16f0f2faf8d7a0d14c09","651c1db760516f334f1dfa47","null","null","<p style=""font-size: 60px; font-family: BACS"">CchtdDbMR</p>","","","","","","","","",""
"html-keyboard-response","196","290919","0.0-12.0-0.26","63ee5d8aaee278de46b7d4cc","650c16f0f2faf8d7a0d14c09","651c1db760516f334f1dfa47","null","null","<p style=""font-size: 60px; font-family: BACS"">KElBCmYA</p>","","","","","","","","",""
"html-keyboard-response","197","291923","0.0-12.0-0.27","63ee5d8aaee278de46b7d4cc","650c16f0f2faf8d7a0d14c09","651c1db760516f334f1dfa47","null","null","<p style=""font-size: 60px; font-family: BACS"">rvAJAZbl</p>","","","","","","","","",""
"html-keyboard-response","198","292939","0.0-12.0-0.28","63ee5d8aaee278de46b7d4cc","650c16f0f2faf8d7a0d14c09","651c1db760516f334f1dfa47","null","null","<p style=""font-size: 60px; font-family: BACS"">btlckCmYA</p>","","","","","","","","",""
"html-keyboard-response","199","293940","0.0-12.0-0.29","63ee5d8aaee278de46b7d4cc","650c16f0f2faf8d7a0d14c09","651c1db760516f334f1dfa47","null","null","<p style=""font-size: 60px; font-family: BACS"">kbmZOmLJ</p>","","","","","","","","",""
"html-keyboard-response","200","294955","0.0-12.0-0.30","63ee5d8aaee278de46b7d4cc","650c16f0f2faf8d7a0d14c09","651c1db760516f334f1dfa47","null","null","<p style=""font-size: 60px; font-family: BACS"">krUQrAJu</p>","","","","","","","","",""
"html-keyboard-response","201","295959","0.0-12.0-0.31","63ee5d8aaee278de46b7d4cc","650c16f0f2faf8d7a0d14c09","651c1db760516f334f1dfa47","null","null","<p style=""font-size: 60px; font-family: BACS"">KElBCMdP</p>","","","","","","","","",""
"html-keyboard-response","202","296974","0.0-12.0-0.32","63ee5d8aaee278de46b7d4cc","650c16f0f2faf8d7a0d14c09","651c1db760516f334f1dfa47","null","null","<p style=""font-size: 60px; font-family: BACS"">kZUbmLJ</p>","","","","","","","","",""
"html-keyboard-response","203","297976","0.0-12.0-0.33","63ee5d8aaee278de46b7d4cc","650c16f0f2faf8d7a0d14c09","651c1db760516f334f1dfa47","null","null","<p style=""font-size: 60px; font-family: BACS"">OcYMTAm</p>","","","","","","","","",""
"html-keyboard-response","204","298979","0.0-12.0-0.34","63ee5d8aaee278de46b7d4cc","650c16f0f2faf8d7a0d14c09","651c1db760516f334f1dfa47","null","null","<p style=""font-size: 60px; font-family: BACS"">kbmZOrAJu</p>","","","","","","","","",""
"html-keyboard-response","205","299981","0.0-12.0-0.35","63ee5d8aaee278de46b7d4cc","650c16f0f2faf8d7a0d14c09","651c1db760516f334f1dfa47","null","null","<p style=""font-size: 60px; font-family: BACS"">EMYKTAm</p>","","","","","","","","",""
"html-keyboard-response","206","300997","0.0-12.0-0.36","63ee5d8aaee278de46b7d4cc","650c16f0f2faf8d7a0d14c09","651c1db760516f334f1dfa47","null","null","<p style=""font-size: 60px; font-family: BACS"">rvAJYLU</p>","","","","","","","","",""
"html-keyboard-response","207","302000","0.0-12.0-0.37","63ee5d8aaee278de46b7d4cc","650c16f0f2faf8d7a0d14c09","651c1db760516f334f1dfa47","null","null","<p style=""font-size: 60px; font-family: BACS"">btlckCMdP</p>","","","","","","","","",""
"html-keyboard-response","208","303002","0.0-12.0-0.38","63ee5d8aaee278de46b7d4cc","650c16f0f2faf8d7a0d14c09","651c1db760516f334f1dfa47","null","null","<p style=""font-size: 60px; font-family: BACS"">uvaUkam</p>","","","","","","","","",""
"html-keyboard-response","209","304005","0.0-12.0-0.39","63ee5d8aaee278de46b7d4cc","650c16f0f2faf8d7a0d14c09","651c1db760516f334f1dfa47","null","null","<p style=""font-size: 60px; font-family: BACS"">EdBbDbMR</p>","","","","","","","","",""
"html-keyboard-response","210","305020","0.0-12.0-0.40","63ee5d8aaee278de46b7d4cc","650c16f0f2faf8d7a0d14c09","651c1db760516f334f1dfa47","null","null","<p style=""font-size: 60px; font-family: BACS"">EMYKCmYA</p>","","","","","","","","",""
"html-keyboard-response","211","306021","0.0-12.0-0.41","63ee5d8aaee278de46b7d4cc","650c16f0f2faf8d7a0d14c09","651c1db760516f334f1dfa47","null","null","<p style=""font-size: 60px; font-family: BACS"">JNkamLJ</p>","","","","","","","","",""
"html-keyboard-response","212","307023","0.0-12.0-0.42","63ee5d8aaee278de46b7d4cc","650c16f0f2faf8d7a0d14c09","651c1db760516f334f1dfa47","null","null","<p style=""font-size: 60px; font-family: BACS"">uauOrAJu</p>","","","","","","","","",""
"html-keyboard-response","213","308038","0.0-12.0-0.43","63ee5d8aaee278de46b7d4cc","650c16f0f2faf8d7a0d14c09","651c1db760516f334f1dfa47","null","null","<p style=""font-size: 60px; font-family: BACS"">krUQAZbl</p>","","","","","","","","",""
"html-keyboard-response","214","309054","0.0-12.0-0.44","63ee5d8aaee278de46b7d4cc","650c16f0f2faf8d7a0d14c09","651c1db760516f334f1dfa47","null","null","<p style=""font-size: 60px; font-family: BACS"">uvaUYLU</p>","","","","","","","","",""
"html-keyboard-response","215","310056","0.0-12.0-0.45","63ee5d8aaee278de46b7d4cc","650c16f0f2faf8d7a0d14c09","651c1db760516f334f1dfa47","null","null","<p style=""font-size: 60px; font-family: BACS"">GQrcAZbl</p>","","","","","","","","",""
"html-keyboard-response","216","311072","0.0-12.0-0.46","63ee5d8aaee278de46b7d4cc","650c16f0f2faf8d7a0d14c09","651c1db760516f334f1dfa47","null","null","<p style=""font-size: 60px; font-family: BACS"">YlCPBTAm</p>","","","","","","","","",""
"html-keyboard-response","217","312076","0.0-12.0-0.47","63ee5d8aaee278de46b7d4cc","650c16f0f2faf8d7a0d14c09","651c1db760516f334f1dfa47","null","null","<p style=""font-size: 60px; font-family: BACS"">JNkaAZbl</p>","","","","","","","","",""
"html-keyboard-response","218","313077","0.0-12.0-0.48","63ee5d8aaee278de46b7d4cc","650c16f0f2faf8d7a0d14c09","651c1db760516f334f1dfa47","null","null","<p style=""font-size: 60px; font-family: BACS"">NaJbYLU</p>","","","","","","","","",""
"html-keyboard-response","219","314078","0.0-12.0-0.49","63ee5d8aaee278de46b7d4cc","650c16f0f2faf8d7a0d14c09","651c1db760516f334f1dfa47","null","null","<p style=""font-size: 60px; font-family: BACS"">OcYMDbMR</p>","","","","","","","","",""
"html-keyboard-response","220","315081","0.0-12.0-0.50","63ee5d8aaee278de46b7d4cc","650c16f0f2faf8d7a0d14c09","651c1db760516f334f1dfa47","null","null","<p style=""font-size: 60px; font-family: BACS"">uvaUrAJu</p>","","","","","","","","",""
"html-keyboard-response","221","316086","0.0-12.0-0.51","63ee5d8aaee278de46b7d4cc","650c16f0f2faf8d7a0d14c09","651c1db760516f334f1dfa47","null","null","<p style=""font-size: 60px; font-family: BACS"">ZdlOAZbl</p>","","","","","","","","",""
"html-keyboard-response","222","317087","0.0-12.0-0.52","63ee5d8aaee278de46b7d4cc","650c16f0f2faf8d7a0d14c09","651c1db760516f334f1dfa47","null","null","<p style=""font-size: 60px; font-family: BACS"">EdBbCMdP</p>","","","","","","","","",""
"html-keyboard-response","223","318090","0.0-12.0-0.53","63ee5d8aaee278de46b7d4cc","650c16f0f2faf8d7a0d14c09","651c1db760516f334f1dfa47","null","null","<p style=""font-size: 60px; font-family: BACS"">CchtdCmYA</p>","","","","","","","","",""
"html-keyboard-response","224","319094","0.0-12.0-0.54","63ee5d8aaee278de46b7d4cc","650c16f0f2faf8d7a0d14c09","651c1db760516f334f1dfa47","null","null","<p style=""font-size: 60px; font-family: BACS"">uvaUAZbl</p>","","","","","","","","",""
"html-keyboard-response","225","320097","0.0-12.0-0.55","63ee5d8aaee278de46b7d4cc","650c16f0f2faf8d7a0d14c09","651c1db760516f334f1dfa47","null","null","<p style=""font-size: 60px; font-family: BACS"">NaJbmLJ</p>","","","","","","","","",""
"html-keyboard-response","226","321103","0.0-12.0-0.56","63ee5d8aaee278de46b7d4cc","650c16f0f2faf8d7a0d14c09","651c1db760516f334f1dfa47","null","null","<p style=""font-size: 60px; font-family: BACS"">btlckDbMR</p>","","","","","","","","",""
"html-keyboard-response","227","322104","0.0-12.0-0.57","63ee5d8aaee278de46b7d4cc","650c16f0f2faf8d7a0d14c09","651c1db760516f334f1dfa47","null","null","<p style=""font-size: 60px; font-family: BACS"">chEDOCmYA</p>","","","","","","","","",""
"html-keyboard-response","228","323105","0.0-12.0-0.58","63ee5d8aaee278de46b7d4cc","650c16f0f2faf8d7a0d14c09","651c1db760516f334f1dfa47","null","null","<p style=""font-size: 60px; font-family: BACS"">uauOkam</p>","","","","","","","","",""
"html-keyboard-response","229","324111","0.0-12.0-0.59","63ee5d8aaee278de46b7d4cc","650c16f0f2faf8d7a0d14c09","651c1db760516f334f1dfa47","null","null","<p style=""font-size: 60px; font-family: BACS"">KMOcTAm</p>","","","","","","","","",""
"html-keyboard-response","230","325115","0.0-12.0-0.60","63ee5d8aaee278de46b7d4cc","650c16f0f2faf8d7a0d14c09","651c1db760516f334f1dfa47","null","null","<p style=""font-size: 60px; font-family: BACS"">NaJbkam</p>","","","","","","","","",""
"html-keyboard-response","231","326121","0.0-12.0-0.61","63ee5d8aaee278de46b7d4cc","650c16f0f2faf8d7a0d14c09","651c1db760516f334f1dfa47","null","null","<p style=""font-size: 60px; font-family: BACS"">YlYcmtKP</p>","","","","","","","","",""
"html-keyboard-response","232","327125","0.0-12.0-0.62","63ee5d8aaee278de46b7d4cc","650c16f0f2faf8d7a0d14c09","651c1db760516f334f1dfa47","null","null","<p style=""font-size: 60px; font-family: BACS"">JNkakam</p>","","","","","","","","",""
"html-keyboard-response","233","328129","0.0-12.0-0.63","63ee5d8aaee278de46b7d4cc","650c16f0f2faf8d7a0d14c09","651c1db760516f334f1dfa47","null","null","<p style=""font-size: 60px; font-family: BACS"">YlYcTAm</p>","","","","","","","","",""
"html-keyboard-response","234","329133","0.0-12.0-0.64","63ee5d8aaee278de46b7d4cc","650c16f0f2faf8d7a0d14c09","651c1db760516f334f1dfa47","null","null","<p style=""font-size: 60px; font-family: BACS"">EMYKmtKP</p>","","","","","","","","",""
"html-keyboard-response","235","330135","0.0-12.0-0.65","63ee5d8aaee278de46b7d4cc","650c16f0f2faf8d7a0d14c09","651c1db760516f334f1dfa47","null","null","<p style=""font-size: 60px; font-family: BACS"">JNkaYLU</p>","","","","","","","","",""
"html-keyboard-response","236","331140","0.0-12.0-0.66","63ee5d8aaee278de46b7d4cc","650c16f0f2faf8d7a0d14c09","651c1db760516f334f1dfa47","null","null","<p style=""font-size: 60px; font-family: BACS"">GQrcmLJ</p>","","","","","","","","",""
"html-keyboard-response","237","332143","0.0-12.0-0.67","63ee5d8aaee278de46b7d4cc","650c16f0f2faf8d7a0d14c09","651c1db760516f334f1dfa47","null","null","<p style=""font-size: 60px; font-family: BACS"">YlYcCmYA</p>","","","","","","","","",""
"html-keyboard-response","238","333146","0.0-12.0-0.68","63ee5d8aaee278de46b7d4cc","650c16f0f2faf8d7a0d14c09","651c1db760516f334f1dfa47","null","null","<p style=""font-size: 60px; font-family: BACS"">rvAJrAJu</p>","","","","","","","","",""
"html-keyboard-response","239","334151","0.0-12.0-0.69","63ee5d8aaee278de46b7d4cc","650c16f0f2faf8d7a0d14c09","651c1db760516f334f1dfa47","null","null","<p style=""font-size: 60px; font-family: BACS"">KElBmtKP</p>","","","","","","","","",""
"html-keyboard-response","240","335154","0.0-12.0-0.70","63ee5d8aaee278de46b7d4cc","650c16f0f2faf8d7a0d14c09","651c1db760516f334f1dfa47","null","null","<p style=""font-size: 60px; font-family: BACS"">chEDODbMR</p>","","","","","","","","",""
"html-keyboard-response","241","336157","0.0-12.0-0.71","63ee5d8aaee278de46b7d4cc","650c16f0f2faf8d7a0d14c09","651c1db760516f334f1dfa47","null","null","<p style=""font-size: 60px; font-family: BACS"">NaJbrAJu</p>","","","","","","","","",""
"html-keyboard-response","242","337170","0.0-12.0-0.72","63ee5d8aaee278de46b7d4cc","650c16f0f2faf8d7a0d14c09","651c1db760516f334f1dfa47","null","null","<p style=""font-size: 60px; font-family: BACS"">KMOcmtKP</p>","","","","","","","","",""
"html-keyboard-response","243","338171","0.0-12.0-0.73","63ee5d8aaee278de46b7d4cc","650c16f0f2faf8d7a0d14c09","651c1db760516f334f1dfa47","null","null","<p style=""font-size: 60px; font-family: BACS"">kZUbYLU</p>","","","","","","","","",""
"html-keyboard-response","244","339172","0.0-12.0-0.74","63ee5d8aaee278de46b7d4cc","650c16f0f2faf8d7a0d14c09","651c1db760516f334f1dfa47","null","null","<p style=""font-size: 60px; font-family: BACS"">chEDOTAm</p>","","","","","","","","",""
"html-keyboard-response","245","340173","0.0-12.0-0.75","63ee5d8aaee278de46b7d4cc","650c16f0f2faf8d7a0d14c09","651c1db760516f334f1dfa47","null","null","<p style=""font-size: 60px; font-family: BACS"">uauOmLJ</p>","","","","","","","","",""
"html-keyboard-response","246","341175","0.0-12.0-0.76","63ee5d8aaee278de46b7d4cc","650c16f0f2faf8d7a0d14c09","651c1db760516f334f1dfa47","null","null","<p style=""font-size: 60px; font-family: BACS"">YlCPBmtKP</p>","","","","","","","","",""
"html-keyboard-response","247","342177","0.0-12.0-0.77","63ee5d8aaee278de46b7d4cc","650c16f0f2faf8d7a0d14c09","651c1db760516f334f1dfa47","null","null","<p style=""font-size: 60px; font-family: BACS"">KMOcDbMR</p>","","","","","","","","",""
"html-keyboard-response","248","343178","0.0-12.0-0.78","63ee5d8aaee278de46b7d4cc","650c16f0f2faf8d7a0d14c09","651c1db760516f334f1dfa47","null","null","<p style=""font-size: 60px; font-family: BACS"">uauOYLU</p>","","","","","","","","",""
"html-keyboard-response","249","344181","0.0-12.0-0.79","63ee5d8aaee278de46b7d4cc","650c16f0f2faf8d7a0d14c09","651c1db760516f334f1dfa47","null","null","<p style=""font-size: 60px; font-family: BACS"">EdBbmtKP</p>","","","","","","","","",""
"html-keyboard-response","250","365099","0.0-13.0","63ee5d8aaee278de46b7d4cc","650c16f0f2faf8d7a0d14c09","651c1db760516f334f1dfa47","20918"," ","<p>Great, you've seen the third block of words. You may now take a short break.</p>
      <p>Press the spacebar when you're ready to continue.</p>","","","","","","","","",""
"html-keyboard-response","251","366107","0.0-14.0-0.0","63ee5d8aaee278de46b7d4cc","650c16f0f2faf8d7a0d14c09","651c1db760516f334f1dfa47","null","null","<p style=""font-size: 60px; font-family: BACS"">CchtdmtKP</p>","","","","","","","","",""
"html-keyboard-response","252","367110","0.0-14.0-0.1","63ee5d8aaee278de46b7d4cc","650c16f0f2faf8d7a0d14c09","651c1db760516f334f1dfa47","null","null","<p style=""font-size: 60px; font-family: BACS"">btlckDbMR</p>","","","","","","","","",""
"html-keyboard-response","253","368112","0.0-14.0-0.2","63ee5d8aaee278de46b7d4cc","650c16f0f2faf8d7a0d14c09","651c1db760516f334f1dfa47","null","null","<p style=""font-size: 60px; font-family: BACS"">chEDOTAm</p>","","","","","","","","",""
"html-keyboard-response","254","369113","0.0-14.0-0.3","63ee5d8aaee278de46b7d4cc","650c16f0f2faf8d7a0d14c09","651c1db760516f334f1dfa47","null","null","<p style=""font-size: 60px; font-family: BACS"">EMYKCmYA</p>","","","","","","","","",""
"html-keyboard-response","255","370116","0.0-14.0-0.4","63ee5d8aaee278de46b7d4cc","650c16f0f2faf8d7a0d14c09","651c1db760516f334f1dfa47","null","null","<p style=""font-size: 60px; font-family: BACS"">krUQmLJ</p>","","","","","","","","",""
"html-keyboard-response","256","371118","0.0-14.0-0.5","63ee5d8aaee278de46b7d4cc","650c16f0f2faf8d7a0d14c09","651c1db760516f334f1dfa47","null","null","<p style=""font-size: 60px; font-family: BACS"">kbmZOAZbl</p>","","","","","","","","",""
"html-keyboard-response","257","372119","0.0-14.0-0.6","63ee5d8aaee278de46b7d4cc","650c16f0f2faf8d7a0d14c09","651c1db760516f334f1dfa47","null","null","<p style=""font-size: 60px; font-family: BACS"">OcYMDbMR</p>","","","","","","","","",""
"html-keyboard-response","258","373135","0.0-14.0-0.7","63ee5d8aaee278de46b7d4cc","650c16f0f2faf8d7a0d14c09","651c1db760516f334f1dfa47","null","null","<p style=""font-size: 60px; font-family: BACS"">ZdlOYLU</p>","","","","","","","","",""
"html-keyboard-response","259","374150","0.0-14.0-0.8","63ee5d8aaee278de46b7d4cc","650c16f0f2faf8d7a0d14c09","651c1db760516f334f1dfa47","null","null","<p style=""font-size: 60px; font-family: BACS"">GQrcAZbl</p>","","","","","","","","",""
"html-keyboard-response","260","375153","0.0-14.0-0.9","63ee5d8aaee278de46b7d4cc","650c16f0f2faf8d7a0d14c09","651c1db760516f334f1dfa47","null","null","<p style=""font-size: 60px; font-family: BACS"">OcYMCMdP</p>","","","","","","","","",""
"html-keyboard-response","261","376154","0.0-14.0-0.10","63ee5d8aaee278de46b7d4cc","650c16f0f2faf8d7a0d14c09","651c1db760516f334f1dfa47","null","null","<p style=""font-size: 60px; font-family: BACS"">YlCPBmtKP</p>","","","","","","","","",""
"html-keyboard-response","262","377156","0.0-14.0-0.11","63ee5d8aaee278de46b7d4cc","650c16f0f2faf8d7a0d14c09","651c1db760516f334f1dfa47","null","null","<p style=""font-size: 60px; font-family: BACS"">chEDODbMR</p>","","","","","","","","",""
"html-keyboard-response","263","378159","0.0-14.0-0.12","63ee5d8aaee278de46b7d4cc","650c16f0f2faf8d7a0d14c09","651c1db760516f334f1dfa47","null","null","<p style=""font-size: 60px; font-family: BACS"">kZUbrAJu</p>","","","","","","","","",""
"html-keyboard-response","264","379173","0.0-14.0-0.13","63ee5d8aaee278de46b7d4cc","650c16f0f2faf8d7a0d14c09","651c1db760516f334f1dfa47","null","null","<p style=""font-size: 60px; font-family: BACS"">EdBbmtKP</p>","","","","","","","","",""
"html-keyboard-response","265","380176","0.0-14.0-0.14","63ee5d8aaee278de46b7d4cc","650c16f0f2faf8d7a0d14c09","651c1db760516f334f1dfa47","null","null","<p style=""font-size: 60px; font-family: BACS"">kbmZOrAJu</p>","","","","","","","","",""
"html-keyboard-response","266","381177","0.0-14.0-0.15","63ee5d8aaee278de46b7d4cc","650c16f0f2faf8d7a0d14c09","651c1db760516f334f1dfa47","null","null","<p style=""font-size: 60px; font-family: BACS"">YlYcmtKP</p>","","","","","","","","",""
"html-keyboard-response","267","382193","0.0-14.0-0.16","63ee5d8aaee278de46b7d4cc","650c16f0f2faf8d7a0d14c09","651c1db760516f334f1dfa47","null","null","<p style=""font-size: 60px; font-family: BACS"">ZdlOrAJu</p>","","","","","","","","",""
"html-keyboard-response","268","383194","0.0-14.0-0.17","63ee5d8aaee278de46b7d4cc","650c16f0f2faf8d7a0d14c09","651c1db760516f334f1dfa47","null","null","<p style=""font-size: 60px; font-family: BACS"">kZUbmLJ</p>","","","","","","","","",""
"html-keyboard-response","269","384209","0.0-14.0-0.18","63ee5d8aaee278de46b7d4cc","650c16f0f2faf8d7a0d14c09","651c1db760516f334f1dfa47","null","null","<p style=""font-size: 60px; font-family: BACS"">CchtdTAm</p>","","","","","","","","",""
"html-keyboard-response","270","385210","0.0-14.0-0.19","63ee5d8aaee278de46b7d4cc","650c16f0f2faf8d7a0d14c09","651c1db760516f334f1dfa47","null","null","<p style=""font-size: 60px; font-family: BACS"">KElBDbMR</p>","","","","","","","","",""
"html-keyboard-response","271","386212","0.0-14.0-0.20","63ee5d8aaee278de46b7d4cc","650c16f0f2faf8d7a0d14c09","651c1db760516f334f1dfa47","null","null","<p style=""font-size: 60px; font-family: BACS"">uvaUAZbl</p>","","","","","","","","",""
"html-keyboard-response","272","387215","0.0-14.0-0.21","63ee5d8aaee278de46b7d4cc","650c16f0f2faf8d7a0d14c09","651c1db760516f334f1dfa47","null","null","<p style=""font-size: 60px; font-family: BACS"">KMOcCmYA</p>","","","","","","","","",""
"html-keyboard-response","273","388217","0.0-14.0-0.22","63ee5d8aaee278de46b7d4cc","650c16f0f2faf8d7a0d14c09","651c1db760516f334f1dfa47","null","null","<p style=""font-size: 60px; font-family: BACS"">JNkaAZbl</p>","","","","","","","","",""
"html-keyboard-response","274","389219","0.0-14.0-0.23","63ee5d8aaee278de46b7d4cc","650c16f0f2faf8d7a0d14c09","651c1db760516f334f1dfa47","null","null","<p style=""font-size: 60px; font-family: BACS"">KElBCmYA</p>","","","","","","","","",""
"html-keyboard-response","275","390234","0.0-14.0-0.24","63ee5d8aaee278de46b7d4cc","650c16f0f2faf8d7a0d14c09","651c1db760516f334f1dfa47","null","null","<p style=""font-size: 60px; font-family: BACS"">JNkaYLU</p>","","","","","","","","",""
"html-keyboard-response","276","391235","0.0-14.0-0.25","63ee5d8aaee278de46b7d4cc","650c16f0f2faf8d7a0d14c09","651c1db760516f334f1dfa47","null","null","<p style=""font-size: 60px; font-family: BACS"">YlCPBDbMR</p>","","","","","","","","",""
"html-keyboard-response","277","392236","0.0-14.0-0.26","63ee5d8aaee278de46b7d4cc","650c16f0f2faf8d7a0d14c09","651c1db760516f334f1dfa47","null","null","<p style=""font-size: 60px; font-family: BACS"">krUQrAJu</p>","","","","","","","","",""
"html-keyboard-response","278","393252","0.0-14.0-0.27","63ee5d8aaee278de46b7d4cc","650c16f0f2faf8d7a0d14c09","651c1db760516f334f1dfa47","null","null","<p style=""font-size: 60px; font-family: BACS"">EMYKmtKP</p>","","","","","","","","",""
"html-keyboard-response","279","394254","0.0-14.0-0.28","63ee5d8aaee278de46b7d4cc","650c16f0f2faf8d7a0d14c09","651c1db760516f334f1dfa47","null","null","<p style=""font-size: 60px; font-family: BACS"">YlYcCMdP</p>","","","","","","","","",""
"html-keyboard-response","280","395271","0.0-14.0-0.29","63ee5d8aaee278de46b7d4cc","650c16f0f2faf8d7a0d14c09","651c1db760516f334f1dfa47","null","null","<p style=""font-size: 60px; font-family: BACS"">uvaUYLU</p>","","","","","","","","",""
"html-keyboard-response","281","396273","0.0-14.0-0.30","63ee5d8aaee278de46b7d4cc","650c16f0f2faf8d7a0d14c09","651c1db760516f334f1dfa47","null","null","<p style=""font-size: 60px; font-family: BACS"">kbmZOmLJ</p>","","","","","","","","",""
"html-keyboard-response","282","397288","0.0-14.0-0.31","63ee5d8aaee278de46b7d4cc","650c16f0f2faf8d7a0d14c09","651c1db760516f334f1dfa47","null","null","<p style=""font-size: 60px; font-family: BACS"">YlCPBCMdP</p>","","","","","","","","",""
"html-keyboard-response","283","398291","0.0-14.0-0.32","63ee5d8aaee278de46b7d4cc","650c16f0f2faf8d7a0d14c09","651c1db760516f334f1dfa47","null","null","<p style=""font-size: 60px; font-family: BACS"">NaJbkam</p>","","","","","","","","",""
"html-keyboard-response","284","399307","0.0-14.0-0.33","63ee5d8aaee278de46b7d4cc","650c16f0f2faf8d7a0d14c09","651c1db760516f334f1dfa47","null","null","<p style=""font-size: 60px; font-family: BACS"">EMYKTAm</p>","","","","","","","","",""
"html-keyboard-response","285","400323","0.0-14.0-0.34","63ee5d8aaee278de46b7d4cc","650c16f0f2faf8d7a0d14c09","651c1db760516f334f1dfa47","null","null","<p style=""font-size: 60px; font-family: BACS"">kZUbYLU</p>","","","","","","","","",""
"html-keyboard-response","286","401325","0.0-14.0-0.35","63ee5d8aaee278de46b7d4cc","650c16f0f2faf8d7a0d14c09","651c1db760516f334f1dfa47","null","null","<p style=""font-size: 60px; font-family: BACS"">KMOcDbMR</p>","","","","","","","","",""
"html-keyboard-response","287","402327","0.0-14.0-0.36","63ee5d8aaee278de46b7d4cc","650c16f0f2faf8d7a0d14c09","651c1db760516f334f1dfa47","null","null","<p style=""font-size: 60px; font-family: BACS"">EMYKCMdP</p>","","","","","","","","",""
"html-keyboard-response","288","403330","0.0-14.0-0.37","63ee5d8aaee278de46b7d4cc","650c16f0f2faf8d7a0d14c09","651c1db760516f334f1dfa47","null","null","<p style=""font-size: 60px; font-family: BACS"">uvaUrAJu</p>","","","","","","","","",""
"html-keyboard-response","289","404347","0.0-14.0-0.38","63ee5d8aaee278de46b7d4cc","650c16f0f2faf8d7a0d14c09","651c1db760516f334f1dfa47","null","null","<p style=""font-size: 60px; font-family: BACS"">uauOkam</p>","","","","","","","","",""
"html-keyboard-response","290","405361","0.0-14.0-0.39","63ee5d8aaee278de46b7d4cc","650c16f0f2faf8d7a0d14c09","651c1db760516f334f1dfa47","null","null","<p style=""font-size: 60px; font-family: BACS"">btlckTAm</p>","","","","","","","","",""
"html-keyboard-response","291","406376","0.0-14.0-0.40","63ee5d8aaee278de46b7d4cc","650c16f0f2faf8d7a0d14c09","651c1db760516f334f1dfa47","null","null","<p style=""font-size: 60px; font-family: BACS"">rvAJYLU</p>","","","","","","","","",""
"html-keyboard-response","292","407392","0.0-14.0-0.41","63ee5d8aaee278de46b7d4cc","650c16f0f2faf8d7a0d14c09","651c1db760516f334f1dfa47","null","null","<p style=""font-size: 60px; font-family: BACS"">uvaUkam</p>","","","","","","","","",""
"html-keyboard-response","293","408393","0.0-14.0-0.42","63ee5d8aaee278de46b7d4cc","650c16f0f2faf8d7a0d14c09","651c1db760516f334f1dfa47","null","null","<p style=""font-size: 60px; font-family: BACS"">CchtdCmYA</p>","","","","","","","","",""
"html-keyboard-response","294","409394","0.0-14.0-0.43","63ee5d8aaee278de46b7d4cc","650c16f0f2faf8d7a0d14c09","651c1db760516f334f1dfa47","null","null","<p style=""font-size: 60px; font-family: BACS"">NaJbYLU</p>","","","","","","","","",""
"html-keyboard-response","295","410410","0.0-14.0-0.44","63ee5d8aaee278de46b7d4cc","650c16f0f2faf8d7a0d14c09","651c1db760516f334f1dfa47","null","null","<p style=""font-size: 60px; font-family: BACS"">JNkamLJ</p>","","","","","","","","",""
"html-keyboard-response","296","411411","0.0-14.0-0.45","63ee5d8aaee278de46b7d4cc","650c16f0f2faf8d7a0d14c09","651c1db760516f334f1dfa47","null","null","<p style=""font-size: 60px; font-family: BACS"">rvAJAZbl</p>","","","","","","","","",""
"html-keyboard-response","297","412413","0.0-14.0-0.46","63ee5d8aaee278de46b7d4cc","650c16f0f2faf8d7a0d14c09","651c1db760516f334f1dfa47","null","null","<p style=""font-size: 60px; font-family: BACS"">chEDOCmYA</p>","","","","","","","","",""
"html-keyboard-response","298","413416","0.0-14.0-0.47","63ee5d8aaee278de46b7d4cc","650c16f0f2faf8d7a0d14c09","651c1db760516f334f1dfa47","null","null","<p style=""font-size: 60px; font-family: BACS"">GQrcmLJ</p>","","","","","","","","",""
"html-keyboard-response","299","414432","0.0-14.0-0.48","63ee5d8aaee278de46b7d4cc","650c16f0f2faf8d7a0d14c09","651c1db760516f334f1dfa47","null","null","<p style=""font-size: 60px; font-family: BACS"">kZUbAZbl</p>","","","","","","","","",""
"html-keyboard-response","300","415436","0.0-14.0-0.49","63ee5d8aaee278de46b7d4cc","650c16f0f2faf8d7a0d14c09","651c1db760516f334f1dfa47","null","null","<p style=""font-size: 60px; font-family: BACS"">chEDOCMdP</p>","","","","","","","","",""
"html-keyboard-response","301","416451","0.0-14.0-0.50","63ee5d8aaee278de46b7d4cc","650c16f0f2faf8d7a0d14c09","651c1db760516f334f1dfa47","null","null","<p style=""font-size: 60px; font-family: BACS"">YlYcTAm</p>","","","","","","","","",""
"html-keyboard-response","302","417455","0.0-14.0-0.51","63ee5d8aaee278de46b7d4cc","650c16f0f2faf8d7a0d14c09","651c1db760516f334f1dfa47","null","null","<p style=""font-size: 60px; font-family: BACS"">uauOrAJu</p>","","","","","","","","",""
"html-keyboard-response","303","418457","0.0-14.0-0.52","63ee5d8aaee278de46b7d4cc","650c16f0f2faf8d7a0d14c09","651c1db760516f334f1dfa47","null","null","<p style=""font-size: 60px; font-family: BACS"">kbmZOkam</p>","","","","","","","","",""
"html-keyboard-response","304","419458","0.0-14.0-0.53","63ee5d8aaee278de46b7d4cc","650c16f0f2faf8d7a0d14c09","651c1db760516f334f1dfa47","null","null","<p style=""font-size: 60px; font-family: BACS"">YlCPBTAm</p>","","","","","","","","",""
"html-keyboard-response","305","420474","0.0-14.0-0.54","63ee5d8aaee278de46b7d4cc","650c16f0f2faf8d7a0d14c09","651c1db760516f334f1dfa47","null","null","<p style=""font-size: 60px; font-family: BACS"">CchtdDbMR</p>","","","","","","","","",""
"html-keyboard-response","306","421476","0.0-14.0-0.55","63ee5d8aaee278de46b7d4cc","650c16f0f2faf8d7a0d14c09","651c1db760516f334f1dfa47","null","null","<p style=""font-size: 60px; font-family: BACS"">NaJbrAJu</p>","","","","","","","","",""
"html-keyboard-response","307","422491","0.0-14.0-0.56","63ee5d8aaee278de46b7d4cc","650c16f0f2faf8d7a0d14c09","651c1db760516f334f1dfa47","null","null","<p style=""font-size: 60px; font-family: BACS"">GQrcYLU</p>","","","","","","","","",""
"html-keyboard-response","308","423496","0.0-14.0-0.57","63ee5d8aaee278de46b7d4cc","650c16f0f2faf8d7a0d14c09","651c1db760516f334f1dfa47","null","null","<p style=""font-size: 60px; font-family: BACS"">KMOcTAm</p>","","","","","","","","",""
"html-keyboard-response","309","424511","0.0-14.0-0.58","63ee5d8aaee278de46b7d4cc","650c16f0f2faf8d7a0d14c09","651c1db760516f334f1dfa47","null","null","<p style=""font-size: 60px; font-family: BACS"">btlckCMdP</p>","","","","","","","","",""
"html-keyboard-response","310","425526","0.0-14.0-0.59","63ee5d8aaee278de46b7d4cc","650c16f0f2faf8d7a0d14c09","651c1db760516f334f1dfa47","null","null","<p style=""font-size: 60px; font-family: BACS"">OcYMTAm</p>","","","","","","","","",""
"html-keyboard-response","311","426543","0.0-14.0-0.60","63ee5d8aaee278de46b7d4cc","650c16f0f2faf8d7a0d14c09","651c1db760516f334f1dfa47","null","null","<p style=""font-size: 60px; font-family: BACS"">EdBbCMdP</p>","","","","","","","","",""
"html-keyboard-response","312","427544","0.0-14.0-0.61","63ee5d8aaee278de46b7d4cc","650c16f0f2faf8d7a0d14c09","651c1db760516f334f1dfa47","null","null","<p style=""font-size: 60px; font-family: BACS"">KElBmtKP</p>","","","","","","","","",""
"html-keyboard-response","313","428560","0.0-14.0-0.62","63ee5d8aaee278de46b7d4cc","650c16f0f2faf8d7a0d14c09","651c1db760516f334f1dfa47","null","null","<p style=""font-size: 60px; font-family: BACS"">ZdlOAZbl</p>","","","","","","","","",""
"html-keyboard-response","314","429562","0.0-14.0-0.63","63ee5d8aaee278de46b7d4cc","650c16f0f2faf8d7a0d14c09","651c1db760516f334f1dfa47","null","null","<p style=""font-size: 60px; font-family: BACS"">EdBbDbMR</p>","","","","","","","","",""
"html-keyboard-response","315","430565","0.0-14.0-0.64","63ee5d8aaee278de46b7d4cc","650c16f0f2faf8d7a0d14c09","651c1db760516f334f1dfa47","null","null","<p style=""font-size: 60px; font-family: BACS"">KMOcmtKP</p>","","","","","","","","",""
"html-keyboard-response","316","431580","0.0-14.0-0.65","63ee5d8aaee278de46b7d4cc","650c16f0f2faf8d7a0d14c09","651c1db760516f334f1dfa47","null","null","<p style=""font-size: 60px; font-family: BACS"">rvAJrAJu</p>","","","","","","","","",""
"html-keyboard-response","317","432582","0.0-14.0-0.66","63ee5d8aaee278de46b7d4cc","650c16f0f2faf8d7a0d14c09","651c1db760516f334f1dfa47","null","null","<p style=""font-size: 60px; font-family: BACS"">KElBCMdP</p>","","","","","","","","",""
"html-keyboard-response","318","433597","0.0-14.0-0.67","63ee5d8aaee278de46b7d4cc","650c16f0f2faf8d7a0d14c09","651c1db760516f334f1dfa47","null","null","<p style=""font-size: 60px; font-family: BACS"">JNkakam</p>","","","","","","","","",""
"html-keyboard-response","319","434613","0.0-14.0-0.68","63ee5d8aaee278de46b7d4cc","650c16f0f2faf8d7a0d14c09","651c1db760516f334f1dfa47","null","null","<p style=""font-size: 60px; font-family: BACS"">uauOmLJ</p>","","","","","","","","",""
"html-keyboard-response","320","435614","0.0-14.0-0.69","63ee5d8aaee278de46b7d4cc","650c16f0f2faf8d7a0d14c09","651c1db760516f334f1dfa47","null","null","<p style=""font-size: 60px; font-family: BACS"">btlckCmYA</p>","","","","","","","","",""
"html-keyboard-response","321","436615","0.0-14.0-0.70","63ee5d8aaee278de46b7d4cc","650c16f0f2faf8d7a0d14c09","651c1db760516f334f1dfa47","null","null","<p style=""font-size: 60px; font-family: BACS"">ZdlOmLJ</p>","","","","","","","","",""
"html-keyboard-response","322","437629","0.0-14.0-0.71","63ee5d8aaee278de46b7d4cc","650c16f0f2faf8d7a0d14c09","651c1db760516f334f1dfa47","null","null","<p style=""font-size: 60px; font-family: BACS"">OcYMmtKP</p>","","","","","","","","",""
"html-keyboard-response","323","438632","0.0-14.0-0.72","63ee5d8aaee278de46b7d4cc","650c16f0f2faf8d7a0d14c09","651c1db760516f334f1dfa47","null","null","<p style=""font-size: 60px; font-family: BACS"">rvAJkam</p>","","","","","","","","",""
"html-keyboard-response","324","439647","0.0-14.0-0.73","63ee5d8aaee278de46b7d4cc","650c16f0f2faf8d7a0d14c09","651c1db760516f334f1dfa47","null","null","<p style=""font-size: 60px; font-family: BACS"">EdBbCmYA</p>","","","","","","","","",""
"html-keyboard-response","325","440650","0.0-14.0-0.74","63ee5d8aaee278de46b7d4cc","650c16f0f2faf8d7a0d14c09","651c1db760516f334f1dfa47","null","null","<p style=""font-size: 60px; font-family: BACS"">NaJbmLJ</p>","","","","","","","","",""
"html-keyboard-response","326","441651","0.0-14.0-0.75","63ee5d8aaee278de46b7d4cc","650c16f0f2faf8d7a0d14c09","651c1db760516f334f1dfa47","null","null","<p style=""font-size: 60px; font-family: BACS"">krUQkam</p>","","","","","","","","",""
"html-keyboard-response","327","442653","0.0-14.0-0.76","63ee5d8aaee278de46b7d4cc","650c16f0f2faf8d7a0d14c09","651c1db760516f334f1dfa47","null","null","<p style=""font-size: 60px; font-family: BACS"">YlYcCmYA</p>","","","","","","","","",""
"html-keyboard-response","328","443654","0.0-14.0-0.77","63ee5d8aaee278de46b7d4cc","650c16f0f2faf8d7a0d14c09","651c1db760516f334f1dfa47","null","null","<p style=""font-size: 60px; font-family: BACS"">uauOYLU</p>","","","","","","","","",""
"html-keyboard-response","329","444655","0.0-14.0-0.78","63ee5d8aaee278de46b7d4cc","650c16f0f2faf8d7a0d14c09","651c1db760516f334f1dfa47","null","null","<p style=""font-size: 60px; font-family: BACS"">krUQAZbl</p>","","","","","","","","",""
"html-keyboard-response","330","445657","0.0-14.0-0.79","63ee5d8aaee278de46b7d4cc","650c16f0f2faf8d7a0d14c09","651c1db760516f334f1dfa47","null","null","<p style=""font-size: 60px; font-family: BACS"">GQrckam</p>","","","","","","","","",""
"html-keyboard-response","331","490411","0.0-15.0","63ee5d8aaee278de46b7d4cc","650c16f0f2faf8d7a0d14c09","651c1db760516f334f1dfa47","44754"," ","<p>Great, you've seen the fourth block of words. You may now take a short break.</p>
      <p>Press the spacebar when you're ready to continue.</p>","","","","","","","","",""
"html-keyboard-response","332","491418","0.0-16.0-0.0","63ee5d8aaee278de46b7d4cc","650c16f0f2faf8d7a0d14c09","651c1db760516f334f1dfa47","null","null","<p style=""font-size: 60px; font-family: BACS"">OcYMCMdP</p>","","","","","","","","",""
"html-keyboard-response","333","492433","0.0-16.0-0.1","63ee5d8aaee278de46b7d4cc","650c16f0f2faf8d7a0d14c09","651c1db760516f334f1dfa47","null","null","<p style=""font-size: 60px; font-family: BACS"">OcYMCMdP</p>","","","","","","","","",""
"html-keyboard-response","334","493449","0.0-16.0-0.2","63ee5d8aaee278de46b7d4cc","650c16f0f2faf8d7a0d14c09","651c1db760516f334f1dfa47","null","null","<p style=""font-size: 60px; font-family: BACS"">OcYMCMdP</p>","","","","","","","","",""
"html-keyboard-response","335","494453","0.0-16.0-0.3","63ee5d8aaee278de46b7d4cc","650c16f0f2faf8d7a0d14c09","651c1db760516f334f1dfa47","null","null","<p style=""font-size: 60px; font-family: BACS"">OcYMCMdP</p>","","","","","","","","",""
"html-keyboard-response","336","495454","0.0-16.0-0.4","63ee5d8aaee278de46b7d4cc","650c16f0f2faf8d7a0d14c09","651c1db760516f334f1dfa47","null","null","<p style=""font-size: 60px; font-family: BACS"">OcYMCMdP</p>","","","","","","","","",""
"html-keyboard-response","337","496455","0.0-16.0-0.5","63ee5d8aaee278de46b7d4cc","650c16f0f2faf8d7a0d14c09","651c1db760516f334f1dfa47","null","null","<p style=""font-size: 60px; font-family: BACS"">OcYMCMdP</p>","","","","","","","","",""
"html-keyboard-response","338","497456","0.0-16.0-0.6","63ee5d8aaee278de46b7d4cc","650c16f0f2faf8d7a0d14c09","651c1db760516f334f1dfa47","null","null","<p style=""font-size: 60px; font-family: BACS"">OcYMCMdP</p>","","","","","","","","",""
"html-keyboard-response","339","498472","0.0-16.0-0.7","63ee5d8aaee278de46b7d4cc","650c16f0f2faf8d7a0d14c09","651c1db760516f334f1dfa47","null","null","<p style=""font-size: 60px; font-family: BACS"">OcYMCMdP</p>","","","","","","","","",""
"html-keyboard-response","340","499473","0.0-16.0-0.8","63ee5d8aaee278de46b7d4cc","650c16f0f2faf8d7a0d14c09","651c1db760516f334f1dfa47","null","null","<p style=""font-size: 60px; font-family: BACS"">OcYMCMdP</p>","","","","","","","","",""
"html-keyboard-response","341","500475","0.0-16.0-0.9","63ee5d8aaee278de46b7d4cc","650c16f0f2faf8d7a0d14c09","651c1db760516f334f1dfa47","null","null","<p style=""font-size: 60px; font-family: BACS"">OcYMCMdP</p>","","","","","","","","",""
"html-keyboard-response","342","501476","0.0-16.0-0.10","63ee5d8aaee278de46b7d4cc","650c16f0f2faf8d7a0d14c09","651c1db760516f334f1dfa47","null","null","<p style=""font-size: 60px; font-family: BACS"">OcYMCMdP</p>","","","","","","","","",""
"html-keyboard-response","343","502478","0.0-16.0-0.11","63ee5d8aaee278de46b7d4cc","650c16f0f2faf8d7a0d14c09","651c1db760516f334f1dfa47","null","null","<p style=""font-size: 60px; font-family: BACS"">OcYMCMdP</p>","","","","","","","","",""
"html-keyboard-response","344","503479","0.0-16.0-0.12","63ee5d8aaee278de46b7d4cc","650c16f0f2faf8d7a0d14c09","651c1db760516f334f1dfa47","null","null","<p style=""font-size: 60px; font-family: BACS"">OcYMCMdP</p>","","","","","","","","",""
"html-keyboard-response","345","504495","0.0-16.0-0.13","63ee5d8aaee278de46b7d4cc","650c16f0f2faf8d7a0d14c09","651c1db760516f334f1dfa47","null","null","<p style=""font-size: 60px; font-family: BACS"">OcYMCMdP</p>","","","","","","","","",""
"html-keyboard-response","346","505510","0.0-16.0-0.14","63ee5d8aaee278de46b7d4cc","650c16f0f2faf8d7a0d14c09","651c1db760516f334f1dfa47","null","null","<p style=""font-size: 60px; font-family: BACS"">OcYMCMdP</p>","","","","","","","","",""
"html-keyboard-response","347","506525","0.0-16.0-0.15","63ee5d8aaee278de46b7d4cc","650c16f0f2faf8d7a0d14c09","651c1db760516f334f1dfa47","null","null","<p style=""font-size: 60px; font-family: BACS"">OcYMCMdP</p>","","","","","","","","",""
"html-keyboard-response","348","507541","0.0-16.0-0.16","63ee5d8aaee278de46b7d4cc","650c16f0f2faf8d7a0d14c09","651c1db760516f334f1dfa47","null","null","<p style=""font-size: 60px; font-family: BACS"">OcYMCMdP</p>","","","","","","","","",""
"html-keyboard-response","349","508542","0.0-16.0-0.17","63ee5d8aaee278de46b7d4cc","650c16f0f2faf8d7a0d14c09","651c1db760516f334f1dfa47","null","null","<p style=""font-size: 60px; font-family: BACS"">OcYMCMdP</p>","","","","","","","","",""
"html-keyboard-response","350","509558","0.0-16.0-0.18","63ee5d8aaee278de46b7d4cc","650c16f0f2faf8d7a0d14c09","651c1db760516f334f1dfa47","null","null","<p style=""font-size: 60px; font-family: BACS"">OcYMCMdP</p>","","","","","","","","",""
"html-keyboard-response","351","510559","0.0-16.0-0.19","63ee5d8aaee278de46b7d4cc","650c16f0f2faf8d7a0d14c09","651c1db760516f334f1dfa47","null","null","<p style=""font-size: 60px; font-family: BACS"">OcYMCMdP</p>","","","","","","","","",""
"html-keyboard-response","352","511574","0.0-16.0-0.20","63ee5d8aaee278de46b7d4cc","650c16f0f2faf8d7a0d14c09","651c1db760516f334f1dfa47","null","null","<p style=""font-size: 60px; font-family: BACS"">OcYMCMdP</p>","","","","","","","","",""
"html-keyboard-response","353","512576","0.0-16.0-0.21","63ee5d8aaee278de46b7d4cc","650c16f0f2faf8d7a0d14c09","651c1db760516f334f1dfa47","null","null","<p style=""font-size: 60px; font-family: BACS"">OcYMCMdP</p>","","","","","","","","",""
"html-keyboard-response","354","513578","0.0-16.0-0.22","63ee5d8aaee278de46b7d4cc","650c16f0f2faf8d7a0d14c09","651c1db760516f334f1dfa47","null","null","<p style=""font-size: 60px; font-family: BACS"">OcYMCMdP</p>","","","","","","","","",""
"html-keyboard-response","355","514593","0.0-16.0-0.23","63ee5d8aaee278de46b7d4cc","650c16f0f2faf8d7a0d14c09","651c1db760516f334f1dfa47","null","null","<p style=""font-size: 60px; font-family: BACS"">OcYMCMdP</p>","","","","","","","","",""
"html-keyboard-response","356","515608","0.0-16.0-0.24","63ee5d8aaee278de46b7d4cc","650c16f0f2faf8d7a0d14c09","651c1db760516f334f1dfa47","null","null","<p style=""font-size: 60px; font-family: BACS"">OcYMCMdP</p>","","","","","","","","",""
"html-keyboard-response","357","516609","0.0-16.0-0.25","63ee5d8aaee278de46b7d4cc","650c16f0f2faf8d7a0d14c09","651c1db760516f334f1dfa47","null","null","<p style=""font-size: 60px; font-family: BACS"">OcYMCMdP</p>","","","","","","","","",""
"html-keyboard-response","358","517625","0.0-16.0-0.26","63ee5d8aaee278de46b7d4cc","650c16f0f2faf8d7a0d14c09","651c1db760516f334f1dfa47","null","null","<p style=""font-size: 60px; font-family: BACS"">OcYMCMdP</p>","","","","","","","","",""
"html-keyboard-response","359","518625","0.0-16.0-0.27","63ee5d8aaee278de46b7d4cc","650c16f0f2faf8d7a0d14c09","651c1db760516f334f1dfa47","null","null","<p style=""font-size: 60px; font-family: BACS"">OcYMCMdP</p>","","","","","","","","",""
"html-keyboard-response","360","519626","0.0-16.0-0.28","63ee5d8aaee278de46b7d4cc","650c16f0f2faf8d7a0d14c09","651c1db760516f334f1dfa47","null","null","<p style=""font-size: 60px; font-family: BACS"">OcYMCMdP</p>","","","","","","","","",""
"html-keyboard-response","361","520641","0.0-16.0-0.29","63ee5d8aaee278de46b7d4cc","650c16f0f2faf8d7a0d14c09","651c1db760516f334f1dfa47","null","null","<p style=""font-size: 60px; font-family: BACS"">OcYMCMdP</p>","","","","","","","","",""
"html-keyboard-response","362","521644","0.0-16.0-0.30","63ee5d8aaee278de46b7d4cc","650c16f0f2faf8d7a0d14c09","651c1db760516f334f1dfa47","null","null","<p style=""font-size: 60px; font-family: BACS"">OcYMCMdP</p>","","","","","","","","",""
"html-keyboard-response","363","522645","0.0-16.0-0.31","63ee5d8aaee278de46b7d4cc","650c16f0f2faf8d7a0d14c09","651c1db760516f334f1dfa47","null","null","<p style=""font-size: 60px; font-family: BACS"">OcYMCMdP</p>","","","","","","","","",""
"html-keyboard-response","364","523647","0.0-16.0-0.32","63ee5d8aaee278de46b7d4cc","650c16f0f2faf8d7a0d14c09","651c1db760516f334f1dfa47","null","null","<p style=""font-size: 60px; font-family: BACS"">OcYMCMdP</p>","","","","","","","","",""
"html-keyboard-response","365","524648","0.0-16.0-0.33","63ee5d8aaee278de46b7d4cc","650c16f0f2faf8d7a0d14c09","651c1db760516f334f1dfa47","null","null","<p style=""font-size: 60px; font-family: BACS"">OcYMCMdP</p>","","","","","","","","",""
"html-keyboard-response","366","525650","0.0-16.0-0.34","63ee5d8aaee278de46b7d4cc","650c16f0f2faf8d7a0d14c09","651c1db760516f334f1dfa47","null","null","<p style=""font-size: 60px; font-family: BACS"">OcYMCMdP</p>","","","","","","","","",""
"html-keyboard-response","367","526665","0.0-16.0-0.35","63ee5d8aaee278de46b7d4cc","650c16f0f2faf8d7a0d14c09","651c1db760516f334f1dfa47","null","null","<p style=""font-size: 60px; font-family: BACS"">OcYMCMdP</p>","","","","","","","","",""
"html-keyboard-response","368","527667","0.0-16.0-0.36","63ee5d8aaee278de46b7d4cc","650c16f0f2faf8d7a0d14c09","651c1db760516f334f1dfa47","null","null","<p style=""font-size: 60px; font-family: BACS"">OcYMCMdP</p>","","","","","","","","",""
"html-keyboard-response","369","528669","0.0-16.0-0.37","63ee5d8aaee278de46b7d4cc","650c16f0f2faf8d7a0d14c09","651c1db760516f334f1dfa47","null","null","<p style=""font-size: 60px; font-family: BACS"">OcYMCMdP</p>","","","","","","","","",""
"html-keyboard-response","370","529683","0.0-16.0-0.38","63ee5d8aaee278de46b7d4cc","650c16f0f2faf8d7a0d14c09","651c1db760516f334f1dfa47","null","null","<p style=""font-size: 60px; font-family: BACS"">OcYMCMdP</p>","","","","","","","","",""
"html-keyboard-response","371","530698","0.0-16.0-0.39","63ee5d8aaee278de46b7d4cc","650c16f0f2faf8d7a0d14c09","651c1db760516f334f1dfa47","null","null","<p style=""font-size: 60px; font-family: BACS"">OcYMCMdP</p>","","","","","","","","",""
"html-keyboard-response","372","531713","0.0-16.0-0.40","63ee5d8aaee278de46b7d4cc","650c16f0f2faf8d7a0d14c09","651c1db760516f334f1dfa47","null","null","<p style=""font-size: 60px; font-family: BACS"">OcYMCMdP</p>","","","","","","","","",""
"html-keyboard-response","373","532729","0.0-16.0-0.41","63ee5d8aaee278de46b7d4cc","650c16f0f2faf8d7a0d14c09","651c1db760516f334f1dfa47","null","null","<p style=""font-size: 60px; font-family: BACS"">OcYMCMdP</p>","","","","","","","","",""
"html-keyboard-response","374","533731","0.0-16.0-0.42","63ee5d8aaee278de46b7d4cc","650c16f0f2faf8d7a0d14c09","651c1db760516f334f1dfa47","null","null","<p style=""font-size: 60px; font-family: BACS"">OcYMCMdP</p>","","","","","","","","",""
"html-keyboard-response","375","534745","0.0-16.0-0.43","63ee5d8aaee278de46b7d4cc","650c16f0f2faf8d7a0d14c09","651c1db760516f334f1dfa47","null","null","<p style=""font-size: 60px; font-family: BACS"">OcYMCMdP</p>","","","","","","","","",""
"html-keyboard-response","376","535746","0.0-16.0-0.44","63ee5d8aaee278de46b7d4cc","650c16f0f2faf8d7a0d14c09","651c1db760516f334f1dfa47","null","null","<p style=""font-size: 60px; font-family: BACS"">OcYMCMdP</p>","","","","","","","","",""
"html-keyboard-response","377","536747","0.0-16.0-0.45","63ee5d8aaee278de46b7d4cc","650c16f0f2faf8d7a0d14c09","651c1db760516f334f1dfa47","null","null","<p style=""font-size: 60px; font-family: BACS"">OcYMCMdP</p>","","","","","","","","",""
"html-keyboard-response","378","537748","0.0-16.0-0.46","63ee5d8aaee278de46b7d4cc","650c16f0f2faf8d7a0d14c09","651c1db760516f334f1dfa47","null","null","<p style=""font-size: 60px; font-family: BACS"">OcYMCMdP</p>","","","","","","","","",""
"html-keyboard-response","379","538763","0.0-16.0-0.47","63ee5d8aaee278de46b7d4cc","650c16f0f2faf8d7a0d14c09","651c1db760516f334f1dfa47","null","null","<p style=""font-size: 60px; font-family: BACS"">OcYMCMdP</p>","","","","","","","","",""
"html-keyboard-response","380","539765","0.0-16.0-0.48","63ee5d8aaee278de46b7d4cc","650c16f0f2faf8d7a0d14c09","651c1db760516f334f1dfa47","null","null","<p style=""font-size: 60px; font-family: BACS"">OcYMCMdP</p>","","","","","","","","",""
"html-keyboard-response","381","540779","0.0-16.0-0.49","63ee5d8aaee278de46b7d4cc","650c16f0f2faf8d7a0d14c09","651c1db760516f334f1dfa47","null","null","<p style=""font-size: 60px; font-family: BACS"">OcYMCMdP</p>","","","","","","","","",""
"html-keyboard-response","382","541793","0.0-16.0-0.50","63ee5d8aaee278de46b7d4cc","650c16f0f2faf8d7a0d14c09","651c1db760516f334f1dfa47","null","null","<p style=""font-size: 60px; font-family: BACS"">OcYMCMdP</p>","","","","","","","","",""
"html-keyboard-response","383","542809","0.0-16.0-0.51","63ee5d8aaee278de46b7d4cc","650c16f0f2faf8d7a0d14c09","651c1db760516f334f1dfa47","null","null","<p style=""font-size: 60px; font-family: BACS"">OcYMCMdP</p>","","","","","","","","",""
"html-keyboard-response","384","543812","0.0-16.0-0.52","63ee5d8aaee278de46b7d4cc","650c16f0f2faf8d7a0d14c09","651c1db760516f334f1dfa47","null","null","<p style=""font-size: 60px; font-family: BACS"">OcYMCMdP</p>","","","","","","","","",""
"html-keyboard-response","385","544826","0.0-16.0-0.53","63ee5d8aaee278de46b7d4cc","650c16f0f2faf8d7a0d14c09","651c1db760516f334f1dfa47","null","null","<p style=""font-size: 60px; font-family: BACS"">OcYMCMdP</p>","","","","","","","","",""
"html-keyboard-response","386","545827","0.0-16.0-0.54","63ee5d8aaee278de46b7d4cc","650c16f0f2faf8d7a0d14c09","651c1db760516f334f1dfa47","null","null","<p style=""font-size: 60px; font-family: BACS"">OcYMCMdP</p>","","","","","","","","",""
"html-keyboard-response","387","546842","0.0-16.0-0.55","63ee5d8aaee278de46b7d4cc","650c16f0f2faf8d7a0d14c09","651c1db760516f334f1dfa47","null","null","<p style=""font-size: 60px; font-family: BACS"">OcYMCMdP</p>","","","","","","","","",""
"html-keyboard-response","388","547858","0.0-16.0-0.56","63ee5d8aaee278de46b7d4cc","650c16f0f2faf8d7a0d14c09","651c1db760516f334f1dfa47","null","null","<p style=""font-size: 60px; font-family: BACS"">OcYMCMdP</p>","","","","","","","","",""
"html-keyboard-response","389","548874","0.0-16.0-0.57","63ee5d8aaee278de46b7d4cc","650c16f0f2faf8d7a0d14c09","651c1db760516f334f1dfa47","null","null","<p style=""font-size: 60px; font-family: BACS"">OcYMCMdP</p>","","","","","","","","",""
"html-keyboard-response","390","549876","0.0-16.0-0.58","63ee5d8aaee278de46b7d4cc","650c16f0f2faf8d7a0d14c09","651c1db760516f334f1dfa47","null","null","<p style=""font-size: 60px; font-family: BACS"">OcYMCMdP</p>","","","","","","","","",""
"html-keyboard-response","391","550878","0.0-16.0-0.59","63ee5d8aaee278de46b7d4cc","650c16f0f2faf8d7a0d14c09","651c1db760516f334f1dfa47","null","null","<p style=""font-size: 60px; font-family: BACS"">OcYMCMdP</p>","","","","","","","","",""
"html-keyboard-response","392","551894","0.0-16.0-0.60","63ee5d8aaee278de46b7d4cc","650c16f0f2faf8d7a0d14c09","651c1db760516f334f1dfa47","null","null","<p style=""font-size: 60px; font-family: BACS"">OcYMCMdP</p>","","","","","","","","",""
"html-keyboard-response","393","552910","0.0-16.0-0.61","63ee5d8aaee278de46b7d4cc","650c16f0f2faf8d7a0d14c09","651c1db760516f334f1dfa47","null","null","<p style=""font-size: 60px; font-family: BACS"">OcYMCMdP</p>","","","","","","","","",""
"html-keyboard-response","394","553925","0.0-16.0-0.62","63ee5d8aaee278de46b7d4cc","650c16f0f2faf8d7a0d14c09","651c1db760516f334f1dfa47","null","null","<p style=""font-size: 60px; font-family: BACS"">OcYMCMdP</p>","","","","","","","","",""
"html-keyboard-response","395","554926","0.0-16.0-0.63","63ee5d8aaee278de46b7d4cc","650c16f0f2faf8d7a0d14c09","651c1db760516f334f1dfa47","null","null","<p style=""font-size: 60px; font-family: BACS"">OcYMCMdP</p>","","","","","","","","",""
"html-keyboard-response","396","555927","0.0-16.0-0.64","63ee5d8aaee278de46b7d4cc","650c16f0f2faf8d7a0d14c09","651c1db760516f334f1dfa47","null","null","<p style=""font-size: 60px; font-family: BACS"">OcYMCMdP</p>","","","","","","","","",""
"html-keyboard-response","397","556928","0.0-16.0-0.65","63ee5d8aaee278de46b7d4cc","650c16f0f2faf8d7a0d14c09","651c1db760516f334f1dfa47","null","null","<p style=""font-size: 60px; font-family: BACS"">OcYMCMdP</p>","","","","","","","","",""
"html-keyboard-response","398","557943","0.0-16.0-0.66","63ee5d8aaee278de46b7d4cc","650c16f0f2faf8d7a0d14c09","651c1db760516f334f1dfa47","null","null","<p style=""font-size: 60px; font-family: BACS"">OcYMCMdP</p>","","","","","","","","",""
"html-keyboard-response","399","558945","0.0-16.0-0.67","63ee5d8aaee278de46b7d4cc","650c16f0f2faf8d7a0d14c09","651c1db760516f334f1dfa47","null","null","<p style=""font-size: 60px; font-family: BACS"">OcYMCMdP</p>","","","","","","","","",""
"html-keyboard-response","400","559958","0.0-16.0-0.68","63ee5d8aaee278de46b7d4cc","650c16f0f2faf8d7a0d14c09","651c1db760516f334f1dfa47","null","null","<p style=""font-size: 60px; font-family: BACS"">OcYMCMdP</p>","","","","","","","","",""
