"trial_type","trial_index","time_elapsed","internal_node_id","subject_id","study_id","session_id","rt","response","stimulus","success","item","task","correct_response","testing_condition","correct","target","confound","name"
"pavlovia","0","645","0.0-0.0","5caccaed2f93d700157b4782","650c16f0f2faf8d7a0d14c09","651c1d5c56f3d779d1ab3197","","","","","","","","","","","",""
"survey-html-form","1","15729","0.0-1.0","5caccaed2f93d700157b4782","650c16f0f2faf8d7a0d14c09","651c1d5c56f3d779d1ab3197","15083","{""ID"":""5caccaed2f93d700157b4782""}","","","","","","","","","",""
"html-keyboard-response","2","206384","0.0-2.0","5caccaed2f93d700157b4782","650c16f0f2faf8d7a0d14c09","651c1d5c56f3d779d1ab3197","190654"," ","<p style=""font-size: 15px;"">Before beginning, we ask that you read the consent information and confirm your agreement to participate in the experiment.</p>
      <p style=""font-size: 15px;""> We ask that you remember that this is a research project and that your participation is entirely voluntary. You can stop your participation at any time, without needing to provide any explanation. The study we're asking you to participate in aims at examining how readers process written words. You will be engaged in a session of apprximately 20 minutes, followed by a brief questionnaire. You will have the opportunity to take a few breaks during the experiment. You will be paid £4 for your participation, corresponding to a rate of £8/hour. While this experiment looks at cognitive faculties, this experiment doesn't constitute clinical proof of eventual pathologies.</p>
      <p style=""font-size: 15px;"">All of the information collected thanks to yours and others' participation will be held in a secure password-protected server, and will not be shared with anyone not authorised to view it. Your personal information will be kept with an arbitrary participant ID. Thanks to this data anonymity process, any researcher analysing the data won't be able to track the information back to a specific participant. Therefore, this process will make identifying you impossibile, even when results from the study will be published in scientific reviews, presented at congresses, or at any other public forum. More generally, the collected data will be treated in accordance with the laws on privacy and conformity to the Legislative Degree n. 196 ""Code regarding the protection of personal data"" of the 30th of June 2003 and to the European Regulation 2016/670 (General Data Protection Regulation - GDPR). The Data Protection Officer is Avv. Valentina Carollo, who can be contacted at the following email addresses: <a href=""mailto:dpo@sissa.it"">dpo@sissa.it</a> or <a href=""mailto:rpd@sissa.it"">rpd@sissa.it</a> - PEC: <a href=""mailto:protocollo@pec.sissa.it"">protocollo@pec.sissa.it</a>.</p>
      <p style=""font-size: 15px;""> Before expressing your consent to participate, we would like to remind you again that in case you need explanations on any aspect of the experimental procedure, the researcher is at your disposition (<a href=""mailto:aliebelt@sissa.it"">aliebelt@sissa.it</a>, <a href=""mailto:davide.crepaldi@sissa.it"">davide.crepaldi@sissa.it</a>).</p>
      <p style=""font-size: 15px;"">If you would like to download the informed consent form, you can do so here: <a href=""BASL-Informed_Consent.pdf"" download>informed consent form</a>.</p>
      <p style=""font-size: 15px;"">We ask that you press the spacebar to proceed to the consent section.</p>","","","","","","","","",""
"survey-html-form","3","220071","0.0-3.0","5caccaed2f93d700157b4782","650c16f0f2faf8d7a0d14c09","651c1d5c56f3d779d1ab3197","13687","{""consent1"":""YES"",""consent2"":""YES"",""consent3"":""YES"",""consent4"":""YES"",""consent5"":""YES"",""consent6"":""YES""}","","","","","","","","","",""
"fullscreen","4","223767","0.0-4.0","5caccaed2f93d700157b4782","650c16f0f2faf8d7a0d14c09","651c1d5c56f3d779d1ab3197","","","","true","","","","","","","",""
"html-keyboard-response","5","266014","0.0-5.0","5caccaed2f93d700157b4782","650c16f0f2faf8d7a0d14c09","651c1d5c56f3d779d1ab3197","42246"," ","<p>Welcome, and thank you very much for your time!</p>
      <p>In this experiment, you'll be a language expert who's been asked to take a look at words that Earth has received in its first communication with aliens. Your task, in this first part of the experiment, is to pay close attention to the words you'll be shown; later, world leaders will ask you questions on what you saw. The words will be shown to you quite quickly; it seems that the aliens were in a hurry :-)</p>
      <p>Press the spacebar to continue.<p>","","","","","","","","",""
"html-keyboard-response","6","266065","0.0-6.0","5caccaed2f93d700157b4782","650c16f0f2faf8d7a0d14c09","651c1d5c56f3d779d1ab3197","null","null","<p style=""font-size: 120px; font-family: BACS""> </p>","","","","","","","","",""
"html-keyboard-response","7","286520","0.0-7.0","5caccaed2f93d700157b4782","650c16f0f2faf8d7a0d14c09","651c1d5c56f3d779d1ab3197","20455"," ","<p>Here is an example of the words you'll see:</p>
      <img src='esempio.png' height='400px'>
      <p>When you're ready to begin, press the spacebar.</p></div>","","","","","","","","",""
"html-keyboard-response","8","287524","0.0-8.0-0.0","5caccaed2f93d700157b4782","650c16f0f2faf8d7a0d14c09","651c1d5c56f3d779d1ab3197","null","null","<p style=""font-size: 60px; font-family: BACS"">TKDkhEct</p>","","","","","","","","",""
"html-keyboard-response","9","288530","0.0-8.0-0.1","5caccaed2f93d700157b4782","650c16f0f2faf8d7a0d14c09","651c1d5c56f3d779d1ab3197","null","null","<p style=""font-size: 60px; font-family: BACS"">YOZNAld</p>","","","","","","","","",""
"html-keyboard-response","10","289534","0.0-8.0-0.2","5caccaed2f93d700157b4782","650c16f0f2faf8d7a0d14c09","651c1d5c56f3d779d1ab3197","null","null","<p style=""font-size: 60px; font-family: BACS"">LuaUYZJO</p>","","","","","","","","",""
"html-keyboard-response","11","290538","0.0-8.0-0.3","5caccaed2f93d700157b4782","650c16f0f2faf8d7a0d14c09","651c1d5c56f3d779d1ab3197","null","null","<p style=""font-size: 60px; font-family: BACS"">kCRmRDM</p>","","","","","","","","",""
"html-keyboard-response","12","291540","0.0-8.0-0.4","5caccaed2f93d700157b4782","650c16f0f2faf8d7a0d14c09","651c1d5c56f3d779d1ab3197","null","null","<p style=""font-size: 60px; font-family: BACS"">YLQmGrNlZ</p>","","","","","","","","",""
"html-keyboard-response","13","292545","0.0-8.0-0.5","5caccaed2f93d700157b4782","650c16f0f2faf8d7a0d14c09","651c1d5c56f3d779d1ab3197","null","null","<p style=""font-size: 60px; font-family: BACS"">aNYmbcrdY</p>","","","","","","","","",""
"html-keyboard-response","14","293550","0.0-8.0-0.6","5caccaed2f93d700157b4782","650c16f0f2faf8d7a0d14c09","651c1d5c56f3d779d1ab3197","null","null","<p style=""font-size: 60px; font-family: BACS"">AZlLNvcb</p>","","","","","","","","",""
"html-keyboard-response","15","294554","0.0-8.0-0.7","5caccaed2f93d700157b4782","650c16f0f2faf8d7a0d14c09","651c1d5c56f3d779d1ab3197","null","null","<p style=""font-size: 60px; font-family: BACS"">YLQmGAld</p>","","","","","","","","",""
"html-keyboard-response","16","295560","0.0-8.0-0.8","5caccaed2f93d700157b4782","650c16f0f2faf8d7a0d14c09","651c1d5c56f3d779d1ab3197","null","null","<p style=""font-size: 60px; font-family: BACS"">mARMRDM</p>","","","","","","","","",""
"html-keyboard-response","17","296562","0.0-8.0-0.9","5caccaed2f93d700157b4782","650c16f0f2faf8d7a0d14c09","651c1d5c56f3d779d1ab3197","null","null","<p style=""font-size: 60px; font-family: BACS"">YOZNvcb</p>","","","","","","","","",""
"html-keyboard-response","18","297565","0.0-8.0-0.10","5caccaed2f93d700157b4782","650c16f0f2faf8d7a0d14c09","651c1d5c56f3d779d1ab3197","null","null","<p style=""font-size: 60px; font-family: BACS"">kCRmhEct</p>","","","","","","","","",""
"html-keyboard-response","19","298570","0.0-8.0-0.11","5caccaed2f93d700157b4782","650c16f0f2faf8d7a0d14c09","651c1d5c56f3d779d1ab3197","null","null","<p style=""font-size: 60px; font-family: BACS"">lCbcmTRkY</p>","","","","","","","","",""
"html-keyboard-response","20","299576","0.0-8.0-0.12","5caccaed2f93d700157b4782","650c16f0f2faf8d7a0d14c09","651c1d5c56f3d779d1ab3197","null","null","<p style=""font-size: 60px; font-family: BACS"">chEDOTmc</p>","","","","","","","","",""
"html-keyboard-response","21","300581","0.0-8.0-0.13","5caccaed2f93d700157b4782","650c16f0f2faf8d7a0d14c09","651c1d5c56f3d779d1ab3197","null","null","<p style=""font-size: 60px; font-family: BACS"">AZlLNAld</p>","","","","","","","","",""
"html-keyboard-response","22","301586","0.0-8.0-0.14","5caccaed2f93d700157b4782","650c16f0f2faf8d7a0d14c09","651c1d5c56f3d779d1ab3197","null","null","<p style=""font-size: 60px; font-family: BACS"">mARMBCD</p>","","","","","","","","",""
"html-keyboard-response","23","302591","0.0-8.0-0.15","5caccaed2f93d700157b4782","650c16f0f2faf8d7a0d14c09","651c1d5c56f3d779d1ab3197","null","null","<p style=""font-size: 60px; font-family: BACS"">LuaUvcb</p>","","","","","","","","",""
"html-keyboard-response","24","303597","0.0-8.0-0.16","5caccaed2f93d700157b4782","650c16f0f2faf8d7a0d14c09","651c1d5c56f3d779d1ab3197","null","null","<p style=""font-size: 60px; font-family: BACS"">KABATmc</p>","","","","","","","","",""
"html-keyboard-response","25","304600","0.0-8.0-0.17","5caccaed2f93d700157b4782","650c16f0f2faf8d7a0d14c09","651c1d5c56f3d779d1ab3197","null","null","<p style=""font-size: 60px; font-family: BACS"">chEDOhEct</p>","","","","","","","","",""
"html-keyboard-response","26","305603","0.0-8.0-0.18","5caccaed2f93d700157b4782","650c16f0f2faf8d7a0d14c09","651c1d5c56f3d779d1ab3197","null","null","<p style=""font-size: 60px; font-family: BACS"">aNYmbvcb</p>","","","","","","","","",""
"html-keyboard-response","27","306619","0.0-8.0-0.19","5caccaed2f93d700157b4782","650c16f0f2faf8d7a0d14c09","651c1d5c56f3d779d1ab3197","null","null","<p style=""font-size: 60px; font-family: BACS"">LuaUAld</p>","","","","","","","","",""
"html-keyboard-response","28","307622","0.0-8.0-0.20","5caccaed2f93d700157b4782","650c16f0f2faf8d7a0d14c09","651c1d5c56f3d779d1ab3197","null","null","<p style=""font-size: 60px; font-family: BACS"">AlNUYZJO</p>","","","","","","","","",""
"html-keyboard-response","29","308623","0.0-8.0-0.21","5caccaed2f93d700157b4782","650c16f0f2faf8d7a0d14c09","651c1d5c56f3d779d1ab3197","null","null","<p style=""font-size: 60px; font-family: BACS"">AZlLNrNlZ</p>","","","","","","","","",""
"html-keyboard-response","30","309639","0.0-8.0-0.22","5caccaed2f93d700157b4782","650c16f0f2faf8d7a0d14c09","651c1d5c56f3d779d1ab3197","null","null","<p style=""font-size: 60px; font-family: BACS"">DOchlRDM</p>","","","","","","","","",""
"html-keyboard-response","31","310641","0.0-8.0-0.23","5caccaed2f93d700157b4782","650c16f0f2faf8d7a0d14c09","651c1d5c56f3d779d1ab3197","null","null","<p style=""font-size: 60px; font-family: BACS"">bGuOcrdY</p>","","","","","","","","",""
"html-keyboard-response","32","311644","0.0-8.0-0.24","5caccaed2f93d700157b4782","650c16f0f2faf8d7a0d14c09","651c1d5c56f3d779d1ab3197","null","null","<p style=""font-size: 60px; font-family: BACS"">dTmEDRDM</p>","","","","","","","","",""
"html-keyboard-response","33","312645","0.0-8.0-0.25","5caccaed2f93d700157b4782","650c16f0f2faf8d7a0d14c09","651c1d5c56f3d779d1ab3197","null","null","<p style=""font-size: 60px; font-family: BACS"">BATOcBCD</p>","","","","","","","","",""
"html-keyboard-response","34","313648","0.0-8.0-0.26","5caccaed2f93d700157b4782","650c16f0f2faf8d7a0d14c09","651c1d5c56f3d779d1ab3197","null","null","<p style=""font-size: 60px; font-family: BACS"">KABATRkY</p>","","","","","","","","",""
"html-keyboard-response","35","314664","0.0-8.0-0.27","5caccaed2f93d700157b4782","650c16f0f2faf8d7a0d14c09","651c1d5c56f3d779d1ab3197","null","null","<p style=""font-size: 60px; font-family: BACS"">DOchlhEct</p>","","","","","","","","",""
"html-keyboard-response","36","315667","0.0-8.0-0.28","5caccaed2f93d700157b4782","650c16f0f2faf8d7a0d14c09","651c1d5c56f3d779d1ab3197","null","null","<p style=""font-size: 60px; font-family: BACS"">rvAJAld</p>","","","","","","","","",""
"html-keyboard-response","37","316668","0.0-8.0-0.29","5caccaed2f93d700157b4782","650c16f0f2faf8d7a0d14c09","651c1d5c56f3d779d1ab3197","null","null","<p style=""font-size: 60px; font-family: BACS"">lCbcmTmc</p>","","","","","","","","",""
"html-keyboard-response","38","317673","0.0-8.0-0.30","5caccaed2f93d700157b4782","650c16f0f2faf8d7a0d14c09","651c1d5c56f3d779d1ab3197","null","null","<p style=""font-size: 60px; font-family: BACS"">TKDkBCD</p>","","","","","","","","",""
"html-keyboard-response","39","318674","0.0-8.0-0.31","5caccaed2f93d700157b4782","650c16f0f2faf8d7a0d14c09","651c1d5c56f3d779d1ab3197","null","null","<p style=""font-size: 60px; font-family: BACS"">AZlLNcrdY</p>","","","","","","","","",""
"html-keyboard-response","40","319675","0.0-8.0-0.32","5caccaed2f93d700157b4782","650c16f0f2faf8d7a0d14c09","651c1d5c56f3d779d1ab3197","null","null","<p style=""font-size: 60px; font-family: BACS"">YOZNrNlZ</p>","","","","","","","","",""
"html-keyboard-response","41","320678","0.0-8.0-0.33","5caccaed2f93d700157b4782","650c16f0f2faf8d7a0d14c09","651c1d5c56f3d779d1ab3197","null","null","<p style=""font-size: 60px; font-family: BACS"">TKDkTmc</p>","","","","","","","","",""
"html-keyboard-response","42","321681","0.0-8.0-0.34","5caccaed2f93d700157b4782","650c16f0f2faf8d7a0d14c09","651c1d5c56f3d779d1ab3197","null","null","<p style=""font-size: 60px; font-family: BACS"">mBmlARDM</p>","","","","","","","","",""
"html-keyboard-response","43","322683","0.0-8.0-0.35","5caccaed2f93d700157b4782","650c16f0f2faf8d7a0d14c09","651c1d5c56f3d779d1ab3197","null","null","<p style=""font-size: 60px; font-family: BACS"">ALGZYZJO</p>","","","","","","","","",""
"html-keyboard-response","44","323686","0.0-8.0-0.36","5caccaed2f93d700157b4782","650c16f0f2faf8d7a0d14c09","651c1d5c56f3d779d1ab3197","null","null","<p style=""font-size: 60px; font-family: BACS"">rvAJcrdY</p>","","","","","","","","",""
"html-keyboard-response","45","324689","0.0-8.0-0.37","5caccaed2f93d700157b4782","650c16f0f2faf8d7a0d14c09","651c1d5c56f3d779d1ab3197","null","null","<p style=""font-size: 60px; font-family: BACS"">KABARDM</p>","","","","","","","","",""
"html-keyboard-response","46","325692","0.0-8.0-0.38","5caccaed2f93d700157b4782","650c16f0f2faf8d7a0d14c09","651c1d5c56f3d779d1ab3197","null","null","<p style=""font-size: 60px; font-family: BACS"">mARMhEct</p>","","","","","","","","",""
"html-keyboard-response","47","326695","0.0-8.0-0.39","5caccaed2f93d700157b4782","650c16f0f2faf8d7a0d14c09","651c1d5c56f3d779d1ab3197","null","null","<p style=""font-size: 60px; font-family: BACS"">LuaUrNlZ</p>","","","","","","","","",""
"html-keyboard-response","48","327711","0.0-8.0-0.40","5caccaed2f93d700157b4782","650c16f0f2faf8d7a0d14c09","651c1d5c56f3d779d1ab3197","null","null","<p style=""font-size: 60px; font-family: BACS"">mARMTmc</p>","","","","","","","","",""
"html-keyboard-response","49","328712","0.0-8.0-0.41","5caccaed2f93d700157b4782","650c16f0f2faf8d7a0d14c09","651c1d5c56f3d779d1ab3197","null","null","<p style=""font-size: 60px; font-family: BACS"">rvAJrNlZ</p>","","","","","","","","",""
"html-keyboard-response","50","329714","0.0-8.0-0.42","5caccaed2f93d700157b4782","650c16f0f2faf8d7a0d14c09","651c1d5c56f3d779d1ab3197","null","null","<p style=""font-size: 60px; font-family: BACS"">bGuOAld</p>","","","","","","","","",""
"html-keyboard-response","51","330717","0.0-8.0-0.43","5caccaed2f93d700157b4782","650c16f0f2faf8d7a0d14c09","651c1d5c56f3d779d1ab3197","null","null","<p style=""font-size: 60px; font-family: BACS"">kCRmTRkY</p>","","","","","","","","",""
"html-keyboard-response","52","331718","0.0-8.0-0.44","5caccaed2f93d700157b4782","650c16f0f2faf8d7a0d14c09","651c1d5c56f3d779d1ab3197","null","null","<p style=""font-size: 60px; font-family: BACS"">dTmEDTmc</p>","","","","","","","","",""
"html-keyboard-response","53","332721","0.0-8.0-0.45","5caccaed2f93d700157b4782","650c16f0f2faf8d7a0d14c09","651c1d5c56f3d779d1ab3197","null","null","<p style=""font-size: 60px; font-family: BACS"">aNYmbYZJO</p>","","","","","","","","",""
"html-keyboard-response","54","333736","0.0-8.0-0.46","5caccaed2f93d700157b4782","650c16f0f2faf8d7a0d14c09","651c1d5c56f3d779d1ab3197","null","null","<p style=""font-size: 60px; font-family: BACS"">BATOcTRkY</p>","","","","","","","","",""
"html-keyboard-response","55","334739","0.0-8.0-0.47","5caccaed2f93d700157b4782","650c16f0f2faf8d7a0d14c09","651c1d5c56f3d779d1ab3197","null","null","<p style=""font-size: 60px; font-family: BACS"">lCbcmRDM</p>","","","","","","","","",""
"html-keyboard-response","56","335740","0.0-8.0-0.48","5caccaed2f93d700157b4782","650c16f0f2faf8d7a0d14c09","651c1d5c56f3d779d1ab3197","null","null","<p style=""font-size: 60px; font-family: BACS"">bGuOYZJO</p>","","","","","","","","",""
"html-keyboard-response","57","336741","0.0-8.0-0.49","5caccaed2f93d700157b4782","650c16f0f2faf8d7a0d14c09","651c1d5c56f3d779d1ab3197","null","null","<p style=""font-size: 60px; font-family: BACS"">BATOchEct</p>","","","","","","","","",""
"html-keyboard-response","58","337743","0.0-8.0-0.50","5caccaed2f93d700157b4782","650c16f0f2faf8d7a0d14c09","651c1d5c56f3d779d1ab3197","null","null","<p style=""font-size: 60px; font-family: BACS"">YLQmGcrdY</p>","","","","","","","","",""
"html-keyboard-response","59","338746","0.0-8.0-0.51","5caccaed2f93d700157b4782","650c16f0f2faf8d7a0d14c09","651c1d5c56f3d779d1ab3197","null","null","<p style=""font-size: 60px; font-family: BACS"">AlNUvcb</p>","","","","","","","","",""
"html-keyboard-response","60","339748","0.0-8.0-0.52","5caccaed2f93d700157b4782","650c16f0f2faf8d7a0d14c09","651c1d5c56f3d779d1ab3197","null","null","<p style=""font-size: 60px; font-family: BACS"">aNYmbrNlZ</p>","","","","","","","","",""
"html-keyboard-response","61","340749","0.0-8.0-0.53","5caccaed2f93d700157b4782","650c16f0f2faf8d7a0d14c09","651c1d5c56f3d779d1ab3197","null","null","<p style=""font-size: 60px; font-family: BACS"">OdlNmcrdY</p>","","","","","","","","",""
"html-keyboard-response","62","341751","0.0-8.0-0.54","5caccaed2f93d700157b4782","650c16f0f2faf8d7a0d14c09","651c1d5c56f3d779d1ab3197","null","null","<p style=""font-size: 60px; font-family: BACS"">YLQmGvcb</p>","","","","","","","","",""
"html-keyboard-response","63","342753","0.0-8.0-0.55","5caccaed2f93d700157b4782","650c16f0f2faf8d7a0d14c09","651c1d5c56f3d779d1ab3197","null","null","<p style=""font-size: 60px; font-family: BACS"">mBmlABCD</p>","","","","","","","","",""
"html-keyboard-response","64","343769","0.0-8.0-0.56","5caccaed2f93d700157b4782","650c16f0f2faf8d7a0d14c09","651c1d5c56f3d779d1ab3197","null","null","<p style=""font-size: 60px; font-family: BACS"">DOchlTRkY</p>","","","","","","","","",""
"html-keyboard-response","65","344784","0.0-8.0-0.57","5caccaed2f93d700157b4782","650c16f0f2faf8d7a0d14c09","651c1d5c56f3d779d1ab3197","null","null","<p style=""font-size: 60px; font-family: BACS"">KABABCD</p>","","","","","","","","",""
"html-keyboard-response","66","345786","0.0-8.0-0.58","5caccaed2f93d700157b4782","650c16f0f2faf8d7a0d14c09","651c1d5c56f3d779d1ab3197","null","null","<p style=""font-size: 60px; font-family: BACS"">rvAJYZJO</p>","","","","","","","","",""
"html-keyboard-response","67","346801","0.0-8.0-0.59","5caccaed2f93d700157b4782","650c16f0f2faf8d7a0d14c09","651c1d5c56f3d779d1ab3197","null","null","<p style=""font-size: 60px; font-family: BACS"">ALGZcrdY</p>","","","","","","","","",""
"html-keyboard-response","68","347803","0.0-8.0-0.60","5caccaed2f93d700157b4782","650c16f0f2faf8d7a0d14c09","651c1d5c56f3d779d1ab3197","null","null","<p style=""font-size: 60px; font-family: BACS"">chEDOTRkY</p>","","","","","","","","",""
"html-keyboard-response","69","348806","0.0-8.0-0.61","5caccaed2f93d700157b4782","650c16f0f2faf8d7a0d14c09","651c1d5c56f3d779d1ab3197","null","null","<p style=""font-size: 60px; font-family: BACS"">lCbcmBCD</p>","","","","","","","","",""
"html-keyboard-response","70","349809","0.0-8.0-0.62","5caccaed2f93d700157b4782","650c16f0f2faf8d7a0d14c09","651c1d5c56f3d779d1ab3197","null","null","<p style=""font-size: 60px; font-family: BACS"">AlNUcrdY</p>","","","","","","","","",""
"html-keyboard-response","71","350811","0.0-8.0-0.63","5caccaed2f93d700157b4782","650c16f0f2faf8d7a0d14c09","651c1d5c56f3d779d1ab3197","null","null","<p style=""font-size: 60px; font-family: BACS"">kCRmTmc</p>","","","","","","","","",""
"html-keyboard-response","72","351813","0.0-8.0-0.64","5caccaed2f93d700157b4782","650c16f0f2faf8d7a0d14c09","651c1d5c56f3d779d1ab3197","null","null","<p style=""font-size: 60px; font-family: BACS"">bGuOvcb</p>","","","","","","","","",""
"html-keyboard-response","73","352829","0.0-8.0-0.65","5caccaed2f93d700157b4782","650c16f0f2faf8d7a0d14c09","651c1d5c56f3d779d1ab3197","null","null","<p style=""font-size: 60px; font-family: BACS"">DOchlBCD</p>","","","","","","","","",""
"html-keyboard-response","74","353831","0.0-8.0-0.66","5caccaed2f93d700157b4782","650c16f0f2faf8d7a0d14c09","651c1d5c56f3d779d1ab3197","null","null","<p style=""font-size: 60px; font-family: BACS"">chEDORDM</p>","","","","","","","","",""
"html-keyboard-response","75","354832","0.0-8.0-0.67","5caccaed2f93d700157b4782","650c16f0f2faf8d7a0d14c09","651c1d5c56f3d779d1ab3197","null","null","<p style=""font-size: 60px; font-family: BACS"">BATOcTmc</p>","","","","","","","","",""
"html-keyboard-response","76","355835","0.0-8.0-0.68","5caccaed2f93d700157b4782","650c16f0f2faf8d7a0d14c09","651c1d5c56f3d779d1ab3197","null","null","<p style=""font-size: 60px; font-family: BACS"">dTmEDhEct</p>","","","","","","","","",""
"html-keyboard-response","77","356838","0.0-8.0-0.69","5caccaed2f93d700157b4782","650c16f0f2faf8d7a0d14c09","651c1d5c56f3d779d1ab3197","null","null","<p style=""font-size: 60px; font-family: BACS"">ALGZrNlZ</p>","","","","","","","","",""
"html-keyboard-response","78","357840","0.0-8.0-0.70","5caccaed2f93d700157b4782","650c16f0f2faf8d7a0d14c09","651c1d5c56f3d779d1ab3197","null","null","<p style=""font-size: 60px; font-family: BACS"">dTmEDBCD</p>","","","","","","","","",""
"html-keyboard-response","79","358843","0.0-8.0-0.71","5caccaed2f93d700157b4782","650c16f0f2faf8d7a0d14c09","651c1d5c56f3d779d1ab3197","null","null","<p style=""font-size: 60px; font-family: BACS"">mBmlATRkY</p>","","","","","","","","",""
"html-keyboard-response","80","359845","0.0-8.0-0.72","5caccaed2f93d700157b4782","650c16f0f2faf8d7a0d14c09","651c1d5c56f3d779d1ab3197","null","null","<p style=""font-size: 60px; font-family: BACS"">OdlNmAld</p>","","","","","","","","",""
"html-keyboard-response","81","360845","0.0-8.0-0.73","5caccaed2f93d700157b4782","650c16f0f2faf8d7a0d14c09","651c1d5c56f3d779d1ab3197","null","null","<p style=""font-size: 60px; font-family: BACS"">TKDkTRkY</p>","","","","","","","","",""
"html-keyboard-response","82","361846","0.0-8.0-0.74","5caccaed2f93d700157b4782","650c16f0f2faf8d7a0d14c09","651c1d5c56f3d779d1ab3197","null","null","<p style=""font-size: 60px; font-family: BACS"">YOZNYZJO</p>","","","","","","","","",""
"html-keyboard-response","83","362848","0.0-8.0-0.75","5caccaed2f93d700157b4782","650c16f0f2faf8d7a0d14c09","651c1d5c56f3d779d1ab3197","null","null","<p style=""font-size: 60px; font-family: BACS"">mBmlAhEct</p>","","","","","","","","",""
"html-keyboard-response","84","363851","0.0-8.0-0.76","5caccaed2f93d700157b4782","650c16f0f2faf8d7a0d14c09","651c1d5c56f3d779d1ab3197","null","null","<p style=""font-size: 60px; font-family: BACS"">AlNUrNlZ</p>","","","","","","","","",""
"html-keyboard-response","85","364852","0.0-8.0-0.77","5caccaed2f93d700157b4782","650c16f0f2faf8d7a0d14c09","651c1d5c56f3d779d1ab3197","null","null","<p style=""font-size: 60px; font-family: BACS"">OdlNmYZJO</p>","","","","","","","","",""
"html-keyboard-response","86","365855","0.0-8.0-0.78","5caccaed2f93d700157b4782","650c16f0f2faf8d7a0d14c09","651c1d5c56f3d779d1ab3197","null","null","<p style=""font-size: 60px; font-family: BACS"">ALGZAld</p>","","","","","","","","",""
"html-keyboard-response","87","366871","0.0-8.0-0.79","5caccaed2f93d700157b4782","650c16f0f2faf8d7a0d14c09","651c1d5c56f3d779d1ab3197","null","null","<p style=""font-size: 60px; font-family: BACS"">OdlNmvcb</p>","","","","","","","","",""
"html-keyboard-response","88","371066","0.0-9.0","5caccaed2f93d700157b4782","650c16f0f2faf8d7a0d14c09","651c1d5c56f3d779d1ab3197","4195"," ","<p>Great, you've seen the first block of words. You may now take a short break.</p>
      <p>Press the spacebar when you're ready to continue.</p>","","","","","","","","",""
"html-keyboard-response","89","372072","0.0-10.0-0.0","5caccaed2f93d700157b4782","650c16f0f2faf8d7a0d14c09","651c1d5c56f3d779d1ab3197","null","null","<p style=""font-size: 60px; font-family: BACS"">AZlLNrNlZ</p>","","","","","","","","",""
"html-keyboard-response","90","373074","0.0-10.0-0.1","5caccaed2f93d700157b4782","650c16f0f2faf8d7a0d14c09","651c1d5c56f3d779d1ab3197","null","null","<p style=""font-size: 60px; font-family: BACS"">lCbcmBCD</p>","","","","","","","","",""
"html-keyboard-response","91","374075","0.0-10.0-0.2","5caccaed2f93d700157b4782","650c16f0f2faf8d7a0d14c09","651c1d5c56f3d779d1ab3197","null","null","<p style=""font-size: 60px; font-family: BACS"">TKDkhEct</p>","","","","","","","","",""
"html-keyboard-response","92","375077","0.0-10.0-0.3","5caccaed2f93d700157b4782","650c16f0f2faf8d7a0d14c09","651c1d5c56f3d779d1ab3197","null","null","<p style=""font-size: 60px; font-family: BACS"">rvAJAld</p>","","","","","","","","",""
"html-keyboard-response","93","376079","0.0-10.0-0.4","5caccaed2f93d700157b4782","650c16f0f2faf8d7a0d14c09","651c1d5c56f3d779d1ab3197","null","null","<p style=""font-size: 60px; font-family: BACS"">AlNUvcb</p>","","","","","","","","",""
"html-keyboard-response","94","377080","0.0-10.0-0.5","5caccaed2f93d700157b4782","650c16f0f2faf8d7a0d14c09","651c1d5c56f3d779d1ab3197","null","null","<p style=""font-size: 60px; font-family: BACS"">DOchlRDM</p>","","","","","","","","",""
"html-keyboard-response","95","378083","0.0-10.0-0.6","5caccaed2f93d700157b4782","650c16f0f2faf8d7a0d14c09","651c1d5c56f3d779d1ab3197","null","null","<p style=""font-size: 60px; font-family: BACS"">OdlNmYZJO</p>","","","","","","","","",""
"html-keyboard-response","96","379099","0.0-10.0-0.7","5caccaed2f93d700157b4782","650c16f0f2faf8d7a0d14c09","651c1d5c56f3d779d1ab3197","null","null","<p style=""font-size: 60px; font-family: BACS"">mBmlATRkY</p>","","","","","","","","",""
"html-keyboard-response","97","380102","0.0-10.0-0.8","5caccaed2f93d700157b4782","650c16f0f2faf8d7a0d14c09","651c1d5c56f3d779d1ab3197","null","null","<p style=""font-size: 60px; font-family: BACS"">AZlLNcrdY</p>","","","","","","","","",""
"html-keyboard-response","98","381116","0.0-10.0-0.9","5caccaed2f93d700157b4782","650c16f0f2faf8d7a0d14c09","651c1d5c56f3d779d1ab3197","null","null","<p style=""font-size: 60px; font-family: BACS"">aNYmbYZJO</p>","","","","","","","","",""
"html-keyboard-response","99","382118","0.0-10.0-0.10","5caccaed2f93d700157b4782","650c16f0f2faf8d7a0d14c09","651c1d5c56f3d779d1ab3197","null","null","<p style=""font-size: 60px; font-family: BACS"">LuaUAld</p>","","","","","","","","",""
"html-keyboard-response","100","383120","0.0-10.0-0.11","5caccaed2f93d700157b4782","650c16f0f2faf8d7a0d14c09","651c1d5c56f3d779d1ab3197","null","null","<p style=""font-size: 60px; font-family: BACS"">AlNUrNlZ</p>","","","","","","","","",""
"html-keyboard-response","101","384125","0.0-10.0-0.12","5caccaed2f93d700157b4782","650c16f0f2faf8d7a0d14c09","651c1d5c56f3d779d1ab3197","null","null","<p style=""font-size: 60px; font-family: BACS"">ALGZYZJO</p>","","","","","","","","",""
"html-keyboard-response","102","385127","0.0-10.0-0.13","5caccaed2f93d700157b4782","650c16f0f2faf8d7a0d14c09","651c1d5c56f3d779d1ab3197","null","null","<p style=""font-size: 60px; font-family: BACS"">TKDkTmc</p>","","","","","","","","",""
"html-keyboard-response","103","386129","0.0-10.0-0.14","5caccaed2f93d700157b4782","650c16f0f2faf8d7a0d14c09","651c1d5c56f3d779d1ab3197","null","null","<p style=""font-size: 60px; font-family: BACS"">YLQmGvcb</p>","","","","","","","","",""
"html-keyboard-response","104","387134","0.0-10.0-0.15","5caccaed2f93d700157b4782","650c16f0f2faf8d7a0d14c09","651c1d5c56f3d779d1ab3197","null","null","<p style=""font-size: 60px; font-family: BACS"">lCbcmTRkY</p>","","","","","","","","",""
"html-keyboard-response","105","388136","0.0-10.0-0.16","5caccaed2f93d700157b4782","650c16f0f2faf8d7a0d14c09","651c1d5c56f3d779d1ab3197","null","null","<p style=""font-size: 60px; font-family: BACS"">YOZNrNlZ</p>","","","","","","","","",""
"html-keyboard-response","106","389138","0.0-10.0-0.17","5caccaed2f93d700157b4782","650c16f0f2faf8d7a0d14c09","651c1d5c56f3d779d1ab3197","null","null","<p style=""font-size: 60px; font-family: BACS"">dTmEDBCD</p>","","","","","","","","",""
"html-keyboard-response","107","390139","0.0-10.0-0.18","5caccaed2f93d700157b4782","650c16f0f2faf8d7a0d14c09","651c1d5c56f3d779d1ab3197","null","null","<p style=""font-size: 60px; font-family: BACS"">KABARDM</p>","","","","","","","","",""
"html-keyboard-response","108","391144","0.0-10.0-0.19","5caccaed2f93d700157b4782","650c16f0f2faf8d7a0d14c09","651c1d5c56f3d779d1ab3197","null","null","<p style=""font-size: 60px; font-family: BACS"">lCbcmTmc</p>","","","","","","","","",""
"html-keyboard-response","109","392146","0.0-10.0-0.20","5caccaed2f93d700157b4782","650c16f0f2faf8d7a0d14c09","651c1d5c56f3d779d1ab3197","null","null","<p style=""font-size: 60px; font-family: BACS"">YOZNAld</p>","","","","","","","","",""
"html-keyboard-response","110","393160","0.0-10.0-0.21","5caccaed2f93d700157b4782","650c16f0f2faf8d7a0d14c09","651c1d5c56f3d779d1ab3197","null","null","<p style=""font-size: 60px; font-family: BACS"">rvAJcrdY</p>","","","","","","","","",""
"html-keyboard-response","111","394161","0.0-10.0-0.22","5caccaed2f93d700157b4782","650c16f0f2faf8d7a0d14c09","651c1d5c56f3d779d1ab3197","null","null","<p style=""font-size: 60px; font-family: BACS"">mBmlARDM</p>","","","","","","","","",""
"html-keyboard-response","112","395164","0.0-10.0-0.23","5caccaed2f93d700157b4782","650c16f0f2faf8d7a0d14c09","651c1d5c56f3d779d1ab3197","null","null","<p style=""font-size: 60px; font-family: BACS"">OdlNmcrdY</p>","","","","","","","","",""
"html-keyboard-response","113","396166","0.0-10.0-0.24","5caccaed2f93d700157b4782","650c16f0f2faf8d7a0d14c09","651c1d5c56f3d779d1ab3197","null","null","<p style=""font-size: 60px; font-family: BACS"">DOchlTRkY</p>","","","","","","","","",""
"html-keyboard-response","114","397181","0.0-10.0-0.25","5caccaed2f93d700157b4782","650c16f0f2faf8d7a0d14c09","651c1d5c56f3d779d1ab3197","null","null","<p style=""font-size: 60px; font-family: BACS"">AlNUYZJO</p>","","","","","","","","",""
"html-keyboard-response","115","398184","0.0-10.0-0.26","5caccaed2f93d700157b4782","650c16f0f2faf8d7a0d14c09","651c1d5c56f3d779d1ab3197","null","null","<p style=""font-size: 60px; font-family: BACS"">aNYmbcrdY</p>","","","","","","","","",""
"html-keyboard-response","116","399188","0.0-10.0-0.27","5caccaed2f93d700157b4782","650c16f0f2faf8d7a0d14c09","651c1d5c56f3d779d1ab3197","null","null","<p style=""font-size: 60px; font-family: BACS"">bGuOvcb</p>","","","","","","","","",""
"html-keyboard-response","117","400190","0.0-10.0-0.28","5caccaed2f93d700157b4782","650c16f0f2faf8d7a0d14c09","651c1d5c56f3d779d1ab3197","null","null","<p style=""font-size: 60px; font-family: BACS"">LuaUYZJO</p>","","","","","","","","",""
"html-keyboard-response","118","401191","0.0-10.0-0.29","5caccaed2f93d700157b4782","650c16f0f2faf8d7a0d14c09","651c1d5c56f3d779d1ab3197","null","null","<p style=""font-size: 60px; font-family: BACS"">TKDkTRkY</p>","","","","","","","","",""
"html-keyboard-response","119","402207","0.0-10.0-0.30","5caccaed2f93d700157b4782","650c16f0f2faf8d7a0d14c09","651c1d5c56f3d779d1ab3197","null","null","<p style=""font-size: 60px; font-family: BACS"">BATOcBCD</p>","","","","","","","","",""
"html-keyboard-response","120","403209","0.0-10.0-0.31","5caccaed2f93d700157b4782","650c16f0f2faf8d7a0d14c09","651c1d5c56f3d779d1ab3197","null","null","<p style=""font-size: 60px; font-family: BACS"">lCbcmRDM</p>","","","","","","","","",""
"html-keyboard-response","121","404224","0.0-10.0-0.32","5caccaed2f93d700157b4782","650c16f0f2faf8d7a0d14c09","651c1d5c56f3d779d1ab3197","null","null","<p style=""font-size: 60px; font-family: BACS"">dTmEDTmc</p>","","","","","","","","",""
"html-keyboard-response","122","405227","0.0-10.0-0.33","5caccaed2f93d700157b4782","650c16f0f2faf8d7a0d14c09","651c1d5c56f3d779d1ab3197","null","null","<p style=""font-size: 60px; font-family: BACS"">YLQmGrNlZ</p>","","","","","","","","",""
"html-keyboard-response","123","406229","0.0-10.0-0.34","5caccaed2f93d700157b4782","650c16f0f2faf8d7a0d14c09","651c1d5c56f3d779d1ab3197","null","null","<p style=""font-size: 60px; font-family: BACS"">mBmlAhEct</p>","","","","","","","","",""
"html-keyboard-response","124","407230","0.0-10.0-0.35","5caccaed2f93d700157b4782","650c16f0f2faf8d7a0d14c09","651c1d5c56f3d779d1ab3197","null","null","<p style=""font-size: 60px; font-family: BACS"">chEDOTRkY</p>","","","","","","","","",""
"html-keyboard-response","125","408234","0.0-10.0-0.36","5caccaed2f93d700157b4782","650c16f0f2faf8d7a0d14c09","651c1d5c56f3d779d1ab3197","null","null","<p style=""font-size: 60px; font-family: BACS"">DOchlhEct</p>","","","","","","","","",""
"html-keyboard-response","126","409235","0.0-10.0-0.37","5caccaed2f93d700157b4782","650c16f0f2faf8d7a0d14c09","651c1d5c56f3d779d1ab3197","null","null","<p style=""font-size: 60px; font-family: BACS"">kCRmTRkY</p>","","","","","","","","",""
"html-keyboard-response","127","410235","0.0-10.0-0.38","5caccaed2f93d700157b4782","650c16f0f2faf8d7a0d14c09","651c1d5c56f3d779d1ab3197","null","null","<p style=""font-size: 60px; font-family: BACS"">dTmEDRDM</p>","","","","","","","","",""
"html-keyboard-response","128","411236","0.0-10.0-0.39","5caccaed2f93d700157b4782","650c16f0f2faf8d7a0d14c09","651c1d5c56f3d779d1ab3197","null","null","<p style=""font-size: 60px; font-family: BACS"">mBmlABCD</p>","","","","","","","","",""
"html-keyboard-response","129","412251","0.0-10.0-0.40","5caccaed2f93d700157b4782","650c16f0f2faf8d7a0d14c09","651c1d5c56f3d779d1ab3197","null","null","<p style=""font-size: 60px; font-family: BACS"">ALGZcrdY</p>","","","","","","","","",""
"html-keyboard-response","130","413254","0.0-10.0-0.41","5caccaed2f93d700157b4782","650c16f0f2faf8d7a0d14c09","651c1d5c56f3d779d1ab3197","null","null","<p style=""font-size: 60px; font-family: BACS"">KABATRkY</p>","","","","","","","","",""
"html-keyboard-response","131","414257","0.0-10.0-0.42","5caccaed2f93d700157b4782","650c16f0f2faf8d7a0d14c09","651c1d5c56f3d779d1ab3197","null","null","<p style=""font-size: 60px; font-family: BACS"">mARMRDM</p>","","","","","","","","",""
"html-keyboard-response","132","415273","0.0-10.0-0.43","5caccaed2f93d700157b4782","650c16f0f2faf8d7a0d14c09","651c1d5c56f3d779d1ab3197","null","null","<p style=""font-size: 60px; font-family: BACS"">aNYmbvcb</p>","","","","","","","","",""
"html-keyboard-response","133","416274","0.0-10.0-0.44","5caccaed2f93d700157b4782","650c16f0f2faf8d7a0d14c09","651c1d5c56f3d779d1ab3197","null","null","<p style=""font-size: 60px; font-family: BACS"">TKDkBCD</p>","","","","","","","","",""
"html-keyboard-response","134","417289","0.0-10.0-0.45","5caccaed2f93d700157b4782","650c16f0f2faf8d7a0d14c09","651c1d5c56f3d779d1ab3197","null","null","<p style=""font-size: 60px; font-family: BACS"">kCRmhEct</p>","","","","","","","","",""
"html-keyboard-response","135","418304","0.0-10.0-0.46","5caccaed2f93d700157b4782","650c16f0f2faf8d7a0d14c09","651c1d5c56f3d779d1ab3197","null","null","<p style=""font-size: 60px; font-family: BACS"">LuaUvcb</p>","","","","","","","","",""
"html-keyboard-response","136","419319","0.0-10.0-0.47","5caccaed2f93d700157b4782","650c16f0f2faf8d7a0d14c09","651c1d5c56f3d779d1ab3197","null","null","<p style=""font-size: 60px; font-family: BACS"">chEDOhEct</p>","","","","","","","","",""
"html-keyboard-response","137","420335","0.0-10.0-0.48","5caccaed2f93d700157b4782","650c16f0f2faf8d7a0d14c09","651c1d5c56f3d779d1ab3197","null","null","<p style=""font-size: 60px; font-family: BACS"">YOZNvcb</p>","","","","","","","","",""
"html-keyboard-response","138","421336","0.0-10.0-0.49","5caccaed2f93d700157b4782","650c16f0f2faf8d7a0d14c09","651c1d5c56f3d779d1ab3197","null","null","<p style=""font-size: 60px; font-family: BACS"">ALGZrNlZ</p>","","","","","","","","",""
"html-keyboard-response","139","422336","0.0-10.0-0.50","5caccaed2f93d700157b4782","650c16f0f2faf8d7a0d14c09","651c1d5c56f3d779d1ab3197","null","null","<p style=""font-size: 60px; font-family: BACS"">mARMTmc</p>","","","","","","","","",""
"html-keyboard-response","140","423341","0.0-10.0-0.51","5caccaed2f93d700157b4782","650c16f0f2faf8d7a0d14c09","651c1d5c56f3d779d1ab3197","null","null","<p style=""font-size: 60px; font-family: BACS"">AlNUcrdY</p>","","","","","","","","",""
"html-keyboard-response","141","424343","0.0-10.0-0.52","5caccaed2f93d700157b4782","650c16f0f2faf8d7a0d14c09","651c1d5c56f3d779d1ab3197","null","null","<p style=""font-size: 60px; font-family: BACS"">kCRmRDM</p>","","","","","","","","",""
"html-keyboard-response","142","425345","0.0-10.0-0.53","5caccaed2f93d700157b4782","650c16f0f2faf8d7a0d14c09","651c1d5c56f3d779d1ab3197","null","null","<p style=""font-size: 60px; font-family: BACS"">BATOchEct</p>","","","","","","","","",""
"html-keyboard-response","143","426349","0.0-10.0-0.54","5caccaed2f93d700157b4782","650c16f0f2faf8d7a0d14c09","651c1d5c56f3d779d1ab3197","null","null","<p style=""font-size: 60px; font-family: BACS"">rvAJrNlZ</p>","","","","","","","","",""
"html-keyboard-response","144","427363","0.0-10.0-0.55","5caccaed2f93d700157b4782","650c16f0f2faf8d7a0d14c09","651c1d5c56f3d779d1ab3197","null","null","<p style=""font-size: 60px; font-family: BACS"">bGuOAld</p>","","","","","","","","",""
"html-keyboard-response","145","428365","0.0-10.0-0.56","5caccaed2f93d700157b4782","650c16f0f2faf8d7a0d14c09","651c1d5c56f3d779d1ab3197","null","null","<p style=""font-size: 60px; font-family: BACS"">DOchlBCD</p>","","","","","","","","",""
"html-keyboard-response","146","429367","0.0-10.0-0.57","5caccaed2f93d700157b4782","650c16f0f2faf8d7a0d14c09","651c1d5c56f3d779d1ab3197","null","null","<p style=""font-size: 60px; font-family: BACS"">mARMhEct</p>","","","","","","","","",""
"html-keyboard-response","147","430370","0.0-10.0-0.58","5caccaed2f93d700157b4782","650c16f0f2faf8d7a0d14c09","651c1d5c56f3d779d1ab3197","null","null","<p style=""font-size: 60px; font-family: BACS"">AZlLNvcb</p>","","","","","","","","",""
"html-keyboard-response","148","431372","0.0-10.0-0.59","5caccaed2f93d700157b4782","650c16f0f2faf8d7a0d14c09","651c1d5c56f3d779d1ab3197","null","null","<p style=""font-size: 60px; font-family: BACS"">ALGZAld</p>","","","","","","","","",""
"html-keyboard-response","149","432374","0.0-10.0-0.60","5caccaed2f93d700157b4782","650c16f0f2faf8d7a0d14c09","651c1d5c56f3d779d1ab3197","null","null","<p style=""font-size: 60px; font-family: BACS"">mARMBCD</p>","","","","","","","","",""
"html-keyboard-response","150","433376","0.0-10.0-0.61","5caccaed2f93d700157b4782","650c16f0f2faf8d7a0d14c09","651c1d5c56f3d779d1ab3197","null","null","<p style=""font-size: 60px; font-family: BACS"">kCRmTmc</p>","","","","","","","","",""
"html-keyboard-response","151","434380","0.0-10.0-0.62","5caccaed2f93d700157b4782","650c16f0f2faf8d7a0d14c09","651c1d5c56f3d779d1ab3197","null","null","<p style=""font-size: 60px; font-family: BACS"">LuaUrNlZ</p>","","","","","","","","",""
"html-keyboard-response","152","435380","0.0-10.0-0.63","5caccaed2f93d700157b4782","650c16f0f2faf8d7a0d14c09","651c1d5c56f3d779d1ab3197","null","null","<p style=""font-size: 60px; font-family: BACS"">KABATmc</p>","","","","","","","","",""
"html-keyboard-response","153","436384","0.0-10.0-0.64","5caccaed2f93d700157b4782","650c16f0f2faf8d7a0d14c09","651c1d5c56f3d779d1ab3197","null","null","<p style=""font-size: 60px; font-family: BACS"">bGuOcrdY</p>","","","","","","","","",""
"html-keyboard-response","154","437388","0.0-10.0-0.65","5caccaed2f93d700157b4782","650c16f0f2faf8d7a0d14c09","651c1d5c56f3d779d1ab3197","null","null","<p style=""font-size: 60px; font-family: BACS"">chEDORDM</p>","","","","","","","","",""
"html-keyboard-response","155","438389","0.0-10.0-0.66","5caccaed2f93d700157b4782","650c16f0f2faf8d7a0d14c09","651c1d5c56f3d779d1ab3197","null","null","<p style=""font-size: 60px; font-family: BACS"">dTmEDhEct</p>","","","","","","","","",""
"html-keyboard-response","156","439394","0.0-10.0-0.67","5caccaed2f93d700157b4782","650c16f0f2faf8d7a0d14c09","651c1d5c56f3d779d1ab3197","null","null","<p style=""font-size: 60px; font-family: BACS"">KABABCD</p>","","","","","","","","",""
"html-keyboard-response","157","440397","0.0-10.0-0.68","5caccaed2f93d700157b4782","650c16f0f2faf8d7a0d14c09","651c1d5c56f3d779d1ab3197","null","null","<p style=""font-size: 60px; font-family: BACS"">bGuOYZJO</p>","","","","","","","","",""
"html-keyboard-response","158","441398","0.0-10.0-0.69","5caccaed2f93d700157b4782","650c16f0f2faf8d7a0d14c09","651c1d5c56f3d779d1ab3197","null","null","<p style=""font-size: 60px; font-family: BACS"">YLQmGAld</p>","","","","","","","","",""
"html-keyboard-response","159","442402","0.0-10.0-0.70","5caccaed2f93d700157b4782","650c16f0f2faf8d7a0d14c09","651c1d5c56f3d779d1ab3197","null","null","<p style=""font-size: 60px; font-family: BACS"">YOZNYZJO</p>","","","","","","","","",""
"html-keyboard-response","160","443404","0.0-10.0-0.71","5caccaed2f93d700157b4782","650c16f0f2faf8d7a0d14c09","651c1d5c56f3d779d1ab3197","null","null","<p style=""font-size: 60px; font-family: BACS"">AZlLNAld</p>","","","","","","","","",""
"html-keyboard-response","161","444407","0.0-10.0-0.72","5caccaed2f93d700157b4782","650c16f0f2faf8d7a0d14c09","651c1d5c56f3d779d1ab3197","null","null","<p style=""font-size: 60px; font-family: BACS"">BATOcTmc</p>","","","","","","","","",""
"html-keyboard-response","162","445410","0.0-10.0-0.73","5caccaed2f93d700157b4782","650c16f0f2faf8d7a0d14c09","651c1d5c56f3d779d1ab3197","null","null","<p style=""font-size: 60px; font-family: BACS"">rvAJYZJO</p>","","","","","","","","",""
"html-keyboard-response","163","446414","0.0-10.0-0.74","5caccaed2f93d700157b4782","650c16f0f2faf8d7a0d14c09","651c1d5c56f3d779d1ab3197","null","null","<p style=""font-size: 60px; font-family: BACS"">OdlNmAld</p>","","","","","","","","",""
"html-keyboard-response","164","447416","0.0-10.0-0.75","5caccaed2f93d700157b4782","650c16f0f2faf8d7a0d14c09","651c1d5c56f3d779d1ab3197","null","null","<p style=""font-size: 60px; font-family: BACS"">aNYmbrNlZ</p>","","","","","","","","",""
"html-keyboard-response","165","448419","0.0-10.0-0.76","5caccaed2f93d700157b4782","650c16f0f2faf8d7a0d14c09","651c1d5c56f3d779d1ab3197","null","null","<p style=""font-size: 60px; font-family: BACS"">OdlNmvcb</p>","","","","","","","","",""
"html-keyboard-response","166","449421","0.0-10.0-0.77","5caccaed2f93d700157b4782","650c16f0f2faf8d7a0d14c09","651c1d5c56f3d779d1ab3197","null","null","<p style=""font-size: 60px; font-family: BACS"">chEDOTmc</p>","","","","","","","","",""
"html-keyboard-response","167","450423","0.0-10.0-0.78","5caccaed2f93d700157b4782","650c16f0f2faf8d7a0d14c09","651c1d5c56f3d779d1ab3197","null","null","<p style=""font-size: 60px; font-family: BACS"">BATOcTRkY</p>","","","","","","","","",""
"html-keyboard-response","168","451424","0.0-10.0-0.79","5caccaed2f93d700157b4782","650c16f0f2faf8d7a0d14c09","651c1d5c56f3d779d1ab3197","null","null","<p style=""font-size: 60px; font-family: BACS"">YLQmGcrdY</p>","","","","","","","","",""
"html-keyboard-response","169","485541","0.0-11.0","5caccaed2f93d700157b4782","650c16f0f2faf8d7a0d14c09","651c1d5c56f3d779d1ab3197","34117"," ","<p>Great, you've seen the second block of words. You may now take a short break.</p>
      <p>Press the spacebar when you're ready to continue.</p>","","","","","","","","",""
"html-keyboard-response","170","486557","0.0-12.0-0.0","5caccaed2f93d700157b4782","650c16f0f2faf8d7a0d14c09","651c1d5c56f3d779d1ab3197","null","null","<p style=""font-size: 60px; font-family: BACS"">YOZNAld</p>","","","","","","","","",""
"html-keyboard-response","171","487560","0.0-12.0-0.1","5caccaed2f93d700157b4782","650c16f0f2faf8d7a0d14c09","651c1d5c56f3d779d1ab3197","null","null","<p style=""font-size: 60px; font-family: BACS"">chEDOTmc</p>","","","","","","","","",""
"html-keyboard-response","172","488565","0.0-12.0-0.2","5caccaed2f93d700157b4782","650c16f0f2faf8d7a0d14c09","651c1d5c56f3d779d1ab3197","null","null","<p style=""font-size: 60px; font-family: BACS"">BATOcBCD</p>","","","","","","","","",""
"html-keyboard-response","173","489566","0.0-12.0-0.3","5caccaed2f93d700157b4782","650c16f0f2faf8d7a0d14c09","651c1d5c56f3d779d1ab3197","null","null","<p style=""font-size: 60px; font-family: BACS"">mBmlAhEct</p>","","","","","","","","",""
"html-keyboard-response","174","490568","0.0-12.0-0.4","5caccaed2f93d700157b4782","650c16f0f2faf8d7a0d14c09","651c1d5c56f3d779d1ab3197","null","null","<p style=""font-size: 60px; font-family: BACS"">AZlLNcrdY</p>","","","","","","","","",""
"html-keyboard-response","175","491570","0.0-12.0-0.5","5caccaed2f93d700157b4782","650c16f0f2faf8d7a0d14c09","651c1d5c56f3d779d1ab3197","null","null","<p style=""font-size: 60px; font-family: BACS"">KABARDM</p>","","","","","","","","",""
"html-keyboard-response","176","492573","0.0-12.0-0.6","5caccaed2f93d700157b4782","650c16f0f2faf8d7a0d14c09","651c1d5c56f3d779d1ab3197","null","null","<p style=""font-size: 60px; font-family: BACS"">aNYmbvcb</p>","","","","","","","","",""
"html-keyboard-response","177","493575","0.0-12.0-0.7","5caccaed2f93d700157b4782","650c16f0f2faf8d7a0d14c09","651c1d5c56f3d779d1ab3197","null","null","<p style=""font-size: 60px; font-family: BACS"">rvAJcrdY</p>","","","","","","","","",""
"html-keyboard-response","178","494576","0.0-12.0-0.8","5caccaed2f93d700157b4782","650c16f0f2faf8d7a0d14c09","651c1d5c56f3d779d1ab3197","null","null","<p style=""font-size: 60px; font-family: BACS"">OdlNmYZJO</p>","","","","","","","","",""
"html-keyboard-response","179","495591","0.0-12.0-0.9","5caccaed2f93d700157b4782","650c16f0f2faf8d7a0d14c09","651c1d5c56f3d779d1ab3197","null","null","<p style=""font-size: 60px; font-family: BACS"">TKDkTmc</p>","","","","","","","","",""
"html-keyboard-response","180","496605","0.0-12.0-0.10","5caccaed2f93d700157b4782","650c16f0f2faf8d7a0d14c09","651c1d5c56f3d779d1ab3197","null","null","<p style=""font-size: 60px; font-family: BACS"">LuaUvcb</p>","","","","","","","","",""
"html-keyboard-response","181","497607","0.0-12.0-0.11","5caccaed2f93d700157b4782","650c16f0f2faf8d7a0d14c09","651c1d5c56f3d779d1ab3197","null","null","<p style=""font-size: 60px; font-family: BACS"">YOZNrNlZ</p>","","","","","","","","",""
"html-keyboard-response","182","498610","0.0-12.0-0.12","5caccaed2f93d700157b4782","650c16f0f2faf8d7a0d14c09","651c1d5c56f3d779d1ab3197","null","null","<p style=""font-size: 60px; font-family: BACS"">YLQmGAld</p>","","","","","","","","",""
"html-keyboard-response","183","499625","0.0-12.0-0.13","5caccaed2f93d700157b4782","650c16f0f2faf8d7a0d14c09","651c1d5c56f3d779d1ab3197","null","null","<p style=""font-size: 60px; font-family: BACS"">mBmlABCD</p>","","","","","","","","",""
"html-keyboard-response","184","500630","0.0-12.0-0.14","5caccaed2f93d700157b4782","650c16f0f2faf8d7a0d14c09","651c1d5c56f3d779d1ab3197","null","null","<p style=""font-size: 60px; font-family: BACS"">rvAJrNlZ</p>","","","","","","","","",""
"html-keyboard-response","185","501645","0.0-12.0-0.15","5caccaed2f93d700157b4782","650c16f0f2faf8d7a0d14c09","651c1d5c56f3d779d1ab3197","null","null","<p style=""font-size: 60px; font-family: BACS"">lCbcmBCD</p>","","","","","","","","",""
"html-keyboard-response","186","502646","0.0-12.0-0.16","5caccaed2f93d700157b4782","650c16f0f2faf8d7a0d14c09","651c1d5c56f3d779d1ab3197","null","null","<p style=""font-size: 60px; font-family: BACS"">OdlNmcrdY</p>","","","","","","","","",""
"html-keyboard-response","187","503649","0.0-12.0-0.17","5caccaed2f93d700157b4782","650c16f0f2faf8d7a0d14c09","651c1d5c56f3d779d1ab3197","null","null","<p style=""font-size: 60px; font-family: BACS"">BATOcTmc</p>","","","","","","","","",""
"html-keyboard-response","188","504650","0.0-12.0-0.18","5caccaed2f93d700157b4782","650c16f0f2faf8d7a0d14c09","651c1d5c56f3d779d1ab3197","null","null","<p style=""font-size: 60px; font-family: BACS"">lCbcmTRkY</p>","","","","","","","","",""
"html-keyboard-response","189","505653","0.0-12.0-0.19","5caccaed2f93d700157b4782","650c16f0f2faf8d7a0d14c09","651c1d5c56f3d779d1ab3197","null","null","<p style=""font-size: 60px; font-family: BACS"">bGuOvcb</p>","","","","","","","","",""
"html-keyboard-response","190","506669","0.0-12.0-0.20","5caccaed2f93d700157b4782","650c16f0f2faf8d7a0d14c09","651c1d5c56f3d779d1ab3197","null","null","<p style=""font-size: 60px; font-family: BACS"">dTmEDTmc</p>","","","","","","","","",""
"html-keyboard-response","191","507670","0.0-12.0-0.21","5caccaed2f93d700157b4782","650c16f0f2faf8d7a0d14c09","651c1d5c56f3d779d1ab3197","null","null","<p style=""font-size: 60px; font-family: BACS"">chEDOhEct</p>","","","","","","","","",""
"html-keyboard-response","192","508673","0.0-12.0-0.22","5caccaed2f93d700157b4782","650c16f0f2faf8d7a0d14c09","651c1d5c56f3d779d1ab3197","null","null","<p style=""font-size: 60px; font-family: BACS"">LuaUYZJO</p>","","","","","","","","",""
"html-keyboard-response","193","509675","0.0-12.0-0.23","5caccaed2f93d700157b4782","650c16f0f2faf8d7a0d14c09","651c1d5c56f3d779d1ab3197","null","null","<p style=""font-size: 60px; font-family: BACS"">YLQmGvcb</p>","","","","","","","","",""
"html-keyboard-response","194","510678","0.0-12.0-0.24","5caccaed2f93d700157b4782","650c16f0f2faf8d7a0d14c09","651c1d5c56f3d779d1ab3197","null","null","<p style=""font-size: 60px; font-family: BACS"">DOchlRDM</p>","","","","","","","","",""
"html-keyboard-response","195","511682","0.0-12.0-0.25","5caccaed2f93d700157b4782","650c16f0f2faf8d7a0d14c09","651c1d5c56f3d779d1ab3197","null","null","<p style=""font-size: 60px; font-family: BACS"">rvAJYZJO</p>","","","","","","","","",""
"html-keyboard-response","196","512696","0.0-12.0-0.26","5caccaed2f93d700157b4782","650c16f0f2faf8d7a0d14c09","651c1d5c56f3d779d1ab3197","null","null","<p style=""font-size: 60px; font-family: BACS"">KABATRkY</p>","","","","","","","","",""
"html-keyboard-response","197","513711","0.0-12.0-0.27","5caccaed2f93d700157b4782","650c16f0f2faf8d7a0d14c09","651c1d5c56f3d779d1ab3197","null","null","<p style=""font-size: 60px; font-family: BACS"">TKDkBCD</p>","","","","","","","","",""
"html-keyboard-response","198","514713","0.0-12.0-0.28","5caccaed2f93d700157b4782","650c16f0f2faf8d7a0d14c09","651c1d5c56f3d779d1ab3197","null","null","<p style=""font-size: 60px; font-family: BACS"">chEDORDM</p>","","","","","","","","",""
"html-keyboard-response","199","515715","0.0-12.0-0.29","5caccaed2f93d700157b4782","650c16f0f2faf8d7a0d14c09","651c1d5c56f3d779d1ab3197","null","null","<p style=""font-size: 60px; font-family: BACS"">kCRmhEct</p>","","","","","","","","",""
"html-keyboard-response","200","516716","0.0-12.0-0.30","5caccaed2f93d700157b4782","650c16f0f2faf8d7a0d14c09","651c1d5c56f3d779d1ab3197","null","null","<p style=""font-size: 60px; font-family: BACS"">YOZNvcb</p>","","","","","","","","",""
"html-keyboard-response","201","517732","0.0-12.0-0.31","5caccaed2f93d700157b4782","650c16f0f2faf8d7a0d14c09","651c1d5c56f3d779d1ab3197","null","null","<p style=""font-size: 60px; font-family: BACS"">kCRmRDM</p>","","","","","","","","",""
"html-keyboard-response","202","518734","0.0-12.0-0.32","5caccaed2f93d700157b4782","650c16f0f2faf8d7a0d14c09","651c1d5c56f3d779d1ab3197","null","null","<p style=""font-size: 60px; font-family: BACS"">bGuOYZJO</p>","","","","","","","","",""
"html-keyboard-response","203","519739","0.0-12.0-0.33","5caccaed2f93d700157b4782","650c16f0f2faf8d7a0d14c09","651c1d5c56f3d779d1ab3197","null","null","<p style=""font-size: 60px; font-family: BACS"">mARMhEct</p>","","","","","","","","",""
"html-keyboard-response","204","520742","0.0-12.0-0.34","5caccaed2f93d700157b4782","650c16f0f2faf8d7a0d14c09","651c1d5c56f3d779d1ab3197","null","null","<p style=""font-size: 60px; font-family: BACS"">TKDkTRkY</p>","","","","","","","","",""
"html-keyboard-response","205","521743","0.0-12.0-0.35","5caccaed2f93d700157b4782","650c16f0f2faf8d7a0d14c09","651c1d5c56f3d779d1ab3197","null","null","<p style=""font-size: 60px; font-family: BACS"">LuaUrNlZ</p>","","","","","","","","",""
"html-keyboard-response","206","522745","0.0-12.0-0.36","5caccaed2f93d700157b4782","650c16f0f2faf8d7a0d14c09","651c1d5c56f3d779d1ab3197","null","null","<p style=""font-size: 60px; font-family: BACS"">rvAJAld</p>","","","","","","","","",""
"html-keyboard-response","207","523747","0.0-12.0-0.37","5caccaed2f93d700157b4782","650c16f0f2faf8d7a0d14c09","651c1d5c56f3d779d1ab3197","null","null","<p style=""font-size: 60px; font-family: BACS"">OdlNmvcb</p>","","","","","","","","",""
"html-keyboard-response","208","524748","0.0-12.0-0.38","5caccaed2f93d700157b4782","650c16f0f2faf8d7a0d14c09","651c1d5c56f3d779d1ab3197","null","null","<p style=""font-size: 60px; font-family: BACS"">LuaUAld</p>","","","","","","","","",""
"html-keyboard-response","209","525750","0.0-12.0-0.39","5caccaed2f93d700157b4782","650c16f0f2faf8d7a0d14c09","651c1d5c56f3d779d1ab3197","null","null","<p style=""font-size: 60px; font-family: BACS"">mBmlARDM</p>","","","","","","","","",""
"html-keyboard-response","210","526752","0.0-12.0-0.40","5caccaed2f93d700157b4782","650c16f0f2faf8d7a0d14c09","651c1d5c56f3d779d1ab3197","null","null","<p style=""font-size: 60px; font-family: BACS"">YLQmGcrdY</p>","","","","","","","","",""
"html-keyboard-response","211","527755","0.0-12.0-0.41","5caccaed2f93d700157b4782","650c16f0f2faf8d7a0d14c09","651c1d5c56f3d779d1ab3197","null","null","<p style=""font-size: 60px; font-family: BACS"">kCRmTmc</p>","","","","","","","","",""
"html-keyboard-response","212","528756","0.0-12.0-0.42","5caccaed2f93d700157b4782","650c16f0f2faf8d7a0d14c09","651c1d5c56f3d779d1ab3197","null","null","<p style=""font-size: 60px; font-family: BACS"">ALGZrNlZ</p>","","","","","","","","",""
"html-keyboard-response","213","529760","0.0-12.0-0.43","5caccaed2f93d700157b4782","650c16f0f2faf8d7a0d14c09","651c1d5c56f3d779d1ab3197","null","null","<p style=""font-size: 60px; font-family: BACS"">BATOcTRkY</p>","","","","","","","","",""
"html-keyboard-response","214","530763","0.0-12.0-0.44","5caccaed2f93d700157b4782","650c16f0f2faf8d7a0d14c09","651c1d5c56f3d779d1ab3197","null","null","<p style=""font-size: 60px; font-family: BACS"">KABATmc</p>","","","","","","","","",""
"html-keyboard-response","215","531764","0.0-12.0-0.45","5caccaed2f93d700157b4782","650c16f0f2faf8d7a0d14c09","651c1d5c56f3d779d1ab3197","null","null","<p style=""font-size: 60px; font-family: BACS"">AZlLNAld</p>","","","","","","","","",""
"html-keyboard-response","216","532767","0.0-12.0-0.46","5caccaed2f93d700157b4782","650c16f0f2faf8d7a0d14c09","651c1d5c56f3d779d1ab3197","null","null","<p style=""font-size: 60px; font-family: BACS"">YOZNYZJO</p>","","","","","","","","",""
"html-keyboard-response","217","533771","0.0-12.0-0.47","5caccaed2f93d700157b4782","650c16f0f2faf8d7a0d14c09","651c1d5c56f3d779d1ab3197","null","null","<p style=""font-size: 60px; font-family: BACS"">lCbcmRDM</p>","","","","","","","","",""
"html-keyboard-response","218","534774","0.0-12.0-0.48","5caccaed2f93d700157b4782","650c16f0f2faf8d7a0d14c09","651c1d5c56f3d779d1ab3197","null","null","<p style=""font-size: 60px; font-family: BACS"">aNYmbcrdY</p>","","","","","","","","",""
"html-keyboard-response","219","535777","0.0-12.0-0.49","5caccaed2f93d700157b4782","650c16f0f2faf8d7a0d14c09","651c1d5c56f3d779d1ab3197","null","null","<p style=""font-size: 60px; font-family: BACS"">bGuOAld</p>","","","","","","","","",""
"html-keyboard-response","220","536779","0.0-12.0-0.50","5caccaed2f93d700157b4782","650c16f0f2faf8d7a0d14c09","651c1d5c56f3d779d1ab3197","null","null","<p style=""font-size: 60px; font-family: BACS"">dTmEDBCD</p>","","","","","","","","",""
"html-keyboard-response","221","537793","0.0-12.0-0.51","5caccaed2f93d700157b4782","650c16f0f2faf8d7a0d14c09","651c1d5c56f3d779d1ab3197","null","null","<p style=""font-size: 60px; font-family: BACS"">DOchlhEct</p>","","","","","","","","",""
"html-keyboard-response","222","538798","0.0-12.0-0.52","5caccaed2f93d700157b4782","650c16f0f2faf8d7a0d14c09","651c1d5c56f3d779d1ab3197","null","null","<p style=""font-size: 60px; font-family: BACS"">mBmlATRkY</p>","","","","","","","","",""
"html-keyboard-response","223","539814","0.0-12.0-0.53","5caccaed2f93d700157b4782","650c16f0f2faf8d7a0d14c09","651c1d5c56f3d779d1ab3197","null","null","<p style=""font-size: 60px; font-family: BACS"">aNYmbrNlZ</p>","","","","","","","","",""
"html-keyboard-response","224","540816","0.0-12.0-0.54","5caccaed2f93d700157b4782","650c16f0f2faf8d7a0d14c09","651c1d5c56f3d779d1ab3197","null","null","<p style=""font-size: 60px; font-family: BACS"">bGuOcrdY</p>","","","","","","","","",""
"html-keyboard-response","225","541822","0.0-12.0-0.55","5caccaed2f93d700157b4782","650c16f0f2faf8d7a0d14c09","651c1d5c56f3d779d1ab3197","null","null","<p style=""font-size: 60px; font-family: BACS"">mARMTmc</p>","","","","","","","","",""
"html-keyboard-response","226","542823","0.0-12.0-0.56","5caccaed2f93d700157b4782","650c16f0f2faf8d7a0d14c09","651c1d5c56f3d779d1ab3197","null","null","<p style=""font-size: 60px; font-family: BACS"">YLQmGrNlZ</p>","","","","","","","","",""
"html-keyboard-response","227","543837","0.0-12.0-0.57","5caccaed2f93d700157b4782","650c16f0f2faf8d7a0d14c09","651c1d5c56f3d779d1ab3197","null","null","<p style=""font-size: 60px; font-family: BACS"">kCRmTRkY</p>","","","","","","","","",""
"html-keyboard-response","228","544839","0.0-12.0-0.58","5caccaed2f93d700157b4782","650c16f0f2faf8d7a0d14c09","651c1d5c56f3d779d1ab3197","null","null","<p style=""font-size: 60px; font-family: BACS"">AlNUrNlZ</p>","","","","","","","","",""
"html-keyboard-response","229","545854","0.0-12.0-0.59","5caccaed2f93d700157b4782","650c16f0f2faf8d7a0d14c09","651c1d5c56f3d779d1ab3197","null","null","<p style=""font-size: 60px; font-family: BACS"">mARMBCD</p>","","","","","","","","",""
"html-keyboard-response","230","546858","0.0-12.0-0.60","5caccaed2f93d700157b4782","650c16f0f2faf8d7a0d14c09","651c1d5c56f3d779d1ab3197","null","null","<p style=""font-size: 60px; font-family: BACS"">dTmEDhEct</p>","","","","","","","","",""
"html-keyboard-response","231","547861","0.0-12.0-0.61","5caccaed2f93d700157b4782","650c16f0f2faf8d7a0d14c09","651c1d5c56f3d779d1ab3197","null","null","<p style=""font-size: 60px; font-family: BACS"">OdlNmAld</p>","","","","","","","","",""
"html-keyboard-response","232","548863","0.0-12.0-0.62","5caccaed2f93d700157b4782","650c16f0f2faf8d7a0d14c09","651c1d5c56f3d779d1ab3197","null","null","<p style=""font-size: 60px; font-family: BACS"">mARMRDM</p>","","","","","","","","",""
"html-keyboard-response","233","549867","0.0-12.0-0.63","5caccaed2f93d700157b4782","650c16f0f2faf8d7a0d14c09","651c1d5c56f3d779d1ab3197","null","null","<p style=""font-size: 60px; font-family: BACS"">ALGZcrdY</p>","","","","","","","","",""
"html-keyboard-response","234","550869","0.0-12.0-0.64","5caccaed2f93d700157b4782","650c16f0f2faf8d7a0d14c09","651c1d5c56f3d779d1ab3197","null","null","<p style=""font-size: 60px; font-family: BACS"">dTmEDRDM</p>","","","","","","","","",""
"html-keyboard-response","235","551871","0.0-12.0-0.65","5caccaed2f93d700157b4782","650c16f0f2faf8d7a0d14c09","651c1d5c56f3d779d1ab3197","null","null","<p style=""font-size: 60px; font-family: BACS"">AlNUcrdY</p>","","","","","","","","",""
"html-keyboard-response","236","552875","0.0-12.0-0.66","5caccaed2f93d700157b4782","650c16f0f2faf8d7a0d14c09","651c1d5c56f3d779d1ab3197","null","null","<p style=""font-size: 60px; font-family: BACS"">DOchlTRkY</p>","","","","","","","","",""
"html-keyboard-response","237","553876","0.0-12.0-0.67","5caccaed2f93d700157b4782","650c16f0f2faf8d7a0d14c09","651c1d5c56f3d779d1ab3197","null","null","<p style=""font-size: 60px; font-family: BACS"">lCbcmTmc</p>","","","","","","","","",""
"html-keyboard-response","238","554892","0.0-12.0-0.68","5caccaed2f93d700157b4782","650c16f0f2faf8d7a0d14c09","651c1d5c56f3d779d1ab3197","null","null","<p style=""font-size: 60px; font-family: BACS"">ALGZYZJO</p>","","","","","","","","",""
"html-keyboard-response","239","555895","0.0-12.0-0.69","5caccaed2f93d700157b4782","650c16f0f2faf8d7a0d14c09","651c1d5c56f3d779d1ab3197","null","null","<p style=""font-size: 60px; font-family: BACS"">DOchlBCD</p>","","","","","","","","",""
"html-keyboard-response","240","556897","0.0-12.0-0.70","5caccaed2f93d700157b4782","650c16f0f2faf8d7a0d14c09","651c1d5c56f3d779d1ab3197","null","null","<p style=""font-size: 60px; font-family: BACS"">AZlLNrNlZ</p>","","","","","","","","",""
"html-keyboard-response","241","557901","0.0-12.0-0.71","5caccaed2f93d700157b4782","650c16f0f2faf8d7a0d14c09","651c1d5c56f3d779d1ab3197","null","null","<p style=""font-size: 60px; font-family: BACS"">AlNUYZJO</p>","","","","","","","","",""
"html-keyboard-response","242","558904","0.0-12.0-0.72","5caccaed2f93d700157b4782","650c16f0f2faf8d7a0d14c09","651c1d5c56f3d779d1ab3197","null","null","<p style=""font-size: 60px; font-family: BACS"">chEDOTRkY</p>","","","","","","","","",""
"html-keyboard-response","243","559905","0.0-12.0-0.73","5caccaed2f93d700157b4782","650c16f0f2faf8d7a0d14c09","651c1d5c56f3d779d1ab3197","null","null","<p style=""font-size: 60px; font-family: BACS"">aNYmbYZJO</p>","","","","","","","","",""
"html-keyboard-response","244","560906","0.0-12.0-0.74","5caccaed2f93d700157b4782","650c16f0f2faf8d7a0d14c09","651c1d5c56f3d779d1ab3197","null","null","<p style=""font-size: 60px; font-family: BACS"">KABABCD</p>","","","","","","","","",""
"html-keyboard-response","245","561908","0.0-12.0-0.75","5caccaed2f93d700157b4782","650c16f0f2faf8d7a0d14c09","651c1d5c56f3d779d1ab3197","null","null","<p style=""font-size: 60px; font-family: BACS"">AlNUvcb</p>","","","","","","","","",""
"html-keyboard-response","246","562924","0.0-12.0-0.76","5caccaed2f93d700157b4782","650c16f0f2faf8d7a0d14c09","651c1d5c56f3d779d1ab3197","null","null","<p style=""font-size: 60px; font-family: BACS"">TKDkhEct</p>","","","","","","","","",""
"html-keyboard-response","247","563939","0.0-12.0-0.77","5caccaed2f93d700157b4782","650c16f0f2faf8d7a0d14c09","651c1d5c56f3d779d1ab3197","null","null","<p style=""font-size: 60px; font-family: BACS"">AZlLNvcb</p>","","","","","","","","",""
"html-keyboard-response","248","564940","0.0-12.0-0.78","5caccaed2f93d700157b4782","650c16f0f2faf8d7a0d14c09","651c1d5c56f3d779d1ab3197","null","null","<p style=""font-size: 60px; font-family: BACS"">ALGZAld</p>","","","","","","","","",""
"html-keyboard-response","249","565941","0.0-12.0-0.79","5caccaed2f93d700157b4782","650c16f0f2faf8d7a0d14c09","651c1d5c56f3d779d1ab3197","null","null","<p style=""font-size: 60px; font-family: BACS"">BATOchEct</p>","","","","","","","","",""
"html-keyboard-response","250","612656","0.0-13.0","5caccaed2f93d700157b4782","650c16f0f2faf8d7a0d14c09","651c1d5c56f3d779d1ab3197","46715"," ","<p>Great, you've seen the third block of words. You may now take a short break.</p>
      <p>Press the spacebar when you're ready to continue.</p>","","","","","","","","",""
"html-keyboard-response","251","613668","0.0-14.0-0.0","5caccaed2f93d700157b4782","650c16f0f2faf8d7a0d14c09","651c1d5c56f3d779d1ab3197","null","null","<p style=""font-size: 60px; font-family: BACS"">LuaUvcb</p>","","","","","","","","",""
"html-keyboard-response","252","614682","0.0-14.0-0.1","5caccaed2f93d700157b4782","650c16f0f2faf8d7a0d14c09","651c1d5c56f3d779d1ab3197","null","null","<p style=""font-size: 60px; font-family: BACS"">aNYmbcrdY</p>","","","","","","","","",""
"html-keyboard-response","253","615683","0.0-14.0-0.2","5caccaed2f93d700157b4782","650c16f0f2faf8d7a0d14c09","651c1d5c56f3d779d1ab3197","null","null","<p style=""font-size: 60px; font-family: BACS"">chEDOTmc</p>","","","","","","","","",""
"html-keyboard-response","254","616685","0.0-14.0-0.3","5caccaed2f93d700157b4782","650c16f0f2faf8d7a0d14c09","651c1d5c56f3d779d1ab3197","null","null","<p style=""font-size: 60px; font-family: BACS"">TKDkBCD</p>","","","","","","","","",""
"html-keyboard-response","255","617687","0.0-14.0-0.4","5caccaed2f93d700157b4782","650c16f0f2faf8d7a0d14c09","651c1d5c56f3d779d1ab3197","null","null","<p style=""font-size: 60px; font-family: BACS"">AZlLNcrdY</p>","","","","","","","","",""
"html-keyboard-response","256","618688","0.0-14.0-0.5","5caccaed2f93d700157b4782","650c16f0f2faf8d7a0d14c09","651c1d5c56f3d779d1ab3197","null","null","<p style=""font-size: 60px; font-family: BACS"">LuaUAld</p>","","","","","","","","",""
"html-keyboard-response","257","619690","0.0-14.0-0.6","5caccaed2f93d700157b4782","650c16f0f2faf8d7a0d14c09","651c1d5c56f3d779d1ab3197","null","null","<p style=""font-size: 60px; font-family: BACS"">BATOcTRkY</p>","","","","","","","","",""
"html-keyboard-response","258","620695","0.0-14.0-0.7","5caccaed2f93d700157b4782","650c16f0f2faf8d7a0d14c09","651c1d5c56f3d779d1ab3197","null","null","<p style=""font-size: 60px; font-family: BACS"">KABATmc</p>","","","","","","","","",""
"html-keyboard-response","259","621710","0.0-14.0-0.8","5caccaed2f93d700157b4782","650c16f0f2faf8d7a0d14c09","651c1d5c56f3d779d1ab3197","null","null","<p style=""font-size: 60px; font-family: BACS"">bGuOcrdY</p>","","","","","","","","",""
"html-keyboard-response","260","622714","0.0-14.0-0.9","5caccaed2f93d700157b4782","650c16f0f2faf8d7a0d14c09","651c1d5c56f3d779d1ab3197","null","null","<p style=""font-size: 60px; font-family: BACS"">mBmlATRkY</p>","","","","","","","","",""
"html-keyboard-response","261","623715","0.0-14.0-0.10","5caccaed2f93d700157b4782","650c16f0f2faf8d7a0d14c09","651c1d5c56f3d779d1ab3197","null","null","<p style=""font-size: 60px; font-family: BACS"">AlNUvcb</p>","","","","","","","","",""
"html-keyboard-response","262","624718","0.0-14.0-0.11","5caccaed2f93d700157b4782","650c16f0f2faf8d7a0d14c09","651c1d5c56f3d779d1ab3197","null","null","<p style=""font-size: 60px; font-family: BACS"">rvAJYZJO</p>","","","","","","","","",""
"html-keyboard-response","263","625719","0.0-14.0-0.12","5caccaed2f93d700157b4782","650c16f0f2faf8d7a0d14c09","651c1d5c56f3d779d1ab3197","null","null","<p style=""font-size: 60px; font-family: BACS"">kCRmTRkY</p>","","","","","","","","",""
"html-keyboard-response","264","626721","0.0-14.0-0.13","5caccaed2f93d700157b4782","650c16f0f2faf8d7a0d14c09","651c1d5c56f3d779d1ab3197","null","null","<p style=""font-size: 60px; font-family: BACS"">mARMTmc</p>","","","","","","","","",""
"html-keyboard-response","265","627722","0.0-14.0-0.14","5caccaed2f93d700157b4782","650c16f0f2faf8d7a0d14c09","651c1d5c56f3d779d1ab3197","null","null","<p style=""font-size: 60px; font-family: BACS"">AZlLNAld</p>","","","","","","","","",""
"html-keyboard-response","266","628725","0.0-14.0-0.15","5caccaed2f93d700157b4782","650c16f0f2faf8d7a0d14c09","651c1d5c56f3d779d1ab3197","null","null","<p style=""font-size: 60px; font-family: BACS"">mBmlAhEct</p>","","","","","","","","",""
"html-keyboard-response","267","629727","0.0-14.0-0.16","5caccaed2f93d700157b4782","650c16f0f2faf8d7a0d14c09","651c1d5c56f3d779d1ab3197","null","null","<p style=""font-size: 60px; font-family: BACS"">AlNUrNlZ</p>","","","","","","","","",""
"html-keyboard-response","268","630743","0.0-14.0-0.17","5caccaed2f93d700157b4782","650c16f0f2faf8d7a0d14c09","651c1d5c56f3d779d1ab3197","null","null","<p style=""font-size: 60px; font-family: BACS"">TKDkhEct</p>","","","","","","","","",""
"html-keyboard-response","269","631744","0.0-14.0-0.18","5caccaed2f93d700157b4782","650c16f0f2faf8d7a0d14c09","651c1d5c56f3d779d1ab3197","null","null","<p style=""font-size: 60px; font-family: BACS"">lCbcmTRkY</p>","","","","","","","","",""
"html-keyboard-response","270","632745","0.0-14.0-0.19","5caccaed2f93d700157b4782","650c16f0f2faf8d7a0d14c09","651c1d5c56f3d779d1ab3197","null","null","<p style=""font-size: 60px; font-family: BACS"">rvAJrNlZ</p>","","","","","","","","",""
"html-keyboard-response","271","633748","0.0-14.0-0.20","5caccaed2f93d700157b4782","650c16f0f2faf8d7a0d14c09","651c1d5c56f3d779d1ab3197","null","null","<p style=""font-size: 60px; font-family: BACS"">DOchlTRkY</p>","","","","","","","","",""
"html-keyboard-response","272","634762","0.0-14.0-0.21","5caccaed2f93d700157b4782","650c16f0f2faf8d7a0d14c09","651c1d5c56f3d779d1ab3197","null","null","<p style=""font-size: 60px; font-family: BACS"">BATOchEct</p>","","","","","","","","",""
"html-keyboard-response","273","635762","0.0-14.0-0.22","5caccaed2f93d700157b4782","650c16f0f2faf8d7a0d14c09","651c1d5c56f3d779d1ab3197","null","null","<p style=""font-size: 60px; font-family: BACS"">YOZNAld</p>","","","","","","","","",""
"html-keyboard-response","274","636764","0.0-14.0-0.23","5caccaed2f93d700157b4782","650c16f0f2faf8d7a0d14c09","651c1d5c56f3d779d1ab3197","null","null","<p style=""font-size: 60px; font-family: BACS"">lCbcmTmc</p>","","","","","","","","",""
"html-keyboard-response","275","637779","0.0-14.0-0.24","5caccaed2f93d700157b4782","650c16f0f2faf8d7a0d14c09","651c1d5c56f3d779d1ab3197","null","null","<p style=""font-size: 60px; font-family: BACS"">YLQmGrNlZ</p>","","","","","","","","",""
"html-keyboard-response","276","638780","0.0-14.0-0.25","5caccaed2f93d700157b4782","650c16f0f2faf8d7a0d14c09","651c1d5c56f3d779d1ab3197","null","null","<p style=""font-size: 60px; font-family: BACS"">lCbcmRDM</p>","","","","","","","","",""
"html-keyboard-response","277","639781","0.0-14.0-0.26","5caccaed2f93d700157b4782","650c16f0f2faf8d7a0d14c09","651c1d5c56f3d779d1ab3197","null","null","<p style=""font-size: 60px; font-family: BACS"">aNYmbYZJO</p>","","","","","","","","",""
"html-keyboard-response","278","640796","0.0-14.0-0.27","5caccaed2f93d700157b4782","650c16f0f2faf8d7a0d14c09","651c1d5c56f3d779d1ab3197","null","null","<p style=""font-size: 60px; font-family: BACS"">chEDORDM</p>","","","","","","","","",""
"html-keyboard-response","279","641811","0.0-14.0-0.28","5caccaed2f93d700157b4782","650c16f0f2faf8d7a0d14c09","651c1d5c56f3d779d1ab3197","null","null","<p style=""font-size: 60px; font-family: BACS"">AZlLNrNlZ</p>","","","","","","","","",""
"html-keyboard-response","280","642812","0.0-14.0-0.29","5caccaed2f93d700157b4782","650c16f0f2faf8d7a0d14c09","651c1d5c56f3d779d1ab3197","null","null","<p style=""font-size: 60px; font-family: BACS"">chEDOTRkY</p>","","","","","","","","",""
"html-keyboard-response","281","643827","0.0-14.0-0.30","5caccaed2f93d700157b4782","650c16f0f2faf8d7a0d14c09","651c1d5c56f3d779d1ab3197","null","null","<p style=""font-size: 60px; font-family: BACS"">mBmlABCD</p>","","","","","","","","",""
"html-keyboard-response","282","644828","0.0-14.0-0.31","5caccaed2f93d700157b4782","650c16f0f2faf8d7a0d14c09","651c1d5c56f3d779d1ab3197","null","null","<p style=""font-size: 60px; font-family: BACS"">aNYmbrNlZ</p>","","","","","","","","",""
"html-keyboard-response","283","645830","0.0-14.0-0.32","5caccaed2f93d700157b4782","650c16f0f2faf8d7a0d14c09","651c1d5c56f3d779d1ab3197","null","null","<p style=""font-size: 60px; font-family: BACS"">AZlLNvcb</p>","","","","","","","","",""
"html-keyboard-response","284","646834","0.0-14.0-0.33","5caccaed2f93d700157b4782","650c16f0f2faf8d7a0d14c09","651c1d5c56f3d779d1ab3197","null","null","<p style=""font-size: 60px; font-family: BACS"">KABABCD</p>","","","","","","","","",""
"html-keyboard-response","285","647848","0.0-14.0-0.34","5caccaed2f93d700157b4782","650c16f0f2faf8d7a0d14c09","651c1d5c56f3d779d1ab3197","null","null","<p style=""font-size: 60px; font-family: BACS"">TKDkTRkY</p>","","","","","","","","",""
"html-keyboard-response","286","648851","0.0-14.0-0.35","5caccaed2f93d700157b4782","650c16f0f2faf8d7a0d14c09","651c1d5c56f3d779d1ab3197","null","null","<p style=""font-size: 60px; font-family: BACS"">aNYmbvcb</p>","","","","","","","","",""
"html-keyboard-response","287","649852","0.0-14.0-0.36","5caccaed2f93d700157b4782","650c16f0f2faf8d7a0d14c09","651c1d5c56f3d779d1ab3197","null","null","<p style=""font-size: 60px; font-family: BACS"">ALGZcrdY</p>","","","","","","","","",""
"html-keyboard-response","288","650856","0.0-14.0-0.37","5caccaed2f93d700157b4782","650c16f0f2faf8d7a0d14c09","651c1d5c56f3d779d1ab3197","null","null","<p style=""font-size: 60px; font-family: BACS"">dTmEDBCD</p>","","","","","","","","",""
"html-keyboard-response","289","651859","0.0-14.0-0.38","5caccaed2f93d700157b4782","650c16f0f2faf8d7a0d14c09","651c1d5c56f3d779d1ab3197","null","null","<p style=""font-size: 60px; font-family: BACS"">rvAJAld</p>","","","","","","","","",""
"html-keyboard-response","290","652862","0.0-14.0-0.39","5caccaed2f93d700157b4782","650c16f0f2faf8d7a0d14c09","651c1d5c56f3d779d1ab3197","null","null","<p style=""font-size: 60px; font-family: BACS"">KABATRkY</p>","","","","","","","","",""
"html-keyboard-response","291","653864","0.0-14.0-0.40","5caccaed2f93d700157b4782","650c16f0f2faf8d7a0d14c09","651c1d5c56f3d779d1ab3197","null","null","<p style=""font-size: 60px; font-family: BACS"">OdlNmYZJO</p>","","","","","","","","",""
"html-keyboard-response","292","654880","0.0-14.0-0.41","5caccaed2f93d700157b4782","650c16f0f2faf8d7a0d14c09","651c1d5c56f3d779d1ab3197","null","null","<p style=""font-size: 60px; font-family: BACS"">ALGZAld</p>","","","","","","","","",""
"html-keyboard-response","293","655896","0.0-14.0-0.42","5caccaed2f93d700157b4782","650c16f0f2faf8d7a0d14c09","651c1d5c56f3d779d1ab3197","null","null","<p style=""font-size: 60px; font-family: BACS"">DOchlBCD</p>","","","","","","","","",""
"html-keyboard-response","294","656900","0.0-14.0-0.43","5caccaed2f93d700157b4782","650c16f0f2faf8d7a0d14c09","651c1d5c56f3d779d1ab3197","null","null","<p style=""font-size: 60px; font-family: BACS"">YOZNYZJO</p>","","","","","","","","",""
"html-keyboard-response","295","657916","0.0-14.0-0.44","5caccaed2f93d700157b4782","650c16f0f2faf8d7a0d14c09","651c1d5c56f3d779d1ab3197","null","null","<p style=""font-size: 60px; font-family: BACS"">TKDkTmc</p>","","","","","","","","",""
"html-keyboard-response","296","658919","0.0-14.0-0.45","5caccaed2f93d700157b4782","650c16f0f2faf8d7a0d14c09","651c1d5c56f3d779d1ab3197","null","null","<p style=""font-size: 60px; font-family: BACS"">bGuOAld</p>","","","","","","","","",""
"html-keyboard-response","297","659922","0.0-14.0-0.46","5caccaed2f93d700157b4782","650c16f0f2faf8d7a0d14c09","651c1d5c56f3d779d1ab3197","null","null","<p style=""font-size: 60px; font-family: BACS"">LuaUrNlZ</p>","","","","","","","","",""
"html-keyboard-response","298","660938","0.0-14.0-0.47","5caccaed2f93d700157b4782","650c16f0f2faf8d7a0d14c09","651c1d5c56f3d779d1ab3197","null","null","<p style=""font-size: 60px; font-family: BACS"">dTmEDTmc</p>","","","","","","","","",""
"html-keyboard-response","299","661939","0.0-14.0-0.48","5caccaed2f93d700157b4782","650c16f0f2faf8d7a0d14c09","651c1d5c56f3d779d1ab3197","null","null","<p style=""font-size: 60px; font-family: BACS"">kCRmRDM</p>","","","","","","","","",""
"html-keyboard-response","300","662941","0.0-14.0-0.49","5caccaed2f93d700157b4782","650c16f0f2faf8d7a0d14c09","651c1d5c56f3d779d1ab3197","null","null","<p style=""font-size: 60px; font-family: BACS"">YOZNvcb</p>","","","","","","","","",""
"html-keyboard-response","301","663944","0.0-14.0-0.50","5caccaed2f93d700157b4782","650c16f0f2faf8d7a0d14c09","651c1d5c56f3d779d1ab3197","null","null","<p style=""font-size: 60px; font-family: BACS"">lCbcmBCD</p>","","","","","","","","",""
"html-keyboard-response","302","664946","0.0-14.0-0.51","5caccaed2f93d700157b4782","650c16f0f2faf8d7a0d14c09","651c1d5c56f3d779d1ab3197","null","null","<p style=""font-size: 60px; font-family: BACS"">AlNUYZJO</p>","","","","","","","","",""
"html-keyboard-response","303","665948","0.0-14.0-0.52","5caccaed2f93d700157b4782","650c16f0f2faf8d7a0d14c09","651c1d5c56f3d779d1ab3197","null","null","<p style=""font-size: 60px; font-family: BACS"">dTmEDRDM</p>","","","","","","","","",""
"html-keyboard-response","304","666951","0.0-14.0-0.53","5caccaed2f93d700157b4782","650c16f0f2faf8d7a0d14c09","651c1d5c56f3d779d1ab3197","null","null","<p style=""font-size: 60px; font-family: BACS"">DOchlhEct</p>","","","","","","","","",""
"html-keyboard-response","305","667956","0.0-14.0-0.54","5caccaed2f93d700157b4782","650c16f0f2faf8d7a0d14c09","651c1d5c56f3d779d1ab3197","null","null","<p style=""font-size: 60px; font-family: BACS"">YLQmGAld</p>","","","","","","","","",""
"html-keyboard-response","306","668960","0.0-14.0-0.55","5caccaed2f93d700157b4782","650c16f0f2faf8d7a0d14c09","651c1d5c56f3d779d1ab3197","null","null","<p style=""font-size: 60px; font-family: BACS"">mARMBCD</p>","","","","","","","","",""
"html-keyboard-response","307","669960","0.0-14.0-0.56","5caccaed2f93d700157b4782","650c16f0f2faf8d7a0d14c09","651c1d5c56f3d779d1ab3197","null","null","<p style=""font-size: 60px; font-family: BACS"">YLQmGvcb</p>","","","","","","","","",""
"html-keyboard-response","308","670963","0.0-14.0-0.57","5caccaed2f93d700157b4782","650c16f0f2faf8d7a0d14c09","651c1d5c56f3d779d1ab3197","null","null","<p style=""font-size: 60px; font-family: BACS"">mARMRDM</p>","","","","","","","","",""
"html-keyboard-response","309","671967","0.0-14.0-0.58","5caccaed2f93d700157b4782","650c16f0f2faf8d7a0d14c09","651c1d5c56f3d779d1ab3197","null","null","<p style=""font-size: 60px; font-family: BACS"">bGuOYZJO</p>","","","","","","","","",""
"html-keyboard-response","310","672970","0.0-14.0-0.59","5caccaed2f93d700157b4782","650c16f0f2faf8d7a0d14c09","651c1d5c56f3d779d1ab3197","null","null","<p style=""font-size: 60px; font-family: BACS"">BATOcTmc</p>","","","","","","","","",""
"html-keyboard-response","311","673974","0.0-14.0-0.60","5caccaed2f93d700157b4782","650c16f0f2faf8d7a0d14c09","651c1d5c56f3d779d1ab3197","null","null","<p style=""font-size: 60px; font-family: BACS"">LuaUYZJO</p>","","","","","","","","",""
"html-keyboard-response","312","674976","0.0-14.0-0.61","5caccaed2f93d700157b4782","650c16f0f2faf8d7a0d14c09","651c1d5c56f3d779d1ab3197","null","null","<p style=""font-size: 60px; font-family: BACS"">AlNUcrdY</p>","","","","","","","","",""
"html-keyboard-response","313","675980","0.0-14.0-0.62","5caccaed2f93d700157b4782","650c16f0f2faf8d7a0d14c09","651c1d5c56f3d779d1ab3197","null","null","<p style=""font-size: 60px; font-family: BACS"">OdlNmvcb</p>","","","","","","","","",""
"html-keyboard-response","314","676986","0.0-14.0-0.63","5caccaed2f93d700157b4782","650c16f0f2faf8d7a0d14c09","651c1d5c56f3d779d1ab3197","null","null","<p style=""font-size: 60px; font-family: BACS"">KABARDM</p>","","","","","","","","",""
"html-keyboard-response","315","677987","0.0-14.0-0.64","5caccaed2f93d700157b4782","650c16f0f2faf8d7a0d14c09","651c1d5c56f3d779d1ab3197","null","null","<p style=""font-size: 60px; font-family: BACS"">chEDOhEct</p>","","","","","","","","",""
"html-keyboard-response","316","678989","0.0-14.0-0.65","5caccaed2f93d700157b4782","650c16f0f2faf8d7a0d14c09","651c1d5c56f3d779d1ab3197","null","null","<p style=""font-size: 60px; font-family: BACS"">OdlNmcrdY</p>","","","","","","","","",""
"html-keyboard-response","317","679993","0.0-14.0-0.66","5caccaed2f93d700157b4782","650c16f0f2faf8d7a0d14c09","651c1d5c56f3d779d1ab3197","null","null","<p style=""font-size: 60px; font-family: BACS"">dTmEDhEct</p>","","","","","","","","",""
"html-keyboard-response","318","680996","0.0-14.0-0.67","5caccaed2f93d700157b4782","650c16f0f2faf8d7a0d14c09","651c1d5c56f3d779d1ab3197","null","null","<p style=""font-size: 60px; font-family: BACS"">YLQmGcrdY</p>","","","","","","","","",""
"html-keyboard-response","319","681999","0.0-14.0-0.68","5caccaed2f93d700157b4782","650c16f0f2faf8d7a0d14c09","651c1d5c56f3d779d1ab3197","null","null","<p style=""font-size: 60px; font-family: BACS"">YOZNrNlZ</p>","","","","","","","","",""
"html-keyboard-response","320","683003","0.0-14.0-0.69","5caccaed2f93d700157b4782","650c16f0f2faf8d7a0d14c09","651c1d5c56f3d779d1ab3197","null","null","<p style=""font-size: 60px; font-family: BACS"">rvAJcrdY</p>","","","","","","","","",""
"html-keyboard-response","321","684007","0.0-14.0-0.70","5caccaed2f93d700157b4782","650c16f0f2faf8d7a0d14c09","651c1d5c56f3d779d1ab3197","null","null","<p style=""font-size: 60px; font-family: BACS"">kCRmhEct</p>","","","","","","","","",""
"html-keyboard-response","322","685011","0.0-14.0-0.71","5caccaed2f93d700157b4782","650c16f0f2faf8d7a0d14c09","651c1d5c56f3d779d1ab3197","null","null","<p style=""font-size: 60px; font-family: BACS"">OdlNmAld</p>","","","","","","","","",""
"html-keyboard-response","323","686014","0.0-14.0-0.72","5caccaed2f93d700157b4782","650c16f0f2faf8d7a0d14c09","651c1d5c56f3d779d1ab3197","null","null","<p style=""font-size: 60px; font-family: BACS"">mBmlARDM</p>","","","","","","","","",""
"html-keyboard-response","324","687019","0.0-14.0-0.73","5caccaed2f93d700157b4782","650c16f0f2faf8d7a0d14c09","651c1d5c56f3d779d1ab3197","null","null","<p style=""font-size: 60px; font-family: BACS"">bGuOvcb</p>","","","","","","","","",""
"html-keyboard-response","325","688024","0.0-14.0-0.74","5caccaed2f93d700157b4782","650c16f0f2faf8d7a0d14c09","651c1d5c56f3d779d1ab3197","null","null","<p style=""font-size: 60px; font-family: BACS"">ALGZYZJO</p>","","","","","","","","",""
"html-keyboard-response","326","689027","0.0-14.0-0.75","5caccaed2f93d700157b4782","650c16f0f2faf8d7a0d14c09","651c1d5c56f3d779d1ab3197","null","null","<p style=""font-size: 60px; font-family: BACS"">DOchlRDM</p>","","","","","","","","",""
"html-keyboard-response","327","690031","0.0-14.0-0.76","5caccaed2f93d700157b4782","650c16f0f2faf8d7a0d14c09","651c1d5c56f3d779d1ab3197","null","null","<p style=""font-size: 60px; font-family: BACS"">mARMhEct</p>","","","","","","","","",""
"html-keyboard-response","328","691033","0.0-14.0-0.77","5caccaed2f93d700157b4782","650c16f0f2faf8d7a0d14c09","651c1d5c56f3d779d1ab3197","null","null","<p style=""font-size: 60px; font-family: BACS"">BATOcBCD</p>","","","","","","","","",""
"html-keyboard-response","329","692038","0.0-14.0-0.78","5caccaed2f93d700157b4782","650c16f0f2faf8d7a0d14c09","651c1d5c56f3d779d1ab3197","null","null","<p style=""font-size: 60px; font-family: BACS"">kCRmTmc</p>","","","","","","","","",""
"html-keyboard-response","330","693043","0.0-14.0-0.79","5caccaed2f93d700157b4782","650c16f0f2faf8d7a0d14c09","651c1d5c56f3d779d1ab3197","null","null","<p style=""font-size: 60px; font-family: BACS"">ALGZrNlZ</p>","","","","","","","","",""
"html-keyboard-response","331","695828","0.0-15.0","5caccaed2f93d700157b4782","650c16f0f2faf8d7a0d14c09","651c1d5c56f3d779d1ab3197","2784"," ","<p>Great, you've seen the fourth block of words. You may now take a short break.</p>
      <p>Press the spacebar when you're ready to continue.</p>","","","","","","","","",""
"html-keyboard-response","332","696840","0.0-16.0-0.0","5caccaed2f93d700157b4782","650c16f0f2faf8d7a0d14c09","651c1d5c56f3d779d1ab3197","null","null","<p style=""font-size: 60px; font-family: BACS"">OdlNmvcb</p>","","","","","","","","",""
"html-keyboard-response","333","697845","0.0-16.0-0.1","5caccaed2f93d700157b4782","650c16f0f2faf8d7a0d14c09","651c1d5c56f3d779d1ab3197","null","null","<p style=""font-size: 60px; font-family: BACS"">OdlNmvcb</p>","","","","","","","","",""
"html-keyboard-response","334","698848","0.0-16.0-0.2","5caccaed2f93d700157b4782","650c16f0f2faf8d7a0d14c09","651c1d5c56f3d779d1ab3197","null","null","<p style=""font-size: 60px; font-family: BACS"">OdlNmvcb</p>","","","","","","","","",""
"html-keyboard-response","335","699854","0.0-16.0-0.3","5caccaed2f93d700157b4782","650c16f0f2faf8d7a0d14c09","651c1d5c56f3d779d1ab3197","null","null","<p style=""font-size: 60px; font-family: BACS"">OdlNmvcb</p>","","","","","","","","",""
"html-keyboard-response","336","700858","0.0-16.0-0.4","5caccaed2f93d700157b4782","650c16f0f2faf8d7a0d14c09","651c1d5c56f3d779d1ab3197","null","null","<p style=""font-size: 60px; font-family: BACS"">OdlNmvcb</p>","","","","","","","","",""
"html-keyboard-response","337","701863","0.0-16.0-0.5","5caccaed2f93d700157b4782","650c16f0f2faf8d7a0d14c09","651c1d5c56f3d779d1ab3197","null","null","<p style=""font-size: 60px; font-family: BACS"">OdlNmvcb</p>","","","","","","","","",""
"html-keyboard-response","338","702865","0.0-16.0-0.6","5caccaed2f93d700157b4782","650c16f0f2faf8d7a0d14c09","651c1d5c56f3d779d1ab3197","null","null","<p style=""font-size: 60px; font-family: BACS"">OdlNmvcb</p>","","","","","","","","",""
"html-keyboard-response","339","703870","0.0-16.0-0.7","5caccaed2f93d700157b4782","650c16f0f2faf8d7a0d14c09","651c1d5c56f3d779d1ab3197","null","null","<p style=""font-size: 60px; font-family: BACS"">OdlNmvcb</p>","","","","","","","","",""
"html-keyboard-response","340","704872","0.0-16.0-0.8","5caccaed2f93d700157b4782","650c16f0f2faf8d7a0d14c09","651c1d5c56f3d779d1ab3197","null","null","<p style=""font-size: 60px; font-family: BACS"">OdlNmvcb</p>","","","","","","","","",""
"html-keyboard-response","341","705875","0.0-16.0-0.9","5caccaed2f93d700157b4782","650c16f0f2faf8d7a0d14c09","651c1d5c56f3d779d1ab3197","null","null","<p style=""font-size: 60px; font-family: BACS"">OdlNmvcb</p>","","","","","","","","",""
"html-keyboard-response","342","706878","0.0-16.0-0.10","5caccaed2f93d700157b4782","650c16f0f2faf8d7a0d14c09","651c1d5c56f3d779d1ab3197","null","null","<p style=""font-size: 60px; font-family: BACS"">OdlNmvcb</p>","","","","","","","","",""
"html-keyboard-response","343","707883","0.0-16.0-0.11","5caccaed2f93d700157b4782","650c16f0f2faf8d7a0d14c09","651c1d5c56f3d779d1ab3197","null","null","<p style=""font-size: 60px; font-family: BACS"">OdlNmvcb</p>","","","","","","","","",""
"html-keyboard-response","344","708886","0.0-16.0-0.12","5caccaed2f93d700157b4782","650c16f0f2faf8d7a0d14c09","651c1d5c56f3d779d1ab3197","null","null","<p style=""font-size: 60px; font-family: BACS"">OdlNmvcb</p>","","","","","","","","",""
"html-keyboard-response","345","709890","0.0-16.0-0.13","5caccaed2f93d700157b4782","650c16f0f2faf8d7a0d14c09","651c1d5c56f3d779d1ab3197","null","null","<p style=""font-size: 60px; font-family: BACS"">OdlNmvcb</p>","","","","","","","","",""
"html-keyboard-response","346","710892","0.0-16.0-0.14","5caccaed2f93d700157b4782","650c16f0f2faf8d7a0d14c09","651c1d5c56f3d779d1ab3197","null","null","<p style=""font-size: 60px; font-family: BACS"">OdlNmvcb</p>","","","","","","","","",""
"html-keyboard-response","347","711897","0.0-16.0-0.15","5caccaed2f93d700157b4782","650c16f0f2faf8d7a0d14c09","651c1d5c56f3d779d1ab3197","null","null","<p style=""font-size: 60px; font-family: BACS"">OdlNmvcb</p>","","","","","","","","",""
"html-keyboard-response","348","712902","0.0-16.0-0.16","5caccaed2f93d700157b4782","650c16f0f2faf8d7a0d14c09","651c1d5c56f3d779d1ab3197","null","null","<p style=""font-size: 60px; font-family: BACS"">OdlNmvcb</p>","","","","","","","","",""
"html-keyboard-response","349","713907","0.0-16.0-0.17","5caccaed2f93d700157b4782","650c16f0f2faf8d7a0d14c09","651c1d5c56f3d779d1ab3197","null","null","<p style=""font-size: 60px; font-family: BACS"">OdlNmvcb</p>","","","","","","","","",""
"html-keyboard-response","350","714911","0.0-16.0-0.18","5caccaed2f93d700157b4782","650c16f0f2faf8d7a0d14c09","651c1d5c56f3d779d1ab3197","null","null","<p style=""font-size: 60px; font-family: BACS"">OdlNmvcb</p>","","","","","","","","",""
"html-keyboard-response","351","715916","0.0-16.0-0.19","5caccaed2f93d700157b4782","650c16f0f2faf8d7a0d14c09","651c1d5c56f3d779d1ab3197","null","null","<p style=""font-size: 60px; font-family: BACS"">OdlNmvcb</p>","","","","","","","","",""
"html-keyboard-response","352","716920","0.0-16.0-0.20","5caccaed2f93d700157b4782","650c16f0f2faf8d7a0d14c09","651c1d5c56f3d779d1ab3197","null","null","<p style=""font-size: 60px; font-family: BACS"">OdlNmvcb</p>","","","","","","","","",""
"html-keyboard-response","353","717926","0.0-16.0-0.21","5caccaed2f93d700157b4782","650c16f0f2faf8d7a0d14c09","651c1d5c56f3d779d1ab3197","null","null","<p style=""font-size: 60px; font-family: BACS"">OdlNmvcb</p>","","","","","","","","",""
"html-keyboard-response","354","718930","0.0-16.0-0.22","5caccaed2f93d700157b4782","650c16f0f2faf8d7a0d14c09","651c1d5c56f3d779d1ab3197","null","null","<p style=""font-size: 60px; font-family: BACS"">OdlNmvcb</p>","","","","","","","","",""
"html-keyboard-response","355","719936","0.0-16.0-0.23","5caccaed2f93d700157b4782","650c16f0f2faf8d7a0d14c09","651c1d5c56f3d779d1ab3197","null","null","<p style=""font-size: 60px; font-family: BACS"">OdlNmvcb</p>","","","","","","","","",""
"html-keyboard-response","356","720941","0.0-16.0-0.24","5caccaed2f93d700157b4782","650c16f0f2faf8d7a0d14c09","651c1d5c56f3d779d1ab3197","null","null","<p style=""font-size: 60px; font-family: BACS"">OdlNmvcb</p>","","","","","","","","",""
"html-keyboard-response","357","721944","0.0-16.0-0.25","5caccaed2f93d700157b4782","650c16f0f2faf8d7a0d14c09","651c1d5c56f3d779d1ab3197","null","null","<p style=""font-size: 60px; font-family: BACS"">OdlNmvcb</p>","","","","","","","","",""
"html-keyboard-response","358","722947","0.0-16.0-0.26","5caccaed2f93d700157b4782","650c16f0f2faf8d7a0d14c09","651c1d5c56f3d779d1ab3197","null","null","<p style=""font-size: 60px; font-family: BACS"">OdlNmvcb</p>","","","","","","","","",""
"html-keyboard-response","359","723952","0.0-16.0-0.27","5caccaed2f93d700157b4782","650c16f0f2faf8d7a0d14c09","651c1d5c56f3d779d1ab3197","null","null","<p style=""font-size: 60px; font-family: BACS"">OdlNmvcb</p>","","","","","","","","",""
"html-keyboard-response","360","724957","0.0-16.0-0.28","5caccaed2f93d700157b4782","650c16f0f2faf8d7a0d14c09","651c1d5c56f3d779d1ab3197","null","null","<p style=""font-size: 60px; font-family: BACS"">OdlNmvcb</p>","","","","","","","","",""
"html-keyboard-response","361","725959","0.0-16.0-0.29","5caccaed2f93d700157b4782","650c16f0f2faf8d7a0d14c09","651c1d5c56f3d779d1ab3197","null","null","<p style=""font-size: 60px; font-family: BACS"">OdlNmvcb</p>","","","","","","","","",""
"html-keyboard-response","362","726963","0.0-16.0-0.30","5caccaed2f93d700157b4782","650c16f0f2faf8d7a0d14c09","651c1d5c56f3d779d1ab3197","null","null","<p style=""font-size: 60px; font-family: BACS"">OdlNmvcb</p>","","","","","","","","",""
"html-keyboard-response","363","727969","0.0-16.0-0.31","5caccaed2f93d700157b4782","650c16f0f2faf8d7a0d14c09","651c1d5c56f3d779d1ab3197","null","null","<p style=""font-size: 60px; font-family: BACS"">OdlNmvcb</p>","","","","","","","","",""
"html-keyboard-response","364","728970","0.0-16.0-0.32","5caccaed2f93d700157b4782","650c16f0f2faf8d7a0d14c09","651c1d5c56f3d779d1ab3197","null","null","<p style=""font-size: 60px; font-family: BACS"">OdlNmvcb</p>","","","","","","","","",""
"html-keyboard-response","365","729985","0.0-16.0-0.33","5caccaed2f93d700157b4782","650c16f0f2faf8d7a0d14c09","651c1d5c56f3d779d1ab3197","null","null","<p style=""font-size: 60px; font-family: BACS"">OdlNmvcb</p>","","","","","","","","",""
"html-keyboard-response","366","730990","0.0-16.0-0.34","5caccaed2f93d700157b4782","650c16f0f2faf8d7a0d14c09","651c1d5c56f3d779d1ab3197","null","null","<p style=""font-size: 60px; font-family: BACS"">OdlNmvcb</p>","","","","","","","","",""
"html-keyboard-response","367","732006","0.0-16.0-0.35","5caccaed2f93d700157b4782","650c16f0f2faf8d7a0d14c09","651c1d5c56f3d779d1ab3197","null","null","<p style=""font-size: 60px; font-family: BACS"">OdlNmvcb</p>","","","","","","","","",""
"html-keyboard-response","368","733009","0.0-16.0-0.36","5caccaed2f93d700157b4782","650c16f0f2faf8d7a0d14c09","651c1d5c56f3d779d1ab3197","null","null","<p style=""font-size: 60px; font-family: BACS"">OdlNmvcb</p>","","","","","","","","",""
"html-keyboard-response","369","734015","0.0-16.0-0.37","5caccaed2f93d700157b4782","650c16f0f2faf8d7a0d14c09","651c1d5c56f3d779d1ab3197","null","null","<p style=""font-size: 60px; font-family: BACS"">OdlNmvcb</p>","","","","","","","","",""
"html-keyboard-response","370","735018","0.0-16.0-0.38","5caccaed2f93d700157b4782","650c16f0f2faf8d7a0d14c09","651c1d5c56f3d779d1ab3197","null","null","<p style=""font-size: 60px; font-family: BACS"">OdlNmvcb</p>","","","","","","","","",""
"html-keyboard-response","371","736020","0.0-16.0-0.39","5caccaed2f93d700157b4782","650c16f0f2faf8d7a0d14c09","651c1d5c56f3d779d1ab3197","null","null","<p style=""font-size: 60px; font-family: BACS"">OdlNmvcb</p>","","","","","","","","",""
"html-keyboard-response","372","737025","0.0-16.0-0.40","5caccaed2f93d700157b4782","650c16f0f2faf8d7a0d14c09","651c1d5c56f3d779d1ab3197","null","null","<p style=""font-size: 60px; font-family: BACS"">OdlNmvcb</p>","","","","","","","","",""
"html-keyboard-response","373","738030","0.0-16.0-0.41","5caccaed2f93d700157b4782","650c16f0f2faf8d7a0d14c09","651c1d5c56f3d779d1ab3197","null","null","<p style=""font-size: 60px; font-family: BACS"">OdlNmvcb</p>","","","","","","","","",""
"html-keyboard-response","374","739035","0.0-16.0-0.42","5caccaed2f93d700157b4782","650c16f0f2faf8d7a0d14c09","651c1d5c56f3d779d1ab3197","null","null","<p style=""font-size: 60px; font-family: BACS"">OdlNmvcb</p>","","","","","","","","",""
"html-keyboard-response","375","740039","0.0-16.0-0.43","5caccaed2f93d700157b4782","650c16f0f2faf8d7a0d14c09","651c1d5c56f3d779d1ab3197","null","null","<p style=""font-size: 60px; font-family: BACS"">OdlNmvcb</p>","","","","","","","","",""
"html-keyboard-response","376","741045","0.0-16.0-0.44","5caccaed2f93d700157b4782","650c16f0f2faf8d7a0d14c09","651c1d5c56f3d779d1ab3197","null","null","<p style=""font-size: 60px; font-family: BACS"">OdlNmvcb</p>","","","","","","","","",""
"html-keyboard-response","377","742048","0.0-16.0-0.45","5caccaed2f93d700157b4782","650c16f0f2faf8d7a0d14c09","651c1d5c56f3d779d1ab3197","null","null","<p style=""font-size: 60px; font-family: BACS"">OdlNmvcb</p>","","","","","","","","",""
"html-keyboard-response","378","743049","0.0-16.0-0.46","5caccaed2f93d700157b4782","650c16f0f2faf8d7a0d14c09","651c1d5c56f3d779d1ab3197","null","null","<p style=""font-size: 60px; font-family: BACS"">OdlNmvcb</p>","","","","","","","","",""
"html-keyboard-response","379","744054","0.0-16.0-0.47","5caccaed2f93d700157b4782","650c16f0f2faf8d7a0d14c09","651c1d5c56f3d779d1ab3197","null","null","<p style=""font-size: 60px; font-family: BACS"">OdlNmvcb</p>","","","","","","","","",""
"html-keyboard-response","380","745059","0.0-16.0-0.48","5caccaed2f93d700157b4782","650c16f0f2faf8d7a0d14c09","651c1d5c56f3d779d1ab3197","null","null","<p style=""font-size: 60px; font-family: BACS"">OdlNmvcb</p>","","","","","","","","",""
"html-keyboard-response","381","746064","0.0-16.0-0.49","5caccaed2f93d700157b4782","650c16f0f2faf8d7a0d14c09","651c1d5c56f3d779d1ab3197","null","null","<p style=""font-size: 60px; font-family: BACS"">OdlNmvcb</p>","","","","","","","","",""
"html-keyboard-response","382","747068","0.0-16.0-0.50","5caccaed2f93d700157b4782","650c16f0f2faf8d7a0d14c09","651c1d5c56f3d779d1ab3197","null","null","<p style=""font-size: 60px; font-family: BACS"">OdlNmvcb</p>","","","","","","","","",""
"html-keyboard-response","383","748069","0.0-16.0-0.51","5caccaed2f93d700157b4782","650c16f0f2faf8d7a0d14c09","651c1d5c56f3d779d1ab3197","null","null","<p style=""font-size: 60px; font-family: BACS"">OdlNmvcb</p>","","","","","","","","",""
"html-keyboard-response","384","749085","0.0-16.0-0.52","5caccaed2f93d700157b4782","650c16f0f2faf8d7a0d14c09","651c1d5c56f3d779d1ab3197","null","null","<p style=""font-size: 60px; font-family: BACS"">OdlNmvcb</p>","","","","","","","","",""
"html-keyboard-response","385","750090","0.0-16.0-0.53","5caccaed2f93d700157b4782","650c16f0f2faf8d7a0d14c09","651c1d5c56f3d779d1ab3197","null","null","<p style=""font-size: 60px; font-family: BACS"">OdlNmvcb</p>","","","","","","","","",""
"html-keyboard-response","386","751095","0.0-16.0-0.54","5caccaed2f93d700157b4782","650c16f0f2faf8d7a0d14c09","651c1d5c56f3d779d1ab3197","null","null","<p style=""font-size: 60px; font-family: BACS"">OdlNmvcb</p>","","","","","","","","",""
"html-keyboard-response","387","752099","0.0-16.0-0.55","5caccaed2f93d700157b4782","650c16f0f2faf8d7a0d14c09","651c1d5c56f3d779d1ab3197","null","null","<p style=""font-size: 60px; font-family: BACS"">OdlNmvcb</p>","","","","","","","","",""
"html-keyboard-response","388","753105","0.0-16.0-0.56","5caccaed2f93d700157b4782","650c16f0f2faf8d7a0d14c09","651c1d5c56f3d779d1ab3197","null","null","<p style=""font-size: 60px; font-family: BACS"">OdlNmvcb</p>","","","","","","","","",""
"html-keyboard-response","389","754110","0.0-16.0-0.57","5caccaed2f93d700157b4782","650c16f0f2faf8d7a0d14c09","651c1d5c56f3d779d1ab3197","null","null","<p style=""font-size: 60px; font-family: BACS"">OdlNmvcb</p>","","","","","","","","",""
"html-keyboard-response","390","755113","0.0-16.0-0.58","5caccaed2f93d700157b4782","650c16f0f2faf8d7a0d14c09","651c1d5c56f3d779d1ab3197","null","null","<p style=""font-size: 60px; font-family: BACS"">OdlNmvcb</p>","","","","","","","","",""
"html-keyboard-response","391","756118","0.0-16.0-0.59","5caccaed2f93d700157b4782","650c16f0f2faf8d7a0d14c09","651c1d5c56f3d779d1ab3197","null","null","<p style=""font-size: 60px; font-family: BACS"">OdlNmvcb</p>","","","","","","","","",""
"html-keyboard-response","392","757123","0.0-16.0-0.60","5caccaed2f93d700157b4782","650c16f0f2faf8d7a0d14c09","651c1d5c56f3d779d1ab3197","null","null","<p style=""font-size: 60px; font-family: BACS"">OdlNmvcb</p>","","","","","","","","",""
"html-keyboard-response","393","758128","0.0-16.0-0.61","5caccaed2f93d700157b4782","650c16f0f2faf8d7a0d14c09","651c1d5c56f3d779d1ab3197","null","null","<p style=""font-size: 60px; font-family: BACS"">OdlNmvcb</p>","","","","","","","","",""
"html-keyboard-response","394","759131","0.0-16.0-0.62","5caccaed2f93d700157b4782","650c16f0f2faf8d7a0d14c09","651c1d5c56f3d779d1ab3197","null","null","<p style=""font-size: 60px; font-family: BACS"">OdlNmvcb</p>","","","","","","","","",""
"html-keyboard-response","395","760134","0.0-16.0-0.63","5caccaed2f93d700157b4782","650c16f0f2faf8d7a0d14c09","651c1d5c56f3d779d1ab3197","null","null","<p style=""font-size: 60px; font-family: BACS"">OdlNmvcb</p>","","","","","","","","",""
"html-keyboard-response","396","761136","0.0-16.0-0.64","5caccaed2f93d700157b4782","650c16f0f2faf8d7a0d14c09","651c1d5c56f3d779d1ab3197","null","null","<p style=""font-size: 60px; font-family: BACS"">OdlNmvcb</p>","","","","","","","","",""
"html-keyboard-response","397","762140","0.0-16.0-0.65","5caccaed2f93d700157b4782","650c16f0f2faf8d7a0d14c09","651c1d5c56f3d779d1ab3197","null","null","<p style=""font-size: 60px; font-family: BACS"">OdlNmvcb</p>","","","","","","","","",""
"html-keyboard-response","398","763143","0.0-16.0-0.66","5caccaed2f93d700157b4782","650c16f0f2faf8d7a0d14c09","651c1d5c56f3d779d1ab3197","null","null","<p style=""font-size: 60px; font-family: BACS"">OdlNmvcb</p>","","","","","","","","",""
"html-keyboard-response","399","764146","0.0-16.0-0.67","5caccaed2f93d700157b4782","650c16f0f2faf8d7a0d14c09","651c1d5c56f3d779d1ab3197","null","null","<p style=""font-size: 60px; font-family: BACS"">OdlNmvcb</p>","","","","","","","","",""
