"trial_type","trial_index","time_elapsed","internal_node_id","subject_id","study_id","session_id","rt","response","stimulus","success","item","task","correct_response","correct","target","confound","name"
"pavlovia","0","3091","0.0-0.0","60f1846c851ee5a978a0e015","64b003020eef62ee308107cc","64b03e2bea289706dbb054e9","","","","","","","","","","",""
"survey-html-form","1","9446","0.0-1.0","60f1846c851ee5a978a0e015","64b003020eef62ee308107cc","64b03e2bea289706dbb054e9","6348","{""ID"":""60f1846c851ee5a978a0e015""}","","","","","","","","",""
"html-keyboard-response","2","15268","0.0-2.0","60f1846c851ee5a978a0e015","64b003020eef62ee308107cc","64b03e2bea289706dbb054e9","5812"," ","<p style=""font-size: 15px;"">Prima di cominciare, le chiediamo di leggere il modulo di consenso informato e confermare la sua volontà di partecipare all'esperimento.</p>
      <p style=""font-size: 15px;""> La preghiamo di ricordare che questo è un progetto di ricerca e che la sua partecipazione è completamente volontaria. Lei si potra' ritirare in qualunque momento, senza necessariamente dover dare alcuna spiegazione. Lo studio al quale Le si chiede di partecipare ha lo scopo di esaminare come i lettori elaborano le parole scritte. La somministrazione delle prove è individuale. Lei sarà impegnato in una sessione di lavoro della durata media di 10 minuti, e un questionario di 10 minuti. L’ordine delle prove ed il loro svolgimento sono stabiliti in modo tale da evitare un eventuale affaticamento. Tutte le prove saranno precedute da un breve addestramento in modo tale che abbia la possibilità di familiarizzare con il compito. Sono previste alcune pause nel corso dello svolgimento dell’esperimento. Una ricompensa di £4 (£8 per ora) Le verrà consegnata al termine della sessione di testing. Nonostante il testing preveda delle prove cognitive, il presente esperimento non costituisce una prova clinica che permetta la diagnosi di eventuali patologie.</p>
      <p style=""font-size: 15px;"">Tutti i dati raccolti grazie alla partecipazione Sua e di altre persone volontarie saranno custoditi in server sicuri e protetti da password, e non sarà consentito ad alcuna persona non autorizzata di accedervi. Le Sue informazioni personali saranno conservate separatamente dai risultati della presente ricerca, cui saranno associati soltanto attraverso un ID arbitrario. Grazie a questo processo di anonimizzazione dei dati, a nessun ricercatore sarà possibile analizzare i risultati sapendo da quale specifico partecipante essi provengono. Inoltre, questa procedura renderà impossibile la Sua identificazione anche nel momento in cui i risultati della ricerca fossero pubblicati su riviste scientifiche, o presentati a congressi o in qualsiasi altro pubblico consesso. Più in generale, i dati raccolti saranno trattati in accordo con le leggi sulla privacy e in conformità al Decreto Legislativo 30 giugno 2003 n. 196 “Codice in materia di protezione dei dati personali” e al Regolamento Europeo 2016/679 (General Data Protection Regulation - GDPR). Il Responsabile della protezione dei dati (RPD) è l’Avv. Valentina Carollo che può essere contattato ai seguenti indirizzi email: <a href=""mailto:dpo@sissa.it"">dpo@sissa.it</a> oppure <a href=""mailto:rpd@sissa.it"">rpd@sissa.it</a> - PEC: <a href=""mailto:protocollo@pec.sissa.it"">protocollo@pec.sissa.it</a>.</p>
      <p style=""font-size: 15px;""> Prima di esprimere il suo consenso alla partecipazione, Le ricordiamo ancora che in caso Lei abbia bisogno di delucidazioni su qualunque aspetto della procedura sperimentale, il ricercatore è a Sua completa disposizione (<a href=""mailto:aliebelt@sissa.it"">aliebelt@sissa.it</a>, <a href=""mailto:davide.crepaldi@sissa.it"">davide.crepaldi@sissa.it</a>).</p>
      <p style=""font-size: 15px;"">Se vuole scaricare il modulo di consenso informato, clicca qui: <a href=""BASL_modulo_consenso.pdf"" download>modulo di consenso</a>.</p>
      <p style=""font-size: 15px;""> Le chiediamo di premere la barra per continuare al consenso.</p>","","","","","","","",""
"survey-html-form","3","30628","0.0-3.0","60f1846c851ee5a978a0e015","64b003020eef62ee308107cc","64b03e2bea289706dbb054e9","15356","{""consent1"":""YES"",""consent2"":""YES"",""consent3"":""YES"",""consent4"":""YES"",""consent5"":""YES"",""consent6"":""YES""}","","","","","","","","",""
"fullscreen","4","44194","0.0-4.0","60f1846c851ee5a978a0e015","64b003020eef62ee308107cc","64b03e2bea289706dbb054e9","","","","true","","","","","","",""
"html-keyboard-response","5","621158","0.0-5.0","60f1846c851ee5a978a0e015","64b003020eef62ee308107cc","64b03e2bea289706dbb054e9","576963"," ","<p>Benvenuta/o, e grazie mille del tuo tempo!</p>
      <p>In questo esperimento sarai un esperto/un'esperta di linguaggio cui è stato chiesto di dare un'occhiata ad alcuni messaggi che la Terra ha ricevuto dallo spazio. Il tuo compito, in questa prima parte dell'esperimento, sarà di fare molta attenzione alle parole che ti verranno mostrate; più tardi, i leader del mondo ti chiederanno qualche informazione su quello che hai visto. Le parole si susseguiranno abbastanza velocemente; sembra che questi alieni abbiano una certa fretta :-) </p>
      <p>Per favore, chiama lo sperimentatore se ha qualche domanda.</p><p>Premi la barra per continuare.</p>","","","","","","","",""
"html-keyboard-response","6","1161597","0.0-6.0","60f1846c851ee5a978a0e015","64b003020eef62ee308107cc","64b03e2bea289706dbb054e9","540435"," ","<p>Ecco un esempio delle parole che vedrai:</p>
      <img src='esempio.png' height='400px'>
      <p>Quando sei pronti per iniziare, premi la barra.</p></div>","","","","","","","",""
"html-keyboard-response","7","1162601","0.0-7.0-0.0","60f1846c851ee5a978a0e015","64b003020eef62ee308107cc","64b03e2bea289706dbb054e9","null","null","<p style=""font-size: 60px; font-family: BACS"">NJZlJUNa</p>","","","","","","","",""
"html-keyboard-response","8","1163605","0.0-7.0-0.1","60f1846c851ee5a978a0e015","64b003020eef62ee308107cc","64b03e2bea289706dbb054e9","null","null","<p style=""font-size: 60px; font-family: BACS"">JNkaAOUl</p>","","","","","","","",""
"html-keyboard-response","9","1164610","0.0-7.0-0.2","60f1846c851ee5a978a0e015","64b003020eef62ee308107cc","64b03e2bea289706dbb054e9","null","null","<p style=""font-size: 60px; font-family: BACS"">aNYmbJUNa</p>","","","","","","","",""
"html-keyboard-response","10","1165616","0.0-7.0-0.3","60f1846c851ee5a978a0e015","64b003020eef62ee308107cc","64b03e2bea289706dbb054e9","null","null","<p style=""font-size: 60px; font-family: BACS"">OJGQvAvb</p>","","","","","","","",""
"html-keyboard-response","11","1166618","0.0-7.0-0.4","60f1846c851ee5a978a0e015","64b003020eef62ee308107cc","64b03e2bea289706dbb054e9","null","null","<p style=""font-size: 60px; font-family: BACS"">TDKhBCD</p>","","","","","","","",""
"html-keyboard-response","12","1167622","0.0-7.0-0.5","60f1846c851ee5a978a0e015","64b003020eef62ee308107cc","64b03e2bea289706dbb054e9","null","null","<p style=""font-size: 60px; font-family: BACS"">KMDYtlRE</p>","","","","","","","",""
"html-keyboard-response","13","1168629","0.0-7.0-0.6","60f1846c851ee5a978a0e015","64b003020eef62ee308107cc","64b03e2bea289706dbb054e9","null","null","<p style=""font-size: 60px; font-family: BACS"">aNYmbAOUl</p>","","","","","","","",""
"html-keyboard-response","14","1169635","0.0-7.0-0.7","60f1846c851ee5a978a0e015","64b003020eef62ee308107cc","64b03e2bea289706dbb054e9","null","null","<p style=""font-size: 60px; font-family: BACS"">TDKhcDR</p>","","","","","","","",""
"html-keyboard-response","15","1170642","0.0-7.0-0.8","60f1846c851ee5a978a0e015","64b003020eef62ee308107cc","64b03e2bea289706dbb054e9","null","null","<p style=""font-size: 60px; font-family: BACS"">RKYklRE</p>","","","","","","","",""
"html-keyboard-response","16","1171645","0.0-7.0-0.9","60f1846c851ee5a978a0e015","64b003020eef62ee308107cc","64b03e2bea289706dbb054e9","null","null","<p style=""font-size: 60px; font-family: BACS"">vYLUvAvb</p>","","","","","","","",""
"html-keyboard-response","17","1172649","0.0-7.0-0.10","60f1846c851ee5a978a0e015","64b003020eef62ee308107cc","64b03e2bea289706dbb054e9","null","null","<p style=""font-size: 60px; font-family: BACS"">EhbtYht</p>","","","","","","","",""
"html-keyboard-response","18","1173658","0.0-7.0-0.11","60f1846c851ee5a978a0e015","64b003020eef62ee308107cc","64b03e2bea289706dbb054e9","null","null","<p style=""font-size: 60px; font-family: BACS"">mBmlAcDR</p>","","","","","","","",""
"html-keyboard-response","19","1174663","0.0-7.0-0.12","60f1846c851ee5a978a0e015","64b003020eef62ee308107cc","64b03e2bea289706dbb054e9","null","null","<p style=""font-size: 60px; font-family: BACS"">rLaZYaOk</p>","","","","","","","",""
"html-keyboard-response","20","1175666","0.0-7.0-0.13","60f1846c851ee5a978a0e015","64b003020eef62ee308107cc","64b03e2bea289706dbb054e9","null","null","<p style=""font-size: 60px; font-family: BACS"">JNkaJUNa</p>","","","","","","","",""
"html-keyboard-response","21","1176675","0.0-7.0-0.14","60f1846c851ee5a978a0e015","64b003020eef62ee308107cc","64b03e2bea289706dbb054e9","null","null","<p style=""font-size: 60px; font-family: BACS"">kPkRAlRE</p>","","","","","","","",""
"html-keyboard-response","22","1177683","0.0-7.0-0.15","60f1846c851ee5a978a0e015","64b003020eef62ee308107cc","64b03e2bea289706dbb054e9","null","null","<p style=""font-size: 60px; font-family: BACS"">tdDdOMC</p>","","","","","","","",""
"html-keyboard-response","23","1178687","0.0-7.0-0.16","60f1846c851ee5a978a0e015","64b003020eef62ee308107cc","64b03e2bea289706dbb054e9","null","null","<p style=""font-size: 60px; font-family: BACS"">aYQmvAvb</p>","","","","","","","",""
"html-keyboard-response","24","1179689","0.0-7.0-0.17","60f1846c851ee5a978a0e015","64b003020eef62ee308107cc","64b03e2bea289706dbb054e9","null","null","<p style=""font-size: 60px; font-family: BACS"">UJmrAOUl</p>","","","","","","","",""
"html-keyboard-response","25","1180691","0.0-7.0-0.18","60f1846c851ee5a978a0e015","64b003020eef62ee308107cc","64b03e2bea289706dbb054e9","null","null","<p style=""font-size: 60px; font-family: BACS"">KMDYtOMC</p>","","","","","","","",""
"html-keyboard-response","26","1181700","0.0-7.0-0.19","60f1846c851ee5a978a0e015","64b003020eef62ee308107cc","64b03e2bea289706dbb054e9","null","null","<p style=""font-size: 60px; font-family: BACS"">AbKDYht</p>","","","","","","","",""
"html-keyboard-response","27","1182708","0.0-7.0-0.20","60f1846c851ee5a978a0e015","64b003020eef62ee308107cc","64b03e2bea289706dbb054e9","null","null","<p style=""font-size: 60px; font-family: BACS"">aNYmbvAvb</p>","","","","","","","",""
"html-keyboard-response","28","1183719","0.0-7.0-0.21","60f1846c851ee5a978a0e015","64b003020eef62ee308107cc","64b03e2bea289706dbb054e9","null","null","<p style=""font-size: 60px; font-family: BACS"">NJZldUr</p>","","","","","","","",""
"html-keyboard-response","29","1184724","0.0-7.0-0.22","60f1846c851ee5a978a0e015","64b003020eef62ee308107cc","64b03e2bea289706dbb054e9","null","null","<p style=""font-size: 60px; font-family: BACS"">AbKDcDR</p>","","","","","","","",""
"html-keyboard-response","30","1185727","0.0-7.0-0.23","60f1846c851ee5a978a0e015","64b003020eef62ee308107cc","64b03e2bea289706dbb054e9","null","null","<p style=""font-size: 60px; font-family: BACS"">rLaZJUNa</p>","","","","","","","",""
"html-keyboard-response","31","1186733","0.0-7.0-0.24","60f1846c851ee5a978a0e015","64b003020eef62ee308107cc","64b03e2bea289706dbb054e9","null","null","<p style=""font-size: 60px; font-family: BACS"">bvkrAOUl</p>","","","","","","","",""
"html-keyboard-response","32","1187734","0.0-7.0-0.25","60f1846c851ee5a978a0e015","64b003020eef62ee308107cc","64b03e2bea289706dbb054e9","null","null","<p style=""font-size: 60px; font-family: BACS"">AdDbYht</p>","","","","","","","",""
"html-keyboard-response","33","1188742","0.0-7.0-0.26","60f1846c851ee5a978a0e015","64b003020eef62ee308107cc","64b03e2bea289706dbb054e9","null","null","<p style=""font-size: 60px; font-family: BACS"">dKRDlRE</p>","","","","","","","",""
"html-keyboard-response","34","1189747","0.0-7.0-0.27","60f1846c851ee5a978a0e015","64b003020eef62ee308107cc","64b03e2bea289706dbb054e9","null","null","<p style=""font-size: 60px; font-family: BACS"">vYLUJUNa</p>","","","","","","","",""
"html-keyboard-response","35","1190755","0.0-7.0-0.28","60f1846c851ee5a978a0e015","64b003020eef62ee308107cc","64b03e2bea289706dbb054e9","null","null","<p style=""font-size: 60px; font-family: BACS"">mBmlAlRE</p>","","","","","","","",""
"html-keyboard-response","36","1191758","0.0-7.0-0.29","60f1846c851ee5a978a0e015","64b003020eef62ee308107cc","64b03e2bea289706dbb054e9","null","null","<p style=""font-size: 60px; font-family: BACS"">rLaZdUr</p>","","","","","","","",""
"html-keyboard-response","37","1192764","0.0-7.0-0.30","60f1846c851ee5a978a0e015","64b003020eef62ee308107cc","64b03e2bea289706dbb054e9","null","null","<p style=""font-size: 60px; font-family: BACS"">JNkaYaOk</p>","","","","","","","",""
"html-keyboard-response","38","1193767","0.0-7.0-0.31","60f1846c851ee5a978a0e015","64b003020eef62ee308107cc","64b03e2bea289706dbb054e9","null","null","<p style=""font-size: 60px; font-family: BACS"">dJNrdUr</p>","","","","","","","",""
"html-keyboard-response","39","1194777","0.0-7.0-0.32","60f1846c851ee5a978a0e015","64b003020eef62ee308107cc","64b03e2bea289706dbb054e9","null","null","<p style=""font-size: 60px; font-family: BACS"">bvkrJUNa</p>","","","","","","","",""
"html-keyboard-response","40","1195787","0.0-7.0-0.33","60f1846c851ee5a978a0e015","64b003020eef62ee308107cc","64b03e2bea289706dbb054e9","null","null","<p style=""font-size: 60px; font-family: BACS"">TDKhOMC</p>","","","","","","","",""
"html-keyboard-response","41","1196794","0.0-7.0-0.34","60f1846c851ee5a978a0e015","64b003020eef62ee308107cc","64b03e2bea289706dbb054e9","null","null","<p style=""font-size: 60px; font-family: BACS"">UJmrdUr</p>","","","","","","","",""
"html-keyboard-response","42","1197800","0.0-7.0-0.35","60f1846c851ee5a978a0e015","64b003020eef62ee308107cc","64b03e2bea289706dbb054e9","null","null","<p style=""font-size: 60px; font-family: BACS"">dKRDOMC</p>","","","","","","","",""
"html-keyboard-response","43","1198803","0.0-7.0-0.36","60f1846c851ee5a978a0e015","64b003020eef62ee308107cc","64b03e2bea289706dbb054e9","null","null","<p style=""font-size: 60px; font-family: BACS"">dJNrYaOk</p>","","","","","","","",""
"html-keyboard-response","44","1199808","0.0-7.0-0.37","60f1846c851ee5a978a0e015","64b003020eef62ee308107cc","64b03e2bea289706dbb054e9","null","null","<p style=""font-size: 60px; font-family: BACS"">OJGQdUr</p>","","","","","","","",""
"html-keyboard-response","45","1200813","0.0-7.0-0.38","60f1846c851ee5a978a0e015","64b003020eef62ee308107cc","64b03e2bea289706dbb054e9","null","null","<p style=""font-size: 60px; font-family: BACS"">vYLUYaOk</p>","","","","","","","",""
"html-keyboard-response","46","1201819","0.0-7.0-0.39","60f1846c851ee5a978a0e015","64b003020eef62ee308107cc","64b03e2bea289706dbb054e9","null","null","<p style=""font-size: 60px; font-family: BACS"">EhbtBCD</p>","","","","","","","",""
"html-keyboard-response","47","1202821","0.0-7.0-0.40","60f1846c851ee5a978a0e015","64b003020eef62ee308107cc","64b03e2bea289706dbb054e9","null","null","<p style=""font-size: 60px; font-family: BACS"">aNYmbdUr</p>","","","","","","","",""
"html-keyboard-response","48","1203824","0.0-7.0-0.41","60f1846c851ee5a978a0e015","64b003020eef62ee308107cc","64b03e2bea289706dbb054e9","null","null","<p style=""font-size: 60px; font-family: BACS"">UJmrYaOk</p>","","","","","","","",""
"html-keyboard-response","49","1204832","0.0-7.0-0.42","60f1846c851ee5a978a0e015","64b003020eef62ee308107cc","64b03e2bea289706dbb054e9","null","null","<p style=""font-size: 60px; font-family: BACS"">dJNrAOUl</p>","","","","","","","",""
"html-keyboard-response","50","1205840","0.0-7.0-0.43","60f1846c851ee5a978a0e015","64b003020eef62ee308107cc","64b03e2bea289706dbb054e9","null","null","<p style=""font-size: 60px; font-family: BACS"">kPkRAYht</p>","","","","","","","",""
"html-keyboard-response","51","1206842","0.0-7.0-0.44","60f1846c851ee5a978a0e015","64b003020eef62ee308107cc","64b03e2bea289706dbb054e9","null","null","<p style=""font-size: 60px; font-family: BACS"">KMDYtBCD</p>","","","","","","","",""
"html-keyboard-response","52","1207850","0.0-7.0-0.45","60f1846c851ee5a978a0e015","64b003020eef62ee308107cc","64b03e2bea289706dbb054e9","null","null","<p style=""font-size: 60px; font-family: BACS"">AdDbOMC</p>","","","","","","","",""
"html-keyboard-response","53","1208861","0.0-7.0-0.46","60f1846c851ee5a978a0e015","64b003020eef62ee308107cc","64b03e2bea289706dbb054e9","null","null","<p style=""font-size: 60px; font-family: BACS"">dKRDcDR</p>","","","","","","","",""
"html-keyboard-response","54","1209878","0.0-7.0-0.47","60f1846c851ee5a978a0e015","64b003020eef62ee308107cc","64b03e2bea289706dbb054e9","null","null","<p style=""font-size: 60px; font-family: BACS"">rLaZvAvb</p>","","","","","","","",""
"html-keyboard-response","55","1210888","0.0-7.0-0.48","60f1846c851ee5a978a0e015","64b003020eef62ee308107cc","64b03e2bea289706dbb054e9","null","null","<p style=""font-size: 60px; font-family: BACS"">dKRDBCD</p>","","","","","","","",""
"html-keyboard-response","56","1211900","0.0-7.0-0.49","60f1846c851ee5a978a0e015","64b003020eef62ee308107cc","64b03e2bea289706dbb054e9","null","null","<p style=""font-size: 60px; font-family: BACS"">JNkavAvb</p>","","","","","","","",""
"html-keyboard-response","57","1212911","0.0-7.0-0.50","60f1846c851ee5a978a0e015","64b003020eef62ee308107cc","64b03e2bea289706dbb054e9","null","null","<p style=""font-size: 60px; font-family: BACS"">tdDdlRE</p>","","","","","","","",""
"html-keyboard-response","58","1213916","0.0-7.0-0.51","60f1846c851ee5a978a0e015","64b003020eef62ee308107cc","64b03e2bea289706dbb054e9","null","null","<p style=""font-size: 60px; font-family: BACS"">OJGQJUNa</p>","","","","","","","",""
"html-keyboard-response","59","1214919","0.0-7.0-0.52","60f1846c851ee5a978a0e015","64b003020eef62ee308107cc","64b03e2bea289706dbb054e9","null","null","<p style=""font-size: 60px; font-family: BACS"">bvkrYaOk</p>","","","","","","","",""
"html-keyboard-response","60","1215922","0.0-7.0-0.53","60f1846c851ee5a978a0e015","64b003020eef62ee308107cc","64b03e2bea289706dbb054e9","null","null","<p style=""font-size: 60px; font-family: BACS"">dJNrvAvb</p>","","","","","","","",""
"html-keyboard-response","61","1216931","0.0-7.0-0.54","60f1846c851ee5a978a0e015","64b003020eef62ee308107cc","64b03e2bea289706dbb054e9","null","null","<p style=""font-size: 60px; font-family: BACS"">NJZlYaOk</p>","","","","","","","",""
"html-keyboard-response","62","1217933","0.0-7.0-0.55","60f1846c851ee5a978a0e015","64b003020eef62ee308107cc","64b03e2bea289706dbb054e9","null","null","<p style=""font-size: 60px; font-family: BACS"">AbKDlRE</p>","","","","","","","",""
"html-keyboard-response","63","1218941","0.0-7.0-0.56","60f1846c851ee5a978a0e015","64b003020eef62ee308107cc","64b03e2bea289706dbb054e9","null","null","<p style=""font-size: 60px; font-family: BACS"">vYLUAOUl</p>","","","","","","","",""
"html-keyboard-response","64","1219952","0.0-7.0-0.57","60f1846c851ee5a978a0e015","64b003020eef62ee308107cc","64b03e2bea289706dbb054e9","null","null","<p style=""font-size: 60px; font-family: BACS"">RKYkBCD</p>","","","","","","","",""
"html-keyboard-response","65","1220959","0.0-7.0-0.58","60f1846c851ee5a978a0e015","64b003020eef62ee308107cc","64b03e2bea289706dbb054e9","null","null","<p style=""font-size: 60px; font-family: BACS"">AbKDOMC</p>","","","","","","","",""
"html-keyboard-response","66","1221962","0.0-7.0-0.59","60f1846c851ee5a978a0e015","64b003020eef62ee308107cc","64b03e2bea289706dbb054e9","null","null","<p style=""font-size: 60px; font-family: BACS"">kPkRABCD</p>","","","","","","","",""
"html-keyboard-response","67","1222966","0.0-7.0-0.60","60f1846c851ee5a978a0e015","64b003020eef62ee308107cc","64b03e2bea289706dbb054e9","null","null","<p style=""font-size: 60px; font-family: BACS"">KMDYtYht</p>","","","","","","","",""
"html-keyboard-response","68","1223969","0.0-7.0-0.61","60f1846c851ee5a978a0e015","64b003020eef62ee308107cc","64b03e2bea289706dbb054e9","null","null","<p style=""font-size: 60px; font-family: BACS"">aYQmYaOk</p>","","","","","","","",""
"html-keyboard-response","69","1224970","0.0-7.0-0.62","60f1846c851ee5a978a0e015","64b003020eef62ee308107cc","64b03e2bea289706dbb054e9","null","null","<p style=""font-size: 60px; font-family: BACS"">tdDdYht</p>","","","","","","","",""
"html-keyboard-response","70","1225974","0.0-7.0-0.63","60f1846c851ee5a978a0e015","64b003020eef62ee308107cc","64b03e2bea289706dbb054e9","null","null","<p style=""font-size: 60px; font-family: BACS"">OJGQAOUl</p>","","","","","","","",""
"html-keyboard-response","71","1226984","0.0-7.0-0.64","60f1846c851ee5a978a0e015","64b003020eef62ee308107cc","64b03e2bea289706dbb054e9","null","null","<p style=""font-size: 60px; font-family: BACS"">AdDbBCD</p>","","","","","","","",""
"html-keyboard-response","72","1228006","0.0-7.0-0.65","60f1846c851ee5a978a0e015","64b003020eef62ee308107cc","64b03e2bea289706dbb054e9","null","null","<p style=""font-size: 60px; font-family: BACS"">bvkrdUr</p>","","","","","","","",""
"html-keyboard-response","73","1229009","0.0-7.0-0.66","60f1846c851ee5a978a0e015","64b003020eef62ee308107cc","64b03e2bea289706dbb054e9","null","null","<p style=""font-size: 60px; font-family: BACS"">TDKhYht</p>","","","","","","","",""
"html-keyboard-response","74","1230016","0.0-7.0-0.67","60f1846c851ee5a978a0e015","64b003020eef62ee308107cc","64b03e2bea289706dbb054e9","null","null","<p style=""font-size: 60px; font-family: BACS"">AdDbcDR</p>","","","","","","","",""
"html-keyboard-response","75","1231023","0.0-7.0-0.68","60f1846c851ee5a978a0e015","64b003020eef62ee308107cc","64b03e2bea289706dbb054e9","null","null","<p style=""font-size: 60px; font-family: BACS"">kPkRAOMC</p>","","","","","","","",""
"html-keyboard-response","76","1232027","0.0-7.0-0.69","60f1846c851ee5a978a0e015","64b003020eef62ee308107cc","64b03e2bea289706dbb054e9","null","null","<p style=""font-size: 60px; font-family: BACS"">aYQmJUNa</p>","","","","","","","",""
"html-keyboard-response","77","1233032","0.0-7.0-0.70","60f1846c851ee5a978a0e015","64b003020eef62ee308107cc","64b03e2bea289706dbb054e9","null","null","<p style=""font-size: 60px; font-family: BACS"">mBmlABCD</p>","","","","","","","",""
"html-keyboard-response","78","1234057","0.0-7.0-0.71","60f1846c851ee5a978a0e015","64b003020eef62ee308107cc","64b03e2bea289706dbb054e9","null","null","<p style=""font-size: 60px; font-family: BACS"">EhbtlRE</p>","","","","","","","",""
"html-keyboard-response","79","1235063","0.0-7.0-0.72","60f1846c851ee5a978a0e015","64b003020eef62ee308107cc","64b03e2bea289706dbb054e9","null","null","<p style=""font-size: 60px; font-family: BACS"">UJmrvAvb</p>","","","","","","","",""
"html-keyboard-response","80","1236069","0.0-7.0-0.73","60f1846c851ee5a978a0e015","64b003020eef62ee308107cc","64b03e2bea289706dbb054e9","null","null","<p style=""font-size: 60px; font-family: BACS"">NJZlAOUl</p>","","","","","","","",""
"html-keyboard-response","81","1237074","0.0-7.0-0.74","60f1846c851ee5a978a0e015","64b003020eef62ee308107cc","64b03e2bea289706dbb054e9","null","null","<p style=""font-size: 60px; font-family: BACS"">EhbtcDR</p>","","","","","","","",""
"html-keyboard-response","82","1238078","0.0-7.0-0.75","60f1846c851ee5a978a0e015","64b003020eef62ee308107cc","64b03e2bea289706dbb054e9","null","null","<p style=""font-size: 60px; font-family: BACS"">RKYkYht</p>","","","","","","","",""
"html-keyboard-response","83","1239088","0.0-7.0-0.76","60f1846c851ee5a978a0e015","64b003020eef62ee308107cc","64b03e2bea289706dbb054e9","null","null","<p style=""font-size: 60px; font-family: BACS"">tdDdcDR</p>","","","","","","","",""
"html-keyboard-response","84","1240104","0.0-7.0-0.77","60f1846c851ee5a978a0e015","64b003020eef62ee308107cc","64b03e2bea289706dbb054e9","null","null","<p style=""font-size: 60px; font-family: BACS"">aYQmdUr</p>","","","","","","","",""
"html-keyboard-response","85","1241111","0.0-7.0-0.78","60f1846c851ee5a978a0e015","64b003020eef62ee308107cc","64b03e2bea289706dbb054e9","null","null","<p style=""font-size: 60px; font-family: BACS"">mBmlAOMC</p>","","","","","","","",""
"html-keyboard-response","86","1242118","0.0-7.0-0.79","60f1846c851ee5a978a0e015","64b003020eef62ee308107cc","64b03e2bea289706dbb054e9","null","null","<p style=""font-size: 60px; font-family: BACS"">RKYkcDR</p>","","","","","","","",""
"html-keyboard-response","87","1290581","0.0-8.0","60f1846c851ee5a978a0e015","64b003020eef62ee308107cc","64b03e2bea289706dbb054e9","48461"," ","<p>Ottimo, hai visto il primo blocco di parole. Ora puoi prenderti una piccola pausa.</p>
      <p>Premi la barra quando sei pronta/o per riprendere.</p>","","","","","","","",""
"html-keyboard-response","88","1291590","0.0-9.0-0.0","60f1846c851ee5a978a0e015","64b003020eef62ee308107cc","64b03e2bea289706dbb054e9","null","null","<p style=""font-size: 60px; font-family: BACS"">tdDdYht</p>","","","","","","","",""
"html-keyboard-response","89","1292592","0.0-9.0-0.1","60f1846c851ee5a978a0e015","64b003020eef62ee308107cc","64b03e2bea289706dbb054e9","null","null","<p style=""font-size: 60px; font-family: BACS"">UJmrvAvb</p>","","","","","","","",""
"html-keyboard-response","90","1293596","0.0-9.0-0.2","60f1846c851ee5a978a0e015","64b003020eef62ee308107cc","64b03e2bea289706dbb054e9","null","null","<p style=""font-size: 60px; font-family: BACS"">kPkRABCD</p>","","","","","","","",""
"html-keyboard-response","91","1294601","0.0-9.0-0.3","60f1846c851ee5a978a0e015","64b003020eef62ee308107cc","64b03e2bea289706dbb054e9","null","null","<p style=""font-size: 60px; font-family: BACS"">UJmrdUr</p>","","","","","","","",""
"html-keyboard-response","92","1295611","0.0-9.0-0.4","60f1846c851ee5a978a0e015","64b003020eef62ee308107cc","64b03e2bea289706dbb054e9","null","null","<p style=""font-size: 60px; font-family: BACS"">TDKhcDR</p>","","","","","","","",""
"html-keyboard-response","93","1296619","0.0-9.0-0.5","60f1846c851ee5a978a0e015","64b003020eef62ee308107cc","64b03e2bea289706dbb054e9","null","null","<p style=""font-size: 60px; font-family: BACS"">rLaZJUNa</p>","","","","","","","",""
"html-keyboard-response","94","1297620","0.0-9.0-0.6","60f1846c851ee5a978a0e015","64b003020eef62ee308107cc","64b03e2bea289706dbb054e9","null","null","<p style=""font-size: 60px; font-family: BACS"">JNkaAOUl</p>","","","","","","","",""
"html-keyboard-response","95","1298627","0.0-9.0-0.7","60f1846c851ee5a978a0e015","64b003020eef62ee308107cc","64b03e2bea289706dbb054e9","null","null","<p style=""font-size: 60px; font-family: BACS"">dKRDOMC</p>","","","","","","","",""
"html-keyboard-response","96","1299637","0.0-9.0-0.8","60f1846c851ee5a978a0e015","64b003020eef62ee308107cc","64b03e2bea289706dbb054e9","null","null","<p style=""font-size: 60px; font-family: BACS"">vYLUAOUl</p>","","","","","","","",""
"html-keyboard-response","97","1300640","0.0-9.0-0.9","60f1846c851ee5a978a0e015","64b003020eef62ee308107cc","64b03e2bea289706dbb054e9","null","null","<p style=""font-size: 60px; font-family: BACS"">RKYklRE</p>","","","","","","","",""
"html-keyboard-response","98","1301642","0.0-9.0-0.10","60f1846c851ee5a978a0e015","64b003020eef62ee308107cc","64b03e2bea289706dbb054e9","null","null","<p style=""font-size: 60px; font-family: BACS"">OJGQdUr</p>","","","","","","","",""
"html-keyboard-response","99","1302647","0.0-9.0-0.11","60f1846c851ee5a978a0e015","64b003020eef62ee308107cc","64b03e2bea289706dbb054e9","null","null","<p style=""font-size: 60px; font-family: BACS"">JNkavAvb</p>","","","","","","","",""
"html-keyboard-response","100","1303651","0.0-9.0-0.12","60f1846c851ee5a978a0e015","64b003020eef62ee308107cc","64b03e2bea289706dbb054e9","null","null","<p style=""font-size: 60px; font-family: BACS"">KMDYtBCD</p>","","","","","","","",""
"html-keyboard-response","101","1304655","0.0-9.0-0.13","60f1846c851ee5a978a0e015","64b003020eef62ee308107cc","64b03e2bea289706dbb054e9","null","null","<p style=""font-size: 60px; font-family: BACS"">NJZlAOUl</p>","","","","","","","",""
"html-keyboard-response","102","1305661","0.0-9.0-0.14","60f1846c851ee5a978a0e015","64b003020eef62ee308107cc","64b03e2bea289706dbb054e9","null","null","<p style=""font-size: 60px; font-family: BACS"">RKYkYht</p>","","","","","","","",""
"html-keyboard-response","103","1306669","0.0-9.0-0.15","60f1846c851ee5a978a0e015","64b003020eef62ee308107cc","64b03e2bea289706dbb054e9","null","null","<p style=""font-size: 60px; font-family: BACS"">tdDdOMC</p>","","","","","","","",""
"html-keyboard-response","104","1307678","0.0-9.0-0.16","60f1846c851ee5a978a0e015","64b003020eef62ee308107cc","64b03e2bea289706dbb054e9","null","null","<p style=""font-size: 60px; font-family: BACS"">mBmlAlRE</p>","","","","","","","",""
"html-keyboard-response","105","1308685","0.0-9.0-0.17","60f1846c851ee5a978a0e015","64b003020eef62ee308107cc","64b03e2bea289706dbb054e9","null","null","<p style=""font-size: 60px; font-family: BACS"">rLaZdUr</p>","","","","","","","",""
"html-keyboard-response","106","1309694","0.0-9.0-0.18","60f1846c851ee5a978a0e015","64b003020eef62ee308107cc","64b03e2bea289706dbb054e9","null","null","<p style=""font-size: 60px; font-family: BACS"">tdDdlRE</p>","","","","","","","",""
"html-keyboard-response","107","1310704","0.0-9.0-0.19","60f1846c851ee5a978a0e015","64b003020eef62ee308107cc","64b03e2bea289706dbb054e9","null","null","<p style=""font-size: 60px; font-family: BACS"">OJGQAOUl</p>","","","","","","","",""
"html-keyboard-response","108","1311707","0.0-9.0-0.20","60f1846c851ee5a978a0e015","64b003020eef62ee308107cc","64b03e2bea289706dbb054e9","null","null","<p style=""font-size: 60px; font-family: BACS"">AdDbcDR</p>","","","","","","","",""
"html-keyboard-response","109","1312711","0.0-9.0-0.21","60f1846c851ee5a978a0e015","64b003020eef62ee308107cc","64b03e2bea289706dbb054e9","null","null","<p style=""font-size: 60px; font-family: BACS"">bvkrYaOk</p>","","","","","","","",""
"html-keyboard-response","110","1313718","0.0-9.0-0.22","60f1846c851ee5a978a0e015","64b003020eef62ee308107cc","64b03e2bea289706dbb054e9","null","null","<p style=""font-size: 60px; font-family: BACS"">aNYmbAOUl</p>","","","","","","","",""
"html-keyboard-response","111","1314722","0.0-9.0-0.23","60f1846c851ee5a978a0e015","64b003020eef62ee308107cc","64b03e2bea289706dbb054e9","null","null","<p style=""font-size: 60px; font-family: BACS"">dKRDBCD</p>","","","","","","","",""
"html-keyboard-response","112","1315728","0.0-9.0-0.24","60f1846c851ee5a978a0e015","64b003020eef62ee308107cc","64b03e2bea289706dbb054e9","null","null","<p style=""font-size: 60px; font-family: BACS"">bvkrJUNa</p>","","","","","","","",""
"html-keyboard-response","113","1316731","0.0-9.0-0.25","60f1846c851ee5a978a0e015","64b003020eef62ee308107cc","64b03e2bea289706dbb054e9","null","null","<p style=""font-size: 60px; font-family: BACS"">dKRDcDR</p>","","","","","","","",""
"html-keyboard-response","114","1317734","0.0-9.0-0.26","60f1846c851ee5a978a0e015","64b003020eef62ee308107cc","64b03e2bea289706dbb054e9","null","null","<p style=""font-size: 60px; font-family: BACS"">aNYmbdUr</p>","","","","","","","",""
"html-keyboard-response","115","1318745","0.0-9.0-0.27","60f1846c851ee5a978a0e015","64b003020eef62ee308107cc","64b03e2bea289706dbb054e9","null","null","<p style=""font-size: 60px; font-family: BACS"">RKYkcDR</p>","","","","","","","",""
"html-keyboard-response","116","1319753","0.0-9.0-0.28","60f1846c851ee5a978a0e015","64b003020eef62ee308107cc","64b03e2bea289706dbb054e9","null","null","<p style=""font-size: 60px; font-family: BACS"">aNYmbJUNa</p>","","","","","","","",""
"html-keyboard-response","117","1320758","0.0-9.0-0.29","60f1846c851ee5a978a0e015","64b003020eef62ee308107cc","64b03e2bea289706dbb054e9","null","null","<p style=""font-size: 60px; font-family: BACS"">TDKhOMC</p>","","","","","","","",""
"html-keyboard-response","118","1321762","0.0-9.0-0.30","60f1846c851ee5a978a0e015","64b003020eef62ee308107cc","64b03e2bea289706dbb054e9","null","null","<p style=""font-size: 60px; font-family: BACS"">dJNrvAvb</p>","","","","","","","",""
"html-keyboard-response","119","1322768","0.0-9.0-0.31","60f1846c851ee5a978a0e015","64b003020eef62ee308107cc","64b03e2bea289706dbb054e9","null","null","<p style=""font-size: 60px; font-family: BACS"">bvkrdUr</p>","","","","","","","",""
"html-keyboard-response","120","1323773","0.0-9.0-0.32","60f1846c851ee5a978a0e015","64b003020eef62ee308107cc","64b03e2bea289706dbb054e9","null","null","<p style=""font-size: 60px; font-family: BACS"">kPkRAYht</p>","","","","","","","",""
"html-keyboard-response","121","1324783","0.0-9.0-0.33","60f1846c851ee5a978a0e015","64b003020eef62ee308107cc","64b03e2bea289706dbb054e9","null","null","<p style=""font-size: 60px; font-family: BACS"">AbKDlRE</p>","","","","","","","",""
"html-keyboard-response","122","1325789","0.0-9.0-0.34","60f1846c851ee5a978a0e015","64b003020eef62ee308107cc","64b03e2bea289706dbb054e9","null","null","<p style=""font-size: 60px; font-family: BACS"">aNYmbvAvb</p>","","","","","","","",""
"html-keyboard-response","123","1326801","0.0-9.0-0.35","60f1846c851ee5a978a0e015","64b003020eef62ee308107cc","64b03e2bea289706dbb054e9","null","null","<p style=""font-size: 60px; font-family: BACS"">tdDdcDR</p>","","","","","","","",""
"html-keyboard-response","124","1327823","0.0-9.0-0.36","60f1846c851ee5a978a0e015","64b003020eef62ee308107cc","64b03e2bea289706dbb054e9","null","null","<p style=""font-size: 60px; font-family: BACS"">dKRDlRE</p>","","","","","","","",""
"html-keyboard-response","125","1328828","0.0-9.0-0.37","60f1846c851ee5a978a0e015","64b003020eef62ee308107cc","64b03e2bea289706dbb054e9","null","null","<p style=""font-size: 60px; font-family: BACS"">AbKDYht</p>","","","","","","","",""
"html-keyboard-response","126","1329832","0.0-9.0-0.38","60f1846c851ee5a978a0e015","64b003020eef62ee308107cc","64b03e2bea289706dbb054e9","null","null","<p style=""font-size: 60px; font-family: BACS"">mBmlAOMC</p>","","","","","","","",""
"html-keyboard-response","127","1330838","0.0-9.0-0.39","60f1846c851ee5a978a0e015","64b003020eef62ee308107cc","64b03e2bea289706dbb054e9","null","null","<p style=""font-size: 60px; font-family: BACS"">KMDYtYht</p>","","","","","","","",""
"html-keyboard-response","128","1331844","0.0-9.0-0.40","60f1846c851ee5a978a0e015","64b003020eef62ee308107cc","64b03e2bea289706dbb054e9","null","null","<p style=""font-size: 60px; font-family: BACS"">NJZldUr</p>","","","","","","","",""
"html-keyboard-response","129","1332848","0.0-9.0-0.41","60f1846c851ee5a978a0e015","64b003020eef62ee308107cc","64b03e2bea289706dbb054e9","null","null","<p style=""font-size: 60px; font-family: BACS"">vYLUvAvb</p>","","","","","","","",""
"html-keyboard-response","130","1333853","0.0-9.0-0.42","60f1846c851ee5a978a0e015","64b003020eef62ee308107cc","64b03e2bea289706dbb054e9","null","null","<p style=""font-size: 60px; font-family: BACS"">mBmlABCD</p>","","","","","","","",""
"html-keyboard-response","131","1334861","0.0-9.0-0.43","60f1846c851ee5a978a0e015","64b003020eef62ee308107cc","64b03e2bea289706dbb054e9","null","null","<p style=""font-size: 60px; font-family: BACS"">rLaZYaOk</p>","","","","","","","",""
"html-keyboard-response","132","1335867","0.0-9.0-0.44","60f1846c851ee5a978a0e015","64b003020eef62ee308107cc","64b03e2bea289706dbb054e9","null","null","<p style=""font-size: 60px; font-family: BACS"">OJGQJUNa</p>","","","","","","","",""
"html-keyboard-response","133","1336874","0.0-9.0-0.45","60f1846c851ee5a978a0e015","64b003020eef62ee308107cc","64b03e2bea289706dbb054e9","null","null","<p style=""font-size: 60px; font-family: BACS"">NJZlYaOk</p>","","","","","","","",""
"html-keyboard-response","134","1337880","0.0-9.0-0.46","60f1846c851ee5a978a0e015","64b003020eef62ee308107cc","64b03e2bea289706dbb054e9","null","null","<p style=""font-size: 60px; font-family: BACS"">EhbtBCD</p>","","","","","","","",""
"html-keyboard-response","135","1338889","0.0-9.0-0.47","60f1846c851ee5a978a0e015","64b003020eef62ee308107cc","64b03e2bea289706dbb054e9","null","null","<p style=""font-size: 60px; font-family: BACS"">UJmrAOUl</p>","","","","","","","",""
"html-keyboard-response","136","1339897","0.0-9.0-0.48","60f1846c851ee5a978a0e015","64b003020eef62ee308107cc","64b03e2bea289706dbb054e9","null","null","<p style=""font-size: 60px; font-family: BACS"">aYQmJUNa</p>","","","","","","","",""
"html-keyboard-response","137","1340903","0.0-9.0-0.49","60f1846c851ee5a978a0e015","64b003020eef62ee308107cc","64b03e2bea289706dbb054e9","null","null","<p style=""font-size: 60px; font-family: BACS"">kPkRAOMC</p>","","","","","","","",""
"html-keyboard-response","138","1341912","0.0-9.0-0.50","60f1846c851ee5a978a0e015","64b003020eef62ee308107cc","64b03e2bea289706dbb054e9","null","null","<p style=""font-size: 60px; font-family: BACS"">EhbtlRE</p>","","","","","","","",""
"html-keyboard-response","139","1342924","0.0-9.0-0.51","60f1846c851ee5a978a0e015","64b003020eef62ee308107cc","64b03e2bea289706dbb054e9","null","null","<p style=""font-size: 60px; font-family: BACS"">JNkaYaOk</p>","","","","","","","",""
"html-keyboard-response","140","1343933","0.0-9.0-0.52","60f1846c851ee5a978a0e015","64b003020eef62ee308107cc","64b03e2bea289706dbb054e9","null","null","<p style=""font-size: 60px; font-family: BACS"">EhbtYht</p>","","","","","","","",""
"html-keyboard-response","141","1344936","0.0-9.0-0.53","60f1846c851ee5a978a0e015","64b003020eef62ee308107cc","64b03e2bea289706dbb054e9","null","null","<p style=""font-size: 60px; font-family: BACS"">mBmlAcDR</p>","","","","","","","",""
"html-keyboard-response","142","1345942","0.0-9.0-0.54","60f1846c851ee5a978a0e015","64b003020eef62ee308107cc","64b03e2bea289706dbb054e9","null","null","<p style=""font-size: 60px; font-family: BACS"">NJZlJUNa</p>","","","","","","","",""
"html-keyboard-response","143","1346944","0.0-9.0-0.55","60f1846c851ee5a978a0e015","64b003020eef62ee308107cc","64b03e2bea289706dbb054e9","null","null","<p style=""font-size: 60px; font-family: BACS"">AbKDcDR</p>","","","","","","","",""
"html-keyboard-response","144","1347952","0.0-9.0-0.56","60f1846c851ee5a978a0e015","64b003020eef62ee308107cc","64b03e2bea289706dbb054e9","null","null","<p style=""font-size: 60px; font-family: BACS"">AdDbYht</p>","","","","","","","",""
"html-keyboard-response","145","1348955","0.0-9.0-0.57","60f1846c851ee5a978a0e015","64b003020eef62ee308107cc","64b03e2bea289706dbb054e9","null","null","<p style=""font-size: 60px; font-family: BACS"">KMDYtlRE</p>","","","","","","","",""
"html-keyboard-response","146","1349961","0.0-9.0-0.58","60f1846c851ee5a978a0e015","64b003020eef62ee308107cc","64b03e2bea289706dbb054e9","null","null","<p style=""font-size: 60px; font-family: BACS"">UJmrYaOk</p>","","","","","","","",""
"html-keyboard-response","147","1350971","0.0-9.0-0.59","60f1846c851ee5a978a0e015","64b003020eef62ee308107cc","64b03e2bea289706dbb054e9","null","null","<p style=""font-size: 60px; font-family: BACS"">dJNrAOUl</p>","","","","","","","",""
"html-keyboard-response","148","1351975","0.0-9.0-0.60","60f1846c851ee5a978a0e015","64b003020eef62ee308107cc","64b03e2bea289706dbb054e9","null","null","<p style=""font-size: 60px; font-family: BACS"">AdDbBCD</p>","","","","","","","",""
"html-keyboard-response","149","1352983","0.0-9.0-0.61","60f1846c851ee5a978a0e015","64b003020eef62ee308107cc","64b03e2bea289706dbb054e9","null","null","<p style=""font-size: 60px; font-family: BACS"">KMDYtOMC</p>","","","","","","","",""
"html-keyboard-response","150","1353986","0.0-9.0-0.62","60f1846c851ee5a978a0e015","64b003020eef62ee308107cc","64b03e2bea289706dbb054e9","null","null","<p style=""font-size: 60px; font-family: BACS"">dJNrYaOk</p>","","","","","","","",""
"html-keyboard-response","151","1354996","0.0-9.0-0.63","60f1846c851ee5a978a0e015","64b003020eef62ee308107cc","64b03e2bea289706dbb054e9","null","null","<p style=""font-size: 60px; font-family: BACS"">vYLUJUNa</p>","","","","","","","",""
"html-keyboard-response","152","1356000","0.0-9.0-0.64","60f1846c851ee5a978a0e015","64b003020eef62ee308107cc","64b03e2bea289706dbb054e9","null","null","<p style=""font-size: 60px; font-family: BACS"">bvkrAOUl</p>","","","","","","","",""
"html-keyboard-response","153","1357002","0.0-9.0-0.65","60f1846c851ee5a978a0e015","64b003020eef62ee308107cc","64b03e2bea289706dbb054e9","null","null","<p style=""font-size: 60px; font-family: BACS"">JNkaJUNa</p>","","","","","","","",""
"html-keyboard-response","154","1358012","0.0-9.0-0.66","60f1846c851ee5a978a0e015","64b003020eef62ee308107cc","64b03e2bea289706dbb054e9","null","null","<p style=""font-size: 60px; font-family: BACS"">RKYkBCD</p>","","","","","","","",""
"html-keyboard-response","155","1359020","0.0-9.0-0.67","60f1846c851ee5a978a0e015","64b003020eef62ee308107cc","64b03e2bea289706dbb054e9","null","null","<p style=""font-size: 60px; font-family: BACS"">AbKDOMC</p>","","","","","","","",""
"html-keyboard-response","156","1360027","0.0-9.0-0.68","60f1846c851ee5a978a0e015","64b003020eef62ee308107cc","64b03e2bea289706dbb054e9","null","null","<p style=""font-size: 60px; font-family: BACS"">OJGQvAvb</p>","","","","","","","",""
"html-keyboard-response","157","1361032","0.0-9.0-0.69","60f1846c851ee5a978a0e015","64b003020eef62ee308107cc","64b03e2bea289706dbb054e9","null","null","<p style=""font-size: 60px; font-family: BACS"">aYQmYaOk</p>","","","","","","","",""
"html-keyboard-response","158","1362037","0.0-9.0-0.70","60f1846c851ee5a978a0e015","64b003020eef62ee308107cc","64b03e2bea289706dbb054e9","null","null","<p style=""font-size: 60px; font-family: BACS"">AdDbOMC</p>","","","","","","","",""
"html-keyboard-response","159","1363039","0.0-9.0-0.71","60f1846c851ee5a978a0e015","64b003020eef62ee308107cc","64b03e2bea289706dbb054e9","null","null","<p style=""font-size: 60px; font-family: BACS"">EhbtcDR</p>","","","","","","","",""
"html-keyboard-response","160","1364044","0.0-9.0-0.72","60f1846c851ee5a978a0e015","64b003020eef62ee308107cc","64b03e2bea289706dbb054e9","null","null","<p style=""font-size: 60px; font-family: BACS"">aYQmdUr</p>","","","","","","","",""
"html-keyboard-response","161","1365049","0.0-9.0-0.73","60f1846c851ee5a978a0e015","64b003020eef62ee308107cc","64b03e2bea289706dbb054e9","null","null","<p style=""font-size: 60px; font-family: BACS"">TDKhYht</p>","","","","","","","",""
"html-keyboard-response","162","1366054","0.0-9.0-0.74","60f1846c851ee5a978a0e015","64b003020eef62ee308107cc","64b03e2bea289706dbb054e9","null","null","<p style=""font-size: 60px; font-family: BACS"">kPkRAlRE</p>","","","","","","","",""
"html-keyboard-response","163","1367067","0.0-9.0-0.75","60f1846c851ee5a978a0e015","64b003020eef62ee308107cc","64b03e2bea289706dbb054e9","null","null","<p style=""font-size: 60px; font-family: BACS"">aYQmvAvb</p>","","","","","","","",""
"html-keyboard-response","164","1368069","0.0-9.0-0.76","60f1846c851ee5a978a0e015","64b003020eef62ee308107cc","64b03e2bea289706dbb054e9","null","null","<p style=""font-size: 60px; font-family: BACS"">TDKhBCD</p>","","","","","","","",""
"html-keyboard-response","165","1369081","0.0-9.0-0.77","60f1846c851ee5a978a0e015","64b003020eef62ee308107cc","64b03e2bea289706dbb054e9","null","null","<p style=""font-size: 60px; font-family: BACS"">dJNrdUr</p>","","","","","","","",""
"html-keyboard-response","166","1370086","0.0-9.0-0.78","60f1846c851ee5a978a0e015","64b003020eef62ee308107cc","64b03e2bea289706dbb054e9","null","null","<p style=""font-size: 60px; font-family: BACS"">rLaZvAvb</p>","","","","","","","",""
"html-keyboard-response","167","1371097","0.0-9.0-0.79","60f1846c851ee5a978a0e015","64b003020eef62ee308107cc","64b03e2bea289706dbb054e9","null","null","<p style=""font-size: 60px; font-family: BACS"">vYLUYaOk</p>","","","","","","","",""
"html-keyboard-response","168","1465030","0.0-10.0","60f1846c851ee5a978a0e015","64b003020eef62ee308107cc","64b03e2bea289706dbb054e9","93933"," ","<p>Ottimo, hai visto il secondo blocco di parole. Ora puoi prenderti una piccola pausa.</p>
      <p>Premi la barra quando sei pronta/o per riprendere.</p>","","","","","","","",""
"html-keyboard-response","169","1466047","0.0-11.0-0.0","60f1846c851ee5a978a0e015","64b003020eef62ee308107cc","64b03e2bea289706dbb054e9","null","null","<p style=""font-size: 60px; font-family: BACS"">KMDYtYht</p>","","","","","","","",""
"html-keyboard-response","170","1467052","0.0-11.0-0.1","60f1846c851ee5a978a0e015","64b003020eef62ee308107cc","64b03e2bea289706dbb054e9","null","null","<p style=""font-size: 60px; font-family: BACS"">OJGQAOUl</p>","","","","","","","",""
"html-keyboard-response","171","1468063","0.0-11.0-0.2","60f1846c851ee5a978a0e015","64b003020eef62ee308107cc","64b03e2bea289706dbb054e9","null","null","<p style=""font-size: 60px; font-family: BACS"">AdDbOMC</p>","","","","","","","",""
"html-keyboard-response","172","1469068","0.0-11.0-0.3","60f1846c851ee5a978a0e015","64b003020eef62ee308107cc","64b03e2bea289706dbb054e9","null","null","<p style=""font-size: 60px; font-family: BACS"">NJZldUr</p>","","","","","","","",""
"html-keyboard-response","173","1470078","0.0-11.0-0.4","60f1846c851ee5a978a0e015","64b003020eef62ee308107cc","64b03e2bea289706dbb054e9","null","null","<p style=""font-size: 60px; font-family: BACS"">OJGQvAvb</p>","","","","","","","",""
"html-keyboard-response","174","1471088","0.0-11.0-0.5","60f1846c851ee5a978a0e015","64b003020eef62ee308107cc","64b03e2bea289706dbb054e9","null","null","<p style=""font-size: 60px; font-family: BACS"">KMDYtlRE</p>","","","","","","","",""
"html-keyboard-response","175","1472097","0.0-11.0-0.6","60f1846c851ee5a978a0e015","64b003020eef62ee308107cc","64b03e2bea289706dbb054e9","null","null","<p style=""font-size: 60px; font-family: BACS"">tdDdcDR</p>","","","","","","","",""
"html-keyboard-response","176","1473104","0.0-11.0-0.7","60f1846c851ee5a978a0e015","64b003020eef62ee308107cc","64b03e2bea289706dbb054e9","null","null","<p style=""font-size: 60px; font-family: BACS"">EhbtYht</p>","","","","","","","",""
"html-keyboard-response","177","1474110","0.0-11.0-0.8","60f1846c851ee5a978a0e015","64b003020eef62ee308107cc","64b03e2bea289706dbb054e9","null","null","<p style=""font-size: 60px; font-family: BACS"">JNkaYaOk</p>","","","","","","","",""
"html-keyboard-response","178","1475119","0.0-11.0-0.9","60f1846c851ee5a978a0e015","64b003020eef62ee308107cc","64b03e2bea289706dbb054e9","null","null","<p style=""font-size: 60px; font-family: BACS"">aYQmdUr</p>","","","","","","","",""
"html-keyboard-response","179","1476125","0.0-11.0-0.10","60f1846c851ee5a978a0e015","64b003020eef62ee308107cc","64b03e2bea289706dbb054e9","null","null","<p style=""font-size: 60px; font-family: BACS"">rLaZYaOk</p>","","","","","","","",""
"html-keyboard-response","180","1477131","0.0-11.0-0.11","60f1846c851ee5a978a0e015","64b003020eef62ee308107cc","64b03e2bea289706dbb054e9","null","null","<p style=""font-size: 60px; font-family: BACS"">dKRDBCD</p>","","","","","","","",""
"html-keyboard-response","181","1478148","0.0-11.0-0.12","60f1846c851ee5a978a0e015","64b003020eef62ee308107cc","64b03e2bea289706dbb054e9","null","null","<p style=""font-size: 60px; font-family: BACS"">mBmlAOMC</p>","","","","","","","",""
"html-keyboard-response","182","1479151","0.0-11.0-0.13","60f1846c851ee5a978a0e015","64b003020eef62ee308107cc","64b03e2bea289706dbb054e9","null","null","<p style=""font-size: 60px; font-family: BACS"">RKYkYht</p>","","","","","","","",""
"html-keyboard-response","183","1480159","0.0-11.0-0.14","60f1846c851ee5a978a0e015","64b003020eef62ee308107cc","64b03e2bea289706dbb054e9","null","null","<p style=""font-size: 60px; font-family: BACS"">bvkrYaOk</p>","","","","","","","",""
"html-keyboard-response","184","1481161","0.0-11.0-0.15","60f1846c851ee5a978a0e015","64b003020eef62ee308107cc","64b03e2bea289706dbb054e9","null","null","<p style=""font-size: 60px; font-family: BACS"">TDKhOMC</p>","","","","","","","",""
"html-keyboard-response","185","1482165","0.0-11.0-0.16","60f1846c851ee5a978a0e015","64b003020eef62ee308107cc","64b03e2bea289706dbb054e9","null","null","<p style=""font-size: 60px; font-family: BACS"">vYLUJUNa</p>","","","","","","","",""
"html-keyboard-response","186","1483170","0.0-11.0-0.17","60f1846c851ee5a978a0e015","64b003020eef62ee308107cc","64b03e2bea289706dbb054e9","null","null","<p style=""font-size: 60px; font-family: BACS"">mBmlABCD</p>","","","","","","","",""
"html-keyboard-response","187","1484175","0.0-11.0-0.18","60f1846c851ee5a978a0e015","64b003020eef62ee308107cc","64b03e2bea289706dbb054e9","null","null","<p style=""font-size: 60px; font-family: BACS"">JNkaAOUl</p>","","","","","","","",""
"html-keyboard-response","188","1485179","0.0-11.0-0.19","60f1846c851ee5a978a0e015","64b003020eef62ee308107cc","64b03e2bea289706dbb054e9","null","null","<p style=""font-size: 60px; font-family: BACS"">UJmrdUr</p>","","","","","","","",""
"html-keyboard-response","189","1486185","0.0-11.0-0.20","60f1846c851ee5a978a0e015","64b003020eef62ee308107cc","64b03e2bea289706dbb054e9","null","null","<p style=""font-size: 60px; font-family: BACS"">vYLUYaOk</p>","","","","","","","",""
"html-keyboard-response","190","1487194","0.0-11.0-0.21","60f1846c851ee5a978a0e015","64b003020eef62ee308107cc","64b03e2bea289706dbb054e9","null","null","<p style=""font-size: 60px; font-family: BACS"">AbKDlRE</p>","","","","","","","",""
"html-keyboard-response","191","1488203","0.0-11.0-0.22","60f1846c851ee5a978a0e015","64b003020eef62ee308107cc","64b03e2bea289706dbb054e9","null","null","<p style=""font-size: 60px; font-family: BACS"">NJZlAOUl</p>","","","","","","","",""
"html-keyboard-response","192","1489211","0.0-11.0-0.23","60f1846c851ee5a978a0e015","64b003020eef62ee308107cc","64b03e2bea289706dbb054e9","null","null","<p style=""font-size: 60px; font-family: BACS"">aNYmbvAvb</p>","","","","","","","",""
"html-keyboard-response","193","1490214","0.0-11.0-0.24","60f1846c851ee5a978a0e015","64b003020eef62ee308107cc","64b03e2bea289706dbb054e9","null","null","<p style=""font-size: 60px; font-family: BACS"">tdDdlRE</p>","","","","","","","",""
"html-keyboard-response","194","1491221","0.0-11.0-0.25","60f1846c851ee5a978a0e015","64b003020eef62ee308107cc","64b03e2bea289706dbb054e9","null","null","<p style=""font-size: 60px; font-family: BACS"">bvkrdUr</p>","","","","","","","",""
"html-keyboard-response","195","1492225","0.0-11.0-0.26","60f1846c851ee5a978a0e015","64b003020eef62ee308107cc","64b03e2bea289706dbb054e9","null","null","<p style=""font-size: 60px; font-family: BACS"">mBmlAcDR</p>","","","","","","","",""
"html-keyboard-response","196","1493235","0.0-11.0-0.27","60f1846c851ee5a978a0e015","64b003020eef62ee308107cc","64b03e2bea289706dbb054e9","null","null","<p style=""font-size: 60px; font-family: BACS"">AdDbBCD</p>","","","","","","","",""
"html-keyboard-response","197","1494238","0.0-11.0-0.28","60f1846c851ee5a978a0e015","64b003020eef62ee308107cc","64b03e2bea289706dbb054e9","null","null","<p style=""font-size: 60px; font-family: BACS"">UJmrYaOk</p>","","","","","","","",""
"html-keyboard-response","198","1495242","0.0-11.0-0.29","60f1846c851ee5a978a0e015","64b003020eef62ee308107cc","64b03e2bea289706dbb054e9","null","null","<p style=""font-size: 60px; font-family: BACS"">AbKDYht</p>","","","","","","","",""
"html-keyboard-response","199","1496251","0.0-11.0-0.30","60f1846c851ee5a978a0e015","64b003020eef62ee308107cc","64b03e2bea289706dbb054e9","null","null","<p style=""font-size: 60px; font-family: BACS"">TDKhcDR</p>","","","","","","","",""
"html-keyboard-response","200","1497260","0.0-11.0-0.31","60f1846c851ee5a978a0e015","64b003020eef62ee308107cc","64b03e2bea289706dbb054e9","null","null","<p style=""font-size: 60px; font-family: BACS"">rLaZvAvb</p>","","","","","","","",""
"html-keyboard-response","201","1498268","0.0-11.0-0.32","60f1846c851ee5a978a0e015","64b003020eef62ee308107cc","64b03e2bea289706dbb054e9","null","null","<p style=""font-size: 60px; font-family: BACS"">dKRDlRE</p>","","","","","","","",""
"html-keyboard-response","202","1499277","0.0-11.0-0.33","60f1846c851ee5a978a0e015","64b003020eef62ee308107cc","64b03e2bea289706dbb054e9","null","null","<p style=""font-size: 60px; font-family: BACS"">OJGQdUr</p>","","","","","","","",""
"html-keyboard-response","203","1500282","0.0-11.0-0.34","60f1846c851ee5a978a0e015","64b003020eef62ee308107cc","64b03e2bea289706dbb054e9","null","null","<p style=""font-size: 60px; font-family: BACS"">vYLUAOUl</p>","","","","","","","",""
"html-keyboard-response","204","1501290","0.0-11.0-0.35","60f1846c851ee5a978a0e015","64b003020eef62ee308107cc","64b03e2bea289706dbb054e9","null","null","<p style=""font-size: 60px; font-family: BACS"">EhbtBCD</p>","","","","","","","",""
"html-keyboard-response","205","1502294","0.0-11.0-0.36","60f1846c851ee5a978a0e015","64b003020eef62ee308107cc","64b03e2bea289706dbb054e9","null","null","<p style=""font-size: 60px; font-family: BACS"">vYLUvAvb</p>","","","","","","","",""
"html-keyboard-response","206","1503300","0.0-11.0-0.37","60f1846c851ee5a978a0e015","64b003020eef62ee308107cc","64b03e2bea289706dbb054e9","null","null","<p style=""font-size: 60px; font-family: BACS"">dJNrYaOk</p>","","","","","","","",""
"html-keyboard-response","207","1504311","0.0-11.0-0.38","60f1846c851ee5a978a0e015","64b003020eef62ee308107cc","64b03e2bea289706dbb054e9","null","null","<p style=""font-size: 60px; font-family: BACS"">aYQmJUNa</p>","","","","","","","",""
"html-keyboard-response","208","1505313","0.0-11.0-0.39","60f1846c851ee5a978a0e015","64b003020eef62ee308107cc","64b03e2bea289706dbb054e9","null","null","<p style=""font-size: 60px; font-family: BACS"">kPkRAOMC</p>","","","","","","","",""
"html-keyboard-response","209","1506323","0.0-11.0-0.40","60f1846c851ee5a978a0e015","64b003020eef62ee308107cc","64b03e2bea289706dbb054e9","null","null","<p style=""font-size: 60px; font-family: BACS"">mBmlAlRE</p>","","","","","","","",""
"html-keyboard-response","210","1507331","0.0-11.0-0.41","60f1846c851ee5a978a0e015","64b003020eef62ee308107cc","64b03e2bea289706dbb054e9","null","null","<p style=""font-size: 60px; font-family: BACS"">RKYkcDR</p>","","","","","","","",""
"html-keyboard-response","211","1508336","0.0-11.0-0.42","60f1846c851ee5a978a0e015","64b003020eef62ee308107cc","64b03e2bea289706dbb054e9","null","null","<p style=""font-size: 60px; font-family: BACS"">dJNrdUr</p>","","","","","","","",""
"html-keyboard-response","212","1509345","0.0-11.0-0.43","60f1846c851ee5a978a0e015","64b003020eef62ee308107cc","64b03e2bea289706dbb054e9","null","null","<p style=""font-size: 60px; font-family: BACS"">JNkaJUNa</p>","","","","","","","",""
"html-keyboard-response","213","1510356","0.0-11.0-0.44","60f1846c851ee5a978a0e015","64b003020eef62ee308107cc","64b03e2bea289706dbb054e9","null","null","<p style=""font-size: 60px; font-family: BACS"">AdDbcDR</p>","","","","","","","",""
"html-keyboard-response","214","1511364","0.0-11.0-0.45","60f1846c851ee5a978a0e015","64b003020eef62ee308107cc","64b03e2bea289706dbb054e9","null","null","<p style=""font-size: 60px; font-family: BACS"">aYQmYaOk</p>","","","","","","","",""
"html-keyboard-response","215","1512374","0.0-11.0-0.46","60f1846c851ee5a978a0e015","64b003020eef62ee308107cc","64b03e2bea289706dbb054e9","null","null","<p style=""font-size: 60px; font-family: BACS"">dJNrAOUl</p>","","","","","","","",""
"html-keyboard-response","216","1513383","0.0-11.0-0.47","60f1846c851ee5a978a0e015","64b003020eef62ee308107cc","64b03e2bea289706dbb054e9","null","null","<p style=""font-size: 60px; font-family: BACS"">aYQmvAvb</p>","","","","","","","",""
"html-keyboard-response","217","1514386","0.0-11.0-0.48","60f1846c851ee5a978a0e015","64b003020eef62ee308107cc","64b03e2bea289706dbb054e9","null","null","<p style=""font-size: 60px; font-family: BACS"">UJmrAOUl</p>","","","","","","","",""
"html-keyboard-response","218","1515393","0.0-11.0-0.49","60f1846c851ee5a978a0e015","64b003020eef62ee308107cc","64b03e2bea289706dbb054e9","null","null","<p style=""font-size: 60px; font-family: BACS"">OJGQJUNa</p>","","","","","","","",""
"html-keyboard-response","219","1516399","0.0-11.0-0.50","60f1846c851ee5a978a0e015","64b003020eef62ee308107cc","64b03e2bea289706dbb054e9","null","null","<p style=""font-size: 60px; font-family: BACS"">kPkRABCD</p>","","","","","","","",""
"html-keyboard-response","220","1517403","0.0-11.0-0.51","60f1846c851ee5a978a0e015","64b003020eef62ee308107cc","64b03e2bea289706dbb054e9","null","null","<p style=""font-size: 60px; font-family: BACS"">aNYmbdUr</p>","","","","","","","",""
"html-keyboard-response","221","1518405","0.0-11.0-0.52","60f1846c851ee5a978a0e015","64b003020eef62ee308107cc","64b03e2bea289706dbb054e9","null","null","<p style=""font-size: 60px; font-family: BACS"">tdDdOMC</p>","","","","","","","",""
"html-keyboard-response","222","1519434","0.0-11.0-0.53","60f1846c851ee5a978a0e015","64b003020eef62ee308107cc","64b03e2bea289706dbb054e9","null","null","<p style=""font-size: 60px; font-family: BACS"">UJmrvAvb</p>","","","","","","","",""
"html-keyboard-response","223","1520444","0.0-11.0-0.54","60f1846c851ee5a978a0e015","64b003020eef62ee308107cc","64b03e2bea289706dbb054e9","null","null","<p style=""font-size: 60px; font-family: BACS"">dKRDcDR</p>","","","","","","","",""
"html-keyboard-response","224","1521451","0.0-11.0-0.55","60f1846c851ee5a978a0e015","64b003020eef62ee308107cc","64b03e2bea289706dbb054e9","null","null","<p style=""font-size: 60px; font-family: BACS"">TDKhBCD</p>","","","","","","","",""
"html-keyboard-response","225","1522453","0.0-11.0-0.56","60f1846c851ee5a978a0e015","64b003020eef62ee308107cc","64b03e2bea289706dbb054e9","null","null","<p style=""font-size: 60px; font-family: BACS"">NJZlJUNa</p>","","","","","","","",""
"html-keyboard-response","226","1523458","0.0-11.0-0.57","60f1846c851ee5a978a0e015","64b003020eef62ee308107cc","64b03e2bea289706dbb054e9","null","null","<p style=""font-size: 60px; font-family: BACS"">RKYkBCD</p>","","","","","","","",""
"html-keyboard-response","227","1524467","0.0-11.0-0.58","60f1846c851ee5a978a0e015","64b003020eef62ee308107cc","64b03e2bea289706dbb054e9","null","null","<p style=""font-size: 60px; font-family: BACS"">KMDYtOMC</p>","","","","","","","",""
"html-keyboard-response","228","1525470","0.0-11.0-0.59","60f1846c851ee5a978a0e015","64b003020eef62ee308107cc","64b03e2bea289706dbb054e9","null","null","<p style=""font-size: 60px; font-family: BACS"">EhbtcDR</p>","","","","","","","",""
"html-keyboard-response","229","1526477","0.0-11.0-0.60","60f1846c851ee5a978a0e015","64b003020eef62ee308107cc","64b03e2bea289706dbb054e9","null","null","<p style=""font-size: 60px; font-family: BACS"">NJZlYaOk</p>","","","","","","","",""
"html-keyboard-response","230","1527484","0.0-11.0-0.61","60f1846c851ee5a978a0e015","64b003020eef62ee308107cc","64b03e2bea289706dbb054e9","null","null","<p style=""font-size: 60px; font-family: BACS"">dKRDOMC</p>","","","","","","","",""
"html-keyboard-response","231","1528486","0.0-11.0-0.62","60f1846c851ee5a978a0e015","64b003020eef62ee308107cc","64b03e2bea289706dbb054e9","null","null","<p style=""font-size: 60px; font-family: BACS"">aNYmbAOUl</p>","","","","","","","",""
"html-keyboard-response","232","1529489","0.0-11.0-0.63","60f1846c851ee5a978a0e015","64b003020eef62ee308107cc","64b03e2bea289706dbb054e9","null","null","<p style=""font-size: 60px; font-family: BACS"">kPkRAYht</p>","","","","","","","",""
"html-keyboard-response","233","1530494","0.0-11.0-0.64","60f1846c851ee5a978a0e015","64b003020eef62ee308107cc","64b03e2bea289706dbb054e9","null","null","<p style=""font-size: 60px; font-family: BACS"">bvkrJUNa</p>","","","","","","","",""
"html-keyboard-response","234","1531496","0.0-11.0-0.65","60f1846c851ee5a978a0e015","64b003020eef62ee308107cc","64b03e2bea289706dbb054e9","null","null","<p style=""font-size: 60px; font-family: BACS"">tdDdYht</p>","","","","","","","",""
"html-keyboard-response","235","1532505","0.0-11.0-0.66","60f1846c851ee5a978a0e015","64b003020eef62ee308107cc","64b03e2bea289706dbb054e9","null","null","<p style=""font-size: 60px; font-family: BACS"">dJNrvAvb</p>","","","","","","","",""
"html-keyboard-response","236","1533510","0.0-11.0-0.67","60f1846c851ee5a978a0e015","64b003020eef62ee308107cc","64b03e2bea289706dbb054e9","null","null","<p style=""font-size: 60px; font-family: BACS"">KMDYtBCD</p>","","","","","","","",""
"html-keyboard-response","237","1534534","0.0-11.0-0.68","60f1846c851ee5a978a0e015","64b003020eef62ee308107cc","64b03e2bea289706dbb054e9","null","null","<p style=""font-size: 60px; font-family: BACS"">bvkrAOUl</p>","","","","","","","",""
"html-keyboard-response","238","1535543","0.0-11.0-0.69","60f1846c851ee5a978a0e015","64b003020eef62ee308107cc","64b03e2bea289706dbb054e9","null","null","<p style=""font-size: 60px; font-family: BACS"">AbKDcDR</p>","","","","","","","",""
"html-keyboard-response","239","1536553","0.0-11.0-0.70","60f1846c851ee5a978a0e015","64b003020eef62ee308107cc","64b03e2bea289706dbb054e9","null","null","<p style=""font-size: 60px; font-family: BACS"">aNYmbJUNa</p>","","","","","","","",""
"html-keyboard-response","240","1537562","0.0-11.0-0.71","60f1846c851ee5a978a0e015","64b003020eef62ee308107cc","64b03e2bea289706dbb054e9","null","null","<p style=""font-size: 60px; font-family: BACS"">AbKDOMC</p>","","","","","","","",""
"html-keyboard-response","241","1538564","0.0-11.0-0.72","60f1846c851ee5a978a0e015","64b003020eef62ee308107cc","64b03e2bea289706dbb054e9","null","null","<p style=""font-size: 60px; font-family: BACS"">JNkavAvb</p>","","","","","","","",""
"html-keyboard-response","242","1539569","0.0-11.0-0.73","60f1846c851ee5a978a0e015","64b003020eef62ee308107cc","64b03e2bea289706dbb054e9","null","null","<p style=""font-size: 60px; font-family: BACS"">RKYklRE</p>","","","","","","","",""
"html-keyboard-response","243","1540582","0.0-11.0-0.74","60f1846c851ee5a978a0e015","64b003020eef62ee308107cc","64b03e2bea289706dbb054e9","null","null","<p style=""font-size: 60px; font-family: BACS"">rLaZdUr</p>","","","","","","","",""
"html-keyboard-response","244","1541585","0.0-11.0-0.75","60f1846c851ee5a978a0e015","64b003020eef62ee308107cc","64b03e2bea289706dbb054e9","null","null","<p style=""font-size: 60px; font-family: BACS"">TDKhYht</p>","","","","","","","",""
"html-keyboard-response","245","1542586","0.0-11.0-0.76","60f1846c851ee5a978a0e015","64b003020eef62ee308107cc","64b03e2bea289706dbb054e9","null","null","<p style=""font-size: 60px; font-family: BACS"">EhbtlRE</p>","","","","","","","",""
"html-keyboard-response","246","1543594","0.0-11.0-0.77","60f1846c851ee5a978a0e015","64b003020eef62ee308107cc","64b03e2bea289706dbb054e9","null","null","<p style=""font-size: 60px; font-family: BACS"">AdDbYht</p>","","","","","","","",""
"html-keyboard-response","247","1544599","0.0-11.0-0.78","60f1846c851ee5a978a0e015","64b003020eef62ee308107cc","64b03e2bea289706dbb054e9","null","null","<p style=""font-size: 60px; font-family: BACS"">rLaZJUNa</p>","","","","","","","",""
"html-keyboard-response","248","1545604","0.0-11.0-0.79","60f1846c851ee5a978a0e015","64b003020eef62ee308107cc","64b03e2bea289706dbb054e9","null","null","<p style=""font-size: 60px; font-family: BACS"">kPkRAlRE</p>","","","","","","","",""
"html-keyboard-response","249","1551014","0.0-12.0","60f1846c851ee5a978a0e015","64b003020eef62ee308107cc","64b03e2bea289706dbb054e9","5407"," ","<p>Ottimo, hai visto il terzo blocco di parole. Ora puoi prenderti una piccola pausa.</p>
      <p>Premi la barra quando sei pronta/o per riprendere.</p>","","","","","","","",""
"html-keyboard-response","250","1552020","0.0-13.0-0.0","60f1846c851ee5a978a0e015","64b003020eef62ee308107cc","64b03e2bea289706dbb054e9","null","null","<p style=""font-size: 60px; font-family: BACS"">JNkaYaOk</p>","","","","","","","",""
"html-keyboard-response","251","1553026","0.0-13.0-0.1","60f1846c851ee5a978a0e015","64b003020eef62ee308107cc","64b03e2bea289706dbb054e9","null","null","<p style=""font-size: 60px; font-family: BACS"">rLaZvAvb</p>","","","","","","","",""
"html-keyboard-response","252","1554028","0.0-13.0-0.2","60f1846c851ee5a978a0e015","64b003020eef62ee308107cc","64b03e2bea289706dbb054e9","null","null","<p style=""font-size: 60px; font-family: BACS"">tdDdlRE</p>","","","","","","","",""
"html-keyboard-response","253","1555036","0.0-13.0-0.3","60f1846c851ee5a978a0e015","64b003020eef62ee308107cc","64b03e2bea289706dbb054e9","null","null","<p style=""font-size: 60px; font-family: BACS"">UJmrYaOk</p>","","","","","","","",""
"html-keyboard-response","254","1556043","0.0-13.0-0.4","60f1846c851ee5a978a0e015","64b003020eef62ee308107cc","64b03e2bea289706dbb054e9","null","null","<p style=""font-size: 60px; font-family: BACS"">AdDbYht</p>","","","","","","","",""
"html-keyboard-response","255","1557050","0.0-13.0-0.5","60f1846c851ee5a978a0e015","64b003020eef62ee308107cc","64b03e2bea289706dbb054e9","null","null","<p style=""font-size: 60px; font-family: BACS"">dJNrAOUl</p>","","","","","","","",""
"html-keyboard-response","256","1558053","0.0-13.0-0.6","60f1846c851ee5a978a0e015","64b003020eef62ee308107cc","64b03e2bea289706dbb054e9","null","null","<p style=""font-size: 60px; font-family: BACS"">aYQmJUNa</p>","","","","","","","",""
"html-keyboard-response","257","1559055","0.0-13.0-0.7","60f1846c851ee5a978a0e015","64b003020eef62ee308107cc","64b03e2bea289706dbb054e9","null","null","<p style=""font-size: 60px; font-family: BACS"">vYLUAOUl</p>","","","","","","","",""
"html-keyboard-response","258","1560061","0.0-13.0-0.8","60f1846c851ee5a978a0e015","64b003020eef62ee308107cc","64b03e2bea289706dbb054e9","null","null","<p style=""font-size: 60px; font-family: BACS"">NJZldUr</p>","","","","","","","",""
"html-keyboard-response","259","1561067","0.0-13.0-0.9","60f1846c851ee5a978a0e015","64b003020eef62ee308107cc","64b03e2bea289706dbb054e9","null","null","<p style=""font-size: 60px; font-family: BACS"">RKYkBCD</p>","","","","","","","",""
"html-keyboard-response","260","1562070","0.0-13.0-0.10","60f1846c851ee5a978a0e015","64b003020eef62ee308107cc","64b03e2bea289706dbb054e9","null","null","<p style=""font-size: 60px; font-family: BACS"">mBmlAlRE</p>","","","","","","","",""
"html-keyboard-response","261","1563075","0.0-13.0-0.11","60f1846c851ee5a978a0e015","64b003020eef62ee308107cc","64b03e2bea289706dbb054e9","null","null","<p style=""font-size: 60px; font-family: BACS"">aNYmbdUr</p>","","","","","","","",""
"html-keyboard-response","262","1564078","0.0-13.0-0.12","60f1846c851ee5a978a0e015","64b003020eef62ee308107cc","64b03e2bea289706dbb054e9","null","null","<p style=""font-size: 60px; font-family: BACS"">KMDYtBCD</p>","","","","","","","",""
"html-keyboard-response","263","1565088","0.0-13.0-0.13","60f1846c851ee5a978a0e015","64b003020eef62ee308107cc","64b03e2bea289706dbb054e9","null","null","<p style=""font-size: 60px; font-family: BACS"">rLaZYaOk</p>","","","","","","","",""
"html-keyboard-response","264","1566096","0.0-13.0-0.14","60f1846c851ee5a978a0e015","64b003020eef62ee308107cc","64b03e2bea289706dbb054e9","null","null","<p style=""font-size: 60px; font-family: BACS"">TDKhYht</p>","","","","","","","",""
"html-keyboard-response","265","1567105","0.0-13.0-0.15","60f1846c851ee5a978a0e015","64b003020eef62ee308107cc","64b03e2bea289706dbb054e9","null","null","<p style=""font-size: 60px; font-family: BACS"">aNYmbJUNa</p>","","","","","","","",""
"html-keyboard-response","266","1568111","0.0-13.0-0.16","60f1846c851ee5a978a0e015","64b003020eef62ee308107cc","64b03e2bea289706dbb054e9","null","null","<p style=""font-size: 60px; font-family: BACS"">kPkRAlRE</p>","","","","","","","",""
"html-keyboard-response","267","1569119","0.0-13.0-0.17","60f1846c851ee5a978a0e015","64b003020eef62ee308107cc","64b03e2bea289706dbb054e9","null","null","<p style=""font-size: 60px; font-family: BACS"">EhbtYht</p>","","","","","","","",""
"html-keyboard-response","268","1570123","0.0-13.0-0.18","60f1846c851ee5a978a0e015","64b003020eef62ee308107cc","64b03e2bea289706dbb054e9","null","null","<p style=""font-size: 60px; font-family: BACS"">AdDbcDR</p>","","","","","","","",""
"html-keyboard-response","269","1571131","0.0-13.0-0.19","60f1846c851ee5a978a0e015","64b003020eef62ee308107cc","64b03e2bea289706dbb054e9","null","null","<p style=""font-size: 60px; font-family: BACS"">rLaZdUr</p>","","","","","","","",""
"html-keyboard-response","270","1572137","0.0-13.0-0.20","60f1846c851ee5a978a0e015","64b003020eef62ee308107cc","64b03e2bea289706dbb054e9","null","null","<p style=""font-size: 60px; font-family: BACS"">TDKhOMC</p>","","","","","","","",""
"html-keyboard-response","271","1573145","0.0-13.0-0.21","60f1846c851ee5a978a0e015","64b003020eef62ee308107cc","64b03e2bea289706dbb054e9","null","null","<p style=""font-size: 60px; font-family: BACS"">bvkrAOUl</p>","","","","","","","",""
"html-keyboard-response","272","1574148","0.0-13.0-0.22","60f1846c851ee5a978a0e015","64b003020eef62ee308107cc","64b03e2bea289706dbb054e9","null","null","<p style=""font-size: 60px; font-family: BACS"">KMDYtlRE</p>","","","","","","","",""
"html-keyboard-response","273","1575153","0.0-13.0-0.23","60f1846c851ee5a978a0e015","64b003020eef62ee308107cc","64b03e2bea289706dbb054e9","null","null","<p style=""font-size: 60px; font-family: BACS"">dKRDcDR</p>","","","","","","","",""
"html-keyboard-response","274","1576160","0.0-13.0-0.24","60f1846c851ee5a978a0e015","64b003020eef62ee308107cc","64b03e2bea289706dbb054e9","null","null","<p style=""font-size: 60px; font-family: BACS"">kPkRABCD</p>","","","","","","","",""
"html-keyboard-response","275","1577166","0.0-13.0-0.25","60f1846c851ee5a978a0e015","64b003020eef62ee308107cc","64b03e2bea289706dbb054e9","null","null","<p style=""font-size: 60px; font-family: BACS"">dKRDOMC</p>","","","","","","","",""
"html-keyboard-response","276","1578170","0.0-13.0-0.26","60f1846c851ee5a978a0e015","64b003020eef62ee308107cc","64b03e2bea289706dbb054e9","null","null","<p style=""font-size: 60px; font-family: BACS"">dJNrYaOk</p>","","","","","","","",""
"html-keyboard-response","277","1579172","0.0-13.0-0.27","60f1846c851ee5a978a0e015","64b003020eef62ee308107cc","64b03e2bea289706dbb054e9","null","null","<p style=""font-size: 60px; font-family: BACS"">NJZlAOUl</p>","","","","","","","",""
"html-keyboard-response","278","1580177","0.0-13.0-0.28","60f1846c851ee5a978a0e015","64b003020eef62ee308107cc","64b03e2bea289706dbb054e9","null","null","<p style=""font-size: 60px; font-family: BACS"">UJmrdUr</p>","","","","","","","",""
"html-keyboard-response","279","1581181","0.0-13.0-0.29","60f1846c851ee5a978a0e015","64b003020eef62ee308107cc","64b03e2bea289706dbb054e9","null","null","<p style=""font-size: 60px; font-family: BACS"">JNkaJUNa</p>","","","","","","","",""
"html-keyboard-response","280","1582204","0.0-13.0-0.30","60f1846c851ee5a978a0e015","64b003020eef62ee308107cc","64b03e2bea289706dbb054e9","null","null","<p style=""font-size: 60px; font-family: BACS"">RKYkYht</p>","","","","","","","",""
"html-keyboard-response","281","1583207","0.0-13.0-0.31","60f1846c851ee5a978a0e015","64b003020eef62ee308107cc","64b03e2bea289706dbb054e9","null","null","<p style=""font-size: 60px; font-family: BACS"">EhbtBCD</p>","","","","","","","",""
"html-keyboard-response","282","1584216","0.0-13.0-0.32","60f1846c851ee5a978a0e015","64b003020eef62ee308107cc","64b03e2bea289706dbb054e9","null","null","<p style=""font-size: 60px; font-family: BACS"">AdDbOMC</p>","","","","","","","",""
"html-keyboard-response","283","1585221","0.0-13.0-0.33","60f1846c851ee5a978a0e015","64b003020eef62ee308107cc","64b03e2bea289706dbb054e9","null","null","<p style=""font-size: 60px; font-family: BACS"">vYLUvAvb</p>","","","","","","","",""
"html-keyboard-response","284","1586228","0.0-13.0-0.34","60f1846c851ee5a978a0e015","64b003020eef62ee308107cc","64b03e2bea289706dbb054e9","null","null","<p style=""font-size: 60px; font-family: BACS"">UJmrAOUl</p>","","","","","","","",""
"html-keyboard-response","285","1587233","0.0-13.0-0.35","60f1846c851ee5a978a0e015","64b003020eef62ee308107cc","64b03e2bea289706dbb054e9","null","null","<p style=""font-size: 60px; font-family: BACS"">AbKDYht</p>","","","","","","","",""
"html-keyboard-response","286","1588237","0.0-13.0-0.36","60f1846c851ee5a978a0e015","64b003020eef62ee308107cc","64b03e2bea289706dbb054e9","null","null","<p style=""font-size: 60px; font-family: BACS"">OJGQdUr</p>","","","","","","","",""
"html-keyboard-response","287","1589246","0.0-13.0-0.37","60f1846c851ee5a978a0e015","64b003020eef62ee308107cc","64b03e2bea289706dbb054e9","null","null","<p style=""font-size: 60px; font-family: BACS"">KMDYtOMC</p>","","","","","","","",""
"html-keyboard-response","288","1590250","0.0-13.0-0.38","60f1846c851ee5a978a0e015","64b003020eef62ee308107cc","64b03e2bea289706dbb054e9","null","null","<p style=""font-size: 60px; font-family: BACS"">vYLUJUNa</p>","","","","","","","",""
"html-keyboard-response","289","1591253","0.0-13.0-0.39","60f1846c851ee5a978a0e015","64b003020eef62ee308107cc","64b03e2bea289706dbb054e9","null","null","<p style=""font-size: 60px; font-family: BACS"">EhbtcDR</p>","","","","","","","",""
"html-keyboard-response","290","1592256","0.0-13.0-0.40","60f1846c851ee5a978a0e015","64b003020eef62ee308107cc","64b03e2bea289706dbb054e9","null","null","<p style=""font-size: 60px; font-family: BACS"">AdDbBCD</p>","","","","","","","",""
"html-keyboard-response","291","1593263","0.0-13.0-0.41","60f1846c851ee5a978a0e015","64b003020eef62ee308107cc","64b03e2bea289706dbb054e9","null","null","<p style=""font-size: 60px; font-family: BACS"">NJZlJUNa</p>","","","","","","","",""
"html-keyboard-response","292","1594268","0.0-13.0-0.42","60f1846c851ee5a978a0e015","64b003020eef62ee308107cc","64b03e2bea289706dbb054e9","null","null","<p style=""font-size: 60px; font-family: BACS"">OJGQAOUl</p>","","","","","","","",""
"html-keyboard-response","293","1595271","0.0-13.0-0.43","60f1846c851ee5a978a0e015","64b003020eef62ee308107cc","64b03e2bea289706dbb054e9","null","null","<p style=""font-size: 60px; font-family: BACS"">mBmlAcDR</p>","","","","","","","",""
"html-keyboard-response","294","1596302","0.0-13.0-0.44","60f1846c851ee5a978a0e015","64b003020eef62ee308107cc","64b03e2bea289706dbb054e9","null","null","<p style=""font-size: 60px; font-family: BACS"">JNkavAvb</p>","","","","","","","",""
"html-keyboard-response","295","1597311","0.0-13.0-0.45","60f1846c851ee5a978a0e015","64b003020eef62ee308107cc","64b03e2bea289706dbb054e9","null","null","<p style=""font-size: 60px; font-family: BACS"">NJZlYaOk</p>","","","","","","","",""
"html-keyboard-response","296","1598315","0.0-13.0-0.46","60f1846c851ee5a978a0e015","64b003020eef62ee308107cc","64b03e2bea289706dbb054e9","null","null","<p style=""font-size: 60px; font-family: BACS"">OJGQvAvb</p>","","","","","","","",""
"html-keyboard-response","297","1599317","0.0-13.0-0.47","60f1846c851ee5a978a0e015","64b003020eef62ee308107cc","64b03e2bea289706dbb054e9","null","null","<p style=""font-size: 60px; font-family: BACS"">bvkrYaOk</p>","","","","","","","",""
"html-keyboard-response","298","1600319","0.0-13.0-0.48","60f1846c851ee5a978a0e015","64b003020eef62ee308107cc","64b03e2bea289706dbb054e9","null","null","<p style=""font-size: 60px; font-family: BACS"">aYQmdUr</p>","","","","","","","",""
"html-keyboard-response","299","1601329","0.0-13.0-0.49","60f1846c851ee5a978a0e015","64b003020eef62ee308107cc","64b03e2bea289706dbb054e9","null","null","<p style=""font-size: 60px; font-family: BACS"">tdDdOMC</p>","","","","","","","",""
"html-keyboard-response","300","1602337","0.0-13.0-0.50","60f1846c851ee5a978a0e015","64b003020eef62ee308107cc","64b03e2bea289706dbb054e9","null","null","<p style=""font-size: 60px; font-family: BACS"">TDKhcDR</p>","","","","","","","",""
"html-keyboard-response","301","1603344","0.0-13.0-0.51","60f1846c851ee5a978a0e015","64b003020eef62ee308107cc","64b03e2bea289706dbb054e9","null","null","<p style=""font-size: 60px; font-family: BACS"">RKYklRE</p>","","","","","","","",""
"html-keyboard-response","302","1604351","0.0-13.0-0.52","60f1846c851ee5a978a0e015","64b003020eef62ee308107cc","64b03e2bea289706dbb054e9","null","null","<p style=""font-size: 60px; font-family: BACS"">aYQmYaOk</p>","","","","","","","",""
"html-keyboard-response","303","1605359","0.0-13.0-0.53","60f1846c851ee5a978a0e015","64b003020eef62ee308107cc","64b03e2bea289706dbb054e9","null","null","<p style=""font-size: 60px; font-family: BACS"">mBmlAOMC</p>","","","","","","","",""
"html-keyboard-response","304","1606360","0.0-13.0-0.54","60f1846c851ee5a978a0e015","64b003020eef62ee308107cc","64b03e2bea289706dbb054e9","null","null","<p style=""font-size: 60px; font-family: BACS"">bvkrdUr</p>","","","","","","","",""
"html-keyboard-response","305","1607369","0.0-13.0-0.55","60f1846c851ee5a978a0e015","64b003020eef62ee308107cc","64b03e2bea289706dbb054e9","null","null","<p style=""font-size: 60px; font-family: BACS"">AbKDOMC</p>","","","","","","","",""
"html-keyboard-response","306","1608378","0.0-13.0-0.56","60f1846c851ee5a978a0e015","64b003020eef62ee308107cc","64b03e2bea289706dbb054e9","null","null","<p style=""font-size: 60px; font-family: BACS"">bvkrJUNa</p>","","","","","","","",""
"html-keyboard-response","307","1609386","0.0-13.0-0.57","60f1846c851ee5a978a0e015","64b003020eef62ee308107cc","64b03e2bea289706dbb054e9","null","null","<p style=""font-size: 60px; font-family: BACS"">UJmrvAvb</p>","","","","","","","",""
"html-keyboard-response","308","1610394","0.0-13.0-0.58","60f1846c851ee5a978a0e015","64b003020eef62ee308107cc","64b03e2bea289706dbb054e9","null","null","<p style=""font-size: 60px; font-family: BACS"">RKYkcDR</p>","","","","","","","",""
"html-keyboard-response","309","1611405","0.0-13.0-0.59","60f1846c851ee5a978a0e015","64b003020eef62ee308107cc","64b03e2bea289706dbb054e9","null","null","<p style=""font-size: 60px; font-family: BACS"">aNYmbvAvb</p>","","","","","","","",""
"html-keyboard-response","310","1612412","0.0-13.0-0.60","60f1846c851ee5a978a0e015","64b003020eef62ee308107cc","64b03e2bea289706dbb054e9","null","null","<p style=""font-size: 60px; font-family: BACS"">AbKDlRE</p>","","","","","","","",""
"html-keyboard-response","311","1613419","0.0-13.0-0.61","60f1846c851ee5a978a0e015","64b003020eef62ee308107cc","64b03e2bea289706dbb054e9","null","null","<p style=""font-size: 60px; font-family: BACS"">tdDdYht</p>","","","","","","","",""
"html-keyboard-response","312","1614428","0.0-13.0-0.62","60f1846c851ee5a978a0e015","64b003020eef62ee308107cc","64b03e2bea289706dbb054e9","null","null","<p style=""font-size: 60px; font-family: BACS"">TDKhBCD</p>","","","","","","","",""
"html-keyboard-response","313","1615437","0.0-13.0-0.63","60f1846c851ee5a978a0e015","64b003020eef62ee308107cc","64b03e2bea289706dbb054e9","null","null","<p style=""font-size: 60px; font-family: BACS"">kPkRAOMC</p>","","","","","","","",""
"html-keyboard-response","314","1616440","0.0-13.0-0.64","60f1846c851ee5a978a0e015","64b003020eef62ee308107cc","64b03e2bea289706dbb054e9","null","null","<p style=""font-size: 60px; font-family: BACS"">EhbtlRE</p>","","","","","","","",""
"html-keyboard-response","315","1617445","0.0-13.0-0.65","60f1846c851ee5a978a0e015","64b003020eef62ee308107cc","64b03e2bea289706dbb054e9","null","null","<p style=""font-size: 60px; font-family: BACS"">tdDdcDR</p>","","","","","","","",""
"html-keyboard-response","316","1618454","0.0-13.0-0.66","60f1846c851ee5a978a0e015","64b003020eef62ee308107cc","64b03e2bea289706dbb054e9","null","null","<p style=""font-size: 60px; font-family: BACS"">dJNrdUr</p>","","","","","","","",""
"html-keyboard-response","317","1619455","0.0-13.0-0.67","60f1846c851ee5a978a0e015","64b003020eef62ee308107cc","64b03e2bea289706dbb054e9","null","null","<p style=""font-size: 60px; font-family: BACS"">JNkaAOUl</p>","","","","","","","",""
"html-keyboard-response","318","1620461","0.0-13.0-0.68","60f1846c851ee5a978a0e015","64b003020eef62ee308107cc","64b03e2bea289706dbb054e9","null","null","<p style=""font-size: 60px; font-family: BACS"">dKRDlRE</p>","","","","","","","",""
"html-keyboard-response","319","1621470","0.0-13.0-0.69","60f1846c851ee5a978a0e015","64b003020eef62ee308107cc","64b03e2bea289706dbb054e9","null","null","<p style=""font-size: 60px; font-family: BACS"">KMDYtYht</p>","","","","","","","",""
"html-keyboard-response","320","1622474","0.0-13.0-0.70","60f1846c851ee5a978a0e015","64b003020eef62ee308107cc","64b03e2bea289706dbb054e9","null","null","<p style=""font-size: 60px; font-family: BACS"">OJGQJUNa</p>","","","","","","","",""
"html-keyboard-response","321","1623477","0.0-13.0-0.71","60f1846c851ee5a978a0e015","64b003020eef62ee308107cc","64b03e2bea289706dbb054e9","null","null","<p style=""font-size: 60px; font-family: BACS"">vYLUYaOk</p>","","","","","","","",""
"html-keyboard-response","322","1624478","0.0-13.0-0.72","60f1846c851ee5a978a0e015","64b003020eef62ee308107cc","64b03e2bea289706dbb054e9","null","null","<p style=""font-size: 60px; font-family: BACS"">aNYmbAOUl</p>","","","","","","","",""
"html-keyboard-response","323","1625484","0.0-13.0-0.73","60f1846c851ee5a978a0e015","64b003020eef62ee308107cc","64b03e2bea289706dbb054e9","null","null","<p style=""font-size: 60px; font-family: BACS"">AbKDcDR</p>","","","","","","","",""
"html-keyboard-response","324","1626554","0.0-13.0-0.74","60f1846c851ee5a978a0e015","64b003020eef62ee308107cc","64b03e2bea289706dbb054e9","null","null","<p style=""font-size: 60px; font-family: BACS"">dKRDBCD</p>","","","","","","","",""
"html-keyboard-response","325","1627577","0.0-13.0-0.75","60f1846c851ee5a978a0e015","64b003020eef62ee308107cc","64b03e2bea289706dbb054e9","null","null","<p style=""font-size: 60px; font-family: BACS"">kPkRAYht</p>","","","","","","","",""
"html-keyboard-response","326","1628588","0.0-13.0-0.76","60f1846c851ee5a978a0e015","64b003020eef62ee308107cc","64b03e2bea289706dbb054e9","null","null","<p style=""font-size: 60px; font-family: BACS"">aYQmvAvb</p>","","","","","","","",""
"html-keyboard-response","327","1629595","0.0-13.0-0.77","60f1846c851ee5a978a0e015","64b003020eef62ee308107cc","64b03e2bea289706dbb054e9","null","null","<p style=""font-size: 60px; font-family: BACS"">mBmlABCD</p>","","","","","","","",""
"html-keyboard-response","328","1630601","0.0-13.0-0.78","60f1846c851ee5a978a0e015","64b003020eef62ee308107cc","64b03e2bea289706dbb054e9","null","null","<p style=""font-size: 60px; font-family: BACS"">dJNrvAvb</p>","","","","","","","",""
"html-keyboard-response","329","1631629","0.0-13.0-0.79","60f1846c851ee5a978a0e015","64b003020eef62ee308107cc","64b03e2bea289706dbb054e9","null","null","<p style=""font-size: 60px; font-family: BACS"">rLaZJUNa</p>","","","","","","","",""
"html-keyboard-response","330","1670344","0.0-14.0","60f1846c851ee5a978a0e015","64b003020eef62ee308107cc","64b03e2bea289706dbb054e9","38715"," ","<p>Ottimo, hai visto il quarto blocco di parole. Ora puoi prenderti una piccola pausa.</p>
      <p>Premi la barra quando sei pronta/o per riprendere.</p>","","","","","","","",""
"html-keyboard-response","331","1671357","0.0-15.0-0.0","60f1846c851ee5a978a0e015","64b003020eef62ee308107cc","64b03e2bea289706dbb054e9","null","null","<p style=""font-size: 60px; font-family: BACS"">RKYkcDR</p>","","","","","","","",""
"html-keyboard-response","332","1672359","0.0-15.0-0.1","60f1846c851ee5a978a0e015","64b003020eef62ee308107cc","64b03e2bea289706dbb054e9","null","null","<p style=""font-size: 60px; font-family: BACS"">RKYkcDR</p>","","","","","","","",""
"html-keyboard-response","333","1673366","0.0-15.0-0.2","60f1846c851ee5a978a0e015","64b003020eef62ee308107cc","64b03e2bea289706dbb054e9","null","null","<p style=""font-size: 60px; font-family: BACS"">RKYkcDR</p>","","","","","","","",""
"html-keyboard-response","334","1674370","0.0-15.0-0.3","60f1846c851ee5a978a0e015","64b003020eef62ee308107cc","64b03e2bea289706dbb054e9","null","null","<p style=""font-size: 60px; font-family: BACS"">RKYkcDR</p>","","","","","","","",""
"html-keyboard-response","335","1675373","0.0-15.0-0.4","60f1846c851ee5a978a0e015","64b003020eef62ee308107cc","64b03e2bea289706dbb054e9","null","null","<p style=""font-size: 60px; font-family: BACS"">RKYkcDR</p>","","","","","","","",""
"html-keyboard-response","336","1676382","0.0-15.0-0.5","60f1846c851ee5a978a0e015","64b003020eef62ee308107cc","64b03e2bea289706dbb054e9","null","null","<p style=""font-size: 60px; font-family: BACS"">RKYkcDR</p>","","","","","","","",""
"html-keyboard-response","337","1677392","0.0-15.0-0.6","60f1846c851ee5a978a0e015","64b003020eef62ee308107cc","64b03e2bea289706dbb054e9","null","null","<p style=""font-size: 60px; font-family: BACS"">RKYkcDR</p>","","","","","","","",""
"html-keyboard-response","338","1678394","0.0-15.0-0.7","60f1846c851ee5a978a0e015","64b003020eef62ee308107cc","64b03e2bea289706dbb054e9","null","null","<p style=""font-size: 60px; font-family: BACS"">RKYkcDR</p>","","","","","","","",""
"html-keyboard-response","339","1679402","0.0-15.0-0.8","60f1846c851ee5a978a0e015","64b003020eef62ee308107cc","64b03e2bea289706dbb054e9","null","null","<p style=""font-size: 60px; font-family: BACS"">RKYkcDR</p>","","","","","","","",""
"html-keyboard-response","340","1680411","0.0-15.0-0.9","60f1846c851ee5a978a0e015","64b003020eef62ee308107cc","64b03e2bea289706dbb054e9","null","null","<p style=""font-size: 60px; font-family: BACS"">RKYkcDR</p>","","","","","","","",""
"html-keyboard-response","341","1681419","0.0-15.0-0.10","60f1846c851ee5a978a0e015","64b003020eef62ee308107cc","64b03e2bea289706dbb054e9","null","null","<p style=""font-size: 60px; font-family: BACS"">RKYkcDR</p>","","","","","","","",""
"html-keyboard-response","342","1682421","0.0-15.0-0.11","60f1846c851ee5a978a0e015","64b003020eef62ee308107cc","64b03e2bea289706dbb054e9","null","null","<p style=""font-size: 60px; font-family: BACS"">RKYkcDR</p>","","","","","","","",""
"html-keyboard-response","343","1683424","0.0-15.0-0.12","60f1846c851ee5a978a0e015","64b003020eef62ee308107cc","64b03e2bea289706dbb054e9","null","null","<p style=""font-size: 60px; font-family: BACS"">RKYkcDR</p>","","","","","","","",""
"html-keyboard-response","344","1684429","0.0-15.0-0.13","60f1846c851ee5a978a0e015","64b003020eef62ee308107cc","64b03e2bea289706dbb054e9","null","null","<p style=""font-size: 60px; font-family: BACS"">RKYkcDR</p>","","","","","","","",""
"html-keyboard-response","345","1685438","0.0-15.0-0.14","60f1846c851ee5a978a0e015","64b003020eef62ee308107cc","64b03e2bea289706dbb054e9","null","null","<p style=""font-size: 60px; font-family: BACS"">RKYkcDR</p>","","","","","","","",""
"html-keyboard-response","346","1686446","0.0-15.0-0.15","60f1846c851ee5a978a0e015","64b003020eef62ee308107cc","64b03e2bea289706dbb054e9","null","null","<p style=""font-size: 60px; font-family: BACS"">RKYkcDR</p>","","","","","","","",""
"html-keyboard-response","347","1687450","0.0-15.0-0.16","60f1846c851ee5a978a0e015","64b003020eef62ee308107cc","64b03e2bea289706dbb054e9","null","null","<p style=""font-size: 60px; font-family: BACS"">RKYkcDR</p>","","","","","","","",""
"html-keyboard-response","348","1688457","0.0-15.0-0.17","60f1846c851ee5a978a0e015","64b003020eef62ee308107cc","64b03e2bea289706dbb054e9","null","null","<p style=""font-size: 60px; font-family: BACS"">RKYkcDR</p>","","","","","","","",""
"html-keyboard-response","349","1689465","0.0-15.0-0.18","60f1846c851ee5a978a0e015","64b003020eef62ee308107cc","64b03e2bea289706dbb054e9","null","null","<p style=""font-size: 60px; font-family: BACS"">RKYkcDR</p>","","","","","","","",""
"html-keyboard-response","350","1690469","0.0-15.0-0.19","60f1846c851ee5a978a0e015","64b003020eef62ee308107cc","64b03e2bea289706dbb054e9","null","null","<p style=""font-size: 60px; font-family: BACS"">RKYkcDR</p>","","","","","","","",""
"html-keyboard-response","351","1691480","0.0-15.0-0.20","60f1846c851ee5a978a0e015","64b003020eef62ee308107cc","64b03e2bea289706dbb054e9","null","null","<p style=""font-size: 60px; font-family: BACS"">RKYkcDR</p>","","","","","","","",""
"html-keyboard-response","352","1692484","0.0-15.0-0.21","60f1846c851ee5a978a0e015","64b003020eef62ee308107cc","64b03e2bea289706dbb054e9","null","null","<p style=""font-size: 60px; font-family: BACS"">RKYkcDR</p>","","","","","","","",""
"html-keyboard-response","353","1693492","0.0-15.0-0.22","60f1846c851ee5a978a0e015","64b003020eef62ee308107cc","64b03e2bea289706dbb054e9","null","null","<p style=""font-size: 60px; font-family: BACS"">RKYkcDR</p>","","","","","","","",""
"html-keyboard-response","354","1694502","0.0-15.0-0.23","60f1846c851ee5a978a0e015","64b003020eef62ee308107cc","64b03e2bea289706dbb054e9","null","null","<p style=""font-size: 60px; font-family: BACS"">RKYkcDR</p>","","","","","","","",""
"html-keyboard-response","355","1695510","0.0-15.0-0.24","60f1846c851ee5a978a0e015","64b003020eef62ee308107cc","64b03e2bea289706dbb054e9","null","null","<p style=""font-size: 60px; font-family: BACS"">RKYkcDR</p>","","","","","","","",""
"html-keyboard-response","356","1696517","0.0-15.0-0.25","60f1846c851ee5a978a0e015","64b003020eef62ee308107cc","64b03e2bea289706dbb054e9","null","null","<p style=""font-size: 60px; font-family: BACS"">RKYkcDR</p>","","","","","","","",""
"html-keyboard-response","357","1697520","0.0-15.0-0.26","60f1846c851ee5a978a0e015","64b003020eef62ee308107cc","64b03e2bea289706dbb054e9","null","null","<p style=""font-size: 60px; font-family: BACS"">RKYkcDR</p>","","","","","","","",""
"html-keyboard-response","358","1698528","0.0-15.0-0.27","60f1846c851ee5a978a0e015","64b003020eef62ee308107cc","64b03e2bea289706dbb054e9","null","null","<p style=""font-size: 60px; font-family: BACS"">RKYkcDR</p>","","","","","","","",""
"html-keyboard-response","359","1699536","0.0-15.0-0.28","60f1846c851ee5a978a0e015","64b003020eef62ee308107cc","64b03e2bea289706dbb054e9","null","null","<p style=""font-size: 60px; font-family: BACS"">RKYkcDR</p>","","","","","","","",""
"html-keyboard-response","360","1700542","0.0-15.0-0.29","60f1846c851ee5a978a0e015","64b003020eef62ee308107cc","64b03e2bea289706dbb054e9","null","null","<p style=""font-size: 60px; font-family: BACS"">RKYkcDR</p>","","","","","","","",""
"html-keyboard-response","361","1701551","0.0-15.0-0.30","60f1846c851ee5a978a0e015","64b003020eef62ee308107cc","64b03e2bea289706dbb054e9","null","null","<p style=""font-size: 60px; font-family: BACS"">RKYkcDR</p>","","","","","","","",""
"html-keyboard-response","362","1702555","0.0-15.0-0.31","60f1846c851ee5a978a0e015","64b003020eef62ee308107cc","64b03e2bea289706dbb054e9","null","null","<p style=""font-size: 60px; font-family: BACS"">RKYkcDR</p>","","","","","","","",""
"html-keyboard-response","363","1703559","0.0-15.0-0.32","60f1846c851ee5a978a0e015","64b003020eef62ee308107cc","64b03e2bea289706dbb054e9","null","null","<p style=""font-size: 60px; font-family: BACS"">RKYkcDR</p>","","","","","","","",""
"html-keyboard-response","364","1704565","0.0-15.0-0.33","60f1846c851ee5a978a0e015","64b003020eef62ee308107cc","64b03e2bea289706dbb054e9","null","null","<p style=""font-size: 60px; font-family: BACS"">RKYkcDR</p>","","","","","","","",""
"html-keyboard-response","365","1705572","0.0-15.0-0.34","60f1846c851ee5a978a0e015","64b003020eef62ee308107cc","64b03e2bea289706dbb054e9","null","null","<p style=""font-size: 60px; font-family: BACS"">RKYkcDR</p>","","","","","","","",""
"html-keyboard-response","366","1706578","0.0-15.0-0.35","60f1846c851ee5a978a0e015","64b003020eef62ee308107cc","64b03e2bea289706dbb054e9","null","null","<p style=""font-size: 60px; font-family: BACS"">RKYkcDR</p>","","","","","","","",""
"html-keyboard-response","367","1707586","0.0-15.0-0.36","60f1846c851ee5a978a0e015","64b003020eef62ee308107cc","64b03e2bea289706dbb054e9","null","null","<p style=""font-size: 60px; font-family: BACS"">RKYkcDR</p>","","","","","","","",""
"html-keyboard-response","368","1708591","0.0-15.0-0.37","60f1846c851ee5a978a0e015","64b003020eef62ee308107cc","64b03e2bea289706dbb054e9","null","null","<p style=""font-size: 60px; font-family: BACS"">RKYkcDR</p>","","","","","","","",""
"html-keyboard-response","369","1709598","0.0-15.0-0.38","60f1846c851ee5a978a0e015","64b003020eef62ee308107cc","64b03e2bea289706dbb054e9","null","null","<p style=""font-size: 60px; font-family: BACS"">RKYkcDR</p>","","","","","","","",""
"html-keyboard-response","370","1710602","0.0-15.0-0.39","60f1846c851ee5a978a0e015","64b003020eef62ee308107cc","64b03e2bea289706dbb054e9","null","null","<p style=""font-size: 60px; font-family: BACS"">RKYkcDR</p>","","","","","","","",""
"html-keyboard-response","371","1711610","0.0-15.0-0.40","60f1846c851ee5a978a0e015","64b003020eef62ee308107cc","64b03e2bea289706dbb054e9","null","null","<p style=""font-size: 60px; font-family: BACS"">RKYkcDR</p>","","","","","","","",""
"html-keyboard-response","372","1712614","0.0-15.0-0.41","60f1846c851ee5a978a0e015","64b003020eef62ee308107cc","64b03e2bea289706dbb054e9","null","null","<p style=""font-size: 60px; font-family: BACS"">RKYkcDR</p>","","","","","","","",""
"html-keyboard-response","373","1713622","0.0-15.0-0.42","60f1846c851ee5a978a0e015","64b003020eef62ee308107cc","64b03e2bea289706dbb054e9","null","null","<p style=""font-size: 60px; font-family: BACS"">RKYkcDR</p>","","","","","","","",""
"html-keyboard-response","374","1714629","0.0-15.0-0.43","60f1846c851ee5a978a0e015","64b003020eef62ee308107cc","64b03e2bea289706dbb054e9","null","null","<p style=""font-size: 60px; font-family: BACS"">RKYkcDR</p>","","","","","","","",""
"html-keyboard-response","375","1715636","0.0-15.0-0.44","60f1846c851ee5a978a0e015","64b003020eef62ee308107cc","64b03e2bea289706dbb054e9","null","null","<p style=""font-size: 60px; font-family: BACS"">RKYkcDR</p>","","","","","","","",""
"html-keyboard-response","376","1716644","0.0-15.0-0.45","60f1846c851ee5a978a0e015","64b003020eef62ee308107cc","64b03e2bea289706dbb054e9","null","null","<p style=""font-size: 60px; font-family: BACS"">RKYkcDR</p>","","","","","","","",""
"html-keyboard-response","377","1717647","0.0-15.0-0.46","60f1846c851ee5a978a0e015","64b003020eef62ee308107cc","64b03e2bea289706dbb054e9","null","null","<p style=""font-size: 60px; font-family: BACS"">RKYkcDR</p>","","","","","","","",""
"html-keyboard-response","378","1718654","0.0-15.0-0.47","60f1846c851ee5a978a0e015","64b003020eef62ee308107cc","64b03e2bea289706dbb054e9","null","null","<p style=""font-size: 60px; font-family: BACS"">RKYkcDR</p>","","","","","","","",""
"html-keyboard-response","379","1719660","0.0-15.0-0.48","60f1846c851ee5a978a0e015","64b003020eef62ee308107cc","64b03e2bea289706dbb054e9","null","null","<p style=""font-size: 60px; font-family: BACS"">RKYkcDR</p>","","","","","","","",""
"html-keyboard-response","380","1720663","0.0-15.0-0.49","60f1846c851ee5a978a0e015","64b003020eef62ee308107cc","64b03e2bea289706dbb054e9","null","null","<p style=""font-size: 60px; font-family: BACS"">RKYkcDR</p>","","","","","","","",""
"html-keyboard-response","381","1721682","0.0-15.0-0.50","60f1846c851ee5a978a0e015","64b003020eef62ee308107cc","64b03e2bea289706dbb054e9","null","null","<p style=""font-size: 60px; font-family: BACS"">RKYkcDR</p>","","","","","","","",""
"html-keyboard-response","382","1722686","0.0-15.0-0.51","60f1846c851ee5a978a0e015","64b003020eef62ee308107cc","64b03e2bea289706dbb054e9","null","null","<p style=""font-size: 60px; font-family: BACS"">RKYkcDR</p>","","","","","","","",""
"html-keyboard-response","383","1723697","0.0-15.0-0.52","60f1846c851ee5a978a0e015","64b003020eef62ee308107cc","64b03e2bea289706dbb054e9","null","null","<p style=""font-size: 60px; font-family: BACS"">RKYkcDR</p>","","","","","","","",""
"html-keyboard-response","384","1724703","0.0-15.0-0.53","60f1846c851ee5a978a0e015","64b003020eef62ee308107cc","64b03e2bea289706dbb054e9","null","null","<p style=""font-size: 60px; font-family: BACS"">RKYkcDR</p>","","","","","","","",""
"html-keyboard-response","385","1725712","0.0-15.0-0.54","60f1846c851ee5a978a0e015","64b003020eef62ee308107cc","64b03e2bea289706dbb054e9","null","null","<p style=""font-size: 60px; font-family: BACS"">RKYkcDR</p>","","","","","","","",""
"html-keyboard-response","386","1726718","0.0-15.0-0.55","60f1846c851ee5a978a0e015","64b003020eef62ee308107cc","64b03e2bea289706dbb054e9","null","null","<p style=""font-size: 60px; font-family: BACS"">RKYkcDR</p>","","","","","","","",""
"html-keyboard-response","387","1727723","0.0-15.0-0.56","60f1846c851ee5a978a0e015","64b003020eef62ee308107cc","64b03e2bea289706dbb054e9","null","null","<p style=""font-size: 60px; font-family: BACS"">RKYkcDR</p>","","","","","","","",""
"html-keyboard-response","388","1728730","0.0-15.0-0.57","60f1846c851ee5a978a0e015","64b003020eef62ee308107cc","64b03e2bea289706dbb054e9","null","null","<p style=""font-size: 60px; font-family: BACS"">RKYkcDR</p>","","","","","","","",""
"html-keyboard-response","389","1729735","0.0-15.0-0.58","60f1846c851ee5a978a0e015","64b003020eef62ee308107cc","64b03e2bea289706dbb054e9","null","null","<p style=""font-size: 60px; font-family: BACS"">RKYkcDR</p>","","","","","","","",""
"html-keyboard-response","390","1730743","0.0-15.0-0.59","60f1846c851ee5a978a0e015","64b003020eef62ee308107cc","64b03e2bea289706dbb054e9","null","null","<p style=""font-size: 60px; font-family: BACS"">RKYkcDR</p>","","","","","","","",""
"html-keyboard-response","391","1731751","0.0-15.0-0.60","60f1846c851ee5a978a0e015","64b003020eef62ee308107cc","64b03e2bea289706dbb054e9","null","null","<p style=""font-size: 60px; font-family: BACS"">RKYkcDR</p>","","","","","","","",""
"html-keyboard-response","392","1732762","0.0-15.0-0.61","60f1846c851ee5a978a0e015","64b003020eef62ee308107cc","64b03e2bea289706dbb054e9","null","null","<p style=""font-size: 60px; font-family: BACS"">RKYkcDR</p>","","","","","","","",""
"html-keyboard-response","393","1733769","0.0-15.0-0.62","60f1846c851ee5a978a0e015","64b003020eef62ee308107cc","64b03e2bea289706dbb054e9","null","null","<p style=""font-size: 60px; font-family: BACS"">RKYkcDR</p>","","","","","","","",""
"html-keyboard-response","394","1734776","0.0-15.0-0.63","60f1846c851ee5a978a0e015","64b003020eef62ee308107cc","64b03e2bea289706dbb054e9","null","null","<p style=""font-size: 60px; font-family: BACS"">RKYkcDR</p>","","","","","","","",""
"html-keyboard-response","395","1735785","0.0-15.0-0.64","60f1846c851ee5a978a0e015","64b003020eef62ee308107cc","64b03e2bea289706dbb054e9","null","null","<p style=""font-size: 60px; font-family: BACS"">RKYkcDR</p>","","","","","","","",""
"html-keyboard-response","396","1736794","0.0-15.0-0.65","60f1846c851ee5a978a0e015","64b003020eef62ee308107cc","64b03e2bea289706dbb054e9","null","null","<p style=""font-size: 60px; font-family: BACS"">RKYkcDR</p>","","","","","","","",""
"html-keyboard-response","397","1737800","0.0-15.0-0.66","60f1846c851ee5a978a0e015","64b003020eef62ee308107cc","64b03e2bea289706dbb054e9","null","null","<p style=""font-size: 60px; font-family: BACS"">RKYkcDR</p>","","","","","","","",""
"html-keyboard-response","398","1738803","0.0-15.0-0.67","60f1846c851ee5a978a0e015","64b003020eef62ee308107cc","64b03e2bea289706dbb054e9","null","null","<p style=""font-size: 60px; font-family: BACS"">RKYkcDR</p>","","","","","","","",""
"html-keyboard-response","399","1739810","0.0-15.0-0.68","60f1846c851ee5a978a0e015","64b003020eef62ee308107cc","64b03e2bea289706dbb054e9","null","null","<p style=""font-size: 60px; font-family: BACS"">RKYkcDR</p>","","","","","","","",""
"html-keyboard-response","400","1740817","0.0-15.0-0.69","60f1846c851ee5a978a0e015","64b003020eef62ee308107cc","64b03e2bea289706dbb054e9","null","null","<p style=""font-size: 60px; font-family: BACS"">RKYkcDR</p>","","","","","","","",""
"html-keyboard-response","401","1741826","0.0-15.0-0.70","60f1846c851ee5a978a0e015","64b003020eef62ee308107cc","64b03e2bea289706dbb054e9","null","null","<p style=""font-size: 60px; font-family: BACS"">RKYkcDR</p>","","","","","","","",""
