"trial_type","trial_index","time_elapsed","internal_node_id","subject_id","study_id","session_id","rt","response","stimulus","success","item","task","correct_response","testing_condition","correct","target","confound","name"
"pavlovia","0","1509","0.0-0.0","60883a7e91c0be66dbb96fc8","650c16f0f2faf8d7a0d14c09","651c1baf2de14cda5ba971e4","","","","","","","","","","","",""
"survey-html-form","1","17877","0.0-1.0","60883a7e91c0be66dbb96fc8","650c16f0f2faf8d7a0d14c09","651c1baf2de14cda5ba971e4","16365","{""ID"":""60883a7e91c0be66dbb96fc8""}","","","","","","","","","",""
"html-keyboard-response","2","22471","0.0-2.0","60883a7e91c0be66dbb96fc8","650c16f0f2faf8d7a0d14c09","651c1baf2de14cda5ba971e4","4593"," ","<p style=""font-size: 15px;"">Before beginning, we ask that you read the consent information and confirm your agreement to participate in the experiment.</p>
      <p style=""font-size: 15px;""> We ask that you remember that this is a research project and that your participation is entirely voluntary. You can stop your participation at any time, without needing to provide any explanation. The study we're asking you to participate in aims at examining how readers process written words. You will be engaged in a session of apprximately 20 minutes, followed by a brief questionnaire. You will have the opportunity to take a few breaks during the experiment. You will be paid £4 for your participation, corresponding to a rate of £8/hour. While this experiment looks at cognitive faculties, this experiment doesn't constitute clinical proof of eventual pathologies.</p>
      <p style=""font-size: 15px;"">All of the information collected thanks to yours and others' participation will be held in a secure password-protected server, and will not be shared with anyone not authorised to view it. Your personal information will be kept with an arbitrary participant ID. Thanks to this data anonymity process, any researcher analysing the data won't be able to track the information back to a specific participant. Therefore, this process will make identifying you impossibile, even when results from the study will be published in scientific reviews, presented at congresses, or at any other public forum. More generally, the collected data will be treated in accordance with the laws on privacy and conformity to the Legislative Degree n. 196 ""Code regarding the protection of personal data"" of the 30th of June 2003 and to the European Regulation 2016/670 (General Data Protection Regulation - GDPR). The Data Protection Officer is Avv. Valentina Carollo, who can be contacted at the following email addresses: <a href=""mailto:dpo@sissa.it"">dpo@sissa.it</a> or <a href=""mailto:rpd@sissa.it"">rpd@sissa.it</a> - PEC: <a href=""mailto:protocollo@pec.sissa.it"">protocollo@pec.sissa.it</a>.</p>
      <p style=""font-size: 15px;""> Before expressing your consent to participate, we would like to remind you again that in case you need explanations on any aspect of the experimental procedure, the researcher is at your disposition (<a href=""mailto:aliebelt@sissa.it"">aliebelt@sissa.it</a>, <a href=""mailto:davide.crepaldi@sissa.it"">davide.crepaldi@sissa.it</a>).</p>
      <p style=""font-size: 15px;"">If you would like to download the informed consent form, you can do so here: <a href=""BASL-Informed_Consent.pdf"" download>informed consent form</a>.</p>
      <p style=""font-size: 15px;"">We ask that you press the spacebar to proceed to the consent section.</p>","","","","","","","","",""
"survey-html-form","3","45254","0.0-3.0","60883a7e91c0be66dbb96fc8","650c16f0f2faf8d7a0d14c09","651c1baf2de14cda5ba971e4","22780","{""consent1"":""YES"",""consent2"":""YES"",""consent3"":""YES"",""consent4"":""YES"",""consent5"":""YES"",""consent6"":""YES""}","","","","","","","","","",""
"fullscreen","4","55303","0.0-4.0","60883a7e91c0be66dbb96fc8","650c16f0f2faf8d7a0d14c09","651c1baf2de14cda5ba971e4","","","","true","","","","","","","",""
"html-keyboard-response","5","78095","0.0-5.0","60883a7e91c0be66dbb96fc8","650c16f0f2faf8d7a0d14c09","651c1baf2de14cda5ba971e4","22790"," ","<p>Welcome, and thank you very much for your time!</p>
      <p>In this experiment, you'll be a language expert who's been asked to take a look at words that Earth has received in its first communication with aliens. Your task, in this first part of the experiment, is to pay close attention to the words you'll be shown; later, world leaders will ask you questions on what you saw. The words will be shown to you quite quickly; it seems that the aliens were in a hurry :-)</p>
      <p>Press the spacebar to continue.<p>","","","","","","","","",""
"html-keyboard-response","6","78148","0.0-6.0","60883a7e91c0be66dbb96fc8","650c16f0f2faf8d7a0d14c09","651c1baf2de14cda5ba971e4","null","null","<p style=""font-size: 120px; font-family: BACS""> </p>","","","","","","","","",""
"html-keyboard-response","7","84462","0.0-7.0","60883a7e91c0be66dbb96fc8","650c16f0f2faf8d7a0d14c09","651c1baf2de14cda5ba971e4","6313"," ","<p>Here is an example of the words you'll see:</p>
      <img src='esempio.png' height='400px'>
      <p>When you're ready to begin, press the spacebar.</p></div>","","","","","","","","",""
"html-keyboard-response","8","85470","0.0-8.0-0.0","60883a7e91c0be66dbb96fc8","650c16f0f2faf8d7a0d14c09","651c1baf2de14cda5ba971e4","null","null","<p style=""font-size: 60px; font-family: BACS"">bYuQkmU</p>","","","","","","","","",""
"html-keyboard-response","9","86473","0.0-8.0-0.1","60883a7e91c0be66dbb96fc8","650c16f0f2faf8d7a0d14c09","651c1baf2de14cda5ba971e4","null","null","<p style=""font-size: 60px; font-family: BACS"">DhMtPMYm</p>","","","","","","","","",""
"html-keyboard-response","10","87474","0.0-8.0-0.2","60883a7e91c0be66dbb96fc8","650c16f0f2faf8d7a0d14c09","651c1baf2de14cda5ba971e4","null","null","<p style=""font-size: 60px; font-family: BACS"">ukYZkmU</p>","","","","","","","","",""
"html-keyboard-response","11","88483","0.0-8.0-0.3","60883a7e91c0be66dbb96fc8","650c16f0f2faf8d7a0d14c09","651c1baf2de14cda5ba971e4","null","null","<p style=""font-size: 60px; font-family: BACS"">RtRhcDR</p>","","","","","","","","",""
"html-keyboard-response","12","89485","0.0-8.0-0.4","60883a7e91c0be66dbb96fc8","650c16f0f2faf8d7a0d14c09","651c1baf2de14cda5ba971e4","null","null","<p style=""font-size: 60px; font-family: BACS"">TAdhMCPMl</p>","","","","","","","","",""
"html-keyboard-response","13","90492","0.0-8.0-0.5","60883a7e91c0be66dbb96fc8","650c16f0f2faf8d7a0d14c09","651c1baf2de14cda5ba971e4","null","null","<p style=""font-size: 60px; font-family: BACS"">vQdOkmU</p>","","","","","","","","",""
"html-keyboard-response","14","91495","0.0-8.0-0.6","60883a7e91c0be66dbb96fc8","650c16f0f2faf8d7a0d14c09","651c1baf2de14cda5ba971e4","null","null","<p style=""font-size: 60px; font-family: BACS"">TAdhMOdOP</p>","","","","","","","","",""
"html-keyboard-response","15","92506","0.0-8.0-0.7","60883a7e91c0be66dbb96fc8","650c16f0f2faf8d7a0d14c09","651c1baf2de14cda5ba971e4","null","null","<p style=""font-size: 60px; font-family: BACS"">AdDbcDR</p>","","","","","","","","",""
"html-keyboard-response","16","93513","0.0-8.0-0.8","60883a7e91c0be66dbb96fc8","650c16f0f2faf8d7a0d14c09","651c1baf2de14cda5ba971e4","null","null","<p style=""font-size: 60px; font-family: BACS"">DhMtOdOP</p>","","","","","","","","",""
"html-keyboard-response","17","94525","0.0-8.0-0.9","60883a7e91c0be66dbb96fc8","650c16f0f2faf8d7a0d14c09","651c1baf2de14cda5ba971e4","null","null","<p style=""font-size: 60px; font-family: BACS"">blMkdmRb</p>","","","","","","","","",""
"html-keyboard-response","18","95531","0.0-8.0-0.10","60883a7e91c0be66dbb96fc8","650c16f0f2faf8d7a0d14c09","651c1baf2de14cda5ba971e4","null","null","<p style=""font-size: 60px; font-family: BACS"">UdumdUdvY</p>","","","","","","","","",""
"html-keyboard-response","19","96542","0.0-8.0-0.11","60883a7e91c0be66dbb96fc8","650c16f0f2faf8d7a0d14c09","651c1baf2de14cda5ba971e4","null","null","<p style=""font-size: 60px; font-family: BACS"">bvuZmkc</p>","","","","","","","","",""
"html-keyboard-response","20","97548","0.0-8.0-0.12","60883a7e91c0be66dbb96fc8","650c16f0f2faf8d7a0d14c09","651c1baf2de14cda5ba971e4","null","null","<p style=""font-size: 60px; font-family: BACS"">NvYJvUdm</p>","","","","","","","","",""
"html-keyboard-response","21","98554","0.0-8.0-0.13","60883a7e91c0be66dbb96fc8","650c16f0f2faf8d7a0d14c09","651c1baf2de14cda5ba971e4","null","null","<p style=""font-size: 60px; font-family: BACS"">DhMtcDR</p>","","","","","","","","",""
"html-keyboard-response","22","99560","0.0-8.0-0.14","60883a7e91c0be66dbb96fc8","650c16f0f2faf8d7a0d14c09","651c1baf2de14cda5ba971e4","null","null","<p style=""font-size: 60px; font-family: BACS"">LuNZvUdm</p>","","","","","","","","",""
"html-keyboard-response","23","100574","0.0-8.0-0.15","60883a7e91c0be66dbb96fc8","650c16f0f2faf8d7a0d14c09","651c1baf2de14cda5ba971e4","null","null","<p style=""font-size: 60px; font-family: BACS"">dOYmlOdOP</p>","","","","","","","","",""
"html-keyboard-response","24","101579","0.0-8.0-0.16","60883a7e91c0be66dbb96fc8","650c16f0f2faf8d7a0d14c09","651c1baf2de14cda5ba971e4","null","null","<p style=""font-size: 60px; font-family: BACS"">AdDbPMYm</p>","","","","","","","","",""
"html-keyboard-response","25","102584","0.0-8.0-0.17","60883a7e91c0be66dbb96fc8","650c16f0f2faf8d7a0d14c09","651c1baf2de14cda5ba971e4","null","null","<p style=""font-size: 60px; font-family: BACS"">bYuQmkc</p>","","","","","","","","",""
"html-keyboard-response","26","103590","0.0-8.0-0.18","60883a7e91c0be66dbb96fc8","650c16f0f2faf8d7a0d14c09","651c1baf2de14cda5ba971e4","null","null","<p style=""font-size: 60px; font-family: BACS"">blMkCPMl</p>","","","","","","","","",""
"html-keyboard-response","27","104596","0.0-8.0-0.19","60883a7e91c0be66dbb96fc8","650c16f0f2faf8d7a0d14c09","651c1baf2de14cda5ba971e4","null","null","<p style=""font-size: 60px; font-family: BACS"">JdOAYUdvY</p>","","","","","","","","",""
"html-keyboard-response","28","105601","0.0-8.0-0.20","60883a7e91c0be66dbb96fc8","650c16f0f2faf8d7a0d14c09","651c1baf2de14cda5ba971e4","null","null","<p style=""font-size: 60px; font-family: BACS"">UdumdvUdm</p>","","","","","","","","",""
"html-keyboard-response","29","106606","0.0-8.0-0.21","60883a7e91c0be66dbb96fc8","650c16f0f2faf8d7a0d14c09","651c1baf2de14cda5ba971e4","null","null","<p style=""font-size: 60px; font-family: BACS"">kMbTROdOP</p>","","","","","","","","",""
"html-keyboard-response","30","107612","0.0-8.0-0.22","60883a7e91c0be66dbb96fc8","650c16f0f2faf8d7a0d14c09","651c1baf2de14cda5ba971e4","null","null","<p style=""font-size: 60px; font-family: BACS"">bvuZUdvY</p>","","","","","","","","",""
"html-keyboard-response","31","108616","0.0-8.0-0.23","60883a7e91c0be66dbb96fc8","650c16f0f2faf8d7a0d14c09","651c1baf2de14cda5ba971e4","null","null","<p style=""font-size: 60px; font-family: BACS"">kMbTRCPMl</p>","","","","","","","","",""
"html-keyboard-response","32","109621","0.0-8.0-0.24","60883a7e91c0be66dbb96fc8","650c16f0f2faf8d7a0d14c09","651c1baf2de14cda5ba971e4","null","null","<p style=""font-size: 60px; font-family: BACS"">JdOAYkam</p>","","","","","","","","",""
"html-keyboard-response","33","110627","0.0-8.0-0.25","60883a7e91c0be66dbb96fc8","650c16f0f2faf8d7a0d14c09","651c1baf2de14cda5ba971e4","null","null","<p style=""font-size: 60px; font-family: BACS"">RCcEPMYm</p>","","","","","","","","",""
"html-keyboard-response","34","111632","0.0-8.0-0.26","60883a7e91c0be66dbb96fc8","650c16f0f2faf8d7a0d14c09","651c1baf2de14cda5ba971e4","null","null","<p style=""font-size: 60px; font-family: BACS"">dYdACPMl</p>","","","","","","","","",""
"html-keyboard-response","35","112638","0.0-8.0-0.27","60883a7e91c0be66dbb96fc8","650c16f0f2faf8d7a0d14c09","651c1baf2de14cda5ba971e4","null","null","<p style=""font-size: 60px; font-family: BACS"">RtRhdmRb</p>","","","","","","","","",""
"html-keyboard-response","36","113645","0.0-8.0-0.28","60883a7e91c0be66dbb96fc8","650c16f0f2faf8d7a0d14c09","651c1baf2de14cda5ba971e4","null","null","<p style=""font-size: 60px; font-family: BACS"">dYdAPMYm</p>","","","","","","","","",""
"html-keyboard-response","37","114651","0.0-8.0-0.29","60883a7e91c0be66dbb96fc8","650c16f0f2faf8d7a0d14c09","651c1baf2de14cda5ba971e4","null","null","<p style=""font-size: 60px; font-family: BACS"">JdOAYmkc</p>","","","","","","","","",""
"html-keyboard-response","38","115658","0.0-8.0-0.30","60883a7e91c0be66dbb96fc8","650c16f0f2faf8d7a0d14c09","651c1baf2de14cda5ba971e4","null","null","<p style=""font-size: 60px; font-family: BACS"">RCcECPMl</p>","","","","","","","","",""
"html-keyboard-response","39","116664","0.0-8.0-0.31","60883a7e91c0be66dbb96fc8","650c16f0f2faf8d7a0d14c09","651c1baf2de14cda5ba971e4","null","null","<p style=""font-size: 60px; font-family: BACS"">bYuQvUdm</p>","","","","","","","","",""
"html-keyboard-response","40","117670","0.0-8.0-0.32","60883a7e91c0be66dbb96fc8","650c16f0f2faf8d7a0d14c09","651c1baf2de14cda5ba971e4","null","null","<p style=""font-size: 60px; font-family: BACS"">RCcEcDR</p>","","","","","","","","",""
"html-keyboard-response","41","118676","0.0-8.0-0.33","60883a7e91c0be66dbb96fc8","650c16f0f2faf8d7a0d14c09","651c1baf2de14cda5ba971e4","null","null","<p style=""font-size: 60px; font-family: BACS"">ukYZvUdm</p>","","","","","","","","",""
"html-keyboard-response","42","119681","0.0-8.0-0.34","60883a7e91c0be66dbb96fc8","650c16f0f2faf8d7a0d14c09","651c1baf2de14cda5ba971e4","null","null","<p style=""font-size: 60px; font-family: BACS"">UdYUQUdvY</p>","","","","","","","","",""
"html-keyboard-response","43","120690","0.0-8.0-0.35","60883a7e91c0be66dbb96fc8","650c16f0f2faf8d7a0d14c09","651c1baf2de14cda5ba971e4","null","null","<p style=""font-size: 60px; font-family: BACS"">dYdAcDR</p>","","","","","","","","",""
"html-keyboard-response","44","121694","0.0-8.0-0.36","60883a7e91c0be66dbb96fc8","650c16f0f2faf8d7a0d14c09","651c1baf2de14cda5ba971e4","null","null","<p style=""font-size: 60px; font-family: BACS"">bvuZkmU</p>","","","","","","","","",""
"html-keyboard-response","45","122703","0.0-8.0-0.37","60883a7e91c0be66dbb96fc8","650c16f0f2faf8d7a0d14c09","651c1baf2de14cda5ba971e4","null","null","<p style=""font-size: 60px; font-family: BACS"">NvYJkam</p>","","","","","","","","",""
"html-keyboard-response","46","123709","0.0-8.0-0.38","60883a7e91c0be66dbb96fc8","650c16f0f2faf8d7a0d14c09","651c1baf2de14cda5ba971e4","null","null","<p style=""font-size: 60px; font-family: BACS"">UmNJkmU</p>","","","","","","","","",""
"html-keyboard-response","47","124715","0.0-8.0-0.39","60883a7e91c0be66dbb96fc8","650c16f0f2faf8d7a0d14c09","651c1baf2de14cda5ba971e4","null","null","<p style=""font-size: 60px; font-family: BACS"">dYdAdmRb</p>","","","","","","","","",""
"html-keyboard-response","48","125723","0.0-8.0-0.40","60883a7e91c0be66dbb96fc8","650c16f0f2faf8d7a0d14c09","651c1baf2de14cda5ba971e4","null","null","<p style=""font-size: 60px; font-family: BACS"">Udumdkam</p>","","","","","","","","",""
"html-keyboard-response","49","126728","0.0-8.0-0.41","60883a7e91c0be66dbb96fc8","650c16f0f2faf8d7a0d14c09","651c1baf2de14cda5ba971e4","null","null","<p style=""font-size: 60px; font-family: BACS"">YKRkdmRb</p>","","","","","","","","",""
"html-keyboard-response","50","127739","0.0-8.0-0.42","60883a7e91c0be66dbb96fc8","650c16f0f2faf8d7a0d14c09","651c1baf2de14cda5ba971e4","null","null","<p style=""font-size: 60px; font-family: BACS"">NvYJmkc</p>","","","","","","","","",""
"html-keyboard-response","51","128751","0.0-8.0-0.43","60883a7e91c0be66dbb96fc8","650c16f0f2faf8d7a0d14c09","651c1baf2de14cda5ba971e4","null","null","<p style=""font-size: 60px; font-family: BACS"">YKRkcDR</p>","","","","","","","","",""
"html-keyboard-response","52","129756","0.0-8.0-0.44","60883a7e91c0be66dbb96fc8","650c16f0f2faf8d7a0d14c09","651c1baf2de14cda5ba971e4","null","null","<p style=""font-size: 60px; font-family: BACS"">vQdOvUdm</p>","","","","","","","","",""
"html-keyboard-response","53","130762","0.0-8.0-0.45","60883a7e91c0be66dbb96fc8","650c16f0f2faf8d7a0d14c09","651c1baf2de14cda5ba971e4","null","null","<p style=""font-size: 60px; font-family: BACS"">YKRkPMYm</p>","","","","","","","","",""
"html-keyboard-response","54","131768","0.0-8.0-0.46","60883a7e91c0be66dbb96fc8","650c16f0f2faf8d7a0d14c09","651c1baf2de14cda5ba971e4","null","null","<p style=""font-size: 60px; font-family: BACS"">RtRhOdOP</p>","","","","","","","","",""
"html-keyboard-response","55","132777","0.0-8.0-0.47","60883a7e91c0be66dbb96fc8","650c16f0f2faf8d7a0d14c09","651c1baf2de14cda5ba971e4","null","null","<p style=""font-size: 60px; font-family: BACS"">TAdhMPMYm</p>","","","","","","","","",""
"html-keyboard-response","56","133783","0.0-8.0-0.48","60883a7e91c0be66dbb96fc8","650c16f0f2faf8d7a0d14c09","651c1baf2de14cda5ba971e4","null","null","<p style=""font-size: 60px; font-family: BACS"">vQdOUdvY</p>","","","","","","","","",""
"html-keyboard-response","57","134788","0.0-8.0-0.49","60883a7e91c0be66dbb96fc8","650c16f0f2faf8d7a0d14c09","651c1baf2de14cda5ba971e4","null","null","<p style=""font-size: 60px; font-family: BACS"">AdDbdmRb</p>","","","","","","","","",""
"html-keyboard-response","58","135794","0.0-8.0-0.50","60883a7e91c0be66dbb96fc8","650c16f0f2faf8d7a0d14c09","651c1baf2de14cda5ba971e4","null","null","<p style=""font-size: 60px; font-family: BACS"">bvuZkam</p>","","","","","","","","",""
"html-keyboard-response","59","136800","0.0-8.0-0.51","60883a7e91c0be66dbb96fc8","650c16f0f2faf8d7a0d14c09","651c1baf2de14cda5ba971e4","null","null","<p style=""font-size: 60px; font-family: BACS"">LuNZkmU</p>","","","","","","","","",""
"html-keyboard-response","60","137815","0.0-8.0-0.52","60883a7e91c0be66dbb96fc8","650c16f0f2faf8d7a0d14c09","651c1baf2de14cda5ba971e4","null","null","<p style=""font-size: 60px; font-family: BACS"">UdYUQmkc</p>","","","","","","","","",""
"html-keyboard-response","61","138829","0.0-8.0-0.53","60883a7e91c0be66dbb96fc8","650c16f0f2faf8d7a0d14c09","651c1baf2de14cda5ba971e4","null","null","<p style=""font-size: 60px; font-family: BACS"">YKRkOdOP</p>","","","","","","","","",""
"html-keyboard-response","62","139844","0.0-8.0-0.54","60883a7e91c0be66dbb96fc8","650c16f0f2faf8d7a0d14c09","651c1baf2de14cda5ba971e4","null","null","<p style=""font-size: 60px; font-family: BACS"">blMkcDR</p>","","","","","","","","",""
"html-keyboard-response","63","140855","0.0-8.0-0.55","60883a7e91c0be66dbb96fc8","650c16f0f2faf8d7a0d14c09","651c1baf2de14cda5ba971e4","null","null","<p style=""font-size: 60px; font-family: BACS"">RCcEdmRb</p>","","","","","","","","",""
"html-keyboard-response","64","141871","0.0-8.0-0.56","60883a7e91c0be66dbb96fc8","650c16f0f2faf8d7a0d14c09","651c1baf2de14cda5ba971e4","null","null","<p style=""font-size: 60px; font-family: BACS"">UdYUQkmU</p>","","","","","","","","",""
"html-keyboard-response","65","142882","0.0-8.0-0.57","60883a7e91c0be66dbb96fc8","650c16f0f2faf8d7a0d14c09","651c1baf2de14cda5ba971e4","null","null","<p style=""font-size: 60px; font-family: BACS"">UmNJmkc</p>","","","","","","","","",""
"html-keyboard-response","66","143910","0.0-8.0-0.58","60883a7e91c0be66dbb96fc8","650c16f0f2faf8d7a0d14c09","651c1baf2de14cda5ba971e4","null","null","<p style=""font-size: 60px; font-family: BACS"">AdDbOdOP</p>","","","","","","","","",""
"html-keyboard-response","67","144916","0.0-8.0-0.59","60883a7e91c0be66dbb96fc8","650c16f0f2faf8d7a0d14c09","651c1baf2de14cda5ba971e4","null","null","<p style=""font-size: 60px; font-family: BACS"">NvYJUdvY</p>","","","","","","","","",""
"html-keyboard-response","68","145921","0.0-8.0-0.60","60883a7e91c0be66dbb96fc8","650c16f0f2faf8d7a0d14c09","651c1baf2de14cda5ba971e4","null","null","<p style=""font-size: 60px; font-family: BACS"">TAdhMdmRb</p>","","","","","","","","",""
"html-keyboard-response","69","146927","0.0-8.0-0.61","60883a7e91c0be66dbb96fc8","650c16f0f2faf8d7a0d14c09","651c1baf2de14cda5ba971e4","null","null","<p style=""font-size: 60px; font-family: BACS"">RtRhCPMl</p>","","","","","","","","",""
"html-keyboard-response","70","147933","0.0-8.0-0.62","60883a7e91c0be66dbb96fc8","650c16f0f2faf8d7a0d14c09","651c1baf2de14cda5ba971e4","null","null","<p style=""font-size: 60px; font-family: BACS"">UmNJkam</p>","","","","","","","","",""
"html-keyboard-response","71","148939","0.0-8.0-0.63","60883a7e91c0be66dbb96fc8","650c16f0f2faf8d7a0d14c09","651c1baf2de14cda5ba971e4","null","null","<p style=""font-size: 60px; font-family: BACS"">blMkOdOP</p>","","","","","","","","",""
"html-keyboard-response","72","149944","0.0-8.0-0.64","60883a7e91c0be66dbb96fc8","650c16f0f2faf8d7a0d14c09","651c1baf2de14cda5ba971e4","null","null","<p style=""font-size: 60px; font-family: BACS"">ukYZkam</p>","","","","","","","","",""
"html-keyboard-response","73","150951","0.0-8.0-0.65","60883a7e91c0be66dbb96fc8","650c16f0f2faf8d7a0d14c09","651c1baf2de14cda5ba971e4","null","null","<p style=""font-size: 60px; font-family: BACS"">kMbTRcDR</p>","","","","","","","","",""
"html-keyboard-response","74","151956","0.0-8.0-0.66","60883a7e91c0be66dbb96fc8","650c16f0f2faf8d7a0d14c09","651c1baf2de14cda5ba971e4","null","null","<p style=""font-size: 60px; font-family: BACS"">ukYZmkc</p>","","","","","","","","",""
"html-keyboard-response","75","152962","0.0-8.0-0.67","60883a7e91c0be66dbb96fc8","650c16f0f2faf8d7a0d14c09","651c1baf2de14cda5ba971e4","null","null","<p style=""font-size: 60px; font-family: BACS"">dOYmlCPMl</p>","","","","","","","","",""
"html-keyboard-response","76","153967","0.0-8.0-0.68","60883a7e91c0be66dbb96fc8","650c16f0f2faf8d7a0d14c09","651c1baf2de14cda5ba971e4","null","null","<p style=""font-size: 60px; font-family: BACS"">UmNJvUdm</p>","","","","","","","","",""
"html-keyboard-response","77","154974","0.0-8.0-0.69","60883a7e91c0be66dbb96fc8","650c16f0f2faf8d7a0d14c09","651c1baf2de14cda5ba971e4","null","null","<p style=""font-size: 60px; font-family: BACS"">UdYUQkam</p>","","","","","","","","",""
"html-keyboard-response","78","155979","0.0-8.0-0.70","60883a7e91c0be66dbb96fc8","650c16f0f2faf8d7a0d14c09","651c1baf2de14cda5ba971e4","null","null","<p style=""font-size: 60px; font-family: BACS"">kMbTRPMYm</p>","","","","","","","","",""
"html-keyboard-response","79","156986","0.0-8.0-0.71","60883a7e91c0be66dbb96fc8","650c16f0f2faf8d7a0d14c09","651c1baf2de14cda5ba971e4","null","null","<p style=""font-size: 60px; font-family: BACS"">dOYmldmRb</p>","","","","","","","","",""
"html-keyboard-response","80","157991","0.0-8.0-0.72","60883a7e91c0be66dbb96fc8","650c16f0f2faf8d7a0d14c09","651c1baf2de14cda5ba971e4","null","null","<p style=""font-size: 60px; font-family: BACS"">LuNZUdvY</p>","","","","","","","","",""
"html-keyboard-response","81","158997","0.0-8.0-0.73","60883a7e91c0be66dbb96fc8","650c16f0f2faf8d7a0d14c09","651c1baf2de14cda5ba971e4","null","null","<p style=""font-size: 60px; font-family: BACS"">DhMtCPMl</p>","","","","","","","","",""
"html-keyboard-response","82","160003","0.0-8.0-0.74","60883a7e91c0be66dbb96fc8","650c16f0f2faf8d7a0d14c09","651c1baf2de14cda5ba971e4","null","null","<p style=""font-size: 60px; font-family: BACS"">dOYmlPMYm</p>","","","","","","","","",""
"html-keyboard-response","83","161008","0.0-8.0-0.75","60883a7e91c0be66dbb96fc8","650c16f0f2faf8d7a0d14c09","651c1baf2de14cda5ba971e4","null","null","<p style=""font-size: 60px; font-family: BACS"">JdOAYvUdm</p>","","","","","","","","",""
"html-keyboard-response","84","162014","0.0-8.0-0.76","60883a7e91c0be66dbb96fc8","650c16f0f2faf8d7a0d14c09","651c1baf2de14cda5ba971e4","null","null","<p style=""font-size: 60px; font-family: BACS"">LuNZmkc</p>","","","","","","","","",""
"html-keyboard-response","85","163020","0.0-8.0-0.77","60883a7e91c0be66dbb96fc8","650c16f0f2faf8d7a0d14c09","651c1baf2de14cda5ba971e4","null","null","<p style=""font-size: 60px; font-family: BACS"">vQdOkam</p>","","","","","","","","",""
"html-keyboard-response","86","164026","0.0-8.0-0.78","60883a7e91c0be66dbb96fc8","650c16f0f2faf8d7a0d14c09","651c1baf2de14cda5ba971e4","null","null","<p style=""font-size: 60px; font-family: BACS"">bYuQUdvY</p>","","","","","","","","",""
"html-keyboard-response","87","165032","0.0-8.0-0.79","60883a7e91c0be66dbb96fc8","650c16f0f2faf8d7a0d14c09","651c1baf2de14cda5ba971e4","null","null","<p style=""font-size: 60px; font-family: BACS"">UdumdkmU</p>","","","","","","","","",""
"html-keyboard-response","88","171870","0.0-9.0","60883a7e91c0be66dbb96fc8","650c16f0f2faf8d7a0d14c09","651c1baf2de14cda5ba971e4","6837"," ","<p>Great, you've seen the first block of words. You may now take a short break.</p>
      <p>Press the spacebar when you're ready to continue.</p>","","","","","","","","",""
"html-keyboard-response","89","172873","0.0-10.0-0.0","60883a7e91c0be66dbb96fc8","650c16f0f2faf8d7a0d14c09","651c1baf2de14cda5ba971e4","null","null","<p style=""font-size: 60px; font-family: BACS"">NvYJUdvY</p>","","","","","","","","",""
"html-keyboard-response","90","173880","0.0-10.0-0.1","60883a7e91c0be66dbb96fc8","650c16f0f2faf8d7a0d14c09","651c1baf2de14cda5ba971e4","null","null","<p style=""font-size: 60px; font-family: BACS"">RCcECPMl</p>","","","","","","","","",""
"html-keyboard-response","91","174885","0.0-10.0-0.2","60883a7e91c0be66dbb96fc8","650c16f0f2faf8d7a0d14c09","651c1baf2de14cda5ba971e4","null","null","<p style=""font-size: 60px; font-family: BACS"">RtRhOdOP</p>","","","","","","","","",""
"html-keyboard-response","92","175892","0.0-10.0-0.3","60883a7e91c0be66dbb96fc8","650c16f0f2faf8d7a0d14c09","651c1baf2de14cda5ba971e4","null","null","<p style=""font-size: 60px; font-family: BACS"">LuNZmkc</p>","","","","","","","","",""
"html-keyboard-response","93","176897","0.0-10.0-0.4","60883a7e91c0be66dbb96fc8","650c16f0f2faf8d7a0d14c09","651c1baf2de14cda5ba971e4","null","null","<p style=""font-size: 60px; font-family: BACS"">kMbTROdOP</p>","","","","","","","","",""
"html-keyboard-response","94","177904","0.0-10.0-0.5","60883a7e91c0be66dbb96fc8","650c16f0f2faf8d7a0d14c09","651c1baf2de14cda5ba971e4","null","null","<p style=""font-size: 60px; font-family: BACS"">UdYUQkam</p>","","","","","","","","",""
"html-keyboard-response","95","178910","0.0-10.0-0.6","60883a7e91c0be66dbb96fc8","650c16f0f2faf8d7a0d14c09","651c1baf2de14cda5ba971e4","null","null","<p style=""font-size: 60px; font-family: BACS"">dYdAPMYm</p>","","","","","","","","",""
"html-keyboard-response","96","179915","0.0-10.0-0.7","60883a7e91c0be66dbb96fc8","650c16f0f2faf8d7a0d14c09","651c1baf2de14cda5ba971e4","null","null","<p style=""font-size: 60px; font-family: BACS"">UmNJkam</p>","","","","","","","","",""
"html-keyboard-response","97","180922","0.0-10.0-0.8","60883a7e91c0be66dbb96fc8","650c16f0f2faf8d7a0d14c09","651c1baf2de14cda5ba971e4","null","null","<p style=""font-size: 60px; font-family: BACS"">dYdACPMl</p>","","","","","","","","",""
"html-keyboard-response","98","181927","0.0-10.0-0.9","60883a7e91c0be66dbb96fc8","650c16f0f2faf8d7a0d14c09","651c1baf2de14cda5ba971e4","null","null","<p style=""font-size: 60px; font-family: BACS"">bvuZmkc</p>","","","","","","","","",""
"html-keyboard-response","99","182933","0.0-10.0-0.10","60883a7e91c0be66dbb96fc8","650c16f0f2faf8d7a0d14c09","651c1baf2de14cda5ba971e4","null","null","<p style=""font-size: 60px; font-family: BACS"">TAdhMPMYm</p>","","","","","","","","",""
"html-keyboard-response","100","183939","0.0-10.0-0.11","60883a7e91c0be66dbb96fc8","650c16f0f2faf8d7a0d14c09","651c1baf2de14cda5ba971e4","null","null","<p style=""font-size: 60px; font-family: BACS"">YKRkcDR</p>","","","","","","","","",""
"html-keyboard-response","101","184958","0.0-10.0-0.12","60883a7e91c0be66dbb96fc8","650c16f0f2faf8d7a0d14c09","651c1baf2de14cda5ba971e4","null","null","<p style=""font-size: 60px; font-family: BACS"">bYuQUdvY</p>","","","","","","","","",""
"html-keyboard-response","102","185964","0.0-10.0-0.13","60883a7e91c0be66dbb96fc8","650c16f0f2faf8d7a0d14c09","651c1baf2de14cda5ba971e4","null","null","<p style=""font-size: 60px; font-family: BACS"">blMkcDR</p>","","","","","","","","",""
"html-keyboard-response","103","186967","0.0-10.0-0.14","60883a7e91c0be66dbb96fc8","650c16f0f2faf8d7a0d14c09","651c1baf2de14cda5ba971e4","null","null","<p style=""font-size: 60px; font-family: BACS"">dOYmldmRb</p>","","","","","","","","",""
"html-keyboard-response","104","187976","0.0-10.0-0.15","60883a7e91c0be66dbb96fc8","650c16f0f2faf8d7a0d14c09","651c1baf2de14cda5ba971e4","null","null","<p style=""font-size: 60px; font-family: BACS"">ukYZvUdm</p>","","","","","","","","",""
"html-keyboard-response","105","188982","0.0-10.0-0.16","60883a7e91c0be66dbb96fc8","650c16f0f2faf8d7a0d14c09","651c1baf2de14cda5ba971e4","null","null","<p style=""font-size: 60px; font-family: BACS"">TAdhMdmRb</p>","","","","","","","","",""
"html-keyboard-response","106","189985","0.0-10.0-0.17","60883a7e91c0be66dbb96fc8","650c16f0f2faf8d7a0d14c09","651c1baf2de14cda5ba971e4","null","null","<p style=""font-size: 60px; font-family: BACS"">UdumdvUdm</p>","","","","","","","","",""
"html-keyboard-response","107","190993","0.0-10.0-0.18","60883a7e91c0be66dbb96fc8","650c16f0f2faf8d7a0d14c09","651c1baf2de14cda5ba971e4","null","null","<p style=""font-size: 60px; font-family: BACS"">ukYZkam</p>","","","","","","","","",""
"html-keyboard-response","108","191998","0.0-10.0-0.19","60883a7e91c0be66dbb96fc8","650c16f0f2faf8d7a0d14c09","651c1baf2de14cda5ba971e4","null","null","<p style=""font-size: 60px; font-family: BACS"">YKRkPMYm</p>","","","","","","","","",""
"html-keyboard-response","109","193004","0.0-10.0-0.20","60883a7e91c0be66dbb96fc8","650c16f0f2faf8d7a0d14c09","651c1baf2de14cda5ba971e4","null","null","<p style=""font-size: 60px; font-family: BACS"">RCcEcDR</p>","","","","","","","","",""
"html-keyboard-response","110","194014","0.0-10.0-0.21","60883a7e91c0be66dbb96fc8","650c16f0f2faf8d7a0d14c09","651c1baf2de14cda5ba971e4","null","null","<p style=""font-size: 60px; font-family: BACS"">LuNZUdvY</p>","","","","","","","","",""
"html-keyboard-response","111","195025","0.0-10.0-0.22","60883a7e91c0be66dbb96fc8","650c16f0f2faf8d7a0d14c09","651c1baf2de14cda5ba971e4","null","null","<p style=""font-size: 60px; font-family: BACS"">AdDbcDR</p>","","","","","","","","",""
"html-keyboard-response","112","196030","0.0-10.0-0.23","60883a7e91c0be66dbb96fc8","650c16f0f2faf8d7a0d14c09","651c1baf2de14cda5ba971e4","null","null","<p style=""font-size: 60px; font-family: BACS"">YKRkOdOP</p>","","","","","","","","",""
"html-keyboard-response","113","197035","0.0-10.0-0.24","60883a7e91c0be66dbb96fc8","650c16f0f2faf8d7a0d14c09","651c1baf2de14cda5ba971e4","null","null","<p style=""font-size: 60px; font-family: BACS"">bYuQvUdm</p>","","","","","","","","",""
"html-keyboard-response","114","198047","0.0-10.0-0.25","60883a7e91c0be66dbb96fc8","650c16f0f2faf8d7a0d14c09","651c1baf2de14cda5ba971e4","null","null","<p style=""font-size: 60px; font-family: BACS"">DhMtCPMl</p>","","","","","","","","",""
"html-keyboard-response","115","199059","0.0-10.0-0.26","60883a7e91c0be66dbb96fc8","650c16f0f2faf8d7a0d14c09","651c1baf2de14cda5ba971e4","null","null","<p style=""font-size: 60px; font-family: BACS"">bYuQkmU</p>","","","","","","","","",""
"html-keyboard-response","116","200065","0.0-10.0-0.27","60883a7e91c0be66dbb96fc8","650c16f0f2faf8d7a0d14c09","651c1baf2de14cda5ba971e4","null","null","<p style=""font-size: 60px; font-family: BACS"">vQdOvUdm</p>","","","","","","","","",""
"html-keyboard-response","117","201070","0.0-10.0-0.28","60883a7e91c0be66dbb96fc8","650c16f0f2faf8d7a0d14c09","651c1baf2de14cda5ba971e4","null","null","<p style=""font-size: 60px; font-family: BACS"">UdumdUdvY</p>","","","","","","","","",""
"html-keyboard-response","118","202081","0.0-10.0-0.29","60883a7e91c0be66dbb96fc8","650c16f0f2faf8d7a0d14c09","651c1baf2de14cda5ba971e4","null","null","<p style=""font-size: 60px; font-family: BACS"">DhMtcDR</p>","","","","","","","","",""
"html-keyboard-response","119","203092","0.0-10.0-0.30","60883a7e91c0be66dbb96fc8","650c16f0f2faf8d7a0d14c09","651c1baf2de14cda5ba971e4","null","null","<p style=""font-size: 60px; font-family: BACS"">AdDbPMYm</p>","","","","","","","","",""
"html-keyboard-response","120","204097","0.0-10.0-0.31","60883a7e91c0be66dbb96fc8","650c16f0f2faf8d7a0d14c09","651c1baf2de14cda5ba971e4","null","null","<p style=""font-size: 60px; font-family: BACS"">UdYUQkmU</p>","","","","","","","","",""
"html-keyboard-response","121","205108","0.0-10.0-0.32","60883a7e91c0be66dbb96fc8","650c16f0f2faf8d7a0d14c09","651c1baf2de14cda5ba971e4","null","null","<p style=""font-size: 60px; font-family: BACS"">RCcEPMYm</p>","","","","","","","","",""
"html-keyboard-response","122","206114","0.0-10.0-0.33","60883a7e91c0be66dbb96fc8","650c16f0f2faf8d7a0d14c09","651c1baf2de14cda5ba971e4","null","null","<p style=""font-size: 60px; font-family: BACS"">RtRhcDR</p>","","","","","","","","",""
"html-keyboard-response","123","207119","0.0-10.0-0.34","60883a7e91c0be66dbb96fc8","650c16f0f2faf8d7a0d14c09","651c1baf2de14cda5ba971e4","null","null","<p style=""font-size: 60px; font-family: BACS"">TAdhMCPMl</p>","","","","","","","","",""
"html-keyboard-response","124","208125","0.0-10.0-0.35","60883a7e91c0be66dbb96fc8","650c16f0f2faf8d7a0d14c09","651c1baf2de14cda5ba971e4","null","null","<p style=""font-size: 60px; font-family: BACS"">UmNJvUdm</p>","","","","","","","","",""
"html-keyboard-response","125","209131","0.0-10.0-0.36","60883a7e91c0be66dbb96fc8","650c16f0f2faf8d7a0d14c09","651c1baf2de14cda5ba971e4","null","null","<p style=""font-size: 60px; font-family: BACS"">vQdOUdvY</p>","","","","","","","","",""
"html-keyboard-response","126","210137","0.0-10.0-0.37","60883a7e91c0be66dbb96fc8","650c16f0f2faf8d7a0d14c09","651c1baf2de14cda5ba971e4","null","null","<p style=""font-size: 60px; font-family: BACS"">ukYZmkc</p>","","","","","","","","",""
"html-keyboard-response","127","211146","0.0-10.0-0.38","60883a7e91c0be66dbb96fc8","650c16f0f2faf8d7a0d14c09","651c1baf2de14cda5ba971e4","null","null","<p style=""font-size: 60px; font-family: BACS"">dOYmlPMYm</p>","","","","","","","","",""
"html-keyboard-response","128","212150","0.0-10.0-0.39","60883a7e91c0be66dbb96fc8","650c16f0f2faf8d7a0d14c09","651c1baf2de14cda5ba971e4","null","null","<p style=""font-size: 60px; font-family: BACS"">RCcEdmRb</p>","","","","","","","","",""
"html-keyboard-response","129","213163","0.0-10.0-0.40","60883a7e91c0be66dbb96fc8","650c16f0f2faf8d7a0d14c09","651c1baf2de14cda5ba971e4","null","null","<p style=""font-size: 60px; font-family: BACS"">vQdOkmU</p>","","","","","","","","",""
"html-keyboard-response","130","214175","0.0-10.0-0.41","60883a7e91c0be66dbb96fc8","650c16f0f2faf8d7a0d14c09","651c1baf2de14cda5ba971e4","null","null","<p style=""font-size: 60px; font-family: BACS"">UdYUQmkc</p>","","","","","","","","",""
"html-keyboard-response","131","215180","0.0-10.0-0.42","60883a7e91c0be66dbb96fc8","650c16f0f2faf8d7a0d14c09","651c1baf2de14cda5ba971e4","null","null","<p style=""font-size: 60px; font-family: BACS"">LuNZvUdm</p>","","","","","","","","",""
"html-keyboard-response","132","216185","0.0-10.0-0.43","60883a7e91c0be66dbb96fc8","650c16f0f2faf8d7a0d14c09","651c1baf2de14cda5ba971e4","null","null","<p style=""font-size: 60px; font-family: BACS"">UmNJmkc</p>","","","","","","","","",""
"html-keyboard-response","133","217189","0.0-10.0-0.44","60883a7e91c0be66dbb96fc8","650c16f0f2faf8d7a0d14c09","651c1baf2de14cda5ba971e4","null","null","<p style=""font-size: 60px; font-family: BACS"">YKRkdmRb</p>","","","","","","","","",""
"html-keyboard-response","134","218197","0.0-10.0-0.45","60883a7e91c0be66dbb96fc8","650c16f0f2faf8d7a0d14c09","651c1baf2de14cda5ba971e4","null","null","<p style=""font-size: 60px; font-family: BACS"">UmNJkmU</p>","","","","","","","","",""
"html-keyboard-response","135","219202","0.0-10.0-0.46","60883a7e91c0be66dbb96fc8","650c16f0f2faf8d7a0d14c09","651c1baf2de14cda5ba971e4","null","null","<p style=""font-size: 60px; font-family: BACS"">JdOAYvUdm</p>","","","","","","","","",""
"html-keyboard-response","136","220213","0.0-10.0-0.47","60883a7e91c0be66dbb96fc8","650c16f0f2faf8d7a0d14c09","651c1baf2de14cda5ba971e4","null","null","<p style=""font-size: 60px; font-family: BACS"">AdDbdmRb</p>","","","","","","","","",""
"html-keyboard-response","137","221218","0.0-10.0-0.48","60883a7e91c0be66dbb96fc8","650c16f0f2faf8d7a0d14c09","651c1baf2de14cda5ba971e4","null","null","<p style=""font-size: 60px; font-family: BACS"">dOYmlCPMl</p>","","","","","","","","",""
"html-keyboard-response","138","222229","0.0-10.0-0.49","60883a7e91c0be66dbb96fc8","650c16f0f2faf8d7a0d14c09","651c1baf2de14cda5ba971e4","null","null","<p style=""font-size: 60px; font-family: BACS"">kMbTRPMYm</p>","","","","","","","","",""
"html-keyboard-response","139","223239","0.0-10.0-0.50","60883a7e91c0be66dbb96fc8","650c16f0f2faf8d7a0d14c09","651c1baf2de14cda5ba971e4","null","null","<p style=""font-size: 60px; font-family: BACS"">JdOAYUdvY</p>","","","","","","","","",""
"html-keyboard-response","140","224241","0.0-10.0-0.51","60883a7e91c0be66dbb96fc8","650c16f0f2faf8d7a0d14c09","651c1baf2de14cda5ba971e4","null","null","<p style=""font-size: 60px; font-family: BACS"">vQdOkam</p>","","","","","","","","",""
"html-keyboard-response","141","225246","0.0-10.0-0.52","60883a7e91c0be66dbb96fc8","650c16f0f2faf8d7a0d14c09","651c1baf2de14cda5ba971e4","null","null","<p style=""font-size: 60px; font-family: BACS"">LuNZkmU</p>","","","","","","","","",""
"html-keyboard-response","142","226252","0.0-10.0-0.53","60883a7e91c0be66dbb96fc8","650c16f0f2faf8d7a0d14c09","651c1baf2de14cda5ba971e4","null","null","<p style=""font-size: 60px; font-family: BACS"">JdOAYkam</p>","","","","","","","","",""
"html-keyboard-response","143","227255","0.0-10.0-0.54","60883a7e91c0be66dbb96fc8","650c16f0f2faf8d7a0d14c09","651c1baf2de14cda5ba971e4","null","null","<p style=""font-size: 60px; font-family: BACS"">bvuZUdvY</p>","","","","","","","","",""
"html-keyboard-response","144","228260","0.0-10.0-0.55","60883a7e91c0be66dbb96fc8","650c16f0f2faf8d7a0d14c09","651c1baf2de14cda5ba971e4","null","null","<p style=""font-size: 60px; font-family: BACS"">NvYJkam</p>","","","","","","","","",""
"html-keyboard-response","145","229262","0.0-10.0-0.56","60883a7e91c0be66dbb96fc8","650c16f0f2faf8d7a0d14c09","651c1baf2de14cda5ba971e4","null","null","<p style=""font-size: 60px; font-family: BACS"">bYuQmkc</p>","","","","","","","","",""
"html-keyboard-response","146","230278","0.0-10.0-0.57","60883a7e91c0be66dbb96fc8","650c16f0f2faf8d7a0d14c09","651c1baf2de14cda5ba971e4","null","null","<p style=""font-size: 60px; font-family: BACS"">UdumdkmU</p>","","","","","","","","",""
"html-keyboard-response","147","231285","0.0-10.0-0.58","60883a7e91c0be66dbb96fc8","650c16f0f2faf8d7a0d14c09","651c1baf2de14cda5ba971e4","null","null","<p style=""font-size: 60px; font-family: BACS"">kMbTRCPMl</p>","","","","","","","","",""
"html-keyboard-response","148","232289","0.0-10.0-0.59","60883a7e91c0be66dbb96fc8","650c16f0f2faf8d7a0d14c09","651c1baf2de14cda5ba971e4","null","null","<p style=""font-size: 60px; font-family: BACS"">dYdAcDR</p>","","","","","","","","",""
"html-keyboard-response","149","233300","0.0-10.0-0.60","60883a7e91c0be66dbb96fc8","650c16f0f2faf8d7a0d14c09","651c1baf2de14cda5ba971e4","null","null","<p style=""font-size: 60px; font-family: BACS"">AdDbOdOP</p>","","","","","","","","",""
"html-keyboard-response","150","234320","0.0-10.0-0.61","60883a7e91c0be66dbb96fc8","650c16f0f2faf8d7a0d14c09","651c1baf2de14cda5ba971e4","null","null","<p style=""font-size: 60px; font-family: BACS"">JdOAYmkc</p>","","","","","","","","",""
"html-keyboard-response","151","235326","0.0-10.0-0.62","60883a7e91c0be66dbb96fc8","650c16f0f2faf8d7a0d14c09","651c1baf2de14cda5ba971e4","null","null","<p style=""font-size: 60px; font-family: BACS"">TAdhMOdOP</p>","","","","","","","","",""
"html-keyboard-response","152","236331","0.0-10.0-0.63","60883a7e91c0be66dbb96fc8","650c16f0f2faf8d7a0d14c09","651c1baf2de14cda5ba971e4","null","null","<p style=""font-size: 60px; font-family: BACS"">UdYUQUdvY</p>","","","","","","","","",""
"html-keyboard-response","153","237334","0.0-10.0-0.64","60883a7e91c0be66dbb96fc8","650c16f0f2faf8d7a0d14c09","651c1baf2de14cda5ba971e4","null","null","<p style=""font-size: 60px; font-family: BACS"">dYdAdmRb</p>","","","","","","","","",""
"html-keyboard-response","154","238339","0.0-10.0-0.65","60883a7e91c0be66dbb96fc8","650c16f0f2faf8d7a0d14c09","651c1baf2de14cda5ba971e4","null","null","<p style=""font-size: 60px; font-family: BACS"">dOYmlOdOP</p>","","","","","","","","",""
"html-keyboard-response","155","239343","0.0-10.0-0.66","60883a7e91c0be66dbb96fc8","650c16f0f2faf8d7a0d14c09","651c1baf2de14cda5ba971e4","null","null","<p style=""font-size: 60px; font-family: BACS"">RtRhdmRb</p>","","","","","","","","",""
"html-keyboard-response","156","240345","0.0-10.0-0.67","60883a7e91c0be66dbb96fc8","650c16f0f2faf8d7a0d14c09","651c1baf2de14cda5ba971e4","null","null","<p style=""font-size: 60px; font-family: BACS"">kMbTRcDR</p>","","","","","","","","",""
"html-keyboard-response","157","241350","0.0-10.0-0.68","60883a7e91c0be66dbb96fc8","650c16f0f2faf8d7a0d14c09","651c1baf2de14cda5ba971e4","null","null","<p style=""font-size: 60px; font-family: BACS"">RtRhCPMl</p>","","","","","","","","",""
"html-keyboard-response","158","242351","0.0-10.0-0.69","60883a7e91c0be66dbb96fc8","650c16f0f2faf8d7a0d14c09","651c1baf2de14cda5ba971e4","null","null","<p style=""font-size: 60px; font-family: BACS"">DhMtPMYm</p>","","","","","","","","",""
"html-keyboard-response","159","243364","0.0-10.0-0.70","60883a7e91c0be66dbb96fc8","650c16f0f2faf8d7a0d14c09","651c1baf2de14cda5ba971e4","null","null","<p style=""font-size: 60px; font-family: BACS"">ukYZkmU</p>","","","","","","","","",""
"html-keyboard-response","160","244374","0.0-10.0-0.71","60883a7e91c0be66dbb96fc8","650c16f0f2faf8d7a0d14c09","651c1baf2de14cda5ba971e4","null","null","<p style=""font-size: 60px; font-family: BACS"">Udumdkam</p>","","","","","","","","",""
"html-keyboard-response","161","245382","0.0-10.0-0.72","60883a7e91c0be66dbb96fc8","650c16f0f2faf8d7a0d14c09","651c1baf2de14cda5ba971e4","null","null","<p style=""font-size: 60px; font-family: BACS"">DhMtOdOP</p>","","","","","","","","",""
"html-keyboard-response","162","246387","0.0-10.0-0.73","60883a7e91c0be66dbb96fc8","650c16f0f2faf8d7a0d14c09","651c1baf2de14cda5ba971e4","null","null","<p style=""font-size: 60px; font-family: BACS"">blMkCPMl</p>","","","","","","","","",""
"html-keyboard-response","163","247392","0.0-10.0-0.74","60883a7e91c0be66dbb96fc8","650c16f0f2faf8d7a0d14c09","651c1baf2de14cda5ba971e4","null","null","<p style=""font-size: 60px; font-family: BACS"">bvuZkmU</p>","","","","","","","","",""
"html-keyboard-response","164","248395","0.0-10.0-0.75","60883a7e91c0be66dbb96fc8","650c16f0f2faf8d7a0d14c09","651c1baf2de14cda5ba971e4","null","null","<p style=""font-size: 60px; font-family: BACS"">NvYJvUdm</p>","","","","","","","","",""
"html-keyboard-response","165","249400","0.0-10.0-0.76","60883a7e91c0be66dbb96fc8","650c16f0f2faf8d7a0d14c09","651c1baf2de14cda5ba971e4","null","null","<p style=""font-size: 60px; font-family: BACS"">blMkOdOP</p>","","","","","","","","",""
"html-keyboard-response","166","250403","0.0-10.0-0.77","60883a7e91c0be66dbb96fc8","650c16f0f2faf8d7a0d14c09","651c1baf2de14cda5ba971e4","null","null","<p style=""font-size: 60px; font-family: BACS"">NvYJmkc</p>","","","","","","","","",""
"html-keyboard-response","167","251410","0.0-10.0-0.78","60883a7e91c0be66dbb96fc8","650c16f0f2faf8d7a0d14c09","651c1baf2de14cda5ba971e4","null","null","<p style=""font-size: 60px; font-family: BACS"">bvuZkam</p>","","","","","","","","",""
"html-keyboard-response","168","252416","0.0-10.0-0.79","60883a7e91c0be66dbb96fc8","650c16f0f2faf8d7a0d14c09","651c1baf2de14cda5ba971e4","null","null","<p style=""font-size: 60px; font-family: BACS"">blMkdmRb</p>","","","","","","","","",""
"html-keyboard-response","169","257076","0.0-11.0","60883a7e91c0be66dbb96fc8","650c16f0f2faf8d7a0d14c09","651c1baf2de14cda5ba971e4","4659"," ","<p>Great, you've seen the second block of words. You may now take a short break.</p>
      <p>Press the spacebar when you're ready to continue.</p>","","","","","","","","",""
"html-keyboard-response","170","258091","0.0-12.0-0.0","60883a7e91c0be66dbb96fc8","650c16f0f2faf8d7a0d14c09","651c1baf2de14cda5ba971e4","null","null","<p style=""font-size: 60px; font-family: BACS"">bYuQUdvY</p>","","","","","","","","",""
"html-keyboard-response","171","259097","0.0-12.0-0.1","60883a7e91c0be66dbb96fc8","650c16f0f2faf8d7a0d14c09","651c1baf2de14cda5ba971e4","null","null","<p style=""font-size: 60px; font-family: BACS"">bvuZkam</p>","","","","","","","","",""
"html-keyboard-response","172","260116","0.0-12.0-0.2","60883a7e91c0be66dbb96fc8","650c16f0f2faf8d7a0d14c09","651c1baf2de14cda5ba971e4","null","null","<p style=""font-size: 60px; font-family: BACS"">UmNJvUdm</p>","","","","","","","","",""
"html-keyboard-response","173","261136","0.0-12.0-0.3","60883a7e91c0be66dbb96fc8","650c16f0f2faf8d7a0d14c09","651c1baf2de14cda5ba971e4","null","null","<p style=""font-size: 60px; font-family: BACS"">bvuZmkc</p>","","","","","","","","",""
"html-keyboard-response","174","262140","0.0-12.0-0.4","60883a7e91c0be66dbb96fc8","650c16f0f2faf8d7a0d14c09","651c1baf2de14cda5ba971e4","null","null","<p style=""font-size: 60px; font-family: BACS"">bYuQkmU</p>","","","","","","","","",""
"html-keyboard-response","175","263144","0.0-12.0-0.5","60883a7e91c0be66dbb96fc8","650c16f0f2faf8d7a0d14c09","651c1baf2de14cda5ba971e4","null","null","<p style=""font-size: 60px; font-family: BACS"">DhMtPMYm</p>","","","","","","","","",""
"html-keyboard-response","176","264149","0.0-12.0-0.6","60883a7e91c0be66dbb96fc8","650c16f0f2faf8d7a0d14c09","651c1baf2de14cda5ba971e4","null","null","<p style=""font-size: 60px; font-family: BACS"">UdYUQkam</p>","","","","","","","","",""
"html-keyboard-response","177","265153","0.0-12.0-0.7","60883a7e91c0be66dbb96fc8","650c16f0f2faf8d7a0d14c09","651c1baf2de14cda5ba971e4","null","null","<p style=""font-size: 60px; font-family: BACS"">RtRhcDR</p>","","","","","","","","",""
"html-keyboard-response","178","266159","0.0-12.0-0.8","60883a7e91c0be66dbb96fc8","650c16f0f2faf8d7a0d14c09","651c1baf2de14cda5ba971e4","null","null","<p style=""font-size: 60px; font-family: BACS"">dOYmlCPMl</p>","","","","","","","","",""
"html-keyboard-response","179","267162","0.0-12.0-0.9","60883a7e91c0be66dbb96fc8","650c16f0f2faf8d7a0d14c09","651c1baf2de14cda5ba971e4","null","null","<p style=""font-size: 60px; font-family: BACS"">UmNJkmU</p>","","","","","","","","",""
"html-keyboard-response","180","268167","0.0-12.0-0.10","60883a7e91c0be66dbb96fc8","650c16f0f2faf8d7a0d14c09","651c1baf2de14cda5ba971e4","null","null","<p style=""font-size: 60px; font-family: BACS"">kMbTRPMYm</p>","","","","","","","","",""
"html-keyboard-response","181","269188","0.0-12.0-0.11","60883a7e91c0be66dbb96fc8","650c16f0f2faf8d7a0d14c09","651c1baf2de14cda5ba971e4","null","null","<p style=""font-size: 60px; font-family: BACS"">TAdhMdmRb</p>","","","","","","","","",""
"html-keyboard-response","182","270191","0.0-12.0-0.12","60883a7e91c0be66dbb96fc8","650c16f0f2faf8d7a0d14c09","651c1baf2de14cda5ba971e4","null","null","<p style=""font-size: 60px; font-family: BACS"">YKRkOdOP</p>","","","","","","","","",""
"html-keyboard-response","183","271203","0.0-12.0-0.13","60883a7e91c0be66dbb96fc8","650c16f0f2faf8d7a0d14c09","651c1baf2de14cda5ba971e4","null","null","<p style=""font-size: 60px; font-family: BACS"">vQdOkmU</p>","","","","","","","","",""
"html-keyboard-response","184","272224","0.0-12.0-0.14","60883a7e91c0be66dbb96fc8","650c16f0f2faf8d7a0d14c09","651c1baf2de14cda5ba971e4","null","null","<p style=""font-size: 60px; font-family: BACS"">AdDbPMYm</p>","","","","","","","","",""
"html-keyboard-response","185","273228","0.0-12.0-0.15","60883a7e91c0be66dbb96fc8","650c16f0f2faf8d7a0d14c09","651c1baf2de14cda5ba971e4","null","null","<p style=""font-size: 60px; font-family: BACS"">RtRhOdOP</p>","","","","","","","","",""
"html-keyboard-response","186","274232","0.0-12.0-0.16","60883a7e91c0be66dbb96fc8","650c16f0f2faf8d7a0d14c09","651c1baf2de14cda5ba971e4","null","null","<p style=""font-size: 60px; font-family: BACS"">LuNZvUdm</p>","","","","","","","","",""
"html-keyboard-response","187","275239","0.0-12.0-0.17","60883a7e91c0be66dbb96fc8","650c16f0f2faf8d7a0d14c09","651c1baf2de14cda5ba971e4","null","null","<p style=""font-size: 60px; font-family: BACS"">RtRhCPMl</p>","","","","","","","","",""
"html-keyboard-response","188","276244","0.0-12.0-0.18","60883a7e91c0be66dbb96fc8","650c16f0f2faf8d7a0d14c09","651c1baf2de14cda5ba971e4","null","null","<p style=""font-size: 60px; font-family: BACS"">Udumdkam</p>","","","","","","","","",""
"html-keyboard-response","189","277248","0.0-12.0-0.19","60883a7e91c0be66dbb96fc8","650c16f0f2faf8d7a0d14c09","651c1baf2de14cda5ba971e4","null","null","<p style=""font-size: 60px; font-family: BACS"">blMkCPMl</p>","","","","","","","","",""
"html-keyboard-response","190","278250","0.0-12.0-0.20","60883a7e91c0be66dbb96fc8","650c16f0f2faf8d7a0d14c09","651c1baf2de14cda5ba971e4","null","null","<p style=""font-size: 60px; font-family: BACS"">kMbTRcDR</p>","","","","","","","","",""
"html-keyboard-response","191","279252","0.0-12.0-0.21","60883a7e91c0be66dbb96fc8","650c16f0f2faf8d7a0d14c09","651c1baf2de14cda5ba971e4","null","null","<p style=""font-size: 60px; font-family: BACS"">LuNZmkc</p>","","","","","","","","",""
"html-keyboard-response","192","280256","0.0-12.0-0.22","60883a7e91c0be66dbb96fc8","650c16f0f2faf8d7a0d14c09","651c1baf2de14cda5ba971e4","null","null","<p style=""font-size: 60px; font-family: BACS"">bYuQvUdm</p>","","","","","","","","",""
"html-keyboard-response","193","281264","0.0-12.0-0.23","60883a7e91c0be66dbb96fc8","650c16f0f2faf8d7a0d14c09","651c1baf2de14cda5ba971e4","null","null","<p style=""font-size: 60px; font-family: BACS"">UdYUQUdvY</p>","","","","","","","","",""
"html-keyboard-response","194","282286","0.0-12.0-0.24","60883a7e91c0be66dbb96fc8","650c16f0f2faf8d7a0d14c09","651c1baf2de14cda5ba971e4","null","null","<p style=""font-size: 60px; font-family: BACS"">AdDbdmRb</p>","","","","","","","","",""
"html-keyboard-response","195","283308","0.0-12.0-0.25","60883a7e91c0be66dbb96fc8","650c16f0f2faf8d7a0d14c09","651c1baf2de14cda5ba971e4","null","null","<p style=""font-size: 60px; font-family: BACS"">JdOAYkam</p>","","","","","","","","",""
"html-keyboard-response","196","284320","0.0-12.0-0.26","60883a7e91c0be66dbb96fc8","650c16f0f2faf8d7a0d14c09","651c1baf2de14cda5ba971e4","null","null","<p style=""font-size: 60px; font-family: BACS"">UdumdkmU</p>","","","","","","","","",""
"html-keyboard-response","197","285327","0.0-12.0-0.27","60883a7e91c0be66dbb96fc8","650c16f0f2faf8d7a0d14c09","651c1baf2de14cda5ba971e4","null","null","<p style=""font-size: 60px; font-family: BACS"">RCcEPMYm</p>","","","","","","","","",""
"html-keyboard-response","198","286332","0.0-12.0-0.28","60883a7e91c0be66dbb96fc8","650c16f0f2faf8d7a0d14c09","651c1baf2de14cda5ba971e4","null","null","<p style=""font-size: 60px; font-family: BACS"">UdYUQkmU</p>","","","","","","","","",""
"html-keyboard-response","199","287343","0.0-12.0-0.29","60883a7e91c0be66dbb96fc8","650c16f0f2faf8d7a0d14c09","651c1baf2de14cda5ba971e4","null","null","<p style=""font-size: 60px; font-family: BACS"">dOYmlPMYm</p>","","","","","","","","",""
"html-keyboard-response","200","288344","0.0-12.0-0.30","60883a7e91c0be66dbb96fc8","650c16f0f2faf8d7a0d14c09","651c1baf2de14cda5ba971e4","null","null","<p style=""font-size: 60px; font-family: BACS"">dYdAcDR</p>","","","","","","","","",""
"html-keyboard-response","201","289357","0.0-12.0-0.31","60883a7e91c0be66dbb96fc8","650c16f0f2faf8d7a0d14c09","651c1baf2de14cda5ba971e4","null","null","<p style=""font-size: 60px; font-family: BACS"">ukYZvUdm</p>","","","","","","","","",""
"html-keyboard-response","202","290361","0.0-12.0-0.32","60883a7e91c0be66dbb96fc8","650c16f0f2faf8d7a0d14c09","651c1baf2de14cda5ba971e4","null","null","<p style=""font-size: 60px; font-family: BACS"">YKRkdmRb</p>","","","","","","","","",""
"html-keyboard-response","203","291372","0.0-12.0-0.33","60883a7e91c0be66dbb96fc8","650c16f0f2faf8d7a0d14c09","651c1baf2de14cda5ba971e4","null","null","<p style=""font-size: 60px; font-family: BACS"">TAdhMPMYm</p>","","","","","","","","",""
"html-keyboard-response","204","292378","0.0-12.0-0.34","60883a7e91c0be66dbb96fc8","650c16f0f2faf8d7a0d14c09","651c1baf2de14cda5ba971e4","null","null","<p style=""font-size: 60px; font-family: BACS"">NvYJkam</p>","","","","","","","","",""
"html-keyboard-response","205","293383","0.0-12.0-0.35","60883a7e91c0be66dbb96fc8","650c16f0f2faf8d7a0d14c09","651c1baf2de14cda5ba971e4","null","null","<p style=""font-size: 60px; font-family: BACS"">kMbTROdOP</p>","","","","","","","","",""
"html-keyboard-response","206","294384","0.0-12.0-0.36","60883a7e91c0be66dbb96fc8","650c16f0f2faf8d7a0d14c09","651c1baf2de14cda5ba971e4","null","null","<p style=""font-size: 60px; font-family: BACS"">bvuZUdvY</p>","","","","","","","","",""
"html-keyboard-response","207","295399","0.0-12.0-0.37","60883a7e91c0be66dbb96fc8","650c16f0f2faf8d7a0d14c09","651c1baf2de14cda5ba971e4","null","null","<p style=""font-size: 60px; font-family: BACS"">RtRhdmRb</p>","","","","","","","","",""
"html-keyboard-response","208","296414","0.0-12.0-0.38","60883a7e91c0be66dbb96fc8","650c16f0f2faf8d7a0d14c09","651c1baf2de14cda5ba971e4","null","null","<p style=""font-size: 60px; font-family: BACS"">RCcEcDR</p>","","","","","","","","",""
"html-keyboard-response","209","297419","0.0-12.0-0.39","60883a7e91c0be66dbb96fc8","650c16f0f2faf8d7a0d14c09","651c1baf2de14cda5ba971e4","null","null","<p style=""font-size: 60px; font-family: BACS"">vQdOvUdm</p>","","","","","","","","",""
"html-keyboard-response","210","298432","0.0-12.0-0.40","60883a7e91c0be66dbb96fc8","650c16f0f2faf8d7a0d14c09","651c1baf2de14cda5ba971e4","null","null","<p style=""font-size: 60px; font-family: BACS"">dYdAPMYm</p>","","","","","","","","",""
"html-keyboard-response","211","299435","0.0-12.0-0.41","60883a7e91c0be66dbb96fc8","650c16f0f2faf8d7a0d14c09","651c1baf2de14cda5ba971e4","null","null","<p style=""font-size: 60px; font-family: BACS"">vQdOkam</p>","","","","","","","","",""
"html-keyboard-response","212","300453","0.0-12.0-0.42","60883a7e91c0be66dbb96fc8","650c16f0f2faf8d7a0d14c09","651c1baf2de14cda5ba971e4","null","null","<p style=""font-size: 60px; font-family: BACS"">NvYJUdvY</p>","","","","","","","","",""
"html-keyboard-response","213","301466","0.0-12.0-0.43","60883a7e91c0be66dbb96fc8","650c16f0f2faf8d7a0d14c09","651c1baf2de14cda5ba971e4","null","null","<p style=""font-size: 60px; font-family: BACS"">blMkcDR</p>","","","","","","","","",""
"html-keyboard-response","214","302479","0.0-12.0-0.44","60883a7e91c0be66dbb96fc8","650c16f0f2faf8d7a0d14c09","651c1baf2de14cda5ba971e4","null","null","<p style=""font-size: 60px; font-family: BACS"">ukYZmkc</p>","","","","","","","","",""
"html-keyboard-response","215","303489","0.0-12.0-0.45","60883a7e91c0be66dbb96fc8","650c16f0f2faf8d7a0d14c09","651c1baf2de14cda5ba971e4","null","null","<p style=""font-size: 60px; font-family: BACS"">dYdACPMl</p>","","","","","","","","",""
"html-keyboard-response","216","304506","0.0-12.0-0.46","60883a7e91c0be66dbb96fc8","650c16f0f2faf8d7a0d14c09","651c1baf2de14cda5ba971e4","null","null","<p style=""font-size: 60px; font-family: BACS"">UdumdvUdm</p>","","","","","","","","",""
"html-keyboard-response","217","305526","0.0-12.0-0.47","60883a7e91c0be66dbb96fc8","650c16f0f2faf8d7a0d14c09","651c1baf2de14cda5ba971e4","null","null","<p style=""font-size: 60px; font-family: BACS"">blMkdmRb</p>","","","","","","","","",""
"html-keyboard-response","218","306530","0.0-12.0-0.48","60883a7e91c0be66dbb96fc8","650c16f0f2faf8d7a0d14c09","651c1baf2de14cda5ba971e4","null","null","<p style=""font-size: 60px; font-family: BACS"">DhMtcDR</p>","","","","","","","","",""
"html-keyboard-response","219","307535","0.0-12.0-0.49","60883a7e91c0be66dbb96fc8","650c16f0f2faf8d7a0d14c09","651c1baf2de14cda5ba971e4","null","null","<p style=""font-size: 60px; font-family: BACS"">kMbTRCPMl</p>","","","","","","","","",""
"html-keyboard-response","220","308539","0.0-12.0-0.50","60883a7e91c0be66dbb96fc8","650c16f0f2faf8d7a0d14c09","651c1baf2de14cda5ba971e4","null","null","<p style=""font-size: 60px; font-family: BACS"">ukYZkmU</p>","","","","","","","","",""
"html-keyboard-response","221","309543","0.0-12.0-0.51","60883a7e91c0be66dbb96fc8","650c16f0f2faf8d7a0d14c09","651c1baf2de14cda5ba971e4","null","null","<p style=""font-size: 60px; font-family: BACS"">bYuQmkc</p>","","","","","","","","",""
"html-keyboard-response","222","310545","0.0-12.0-0.52","60883a7e91c0be66dbb96fc8","650c16f0f2faf8d7a0d14c09","651c1baf2de14cda5ba971e4","null","null","<p style=""font-size: 60px; font-family: BACS"">dOYmldmRb</p>","","","","","","","","",""
"html-keyboard-response","223","311558","0.0-12.0-0.53","60883a7e91c0be66dbb96fc8","650c16f0f2faf8d7a0d14c09","651c1baf2de14cda5ba971e4","null","null","<p style=""font-size: 60px; font-family: BACS"">NvYJvUdm</p>","","","","","","","","",""
"html-keyboard-response","224","312576","0.0-12.0-0.54","60883a7e91c0be66dbb96fc8","650c16f0f2faf8d7a0d14c09","651c1baf2de14cda5ba971e4","null","null","<p style=""font-size: 60px; font-family: BACS"">vQdOUdvY</p>","","","","","","","","",""
"html-keyboard-response","225","313579","0.0-12.0-0.55","60883a7e91c0be66dbb96fc8","650c16f0f2faf8d7a0d14c09","651c1baf2de14cda5ba971e4","null","null","<p style=""font-size: 60px; font-family: BACS"">bvuZkmU</p>","","","","","","","","",""
"html-keyboard-response","226","314585","0.0-12.0-0.56","60883a7e91c0be66dbb96fc8","650c16f0f2faf8d7a0d14c09","651c1baf2de14cda5ba971e4","null","null","<p style=""font-size: 60px; font-family: BACS"">DhMtCPMl</p>","","","","","","","","",""
"html-keyboard-response","227","315603","0.0-12.0-0.57","60883a7e91c0be66dbb96fc8","650c16f0f2faf8d7a0d14c09","651c1baf2de14cda5ba971e4","null","null","<p style=""font-size: 60px; font-family: BACS"">ukYZkam</p>","","","","","","","","",""
"html-keyboard-response","228","316606","0.0-12.0-0.58","60883a7e91c0be66dbb96fc8","650c16f0f2faf8d7a0d14c09","651c1baf2de14cda5ba971e4","null","null","<p style=""font-size: 60px; font-family: BACS"">YKRkPMYm</p>","","","","","","","","",""
"html-keyboard-response","229","317617","0.0-12.0-0.59","60883a7e91c0be66dbb96fc8","650c16f0f2faf8d7a0d14c09","651c1baf2de14cda5ba971e4","null","null","<p style=""font-size: 60px; font-family: BACS"">UmNJmkc</p>","","","","","","","","",""
"html-keyboard-response","230","318633","0.0-12.0-0.60","60883a7e91c0be66dbb96fc8","650c16f0f2faf8d7a0d14c09","651c1baf2de14cda5ba971e4","null","null","<p style=""font-size: 60px; font-family: BACS"">RCcEdmRb</p>","","","","","","","","",""
"html-keyboard-response","231","319642","0.0-12.0-0.61","60883a7e91c0be66dbb96fc8","650c16f0f2faf8d7a0d14c09","651c1baf2de14cda5ba971e4","null","null","<p style=""font-size: 60px; font-family: BACS"">NvYJmkc</p>","","","","","","","","",""
"html-keyboard-response","232","320654","0.0-12.0-0.62","60883a7e91c0be66dbb96fc8","650c16f0f2faf8d7a0d14c09","651c1baf2de14cda5ba971e4","null","null","<p style=""font-size: 60px; font-family: BACS"">AdDbOdOP</p>","","","","","","","","",""
"html-keyboard-response","233","321656","0.0-12.0-0.63","60883a7e91c0be66dbb96fc8","650c16f0f2faf8d7a0d14c09","651c1baf2de14cda5ba971e4","null","null","<p style=""font-size: 60px; font-family: BACS"">JdOAYmkc</p>","","","","","","","","",""
"html-keyboard-response","234","322665","0.0-12.0-0.64","60883a7e91c0be66dbb96fc8","650c16f0f2faf8d7a0d14c09","651c1baf2de14cda5ba971e4","null","null","<p style=""font-size: 60px; font-family: BACS"">UdumdUdvY</p>","","","","","","","","",""
"html-keyboard-response","235","323666","0.0-12.0-0.65","60883a7e91c0be66dbb96fc8","650c16f0f2faf8d7a0d14c09","651c1baf2de14cda5ba971e4","null","null","<p style=""font-size: 60px; font-family: BACS"">DhMtOdOP</p>","","","","","","","","",""
"html-keyboard-response","236","324675","0.0-12.0-0.66","60883a7e91c0be66dbb96fc8","650c16f0f2faf8d7a0d14c09","651c1baf2de14cda5ba971e4","null","null","<p style=""font-size: 60px; font-family: BACS"">RCcECPMl</p>","","","","","","","","",""
"html-keyboard-response","237","325691","0.0-12.0-0.67","60883a7e91c0be66dbb96fc8","650c16f0f2faf8d7a0d14c09","651c1baf2de14cda5ba971e4","null","null","<p style=""font-size: 60px; font-family: BACS"">blMkOdOP</p>","","","","","","","","",""
"html-keyboard-response","238","326704","0.0-12.0-0.68","60883a7e91c0be66dbb96fc8","650c16f0f2faf8d7a0d14c09","651c1baf2de14cda5ba971e4","null","null","<p style=""font-size: 60px; font-family: BACS"">JdOAYvUdm</p>","","","","","","","","",""
"html-keyboard-response","239","327709","0.0-12.0-0.69","60883a7e91c0be66dbb96fc8","650c16f0f2faf8d7a0d14c09","651c1baf2de14cda5ba971e4","null","null","<p style=""font-size: 60px; font-family: BACS"">AdDbcDR</p>","","","","","","","","",""
"html-keyboard-response","240","328714","0.0-12.0-0.70","60883a7e91c0be66dbb96fc8","650c16f0f2faf8d7a0d14c09","651c1baf2de14cda5ba971e4","null","null","<p style=""font-size: 60px; font-family: BACS"">LuNZkmU</p>","","","","","","","","",""
"html-keyboard-response","241","329721","0.0-12.0-0.71","60883a7e91c0be66dbb96fc8","650c16f0f2faf8d7a0d14c09","651c1baf2de14cda5ba971e4","null","null","<p style=""font-size: 60px; font-family: BACS"">dYdAdmRb</p>","","","","","","","","",""
"html-keyboard-response","242","330728","0.0-12.0-0.72","60883a7e91c0be66dbb96fc8","650c16f0f2faf8d7a0d14c09","651c1baf2de14cda5ba971e4","null","null","<p style=""font-size: 60px; font-family: BACS"">TAdhMCPMl</p>","","","","","","","","",""
"html-keyboard-response","243","331734","0.0-12.0-0.73","60883a7e91c0be66dbb96fc8","650c16f0f2faf8d7a0d14c09","651c1baf2de14cda5ba971e4","null","null","<p style=""font-size: 60px; font-family: BACS"">dOYmlOdOP</p>","","","","","","","","",""
"html-keyboard-response","244","332740","0.0-12.0-0.74","60883a7e91c0be66dbb96fc8","650c16f0f2faf8d7a0d14c09","651c1baf2de14cda5ba971e4","null","null","<p style=""font-size: 60px; font-family: BACS"">UdYUQmkc</p>","","","","","","","","",""
"html-keyboard-response","245","333745","0.0-12.0-0.75","60883a7e91c0be66dbb96fc8","650c16f0f2faf8d7a0d14c09","651c1baf2de14cda5ba971e4","null","null","<p style=""font-size: 60px; font-family: BACS"">JdOAYUdvY</p>","","","","","","","","",""
"html-keyboard-response","246","334750","0.0-12.0-0.76","60883a7e91c0be66dbb96fc8","650c16f0f2faf8d7a0d14c09","651c1baf2de14cda5ba971e4","null","null","<p style=""font-size: 60px; font-family: BACS"">UmNJkam</p>","","","","","","","","",""
"html-keyboard-response","247","335756","0.0-12.0-0.77","60883a7e91c0be66dbb96fc8","650c16f0f2faf8d7a0d14c09","651c1baf2de14cda5ba971e4","null","null","<p style=""font-size: 60px; font-family: BACS"">LuNZUdvY</p>","","","","","","","","",""
"html-keyboard-response","248","336763","0.0-12.0-0.78","60883a7e91c0be66dbb96fc8","650c16f0f2faf8d7a0d14c09","651c1baf2de14cda5ba971e4","null","null","<p style=""font-size: 60px; font-family: BACS"">TAdhMOdOP</p>","","","","","","","","",""
"html-keyboard-response","249","337769","0.0-12.0-0.79","60883a7e91c0be66dbb96fc8","650c16f0f2faf8d7a0d14c09","651c1baf2de14cda5ba971e4","null","null","<p style=""font-size: 60px; font-family: BACS"">YKRkcDR</p>","","","","","","","","",""
"html-keyboard-response","250","345323","0.0-13.0","60883a7e91c0be66dbb96fc8","650c16f0f2faf8d7a0d14c09","651c1baf2de14cda5ba971e4","7553"," ","<p>Great, you've seen the third block of words. You may now take a short break.</p>
      <p>Press the spacebar when you're ready to continue.</p>","","","","","","","","",""
"html-keyboard-response","251","346329","0.0-14.0-0.0","60883a7e91c0be66dbb96fc8","650c16f0f2faf8d7a0d14c09","651c1baf2de14cda5ba971e4","null","null","<p style=""font-size: 60px; font-family: BACS"">UdYUQkmU</p>","","","","","","","","",""
"html-keyboard-response","252","347332","0.0-14.0-0.1","60883a7e91c0be66dbb96fc8","650c16f0f2faf8d7a0d14c09","651c1baf2de14cda5ba971e4","null","null","<p style=""font-size: 60px; font-family: BACS"">RCcEPMYm</p>","","","","","","","","",""
"html-keyboard-response","253","348352","0.0-14.0-0.2","60883a7e91c0be66dbb96fc8","650c16f0f2faf8d7a0d14c09","651c1baf2de14cda5ba971e4","null","null","<p style=""font-size: 60px; font-family: BACS"">NvYJvUdm</p>","","","","","","","","",""
"html-keyboard-response","254","349356","0.0-14.0-0.3","60883a7e91c0be66dbb96fc8","650c16f0f2faf8d7a0d14c09","651c1baf2de14cda5ba971e4","null","null","<p style=""font-size: 60px; font-family: BACS"">AdDbOdOP</p>","","","","","","","","",""
"html-keyboard-response","255","350358","0.0-14.0-0.4","60883a7e91c0be66dbb96fc8","650c16f0f2faf8d7a0d14c09","651c1baf2de14cda5ba971e4","null","null","<p style=""font-size: 60px; font-family: BACS"">UmNJmkc</p>","","","","","","","","",""
"html-keyboard-response","256","351362","0.0-14.0-0.5","60883a7e91c0be66dbb96fc8","650c16f0f2faf8d7a0d14c09","651c1baf2de14cda5ba971e4","null","null","<p style=""font-size: 60px; font-family: BACS"">TAdhMdmRb</p>","","","","","","","","",""
"html-keyboard-response","257","352369","0.0-14.0-0.6","60883a7e91c0be66dbb96fc8","650c16f0f2faf8d7a0d14c09","651c1baf2de14cda5ba971e4","null","null","<p style=""font-size: 60px; font-family: BACS"">bYuQvUdm</p>","","","","","","","","",""
"html-keyboard-response","258","353373","0.0-14.0-0.7","60883a7e91c0be66dbb96fc8","650c16f0f2faf8d7a0d14c09","651c1baf2de14cda5ba971e4","null","null","<p style=""font-size: 60px; font-family: BACS"">JdOAYUdvY</p>","","","","","","","","",""
"html-keyboard-response","259","354378","0.0-14.0-0.8","60883a7e91c0be66dbb96fc8","650c16f0f2faf8d7a0d14c09","651c1baf2de14cda5ba971e4","null","null","<p style=""font-size: 60px; font-family: BACS"">blMkdmRb</p>","","","","","","","","",""
"html-keyboard-response","260","355382","0.0-14.0-0.9","60883a7e91c0be66dbb96fc8","650c16f0f2faf8d7a0d14c09","651c1baf2de14cda5ba971e4","null","null","<p style=""font-size: 60px; font-family: BACS"">RtRhOdOP</p>","","","","","","","","",""
"html-keyboard-response","261","356385","0.0-14.0-0.10","60883a7e91c0be66dbb96fc8","650c16f0f2faf8d7a0d14c09","651c1baf2de14cda5ba971e4","null","null","<p style=""font-size: 60px; font-family: BACS"">DhMtcDR</p>","","","","","","","","",""
"html-keyboard-response","262","357390","0.0-14.0-0.11","60883a7e91c0be66dbb96fc8","650c16f0f2faf8d7a0d14c09","651c1baf2de14cda5ba971e4","null","null","<p style=""font-size: 60px; font-family: BACS"">kMbTRCPMl</p>","","","","","","","","",""
"html-keyboard-response","263","358397","0.0-14.0-0.12","60883a7e91c0be66dbb96fc8","650c16f0f2faf8d7a0d14c09","651c1baf2de14cda5ba971e4","null","null","<p style=""font-size: 60px; font-family: BACS"">AdDbcDR</p>","","","","","","","","",""
"html-keyboard-response","264","359403","0.0-14.0-0.13","60883a7e91c0be66dbb96fc8","650c16f0f2faf8d7a0d14c09","651c1baf2de14cda5ba971e4","null","null","<p style=""font-size: 60px; font-family: BACS"">bYuQkmU</p>","","","","","","","","",""
"html-keyboard-response","265","360406","0.0-14.0-0.14","60883a7e91c0be66dbb96fc8","650c16f0f2faf8d7a0d14c09","651c1baf2de14cda5ba971e4","null","null","<p style=""font-size: 60px; font-family: BACS"">kMbTRcDR</p>","","","","","","","","",""
"html-keyboard-response","266","361410","0.0-14.0-0.15","60883a7e91c0be66dbb96fc8","650c16f0f2faf8d7a0d14c09","651c1baf2de14cda5ba971e4","null","null","<p style=""font-size: 60px; font-family: BACS"">YKRkdmRb</p>","","","","","","","","",""
"html-keyboard-response","267","362415","0.0-14.0-0.16","60883a7e91c0be66dbb96fc8","650c16f0f2faf8d7a0d14c09","651c1baf2de14cda5ba971e4","null","null","<p style=""font-size: 60px; font-family: BACS"">JdOAYmkc</p>","","","","","","","","",""
"html-keyboard-response","268","363428","0.0-14.0-0.17","60883a7e91c0be66dbb96fc8","650c16f0f2faf8d7a0d14c09","651c1baf2de14cda5ba971e4","null","null","<p style=""font-size: 60px; font-family: BACS"">NvYJUdvY</p>","","","","","","","","",""
"html-keyboard-response","269","364440","0.0-14.0-0.18","60883a7e91c0be66dbb96fc8","650c16f0f2faf8d7a0d14c09","651c1baf2de14cda5ba971e4","null","null","<p style=""font-size: 60px; font-family: BACS"">RtRhdmRb</p>","","","","","","","","",""
"html-keyboard-response","270","365444","0.0-14.0-0.19","60883a7e91c0be66dbb96fc8","650c16f0f2faf8d7a0d14c09","651c1baf2de14cda5ba971e4","null","null","<p style=""font-size: 60px; font-family: BACS"">blMkCPMl</p>","","","","","","","","",""
"html-keyboard-response","271","366465","0.0-14.0-0.20","60883a7e91c0be66dbb96fc8","650c16f0f2faf8d7a0d14c09","651c1baf2de14cda5ba971e4","null","null","<p style=""font-size: 60px; font-family: BACS"">vQdOUdvY</p>","","","","","","","","",""
"html-keyboard-response","272","367469","0.0-14.0-0.21","60883a7e91c0be66dbb96fc8","650c16f0f2faf8d7a0d14c09","651c1baf2de14cda5ba971e4","null","null","<p style=""font-size: 60px; font-family: BACS"">YKRkOdOP</p>","","","","","","","","",""
"html-keyboard-response","273","368487","0.0-14.0-0.22","60883a7e91c0be66dbb96fc8","650c16f0f2faf8d7a0d14c09","651c1baf2de14cda5ba971e4","null","null","<p style=""font-size: 60px; font-family: BACS"">LuNZmkc</p>","","","","","","","","",""
"html-keyboard-response","274","369494","0.0-14.0-0.23","60883a7e91c0be66dbb96fc8","650c16f0f2faf8d7a0d14c09","651c1baf2de14cda5ba971e4","null","null","<p style=""font-size: 60px; font-family: BACS"">YKRkcDR</p>","","","","","","","","",""
"html-keyboard-response","275","370501","0.0-14.0-0.24","60883a7e91c0be66dbb96fc8","650c16f0f2faf8d7a0d14c09","651c1baf2de14cda5ba971e4","null","null","<p style=""font-size: 60px; font-family: BACS"">DhMtCPMl</p>","","","","","","","","",""
"html-keyboard-response","276","371505","0.0-14.0-0.25","60883a7e91c0be66dbb96fc8","650c16f0f2faf8d7a0d14c09","651c1baf2de14cda5ba971e4","null","null","<p style=""font-size: 60px; font-family: BACS"">blMkOdOP</p>","","","","","","","","",""
"html-keyboard-response","277","372509","0.0-14.0-0.26","60883a7e91c0be66dbb96fc8","650c16f0f2faf8d7a0d14c09","651c1baf2de14cda5ba971e4","null","null","<p style=""font-size: 60px; font-family: BACS"">dYdAcDR</p>","","","","","","","","",""
"html-keyboard-response","278","373513","0.0-14.0-0.27","60883a7e91c0be66dbb96fc8","650c16f0f2faf8d7a0d14c09","651c1baf2de14cda5ba971e4","null","null","<p style=""font-size: 60px; font-family: BACS"">bvuZUdvY</p>","","","","","","","","",""
"html-keyboard-response","279","374516","0.0-14.0-0.28","60883a7e91c0be66dbb96fc8","650c16f0f2faf8d7a0d14c09","651c1baf2de14cda5ba971e4","null","null","<p style=""font-size: 60px; font-family: BACS"">UdYUQmkc</p>","","","","","","","","",""
"html-keyboard-response","280","375521","0.0-14.0-0.29","60883a7e91c0be66dbb96fc8","650c16f0f2faf8d7a0d14c09","651c1baf2de14cda5ba971e4","null","null","<p style=""font-size: 60px; font-family: BACS"">ukYZvUdm</p>","","","","","","","","",""
"html-keyboard-response","281","376524","0.0-14.0-0.30","60883a7e91c0be66dbb96fc8","650c16f0f2faf8d7a0d14c09","651c1baf2de14cda5ba971e4","null","null","<p style=""font-size: 60px; font-family: BACS"">UdumdUdvY</p>","","","","","","","","",""
"html-keyboard-response","282","377530","0.0-14.0-0.31","60883a7e91c0be66dbb96fc8","650c16f0f2faf8d7a0d14c09","651c1baf2de14cda5ba971e4","null","null","<p style=""font-size: 60px; font-family: BACS"">LuNZkmU</p>","","","","","","","","",""
"html-keyboard-response","283","378534","0.0-14.0-0.32","60883a7e91c0be66dbb96fc8","650c16f0f2faf8d7a0d14c09","651c1baf2de14cda5ba971e4","null","null","<p style=""font-size: 60px; font-family: BACS"">dOYmlOdOP</p>","","","","","","","","",""
"html-keyboard-response","284","379540","0.0-14.0-0.33","60883a7e91c0be66dbb96fc8","650c16f0f2faf8d7a0d14c09","651c1baf2de14cda5ba971e4","null","null","<p style=""font-size: 60px; font-family: BACS"">bYuQUdvY</p>","","","","","","","","",""
"html-keyboard-response","285","380546","0.0-14.0-0.34","60883a7e91c0be66dbb96fc8","650c16f0f2faf8d7a0d14c09","651c1baf2de14cda5ba971e4","null","null","<p style=""font-size: 60px; font-family: BACS"">bvuZmkc</p>","","","","","","","","",""
"html-keyboard-response","286","381550","0.0-14.0-0.35","60883a7e91c0be66dbb96fc8","650c16f0f2faf8d7a0d14c09","651c1baf2de14cda5ba971e4","null","null","<p style=""font-size: 60px; font-family: BACS"">RtRhCPMl</p>","","","","","","","","",""
"html-keyboard-response","287","382554","0.0-14.0-0.36","60883a7e91c0be66dbb96fc8","650c16f0f2faf8d7a0d14c09","651c1baf2de14cda5ba971e4","null","null","<p style=""font-size: 60px; font-family: BACS"">vQdOkmU</p>","","","","","","","","",""
"html-keyboard-response","288","383559","0.0-14.0-0.37","60883a7e91c0be66dbb96fc8","650c16f0f2faf8d7a0d14c09","651c1baf2de14cda5ba971e4","null","null","<p style=""font-size: 60px; font-family: BACS"">NvYJkam</p>","","","","","","","","",""
"html-keyboard-response","289","384564","0.0-14.0-0.38","60883a7e91c0be66dbb96fc8","650c16f0f2faf8d7a0d14c09","651c1baf2de14cda5ba971e4","null","null","<p style=""font-size: 60px; font-family: BACS"">DhMtOdOP</p>","","","","","","","","",""
"html-keyboard-response","290","385567","0.0-14.0-0.39","60883a7e91c0be66dbb96fc8","650c16f0f2faf8d7a0d14c09","651c1baf2de14cda5ba971e4","null","null","<p style=""font-size: 60px; font-family: BACS"">bvuZkam</p>","","","","","","","","",""
"html-keyboard-response","291","386573","0.0-14.0-0.40","60883a7e91c0be66dbb96fc8","650c16f0f2faf8d7a0d14c09","651c1baf2de14cda5ba971e4","null","null","<p style=""font-size: 60px; font-family: BACS"">UdumdkmU</p>","","","","","","","","",""
"html-keyboard-response","292","387577","0.0-14.0-0.41","60883a7e91c0be66dbb96fc8","650c16f0f2faf8d7a0d14c09","651c1baf2de14cda5ba971e4","null","null","<p style=""font-size: 60px; font-family: BACS"">RCcEcDR</p>","","","","","","","","",""
"html-keyboard-response","293","388580","0.0-14.0-0.42","60883a7e91c0be66dbb96fc8","650c16f0f2faf8d7a0d14c09","651c1baf2de14cda5ba971e4","null","null","<p style=""font-size: 60px; font-family: BACS"">NvYJmkc</p>","","","","","","","","",""
"html-keyboard-response","294","389581","0.0-14.0-0.43","60883a7e91c0be66dbb96fc8","650c16f0f2faf8d7a0d14c09","651c1baf2de14cda5ba971e4","null","null","<p style=""font-size: 60px; font-family: BACS"">vQdOvUdm</p>","","","","","","","","",""
"html-keyboard-response","295","390586","0.0-14.0-0.44","60883a7e91c0be66dbb96fc8","650c16f0f2faf8d7a0d14c09","651c1baf2de14cda5ba971e4","null","null","<p style=""font-size: 60px; font-family: BACS"">kMbTROdOP</p>","","","","","","","","",""
"html-keyboard-response","296","391590","0.0-14.0-0.45","60883a7e91c0be66dbb96fc8","650c16f0f2faf8d7a0d14c09","651c1baf2de14cda5ba971e4","null","null","<p style=""font-size: 60px; font-family: BACS"">UdYUQUdvY</p>","","","","","","","","",""
"html-keyboard-response","297","392597","0.0-14.0-0.46","60883a7e91c0be66dbb96fc8","650c16f0f2faf8d7a0d14c09","651c1baf2de14cda5ba971e4","null","null","<p style=""font-size: 60px; font-family: BACS"">AdDbPMYm</p>","","","","","","","","",""
"html-keyboard-response","298","393605","0.0-14.0-0.47","60883a7e91c0be66dbb96fc8","650c16f0f2faf8d7a0d14c09","651c1baf2de14cda5ba971e4","null","null","<p style=""font-size: 60px; font-family: BACS"">RtRhcDR</p>","","","","","","","","",""
"html-keyboard-response","299","394613","0.0-14.0-0.48","60883a7e91c0be66dbb96fc8","650c16f0f2faf8d7a0d14c09","651c1baf2de14cda5ba971e4","null","null","<p style=""font-size: 60px; font-family: BACS"">DhMtPMYm</p>","","","","","","","","",""
"html-keyboard-response","300","395619","0.0-14.0-0.49","60883a7e91c0be66dbb96fc8","650c16f0f2faf8d7a0d14c09","651c1baf2de14cda5ba971e4","null","null","<p style=""font-size: 60px; font-family: BACS"">dYdAdmRb</p>","","","","","","","","",""
"html-keyboard-response","301","396627","0.0-14.0-0.50","60883a7e91c0be66dbb96fc8","650c16f0f2faf8d7a0d14c09","651c1baf2de14cda5ba971e4","null","null","<p style=""font-size: 60px; font-family: BACS"">LuNZUdvY</p>","","","","","","","","",""
"html-keyboard-response","302","397635","0.0-14.0-0.51","60883a7e91c0be66dbb96fc8","650c16f0f2faf8d7a0d14c09","651c1baf2de14cda5ba971e4","null","null","<p style=""font-size: 60px; font-family: BACS"">UmNJkam</p>","","","","","","","","",""
"html-keyboard-response","303","398643","0.0-14.0-0.52","60883a7e91c0be66dbb96fc8","650c16f0f2faf8d7a0d14c09","651c1baf2de14cda5ba971e4","null","null","<p style=""font-size: 60px; font-family: BACS"">TAdhMPMYm</p>","","","","","","","","",""
"html-keyboard-response","304","399651","0.0-14.0-0.53","60883a7e91c0be66dbb96fc8","650c16f0f2faf8d7a0d14c09","651c1baf2de14cda5ba971e4","null","null","<p style=""font-size: 60px; font-family: BACS"">Udumdkam</p>","","","","","","","","",""
"html-keyboard-response","305","400658","0.0-14.0-0.54","60883a7e91c0be66dbb96fc8","650c16f0f2faf8d7a0d14c09","651c1baf2de14cda5ba971e4","null","null","<p style=""font-size: 60px; font-family: BACS"">LuNZvUdm</p>","","","","","","","","",""
"html-keyboard-response","306","401664","0.0-14.0-0.55","60883a7e91c0be66dbb96fc8","650c16f0f2faf8d7a0d14c09","651c1baf2de14cda5ba971e4","null","null","<p style=""font-size: 60px; font-family: BACS"">ukYZkam</p>","","","","","","","","",""
"html-keyboard-response","307","402666","0.0-14.0-0.56","60883a7e91c0be66dbb96fc8","650c16f0f2faf8d7a0d14c09","651c1baf2de14cda5ba971e4","null","null","<p style=""font-size: 60px; font-family: BACS"">blMkcDR</p>","","","","","","","","",""
"html-keyboard-response","308","403668","0.0-14.0-0.57","60883a7e91c0be66dbb96fc8","650c16f0f2faf8d7a0d14c09","651c1baf2de14cda5ba971e4","null","null","<p style=""font-size: 60px; font-family: BACS"">dOYmlCPMl</p>","","","","","","","","",""
"html-keyboard-response","309","404672","0.0-14.0-0.58","60883a7e91c0be66dbb96fc8","650c16f0f2faf8d7a0d14c09","651c1baf2de14cda5ba971e4","null","null","<p style=""font-size: 60px; font-family: BACS"">UdYUQkam</p>","","","","","","","","",""
"html-keyboard-response","310","405680","0.0-14.0-0.59","60883a7e91c0be66dbb96fc8","650c16f0f2faf8d7a0d14c09","651c1baf2de14cda5ba971e4","null","null","<p style=""font-size: 60px; font-family: BACS"">AdDbdmRb</p>","","","","","","","","",""
"html-keyboard-response","311","406686","0.0-14.0-0.60","60883a7e91c0be66dbb96fc8","650c16f0f2faf8d7a0d14c09","651c1baf2de14cda5ba971e4","null","null","<p style=""font-size: 60px; font-family: BACS"">UdumdvUdm</p>","","","","","","","","",""
"html-keyboard-response","312","407692","0.0-14.0-0.61","60883a7e91c0be66dbb96fc8","650c16f0f2faf8d7a0d14c09","651c1baf2de14cda5ba971e4","null","null","<p style=""font-size: 60px; font-family: BACS"">ukYZmkc</p>","","","","","","","","",""
"html-keyboard-response","313","408700","0.0-14.0-0.62","60883a7e91c0be66dbb96fc8","650c16f0f2faf8d7a0d14c09","651c1baf2de14cda5ba971e4","null","null","<p style=""font-size: 60px; font-family: BACS"">TAdhMCPMl</p>","","","","","","","","",""
"html-keyboard-response","314","409708","0.0-14.0-0.63","60883a7e91c0be66dbb96fc8","650c16f0f2faf8d7a0d14c09","651c1baf2de14cda5ba971e4","null","null","<p style=""font-size: 60px; font-family: BACS"">UmNJkmU</p>","","","","","","","","",""
"html-keyboard-response","315","410714","0.0-14.0-0.64","60883a7e91c0be66dbb96fc8","650c16f0f2faf8d7a0d14c09","651c1baf2de14cda5ba971e4","null","null","<p style=""font-size: 60px; font-family: BACS"">bYuQmkc</p>","","","","","","","","",""
"html-keyboard-response","316","411723","0.0-14.0-0.65","60883a7e91c0be66dbb96fc8","650c16f0f2faf8d7a0d14c09","651c1baf2de14cda5ba971e4","null","null","<p style=""font-size: 60px; font-family: BACS"">dOYmldmRb</p>","","","","","","","","",""
"html-keyboard-response","317","412729","0.0-14.0-0.66","60883a7e91c0be66dbb96fc8","650c16f0f2faf8d7a0d14c09","651c1baf2de14cda5ba971e4","null","null","<p style=""font-size: 60px; font-family: BACS"">TAdhMOdOP</p>","","","","","","","","",""
"html-keyboard-response","318","413737","0.0-14.0-0.67","60883a7e91c0be66dbb96fc8","650c16f0f2faf8d7a0d14c09","651c1baf2de14cda5ba971e4","null","null","<p style=""font-size: 60px; font-family: BACS"">dYdACPMl</p>","","","","","","","","",""
"html-keyboard-response","319","414746","0.0-14.0-0.68","60883a7e91c0be66dbb96fc8","650c16f0f2faf8d7a0d14c09","651c1baf2de14cda5ba971e4","null","null","<p style=""font-size: 60px; font-family: BACS"">JdOAYvUdm</p>","","","","","","","","",""
"html-keyboard-response","320","415755","0.0-14.0-0.69","60883a7e91c0be66dbb96fc8","650c16f0f2faf8d7a0d14c09","651c1baf2de14cda5ba971e4","null","null","<p style=""font-size: 60px; font-family: BACS"">YKRkPMYm</p>","","","","","","","","",""
"html-keyboard-response","321","416764","0.0-14.0-0.70","60883a7e91c0be66dbb96fc8","650c16f0f2faf8d7a0d14c09","651c1baf2de14cda5ba971e4","null","null","<p style=""font-size: 60px; font-family: BACS"">RCcECPMl</p>","","","","","","","","",""
"html-keyboard-response","322","417773","0.0-14.0-0.71","60883a7e91c0be66dbb96fc8","650c16f0f2faf8d7a0d14c09","651c1baf2de14cda5ba971e4","null","null","<p style=""font-size: 60px; font-family: BACS"">JdOAYkam</p>","","","","","","","","",""
"html-keyboard-response","323","418781","0.0-14.0-0.72","60883a7e91c0be66dbb96fc8","650c16f0f2faf8d7a0d14c09","651c1baf2de14cda5ba971e4","null","null","<p style=""font-size: 60px; font-family: BACS"">bvuZkmU</p>","","","","","","","","",""
"html-keyboard-response","324","419789","0.0-14.0-0.73","60883a7e91c0be66dbb96fc8","650c16f0f2faf8d7a0d14c09","651c1baf2de14cda5ba971e4","null","null","<p style=""font-size: 60px; font-family: BACS"">dOYmlPMYm</p>","","","","","","","","",""
"html-keyboard-response","325","420794","0.0-14.0-0.74","60883a7e91c0be66dbb96fc8","650c16f0f2faf8d7a0d14c09","651c1baf2de14cda5ba971e4","null","null","<p style=""font-size: 60px; font-family: BACS"">ukYZkmU</p>","","","","","","","","",""
"html-keyboard-response","326","421802","0.0-14.0-0.75","60883a7e91c0be66dbb96fc8","650c16f0f2faf8d7a0d14c09","651c1baf2de14cda5ba971e4","null","null","<p style=""font-size: 60px; font-family: BACS"">dYdAPMYm</p>","","","","","","","","",""
"html-keyboard-response","327","422808","0.0-14.0-0.76","60883a7e91c0be66dbb96fc8","650c16f0f2faf8d7a0d14c09","651c1baf2de14cda5ba971e4","null","null","<p style=""font-size: 60px; font-family: BACS"">UmNJvUdm</p>","","","","","","","","",""
"html-keyboard-response","328","423816","0.0-14.0-0.77","60883a7e91c0be66dbb96fc8","650c16f0f2faf8d7a0d14c09","651c1baf2de14cda5ba971e4","null","null","<p style=""font-size: 60px; font-family: BACS"">RCcEdmRb</p>","","","","","","","","",""
"html-keyboard-response","329","424825","0.0-14.0-0.78","60883a7e91c0be66dbb96fc8","650c16f0f2faf8d7a0d14c09","651c1baf2de14cda5ba971e4","null","null","<p style=""font-size: 60px; font-family: BACS"">vQdOkam</p>","","","","","","","","",""
"html-keyboard-response","330","425832","0.0-14.0-0.79","60883a7e91c0be66dbb96fc8","650c16f0f2faf8d7a0d14c09","651c1baf2de14cda5ba971e4","null","null","<p style=""font-size: 60px; font-family: BACS"">kMbTRPMYm</p>","","","","","","","","",""
"html-keyboard-response","331","430324","0.0-15.0","60883a7e91c0be66dbb96fc8","650c16f0f2faf8d7a0d14c09","651c1baf2de14cda5ba971e4","4492"," ","<p>Great, you've seen the fourth block of words. You may now take a short break.</p>
      <p>Press the spacebar when you're ready to continue.</p>","","","","","","","","",""
"html-keyboard-response","332","431337","0.0-16.0-0.0","60883a7e91c0be66dbb96fc8","650c16f0f2faf8d7a0d14c09","651c1baf2de14cda5ba971e4","null","null","<p style=""font-size: 60px; font-family: BACS"">UdumdkmU</p>","","","","","","","","",""
"html-keyboard-response","333","432343","0.0-16.0-0.1","60883a7e91c0be66dbb96fc8","650c16f0f2faf8d7a0d14c09","651c1baf2de14cda5ba971e4","null","null","<p style=""font-size: 60px; font-family: BACS"">UdumdkmU</p>","","","","","","","","",""
"html-keyboard-response","334","433350","0.0-16.0-0.2","60883a7e91c0be66dbb96fc8","650c16f0f2faf8d7a0d14c09","651c1baf2de14cda5ba971e4","null","null","<p style=""font-size: 60px; font-family: BACS"">UdumdkmU</p>","","","","","","","","",""
"html-keyboard-response","335","434357","0.0-16.0-0.3","60883a7e91c0be66dbb96fc8","650c16f0f2faf8d7a0d14c09","651c1baf2de14cda5ba971e4","null","null","<p style=""font-size: 60px; font-family: BACS"">UdumdkmU</p>","","","","","","","","",""
"html-keyboard-response","336","435364","0.0-16.0-0.4","60883a7e91c0be66dbb96fc8","650c16f0f2faf8d7a0d14c09","651c1baf2de14cda5ba971e4","null","null","<p style=""font-size: 60px; font-family: BACS"">UdumdkmU</p>","","","","","","","","",""
"html-keyboard-response","337","436372","0.0-16.0-0.5","60883a7e91c0be66dbb96fc8","650c16f0f2faf8d7a0d14c09","651c1baf2de14cda5ba971e4","null","null","<p style=""font-size: 60px; font-family: BACS"">UdumdkmU</p>","","","","","","","","",""
"html-keyboard-response","338","437380","0.0-16.0-0.6","60883a7e91c0be66dbb96fc8","650c16f0f2faf8d7a0d14c09","651c1baf2de14cda5ba971e4","null","null","<p style=""font-size: 60px; font-family: BACS"">UdumdkmU</p>","","","","","","","","",""
"html-keyboard-response","339","438386","0.0-16.0-0.7","60883a7e91c0be66dbb96fc8","650c16f0f2faf8d7a0d14c09","651c1baf2de14cda5ba971e4","null","null","<p style=""font-size: 60px; font-family: BACS"">UdumdkmU</p>","","","","","","","","",""
"html-keyboard-response","340","439394","0.0-16.0-0.8","60883a7e91c0be66dbb96fc8","650c16f0f2faf8d7a0d14c09","651c1baf2de14cda5ba971e4","null","null","<p style=""font-size: 60px; font-family: BACS"">UdumdkmU</p>","","","","","","","","",""
"html-keyboard-response","341","440415","0.0-16.0-0.9","60883a7e91c0be66dbb96fc8","650c16f0f2faf8d7a0d14c09","651c1baf2de14cda5ba971e4","null","null","<p style=""font-size: 60px; font-family: BACS"">UdumdkmU</p>","","","","","","","","",""
"html-keyboard-response","342","441421","0.0-16.0-0.10","60883a7e91c0be66dbb96fc8","650c16f0f2faf8d7a0d14c09","651c1baf2de14cda5ba971e4","null","null","<p style=""font-size: 60px; font-family: BACS"">UdumdkmU</p>","","","","","","","","",""
"html-keyboard-response","343","442427","0.0-16.0-0.11","60883a7e91c0be66dbb96fc8","650c16f0f2faf8d7a0d14c09","651c1baf2de14cda5ba971e4","null","null","<p style=""font-size: 60px; font-family: BACS"">UdumdkmU</p>","","","","","","","","",""
"html-keyboard-response","344","443442","0.0-16.0-0.12","60883a7e91c0be66dbb96fc8","650c16f0f2faf8d7a0d14c09","651c1baf2de14cda5ba971e4","null","null","<p style=""font-size: 60px; font-family: BACS"">UdumdkmU</p>","","","","","","","","",""
"html-keyboard-response","345","444462","0.0-16.0-0.13","60883a7e91c0be66dbb96fc8","650c16f0f2faf8d7a0d14c09","651c1baf2de14cda5ba971e4","null","null","<p style=""font-size: 60px; font-family: BACS"">UdumdkmU</p>","","","","","","","","",""
"html-keyboard-response","346","445481","0.0-16.0-0.14","60883a7e91c0be66dbb96fc8","650c16f0f2faf8d7a0d14c09","651c1baf2de14cda5ba971e4","null","null","<p style=""font-size: 60px; font-family: BACS"">UdumdkmU</p>","","","","","","","","",""
"html-keyboard-response","347","446488","0.0-16.0-0.15","60883a7e91c0be66dbb96fc8","650c16f0f2faf8d7a0d14c09","651c1baf2de14cda5ba971e4","null","null","<p style=""font-size: 60px; font-family: BACS"">UdumdkmU</p>","","","","","","","","",""
"html-keyboard-response","348","447495","0.0-16.0-0.16","60883a7e91c0be66dbb96fc8","650c16f0f2faf8d7a0d14c09","651c1baf2de14cda5ba971e4","null","null","<p style=""font-size: 60px; font-family: BACS"">UdumdkmU</p>","","","","","","","","",""
"html-keyboard-response","349","448502","0.0-16.0-0.17","60883a7e91c0be66dbb96fc8","650c16f0f2faf8d7a0d14c09","651c1baf2de14cda5ba971e4","null","null","<p style=""font-size: 60px; font-family: BACS"">UdumdkmU</p>","","","","","","","","",""
"html-keyboard-response","350","449510","0.0-16.0-0.18","60883a7e91c0be66dbb96fc8","650c16f0f2faf8d7a0d14c09","651c1baf2de14cda5ba971e4","null","null","<p style=""font-size: 60px; font-family: BACS"">UdumdkmU</p>","","","","","","","","",""
"html-keyboard-response","351","450516","0.0-16.0-0.19","60883a7e91c0be66dbb96fc8","650c16f0f2faf8d7a0d14c09","651c1baf2de14cda5ba971e4","null","null","<p style=""font-size: 60px; font-family: BACS"">UdumdkmU</p>","","","","","","","","",""
"html-keyboard-response","352","451525","0.0-16.0-0.20","60883a7e91c0be66dbb96fc8","650c16f0f2faf8d7a0d14c09","651c1baf2de14cda5ba971e4","null","null","<p style=""font-size: 60px; font-family: BACS"">UdumdkmU</p>","","","","","","","","",""
"html-keyboard-response","353","452530","0.0-16.0-0.21","60883a7e91c0be66dbb96fc8","650c16f0f2faf8d7a0d14c09","651c1baf2de14cda5ba971e4","null","null","<p style=""font-size: 60px; font-family: BACS"">UdumdkmU</p>","","","","","","","","",""
"html-keyboard-response","354","453539","0.0-16.0-0.22","60883a7e91c0be66dbb96fc8","650c16f0f2faf8d7a0d14c09","651c1baf2de14cda5ba971e4","null","null","<p style=""font-size: 60px; font-family: BACS"">UdumdkmU</p>","","","","","","","","",""
"html-keyboard-response","355","454546","0.0-16.0-0.23","60883a7e91c0be66dbb96fc8","650c16f0f2faf8d7a0d14c09","651c1baf2de14cda5ba971e4","null","null","<p style=""font-size: 60px; font-family: BACS"">UdumdkmU</p>","","","","","","","","",""
"html-keyboard-response","356","455553","0.0-16.0-0.24","60883a7e91c0be66dbb96fc8","650c16f0f2faf8d7a0d14c09","651c1baf2de14cda5ba971e4","null","null","<p style=""font-size: 60px; font-family: BACS"">UdumdkmU</p>","","","","","","","","",""
"html-keyboard-response","357","456560","0.0-16.0-0.25","60883a7e91c0be66dbb96fc8","650c16f0f2faf8d7a0d14c09","651c1baf2de14cda5ba971e4","null","null","<p style=""font-size: 60px; font-family: BACS"">UdumdkmU</p>","","","","","","","","",""
"html-keyboard-response","358","457568","0.0-16.0-0.26","60883a7e91c0be66dbb96fc8","650c16f0f2faf8d7a0d14c09","651c1baf2de14cda5ba971e4","null","null","<p style=""font-size: 60px; font-family: BACS"">UdumdkmU</p>","","","","","","","","",""
"html-keyboard-response","359","458575","0.0-16.0-0.27","60883a7e91c0be66dbb96fc8","650c16f0f2faf8d7a0d14c09","651c1baf2de14cda5ba971e4","null","null","<p style=""font-size: 60px; font-family: BACS"">UdumdkmU</p>","","","","","","","","",""
"html-keyboard-response","360","459583","0.0-16.0-0.28","60883a7e91c0be66dbb96fc8","650c16f0f2faf8d7a0d14c09","651c1baf2de14cda5ba971e4","null","null","<p style=""font-size: 60px; font-family: BACS"">UdumdkmU</p>","","","","","","","","",""
"html-keyboard-response","361","460589","0.0-16.0-0.29","60883a7e91c0be66dbb96fc8","650c16f0f2faf8d7a0d14c09","651c1baf2de14cda5ba971e4","null","null","<p style=""font-size: 60px; font-family: BACS"">UdumdkmU</p>","","","","","","","","",""
"html-keyboard-response","362","461597","0.0-16.0-0.30","60883a7e91c0be66dbb96fc8","650c16f0f2faf8d7a0d14c09","651c1baf2de14cda5ba971e4","null","null","<p style=""font-size: 60px; font-family: BACS"">UdumdkmU</p>","","","","","","","","",""
"html-keyboard-response","363","462604","0.0-16.0-0.31","60883a7e91c0be66dbb96fc8","650c16f0f2faf8d7a0d14c09","651c1baf2de14cda5ba971e4","null","null","<p style=""font-size: 60px; font-family: BACS"">UdumdkmU</p>","","","","","","","","",""
"html-keyboard-response","364","463610","0.0-16.0-0.32","60883a7e91c0be66dbb96fc8","650c16f0f2faf8d7a0d14c09","651c1baf2de14cda5ba971e4","null","null","<p style=""font-size: 60px; font-family: BACS"">UdumdkmU</p>","","","","","","","","",""
"html-keyboard-response","365","464616","0.0-16.0-0.33","60883a7e91c0be66dbb96fc8","650c16f0f2faf8d7a0d14c09","651c1baf2de14cda5ba971e4","null","null","<p style=""font-size: 60px; font-family: BACS"">UdumdkmU</p>","","","","","","","","",""
"html-keyboard-response","366","465624","0.0-16.0-0.34","60883a7e91c0be66dbb96fc8","650c16f0f2faf8d7a0d14c09","651c1baf2de14cda5ba971e4","null","null","<p style=""font-size: 60px; font-family: BACS"">UdumdkmU</p>","","","","","","","","",""
"html-keyboard-response","367","466631","0.0-16.0-0.35","60883a7e91c0be66dbb96fc8","650c16f0f2faf8d7a0d14c09","651c1baf2de14cda5ba971e4","null","null","<p style=""font-size: 60px; font-family: BACS"">UdumdkmU</p>","","","","","","","","",""
"html-keyboard-response","368","467638","0.0-16.0-0.36","60883a7e91c0be66dbb96fc8","650c16f0f2faf8d7a0d14c09","651c1baf2de14cda5ba971e4","null","null","<p style=""font-size: 60px; font-family: BACS"">UdumdkmU</p>","","","","","","","","",""
"html-keyboard-response","369","468644","0.0-16.0-0.37","60883a7e91c0be66dbb96fc8","650c16f0f2faf8d7a0d14c09","651c1baf2de14cda5ba971e4","null","null","<p style=""font-size: 60px; font-family: BACS"">UdumdkmU</p>","","","","","","","","",""
"html-keyboard-response","370","469653","0.0-16.0-0.38","60883a7e91c0be66dbb96fc8","650c16f0f2faf8d7a0d14c09","651c1baf2de14cda5ba971e4","null","null","<p style=""font-size: 60px; font-family: BACS"">UdumdkmU</p>","","","","","","","","",""
"html-keyboard-response","371","470660","0.0-16.0-0.39","60883a7e91c0be66dbb96fc8","650c16f0f2faf8d7a0d14c09","651c1baf2de14cda5ba971e4","null","null","<p style=""font-size: 60px; font-family: BACS"">UdumdkmU</p>","","","","","","","","",""
"html-keyboard-response","372","471667","0.0-16.0-0.40","60883a7e91c0be66dbb96fc8","650c16f0f2faf8d7a0d14c09","651c1baf2de14cda5ba971e4","null","null","<p style=""font-size: 60px; font-family: BACS"">UdumdkmU</p>","","","","","","","","",""
"html-keyboard-response","373","472675","0.0-16.0-0.41","60883a7e91c0be66dbb96fc8","650c16f0f2faf8d7a0d14c09","651c1baf2de14cda5ba971e4","null","null","<p style=""font-size: 60px; font-family: BACS"">UdumdkmU</p>","","","","","","","","",""
"html-keyboard-response","374","473680","0.0-16.0-0.42","60883a7e91c0be66dbb96fc8","650c16f0f2faf8d7a0d14c09","651c1baf2de14cda5ba971e4","null","null","<p style=""font-size: 60px; font-family: BACS"">UdumdkmU</p>","","","","","","","","",""
"html-keyboard-response","375","474687","0.0-16.0-0.43","60883a7e91c0be66dbb96fc8","650c16f0f2faf8d7a0d14c09","651c1baf2de14cda5ba971e4","null","null","<p style=""font-size: 60px; font-family: BACS"">UdumdkmU</p>","","","","","","","","",""
"html-keyboard-response","376","475695","0.0-16.0-0.44","60883a7e91c0be66dbb96fc8","650c16f0f2faf8d7a0d14c09","651c1baf2de14cda5ba971e4","null","null","<p style=""font-size: 60px; font-family: BACS"">UdumdkmU</p>","","","","","","","","",""
"html-keyboard-response","377","476702","0.0-16.0-0.45","60883a7e91c0be66dbb96fc8","650c16f0f2faf8d7a0d14c09","651c1baf2de14cda5ba971e4","null","null","<p style=""font-size: 60px; font-family: BACS"">UdumdkmU</p>","","","","","","","","",""
"html-keyboard-response","378","477711","0.0-16.0-0.46","60883a7e91c0be66dbb96fc8","650c16f0f2faf8d7a0d14c09","651c1baf2de14cda5ba971e4","null","null","<p style=""font-size: 60px; font-family: BACS"">UdumdkmU</p>","","","","","","","","",""
"html-keyboard-response","379","478719","0.0-16.0-0.47","60883a7e91c0be66dbb96fc8","650c16f0f2faf8d7a0d14c09","651c1baf2de14cda5ba971e4","null","null","<p style=""font-size: 60px; font-family: BACS"">UdumdkmU</p>","","","","","","","","",""
"html-keyboard-response","380","479727","0.0-16.0-0.48","60883a7e91c0be66dbb96fc8","650c16f0f2faf8d7a0d14c09","651c1baf2de14cda5ba971e4","null","null","<p style=""font-size: 60px; font-family: BACS"">UdumdkmU</p>","","","","","","","","",""
"html-keyboard-response","381","480740","0.0-16.0-0.49","60883a7e91c0be66dbb96fc8","650c16f0f2faf8d7a0d14c09","651c1baf2de14cda5ba971e4","null","null","<p style=""font-size: 60px; font-family: BACS"">UdumdkmU</p>","","","","","","","","",""
"html-keyboard-response","382","481756","0.0-16.0-0.50","60883a7e91c0be66dbb96fc8","650c16f0f2faf8d7a0d14c09","651c1baf2de14cda5ba971e4","null","null","<p style=""font-size: 60px; font-family: BACS"">UdumdkmU</p>","","","","","","","","",""
"html-keyboard-response","383","482764","0.0-16.0-0.51","60883a7e91c0be66dbb96fc8","650c16f0f2faf8d7a0d14c09","651c1baf2de14cda5ba971e4","null","null","<p style=""font-size: 60px; font-family: BACS"">UdumdkmU</p>","","","","","","","","",""
"html-keyboard-response","384","483771","0.0-16.0-0.52","60883a7e91c0be66dbb96fc8","650c16f0f2faf8d7a0d14c09","651c1baf2de14cda5ba971e4","null","null","<p style=""font-size: 60px; font-family: BACS"">UdumdkmU</p>","","","","","","","","",""
"html-keyboard-response","385","484778","0.0-16.0-0.53","60883a7e91c0be66dbb96fc8","650c16f0f2faf8d7a0d14c09","651c1baf2de14cda5ba971e4","null","null","<p style=""font-size: 60px; font-family: BACS"">UdumdkmU</p>","","","","","","","","",""
"html-keyboard-response","386","485786","0.0-16.0-0.54","60883a7e91c0be66dbb96fc8","650c16f0f2faf8d7a0d14c09","651c1baf2de14cda5ba971e4","null","null","<p style=""font-size: 60px; font-family: BACS"">UdumdkmU</p>","","","","","","","","",""
"html-keyboard-response","387","486793","0.0-16.0-0.55","60883a7e91c0be66dbb96fc8","650c16f0f2faf8d7a0d14c09","651c1baf2de14cda5ba971e4","null","null","<p style=""font-size: 60px; font-family: BACS"">UdumdkmU</p>","","","","","","","","",""
"html-keyboard-response","388","487801","0.0-16.0-0.56","60883a7e91c0be66dbb96fc8","650c16f0f2faf8d7a0d14c09","651c1baf2de14cda5ba971e4","null","null","<p style=""font-size: 60px; font-family: BACS"">UdumdkmU</p>","","","","","","","","",""
"html-keyboard-response","389","488808","0.0-16.0-0.57","60883a7e91c0be66dbb96fc8","650c16f0f2faf8d7a0d14c09","651c1baf2de14cda5ba971e4","null","null","<p style=""font-size: 60px; font-family: BACS"">UdumdkmU</p>","","","","","","","","",""
"html-keyboard-response","390","489820","0.0-16.0-0.58","60883a7e91c0be66dbb96fc8","650c16f0f2faf8d7a0d14c09","651c1baf2de14cda5ba971e4","null","null","<p style=""font-size: 60px; font-family: BACS"">UdumdkmU</p>","","","","","","","","",""
"html-keyboard-response","391","490823","0.0-16.0-0.59","60883a7e91c0be66dbb96fc8","650c16f0f2faf8d7a0d14c09","651c1baf2de14cda5ba971e4","null","null","<p style=""font-size: 60px; font-family: BACS"">UdumdkmU</p>","","","","","","","","",""
"html-keyboard-response","392","491835","0.0-16.0-0.60","60883a7e91c0be66dbb96fc8","650c16f0f2faf8d7a0d14c09","651c1baf2de14cda5ba971e4","null","null","<p style=""font-size: 60px; font-family: BACS"">UdumdkmU</p>","","","","","","","","",""
"html-keyboard-response","393","492843","0.0-16.0-0.61","60883a7e91c0be66dbb96fc8","650c16f0f2faf8d7a0d14c09","651c1baf2de14cda5ba971e4","null","null","<p style=""font-size: 60px; font-family: BACS"">UdumdkmU</p>","","","","","","","","",""
"html-keyboard-response","394","493850","0.0-16.0-0.62","60883a7e91c0be66dbb96fc8","650c16f0f2faf8d7a0d14c09","651c1baf2de14cda5ba971e4","null","null","<p style=""font-size: 60px; font-family: BACS"">UdumdkmU</p>","","","","","","","","",""
"html-keyboard-response","395","494865","0.0-16.0-0.63","60883a7e91c0be66dbb96fc8","650c16f0f2faf8d7a0d14c09","651c1baf2de14cda5ba971e4","null","null","<p style=""font-size: 60px; font-family: BACS"">UdumdkmU</p>","","","","","","","","",""
"html-keyboard-response","396","495878","0.0-16.0-0.64","60883a7e91c0be66dbb96fc8","650c16f0f2faf8d7a0d14c09","651c1baf2de14cda5ba971e4","null","null","<p style=""font-size: 60px; font-family: BACS"">UdumdkmU</p>","","","","","","","","",""
"html-keyboard-response","397","496880","0.0-16.0-0.65","60883a7e91c0be66dbb96fc8","650c16f0f2faf8d7a0d14c09","651c1baf2de14cda5ba971e4","null","null","<p style=""font-size: 60px; font-family: BACS"">UdumdkmU</p>","","","","","","","","",""
"html-keyboard-response","398","497894","0.0-16.0-0.66","60883a7e91c0be66dbb96fc8","650c16f0f2faf8d7a0d14c09","651c1baf2de14cda5ba971e4","null","null","<p style=""font-size: 60px; font-family: BACS"">UdumdkmU</p>","","","","","","","","",""
"html-keyboard-response","399","498896","0.0-16.0-0.67","60883a7e91c0be66dbb96fc8","650c16f0f2faf8d7a0d14c09","651c1baf2de14cda5ba971e4","null","null","<p style=""font-size: 60px; font-family: BACS"">UdumdkmU</p>","","","","","","","","",""
"html-keyboard-response","400","499904","0.0-16.0-0.68","60883a7e91c0be66dbb96fc8","650c16f0f2faf8d7a0d14c09","651c1baf2de14cda5ba971e4","null","null","<p style=""font-size: 60px; font-family: BACS"">UdumdkmU</p>","","","","","","","","",""
