"trial_type","trial_index","time_elapsed","internal_node_id","subject_id","study_id","session_id","rt","response","stimulus","success","item","task","correct_response","testing_condition","correct","target","confound","name"
"pavlovia","0","1551","0.0-0.0","5f33289c1fe9181376ee67d9","650c16f0f2faf8d7a0d14c09","651c3530d920409adf061c81","","","","","","","","","","","",""
"survey-html-form","1","11854","0.0-1.0","5f33289c1fe9181376ee67d9","650c16f0f2faf8d7a0d14c09","651c3530d920409adf061c81","10302","{""ID"":""5f33289c1fe9181376ee67d9""}","","","","","","","","","",""
"html-keyboard-response","2","44582","0.0-2.0","5f33289c1fe9181376ee67d9","650c16f0f2faf8d7a0d14c09","651c3530d920409adf061c81","32723"," ","<p style=""font-size: 15px;"">Before beginning, we ask that you read the consent information and confirm your agreement to participate in the experiment.</p>
      <p style=""font-size: 15px;""> We ask that you remember that this is a research project and that your participation is entirely voluntary. You can stop your participation at any time, without needing to provide any explanation. The study we're asking you to participate in aims at examining how readers process written words. You will be engaged in a session of apprximately 20 minutes, followed by a brief questionnaire. You will have the opportunity to take a few breaks during the experiment. You will be paid £4 for your participation, corresponding to a rate of £8/hour. While this experiment looks at cognitive faculties, this experiment doesn't constitute clinical proof of eventual pathologies.</p>
      <p style=""font-size: 15px;"">All of the information collected thanks to yours and others' participation will be held in a secure password-protected server, and will not be shared with anyone not authorised to view it. Your personal information will be kept with an arbitrary participant ID. Thanks to this data anonymity process, any researcher analysing the data won't be able to track the information back to a specific participant. Therefore, this process will make identifying you impossibile, even when results from the study will be published in scientific reviews, presented at congresses, or at any other public forum. More generally, the collected data will be treated in accordance with the laws on privacy and conformity to the Legislative Degree n. 196 ""Code regarding the protection of personal data"" of the 30th of June 2003 and to the European Regulation 2016/670 (General Data Protection Regulation - GDPR). The Data Protection Officer is Avv. Valentina Carollo, who can be contacted at the following email addresses: <a href=""mailto:dpo@sissa.it"">dpo@sissa.it</a> or <a href=""mailto:rpd@sissa.it"">rpd@sissa.it</a> - PEC: <a href=""mailto:protocollo@pec.sissa.it"">protocollo@pec.sissa.it</a>.</p>
      <p style=""font-size: 15px;""> Before expressing your consent to participate, we would like to remind you again that in case you need explanations on any aspect of the experimental procedure, the researcher is at your disposition (<a href=""mailto:aliebelt@sissa.it"">aliebelt@sissa.it</a>, <a href=""mailto:davide.crepaldi@sissa.it"">davide.crepaldi@sissa.it</a>).</p>
      <p style=""font-size: 15px;"">If you would like to download the informed consent form, you can do so here: <a href=""BASL-Informed_Consent.pdf"" download>informed consent form</a>.</p>
      <p style=""font-size: 15px;"">We ask that you press the spacebar to proceed to the consent section.</p>","","","","","","","","",""
"survey-html-form","3","53269","0.0-3.0","5f33289c1fe9181376ee67d9","650c16f0f2faf8d7a0d14c09","651c3530d920409adf061c81","8685","{""consent1"":""YES"",""consent2"":""YES"",""consent3"":""YES"",""consent4"":""YES"",""consent5"":""YES"",""consent6"":""YES""}","","","","","","","","","",""
"fullscreen","4","63320","0.0-4.0","5f33289c1fe9181376ee67d9","650c16f0f2faf8d7a0d14c09","651c3530d920409adf061c81","","","","true","","","","","","","",""
"html-keyboard-response","5","87902","0.0-5.0","5f33289c1fe9181376ee67d9","650c16f0f2faf8d7a0d14c09","651c3530d920409adf061c81","24581"," ","<p>Welcome, and thank you very much for your time!</p>
      <p>In this experiment, you'll be a language expert who's been asked to take a look at words that Earth has received in its first communication with aliens. Your task, in this first part of the experiment, is to pay close attention to the words you'll be shown; later, world leaders will ask you questions on what you saw. The words will be shown to you quite quickly; it seems that the aliens were in a hurry :-)</p>
      <p>Press the spacebar to continue.<p>","","","","","","","","",""
"html-keyboard-response","6","87963","0.0-6.0","5f33289c1fe9181376ee67d9","650c16f0f2faf8d7a0d14c09","651c3530d920409adf061c81","null","null","<p style=""font-size: 120px; font-family: BACS""> </p>","","","","","","","","",""
"html-keyboard-response","7","96160","0.0-7.0","5f33289c1fe9181376ee67d9","650c16f0f2faf8d7a0d14c09","651c3530d920409adf061c81","8197"," ","<p>Here is an example of the words you'll see:</p>
      <img src='esempio.png' height='400px'>
      <p>When you're ready to begin, press the spacebar.</p></div>","","","","","","","","",""
"html-keyboard-response","8","97169","0.0-8.0-0.0","5f33289c1fe9181376ee67d9","650c16f0f2faf8d7a0d14c09","651c3530d920409adf061c81","null","null","<p style=""font-size: 60px; font-family: BACS"">kMbTRKOYC</p>","","","","","","","","",""
"html-keyboard-response","9","98176","0.0-8.0-0.1","5f33289c1fe9181376ee67d9","650c16f0f2faf8d7a0d14c09","651c3530d920409adf061c81","null","null","<p style=""font-size: 60px; font-family: BACS"">adkrNac</p>","","","","","","","","",""
"html-keyboard-response","10","99187","0.0-8.0-0.2","5f33289c1fe9181376ee67d9","650c16f0f2faf8d7a0d14c09","651c3530d920409adf061c81","null","null","<p style=""font-size: 60px; font-family: BACS"">RCcEcthB</p>","","","","","","","","",""
"html-keyboard-response","11","100198","0.0-8.0-0.3","5f33289c1fe9181376ee67d9","650c16f0f2faf8d7a0d14c09","651c3530d920409adf061c81","null","null","<p style=""font-size: 60px; font-family: BACS"">mUOcOkGua</p>","","","","","","","","",""
"html-keyboard-response","12","101205","0.0-8.0-0.4","5f33289c1fe9181376ee67d9","650c16f0f2faf8d7a0d14c09","651c3530d920409adf061c81","null","null","<p style=""font-size: 60px; font-family: BACS"">DCmhcthB</p>","","","","","","","","",""
"html-keyboard-response","13","102213","0.0-8.0-0.5","5f33289c1fe9181376ee67d9","650c16f0f2faf8d7a0d14c09","651c3530d920409adf061c81","null","null","<p style=""font-size: 60px; font-family: BACS"">mUOcOkam</p>","","","","","","","","",""
"html-keyboard-response","14","103223","0.0-8.0-0.6","5f33289c1fe9181376ee67d9","650c16f0f2faf8d7a0d14c09","651c3530d920409adf061c81","null","null","<p style=""font-size: 60px; font-family: BACS"">CmcOTAm</p>","","","","","","","","",""
"html-keyboard-response","15","104234","0.0-8.0-0.7","5f33289c1fe9181376ee67d9","650c16f0f2faf8d7a0d14c09","651c3530d920409adf061c81","null","null","<p style=""font-size: 60px; font-family: BACS"">GJGcZkam</p>","","","","","","","","",""
"html-keyboard-response","16","105242","0.0-8.0-0.8","5f33289c1fe9181376ee67d9","650c16f0f2faf8d7a0d14c09","651c3530d920409adf061c81","null","null","<p style=""font-size: 60px; font-family: BACS"">EMbDPKOYC</p>","","","","","","","","",""
"html-keyboard-response","17","106250","0.0-8.0-0.9","5f33289c1fe9181376ee67d9","650c16f0f2faf8d7a0d14c09","651c3530d920409adf061c81","null","null","<p style=""font-size: 60px; font-family: BACS"">LOLkUkGua</p>","","","","","","","","",""
"html-keyboard-response","18","107272","0.0-8.0-0.10","5f33289c1fe9181376ee67d9","650c16f0f2faf8d7a0d14c09","651c3530d920409adf061c81","null","null","<p style=""font-size: 60px; font-family: BACS"">UdlGQkam</p>","","","","","","","","",""
"html-keyboard-response","19","108288","0.0-8.0-0.11","5f33289c1fe9181376ee67d9","650c16f0f2faf8d7a0d14c09","651c3530d920409adf061c81","null","null","<p style=""font-size: 60px; font-family: BACS"">rLaZNac</p>","","","","","","","","",""
"html-keyboard-response","20","109311","0.0-8.0-0.12","5f33289c1fe9181376ee67d9","650c16f0f2faf8d7a0d14c09","651c3530d920409adf061c81","null","null","<p style=""font-size: 60px; font-family: BACS"">LNUrJYaum</p>","","","","","","","","",""
"html-keyboard-response","21","110314","0.0-8.0-0.13","5f33289c1fe9181376ee67d9","650c16f0f2faf8d7a0d14c09","651c3530d920409adf061c81","null","null","<p style=""font-size: 60px; font-family: BACS"">kMbTRTAm</p>","","","","","","","","",""
"html-keyboard-response","22","111321","0.0-8.0-0.14","5f33289c1fe9181376ee67d9","650c16f0f2faf8d7a0d14c09","651c3530d920409adf061c81","null","null","<p style=""font-size: 60px; font-family: BACS"">RCcEbAMO</p>","","","","","","","","",""
"html-keyboard-response","23","112332","0.0-8.0-0.15","5f33289c1fe9181376ee67d9","650c16f0f2faf8d7a0d14c09","651c3530d920409adf061c81","null","null","<p style=""font-size: 60px; font-family: BACS"">UdlGQYaum</p>","","","","","","","","",""
"html-keyboard-response","24","113337","0.0-8.0-0.16","5f33289c1fe9181376ee67d9","650c16f0f2faf8d7a0d14c09","651c3530d920409adf061c81","null","null","<p style=""font-size: 60px; font-family: BACS"">kMbTRbAMO</p>","","","","","","","","",""
"html-keyboard-response","25","114345","0.0-8.0-0.17","5f33289c1fe9181376ee67d9","650c16f0f2faf8d7a0d14c09","651c3530d920409adf061c81","null","null","<p style=""font-size: 60px; font-family: BACS"">ctktmhc</p>","","","","","","","","",""
"html-keyboard-response","26","115362","0.0-8.0-0.18","5f33289c1fe9181376ee67d9","650c16f0f2faf8d7a0d14c09","651c3530d920409adf061c81","null","null","<p style=""font-size: 60px; font-family: BACS"">DCmhTAm</p>","","","","","","","","",""
"html-keyboard-response","27","116369","0.0-8.0-0.19","5f33289c1fe9181376ee67d9","650c16f0f2faf8d7a0d14c09","651c3530d920409adf061c81","null","null","<p style=""font-size: 60px; font-family: BACS"">tKDmhmhc</p>","","","","","","","","",""
"html-keyboard-response","28","117377","0.0-8.0-0.20","5f33289c1fe9181376ee67d9","650c16f0f2faf8d7a0d14c09","651c3530d920409adf061c81","null","null","<p style=""font-size: 60px; font-family: BACS"">GJGcZuvJ</p>","","","","","","","","",""
"html-keyboard-response","29","118398","0.0-8.0-0.21","5f33289c1fe9181376ee67d9","650c16f0f2faf8d7a0d14c09","651c3530d920409adf061c81","null","null","<p style=""font-size: 60px; font-family: BACS"">rLaZkam</p>","","","","","","","","",""
"html-keyboard-response","30","119402","0.0-8.0-0.22","5f33289c1fe9181376ee67d9","650c16f0f2faf8d7a0d14c09","651c3530d920409adf061c81","null","null","<p style=""font-size: 60px; font-family: BACS"">OdlNmkGua</p>","","","","","","","","",""
"html-keyboard-response","31","120418","0.0-8.0-0.23","5f33289c1fe9181376ee67d9","650c16f0f2faf8d7a0d14c09","651c3530d920409adf061c81","null","null","<p style=""font-size: 60px; font-family: BACS"">DCmhmhc</p>","","","","","","","","",""
"html-keyboard-response","32","121430","0.0-8.0-0.24","5f33289c1fe9181376ee67d9","650c16f0f2faf8d7a0d14c09","651c3530d920409adf061c81","null","null","<p style=""font-size: 60px; font-family: BACS"">rLaZYaum</p>","","","","","","","","",""
"html-keyboard-response","33","122442","0.0-8.0-0.25","5f33289c1fe9181376ee67d9","650c16f0f2faf8d7a0d14c09","651c3530d920409adf061c81","null","null","<p style=""font-size: 60px; font-family: BACS"">ctktKOYC</p>","","","","","","","","",""
"html-keyboard-response","34","123449","0.0-8.0-0.26","5f33289c1fe9181376ee67d9","650c16f0f2faf8d7a0d14c09","651c3530d920409adf061c81","null","null","<p style=""font-size: 60px; font-family: BACS"">YdudkGua</p>","","","","","","","","",""
"html-keyboard-response","35","124460","0.0-8.0-0.27","5f33289c1fe9181376ee67d9","650c16f0f2faf8d7a0d14c09","651c3530d920409adf061c81","null","null","<p style=""font-size: 60px; font-family: BACS"">OdlNmkam</p>","","","","","","","","",""
"html-keyboard-response","36","125472","0.0-8.0-0.28","5f33289c1fe9181376ee67d9","650c16f0f2faf8d7a0d14c09","651c3530d920409adf061c81","null","null","<p style=""font-size: 60px; font-family: BACS"">LNUrJkGua</p>","","","","","","","","",""
"html-keyboard-response","37","126482","0.0-8.0-0.29","5f33289c1fe9181376ee67d9","650c16f0f2faf8d7a0d14c09","651c3530d920409adf061c81","null","null","<p style=""font-size: 60px; font-family: BACS"">OdlNmYaum</p>","","","","","","","","",""
"html-keyboard-response","38","127502","0.0-8.0-0.30","5f33289c1fe9181376ee67d9","650c16f0f2faf8d7a0d14c09","651c3530d920409adf061c81","null","null","<p style=""font-size: 60px; font-family: BACS"">UdlGQkGua</p>","","","","","","","","",""
"html-keyboard-response","39","128506","0.0-8.0-0.31","5f33289c1fe9181376ee67d9","650c16f0f2faf8d7a0d14c09","651c3530d920409adf061c81","null","null","<p style=""font-size: 60px; font-family: BACS"">tKDmhKOYC</p>","","","","","","","","",""
"html-keyboard-response","40","129514","0.0-8.0-0.32","5f33289c1fe9181376ee67d9","650c16f0f2faf8d7a0d14c09","651c3530d920409adf061c81","null","null","<p style=""font-size: 60px; font-family: BACS"">ctktTAm</p>","","","","","","","","",""
"html-keyboard-response","41","130522","0.0-8.0-0.33","5f33289c1fe9181376ee67d9","650c16f0f2faf8d7a0d14c09","651c3530d920409adf061c81","null","null","<p style=""font-size: 60px; font-family: BACS"">GJGcZkGua</p>","","","","","","","","",""
"html-keyboard-response","42","131529","0.0-8.0-0.34","5f33289c1fe9181376ee67d9","650c16f0f2faf8d7a0d14c09","651c3530d920409adf061c81","null","null","<p style=""font-size: 60px; font-family: BACS"">ctktbAMO</p>","","","","","","","","",""
"html-keyboard-response","43","132537","0.0-8.0-0.35","5f33289c1fe9181376ee67d9","650c16f0f2faf8d7a0d14c09","651c3530d920409adf061c81","null","null","<p style=""font-size: 60px; font-family: BACS"">OAblcNac</p>","","","","","","","","",""
"html-keyboard-response","44","133545","0.0-8.0-0.36","5f33289c1fe9181376ee67d9","650c16f0f2faf8d7a0d14c09","651c3530d920409adf061c81","null","null","<p style=""font-size: 60px; font-family: BACS"">RCcEmhc</p>","","","","","","","","",""
"html-keyboard-response","45","134554","0.0-8.0-0.37","5f33289c1fe9181376ee67d9","650c16f0f2faf8d7a0d14c09","651c3530d920409adf061c81","null","null","<p style=""font-size: 60px; font-family: BACS"">DCmhbAMO</p>","","","","","","","","",""
"html-keyboard-response","46","135569","0.0-8.0-0.38","5f33289c1fe9181376ee67d9","650c16f0f2faf8d7a0d14c09","651c3530d920409adf061c81","null","null","<p style=""font-size: 60px; font-family: BACS"">CmcOcthB</p>","","","","","","","","",""
"html-keyboard-response","47","136578","0.0-8.0-0.39","5f33289c1fe9181376ee67d9","650c16f0f2faf8d7a0d14c09","651c3530d920409adf061c81","null","null","<p style=""font-size: 60px; font-family: BACS"">mUOcOYaum</p>","","","","","","","","",""
"html-keyboard-response","48","137588","0.0-8.0-0.40","5f33289c1fe9181376ee67d9","650c16f0f2faf8d7a0d14c09","651c3530d920409adf061c81","null","null","<p style=""font-size: 60px; font-family: BACS"">hBmMCmhc</p>","","","","","","","","",""
"html-keyboard-response","49","138601","0.0-8.0-0.41","5f33289c1fe9181376ee67d9","650c16f0f2faf8d7a0d14c09","651c3530d920409adf061c81","null","null","<p style=""font-size: 60px; font-family: BACS"">OAblcuvJ</p>","","","","","","","","",""
"html-keyboard-response","50","139610","0.0-8.0-0.42","5f33289c1fe9181376ee67d9","650c16f0f2faf8d7a0d14c09","651c3530d920409adf061c81","null","null","<p style=""font-size: 60px; font-family: BACS"">CmcOKOYC</p>","","","","","","","","",""
"html-keyboard-response","51","140617","0.0-8.0-0.43","5f33289c1fe9181376ee67d9","650c16f0f2faf8d7a0d14c09","651c3530d920409adf061c81","null","null","<p style=""font-size: 60px; font-family: BACS"">LNUrJuvJ</p>","","","","","","","","",""
"html-keyboard-response","52","141633","0.0-8.0-0.44","5f33289c1fe9181376ee67d9","650c16f0f2faf8d7a0d14c09","651c3530d920409adf061c81","null","null","<p style=""font-size: 60px; font-family: BACS"">OAblcYaum</p>","","","","","","","","",""
"html-keyboard-response","53","142641","0.0-8.0-0.45","5f33289c1fe9181376ee67d9","650c16f0f2faf8d7a0d14c09","651c3530d920409adf061c81","null","null","<p style=""font-size: 60px; font-family: BACS"">MBKREKOYC</p>","","","","","","","","",""
"html-keyboard-response","54","143652","0.0-8.0-0.46","5f33289c1fe9181376ee67d9","650c16f0f2faf8d7a0d14c09","651c3530d920409adf061c81","null","null","<p style=""font-size: 60px; font-family: BACS"">UdlGQuvJ</p>","","","","","","","","",""
"html-keyboard-response","55","144663","0.0-8.0-0.47","5f33289c1fe9181376ee67d9","650c16f0f2faf8d7a0d14c09","651c3530d920409adf061c81","null","null","<p style=""font-size: 60px; font-family: BACS"">kMbTRmhc</p>","","","","","","","","",""
"html-keyboard-response","56","145665","0.0-8.0-0.48","5f33289c1fe9181376ee67d9","650c16f0f2faf8d7a0d14c09","651c3530d920409adf061c81","null","null","<p style=""font-size: 60px; font-family: BACS"">tKDmhTAm</p>","","","","","","","","",""
"html-keyboard-response","57","146673","0.0-8.0-0.49","5f33289c1fe9181376ee67d9","650c16f0f2faf8d7a0d14c09","651c3530d920409adf061c81","null","null","<p style=""font-size: 60px; font-family: BACS"">mUOcONac</p>","","","","","","","","",""
"html-keyboard-response","58","147681","0.0-8.0-0.50","5f33289c1fe9181376ee67d9","650c16f0f2faf8d7a0d14c09","651c3530d920409adf061c81","null","null","<p style=""font-size: 60px; font-family: BACS"">OdYPKOYC</p>","","","","","","","","",""
"html-keyboard-response","59","148697","0.0-8.0-0.51","5f33289c1fe9181376ee67d9","650c16f0f2faf8d7a0d14c09","651c3530d920409adf061c81","null","null","<p style=""font-size: 60px; font-family: BACS"">Ydudkam</p>","","","","","","","","",""
"html-keyboard-response","60","149708","0.0-8.0-0.52","5f33289c1fe9181376ee67d9","650c16f0f2faf8d7a0d14c09","651c3530d920409adf061c81","null","null","<p style=""font-size: 60px; font-family: BACS"">OdYPTAm</p>","","","","","","","","",""
"html-keyboard-response","61","150720","0.0-8.0-0.53","5f33289c1fe9181376ee67d9","650c16f0f2faf8d7a0d14c09","651c3530d920409adf061c81","null","null","<p style=""font-size: 60px; font-family: BACS"">adkrkGua</p>","","","","","","","","",""
"html-keyboard-response","62","151729","0.0-8.0-0.54","5f33289c1fe9181376ee67d9","650c16f0f2faf8d7a0d14c09","651c3530d920409adf061c81","null","null","<p style=""font-size: 60px; font-family: BACS"">LOLkUuvJ</p>","","","","","","","","",""
"html-keyboard-response","63","152751","0.0-8.0-0.55","5f33289c1fe9181376ee67d9","650c16f0f2faf8d7a0d14c09","651c3530d920409adf061c81","null","null","<p style=""font-size: 60px; font-family: BACS"">hBmMCcthB</p>","","","","","","","","",""
"html-keyboard-response","64","153753","0.0-8.0-0.56","5f33289c1fe9181376ee67d9","650c16f0f2faf8d7a0d14c09","651c3530d920409adf061c81","null","null","<p style=""font-size: 60px; font-family: BACS"">EMbDPmhc</p>","","","","","","","","",""
"html-keyboard-response","65","154775","0.0-8.0-0.57","5f33289c1fe9181376ee67d9","650c16f0f2faf8d7a0d14c09","651c3530d920409adf061c81","null","null","<p style=""font-size: 60px; font-family: BACS"">hBmMCKOYC</p>","","","","","","","","",""
"html-keyboard-response","66","155777","0.0-8.0-0.58","5f33289c1fe9181376ee67d9","650c16f0f2faf8d7a0d14c09","651c3530d920409adf061c81","null","null","<p style=""font-size: 60px; font-family: BACS"">CmcObAMO</p>","","","","","","","","",""
"html-keyboard-response","67","156786","0.0-8.0-0.59","5f33289c1fe9181376ee67d9","650c16f0f2faf8d7a0d14c09","651c3530d920409adf061c81","null","null","<p style=""font-size: 60px; font-family: BACS"">EMbDPcthB</p>","","","","","","","","",""
"html-keyboard-response","68","157793","0.0-8.0-0.60","5f33289c1fe9181376ee67d9","650c16f0f2faf8d7a0d14c09","651c3530d920409adf061c81","null","null","<p style=""font-size: 60px; font-family: BACS"">GJGcZNac</p>","","","","","","","","",""
"html-keyboard-response","69","158809","0.0-8.0-0.61","5f33289c1fe9181376ee67d9","650c16f0f2faf8d7a0d14c09","651c3530d920409adf061c81","null","null","<p style=""font-size: 60px; font-family: BACS"">OdYPcthB</p>","","","","","","","","",""
"html-keyboard-response","70","159817","0.0-8.0-0.62","5f33289c1fe9181376ee67d9","650c16f0f2faf8d7a0d14c09","651c3530d920409adf061c81","null","null","<p style=""font-size: 60px; font-family: BACS"">YduduvJ</p>","","","","","","","","",""
"html-keyboard-response","71","160825","0.0-8.0-0.63","5f33289c1fe9181376ee67d9","650c16f0f2faf8d7a0d14c09","651c3530d920409adf061c81","null","null","<p style=""font-size: 60px; font-family: BACS"">OdYPbAMO</p>","","","","","","","","",""
"html-keyboard-response","72","161841","0.0-8.0-0.64","5f33289c1fe9181376ee67d9","650c16f0f2faf8d7a0d14c09","651c3530d920409adf061c81","null","null","<p style=""font-size: 60px; font-family: BACS"">adkruvJ</p>","","","","","","","","",""
"html-keyboard-response","73","162848","0.0-8.0-0.65","5f33289c1fe9181376ee67d9","650c16f0f2faf8d7a0d14c09","651c3530d920409adf061c81","null","null","<p style=""font-size: 60px; font-family: BACS"">OdlNmNac</p>","","","","","","","","",""
"html-keyboard-response","74","163857","0.0-8.0-0.66","5f33289c1fe9181376ee67d9","650c16f0f2faf8d7a0d14c09","651c3530d920409adf061c81","null","null","<p style=""font-size: 60px; font-family: BACS"">hBmMCbAMO</p>","","","","","","","","",""
"html-keyboard-response","75","164866","0.0-8.0-0.67","5f33289c1fe9181376ee67d9","650c16f0f2faf8d7a0d14c09","651c3530d920409adf061c81","null","null","<p style=""font-size: 60px; font-family: BACS"">LNUrJNac</p>","","","","","","","","",""
"html-keyboard-response","76","165873","0.0-8.0-0.68","5f33289c1fe9181376ee67d9","650c16f0f2faf8d7a0d14c09","651c3530d920409adf061c81","null","null","<p style=""font-size: 60px; font-family: BACS"">OAblckam</p>","","","","","","","","",""
"html-keyboard-response","77","166881","0.0-8.0-0.69","5f33289c1fe9181376ee67d9","650c16f0f2faf8d7a0d14c09","651c3530d920409adf061c81","null","null","<p style=""font-size: 60px; font-family: BACS"">rLaZuvJ</p>","","","","","","","","",""
"html-keyboard-response","78","167889","0.0-8.0-0.70","5f33289c1fe9181376ee67d9","650c16f0f2faf8d7a0d14c09","651c3530d920409adf061c81","null","null","<p style=""font-size: 60px; font-family: BACS"">MBKREmhc</p>","","","","","","","","",""
"html-keyboard-response","79","168908","0.0-8.0-0.71","5f33289c1fe9181376ee67d9","650c16f0f2faf8d7a0d14c09","651c3530d920409adf061c81","null","null","<p style=""font-size: 60px; font-family: BACS"">YdudYaum</p>","","","","","","","","",""
"html-keyboard-response","80","169922","0.0-8.0-0.72","5f33289c1fe9181376ee67d9","650c16f0f2faf8d7a0d14c09","651c3530d920409adf061c81","null","null","<p style=""font-size: 60px; font-family: BACS"">LOLkUkam</p>","","","","","","","","",""
"html-keyboard-response","81","170934","0.0-8.0-0.73","5f33289c1fe9181376ee67d9","650c16f0f2faf8d7a0d14c09","651c3530d920409adf061c81","null","null","<p style=""font-size: 60px; font-family: BACS"">EMbDPTAm</p>","","","","","","","","",""
"html-keyboard-response","82","171944","0.0-8.0-0.74","5f33289c1fe9181376ee67d9","650c16f0f2faf8d7a0d14c09","651c3530d920409adf061c81","null","null","<p style=""font-size: 60px; font-family: BACS"">tKDmhcthB</p>","","","","","","","","",""
"html-keyboard-response","83","172968","0.0-8.0-0.75","5f33289c1fe9181376ee67d9","650c16f0f2faf8d7a0d14c09","651c3530d920409adf061c81","null","null","<p style=""font-size: 60px; font-family: BACS"">LOLkUNac</p>","","","","","","","","",""
"html-keyboard-response","84","173977","0.0-8.0-0.76","5f33289c1fe9181376ee67d9","650c16f0f2faf8d7a0d14c09","651c3530d920409adf061c81","null","null","<p style=""font-size: 60px; font-family: BACS"">RCcETAm</p>","","","","","","","","",""
"html-keyboard-response","85","174986","0.0-8.0-0.77","5f33289c1fe9181376ee67d9","650c16f0f2faf8d7a0d14c09","651c3530d920409adf061c81","null","null","<p style=""font-size: 60px; font-family: BACS"">MBKREcthB</p>","","","","","","","","",""
"html-keyboard-response","86","176005","0.0-8.0-0.78","5f33289c1fe9181376ee67d9","650c16f0f2faf8d7a0d14c09","651c3530d920409adf061c81","null","null","<p style=""font-size: 60px; font-family: BACS"">adkrYaum</p>","","","","","","","","",""
"html-keyboard-response","87","177009","0.0-8.0-0.79","5f33289c1fe9181376ee67d9","650c16f0f2faf8d7a0d14c09","651c3530d920409adf061c81","null","null","<p style=""font-size: 60px; font-family: BACS"">MBKREbAMO</p>","","","","","","","","",""
"html-keyboard-response","88","182320","0.0-9.0","5f33289c1fe9181376ee67d9","650c16f0f2faf8d7a0d14c09","651c3530d920409adf061c81","5310"," ","<p>Great, you've seen the first block of words. You may now take a short break.</p>
      <p>Press the spacebar when you're ready to continue.</p>","","","","","","","","",""
"html-keyboard-response","89","183329","0.0-10.0-0.0","5f33289c1fe9181376ee67d9","650c16f0f2faf8d7a0d14c09","651c3530d920409adf061c81","null","null","<p style=""font-size: 60px; font-family: BACS"">MBKREcthB</p>","","","","","","","","",""
"html-keyboard-response","90","184337","0.0-10.0-0.1","5f33289c1fe9181376ee67d9","650c16f0f2faf8d7a0d14c09","651c3530d920409adf061c81","null","null","<p style=""font-size: 60px; font-family: BACS"">rLaZNac</p>","","","","","","","","",""
"html-keyboard-response","91","185356","0.0-10.0-0.2","5f33289c1fe9181376ee67d9","650c16f0f2faf8d7a0d14c09","651c3530d920409adf061c81","null","null","<p style=""font-size: 60px; font-family: BACS"">MBKREmhc</p>","","","","","","","","",""
"html-keyboard-response","92","186360","0.0-10.0-0.3","5f33289c1fe9181376ee67d9","650c16f0f2faf8d7a0d14c09","651c3530d920409adf061c81","null","null","<p style=""font-size: 60px; font-family: BACS"">OAblckam</p>","","","","","","","","",""
"html-keyboard-response","93","187370","0.0-10.0-0.4","5f33289c1fe9181376ee67d9","650c16f0f2faf8d7a0d14c09","651c3530d920409adf061c81","null","null","<p style=""font-size: 60px; font-family: BACS"">tKDmhTAm</p>","","","","","","","","",""
"html-keyboard-response","94","188377","0.0-10.0-0.5","5f33289c1fe9181376ee67d9","650c16f0f2faf8d7a0d14c09","651c3530d920409adf061c81","null","null","<p style=""font-size: 60px; font-family: BACS"">GJGcZkGua</p>","","","","","","","","",""
"html-keyboard-response","95","189393","0.0-10.0-0.6","5f33289c1fe9181376ee67d9","650c16f0f2faf8d7a0d14c09","651c3530d920409adf061c81","null","null","<p style=""font-size: 60px; font-family: BACS"">OdYPcthB</p>","","","","","","","","",""
"html-keyboard-response","96","190407","0.0-10.0-0.7","5f33289c1fe9181376ee67d9","650c16f0f2faf8d7a0d14c09","651c3530d920409adf061c81","null","null","<p style=""font-size: 60px; font-family: BACS"">RCcEmhc</p>","","","","","","","","",""
"html-keyboard-response","97","191418","0.0-10.0-0.8","5f33289c1fe9181376ee67d9","650c16f0f2faf8d7a0d14c09","651c3530d920409adf061c81","null","null","<p style=""font-size: 60px; font-family: BACS"">GJGcZNac</p>","","","","","","","","",""
"html-keyboard-response","98","192426","0.0-10.0-0.9","5f33289c1fe9181376ee67d9","650c16f0f2faf8d7a0d14c09","651c3530d920409adf061c81","null","null","<p style=""font-size: 60px; font-family: BACS"">mUOcOYaum</p>","","","","","","","","",""
"html-keyboard-response","99","193433","0.0-10.0-0.10","5f33289c1fe9181376ee67d9","650c16f0f2faf8d7a0d14c09","651c3530d920409adf061c81","null","null","<p style=""font-size: 60px; font-family: BACS"">ctktTAm</p>","","","","","","","","",""
"html-keyboard-response","100","194442","0.0-10.0-0.11","5f33289c1fe9181376ee67d9","650c16f0f2faf8d7a0d14c09","651c3530d920409adf061c81","null","null","<p style=""font-size: 60px; font-family: BACS"">adkruvJ</p>","","","","","","","","",""
"html-keyboard-response","101","195450","0.0-10.0-0.12","5f33289c1fe9181376ee67d9","650c16f0f2faf8d7a0d14c09","651c3530d920409adf061c81","null","null","<p style=""font-size: 60px; font-family: BACS"">kMbTRmhc</p>","","","","","","","","",""
"html-keyboard-response","102","196462","0.0-10.0-0.13","5f33289c1fe9181376ee67d9","650c16f0f2faf8d7a0d14c09","651c3530d920409adf061c81","null","null","<p style=""font-size: 60px; font-family: BACS"">adkrYaum</p>","","","","","","","","",""
"html-keyboard-response","103","197472","0.0-10.0-0.14","5f33289c1fe9181376ee67d9","650c16f0f2faf8d7a0d14c09","651c3530d920409adf061c81","null","null","<p style=""font-size: 60px; font-family: BACS"">LOLkUuvJ</p>","","","","","","","","",""
"html-keyboard-response","104","198481","0.0-10.0-0.15","5f33289c1fe9181376ee67d9","650c16f0f2faf8d7a0d14c09","651c3530d920409adf061c81","null","null","<p style=""font-size: 60px; font-family: BACS"">CmcOTAm</p>","","","","","","","","",""
"html-keyboard-response","105","199495","0.0-10.0-0.16","5f33289c1fe9181376ee67d9","650c16f0f2faf8d7a0d14c09","651c3530d920409adf061c81","null","null","<p style=""font-size: 60px; font-family: BACS"">adkrkGua</p>","","","","","","","","",""
"html-keyboard-response","106","200507","0.0-10.0-0.17","5f33289c1fe9181376ee67d9","650c16f0f2faf8d7a0d14c09","651c3530d920409adf061c81","null","null","<p style=""font-size: 60px; font-family: BACS"">CmcOcthB</p>","","","","","","","","",""
"html-keyboard-response","107","201517","0.0-10.0-0.18","5f33289c1fe9181376ee67d9","650c16f0f2faf8d7a0d14c09","651c3530d920409adf061c81","null","null","<p style=""font-size: 60px; font-family: BACS"">OdYPbAMO</p>","","","","","","","","",""
"html-keyboard-response","108","202521","0.0-10.0-0.19","5f33289c1fe9181376ee67d9","650c16f0f2faf8d7a0d14c09","651c3530d920409adf061c81","null","null","<p style=""font-size: 60px; font-family: BACS"">LOLkUkam</p>","","","","","","","","",""
"html-keyboard-response","109","203532","0.0-10.0-0.20","5f33289c1fe9181376ee67d9","650c16f0f2faf8d7a0d14c09","651c3530d920409adf061c81","null","null","<p style=""font-size: 60px; font-family: BACS"">kMbTRKOYC</p>","","","","","","","","",""
"html-keyboard-response","110","204537","0.0-10.0-0.21","5f33289c1fe9181376ee67d9","650c16f0f2faf8d7a0d14c09","651c3530d920409adf061c81","null","null","<p style=""font-size: 60px; font-family: BACS"">ctktmhc</p>","","","","","","","","",""
"html-keyboard-response","111","205550","0.0-10.0-0.22","5f33289c1fe9181376ee67d9","650c16f0f2faf8d7a0d14c09","651c3530d920409adf061c81","null","null","<p style=""font-size: 60px; font-family: BACS"">LOLkUkGua</p>","","","","","","","","",""
"html-keyboard-response","112","206554","0.0-10.0-0.23","5f33289c1fe9181376ee67d9","650c16f0f2faf8d7a0d14c09","651c3530d920409adf061c81","null","null","<p style=""font-size: 60px; font-family: BACS"">ctktKOYC</p>","","","","","","","","",""
"html-keyboard-response","113","207565","0.0-10.0-0.24","5f33289c1fe9181376ee67d9","650c16f0f2faf8d7a0d14c09","651c3530d920409adf061c81","null","null","<p style=""font-size: 60px; font-family: BACS"">YdudkGua</p>","","","","","","","","",""
"html-keyboard-response","114","208576","0.0-10.0-0.25","5f33289c1fe9181376ee67d9","650c16f0f2faf8d7a0d14c09","651c3530d920409adf061c81","null","null","<p style=""font-size: 60px; font-family: BACS"">kMbTRTAm</p>","","","","","","","","",""
"html-keyboard-response","115","209585","0.0-10.0-0.26","5f33289c1fe9181376ee67d9","650c16f0f2faf8d7a0d14c09","651c3530d920409adf061c81","null","null","<p style=""font-size: 60px; font-family: BACS"">OdlNmYaum</p>","","","","","","","","",""
"html-keyboard-response","116","210594","0.0-10.0-0.27","5f33289c1fe9181376ee67d9","650c16f0f2faf8d7a0d14c09","651c3530d920409adf061c81","null","null","<p style=""font-size: 60px; font-family: BACS"">hBmMCbAMO</p>","","","","","","","","",""
"html-keyboard-response","117","211602","0.0-10.0-0.28","5f33289c1fe9181376ee67d9","650c16f0f2faf8d7a0d14c09","651c3530d920409adf061c81","null","null","<p style=""font-size: 60px; font-family: BACS"">rLaZYaum</p>","","","","","","","","",""
"html-keyboard-response","118","212610","0.0-10.0-0.29","5f33289c1fe9181376ee67d9","650c16f0f2faf8d7a0d14c09","651c3530d920409adf061c81","null","null","<p style=""font-size: 60px; font-family: BACS"">LNUrJuvJ</p>","","","","","","","","",""
"html-keyboard-response","119","213619","0.0-10.0-0.30","5f33289c1fe9181376ee67d9","650c16f0f2faf8d7a0d14c09","651c3530d920409adf061c81","null","null","<p style=""font-size: 60px; font-family: BACS"">EMbDPcthB</p>","","","","","","","","",""
"html-keyboard-response","120","214630","0.0-10.0-0.31","5f33289c1fe9181376ee67d9","650c16f0f2faf8d7a0d14c09","651c3530d920409adf061c81","null","null","<p style=""font-size: 60px; font-family: BACS"">YdudYaum</p>","","","","","","","","",""
"html-keyboard-response","121","215634","0.0-10.0-0.32","5f33289c1fe9181376ee67d9","650c16f0f2faf8d7a0d14c09","651c3530d920409adf061c81","null","null","<p style=""font-size: 60px; font-family: BACS"">rLaZkam</p>","","","","","","","","",""
"html-keyboard-response","122","216648","0.0-10.0-0.33","5f33289c1fe9181376ee67d9","650c16f0f2faf8d7a0d14c09","651c3530d920409adf061c81","null","null","<p style=""font-size: 60px; font-family: BACS"">YduduvJ</p>","","","","","","","","",""
"html-keyboard-response","123","217657","0.0-10.0-0.34","5f33289c1fe9181376ee67d9","650c16f0f2faf8d7a0d14c09","651c3530d920409adf061c81","null","null","<p style=""font-size: 60px; font-family: BACS"">OdlNmNac</p>","","","","","","","","",""
"html-keyboard-response","124","218667","0.0-10.0-0.35","5f33289c1fe9181376ee67d9","650c16f0f2faf8d7a0d14c09","651c3530d920409adf061c81","null","null","<p style=""font-size: 60px; font-family: BACS"">RCcETAm</p>","","","","","","","","",""
"html-keyboard-response","125","219673","0.0-10.0-0.36","5f33289c1fe9181376ee67d9","650c16f0f2faf8d7a0d14c09","651c3530d920409adf061c81","null","null","<p style=""font-size: 60px; font-family: BACS"">adkrNac</p>","","","","","","","","",""
"html-keyboard-response","126","220681","0.0-10.0-0.37","5f33289c1fe9181376ee67d9","650c16f0f2faf8d7a0d14c09","651c3530d920409adf061c81","null","null","<p style=""font-size: 60px; font-family: BACS"">tKDmhKOYC</p>","","","","","","","","",""
"html-keyboard-response","127","221689","0.0-10.0-0.38","5f33289c1fe9181376ee67d9","650c16f0f2faf8d7a0d14c09","651c3530d920409adf061c81","null","null","<p style=""font-size: 60px; font-family: BACS"">OAblcuvJ</p>","","","","","","","","",""
"html-keyboard-response","128","222697","0.0-10.0-0.39","5f33289c1fe9181376ee67d9","650c16f0f2faf8d7a0d14c09","651c3530d920409adf061c81","null","null","<p style=""font-size: 60px; font-family: BACS"">ctktbAMO</p>","","","","","","","","",""
"html-keyboard-response","129","223706","0.0-10.0-0.40","5f33289c1fe9181376ee67d9","650c16f0f2faf8d7a0d14c09","651c3530d920409adf061c81","null","null","<p style=""font-size: 60px; font-family: BACS"">OdYPTAm</p>","","","","","","","","",""
"html-keyboard-response","130","224729","0.0-10.0-0.41","5f33289c1fe9181376ee67d9","650c16f0f2faf8d7a0d14c09","651c3530d920409adf061c81","null","null","<p style=""font-size: 60px; font-family: BACS"">mUOcOkam</p>","","","","","","","","",""
"html-keyboard-response","131","225737","0.0-10.0-0.42","5f33289c1fe9181376ee67d9","650c16f0f2faf8d7a0d14c09","651c3530d920409adf061c81","null","null","<p style=""font-size: 60px; font-family: BACS"">GJGcZuvJ</p>","","","","","","","","",""
"html-keyboard-response","132","226745","0.0-10.0-0.43","5f33289c1fe9181376ee67d9","650c16f0f2faf8d7a0d14c09","651c3530d920409adf061c81","null","null","<p style=""font-size: 60px; font-family: BACS"">OAblcNac</p>","","","","","","","","",""
"html-keyboard-response","133","227753","0.0-10.0-0.44","5f33289c1fe9181376ee67d9","650c16f0f2faf8d7a0d14c09","651c3530d920409adf061c81","null","null","<p style=""font-size: 60px; font-family: BACS"">Ydudkam</p>","","","","","","","","",""
"html-keyboard-response","134","228761","0.0-10.0-0.45","5f33289c1fe9181376ee67d9","650c16f0f2faf8d7a0d14c09","651c3530d920409adf061c81","null","null","<p style=""font-size: 60px; font-family: BACS"">LOLkUNac</p>","","","","","","","","",""
"html-keyboard-response","135","229770","0.0-10.0-0.46","5f33289c1fe9181376ee67d9","650c16f0f2faf8d7a0d14c09","651c3530d920409adf061c81","null","null","<p style=""font-size: 60px; font-family: BACS"">EMbDPTAm</p>","","","","","","","","",""
"html-keyboard-response","136","230791","0.0-10.0-0.47","5f33289c1fe9181376ee67d9","650c16f0f2faf8d7a0d14c09","651c3530d920409adf061c81","null","null","<p style=""font-size: 60px; font-family: BACS"">CmcOKOYC</p>","","","","","","","","",""
"html-keyboard-response","137","231804","0.0-10.0-0.48","5f33289c1fe9181376ee67d9","650c16f0f2faf8d7a0d14c09","651c3530d920409adf061c81","null","null","<p style=""font-size: 60px; font-family: BACS"">LNUrJYaum</p>","","","","","","","","",""
"html-keyboard-response","138","232810","0.0-10.0-0.49","5f33289c1fe9181376ee67d9","650c16f0f2faf8d7a0d14c09","651c3530d920409adf061c81","null","null","<p style=""font-size: 60px; font-family: BACS"">UdlGQkam</p>","","","","","","","","",""
"html-keyboard-response","139","233817","0.0-10.0-0.50","5f33289c1fe9181376ee67d9","650c16f0f2faf8d7a0d14c09","651c3530d920409adf061c81","null","null","<p style=""font-size: 60px; font-family: BACS"">kMbTRbAMO</p>","","","","","","","","",""
"html-keyboard-response","140","234826","0.0-10.0-0.51","5f33289c1fe9181376ee67d9","650c16f0f2faf8d7a0d14c09","651c3530d920409adf061c81","null","null","<p style=""font-size: 60px; font-family: BACS"">LNUrJNac</p>","","","","","","","","",""
"html-keyboard-response","141","235833","0.0-10.0-0.52","5f33289c1fe9181376ee67d9","650c16f0f2faf8d7a0d14c09","651c3530d920409adf061c81","null","null","<p style=""font-size: 60px; font-family: BACS"">tKDmhcthB</p>","","","","","","","","",""
"html-keyboard-response","142","236841","0.0-10.0-0.53","5f33289c1fe9181376ee67d9","650c16f0f2faf8d7a0d14c09","651c3530d920409adf061c81","null","null","<p style=""font-size: 60px; font-family: BACS"">MBKREKOYC</p>","","","","","","","","",""
"html-keyboard-response","143","237849","0.0-10.0-0.54","5f33289c1fe9181376ee67d9","650c16f0f2faf8d7a0d14c09","651c3530d920409adf061c81","null","null","<p style=""font-size: 60px; font-family: BACS"">DCmhmhc</p>","","","","","","","","",""
"html-keyboard-response","144","238857","0.0-10.0-0.55","5f33289c1fe9181376ee67d9","650c16f0f2faf8d7a0d14c09","651c3530d920409adf061c81","null","null","<p style=""font-size: 60px; font-family: BACS"">RCcEcthB</p>","","","","","","","","",""
"html-keyboard-response","145","239866","0.0-10.0-0.56","5f33289c1fe9181376ee67d9","650c16f0f2faf8d7a0d14c09","651c3530d920409adf061c81","null","null","<p style=""font-size: 60px; font-family: BACS"">MBKREbAMO</p>","","","","","","","","",""
"html-keyboard-response","146","240886","0.0-10.0-0.57","5f33289c1fe9181376ee67d9","650c16f0f2faf8d7a0d14c09","651c3530d920409adf061c81","null","null","<p style=""font-size: 60px; font-family: BACS"">EMbDPmhc</p>","","","","","","","","",""
"html-keyboard-response","147","241890","0.0-10.0-0.58","5f33289c1fe9181376ee67d9","650c16f0f2faf8d7a0d14c09","651c3530d920409adf061c81","null","null","<p style=""font-size: 60px; font-family: BACS"">OdYPKOYC</p>","","","","","","","","",""
"html-keyboard-response","148","242897","0.0-10.0-0.59","5f33289c1fe9181376ee67d9","650c16f0f2faf8d7a0d14c09","651c3530d920409adf061c81","null","null","<p style=""font-size: 60px; font-family: BACS"">mUOcONac</p>","","","","","","","","",""
"html-keyboard-response","149","243906","0.0-10.0-0.60","5f33289c1fe9181376ee67d9","650c16f0f2faf8d7a0d14c09","651c3530d920409adf061c81","null","null","<p style=""font-size: 60px; font-family: BACS"">hBmMCmhc</p>","","","","","","","","",""
"html-keyboard-response","150","244921","0.0-10.0-0.61","5f33289c1fe9181376ee67d9","650c16f0f2faf8d7a0d14c09","651c3530d920409adf061c81","null","null","<p style=""font-size: 60px; font-family: BACS"">EMbDPKOYC</p>","","","","","","","","",""
"html-keyboard-response","151","245929","0.0-10.0-0.62","5f33289c1fe9181376ee67d9","650c16f0f2faf8d7a0d14c09","651c3530d920409adf061c81","null","null","<p style=""font-size: 60px; font-family: BACS"">tKDmhmhc</p>","","","","","","","","",""
"html-keyboard-response","152","246937","0.0-10.0-0.63","5f33289c1fe9181376ee67d9","650c16f0f2faf8d7a0d14c09","651c3530d920409adf061c81","null","null","<p style=""font-size: 60px; font-family: BACS"">GJGcZkam</p>","","","","","","","","",""
"html-keyboard-response","153","247945","0.0-10.0-0.64","5f33289c1fe9181376ee67d9","650c16f0f2faf8d7a0d14c09","651c3530d920409adf061c81","null","null","<p style=""font-size: 60px; font-family: BACS"">RCcEbAMO</p>","","","","","","","","",""
"html-keyboard-response","154","248958","0.0-10.0-0.65","5f33289c1fe9181376ee67d9","650c16f0f2faf8d7a0d14c09","651c3530d920409adf061c81","null","null","<p style=""font-size: 60px; font-family: BACS"">hBmMCKOYC</p>","","","","","","","","",""
"html-keyboard-response","155","249967","0.0-10.0-0.66","5f33289c1fe9181376ee67d9","650c16f0f2faf8d7a0d14c09","651c3530d920409adf061c81","null","null","<p style=""font-size: 60px; font-family: BACS"">OAblcYaum</p>","","","","","","","","",""
"html-keyboard-response","156","250977","0.0-10.0-0.67","5f33289c1fe9181376ee67d9","650c16f0f2faf8d7a0d14c09","651c3530d920409adf061c81","null","null","<p style=""font-size: 60px; font-family: BACS"">rLaZuvJ</p>","","","","","","","","",""
"html-keyboard-response","157","252000","0.0-10.0-0.68","5f33289c1fe9181376ee67d9","650c16f0f2faf8d7a0d14c09","651c3530d920409adf061c81","null","null","<p style=""font-size: 60px; font-family: BACS"">UdlGQkGua</p>","","","","","","","","",""
"html-keyboard-response","158","253009","0.0-10.0-0.69","5f33289c1fe9181376ee67d9","650c16f0f2faf8d7a0d14c09","651c3530d920409adf061c81","null","null","<p style=""font-size: 60px; font-family: BACS"">DCmhbAMO</p>","","","","","","","","",""
"html-keyboard-response","159","254018","0.0-10.0-0.70","5f33289c1fe9181376ee67d9","650c16f0f2faf8d7a0d14c09","651c3530d920409adf061c81","null","null","<p style=""font-size: 60px; font-family: BACS"">hBmMCcthB</p>","","","","","","","","",""
"html-keyboard-response","160","255029","0.0-10.0-0.71","5f33289c1fe9181376ee67d9","650c16f0f2faf8d7a0d14c09","651c3530d920409adf061c81","null","null","<p style=""font-size: 60px; font-family: BACS"">OdlNmkGua</p>","","","","","","","","",""
"html-keyboard-response","161","256033","0.0-10.0-0.72","5f33289c1fe9181376ee67d9","650c16f0f2faf8d7a0d14c09","651c3530d920409adf061c81","null","null","<p style=""font-size: 60px; font-family: BACS"">DCmhcthB</p>","","","","","","","","",""
"html-keyboard-response","162","257049","0.0-10.0-0.73","5f33289c1fe9181376ee67d9","650c16f0f2faf8d7a0d14c09","651c3530d920409adf061c81","null","null","<p style=""font-size: 60px; font-family: BACS"">OdlNmkam</p>","","","","","","","","",""
"html-keyboard-response","163","258058","0.0-10.0-0.74","5f33289c1fe9181376ee67d9","650c16f0f2faf8d7a0d14c09","651c3530d920409adf061c81","null","null","<p style=""font-size: 60px; font-family: BACS"">mUOcOkGua</p>","","","","","","","","",""
"html-keyboard-response","164","259066","0.0-10.0-0.75","5f33289c1fe9181376ee67d9","650c16f0f2faf8d7a0d14c09","651c3530d920409adf061c81","null","null","<p style=""font-size: 60px; font-family: BACS"">UdlGQYaum</p>","","","","","","","","",""
"html-keyboard-response","165","260079","0.0-10.0-0.76","5f33289c1fe9181376ee67d9","650c16f0f2faf8d7a0d14c09","651c3530d920409adf061c81","null","null","<p style=""font-size: 60px; font-family: BACS"">LNUrJkGua</p>","","","","","","","","",""
"html-keyboard-response","166","261081","0.0-10.0-0.77","5f33289c1fe9181376ee67d9","650c16f0f2faf8d7a0d14c09","651c3530d920409adf061c81","null","null","<p style=""font-size: 60px; font-family: BACS"">UdlGQuvJ</p>","","","","","","","","",""
"html-keyboard-response","167","262095","0.0-10.0-0.78","5f33289c1fe9181376ee67d9","650c16f0f2faf8d7a0d14c09","651c3530d920409adf061c81","null","null","<p style=""font-size: 60px; font-family: BACS"">CmcObAMO</p>","","","","","","","","",""
"html-keyboard-response","168","263102","0.0-10.0-0.79","5f33289c1fe9181376ee67d9","650c16f0f2faf8d7a0d14c09","651c3530d920409adf061c81","null","null","<p style=""font-size: 60px; font-family: BACS"">DCmhTAm</p>","","","","","","","","",""
"html-keyboard-response","169","290801","0.0-11.0","5f33289c1fe9181376ee67d9","650c16f0f2faf8d7a0d14c09","651c3530d920409adf061c81","27698"," ","<p>Great, you've seen the second block of words. You may now take a short break.</p>
      <p>Press the spacebar when you're ready to continue.</p>","","","","","","","","",""
"html-keyboard-response","170","291809","0.0-12.0-0.0","5f33289c1fe9181376ee67d9","650c16f0f2faf8d7a0d14c09","651c3530d920409adf061c81","null","null","<p style=""font-size: 60px; font-family: BACS"">LOLkUNac</p>","","","","","","","","",""
"html-keyboard-response","171","292818","0.0-12.0-0.1","5f33289c1fe9181376ee67d9","650c16f0f2faf8d7a0d14c09","651c3530d920409adf061c81","null","null","<p style=""font-size: 60px; font-family: BACS"">DCmhcthB</p>","","","","","","","","",""
"html-keyboard-response","172","293830","0.0-12.0-0.2","5f33289c1fe9181376ee67d9","650c16f0f2faf8d7a0d14c09","651c3530d920409adf061c81","null","null","<p style=""font-size: 60px; font-family: BACS"">tKDmhmhc</p>","","","","","","","","",""
"html-keyboard-response","173","294833","0.0-12.0-0.3","5f33289c1fe9181376ee67d9","650c16f0f2faf8d7a0d14c09","651c3530d920409adf061c81","null","null","<p style=""font-size: 60px; font-family: BACS"">MBKREKOYC</p>","","","","","","","","",""
"html-keyboard-response","174","295843","0.0-12.0-0.4","5f33289c1fe9181376ee67d9","650c16f0f2faf8d7a0d14c09","651c3530d920409adf061c81","null","null","<p style=""font-size: 60px; font-family: BACS"">hBmMCmhc</p>","","","","","","","","",""
"html-keyboard-response","175","296862","0.0-12.0-0.5","5f33289c1fe9181376ee67d9","650c16f0f2faf8d7a0d14c09","651c3530d920409adf061c81","null","null","<p style=""font-size: 60px; font-family: BACS"">kMbTRKOYC</p>","","","","","","","","",""
"html-keyboard-response","176","297866","0.0-12.0-0.6","5f33289c1fe9181376ee67d9","650c16f0f2faf8d7a0d14c09","651c3530d920409adf061c81","null","null","<p style=""font-size: 60px; font-family: BACS"">EMbDPmhc</p>","","","","","","","","",""
"html-keyboard-response","177","298874","0.0-12.0-0.7","5f33289c1fe9181376ee67d9","650c16f0f2faf8d7a0d14c09","651c3530d920409adf061c81","null","null","<p style=""font-size: 60px; font-family: BACS"">LNUrJkGua</p>","","","","","","","","",""
"html-keyboard-response","178","299890","0.0-12.0-0.8","5f33289c1fe9181376ee67d9","650c16f0f2faf8d7a0d14c09","651c3530d920409adf061c81","null","null","<p style=""font-size: 60px; font-family: BACS"">CmcOcthB</p>","","","","","","","","",""
"html-keyboard-response","179","300898","0.0-12.0-0.9","5f33289c1fe9181376ee67d9","650c16f0f2faf8d7a0d14c09","651c3530d920409adf061c81","null","null","<p style=""font-size: 60px; font-family: BACS"">YduduvJ</p>","","","","","","","","",""
"html-keyboard-response","180","301906","0.0-12.0-0.10","5f33289c1fe9181376ee67d9","650c16f0f2faf8d7a0d14c09","651c3530d920409adf061c81","null","null","<p style=""font-size: 60px; font-family: BACS"">OdYPKOYC</p>","","","","","","","","",""
"html-keyboard-response","181","302928","0.0-12.0-0.11","5f33289c1fe9181376ee67d9","650c16f0f2faf8d7a0d14c09","651c3530d920409adf061c81","null","null","<p style=""font-size: 60px; font-family: BACS"">ctktbAMO</p>","","","","","","","","",""
"html-keyboard-response","182","303939","0.0-12.0-0.12","5f33289c1fe9181376ee67d9","650c16f0f2faf8d7a0d14c09","651c3530d920409adf061c81","null","null","<p style=""font-size: 60px; font-family: BACS"">RCcETAm</p>","","","","","","","","",""
"html-keyboard-response","183","304947","0.0-12.0-0.13","5f33289c1fe9181376ee67d9","650c16f0f2faf8d7a0d14c09","651c3530d920409adf061c81","null","null","<p style=""font-size: 60px; font-family: BACS"">adkrkGua</p>","","","","","","","","",""
"html-keyboard-response","184","305958","0.0-12.0-0.14","5f33289c1fe9181376ee67d9","650c16f0f2faf8d7a0d14c09","651c3530d920409adf061c81","null","null","<p style=""font-size: 60px; font-family: BACS"">kMbTRbAMO</p>","","","","","","","","",""
"html-keyboard-response","185","306961","0.0-12.0-0.15","5f33289c1fe9181376ee67d9","650c16f0f2faf8d7a0d14c09","651c3530d920409adf061c81","null","null","<p style=""font-size: 60px; font-family: BACS"">adkrNac</p>","","","","","","","","",""
"html-keyboard-response","186","307982","0.0-12.0-0.16","5f33289c1fe9181376ee67d9","650c16f0f2faf8d7a0d14c09","651c3530d920409adf061c81","null","null","<p style=""font-size: 60px; font-family: BACS"">EMbDPcthB</p>","","","","","","","","",""
"html-keyboard-response","187","308991","0.0-12.0-0.17","5f33289c1fe9181376ee67d9","650c16f0f2faf8d7a0d14c09","651c3530d920409adf061c81","null","null","<p style=""font-size: 60px; font-family: BACS"">DCmhbAMO</p>","","","","","","","","",""
"html-keyboard-response","188","309996","0.0-12.0-0.18","5f33289c1fe9181376ee67d9","650c16f0f2faf8d7a0d14c09","651c3530d920409adf061c81","null","null","<p style=""font-size: 60px; font-family: BACS"">rLaZYaum</p>","","","","","","","","",""
"html-keyboard-response","189","311002","0.0-12.0-0.19","5f33289c1fe9181376ee67d9","650c16f0f2faf8d7a0d14c09","651c3530d920409adf061c81","null","null","<p style=""font-size: 60px; font-family: BACS"">UdlGQkGua</p>","","","","","","","","",""
"html-keyboard-response","190","312009","0.0-12.0-0.20","5f33289c1fe9181376ee67d9","650c16f0f2faf8d7a0d14c09","651c3530d920409adf061c81","null","null","<p style=""font-size: 60px; font-family: BACS"">OAblcYaum</p>","","","","","","","","",""
"html-keyboard-response","191","313018","0.0-12.0-0.21","5f33289c1fe9181376ee67d9","650c16f0f2faf8d7a0d14c09","651c3530d920409adf061c81","null","null","<p style=""font-size: 60px; font-family: BACS"">mUOcOkam</p>","","","","","","","","",""
"html-keyboard-response","192","314034","0.0-12.0-0.22","5f33289c1fe9181376ee67d9","650c16f0f2faf8d7a0d14c09","651c3530d920409adf061c81","null","null","<p style=""font-size: 60px; font-family: BACS"">CmcObAMO</p>","","","","","","","","",""
"html-keyboard-response","193","315042","0.0-12.0-0.23","5f33289c1fe9181376ee67d9","650c16f0f2faf8d7a0d14c09","651c3530d920409adf061c81","null","null","<p style=""font-size: 60px; font-family: BACS"">MBKREcthB</p>","","","","","","","","",""
"html-keyboard-response","194","316059","0.0-12.0-0.24","5f33289c1fe9181376ee67d9","650c16f0f2faf8d7a0d14c09","651c3530d920409adf061c81","null","null","<p style=""font-size: 60px; font-family: BACS"">GJGcZNac</p>","","","","","","","","",""
"html-keyboard-response","195","317068","0.0-12.0-0.25","5f33289c1fe9181376ee67d9","650c16f0f2faf8d7a0d14c09","651c3530d920409adf061c81","null","null","<p style=""font-size: 60px; font-family: BACS"">OAblcuvJ</p>","","","","","","","","",""
"html-keyboard-response","196","318074","0.0-12.0-0.26","5f33289c1fe9181376ee67d9","650c16f0f2faf8d7a0d14c09","651c3530d920409adf061c81","null","null","<p style=""font-size: 60px; font-family: BACS"">RCcEmhc</p>","","","","","","","","",""
"html-keyboard-response","197","319090","0.0-12.0-0.27","5f33289c1fe9181376ee67d9","650c16f0f2faf8d7a0d14c09","651c3530d920409adf061c81","null","null","<p style=""font-size: 60px; font-family: BACS"">tKDmhKOYC</p>","","","","","","","","",""
"html-keyboard-response","198","320101","0.0-12.0-0.28","5f33289c1fe9181376ee67d9","650c16f0f2faf8d7a0d14c09","651c3530d920409adf061c81","null","null","<p style=""font-size: 60px; font-family: BACS"">OdlNmkam</p>","","","","","","","","",""
"html-keyboard-response","199","321109","0.0-12.0-0.29","5f33289c1fe9181376ee67d9","650c16f0f2faf8d7a0d14c09","651c3530d920409adf061c81","null","null","<p style=""font-size: 60px; font-family: BACS"">LNUrJNac</p>","","","","","","","","",""
"html-keyboard-response","200","322114","0.0-12.0-0.30","5f33289c1fe9181376ee67d9","650c16f0f2faf8d7a0d14c09","651c3530d920409adf061c81","null","null","<p style=""font-size: 60px; font-family: BACS"">OdYPTAm</p>","","","","","","","","",""
"html-keyboard-response","201","323131","0.0-12.0-0.31","5f33289c1fe9181376ee67d9","650c16f0f2faf8d7a0d14c09","651c3530d920409adf061c81","null","null","<p style=""font-size: 60px; font-family: BACS"">hBmMCcthB</p>","","","","","","","","",""
"html-keyboard-response","202","324138","0.0-12.0-0.32","5f33289c1fe9181376ee67d9","650c16f0f2faf8d7a0d14c09","651c3530d920409adf061c81","null","null","<p style=""font-size: 60px; font-family: BACS"">kMbTRTAm</p>","","","","","","","","",""
"html-keyboard-response","203","325151","0.0-12.0-0.33","5f33289c1fe9181376ee67d9","650c16f0f2faf8d7a0d14c09","651c3530d920409adf061c81","null","null","<p style=""font-size: 60px; font-family: BACS"">MBKREmhc</p>","","","","","","","","",""
"html-keyboard-response","204","326153","0.0-12.0-0.34","5f33289c1fe9181376ee67d9","650c16f0f2faf8d7a0d14c09","651c3530d920409adf061c81","null","null","<p style=""font-size: 60px; font-family: BACS"">adkrYaum</p>","","","","","","","","",""
"html-keyboard-response","205","327162","0.0-12.0-0.35","5f33289c1fe9181376ee67d9","650c16f0f2faf8d7a0d14c09","651c3530d920409adf061c81","null","null","<p style=""font-size: 60px; font-family: BACS"">LOLkUkam</p>","","","","","","","","",""
"html-keyboard-response","206","328169","0.0-12.0-0.36","5f33289c1fe9181376ee67d9","650c16f0f2faf8d7a0d14c09","651c3530d920409adf061c81","null","null","<p style=""font-size: 60px; font-family: BACS"">RCcEcthB</p>","","","","","","","","",""
"html-keyboard-response","207","329177","0.0-12.0-0.37","5f33289c1fe9181376ee67d9","650c16f0f2faf8d7a0d14c09","651c3530d920409adf061c81","null","null","<p style=""font-size: 60px; font-family: BACS"">OdlNmNac</p>","","","","","","","","",""
"html-keyboard-response","208","330187","0.0-12.0-0.38","5f33289c1fe9181376ee67d9","650c16f0f2faf8d7a0d14c09","651c3530d920409adf061c81","null","null","<p style=""font-size: 60px; font-family: BACS"">Ydudkam</p>","","","","","","","","",""
"html-keyboard-response","209","331194","0.0-12.0-0.39","5f33289c1fe9181376ee67d9","650c16f0f2faf8d7a0d14c09","651c3530d920409adf061c81","null","null","<p style=""font-size: 60px; font-family: BACS"">rLaZNac</p>","","","","","","","","",""
"html-keyboard-response","210","332208","0.0-12.0-0.40","5f33289c1fe9181376ee67d9","650c16f0f2faf8d7a0d14c09","651c3530d920409adf061c81","null","null","<p style=""font-size: 60px; font-family: BACS"">GJGcZuvJ</p>","","","","","","","","",""
"html-keyboard-response","211","333218","0.0-12.0-0.41","5f33289c1fe9181376ee67d9","650c16f0f2faf8d7a0d14c09","651c3530d920409adf061c81","null","null","<p style=""font-size: 60px; font-family: BACS"">EMbDPTAm</p>","","","","","","","","",""
"html-keyboard-response","212","334225","0.0-12.0-0.42","5f33289c1fe9181376ee67d9","650c16f0f2faf8d7a0d14c09","651c3530d920409adf061c81","null","null","<p style=""font-size: 60px; font-family: BACS"">YdudkGua</p>","","","","","","","","",""
"html-keyboard-response","213","335234","0.0-12.0-0.43","5f33289c1fe9181376ee67d9","650c16f0f2faf8d7a0d14c09","651c3530d920409adf061c81","null","null","<p style=""font-size: 60px; font-family: BACS"">ctktmhc</p>","","","","","","","","",""
"html-keyboard-response","214","336242","0.0-12.0-0.44","5f33289c1fe9181376ee67d9","650c16f0f2faf8d7a0d14c09","651c3530d920409adf061c81","null","null","<p style=""font-size: 60px; font-family: BACS"">tKDmhcthB</p>","","","","","","","","",""
"html-keyboard-response","215","337250","0.0-12.0-0.45","5f33289c1fe9181376ee67d9","650c16f0f2faf8d7a0d14c09","651c3530d920409adf061c81","null","null","<p style=""font-size: 60px; font-family: BACS"">mUOcOYaum</p>","","","","","","","","",""
"html-keyboard-response","216","338257","0.0-12.0-0.46","5f33289c1fe9181376ee67d9","650c16f0f2faf8d7a0d14c09","651c3530d920409adf061c81","null","null","<p style=""font-size: 60px; font-family: BACS"">MBKREbAMO</p>","","","","","","","","",""
"html-keyboard-response","217","339277","0.0-12.0-0.47","5f33289c1fe9181376ee67d9","650c16f0f2faf8d7a0d14c09","651c3530d920409adf061c81","null","null","<p style=""font-size: 60px; font-family: BACS"">OAblcNac</p>","","","","","","","","",""
"html-keyboard-response","218","340281","0.0-12.0-0.48","5f33289c1fe9181376ee67d9","650c16f0f2faf8d7a0d14c09","651c3530d920409adf061c81","null","null","<p style=""font-size: 60px; font-family: BACS"">LOLkUuvJ</p>","","","","","","","","",""
"html-keyboard-response","219","341290","0.0-12.0-0.49","5f33289c1fe9181376ee67d9","650c16f0f2faf8d7a0d14c09","651c3530d920409adf061c81","null","null","<p style=""font-size: 60px; font-family: BACS"">LNUrJYaum</p>","","","","","","","","",""
"html-keyboard-response","220","342297","0.0-12.0-0.50","5f33289c1fe9181376ee67d9","650c16f0f2faf8d7a0d14c09","651c3530d920409adf061c81","null","null","<p style=""font-size: 60px; font-family: BACS"">OdYPbAMO</p>","","","","","","","","",""
"html-keyboard-response","221","343319","0.0-12.0-0.51","5f33289c1fe9181376ee67d9","650c16f0f2faf8d7a0d14c09","651c3530d920409adf061c81","null","null","<p style=""font-size: 60px; font-family: BACS"">UdlGQYaum</p>","","","","","","","","",""
"html-keyboard-response","222","344328","0.0-12.0-0.52","5f33289c1fe9181376ee67d9","650c16f0f2faf8d7a0d14c09","651c3530d920409adf061c81","null","null","<p style=""font-size: 60px; font-family: BACS"">tKDmhTAm</p>","","","","","","","","",""
"html-keyboard-response","223","345338","0.0-12.0-0.53","5f33289c1fe9181376ee67d9","650c16f0f2faf8d7a0d14c09","651c3530d920409adf061c81","null","null","<p style=""font-size: 60px; font-family: BACS"">UdlGQuvJ</p>","","","","","","","","",""
"html-keyboard-response","224","346359","0.0-12.0-0.54","5f33289c1fe9181376ee67d9","650c16f0f2faf8d7a0d14c09","651c3530d920409adf061c81","null","null","<p style=""font-size: 60px; font-family: BACS"">mUOcOkGua</p>","","","","","","","","",""
"html-keyboard-response","225","347361","0.0-12.0-0.55","5f33289c1fe9181376ee67d9","650c16f0f2faf8d7a0d14c09","651c3530d920409adf061c81","null","null","<p style=""font-size: 60px; font-family: BACS"">DCmhTAm</p>","","","","","","","","",""
"html-keyboard-response","226","348369","0.0-12.0-0.56","5f33289c1fe9181376ee67d9","650c16f0f2faf8d7a0d14c09","651c3530d920409adf061c81","null","null","<p style=""font-size: 60px; font-family: BACS"">LOLkUkGua</p>","","","","","","","","",""
"html-keyboard-response","227","349378","0.0-12.0-0.57","5f33289c1fe9181376ee67d9","650c16f0f2faf8d7a0d14c09","651c3530d920409adf061c81","null","null","<p style=""font-size: 60px; font-family: BACS"">adkruvJ</p>","","","","","","","","",""
"html-keyboard-response","228","350386","0.0-12.0-0.58","5f33289c1fe9181376ee67d9","650c16f0f2faf8d7a0d14c09","651c3530d920409adf061c81","null","null","<p style=""font-size: 60px; font-family: BACS"">mUOcONac</p>","","","","","","","","",""
"html-keyboard-response","229","351394","0.0-12.0-0.59","5f33289c1fe9181376ee67d9","650c16f0f2faf8d7a0d14c09","651c3530d920409adf061c81","null","null","<p style=""font-size: 60px; font-family: BACS"">hBmMCKOYC</p>","","","","","","","","",""
"html-keyboard-response","230","352413","0.0-12.0-0.60","5f33289c1fe9181376ee67d9","650c16f0f2faf8d7a0d14c09","651c3530d920409adf061c81","null","null","<p style=""font-size: 60px; font-family: BACS"">ctktTAm</p>","","","","","","","","",""
"html-keyboard-response","231","353420","0.0-12.0-0.61","5f33289c1fe9181376ee67d9","650c16f0f2faf8d7a0d14c09","651c3530d920409adf061c81","null","null","<p style=""font-size: 60px; font-family: BACS"">hBmMCbAMO</p>","","","","","","","","",""
"html-keyboard-response","232","354431","0.0-12.0-0.62","5f33289c1fe9181376ee67d9","650c16f0f2faf8d7a0d14c09","651c3530d920409adf061c81","null","null","<p style=""font-size: 60px; font-family: BACS"">rLaZuvJ</p>","","","","","","","","",""
"html-keyboard-response","233","355441","0.0-12.0-0.63","5f33289c1fe9181376ee67d9","650c16f0f2faf8d7a0d14c09","651c3530d920409adf061c81","null","null","<p style=""font-size: 60px; font-family: BACS"">YdudYaum</p>","","","","","","","","",""
"html-keyboard-response","234","356450","0.0-12.0-0.64","5f33289c1fe9181376ee67d9","650c16f0f2faf8d7a0d14c09","651c3530d920409adf061c81","null","null","<p style=""font-size: 60px; font-family: BACS"">RCcEbAMO</p>","","","","","","","","",""
"html-keyboard-response","235","357459","0.0-12.0-0.65","5f33289c1fe9181376ee67d9","650c16f0f2faf8d7a0d14c09","651c3530d920409adf061c81","null","null","<p style=""font-size: 60px; font-family: BACS"">CmcOTAm</p>","","","","","","","","",""
"html-keyboard-response","236","358465","0.0-12.0-0.66","5f33289c1fe9181376ee67d9","650c16f0f2faf8d7a0d14c09","651c3530d920409adf061c81","null","null","<p style=""font-size: 60px; font-family: BACS"">GJGcZkam</p>","","","","","","","","",""
"html-keyboard-response","237","359475","0.0-12.0-0.67","5f33289c1fe9181376ee67d9","650c16f0f2faf8d7a0d14c09","651c3530d920409adf061c81","null","null","<p style=""font-size: 60px; font-family: BACS"">OdlNmkGua</p>","","","","","","","","",""
"html-keyboard-response","238","360483","0.0-12.0-0.68","5f33289c1fe9181376ee67d9","650c16f0f2faf8d7a0d14c09","651c3530d920409adf061c81","null","null","<p style=""font-size: 60px; font-family: BACS"">UdlGQkam</p>","","","","","","","","",""
"html-keyboard-response","239","361489","0.0-12.0-0.69","5f33289c1fe9181376ee67d9","650c16f0f2faf8d7a0d14c09","651c3530d920409adf061c81","null","null","<p style=""font-size: 60px; font-family: BACS"">kMbTRmhc</p>","","","","","","","","",""
"html-keyboard-response","240","362506","0.0-12.0-0.70","5f33289c1fe9181376ee67d9","650c16f0f2faf8d7a0d14c09","651c3530d920409adf061c81","null","null","<p style=""font-size: 60px; font-family: BACS"">EMbDPKOYC</p>","","","","","","","","",""
"html-keyboard-response","241","363514","0.0-12.0-0.71","5f33289c1fe9181376ee67d9","650c16f0f2faf8d7a0d14c09","651c3530d920409adf061c81","null","null","<p style=""font-size: 60px; font-family: BACS"">OAblckam</p>","","","","","","","","",""
"html-keyboard-response","242","364522","0.0-12.0-0.72","5f33289c1fe9181376ee67d9","650c16f0f2faf8d7a0d14c09","651c3530d920409adf061c81","null","null","<p style=""font-size: 60px; font-family: BACS"">LNUrJuvJ</p>","","","","","","","","",""
"html-keyboard-response","243","365530","0.0-12.0-0.73","5f33289c1fe9181376ee67d9","650c16f0f2faf8d7a0d14c09","651c3530d920409adf061c81","null","null","<p style=""font-size: 60px; font-family: BACS"">rLaZkam</p>","","","","","","","","",""
"html-keyboard-response","244","366538","0.0-12.0-0.74","5f33289c1fe9181376ee67d9","650c16f0f2faf8d7a0d14c09","651c3530d920409adf061c81","null","null","<p style=""font-size: 60px; font-family: BACS"">ctktKOYC</p>","","","","","","","","",""
"html-keyboard-response","245","367553","0.0-12.0-0.75","5f33289c1fe9181376ee67d9","650c16f0f2faf8d7a0d14c09","651c3530d920409adf061c81","null","null","<p style=""font-size: 60px; font-family: BACS"">OdYPcthB</p>","","","","","","","","",""
"html-keyboard-response","246","368561","0.0-12.0-0.76","5f33289c1fe9181376ee67d9","650c16f0f2faf8d7a0d14c09","651c3530d920409adf061c81","null","null","<p style=""font-size: 60px; font-family: BACS"">CmcOKOYC</p>","","","","","","","","",""
"html-keyboard-response","247","369582","0.0-12.0-0.77","5f33289c1fe9181376ee67d9","650c16f0f2faf8d7a0d14c09","651c3530d920409adf061c81","null","null","<p style=""font-size: 60px; font-family: BACS"">GJGcZkGua</p>","","","","","","","","",""
"html-keyboard-response","248","370586","0.0-12.0-0.78","5f33289c1fe9181376ee67d9","650c16f0f2faf8d7a0d14c09","651c3530d920409adf061c81","null","null","<p style=""font-size: 60px; font-family: BACS"">DCmhmhc</p>","","","","","","","","",""
"html-keyboard-response","249","371594","0.0-12.0-0.79","5f33289c1fe9181376ee67d9","650c16f0f2faf8d7a0d14c09","651c3530d920409adf061c81","null","null","<p style=""font-size: 60px; font-family: BACS"">OdlNmYaum</p>","","","","","","","","",""
"html-keyboard-response","250","508784","0.0-13.0","5f33289c1fe9181376ee67d9","650c16f0f2faf8d7a0d14c09","651c3530d920409adf061c81","137189"," ","<p>Great, you've seen the third block of words. You may now take a short break.</p>
      <p>Press the spacebar when you're ready to continue.</p>","","","","","","","","",""
"html-keyboard-response","251","509785","0.0-14.0-0.0","5f33289c1fe9181376ee67d9","650c16f0f2faf8d7a0d14c09","651c3530d920409adf061c81","null","null","<p style=""font-size: 60px; font-family: BACS"">YduduvJ</p>","","","","","","","","",""
"html-keyboard-response","252","510800","0.0-14.0-0.1","5f33289c1fe9181376ee67d9","650c16f0f2faf8d7a0d14c09","651c3530d920409adf061c81","null","null","<p style=""font-size: 60px; font-family: BACS"">OAblcNac</p>","","","","","","","","",""
"html-keyboard-response","253","511811","0.0-14.0-0.2","5f33289c1fe9181376ee67d9","650c16f0f2faf8d7a0d14c09","651c3530d920409adf061c81","null","null","<p style=""font-size: 60px; font-family: BACS"">DCmhcthB</p>","","","","","","","","",""
"html-keyboard-response","254","512821","0.0-14.0-0.3","5f33289c1fe9181376ee67d9","650c16f0f2faf8d7a0d14c09","651c3530d920409adf061c81","null","null","<p style=""font-size: 60px; font-family: BACS"">OdYPTAm</p>","","","","","","","","",""
"html-keyboard-response","255","513828","0.0-14.0-0.4","5f33289c1fe9181376ee67d9","650c16f0f2faf8d7a0d14c09","651c3530d920409adf061c81","null","null","<p style=""font-size: 60px; font-family: BACS"">LNUrJNac</p>","","","","","","","","",""
"html-keyboard-response","256","514835","0.0-14.0-0.5","5f33289c1fe9181376ee67d9","650c16f0f2faf8d7a0d14c09","651c3530d920409adf061c81","null","null","<p style=""font-size: 60px; font-family: BACS"">MBKREbAMO</p>","","","","","","","","",""
"html-keyboard-response","257","515855","0.0-14.0-0.6","5f33289c1fe9181376ee67d9","650c16f0f2faf8d7a0d14c09","651c3530d920409adf061c81","null","null","<p style=""font-size: 60px; font-family: BACS"">kMbTRKOYC</p>","","","","","","","","",""
"html-keyboard-response","258","516868","0.0-14.0-0.7","5f33289c1fe9181376ee67d9","650c16f0f2faf8d7a0d14c09","651c3530d920409adf061c81","null","null","<p style=""font-size: 60px; font-family: BACS"">CmcObAMO</p>","","","","","","","","",""
"html-keyboard-response","259","517874","0.0-14.0-0.8","5f33289c1fe9181376ee67d9","650c16f0f2faf8d7a0d14c09","651c3530d920409adf061c81","null","null","<p style=""font-size: 60px; font-family: BACS"">OAblcYaum</p>","","","","","","","","",""
"html-keyboard-response","260","518888","0.0-14.0-0.9","5f33289c1fe9181376ee67d9","650c16f0f2faf8d7a0d14c09","651c3530d920409adf061c81","null","null","<p style=""font-size: 60px; font-family: BACS"">MBKREcthB</p>","","","","","","","","",""
"html-keyboard-response","261","519898","0.0-14.0-0.10","5f33289c1fe9181376ee67d9","650c16f0f2faf8d7a0d14c09","651c3530d920409adf061c81","null","null","<p style=""font-size: 60px; font-family: BACS"">adkrkGua</p>","","","","","","","","",""
"html-keyboard-response","262","520906","0.0-14.0-0.11","5f33289c1fe9181376ee67d9","650c16f0f2faf8d7a0d14c09","651c3530d920409adf061c81","null","null","<p style=""font-size: 60px; font-family: BACS"">CmcOKOYC</p>","","","","","","","","",""
"html-keyboard-response","263","521915","0.0-14.0-0.12","5f33289c1fe9181376ee67d9","650c16f0f2faf8d7a0d14c09","651c3530d920409adf061c81","null","null","<p style=""font-size: 60px; font-family: BACS"">rLaZuvJ</p>","","","","","","","","",""
"html-keyboard-response","264","522922","0.0-14.0-0.13","5f33289c1fe9181376ee67d9","650c16f0f2faf8d7a0d14c09","651c3530d920409adf061c81","null","null","<p style=""font-size: 60px; font-family: BACS"">adkrNac</p>","","","","","","","","",""
"html-keyboard-response","265","523930","0.0-14.0-0.14","5f33289c1fe9181376ee67d9","650c16f0f2faf8d7a0d14c09","651c3530d920409adf061c81","null","null","<p style=""font-size: 60px; font-family: BACS"">tKDmhcthB</p>","","","","","","","","",""
"html-keyboard-response","266","524938","0.0-14.0-0.15","5f33289c1fe9181376ee67d9","650c16f0f2faf8d7a0d14c09","651c3530d920409adf061c81","null","null","<p style=""font-size: 60px; font-family: BACS"">LOLkUNac</p>","","","","","","","","",""
"html-keyboard-response","267","525945","0.0-14.0-0.16","5f33289c1fe9181376ee67d9","650c16f0f2faf8d7a0d14c09","651c3530d920409adf061c81","null","null","<p style=""font-size: 60px; font-family: BACS"">OdlNmkGua</p>","","","","","","","","",""
"html-keyboard-response","268","526954","0.0-14.0-0.17","5f33289c1fe9181376ee67d9","650c16f0f2faf8d7a0d14c09","651c3530d920409adf061c81","null","null","<p style=""font-size: 60px; font-family: BACS"">RCcEcthB</p>","","","","","","","","",""
"html-keyboard-response","269","527961","0.0-14.0-0.18","5f33289c1fe9181376ee67d9","650c16f0f2faf8d7a0d14c09","651c3530d920409adf061c81","null","null","<p style=""font-size: 60px; font-family: BACS"">kMbTRbAMO</p>","","","","","","","","",""
"html-keyboard-response","270","528969","0.0-14.0-0.19","5f33289c1fe9181376ee67d9","650c16f0f2faf8d7a0d14c09","651c3530d920409adf061c81","null","null","<p style=""font-size: 60px; font-family: BACS"">OAblckam</p>","","","","","","","","",""
"html-keyboard-response","271","529981","0.0-14.0-0.20","5f33289c1fe9181376ee67d9","650c16f0f2faf8d7a0d14c09","651c3530d920409adf061c81","null","null","<p style=""font-size: 60px; font-family: BACS"">kMbTRmhc</p>","","","","","","","","",""
"html-keyboard-response","272","530986","0.0-14.0-0.21","5f33289c1fe9181376ee67d9","650c16f0f2faf8d7a0d14c09","651c3530d920409adf061c81","null","null","<p style=""font-size: 60px; font-family: BACS"">OdlNmkam</p>","","","","","","","","",""
"html-keyboard-response","273","531994","0.0-14.0-0.22","5f33289c1fe9181376ee67d9","650c16f0f2faf8d7a0d14c09","651c3530d920409adf061c81","null","null","<p style=""font-size: 60px; font-family: BACS"">YdudkGua</p>","","","","","","","","",""
"html-keyboard-response","274","533001","0.0-14.0-0.23","5f33289c1fe9181376ee67d9","650c16f0f2faf8d7a0d14c09","651c3530d920409adf061c81","null","null","<p style=""font-size: 60px; font-family: BACS"">ctktbAMO</p>","","","","","","","","",""
"html-keyboard-response","275","534010","0.0-14.0-0.24","5f33289c1fe9181376ee67d9","650c16f0f2faf8d7a0d14c09","651c3530d920409adf061c81","null","null","<p style=""font-size: 60px; font-family: BACS"">Ydudkam</p>","","","","","","","","",""
"html-keyboard-response","276","535028","0.0-14.0-0.25","5f33289c1fe9181376ee67d9","650c16f0f2faf8d7a0d14c09","651c3530d920409adf061c81","null","null","<p style=""font-size: 60px; font-family: BACS"">CmcOTAm</p>","","","","","","","","",""
"html-keyboard-response","277","536034","0.0-14.0-0.26","5f33289c1fe9181376ee67d9","650c16f0f2faf8d7a0d14c09","651c3530d920409adf061c81","null","null","<p style=""font-size: 60px; font-family: BACS"">ctktmhc</p>","","","","","","","","",""
"html-keyboard-response","278","537046","0.0-14.0-0.27","5f33289c1fe9181376ee67d9","650c16f0f2faf8d7a0d14c09","651c3530d920409adf061c81","null","null","<p style=""font-size: 60px; font-family: BACS"">LOLkUkam</p>","","","","","","","","",""
"html-keyboard-response","279","538056","0.0-14.0-0.28","5f33289c1fe9181376ee67d9","650c16f0f2faf8d7a0d14c09","651c3530d920409adf061c81","null","null","<p style=""font-size: 60px; font-family: BACS"">tKDmhTAm</p>","","","","","","","","",""
"html-keyboard-response","280","539070","0.0-14.0-0.29","5f33289c1fe9181376ee67d9","650c16f0f2faf8d7a0d14c09","651c3530d920409adf061c81","null","null","<p style=""font-size: 60px; font-family: BACS"">CmcOcthB</p>","","","","","","","","",""
"html-keyboard-response","281","540079","0.0-14.0-0.30","5f33289c1fe9181376ee67d9","650c16f0f2faf8d7a0d14c09","651c3530d920409adf061c81","null","null","<p style=""font-size: 60px; font-family: BACS"">MBKREmhc</p>","","","","","","","","",""
"html-keyboard-response","282","541081","0.0-14.0-0.31","5f33289c1fe9181376ee67d9","650c16f0f2faf8d7a0d14c09","651c3530d920409adf061c81","null","null","<p style=""font-size: 60px; font-family: BACS"">OdYPcthB</p>","","","","","","","","",""
"html-keyboard-response","283","542093","0.0-14.0-0.32","5f33289c1fe9181376ee67d9","650c16f0f2faf8d7a0d14c09","651c3530d920409adf061c81","null","null","<p style=""font-size: 60px; font-family: BACS"">LNUrJYaum</p>","","","","","","","","",""
"html-keyboard-response","284","543098","0.0-14.0-0.33","5f33289c1fe9181376ee67d9","650c16f0f2faf8d7a0d14c09","651c3530d920409adf061c81","null","null","<p style=""font-size: 60px; font-family: BACS"">DCmhbAMO</p>","","","","","","","","",""
"html-keyboard-response","285","544106","0.0-14.0-0.34","5f33289c1fe9181376ee67d9","650c16f0f2faf8d7a0d14c09","651c3530d920409adf061c81","null","null","<p style=""font-size: 60px; font-family: BACS"">hBmMCmhc</p>","","","","","","","","",""
"html-keyboard-response","286","545114","0.0-14.0-0.35","5f33289c1fe9181376ee67d9","650c16f0f2faf8d7a0d14c09","651c3530d920409adf061c81","null","null","<p style=""font-size: 60px; font-family: BACS"">OdlNmNac</p>","","","","","","","","",""
"html-keyboard-response","287","546122","0.0-14.0-0.36","5f33289c1fe9181376ee67d9","650c16f0f2faf8d7a0d14c09","651c3530d920409adf061c81","null","null","<p style=""font-size: 60px; font-family: BACS"">UdlGQkam</p>","","","","","","","","",""
"html-keyboard-response","288","547130","0.0-14.0-0.37","5f33289c1fe9181376ee67d9","650c16f0f2faf8d7a0d14c09","651c3530d920409adf061c81","null","null","<p style=""font-size: 60px; font-family: BACS"">hBmMCbAMO</p>","","","","","","","","",""
"html-keyboard-response","289","548142","0.0-14.0-0.38","5f33289c1fe9181376ee67d9","650c16f0f2faf8d7a0d14c09","651c3530d920409adf061c81","null","null","<p style=""font-size: 60px; font-family: BACS"">EMbDPmhc</p>","","","","","","","","",""
"html-keyboard-response","290","549150","0.0-14.0-0.39","5f33289c1fe9181376ee67d9","650c16f0f2faf8d7a0d14c09","651c3530d920409adf061c81","null","null","<p style=""font-size: 60px; font-family: BACS"">hBmMCcthB</p>","","","","","","","","",""
"html-keyboard-response","291","550153","0.0-14.0-0.40","5f33289c1fe9181376ee67d9","650c16f0f2faf8d7a0d14c09","651c3530d920409adf061c81","null","null","<p style=""font-size: 60px; font-family: BACS"">GJGcZNac</p>","","","","","","","","",""
"html-keyboard-response","292","551162","0.0-14.0-0.41","5f33289c1fe9181376ee67d9","650c16f0f2faf8d7a0d14c09","651c3530d920409adf061c81","null","null","<p style=""font-size: 60px; font-family: BACS"">mUOcOkam</p>","","","","","","","","",""
"html-keyboard-response","293","552172","0.0-14.0-0.42","5f33289c1fe9181376ee67d9","650c16f0f2faf8d7a0d14c09","651c3530d920409adf061c81","null","null","<p style=""font-size: 60px; font-family: BACS"">UdlGQkGua</p>","","","","","","","","",""
"html-keyboard-response","294","553177","0.0-14.0-0.43","5f33289c1fe9181376ee67d9","650c16f0f2faf8d7a0d14c09","651c3530d920409adf061c81","null","null","<p style=""font-size: 60px; font-family: BACS"">ctktKOYC</p>","","","","","","","","",""
"html-keyboard-response","295","554191","0.0-14.0-0.44","5f33289c1fe9181376ee67d9","650c16f0f2faf8d7a0d14c09","651c3530d920409adf061c81","null","null","<p style=""font-size: 60px; font-family: BACS"">LNUrJuvJ</p>","","","","","","","","",""
"html-keyboard-response","296","555194","0.0-14.0-0.45","5f33289c1fe9181376ee67d9","650c16f0f2faf8d7a0d14c09","651c3530d920409adf061c81","null","null","<p style=""font-size: 60px; font-family: BACS"">DCmhTAm</p>","","","","","","","","",""
"html-keyboard-response","297","556201","0.0-14.0-0.46","5f33289c1fe9181376ee67d9","650c16f0f2faf8d7a0d14c09","651c3530d920409adf061c81","null","null","<p style=""font-size: 60px; font-family: BACS"">mUOcONac</p>","","","","","","","","",""
"html-keyboard-response","298","557223","0.0-14.0-0.47","5f33289c1fe9181376ee67d9","650c16f0f2faf8d7a0d14c09","651c3530d920409adf061c81","null","null","<p style=""font-size: 60px; font-family: BACS"">RCcEmhc</p>","","","","","","","","",""
"html-keyboard-response","299","558235","0.0-14.0-0.48","5f33289c1fe9181376ee67d9","650c16f0f2faf8d7a0d14c09","651c3530d920409adf061c81","null","null","<p style=""font-size: 60px; font-family: BACS"">OdYPKOYC</p>","","","","","","","","",""
"html-keyboard-response","300","559248","0.0-14.0-0.49","5f33289c1fe9181376ee67d9","650c16f0f2faf8d7a0d14c09","651c3530d920409adf061c81","null","null","<p style=""font-size: 60px; font-family: BACS"">UdlGQuvJ</p>","","","","","","","","",""
"html-keyboard-response","301","560257","0.0-14.0-0.50","5f33289c1fe9181376ee67d9","650c16f0f2faf8d7a0d14c09","651c3530d920409adf061c81","null","null","<p style=""font-size: 60px; font-family: BACS"">LNUrJkGua</p>","","","","","","","","",""
"html-keyboard-response","302","561266","0.0-14.0-0.51","5f33289c1fe9181376ee67d9","650c16f0f2faf8d7a0d14c09","651c3530d920409adf061c81","null","null","<p style=""font-size: 60px; font-family: BACS"">rLaZYaum</p>","","","","","","","","",""
"html-keyboard-response","303","562274","0.0-14.0-0.52","5f33289c1fe9181376ee67d9","650c16f0f2faf8d7a0d14c09","651c3530d920409adf061c81","null","null","<p style=""font-size: 60px; font-family: BACS"">tKDmhmhc</p>","","","","","","","","",""
"html-keyboard-response","304","563282","0.0-14.0-0.53","5f33289c1fe9181376ee67d9","650c16f0f2faf8d7a0d14c09","651c3530d920409adf061c81","null","null","<p style=""font-size: 60px; font-family: BACS"">EMbDPKOYC</p>","","","","","","","","",""
"html-keyboard-response","305","564300","0.0-14.0-0.54","5f33289c1fe9181376ee67d9","650c16f0f2faf8d7a0d14c09","651c3530d920409adf061c81","null","null","<p style=""font-size: 60px; font-family: BACS"">mUOcOkGua</p>","","","","","","","","",""
"html-keyboard-response","306","565306","0.0-14.0-0.55","5f33289c1fe9181376ee67d9","650c16f0f2faf8d7a0d14c09","651c3530d920409adf061c81","null","null","<p style=""font-size: 60px; font-family: BACS"">EMbDPcthB</p>","","","","","","","","",""
"html-keyboard-response","307","566328","0.0-14.0-0.56","5f33289c1fe9181376ee67d9","650c16f0f2faf8d7a0d14c09","651c3530d920409adf061c81","null","null","<p style=""font-size: 60px; font-family: BACS"">hBmMCKOYC</p>","","","","","","","","",""
"html-keyboard-response","308","567337","0.0-14.0-0.57","5f33289c1fe9181376ee67d9","650c16f0f2faf8d7a0d14c09","651c3530d920409adf061c81","null","null","<p style=""font-size: 60px; font-family: BACS"">RCcETAm</p>","","","","","","","","",""
"html-keyboard-response","309","568345","0.0-14.0-0.58","5f33289c1fe9181376ee67d9","650c16f0f2faf8d7a0d14c09","651c3530d920409adf061c81","null","null","<p style=""font-size: 60px; font-family: BACS"">LOLkUkGua</p>","","","","","","","","",""
"html-keyboard-response","310","569367","0.0-14.0-0.59","5f33289c1fe9181376ee67d9","650c16f0f2faf8d7a0d14c09","651c3530d920409adf061c81","null","null","<p style=""font-size: 60px; font-family: BACS"">RCcEbAMO</p>","","","","","","","","",""
"html-keyboard-response","311","570372","0.0-14.0-0.60","5f33289c1fe9181376ee67d9","650c16f0f2faf8d7a0d14c09","651c3530d920409adf061c81","null","null","<p style=""font-size: 60px; font-family: BACS"">rLaZNac</p>","","","","","","","","",""
"html-keyboard-response","312","571383","0.0-14.0-0.61","5f33289c1fe9181376ee67d9","650c16f0f2faf8d7a0d14c09","651c3530d920409adf061c81","null","null","<p style=""font-size: 60px; font-family: BACS"">OdlNmYaum</p>","","","","","","","","",""
"html-keyboard-response","313","572390","0.0-14.0-0.62","5f33289c1fe9181376ee67d9","650c16f0f2faf8d7a0d14c09","651c3530d920409adf061c81","null","null","<p style=""font-size: 60px; font-family: BACS"">LOLkUuvJ</p>","","","","","","","","",""
"html-keyboard-response","314","573393","0.0-14.0-0.63","5f33289c1fe9181376ee67d9","650c16f0f2faf8d7a0d14c09","651c3530d920409adf061c81","null","null","<p style=""font-size: 60px; font-family: BACS"">UdlGQYaum</p>","","","","","","","","",""
"html-keyboard-response","315","574409","0.0-14.0-0.64","5f33289c1fe9181376ee67d9","650c16f0f2faf8d7a0d14c09","651c3530d920409adf061c81","null","null","<p style=""font-size: 60px; font-family: BACS"">EMbDPTAm</p>","","","","","","","","",""
"html-keyboard-response","316","575417","0.0-14.0-0.65","5f33289c1fe9181376ee67d9","650c16f0f2faf8d7a0d14c09","651c3530d920409adf061c81","null","null","<p style=""font-size: 60px; font-family: BACS"">YdudYaum</p>","","","","","","","","",""
"html-keyboard-response","317","576425","0.0-14.0-0.66","5f33289c1fe9181376ee67d9","650c16f0f2faf8d7a0d14c09","651c3530d920409adf061c81","null","null","<p style=""font-size: 60px; font-family: BACS"">adkruvJ</p>","","","","","","","","",""
"html-keyboard-response","318","577434","0.0-14.0-0.67","5f33289c1fe9181376ee67d9","650c16f0f2faf8d7a0d14c09","651c3530d920409adf061c81","null","null","<p style=""font-size: 60px; font-family: BACS"">OdYPbAMO</p>","","","","","","","","",""
"html-keyboard-response","319","578441","0.0-14.0-0.68","5f33289c1fe9181376ee67d9","650c16f0f2faf8d7a0d14c09","651c3530d920409adf061c81","null","null","<p style=""font-size: 60px; font-family: BACS"">GJGcZuvJ</p>","","","","","","","","",""
"html-keyboard-response","320","579449","0.0-14.0-0.69","5f33289c1fe9181376ee67d9","650c16f0f2faf8d7a0d14c09","651c3530d920409adf061c81","null","null","<p style=""font-size: 60px; font-family: BACS"">adkrYaum</p>","","","","","","","","",""
"html-keyboard-response","321","580468","0.0-14.0-0.70","5f33289c1fe9181376ee67d9","650c16f0f2faf8d7a0d14c09","651c3530d920409adf061c81","null","null","<p style=""font-size: 60px; font-family: BACS"">MBKREKOYC</p>","","","","","","","","",""
"html-keyboard-response","322","581473","0.0-14.0-0.71","5f33289c1fe9181376ee67d9","650c16f0f2faf8d7a0d14c09","651c3530d920409adf061c81","null","null","<p style=""font-size: 60px; font-family: BACS"">rLaZkam</p>","","","","","","","","",""
"html-keyboard-response","323","582481","0.0-14.0-0.72","5f33289c1fe9181376ee67d9","650c16f0f2faf8d7a0d14c09","651c3530d920409adf061c81","null","null","<p style=""font-size: 60px; font-family: BACS"">ctktTAm</p>","","","","","","","","",""
"html-keyboard-response","324","583490","0.0-14.0-0.73","5f33289c1fe9181376ee67d9","650c16f0f2faf8d7a0d14c09","651c3530d920409adf061c81","null","null","<p style=""font-size: 60px; font-family: BACS"">GJGcZkam</p>","","","","","","","","",""
"html-keyboard-response","325","584499","0.0-14.0-0.74","5f33289c1fe9181376ee67d9","650c16f0f2faf8d7a0d14c09","651c3530d920409adf061c81","null","null","<p style=""font-size: 60px; font-family: BACS"">kMbTRTAm</p>","","","","","","","","",""
"html-keyboard-response","326","585505","0.0-14.0-0.75","5f33289c1fe9181376ee67d9","650c16f0f2faf8d7a0d14c09","651c3530d920409adf061c81","null","null","<p style=""font-size: 60px; font-family: BACS"">DCmhmhc</p>","","","","","","","","",""
"html-keyboard-response","327","586519","0.0-14.0-0.76","5f33289c1fe9181376ee67d9","650c16f0f2faf8d7a0d14c09","651c3530d920409adf061c81","null","null","<p style=""font-size: 60px; font-family: BACS"">tKDmhKOYC</p>","","","","","","","","",""
"html-keyboard-response","328","587521","0.0-14.0-0.77","5f33289c1fe9181376ee67d9","650c16f0f2faf8d7a0d14c09","651c3530d920409adf061c81","null","null","<p style=""font-size: 60px; font-family: BACS"">mUOcOYaum</p>","","","","","","","","",""
"html-keyboard-response","329","588529","0.0-14.0-0.78","5f33289c1fe9181376ee67d9","650c16f0f2faf8d7a0d14c09","651c3530d920409adf061c81","null","null","<p style=""font-size: 60px; font-family: BACS"">OAblcuvJ</p>","","","","","","","","",""
"html-keyboard-response","330","589545","0.0-14.0-0.79","5f33289c1fe9181376ee67d9","650c16f0f2faf8d7a0d14c09","651c3530d920409adf061c81","null","null","<p style=""font-size: 60px; font-family: BACS"">GJGcZkGua</p>","","","","","","","","",""
"html-keyboard-response","331","657288","0.0-15.0","5f33289c1fe9181376ee67d9","650c16f0f2faf8d7a0d14c09","651c3530d920409adf061c81","67742"," ","<p>Great, you've seen the fourth block of words. You may now take a short break.</p>
      <p>Press the spacebar when you're ready to continue.</p>","","","","","","","","",""
"html-keyboard-response","332","658297","0.0-16.0-0.0","5f33289c1fe9181376ee67d9","650c16f0f2faf8d7a0d14c09","651c3530d920409adf061c81","null","null","<p style=""font-size: 60px; font-family: BACS"">MBKREbAMO</p>","","","","","","","","",""
"html-keyboard-response","333","659315","0.0-16.0-0.1","5f33289c1fe9181376ee67d9","650c16f0f2faf8d7a0d14c09","651c3530d920409adf061c81","null","null","<p style=""font-size: 60px; font-family: BACS"">MBKREbAMO</p>","","","","","","","","",""
"html-keyboard-response","334","660322","0.0-16.0-0.2","5f33289c1fe9181376ee67d9","650c16f0f2faf8d7a0d14c09","651c3530d920409adf061c81","null","null","<p style=""font-size: 60px; font-family: BACS"">MBKREbAMO</p>","","","","","","","","",""
"html-keyboard-response","335","661329","0.0-16.0-0.3","5f33289c1fe9181376ee67d9","650c16f0f2faf8d7a0d14c09","651c3530d920409adf061c81","null","null","<p style=""font-size: 60px; font-family: BACS"">MBKREbAMO</p>","","","","","","","","",""
"html-keyboard-response","336","662348","0.0-16.0-0.4","5f33289c1fe9181376ee67d9","650c16f0f2faf8d7a0d14c09","651c3530d920409adf061c81","null","null","<p style=""font-size: 60px; font-family: BACS"">MBKREbAMO</p>","","","","","","","","",""
"html-keyboard-response","337","663354","0.0-16.0-0.5","5f33289c1fe9181376ee67d9","650c16f0f2faf8d7a0d14c09","651c3530d920409adf061c81","null","null","<p style=""font-size: 60px; font-family: BACS"">MBKREbAMO</p>","","","","","","","","",""
"html-keyboard-response","338","664362","0.0-16.0-0.6","5f33289c1fe9181376ee67d9","650c16f0f2faf8d7a0d14c09","651c3530d920409adf061c81","null","null","<p style=""font-size: 60px; font-family: BACS"">MBKREbAMO</p>","","","","","","","","",""
"html-keyboard-response","339","665370","0.0-16.0-0.7","5f33289c1fe9181376ee67d9","650c16f0f2faf8d7a0d14c09","651c3530d920409adf061c81","null","null","<p style=""font-size: 60px; font-family: BACS"">MBKREbAMO</p>","","","","","","","","",""
"html-keyboard-response","340","666377","0.0-16.0-0.8","5f33289c1fe9181376ee67d9","650c16f0f2faf8d7a0d14c09","651c3530d920409adf061c81","null","null","<p style=""font-size: 60px; font-family: BACS"">MBKREbAMO</p>","","","","","","","","",""
"html-keyboard-response","341","667394","0.0-16.0-0.9","5f33289c1fe9181376ee67d9","650c16f0f2faf8d7a0d14c09","651c3530d920409adf061c81","null","null","<p style=""font-size: 60px; font-family: BACS"">MBKREbAMO</p>","","","","","","","","",""
"html-keyboard-response","342","668406","0.0-16.0-0.10","5f33289c1fe9181376ee67d9","650c16f0f2faf8d7a0d14c09","651c3530d920409adf061c81","null","null","<p style=""font-size: 60px; font-family: BACS"">MBKREbAMO</p>","","","","","","","","",""
"html-keyboard-response","343","669409","0.0-16.0-0.11","5f33289c1fe9181376ee67d9","650c16f0f2faf8d7a0d14c09","651c3530d920409adf061c81","null","null","<p style=""font-size: 60px; font-family: BACS"">MBKREbAMO</p>","","","","","","","","",""
"html-keyboard-response","344","670417","0.0-16.0-0.12","5f33289c1fe9181376ee67d9","650c16f0f2faf8d7a0d14c09","651c3530d920409adf061c81","null","null","<p style=""font-size: 60px; font-family: BACS"">MBKREbAMO</p>","","","","","","","","",""
"html-keyboard-response","345","671425","0.0-16.0-0.13","5f33289c1fe9181376ee67d9","650c16f0f2faf8d7a0d14c09","651c3530d920409adf061c81","null","null","<p style=""font-size: 60px; font-family: BACS"">MBKREbAMO</p>","","","","","","","","",""
"html-keyboard-response","346","672442","0.0-16.0-0.14","5f33289c1fe9181376ee67d9","650c16f0f2faf8d7a0d14c09","651c3530d920409adf061c81","null","null","<p style=""font-size: 60px; font-family: BACS"">MBKREbAMO</p>","","","","","","","","",""
"html-keyboard-response","347","673453","0.0-16.0-0.15","5f33289c1fe9181376ee67d9","650c16f0f2faf8d7a0d14c09","651c3530d920409adf061c81","null","null","<p style=""font-size: 60px; font-family: BACS"">MBKREbAMO</p>","","","","","","","","",""
"html-keyboard-response","348","674457","0.0-16.0-0.16","5f33289c1fe9181376ee67d9","650c16f0f2faf8d7a0d14c09","651c3530d920409adf061c81","null","null","<p style=""font-size: 60px; font-family: BACS"">MBKREbAMO</p>","","","","","","","","",""
"html-keyboard-response","349","675465","0.0-16.0-0.17","5f33289c1fe9181376ee67d9","650c16f0f2faf8d7a0d14c09","651c3530d920409adf061c81","null","null","<p style=""font-size: 60px; font-family: BACS"">MBKREbAMO</p>","","","","","","","","",""
"html-keyboard-response","350","676488","0.0-16.0-0.18","5f33289c1fe9181376ee67d9","650c16f0f2faf8d7a0d14c09","651c3530d920409adf061c81","null","null","<p style=""font-size: 60px; font-family: BACS"">MBKREbAMO</p>","","","","","","","","",""
"html-keyboard-response","351","677489","0.0-16.0-0.19","5f33289c1fe9181376ee67d9","650c16f0f2faf8d7a0d14c09","651c3530d920409adf061c81","null","null","<p style=""font-size: 60px; font-family: BACS"">MBKREbAMO</p>","","","","","","","","",""
"html-keyboard-response","352","678497","0.0-16.0-0.20","5f33289c1fe9181376ee67d9","650c16f0f2faf8d7a0d14c09","651c3530d920409adf061c81","null","null","<p style=""font-size: 60px; font-family: BACS"">MBKREbAMO</p>","","","","","","","","",""
"html-keyboard-response","353","679506","0.0-16.0-0.21","5f33289c1fe9181376ee67d9","650c16f0f2faf8d7a0d14c09","651c3530d920409adf061c81","null","null","<p style=""font-size: 60px; font-family: BACS"">MBKREbAMO</p>","","","","","","","","",""
"html-keyboard-response","354","680515","0.0-16.0-0.22","5f33289c1fe9181376ee67d9","650c16f0f2faf8d7a0d14c09","651c3530d920409adf061c81","null","null","<p style=""font-size: 60px; font-family: BACS"">MBKREbAMO</p>","","","","","","","","",""
"html-keyboard-response","355","681522","0.0-16.0-0.23","5f33289c1fe9181376ee67d9","650c16f0f2faf8d7a0d14c09","651c3530d920409adf061c81","null","null","<p style=""font-size: 60px; font-family: BACS"">MBKREbAMO</p>","","","","","","","","",""
"html-keyboard-response","356","682529","0.0-16.0-0.24","5f33289c1fe9181376ee67d9","650c16f0f2faf8d7a0d14c09","651c3530d920409adf061c81","null","null","<p style=""font-size: 60px; font-family: BACS"">MBKREbAMO</p>","","","","","","","","",""
"html-keyboard-response","357","683543","0.0-16.0-0.25","5f33289c1fe9181376ee67d9","650c16f0f2faf8d7a0d14c09","651c3530d920409adf061c81","null","null","<p style=""font-size: 60px; font-family: BACS"">MBKREbAMO</p>","","","","","","","","",""
"html-keyboard-response","358","684546","0.0-16.0-0.26","5f33289c1fe9181376ee67d9","650c16f0f2faf8d7a0d14c09","651c3530d920409adf061c81","null","null","<p style=""font-size: 60px; font-family: BACS"">MBKREbAMO</p>","","","","","","","","",""
"html-keyboard-response","359","685564","0.0-16.0-0.27","5f33289c1fe9181376ee67d9","650c16f0f2faf8d7a0d14c09","651c3530d920409adf061c81","null","null","<p style=""font-size: 60px; font-family: BACS"">MBKREbAMO</p>","","","","","","","","",""
"html-keyboard-response","360","686569","0.0-16.0-0.28","5f33289c1fe9181376ee67d9","650c16f0f2faf8d7a0d14c09","651c3530d920409adf061c81","null","null","<p style=""font-size: 60px; font-family: BACS"">MBKREbAMO</p>","","","","","","","","",""
"html-keyboard-response","361","687578","0.0-16.0-0.29","5f33289c1fe9181376ee67d9","650c16f0f2faf8d7a0d14c09","651c3530d920409adf061c81","null","null","<p style=""font-size: 60px; font-family: BACS"">MBKREbAMO</p>","","","","","","","","",""
"html-keyboard-response","362","688585","0.0-16.0-0.30","5f33289c1fe9181376ee67d9","650c16f0f2faf8d7a0d14c09","651c3530d920409adf061c81","null","null","<p style=""font-size: 60px; font-family: BACS"">MBKREbAMO</p>","","","","","","","","",""
"html-keyboard-response","363","689594","0.0-16.0-0.31","5f33289c1fe9181376ee67d9","650c16f0f2faf8d7a0d14c09","651c3530d920409adf061c81","null","null","<p style=""font-size: 60px; font-family: BACS"">MBKREbAMO</p>","","","","","","","","",""
"html-keyboard-response","364","690602","0.0-16.0-0.32","5f33289c1fe9181376ee67d9","650c16f0f2faf8d7a0d14c09","651c3530d920409adf061c81","null","null","<p style=""font-size: 60px; font-family: BACS"">MBKREbAMO</p>","","","","","","","","",""
"html-keyboard-response","365","691625","0.0-16.0-0.33","5f33289c1fe9181376ee67d9","650c16f0f2faf8d7a0d14c09","651c3530d920409adf061c81","null","null","<p style=""font-size: 60px; font-family: BACS"">MBKREbAMO</p>","","","","","","","","",""
"html-keyboard-response","366","692649","0.0-16.0-0.34","5f33289c1fe9181376ee67d9","650c16f0f2faf8d7a0d14c09","651c3530d920409adf061c81","null","null","<p style=""font-size: 60px; font-family: BACS"">MBKREbAMO</p>","","","","","","","","",""
"html-keyboard-response","367","693657","0.0-16.0-0.35","5f33289c1fe9181376ee67d9","650c16f0f2faf8d7a0d14c09","651c3530d920409adf061c81","null","null","<p style=""font-size: 60px; font-family: BACS"">MBKREbAMO</p>","","","","","","","","",""
"html-keyboard-response","368","694670","0.0-16.0-0.36","5f33289c1fe9181376ee67d9","650c16f0f2faf8d7a0d14c09","651c3530d920409adf061c81","null","null","<p style=""font-size: 60px; font-family: BACS"">MBKREbAMO</p>","","","","","","","","",""
"html-keyboard-response","369","695673","0.0-16.0-0.37","5f33289c1fe9181376ee67d9","650c16f0f2faf8d7a0d14c09","651c3530d920409adf061c81","null","null","<p style=""font-size: 60px; font-family: BACS"">MBKREbAMO</p>","","","","","","","","",""
"html-keyboard-response","370","696688","0.0-16.0-0.38","5f33289c1fe9181376ee67d9","650c16f0f2faf8d7a0d14c09","651c3530d920409adf061c81","null","null","<p style=""font-size: 60px; font-family: BACS"">MBKREbAMO</p>","","","","","","","","",""
"html-keyboard-response","371","697689","0.0-16.0-0.39","5f33289c1fe9181376ee67d9","650c16f0f2faf8d7a0d14c09","651c3530d920409adf061c81","null","null","<p style=""font-size: 60px; font-family: BACS"">MBKREbAMO</p>","","","","","","","","",""
"html-keyboard-response","372","698707","0.0-16.0-0.40","5f33289c1fe9181376ee67d9","650c16f0f2faf8d7a0d14c09","651c3530d920409adf061c81","null","null","<p style=""font-size: 60px; font-family: BACS"">MBKREbAMO</p>","","","","","","","","",""
"html-keyboard-response","373","699714","0.0-16.0-0.41","5f33289c1fe9181376ee67d9","650c16f0f2faf8d7a0d14c09","651c3530d920409adf061c81","null","null","<p style=""font-size: 60px; font-family: BACS"">MBKREbAMO</p>","","","","","","","","",""
"html-keyboard-response","374","700722","0.0-16.0-0.42","5f33289c1fe9181376ee67d9","650c16f0f2faf8d7a0d14c09","651c3530d920409adf061c81","null","null","<p style=""font-size: 60px; font-family: BACS"">MBKREbAMO</p>","","","","","","","","",""
"html-keyboard-response","375","701730","0.0-16.0-0.43","5f33289c1fe9181376ee67d9","650c16f0f2faf8d7a0d14c09","651c3530d920409adf061c81","null","null","<p style=""font-size: 60px; font-family: BACS"">MBKREbAMO</p>","","","","","","","","",""
"html-keyboard-response","376","702738","0.0-16.0-0.44","5f33289c1fe9181376ee67d9","650c16f0f2faf8d7a0d14c09","651c3530d920409adf061c81","null","null","<p style=""font-size: 60px; font-family: BACS"">MBKREbAMO</p>","","","","","","","","",""
"html-keyboard-response","377","703748","0.0-16.0-0.45","5f33289c1fe9181376ee67d9","650c16f0f2faf8d7a0d14c09","651c3530d920409adf061c81","null","null","<p style=""font-size: 60px; font-family: BACS"">MBKREbAMO</p>","","","","","","","","",""
"html-keyboard-response","378","704753","0.0-16.0-0.46","5f33289c1fe9181376ee67d9","650c16f0f2faf8d7a0d14c09","651c3530d920409adf061c81","null","null","<p style=""font-size: 60px; font-family: BACS"">MBKREbAMO</p>","","","","","","","","",""
"html-keyboard-response","379","705768","0.0-16.0-0.47","5f33289c1fe9181376ee67d9","650c16f0f2faf8d7a0d14c09","651c3530d920409adf061c81","null","null","<p style=""font-size: 60px; font-family: BACS"">MBKREbAMO</p>","","","","","","","","",""
"html-keyboard-response","380","706792","0.0-16.0-0.48","5f33289c1fe9181376ee67d9","650c16f0f2faf8d7a0d14c09","651c3530d920409adf061c81","null","null","<p style=""font-size: 60px; font-family: BACS"">MBKREbAMO</p>","","","","","","","","",""
"html-keyboard-response","381","707803","0.0-16.0-0.49","5f33289c1fe9181376ee67d9","650c16f0f2faf8d7a0d14c09","651c3530d920409adf061c81","null","null","<p style=""font-size: 60px; font-family: BACS"">MBKREbAMO</p>","","","","","","","","",""
"html-keyboard-response","382","708809","0.0-16.0-0.50","5f33289c1fe9181376ee67d9","650c16f0f2faf8d7a0d14c09","651c3530d920409adf061c81","null","null","<p style=""font-size: 60px; font-family: BACS"">MBKREbAMO</p>","","","","","","","","",""
"html-keyboard-response","383","709817","0.0-16.0-0.51","5f33289c1fe9181376ee67d9","650c16f0f2faf8d7a0d14c09","651c3530d920409adf061c81","null","null","<p style=""font-size: 60px; font-family: BACS"">MBKREbAMO</p>","","","","","","","","",""
"html-keyboard-response","384","710825","0.0-16.0-0.52","5f33289c1fe9181376ee67d9","650c16f0f2faf8d7a0d14c09","651c3530d920409adf061c81","null","null","<p style=""font-size: 60px; font-family: BACS"">MBKREbAMO</p>","","","","","","","","",""
"html-keyboard-response","385","711834","0.0-16.0-0.53","5f33289c1fe9181376ee67d9","650c16f0f2faf8d7a0d14c09","651c3530d920409adf061c81","null","null","<p style=""font-size: 60px; font-family: BACS"">MBKREbAMO</p>","","","","","","","","",""
"html-keyboard-response","386","712841","0.0-16.0-0.54","5f33289c1fe9181376ee67d9","650c16f0f2faf8d7a0d14c09","651c3530d920409adf061c81","null","null","<p style=""font-size: 60px; font-family: BACS"">MBKREbAMO</p>","","","","","","","","",""
"html-keyboard-response","387","713850","0.0-16.0-0.55","5f33289c1fe9181376ee67d9","650c16f0f2faf8d7a0d14c09","651c3530d920409adf061c81","null","null","<p style=""font-size: 60px; font-family: BACS"">MBKREbAMO</p>","","","","","","","","",""
"html-keyboard-response","388","714857","0.0-16.0-0.56","5f33289c1fe9181376ee67d9","650c16f0f2faf8d7a0d14c09","651c3530d920409adf061c81","null","null","<p style=""font-size: 60px; font-family: BACS"">MBKREbAMO</p>","","","","","","","","",""
"html-keyboard-response","389","715865","0.0-16.0-0.57","5f33289c1fe9181376ee67d9","650c16f0f2faf8d7a0d14c09","651c3530d920409adf061c81","null","null","<p style=""font-size: 60px; font-family: BACS"">MBKREbAMO</p>","","","","","","","","",""
"html-keyboard-response","390","716886","0.0-16.0-0.58","5f33289c1fe9181376ee67d9","650c16f0f2faf8d7a0d14c09","651c3530d920409adf061c81","null","null","<p style=""font-size: 60px; font-family: BACS"">MBKREbAMO</p>","","","","","","","","",""
"html-keyboard-response","391","717889","0.0-16.0-0.59","5f33289c1fe9181376ee67d9","650c16f0f2faf8d7a0d14c09","651c3530d920409adf061c81","null","null","<p style=""font-size: 60px; font-family: BACS"">MBKREbAMO</p>","","","","","","","","",""
"html-keyboard-response","392","718905","0.0-16.0-0.60","5f33289c1fe9181376ee67d9","650c16f0f2faf8d7a0d14c09","651c3530d920409adf061c81","null","null","<p style=""font-size: 60px; font-family: BACS"">MBKREbAMO</p>","","","","","","","","",""
"html-keyboard-response","393","719913","0.0-16.0-0.61","5f33289c1fe9181376ee67d9","650c16f0f2faf8d7a0d14c09","651c3530d920409adf061c81","null","null","<p style=""font-size: 60px; font-family: BACS"">MBKREbAMO</p>","","","","","","","","",""
"html-keyboard-response","394","720923","0.0-16.0-0.62","5f33289c1fe9181376ee67d9","650c16f0f2faf8d7a0d14c09","651c3530d920409adf061c81","null","null","<p style=""font-size: 60px; font-family: BACS"">MBKREbAMO</p>","","","","","","","","",""
"html-keyboard-response","395","721929","0.0-16.0-0.63","5f33289c1fe9181376ee67d9","650c16f0f2faf8d7a0d14c09","651c3530d920409adf061c81","null","null","<p style=""font-size: 60px; font-family: BACS"">MBKREbAMO</p>","","","","","","","","",""
"html-keyboard-response","396","722937","0.0-16.0-0.64","5f33289c1fe9181376ee67d9","650c16f0f2faf8d7a0d14c09","651c3530d920409adf061c81","null","null","<p style=""font-size: 60px; font-family: BACS"">MBKREbAMO</p>","","","","","","","","",""
"html-keyboard-response","397","723950","0.0-16.0-0.65","5f33289c1fe9181376ee67d9","650c16f0f2faf8d7a0d14c09","651c3530d920409adf061c81","null","null","<p style=""font-size: 60px; font-family: BACS"">MBKREbAMO</p>","","","","","","","","",""
"html-keyboard-response","398","724953","0.0-16.0-0.66","5f33289c1fe9181376ee67d9","650c16f0f2faf8d7a0d14c09","651c3530d920409adf061c81","null","null","<p style=""font-size: 60px; font-family: BACS"">MBKREbAMO</p>","","","","","","","","",""
"html-keyboard-response","399","725976","0.0-16.0-0.67","5f33289c1fe9181376ee67d9","650c16f0f2faf8d7a0d14c09","651c3530d920409adf061c81","null","null","<p style=""font-size: 60px; font-family: BACS"">MBKREbAMO</p>","","","","","","","","",""
