"trial_type","trial_index","time_elapsed","internal_node_id","subject_id","study_id","session_id","rt","response","stimulus","success","item","task","correct_response","testing_condition","correct","target","confound","name"
"pavlovia","0","671","0.0-0.0","5c5baaec192d350001d5c8e4","64e77d7b61f440b60e28659d","64eca321089040d77da8d120","","","","","","","","","","","",""
"survey-html-form","1","21239","0.0-1.0","5c5baaec192d350001d5c8e4","64e77d7b61f440b60e28659d","64eca321089040d77da8d120","20567","{""ID"":""5c5baaec192d350001d5c8e4""}","","","","","","","","","",""
"html-keyboard-response","2","25471","0.0-2.0","5c5baaec192d350001d5c8e4","64e77d7b61f440b60e28659d","64eca321089040d77da8d120","4232"," ","<p style=""font-size: 15px;"">Before beginning, we ask that you read the consent information and confirm your agreement to participate in the experiment.</p>
      <p style=""font-size: 15px;""> We ask that you remember that this is a research project and that your participation is entirely voluntary. You can stop your participation at any time, without needing to provide any explanation. The study we're asking you to participate in aims at examining how readers process written words. You will be engaged in a session of apprximately 20 minutes, followed by a brief questionnaire. You will have the opportunity to take a few breaks during the experiment. You will be paid £4 for your participation, corresponding to a rate of £8/hour. While this experiment looks at cognitive faculties, this experiment doesn't constitute clinical proof of eventual pathologies.</p>
      <p style=""font-size: 15px;"">All of the information collected thanks to yours and others' participation will be held in a secure password-protected server, and will not be shared with anyone not authorised to view it. Your personal information will be kept with an arbitrary participant ID. Thanks to this data anonymity process, any researcher analysing the data won't be able to track the information back to a specific participant. Therefore, this process will make identifying you impossibile, even when results from the study will be published in scientific reviews, presented at congresses, or at any other public forum. More generally, the collected data will be treated in accordance with the laws on privacy and conformity to the Legislative Degree n. 196 ""Code regarding the protection of personal data"" of the 30th of June 2003 and to the European Regulation 2016/670 (General Data Protection Regulation - GDPR). The Data Protection Officer is Avv. Valentina Carollo, who can be contacted at the following email addresses: <a href=""mailto:dpo@sissa.it"">dpo@sissa.it</a> or <a href=""mailto:rpd@sissa.it"">rpd@sissa.it</a> - PEC: <a href=""mailto:protocollo@pec.sissa.it"">protocollo@pec.sissa.it</a>.</p>
      <p style=""font-size: 15px;""> Before expressing your consent to participate, we would like to remind you again that in case you need explanations on any aspect of the experimental procedure, the researcher is at your disposition (<a href=""mailto:aliebelt@sissa.it"">aliebelt@sissa.it</a>, <a href=""mailto:davide.crepaldi@sissa.it"">davide.crepaldi@sissa.it</a>).</p>
      <p style=""font-size: 15px;"">If you would like to download the informed consent form, you can do so here: <a href=""BASL-Informed_Consent.pdf"" download>informed consent form</a>.</p>
      <p style=""font-size: 15px;"">We ask that you press the spacebar to proceed to the consent section.</p>","","","","","","","","",""
"survey-html-form","3","30663","0.0-3.0","5c5baaec192d350001d5c8e4","64e77d7b61f440b60e28659d","64eca321089040d77da8d120","5191","{""consent1"":""YES"",""consent2"":""YES"",""consent3"":""YES"",""consent4"":""YES"",""consent5"":""YES"",""consent6"":""YES""}","","","","","","","","","",""
"fullscreen","4","34189","0.0-4.0","5c5baaec192d350001d5c8e4","64e77d7b61f440b60e28659d","64eca321089040d77da8d120","","","","true","","","","","","","",""
"html-keyboard-response","5","53111","0.0-5.0","5c5baaec192d350001d5c8e4","64e77d7b61f440b60e28659d","64eca321089040d77da8d120","18921"," ","<p>Welcome, and thank you very much for your time!</p>
      <p>In this experiment, you'll be a language expert who's been asked to take a look at words that Earth has received in its first communication with aliens. Your task, in this first part of the experiment, is to pay close attention to the words you'll be shown; later, world leaders will ask you questions on what you saw. The words will be shown to you quite quickly; it seems that the aliens were in a hurry :-)</p>
      <p>Press the spacebar to continue.<p>","","","","","","","","",""
"html-keyboard-response","6","60078","0.0-6.0","5c5baaec192d350001d5c8e4","64e77d7b61f440b60e28659d","64eca321089040d77da8d120","6968"," ","<p>Here is an example of the words you'll see:</p>
      <img src='esempio.png' height='400px'>
      <p>When you're ready to begin, press the spacebar.</p></div>","","","","","","","","",""
"html-keyboard-response","7","61091","0.0-7.0-0.0","5c5baaec192d350001d5c8e4","64e77d7b61f440b60e28659d","64eca321089040d77da8d120","null","null","<p style=""font-size: 60px; font-family: BACS"">QcladkmU</p>","","","","","","","","",""
"html-keyboard-response","8","62100","0.0-7.0-0.1","5c5baaec192d350001d5c8e4","64e77d7b61f440b60e28659d","64eca321089040d77da8d120","null","null","<p style=""font-size: 60px; font-family: BACS"">YuaNdcUN</p>","","","","","","","","",""
"html-keyboard-response","9","63101","0.0-7.0-0.2","5c5baaec192d350001d5c8e4","64e77d7b61f440b60e28659d","64eca321089040d77da8d120","null","null","<p style=""font-size: 60px; font-family: BACS"">bcbMmCd</p>","","","","","","","","",""
"html-keyboard-response","10","64102","0.0-7.0-0.3","5c5baaec192d350001d5c8e4","64e77d7b61f440b60e28659d","64eca321089040d77da8d120","null","null","<p style=""font-size: 60px; font-family: BACS"">kdaAJcUN</p>","","","","","","","","",""
"html-keyboard-response","11","65103","0.0-7.0-0.4","5c5baaec192d350001d5c8e4","64e77d7b61f440b60e28659d","64eca321089040d77da8d120","null","null","<p style=""font-size: 60px; font-family: BACS"">COTKmtKP</p>","","","","","","","","",""
"html-keyboard-response","12","66107","0.0-7.0-0.5","5c5baaec192d350001d5c8e4","64e77d7b61f440b60e28659d","64eca321089040d77da8d120","null","null","<p style=""font-size: 60px; font-family: BACS"">kdaAJrULv</p>","","","","","","","","",""
"html-keyboard-response","13","67113","0.0-7.0-0.6","5c5baaec192d350001d5c8e4","64e77d7b61f440b60e28659d","64eca321089040d77da8d120","null","null","<p style=""font-size: 60px; font-family: BACS"">PEtEYbBT</p>","","","","","","","","",""
"html-keyboard-response","14","68115","0.0-7.0-0.7","5c5baaec192d350001d5c8e4","64e77d7b61f440b60e28659d","64eca321089040d77da8d120","null","null","<p style=""font-size: 60px; font-family: BACS"">BPAlmAM</p>","","","","","","","","",""
"html-keyboard-response","15","69117","0.0-7.0-0.8","5c5baaec192d350001d5c8e4","64e77d7b61f440b60e28659d","64eca321089040d77da8d120","null","null","<p style=""font-size: 60px; font-family: BACS"">EMYKmtKP</p>","","","","","","","","",""
"html-keyboard-response","16","70118","0.0-7.0-0.9","5c5baaec192d350001d5c8e4","64e77d7b61f440b60e28659d","64eca321089040d77da8d120","null","null","<p style=""font-size: 60px; font-family: BACS"">ZNLOvOQAr</p>","","","","","","","","",""
"html-keyboard-response","17","71122","0.0-7.0-0.10","5c5baaec192d350001d5c8e4","64e77d7b61f440b60e28659d","64eca321089040d77da8d120","null","null","<p style=""font-size: 60px; font-family: BACS"">OYuvbkYL</p>","","","","","","","","",""
"html-keyboard-response","18","72131","0.0-7.0-0.11","5c5baaec192d350001d5c8e4","64e77d7b61f440b60e28659d","64eca321089040d77da8d120","null","null","<p style=""font-size: 60px; font-family: BACS"">COTKOPE</p>","","","","","","","","",""
"html-keyboard-response","19","73133","0.0-7.0-0.12","5c5baaec192d350001d5c8e4","64e77d7b61f440b60e28659d","64eca321089040d77da8d120","null","null","<p style=""font-size: 60px; font-family: BACS"">TPCbmAM</p>","","","","","","","","",""
"html-keyboard-response","20","74134","0.0-7.0-0.13","5c5baaec192d350001d5c8e4","64e77d7b61f440b60e28659d","64eca321089040d77da8d120","null","null","<p style=""font-size: 60px; font-family: BACS"">OYuvbcUN</p>","","","","","","","","",""
"html-keyboard-response","21","75142","0.0-7.0-0.14","5c5baaec192d350001d5c8e4","64e77d7b61f440b60e28659d","64eca321089040d77da8d120","null","null","<p style=""font-size: 60px; font-family: BACS"">ZNLOvrULv</p>","","","","","","","","",""
"html-keyboard-response","22","76153","0.0-7.0-0.15","5c5baaec192d350001d5c8e4","64e77d7b61f440b60e28659d","64eca321089040d77da8d120","null","null","<p style=""font-size: 60px; font-family: BACS"">QLrOJkYL</p>","","","","","","","","",""
"html-keyboard-response","23","77163","0.0-7.0-0.16","5c5baaec192d350001d5c8e4","64e77d7b61f440b60e28659d","64eca321089040d77da8d120","null","null","<p style=""font-size: 60px; font-family: BACS"">TPCbYbBT</p>","","","","","","","","",""
"html-keyboard-response","24","78174","0.0-7.0-0.17","5c5baaec192d350001d5c8e4","64e77d7b61f440b60e28659d","64eca321089040d77da8d120","null","null","<p style=""font-size: 60px; font-family: BACS"">PEkhAmAM</p>","","","","","","","","",""
"html-keyboard-response","25","79175","0.0-7.0-0.18","5c5baaec192d350001d5c8e4","64e77d7b61f440b60e28659d","64eca321089040d77da8d120","null","null","<p style=""font-size: 60px; font-family: BACS"">QcladrULv</p>","","","","","","","","",""
"html-keyboard-response","26","80190","0.0-7.0-0.19","5c5baaec192d350001d5c8e4","64e77d7b61f440b60e28659d","64eca321089040d77da8d120","null","null","<p style=""font-size: 60px; font-family: BACS"">EMYKmCd</p>","","","","","","","","",""
"html-keyboard-response","27","81202","0.0-7.0-0.20","5c5baaec192d350001d5c8e4","64e77d7b61f440b60e28659d","64eca321089040d77da8d120","null","null","<p style=""font-size: 60px; font-family: BACS"">PEtEmAM</p>","","","","","","","","",""
"html-keyboard-response","28","82203","0.0-7.0-0.21","5c5baaec192d350001d5c8e4","64e77d7b61f440b60e28659d","64eca321089040d77da8d120","null","null","<p style=""font-size: 60px; font-family: BACS"">BPAlYbBT</p>","","","","","","","","",""
"html-keyboard-response","29","83204","0.0-7.0-0.22","5c5baaec192d350001d5c8e4","64e77d7b61f440b60e28659d","64eca321089040d77da8d120","null","null","<p style=""font-size: 60px; font-family: BACS"">PEtEmtKP</p>","","","","","","","","",""
"html-keyboard-response","30","84210","0.0-7.0-0.23","5c5baaec192d350001d5c8e4","64e77d7b61f440b60e28659d","64eca321089040d77da8d120","null","null","<p style=""font-size: 60px; font-family: BACS"">ZNLOvkYL</p>","","","","","","","","",""
"html-keyboard-response","31","85218","0.0-7.0-0.24","5c5baaec192d350001d5c8e4","64e77d7b61f440b60e28659d","64eca321089040d77da8d120","null","null","<p style=""font-size: 60px; font-family: BACS"">PhktkmtKP</p>","","","","","","","","",""
"html-keyboard-response","32","86226","0.0-7.0-0.25","5c5baaec192d350001d5c8e4","64e77d7b61f440b60e28659d","64eca321089040d77da8d120","null","null","<p style=""font-size: 60px; font-family: BACS"">lmbYrULv</p>","","","","","","","","",""
"html-keyboard-response","33","87237","0.0-7.0-0.26","5c5baaec192d350001d5c8e4","64e77d7b61f440b60e28659d","64eca321089040d77da8d120","null","null","<p style=""font-size: 60px; font-family: BACS"">PhktkYbBT</p>","","","","","","","","",""
"html-keyboard-response","34","88239","0.0-7.0-0.27","5c5baaec192d350001d5c8e4","64e77d7b61f440b60e28659d","64eca321089040d77da8d120","null","null","<p style=""font-size: 60px; font-family: BACS"">YuaNdrULv</p>","","","","","","","","",""
"html-keyboard-response","35","89254","0.0-7.0-0.28","5c5baaec192d350001d5c8e4","64e77d7b61f440b60e28659d","64eca321089040d77da8d120","null","null","<p style=""font-size: 60px; font-family: BACS"">TPCbmtKP</p>","","","","","","","","",""
"html-keyboard-response","36","90266","0.0-7.0-0.29","5c5baaec192d350001d5c8e4","64e77d7b61f440b60e28659d","64eca321089040d77da8d120","null","null","<p style=""font-size: 60px; font-family: BACS"">dNZArULv</p>","","","","","","","","",""
"html-keyboard-response","37","91270","0.0-7.0-0.30","5c5baaec192d350001d5c8e4","64e77d7b61f440b60e28659d","64eca321089040d77da8d120","null","null","<p style=""font-size: 60px; font-family: BACS"">KTDTBmAM</p>","","","","","","","","",""
"html-keyboard-response","38","92279","0.0-7.0-0.31","5c5baaec192d350001d5c8e4","64e77d7b61f440b60e28659d","64eca321089040d77da8d120","null","null","<p style=""font-size: 60px; font-family: BACS"">bcbMOPE</p>","","","","","","","","",""
"html-keyboard-response","39","93280","0.0-7.0-0.32","5c5baaec192d350001d5c8e4","64e77d7b61f440b60e28659d","64eca321089040d77da8d120","null","null","<p style=""font-size: 60px; font-family: BACS"">YuaNdkmU</p>","","","","","","","","",""
"html-keyboard-response","40","94281","0.0-7.0-0.33","5c5baaec192d350001d5c8e4","64e77d7b61f440b60e28659d","64eca321089040d77da8d120","null","null","<p style=""font-size: 60px; font-family: BACS"">lKdbcmCd</p>","","","","","","","","",""
"html-keyboard-response","41","95292","0.0-7.0-0.34","5c5baaec192d350001d5c8e4","64e77d7b61f440b60e28659d","64eca321089040d77da8d120","null","null","<p style=""font-size: 60px; font-family: BACS"">ZdNmUrULv</p>","","","","","","","","",""
"html-keyboard-response","42","96293","0.0-7.0-0.35","5c5baaec192d350001d5c8e4","64e77d7b61f440b60e28659d","64eca321089040d77da8d120","null","null","<p style=""font-size: 60px; font-family: BACS"">lmbYkYL</p>","","","","","","","","",""
"html-keyboard-response","43","97306","0.0-7.0-0.36","5c5baaec192d350001d5c8e4","64e77d7b61f440b60e28659d","64eca321089040d77da8d120","null","null","<p style=""font-size: 60px; font-family: BACS"">krGucUN</p>","","","","","","","","",""
"html-keyboard-response","44","98307","0.0-7.0-0.37","5c5baaec192d350001d5c8e4","64e77d7b61f440b60e28659d","64eca321089040d77da8d120","null","null","<p style=""font-size: 60px; font-family: BACS"">PEkhAmCd</p>","","","","","","","","",""
"html-keyboard-response","45","99320","0.0-7.0-0.38","5c5baaec192d350001d5c8e4","64e77d7b61f440b60e28659d","64eca321089040d77da8d120","null","null","<p style=""font-size: 60px; font-family: BACS"">TPCbOPE</p>","","","","","","","","",""
"html-keyboard-response","46","100321","0.0-7.0-0.39","5c5baaec192d350001d5c8e4","64e77d7b61f440b60e28659d","64eca321089040d77da8d120","null","null","<p style=""font-size: 60px; font-family: BACS"">dNZAkYL</p>","","","","","","","","",""
"html-keyboard-response","47","101323","0.0-7.0-0.40","5c5baaec192d350001d5c8e4","64e77d7b61f440b60e28659d","64eca321089040d77da8d120","null","null","<p style=""font-size: 60px; font-family: BACS"">PEtEOPE</p>","","","","","","","","",""
"html-keyboard-response","48","102337","0.0-7.0-0.41","5c5baaec192d350001d5c8e4","64e77d7b61f440b60e28659d","64eca321089040d77da8d120","null","null","<p style=""font-size: 60px; font-family: BACS"">ZNLOvkmU</p>","","","","","","","","",""
"html-keyboard-response","49","103343","0.0-7.0-0.42","5c5baaec192d350001d5c8e4","64e77d7b61f440b60e28659d","64eca321089040d77da8d120","null","null","<p style=""font-size: 60px; font-family: BACS"">krGuOQAr</p>","","","","","","","","",""
"html-keyboard-response","50","104356","0.0-7.0-0.43","5c5baaec192d350001d5c8e4","64e77d7b61f440b60e28659d","64eca321089040d77da8d120","null","null","<p style=""font-size: 60px; font-family: BACS"">QLrOJkmU</p>","","","","","","","","",""
"html-keyboard-response","51","105358","0.0-7.0-0.44","5c5baaec192d350001d5c8e4","64e77d7b61f440b60e28659d","64eca321089040d77da8d120","null","null","<p style=""font-size: 60px; font-family: BACS"">bcbMmtKP</p>","","","","","","","","",""
"html-keyboard-response","52","106360","0.0-7.0-0.45","5c5baaec192d350001d5c8e4","64e77d7b61f440b60e28659d","64eca321089040d77da8d120","null","null","<p style=""font-size: 60px; font-family: BACS"">kdaAJkYL</p>","","","","","","","","",""
"html-keyboard-response","53","107361","0.0-7.0-0.46","5c5baaec192d350001d5c8e4","64e77d7b61f440b60e28659d","64eca321089040d77da8d120","null","null","<p style=""font-size: 60px; font-family: BACS"">KTDTBOPE</p>","","","","","","","","",""
"html-keyboard-response","54","108362","0.0-7.0-0.47","5c5baaec192d350001d5c8e4","64e77d7b61f440b60e28659d","64eca321089040d77da8d120","null","null","<p style=""font-size: 60px; font-family: BACS"">YuaNdkYL</p>","","","","","","","","",""
"html-keyboard-response","55","109363","0.0-7.0-0.48","5c5baaec192d350001d5c8e4","64e77d7b61f440b60e28659d","64eca321089040d77da8d120","null","null","<p style=""font-size: 60px; font-family: BACS"">OYuvbOQAr</p>","","","","","","","","",""
"html-keyboard-response","56","110368","0.0-7.0-0.49","5c5baaec192d350001d5c8e4","64e77d7b61f440b60e28659d","64eca321089040d77da8d120","null","null","<p style=""font-size: 60px; font-family: BACS"">ZdNmUkmU</p>","","","","","","","","",""
"html-keyboard-response","57","111376","0.0-7.0-0.50","5c5baaec192d350001d5c8e4","64e77d7b61f440b60e28659d","64eca321089040d77da8d120","null","null","<p style=""font-size: 60px; font-family: BACS"">QLrOJOQAr</p>","","","","","","","","",""
"html-keyboard-response","58","112381","0.0-7.0-0.51","5c5baaec192d350001d5c8e4","64e77d7b61f440b60e28659d","64eca321089040d77da8d120","null","null","<p style=""font-size: 60px; font-family: BACS"">COTKmCd</p>","","","","","","","","",""
"html-keyboard-response","59","113392","0.0-7.0-0.52","5c5baaec192d350001d5c8e4","64e77d7b61f440b60e28659d","64eca321089040d77da8d120","null","null","<p style=""font-size: 60px; font-family: BACS"">EMYKYbBT</p>","","","","","","","","",""
"html-keyboard-response","60","114407","0.0-7.0-0.53","5c5baaec192d350001d5c8e4","64e77d7b61f440b60e28659d","64eca321089040d77da8d120","null","null","<p style=""font-size: 60px; font-family: BACS"">PhktkmCd</p>","","","","","","","","",""
"html-keyboard-response","61","115419","0.0-7.0-0.54","5c5baaec192d350001d5c8e4","64e77d7b61f440b60e28659d","64eca321089040d77da8d120","null","null","<p style=""font-size: 60px; font-family: BACS"">ZdNmUOQAr</p>","","","","","","","","",""
"html-keyboard-response","62","116433","0.0-7.0-0.55","5c5baaec192d350001d5c8e4","64e77d7b61f440b60e28659d","64eca321089040d77da8d120","null","null","<p style=""font-size: 60px; font-family: BACS"">PhktkOPE</p>","","","","","","","","",""
"html-keyboard-response","63","117442","0.0-7.0-0.56","5c5baaec192d350001d5c8e4","64e77d7b61f440b60e28659d","64eca321089040d77da8d120","null","null","<p style=""font-size: 60px; font-family: BACS"">lKdbcmAM</p>","","","","","","","","",""
"html-keyboard-response","64","118448","0.0-7.0-0.57","5c5baaec192d350001d5c8e4","64e77d7b61f440b60e28659d","64eca321089040d77da8d120","null","null","<p style=""font-size: 60px; font-family: BACS"">PEkhAmtKP</p>","","","","","","","","",""
"html-keyboard-response","65","119455","0.0-7.0-0.58","5c5baaec192d350001d5c8e4","64e77d7b61f440b60e28659d","64eca321089040d77da8d120","null","null","<p style=""font-size: 60px; font-family: BACS"">BPAlmCd</p>","","","","","","","","",""
"html-keyboard-response","66","120469","0.0-7.0-0.59","5c5baaec192d350001d5c8e4","64e77d7b61f440b60e28659d","64eca321089040d77da8d120","null","null","<p style=""font-size: 60px; font-family: BACS"">QcladcUN</p>","","","","","","","","",""
"html-keyboard-response","67","121480","0.0-7.0-0.60","5c5baaec192d350001d5c8e4","64e77d7b61f440b60e28659d","64eca321089040d77da8d120","null","null","<p style=""font-size: 60px; font-family: BACS"">lmbYkmU</p>","","","","","","","","",""
"html-keyboard-response","68","122489","0.0-7.0-0.61","5c5baaec192d350001d5c8e4","64e77d7b61f440b60e28659d","64eca321089040d77da8d120","null","null","<p style=""font-size: 60px; font-family: BACS"">BPAlOPE</p>","","","","","","","","",""
"html-keyboard-response","69","123490","0.0-7.0-0.62","5c5baaec192d350001d5c8e4","64e77d7b61f440b60e28659d","64eca321089040d77da8d120","null","null","<p style=""font-size: 60px; font-family: BACS"">KTDTBmCd</p>","","","","","","","","",""
"html-keyboard-response","70","124505","0.0-7.0-0.63","5c5baaec192d350001d5c8e4","64e77d7b61f440b60e28659d","64eca321089040d77da8d120","null","null","<p style=""font-size: 60px; font-family: BACS"">krGukYL</p>","","","","","","","","",""
"html-keyboard-response","71","125517","0.0-7.0-0.64","5c5baaec192d350001d5c8e4","64e77d7b61f440b60e28659d","64eca321089040d77da8d120","null","null","<p style=""font-size: 60px; font-family: BACS"">dNZAOQAr</p>","","","","","","","","",""
"html-keyboard-response","72","126524","0.0-7.0-0.65","5c5baaec192d350001d5c8e4","64e77d7b61f440b60e28659d","64eca321089040d77da8d120","null","null","<p style=""font-size: 60px; font-family: BACS"">bcbMYbBT</p>","","","","","","","","",""
"html-keyboard-response","73","127533","0.0-7.0-0.66","5c5baaec192d350001d5c8e4","64e77d7b61f440b60e28659d","64eca321089040d77da8d120","null","null","<p style=""font-size: 60px; font-family: BACS"">lmbYOQAr</p>","","","","","","","","",""
"html-keyboard-response","74","128534","0.0-7.0-0.67","5c5baaec192d350001d5c8e4","64e77d7b61f440b60e28659d","64eca321089040d77da8d120","null","null","<p style=""font-size: 60px; font-family: BACS"">ZdNmUcUN</p>","","","","","","","","",""
"html-keyboard-response","75","129535","0.0-7.0-0.68","5c5baaec192d350001d5c8e4","64e77d7b61f440b60e28659d","64eca321089040d77da8d120","null","null","<p style=""font-size: 60px; font-family: BACS"">COTKmAM</p>","","","","","","","","",""
"html-keyboard-response","76","130536","0.0-7.0-0.69","5c5baaec192d350001d5c8e4","64e77d7b61f440b60e28659d","64eca321089040d77da8d120","null","null","<p style=""font-size: 60px; font-family: BACS"">QLrOJcUN</p>","","","","","","","","",""
"html-keyboard-response","77","131543","0.0-7.0-0.70","5c5baaec192d350001d5c8e4","64e77d7b61f440b60e28659d","64eca321089040d77da8d120","null","null","<p style=""font-size: 60px; font-family: BACS"">kdaAJkmU</p>","","","","","","","","",""
"html-keyboard-response","78","132552","0.0-7.0-0.71","5c5baaec192d350001d5c8e4","64e77d7b61f440b60e28659d","64eca321089040d77da8d120","null","null","<p style=""font-size: 60px; font-family: BACS"">lKdbcYbBT</p>","","","","","","","","",""
"html-keyboard-response","79","133559","0.0-7.0-0.72","5c5baaec192d350001d5c8e4","64e77d7b61f440b60e28659d","64eca321089040d77da8d120","null","null","<p style=""font-size: 60px; font-family: BACS"">dNZAcUN</p>","","","","","","","","",""
"html-keyboard-response","80","134569","0.0-7.0-0.73","5c5baaec192d350001d5c8e4","64e77d7b61f440b60e28659d","64eca321089040d77da8d120","null","null","<p style=""font-size: 60px; font-family: BACS"">EMYKmAM</p>","","","","","","","","",""
"html-keyboard-response","81","135570","0.0-7.0-0.74","5c5baaec192d350001d5c8e4","64e77d7b61f440b60e28659d","64eca321089040d77da8d120","null","null","<p style=""font-size: 60px; font-family: BACS"">QcladOQAr</p>","","","","","","","","",""
"html-keyboard-response","82","136571","0.0-7.0-0.75","5c5baaec192d350001d5c8e4","64e77d7b61f440b60e28659d","64eca321089040d77da8d120","null","null","<p style=""font-size: 60px; font-family: BACS"">KTDTBmtKP</p>","","","","","","","","",""
"html-keyboard-response","83","137579","0.0-7.0-0.76","5c5baaec192d350001d5c8e4","64e77d7b61f440b60e28659d","64eca321089040d77da8d120","null","null","<p style=""font-size: 60px; font-family: BACS"">krGurULv</p>","","","","","","","","",""
"html-keyboard-response","84","138590","0.0-7.0-0.77","5c5baaec192d350001d5c8e4","64e77d7b61f440b60e28659d","64eca321089040d77da8d120","null","null","<p style=""font-size: 60px; font-family: BACS"">PEkhAYbBT</p>","","","","","","","","",""
"html-keyboard-response","85","139600","0.0-7.0-0.78","5c5baaec192d350001d5c8e4","64e77d7b61f440b60e28659d","64eca321089040d77da8d120","null","null","<p style=""font-size: 60px; font-family: BACS"">lKdbcOPE</p>","","","","","","","","",""
"html-keyboard-response","86","140601","0.0-7.0-0.79","5c5baaec192d350001d5c8e4","64e77d7b61f440b60e28659d","64eca321089040d77da8d120","null","null","<p style=""font-size: 60px; font-family: BACS"">OYuvbkmU</p>","","","","","","","","",""
"html-keyboard-response","87","227966","0.0-8.0","5c5baaec192d350001d5c8e4","64e77d7b61f440b60e28659d","64eca321089040d77da8d120","87365"," ","<p>Great, you've seen the first block of words. You may now take a short break.</p>
      <p>Press the spacebar when you're ready to continue.</p>","","","","","","","","",""
"html-keyboard-response","88","228983","0.0-9.0-0.0","5c5baaec192d350001d5c8e4","64e77d7b61f440b60e28659d","64eca321089040d77da8d120","null","null","<p style=""font-size: 60px; font-family: BACS"">PhktkOPE</p>","","","","","","","","",""
"html-keyboard-response","89","229984","0.0-9.0-0.1","5c5baaec192d350001d5c8e4","64e77d7b61f440b60e28659d","64eca321089040d77da8d120","null","null","<p style=""font-size: 60px; font-family: BACS"">kdaAJkmU</p>","","","","","","","","",""
"html-keyboard-response","90","230985","0.0-9.0-0.2","5c5baaec192d350001d5c8e4","64e77d7b61f440b60e28659d","64eca321089040d77da8d120","null","null","<p style=""font-size: 60px; font-family: BACS"">KTDTBmCd</p>","","","","","","","","",""
"html-keyboard-response","91","231994","0.0-9.0-0.3","5c5baaec192d350001d5c8e4","64e77d7b61f440b60e28659d","64eca321089040d77da8d120","null","null","<p style=""font-size: 60px; font-family: BACS"">ZNLOvkYL</p>","","","","","","","","",""
"html-keyboard-response","92","233007","0.0-9.0-0.4","5c5baaec192d350001d5c8e4","64e77d7b61f440b60e28659d","64eca321089040d77da8d120","null","null","<p style=""font-size: 60px; font-family: BACS"">PEkhAmCd</p>","","","","","","","","",""
"html-keyboard-response","93","234018","0.0-9.0-0.5","5c5baaec192d350001d5c8e4","64e77d7b61f440b60e28659d","64eca321089040d77da8d120","null","null","<p style=""font-size: 60px; font-family: BACS"">TPCbmtKP</p>","","","","","","","","",""
"html-keyboard-response","94","235026","0.0-9.0-0.6","5c5baaec192d350001d5c8e4","64e77d7b61f440b60e28659d","64eca321089040d77da8d120","null","null","<p style=""font-size: 60px; font-family: BACS"">COTKOPE</p>","","","","","","","","",""
"html-keyboard-response","95","236036","0.0-9.0-0.7","5c5baaec192d350001d5c8e4","64e77d7b61f440b60e28659d","64eca321089040d77da8d120","null","null","<p style=""font-size: 60px; font-family: BACS"">QcladrULv</p>","","","","","","","","",""
"html-keyboard-response","96","237044","0.0-9.0-0.8","5c5baaec192d350001d5c8e4","64e77d7b61f440b60e28659d","64eca321089040d77da8d120","null","null","<p style=""font-size: 60px; font-family: BACS"">KTDTBOPE</p>","","","","","","","","",""
"html-keyboard-response","97","238055","0.0-9.0-0.9","5c5baaec192d350001d5c8e4","64e77d7b61f440b60e28659d","64eca321089040d77da8d120","null","null","<p style=""font-size: 60px; font-family: BACS"">kdaAJrULv</p>","","","","","","","","",""
"html-keyboard-response","98","239067","0.0-9.0-0.10","5c5baaec192d350001d5c8e4","64e77d7b61f440b60e28659d","64eca321089040d77da8d120","null","null","<p style=""font-size: 60px; font-family: BACS"">ZNLOvkmU</p>","","","","","","","","",""
"html-keyboard-response","99","240072","0.0-9.0-0.11","5c5baaec192d350001d5c8e4","64e77d7b61f440b60e28659d","64eca321089040d77da8d120","null","null","<p style=""font-size: 60px; font-family: BACS"">kdaAJkYL</p>","","","","","","","","",""
"html-keyboard-response","100","241083","0.0-9.0-0.12","5c5baaec192d350001d5c8e4","64e77d7b61f440b60e28659d","64eca321089040d77da8d120","null","null","<p style=""font-size: 60px; font-family: BACS"">PEkhAmAM</p>","","","","","","","","",""
"html-keyboard-response","101","242091","0.0-9.0-0.13","5c5baaec192d350001d5c8e4","64e77d7b61f440b60e28659d","64eca321089040d77da8d120","null","null","<p style=""font-size: 60px; font-family: BACS"">OYuvbkmU</p>","","","","","","","","",""
"html-keyboard-response","102","243093","0.0-9.0-0.14","5c5baaec192d350001d5c8e4","64e77d7b61f440b60e28659d","64eca321089040d77da8d120","null","null","<p style=""font-size: 60px; font-family: BACS"">ZNLOvOQAr</p>","","","","","","","","",""
"html-keyboard-response","103","244094","0.0-9.0-0.15","5c5baaec192d350001d5c8e4","64e77d7b61f440b60e28659d","64eca321089040d77da8d120","null","null","<p style=""font-size: 60px; font-family: BACS"">PEtEYbBT</p>","","","","","","","","",""
"html-keyboard-response","104","245107","0.0-9.0-0.16","5c5baaec192d350001d5c8e4","64e77d7b61f440b60e28659d","64eca321089040d77da8d120","null","null","<p style=""font-size: 60px; font-family: BACS"">dNZAOQAr</p>","","","","","","","","",""
"html-keyboard-response","105","246119","0.0-9.0-0.17","5c5baaec192d350001d5c8e4","64e77d7b61f440b60e28659d","64eca321089040d77da8d120","null","null","<p style=""font-size: 60px; font-family: BACS"">BPAlmCd</p>","","","","","","","","",""
"html-keyboard-response","106","247129","0.0-9.0-0.18","5c5baaec192d350001d5c8e4","64e77d7b61f440b60e28659d","64eca321089040d77da8d120","null","null","<p style=""font-size: 60px; font-family: BACS"">PEtEmAM</p>","","","","","","","","",""
"html-keyboard-response","107","248137","0.0-9.0-0.19","5c5baaec192d350001d5c8e4","64e77d7b61f440b60e28659d","64eca321089040d77da8d120","null","null","<p style=""font-size: 60px; font-family: BACS"">krGuOQAr</p>","","","","","","","","",""
"html-keyboard-response","108","249152","0.0-9.0-0.20","5c5baaec192d350001d5c8e4","64e77d7b61f440b60e28659d","64eca321089040d77da8d120","null","null","<p style=""font-size: 60px; font-family: BACS"">PEkhAYbBT</p>","","","","","","","","",""
"html-keyboard-response","109","250158","0.0-9.0-0.21","5c5baaec192d350001d5c8e4","64e77d7b61f440b60e28659d","64eca321089040d77da8d120","null","null","<p style=""font-size: 60px; font-family: BACS"">lKdbcmAM</p>","","","","","","","","",""
"html-keyboard-response","110","251169","0.0-9.0-0.22","5c5baaec192d350001d5c8e4","64e77d7b61f440b60e28659d","64eca321089040d77da8d120","null","null","<p style=""font-size: 60px; font-family: BACS"">YuaNdkYL</p>","","","","","","","","",""
"html-keyboard-response","111","252170","0.0-9.0-0.23","5c5baaec192d350001d5c8e4","64e77d7b61f440b60e28659d","64eca321089040d77da8d120","null","null","<p style=""font-size: 60px; font-family: BACS"">kdaAJcUN</p>","","","","","","","","",""
"html-keyboard-response","112","253179","0.0-9.0-0.24","5c5baaec192d350001d5c8e4","64e77d7b61f440b60e28659d","64eca321089040d77da8d120","null","null","<p style=""font-size: 60px; font-family: BACS"">COTKmAM</p>","","","","","","","","",""
"html-keyboard-response","113","254189","0.0-9.0-0.25","5c5baaec192d350001d5c8e4","64e77d7b61f440b60e28659d","64eca321089040d77da8d120","null","null","<p style=""font-size: 60px; font-family: BACS"">EMYKYbBT</p>","","","","","","","","",""
"html-keyboard-response","114","255199","0.0-9.0-0.26","5c5baaec192d350001d5c8e4","64e77d7b61f440b60e28659d","64eca321089040d77da8d120","null","null","<p style=""font-size: 60px; font-family: BACS"">OYuvbOQAr</p>","","","","","","","","",""
"html-keyboard-response","115","256201","0.0-9.0-0.27","5c5baaec192d350001d5c8e4","64e77d7b61f440b60e28659d","64eca321089040d77da8d120","null","null","<p style=""font-size: 60px; font-family: BACS"">BPAlOPE</p>","","","","","","","","",""
"html-keyboard-response","116","257202","0.0-9.0-0.28","5c5baaec192d350001d5c8e4","64e77d7b61f440b60e28659d","64eca321089040d77da8d120","null","null","<p style=""font-size: 60px; font-family: BACS"">PhktkYbBT</p>","","","","","","","","",""
"html-keyboard-response","117","258203","0.0-9.0-0.29","5c5baaec192d350001d5c8e4","64e77d7b61f440b60e28659d","64eca321089040d77da8d120","null","null","<p style=""font-size: 60px; font-family: BACS"">PEtEmtKP</p>","","","","","","","","",""
"html-keyboard-response","118","259204","0.0-9.0-0.30","5c5baaec192d350001d5c8e4","64e77d7b61f440b60e28659d","64eca321089040d77da8d120","null","null","<p style=""font-size: 60px; font-family: BACS"">lmbYkYL</p>","","","","","","","","",""
"html-keyboard-response","119","260218","0.0-9.0-0.31","5c5baaec192d350001d5c8e4","64e77d7b61f440b60e28659d","64eca321089040d77da8d120","null","null","<p style=""font-size: 60px; font-family: BACS"">ZdNmUcUN</p>","","","","","","","","",""
"html-keyboard-response","120","261230","0.0-9.0-0.32","5c5baaec192d350001d5c8e4","64e77d7b61f440b60e28659d","64eca321089040d77da8d120","null","null","<p style=""font-size: 60px; font-family: BACS"">TPCbYbBT</p>","","","","","","","","",""
"html-keyboard-response","121","262230","0.0-9.0-0.33","5c5baaec192d350001d5c8e4","64e77d7b61f440b60e28659d","64eca321089040d77da8d120","null","null","<p style=""font-size: 60px; font-family: BACS"">PEtEOPE</p>","","","","","","","","",""
"html-keyboard-response","122","263231","0.0-9.0-0.34","5c5baaec192d350001d5c8e4","64e77d7b61f440b60e28659d","64eca321089040d77da8d120","null","null","<p style=""font-size: 60px; font-family: BACS"">OYuvbkYL</p>","","","","","","","","",""
"html-keyboard-response","123","264240","0.0-9.0-0.35","5c5baaec192d350001d5c8e4","64e77d7b61f440b60e28659d","64eca321089040d77da8d120","null","null","<p style=""font-size: 60px; font-family: BACS"">PEkhAmtKP</p>","","","","","","","","",""
"html-keyboard-response","124","265241","0.0-9.0-0.36","5c5baaec192d350001d5c8e4","64e77d7b61f440b60e28659d","64eca321089040d77da8d120","null","null","<p style=""font-size: 60px; font-family: BACS"">ZdNmUrULv</p>","","","","","","","","",""
"html-keyboard-response","125","266256","0.0-9.0-0.37","5c5baaec192d350001d5c8e4","64e77d7b61f440b60e28659d","64eca321089040d77da8d120","null","null","<p style=""font-size: 60px; font-family: BACS"">PhktkmCd</p>","","","","","","","","",""
"html-keyboard-response","126","267263","0.0-9.0-0.38","5c5baaec192d350001d5c8e4","64e77d7b61f440b60e28659d","64eca321089040d77da8d120","null","null","<p style=""font-size: 60px; font-family: BACS"">bcbMmtKP</p>","","","","","","","","",""
"html-keyboard-response","127","268264","0.0-9.0-0.39","5c5baaec192d350001d5c8e4","64e77d7b61f440b60e28659d","64eca321089040d77da8d120","null","null","<p style=""font-size: 60px; font-family: BACS"">YuaNdrULv</p>","","","","","","","","",""
"html-keyboard-response","128","269279","0.0-9.0-0.40","5c5baaec192d350001d5c8e4","64e77d7b61f440b60e28659d","64eca321089040d77da8d120","null","null","<p style=""font-size: 60px; font-family: BACS"">BPAlmAM</p>","","","","","","","","",""
"html-keyboard-response","129","270287","0.0-9.0-0.41","5c5baaec192d350001d5c8e4","64e77d7b61f440b60e28659d","64eca321089040d77da8d120","null","null","<p style=""font-size: 60px; font-family: BACS"">dNZAkYL</p>","","","","","","","","",""
"html-keyboard-response","130","271287","0.0-9.0-0.42","5c5baaec192d350001d5c8e4","64e77d7b61f440b60e28659d","64eca321089040d77da8d120","null","null","<p style=""font-size: 60px; font-family: BACS"">KTDTBmAM</p>","","","","","","","","",""
"html-keyboard-response","131","272300","0.0-9.0-0.43","5c5baaec192d350001d5c8e4","64e77d7b61f440b60e28659d","64eca321089040d77da8d120","null","null","<p style=""font-size: 60px; font-family: BACS"">ZNLOvrULv</p>","","","","","","","","",""
"html-keyboard-response","132","273305","0.0-9.0-0.44","5c5baaec192d350001d5c8e4","64e77d7b61f440b60e28659d","64eca321089040d77da8d120","null","null","<p style=""font-size: 60px; font-family: BACS"">QLrOJkmU</p>","","","","","","","","",""
"html-keyboard-response","133","274317","0.0-9.0-0.45","5c5baaec192d350001d5c8e4","64e77d7b61f440b60e28659d","64eca321089040d77da8d120","null","null","<p style=""font-size: 60px; font-family: BACS"">krGukYL</p>","","","","","","","","",""
"html-keyboard-response","134","275318","0.0-9.0-0.46","5c5baaec192d350001d5c8e4","64e77d7b61f440b60e28659d","64eca321089040d77da8d120","null","null","<p style=""font-size: 60px; font-family: BACS"">lKdbcmCd</p>","","","","","","","","",""
"html-keyboard-response","135","276333","0.0-9.0-0.47","5c5baaec192d350001d5c8e4","64e77d7b61f440b60e28659d","64eca321089040d77da8d120","null","null","<p style=""font-size: 60px; font-family: BACS"">YuaNdkmU</p>","","","","","","","","",""
"html-keyboard-response","136","277342","0.0-9.0-0.48","5c5baaec192d350001d5c8e4","64e77d7b61f440b60e28659d","64eca321089040d77da8d120","null","null","<p style=""font-size: 60px; font-family: BACS"">EMYKmtKP</p>","","","","","","","","",""
"html-keyboard-response","137","278352","0.0-9.0-0.49","5c5baaec192d350001d5c8e4","64e77d7b61f440b60e28659d","64eca321089040d77da8d120","null","null","<p style=""font-size: 60px; font-family: BACS"">TPCbmAM</p>","","","","","","","","",""
"html-keyboard-response","138","279354","0.0-9.0-0.50","5c5baaec192d350001d5c8e4","64e77d7b61f440b60e28659d","64eca321089040d77da8d120","null","null","<p style=""font-size: 60px; font-family: BACS"">ZdNmUkmU</p>","","","","","","","","",""
"html-keyboard-response","139","280354","0.0-9.0-0.51","5c5baaec192d350001d5c8e4","64e77d7b61f440b60e28659d","64eca321089040d77da8d120","null","null","<p style=""font-size: 60px; font-family: BACS"">COTKmtKP</p>","","","","","","","","",""
"html-keyboard-response","140","281356","0.0-9.0-0.52","5c5baaec192d350001d5c8e4","64e77d7b61f440b60e28659d","64eca321089040d77da8d120","null","null","<p style=""font-size: 60px; font-family: BACS"">TPCbOPE</p>","","","","","","","","",""
"html-keyboard-response","141","282370","0.0-9.0-0.53","5c5baaec192d350001d5c8e4","64e77d7b61f440b60e28659d","64eca321089040d77da8d120","null","null","<p style=""font-size: 60px; font-family: BACS"">lmbYrULv</p>","","","","","","","","",""
"html-keyboard-response","142","283370","0.0-9.0-0.54","5c5baaec192d350001d5c8e4","64e77d7b61f440b60e28659d","64eca321089040d77da8d120","null","null","<p style=""font-size: 60px; font-family: BACS"">EMYKmAM</p>","","","","","","","","",""
"html-keyboard-response","143","284385","0.0-9.0-0.55","5c5baaec192d350001d5c8e4","64e77d7b61f440b60e28659d","64eca321089040d77da8d120","null","null","<p style=""font-size: 60px; font-family: BACS"">lKdbcOPE</p>","","","","","","","","",""
"html-keyboard-response","144","285400","0.0-9.0-0.56","5c5baaec192d350001d5c8e4","64e77d7b61f440b60e28659d","64eca321089040d77da8d120","null","null","<p style=""font-size: 60px; font-family: BACS"">bcbMmCd</p>","","","","","","","","",""
"html-keyboard-response","145","286408","0.0-9.0-0.57","5c5baaec192d350001d5c8e4","64e77d7b61f440b60e28659d","64eca321089040d77da8d120","null","null","<p style=""font-size: 60px; font-family: BACS"">QLrOJkYL</p>","","","","","","","","",""
"html-keyboard-response","146","287410","0.0-9.0-0.58","5c5baaec192d350001d5c8e4","64e77d7b61f440b60e28659d","64eca321089040d77da8d120","null","null","<p style=""font-size: 60px; font-family: BACS"">EMYKmCd</p>","","","","","","","","",""
"html-keyboard-response","147","288421","0.0-9.0-0.59","5c5baaec192d350001d5c8e4","64e77d7b61f440b60e28659d","64eca321089040d77da8d120","null","null","<p style=""font-size: 60px; font-family: BACS"">lmbYkmU</p>","","","","","","","","",""
"html-keyboard-response","148","289432","0.0-9.0-0.60","5c5baaec192d350001d5c8e4","64e77d7b61f440b60e28659d","64eca321089040d77da8d120","null","null","<p style=""font-size: 60px; font-family: BACS"">KTDTBmtKP</p>","","","","","","","","",""
"html-keyboard-response","149","290441","0.0-9.0-0.61","5c5baaec192d350001d5c8e4","64e77d7b61f440b60e28659d","64eca321089040d77da8d120","null","null","<p style=""font-size: 60px; font-family: BACS"">bcbMYbBT</p>","","","","","","","","",""
"html-keyboard-response","150","291455","0.0-9.0-0.62","5c5baaec192d350001d5c8e4","64e77d7b61f440b60e28659d","64eca321089040d77da8d120","null","null","<p style=""font-size: 60px; font-family: BACS"">krGurULv</p>","","","","","","","","",""
"html-keyboard-response","151","292467","0.0-9.0-0.63","5c5baaec192d350001d5c8e4","64e77d7b61f440b60e28659d","64eca321089040d77da8d120","null","null","<p style=""font-size: 60px; font-family: BACS"">COTKmCd</p>","","","","","","","","",""
"html-keyboard-response","152","293468","0.0-9.0-0.64","5c5baaec192d350001d5c8e4","64e77d7b61f440b60e28659d","64eca321089040d77da8d120","null","null","<p style=""font-size: 60px; font-family: BACS"">BPAlYbBT</p>","","","","","","","","",""
"html-keyboard-response","153","294475","0.0-9.0-0.65","5c5baaec192d350001d5c8e4","64e77d7b61f440b60e28659d","64eca321089040d77da8d120","null","null","<p style=""font-size: 60px; font-family: BACS"">QcladkmU</p>","","","","","","","","",""
"html-keyboard-response","154","295486","0.0-9.0-0.66","5c5baaec192d350001d5c8e4","64e77d7b61f440b60e28659d","64eca321089040d77da8d120","null","null","<p style=""font-size: 60px; font-family: BACS"">QLrOJcUN</p>","","","","","","","","",""
"html-keyboard-response","155","296498","0.0-9.0-0.67","5c5baaec192d350001d5c8e4","64e77d7b61f440b60e28659d","64eca321089040d77da8d120","null","null","<p style=""font-size: 60px; font-family: BACS"">ZdNmUOQAr</p>","","","","","","","","",""
"html-keyboard-response","156","297502","0.0-9.0-0.68","5c5baaec192d350001d5c8e4","64e77d7b61f440b60e28659d","64eca321089040d77da8d120","null","null","<p style=""font-size: 60px; font-family: BACS"">YuaNdcUN</p>","","","","","","","","",""
"html-keyboard-response","157","298503","0.0-9.0-0.69","5c5baaec192d350001d5c8e4","64e77d7b61f440b60e28659d","64eca321089040d77da8d120","null","null","<p style=""font-size: 60px; font-family: BACS"">lKdbcYbBT</p>","","","","","","","","",""
"html-keyboard-response","158","299519","0.0-9.0-0.70","5c5baaec192d350001d5c8e4","64e77d7b61f440b60e28659d","64eca321089040d77da8d120","null","null","<p style=""font-size: 60px; font-family: BACS"">krGucUN</p>","","","","","","","","",""
"html-keyboard-response","159","300529","0.0-9.0-0.71","5c5baaec192d350001d5c8e4","64e77d7b61f440b60e28659d","64eca321089040d77da8d120","null","null","<p style=""font-size: 60px; font-family: BACS"">dNZArULv</p>","","","","","","","","",""
"html-keyboard-response","160","301537","0.0-9.0-0.72","5c5baaec192d350001d5c8e4","64e77d7b61f440b60e28659d","64eca321089040d77da8d120","null","null","<p style=""font-size: 60px; font-family: BACS"">lmbYOQAr</p>","","","","","","","","",""
"html-keyboard-response","161","302550","0.0-9.0-0.73","5c5baaec192d350001d5c8e4","64e77d7b61f440b60e28659d","64eca321089040d77da8d120","null","null","<p style=""font-size: 60px; font-family: BACS"">dNZAcUN</p>","","","","","","","","",""
"html-keyboard-response","162","303551","0.0-9.0-0.74","5c5baaec192d350001d5c8e4","64e77d7b61f440b60e28659d","64eca321089040d77da8d120","null","null","<p style=""font-size: 60px; font-family: BACS"">QcladOQAr</p>","","","","","","","","",""
"html-keyboard-response","163","304563","0.0-9.0-0.75","5c5baaec192d350001d5c8e4","64e77d7b61f440b60e28659d","64eca321089040d77da8d120","null","null","<p style=""font-size: 60px; font-family: BACS"">OYuvbcUN</p>","","","","","","","","",""
"html-keyboard-response","164","305571","0.0-9.0-0.76","5c5baaec192d350001d5c8e4","64e77d7b61f440b60e28659d","64eca321089040d77da8d120","null","null","<p style=""font-size: 60px; font-family: BACS"">PhktkmtKP</p>","","","","","","","","",""
"html-keyboard-response","165","306579","0.0-9.0-0.77","5c5baaec192d350001d5c8e4","64e77d7b61f440b60e28659d","64eca321089040d77da8d120","null","null","<p style=""font-size: 60px; font-family: BACS"">QLrOJOQAr</p>","","","","","","","","",""
"html-keyboard-response","166","307585","0.0-9.0-0.78","5c5baaec192d350001d5c8e4","64e77d7b61f440b60e28659d","64eca321089040d77da8d120","null","null","<p style=""font-size: 60px; font-family: BACS"">bcbMOPE</p>","","","","","","","","",""
"html-keyboard-response","167","308600","0.0-9.0-0.79","5c5baaec192d350001d5c8e4","64e77d7b61f440b60e28659d","64eca321089040d77da8d120","null","null","<p style=""font-size: 60px; font-family: BACS"">QcladcUN</p>","","","","","","","","",""
"html-keyboard-response","168","310383","0.0-10.0","5c5baaec192d350001d5c8e4","64e77d7b61f440b60e28659d","64eca321089040d77da8d120","1782"," ","<p>Great, you've seen the second block of words. You may now take a short break.</p>
      <p>Press the spacebar when you're ready to continue.</p>","","","","","","","","",""
"html-keyboard-response","169","311398","0.0-11.0-0.0","5c5baaec192d350001d5c8e4","64e77d7b61f440b60e28659d","64eca321089040d77da8d120","null","null","<p style=""font-size: 60px; font-family: BACS"">TPCbmtKP</p>","","","","","","","","",""
"html-keyboard-response","170","312404","0.0-11.0-0.1","5c5baaec192d350001d5c8e4","64e77d7b61f440b60e28659d","64eca321089040d77da8d120","null","null","<p style=""font-size: 60px; font-family: BACS"">ZNLOvOQAr</p>","","","","","","","","",""
"html-keyboard-response","171","313413","0.0-11.0-0.2","5c5baaec192d350001d5c8e4","64e77d7b61f440b60e28659d","64eca321089040d77da8d120","null","null","<p style=""font-size: 60px; font-family: BACS"">EMYKmAM</p>","","","","","","","","",""
"html-keyboard-response","172","314426","0.0-11.0-0.3","5c5baaec192d350001d5c8e4","64e77d7b61f440b60e28659d","64eca321089040d77da8d120","null","null","<p style=""font-size: 60px; font-family: BACS"">kdaAJrULv</p>","","","","","","","","",""
"html-keyboard-response","173","315438","0.0-11.0-0.4","5c5baaec192d350001d5c8e4","64e77d7b61f440b60e28659d","64eca321089040d77da8d120","null","null","<p style=""font-size: 60px; font-family: BACS"">KTDTBmCd</p>","","","","","","","","",""
"html-keyboard-response","174","316447","0.0-11.0-0.5","5c5baaec192d350001d5c8e4","64e77d7b61f440b60e28659d","64eca321089040d77da8d120","null","null","<p style=""font-size: 60px; font-family: BACS"">ZNLOvrULv</p>","","","","","","","","",""
"html-keyboard-response","175","317459","0.0-11.0-0.6","5c5baaec192d350001d5c8e4","64e77d7b61f440b60e28659d","64eca321089040d77da8d120","null","null","<p style=""font-size: 60px; font-family: BACS"">OYuvbkmU</p>","","","","","","","","",""
"html-keyboard-response","176","318466","0.0-11.0-0.7","5c5baaec192d350001d5c8e4","64e77d7b61f440b60e28659d","64eca321089040d77da8d120","null","null","<p style=""font-size: 60px; font-family: BACS"">PhktkYbBT</p>","","","","","","","","",""
"html-keyboard-response","177","319470","0.0-11.0-0.8","5c5baaec192d350001d5c8e4","64e77d7b61f440b60e28659d","64eca321089040d77da8d120","null","null","<p style=""font-size: 60px; font-family: BACS"">COTKmCd</p>","","","","","","","","",""
"html-keyboard-response","178","320471","0.0-11.0-0.9","5c5baaec192d350001d5c8e4","64e77d7b61f440b60e28659d","64eca321089040d77da8d120","null","null","<p style=""font-size: 60px; font-family: BACS"">PEtEOPE</p>","","","","","","","","",""
"html-keyboard-response","179","321485","0.0-11.0-0.10","5c5baaec192d350001d5c8e4","64e77d7b61f440b60e28659d","64eca321089040d77da8d120","null","null","<p style=""font-size: 60px; font-family: BACS"">lKdbcYbBT</p>","","","","","","","","",""
"html-keyboard-response","180","322486","0.0-11.0-0.11","5c5baaec192d350001d5c8e4","64e77d7b61f440b60e28659d","64eca321089040d77da8d120","null","null","<p style=""font-size: 60px; font-family: BACS"">krGucUN</p>","","","","","","","","",""
"html-keyboard-response","181","323502","0.0-11.0-0.12","5c5baaec192d350001d5c8e4","64e77d7b61f440b60e28659d","64eca321089040d77da8d120","null","null","<p style=""font-size: 60px; font-family: BACS"">PEtEmtKP</p>","","","","","","","","",""
"html-keyboard-response","182","324515","0.0-11.0-0.13","5c5baaec192d350001d5c8e4","64e77d7b61f440b60e28659d","64eca321089040d77da8d120","null","null","<p style=""font-size: 60px; font-family: BACS"">lKdbcmAM</p>","","","","","","","","",""
"html-keyboard-response","183","325525","0.0-11.0-0.14","5c5baaec192d350001d5c8e4","64e77d7b61f440b60e28659d","64eca321089040d77da8d120","null","null","<p style=""font-size: 60px; font-family: BACS"">kdaAJkmU</p>","","","","","","","","",""
"html-keyboard-response","184","326527","0.0-11.0-0.15","5c5baaec192d350001d5c8e4","64e77d7b61f440b60e28659d","64eca321089040d77da8d120","null","null","<p style=""font-size: 60px; font-family: BACS"">lmbYOQAr</p>","","","","","","","","",""
"html-keyboard-response","185","327538","0.0-11.0-0.16","5c5baaec192d350001d5c8e4","64e77d7b61f440b60e28659d","64eca321089040d77da8d120","null","null","<p style=""font-size: 60px; font-family: BACS"">QcladrULv</p>","","","","","","","","",""
"html-keyboard-response","186","328545","0.0-11.0-0.17","5c5baaec192d350001d5c8e4","64e77d7b61f440b60e28659d","64eca321089040d77da8d120","null","null","<p style=""font-size: 60px; font-family: BACS"">EMYKmCd</p>","","","","","","","","",""
"html-keyboard-response","187","329557","0.0-11.0-0.18","5c5baaec192d350001d5c8e4","64e77d7b61f440b60e28659d","64eca321089040d77da8d120","null","null","<p style=""font-size: 60px; font-family: BACS"">ZdNmUcUN</p>","","","","","","","","",""
"html-keyboard-response","188","330569","0.0-11.0-0.19","5c5baaec192d350001d5c8e4","64e77d7b61f440b60e28659d","64eca321089040d77da8d120","null","null","<p style=""font-size: 60px; font-family: BACS"">PhktkmCd</p>","","","","","","","","",""
"html-keyboard-response","189","331570","0.0-11.0-0.20","5c5baaec192d350001d5c8e4","64e77d7b61f440b60e28659d","64eca321089040d77da8d120","null","null","<p style=""font-size: 60px; font-family: BACS"">QcladOQAr</p>","","","","","","","","",""
"html-keyboard-response","190","332574","0.0-11.0-0.21","5c5baaec192d350001d5c8e4","64e77d7b61f440b60e28659d","64eca321089040d77da8d120","null","null","<p style=""font-size: 60px; font-family: BACS"">PhktkOPE</p>","","","","","","","","",""
"html-keyboard-response","191","333587","0.0-11.0-0.22","5c5baaec192d350001d5c8e4","64e77d7b61f440b60e28659d","64eca321089040d77da8d120","null","null","<p style=""font-size: 60px; font-family: BACS"">dNZAkYL</p>","","","","","","","","",""
"html-keyboard-response","192","334599","0.0-11.0-0.23","5c5baaec192d350001d5c8e4","64e77d7b61f440b60e28659d","64eca321089040d77da8d120","null","null","<p style=""font-size: 60px; font-family: BACS"">KTDTBmAM</p>","","","","","","","","",""
"html-keyboard-response","193","335607","0.0-11.0-0.24","5c5baaec192d350001d5c8e4","64e77d7b61f440b60e28659d","64eca321089040d77da8d120","null","null","<p style=""font-size: 60px; font-family: BACS"">krGurULv</p>","","","","","","","","",""
"html-keyboard-response","194","336618","0.0-11.0-0.25","5c5baaec192d350001d5c8e4","64e77d7b61f440b60e28659d","64eca321089040d77da8d120","null","null","<p style=""font-size: 60px; font-family: BACS"">lKdbcmCd</p>","","","","","","","","",""
"html-keyboard-response","195","337619","0.0-11.0-0.26","5c5baaec192d350001d5c8e4","64e77d7b61f440b60e28659d","64eca321089040d77da8d120","null","null","<p style=""font-size: 60px; font-family: BACS"">COTKOPE</p>","","","","","","","","",""
"html-keyboard-response","196","338622","0.0-11.0-0.27","5c5baaec192d350001d5c8e4","64e77d7b61f440b60e28659d","64eca321089040d77da8d120","null","null","<p style=""font-size: 60px; font-family: BACS"">krGukYL</p>","","","","","","","","",""
"html-keyboard-response","197","339628","0.0-11.0-0.28","5c5baaec192d350001d5c8e4","64e77d7b61f440b60e28659d","64eca321089040d77da8d120","null","null","<p style=""font-size: 60px; font-family: BACS"">YuaNdcUN</p>","","","","","","","","",""
"html-keyboard-response","198","340631","0.0-11.0-0.29","5c5baaec192d350001d5c8e4","64e77d7b61f440b60e28659d","64eca321089040d77da8d120","null","null","<p style=""font-size: 60px; font-family: BACS"">BPAlmCd</p>","","","","","","","","",""
"html-keyboard-response","199","341632","0.0-11.0-0.30","5c5baaec192d350001d5c8e4","64e77d7b61f440b60e28659d","64eca321089040d77da8d120","null","null","<p style=""font-size: 60px; font-family: BACS"">kdaAJkYL</p>","","","","","","","","",""
"html-keyboard-response","200","342638","0.0-11.0-0.31","5c5baaec192d350001d5c8e4","64e77d7b61f440b60e28659d","64eca321089040d77da8d120","null","null","<p style=""font-size: 60px; font-family: BACS"">dNZArULv</p>","","","","","","","","",""
"html-keyboard-response","201","343648","0.0-11.0-0.32","5c5baaec192d350001d5c8e4","64e77d7b61f440b60e28659d","64eca321089040d77da8d120","null","null","<p style=""font-size: 60px; font-family: BACS"">PEkhAmtKP</p>","","","","","","","","",""
"html-keyboard-response","202","344663","0.0-11.0-0.33","5c5baaec192d350001d5c8e4","64e77d7b61f440b60e28659d","64eca321089040d77da8d120","null","null","<p style=""font-size: 60px; font-family: BACS"">OYuvbcUN</p>","","","","","","","","",""
"html-keyboard-response","203","345676","0.0-11.0-0.34","5c5baaec192d350001d5c8e4","64e77d7b61f440b60e28659d","64eca321089040d77da8d120","null","null","<p style=""font-size: 60px; font-family: BACS"">TPCbYbBT</p>","","","","","","","","",""
"html-keyboard-response","204","346682","0.0-11.0-0.35","5c5baaec192d350001d5c8e4","64e77d7b61f440b60e28659d","64eca321089040d77da8d120","null","null","<p style=""font-size: 60px; font-family: BACS"">QLrOJcUN</p>","","","","","","","","",""
"html-keyboard-response","205","347692","0.0-11.0-0.36","5c5baaec192d350001d5c8e4","64e77d7b61f440b60e28659d","64eca321089040d77da8d120","null","null","<p style=""font-size: 60px; font-family: BACS"">lmbYkmU</p>","","","","","","","","",""
"html-keyboard-response","206","348703","0.0-11.0-0.37","5c5baaec192d350001d5c8e4","64e77d7b61f440b60e28659d","64eca321089040d77da8d120","null","null","<p style=""font-size: 60px; font-family: BACS"">YuaNdrULv</p>","","","","","","","","",""
"html-keyboard-response","207","349715","0.0-11.0-0.38","5c5baaec192d350001d5c8e4","64e77d7b61f440b60e28659d","64eca321089040d77da8d120","null","null","<p style=""font-size: 60px; font-family: BACS"">lmbYkYL</p>","","","","","","","","",""
"html-keyboard-response","208","350716","0.0-11.0-0.39","5c5baaec192d350001d5c8e4","64e77d7b61f440b60e28659d","64eca321089040d77da8d120","null","null","<p style=""font-size: 60px; font-family: BACS"">PEkhAYbBT</p>","","","","","","","","",""
"html-keyboard-response","209","351724","0.0-11.0-0.40","5c5baaec192d350001d5c8e4","64e77d7b61f440b60e28659d","64eca321089040d77da8d120","null","null","<p style=""font-size: 60px; font-family: BACS"">lKdbcOPE</p>","","","","","","","","",""
"html-keyboard-response","210","352734","0.0-11.0-0.41","5c5baaec192d350001d5c8e4","64e77d7b61f440b60e28659d","64eca321089040d77da8d120","null","null","<p style=""font-size: 60px; font-family: BACS"">QLrOJkYL</p>","","","","","","","","",""
"html-keyboard-response","211","353741","0.0-11.0-0.42","5c5baaec192d350001d5c8e4","64e77d7b61f440b60e28659d","64eca321089040d77da8d120","null","null","<p style=""font-size: 60px; font-family: BACS"">PEtEmAM</p>","","","","","","","","",""
"html-keyboard-response","212","354752","0.0-11.0-0.43","5c5baaec192d350001d5c8e4","64e77d7b61f440b60e28659d","64eca321089040d77da8d120","null","null","<p style=""font-size: 60px; font-family: BACS"">krGuOQAr</p>","","","","","","","","",""
"html-keyboard-response","213","355753","0.0-11.0-0.44","5c5baaec192d350001d5c8e4","64e77d7b61f440b60e28659d","64eca321089040d77da8d120","null","null","<p style=""font-size: 60px; font-family: BACS"">TPCbOPE</p>","","","","","","","","",""
"html-keyboard-response","214","356764","0.0-11.0-0.45","5c5baaec192d350001d5c8e4","64e77d7b61f440b60e28659d","64eca321089040d77da8d120","null","null","<p style=""font-size: 60px; font-family: BACS"">YuaNdkmU</p>","","","","","","","","",""
"html-keyboard-response","215","357765","0.0-11.0-0.46","5c5baaec192d350001d5c8e4","64e77d7b61f440b60e28659d","64eca321089040d77da8d120","null","null","<p style=""font-size: 60px; font-family: BACS"">BPAlmAM</p>","","","","","","","","",""
"html-keyboard-response","216","358778","0.0-11.0-0.47","5c5baaec192d350001d5c8e4","64e77d7b61f440b60e28659d","64eca321089040d77da8d120","null","null","<p style=""font-size: 60px; font-family: BACS"">KTDTBmtKP</p>","","","","","","","","",""
"html-keyboard-response","217","359784","0.0-11.0-0.48","5c5baaec192d350001d5c8e4","64e77d7b61f440b60e28659d","64eca321089040d77da8d120","null","null","<p style=""font-size: 60px; font-family: BACS"">QcladkmU</p>","","","","","","","","",""
"html-keyboard-response","218","360794","0.0-11.0-0.49","5c5baaec192d350001d5c8e4","64e77d7b61f440b60e28659d","64eca321089040d77da8d120","null","null","<p style=""font-size: 60px; font-family: BACS"">PEkhAmCd</p>","","","","","","","","",""
"html-keyboard-response","219","361804","0.0-11.0-0.50","5c5baaec192d350001d5c8e4","64e77d7b61f440b60e28659d","64eca321089040d77da8d120","null","null","<p style=""font-size: 60px; font-family: BACS"">OYuvbOQAr</p>","","","","","","","","",""
"html-keyboard-response","220","362805","0.0-11.0-0.51","5c5baaec192d350001d5c8e4","64e77d7b61f440b60e28659d","64eca321089040d77da8d120","null","null","<p style=""font-size: 60px; font-family: BACS"">bcbMmCd</p>","","","","","","","","",""
"html-keyboard-response","221","363808","0.0-11.0-0.52","5c5baaec192d350001d5c8e4","64e77d7b61f440b60e28659d","64eca321089040d77da8d120","null","null","<p style=""font-size: 60px; font-family: BACS"">kdaAJcUN</p>","","","","","","","","",""
"html-keyboard-response","222","364815","0.0-11.0-0.53","5c5baaec192d350001d5c8e4","64e77d7b61f440b60e28659d","64eca321089040d77da8d120","null","null","<p style=""font-size: 60px; font-family: BACS"">ZNLOvkYL</p>","","","","","","","","",""
"html-keyboard-response","223","365827","0.0-11.0-0.54","5c5baaec192d350001d5c8e4","64e77d7b61f440b60e28659d","64eca321089040d77da8d120","null","null","<p style=""font-size: 60px; font-family: BACS"">QLrOJkmU</p>","","","","","","","","",""
"html-keyboard-response","224","366843","0.0-11.0-0.55","5c5baaec192d350001d5c8e4","64e77d7b61f440b60e28659d","64eca321089040d77da8d120","null","null","<p style=""font-size: 60px; font-family: BACS"">dNZAcUN</p>","","","","","","","","",""
"html-keyboard-response","225","367854","0.0-11.0-0.56","5c5baaec192d350001d5c8e4","64e77d7b61f440b60e28659d","64eca321089040d77da8d120","null","null","<p style=""font-size: 60px; font-family: BACS"">PhktkmtKP</p>","","","","","","","","",""
"html-keyboard-response","226","368855","0.0-11.0-0.57","5c5baaec192d350001d5c8e4","64e77d7b61f440b60e28659d","64eca321089040d77da8d120","null","null","<p style=""font-size: 60px; font-family: BACS"">bcbMYbBT</p>","","","","","","","","",""
"html-keyboard-response","227","369855","0.0-11.0-0.58","5c5baaec192d350001d5c8e4","64e77d7b61f440b60e28659d","64eca321089040d77da8d120","null","null","<p style=""font-size: 60px; font-family: BACS"">ZdNmUkmU</p>","","","","","","","","",""
"html-keyboard-response","228","370857","0.0-11.0-0.59","5c5baaec192d350001d5c8e4","64e77d7b61f440b60e28659d","64eca321089040d77da8d120","null","null","<p style=""font-size: 60px; font-family: BACS"">YuaNdkYL</p>","","","","","","","","",""
"html-keyboard-response","229","371871","0.0-11.0-0.60","5c5baaec192d350001d5c8e4","64e77d7b61f440b60e28659d","64eca321089040d77da8d120","null","null","<p style=""font-size: 60px; font-family: BACS"">PEtEYbBT</p>","","","","","","","","",""
"html-keyboard-response","230","372872","0.0-11.0-0.61","5c5baaec192d350001d5c8e4","64e77d7b61f440b60e28659d","64eca321089040d77da8d120","null","null","<p style=""font-size: 60px; font-family: BACS"">TPCbmAM</p>","","","","","","","","",""
"html-keyboard-response","231","373877","0.0-11.0-0.62","5c5baaec192d350001d5c8e4","64e77d7b61f440b60e28659d","64eca321089040d77da8d120","null","null","<p style=""font-size: 60px; font-family: BACS"">ZNLOvkmU</p>","","","","","","","","",""
"html-keyboard-response","232","374885","0.0-11.0-0.63","5c5baaec192d350001d5c8e4","64e77d7b61f440b60e28659d","64eca321089040d77da8d120","null","null","<p style=""font-size: 60px; font-family: BACS"">BPAlOPE</p>","","","","","","","","",""
"html-keyboard-response","233","375886","0.0-11.0-0.64","5c5baaec192d350001d5c8e4","64e77d7b61f440b60e28659d","64eca321089040d77da8d120","null","null","<p style=""font-size: 60px; font-family: BACS"">OYuvbkYL</p>","","","","","","","","",""
"html-keyboard-response","234","376889","0.0-11.0-0.65","5c5baaec192d350001d5c8e4","64e77d7b61f440b60e28659d","64eca321089040d77da8d120","null","null","<p style=""font-size: 60px; font-family: BACS"">bcbMmtKP</p>","","","","","","","","",""
"html-keyboard-response","235","377901","0.0-11.0-0.66","5c5baaec192d350001d5c8e4","64e77d7b61f440b60e28659d","64eca321089040d77da8d120","null","null","<p style=""font-size: 60px; font-family: BACS"">EMYKYbBT</p>","","","","","","","","",""
"html-keyboard-response","236","378902","0.0-11.0-0.67","5c5baaec192d350001d5c8e4","64e77d7b61f440b60e28659d","64eca321089040d77da8d120","null","null","<p style=""font-size: 60px; font-family: BACS"">dNZAOQAr</p>","","","","","","","","",""
"html-keyboard-response","237","379914","0.0-11.0-0.68","5c5baaec192d350001d5c8e4","64e77d7b61f440b60e28659d","64eca321089040d77da8d120","null","null","<p style=""font-size: 60px; font-family: BACS"">EMYKmtKP</p>","","","","","","","","",""
"html-keyboard-response","238","380926","0.0-11.0-0.69","5c5baaec192d350001d5c8e4","64e77d7b61f440b60e28659d","64eca321089040d77da8d120","null","null","<p style=""font-size: 60px; font-family: BACS"">KTDTBOPE</p>","","","","","","","","",""
"html-keyboard-response","239","381927","0.0-11.0-0.70","5c5baaec192d350001d5c8e4","64e77d7b61f440b60e28659d","64eca321089040d77da8d120","null","null","<p style=""font-size: 60px; font-family: BACS"">QcladcUN</p>","","","","","","","","",""
"html-keyboard-response","240","382931","0.0-11.0-0.71","5c5baaec192d350001d5c8e4","64e77d7b61f440b60e28659d","64eca321089040d77da8d120","null","null","<p style=""font-size: 60px; font-family: BACS"">COTKmAM</p>","","","","","","","","",""
"html-keyboard-response","241","383942","0.0-11.0-0.72","5c5baaec192d350001d5c8e4","64e77d7b61f440b60e28659d","64eca321089040d77da8d120","null","null","<p style=""font-size: 60px; font-family: BACS"">QLrOJOQAr</p>","","","","","","","","",""
"html-keyboard-response","242","384943","0.0-11.0-0.73","5c5baaec192d350001d5c8e4","64e77d7b61f440b60e28659d","64eca321089040d77da8d120","null","null","<p style=""font-size: 60px; font-family: BACS"">BPAlYbBT</p>","","","","","","","","",""
"html-keyboard-response","243","385948","0.0-11.0-0.74","5c5baaec192d350001d5c8e4","64e77d7b61f440b60e28659d","64eca321089040d77da8d120","null","null","<p style=""font-size: 60px; font-family: BACS"">bcbMOPE</p>","","","","","","","","",""
"html-keyboard-response","244","386951","0.0-11.0-0.75","5c5baaec192d350001d5c8e4","64e77d7b61f440b60e28659d","64eca321089040d77da8d120","null","null","<p style=""font-size: 60px; font-family: BACS"">lmbYrULv</p>","","","","","","","","",""
"html-keyboard-response","245","387952","0.0-11.0-0.76","5c5baaec192d350001d5c8e4","64e77d7b61f440b60e28659d","64eca321089040d77da8d120","null","null","<p style=""font-size: 60px; font-family: BACS"">PEkhAmAM</p>","","","","","","","","",""
"html-keyboard-response","246","388964","0.0-11.0-0.77","5c5baaec192d350001d5c8e4","64e77d7b61f440b60e28659d","64eca321089040d77da8d120","null","null","<p style=""font-size: 60px; font-family: BACS"">ZdNmUOQAr</p>","","","","","","","","",""
"html-keyboard-response","247","389974","0.0-11.0-0.78","5c5baaec192d350001d5c8e4","64e77d7b61f440b60e28659d","64eca321089040d77da8d120","null","null","<p style=""font-size: 60px; font-family: BACS"">COTKmtKP</p>","","","","","","","","",""
"html-keyboard-response","248","390985","0.0-11.0-0.79","5c5baaec192d350001d5c8e4","64e77d7b61f440b60e28659d","64eca321089040d77da8d120","null","null","<p style=""font-size: 60px; font-family: BACS"">ZdNmUrULv</p>","","","","","","","","",""
"html-keyboard-response","249","396095","0.0-12.0","5c5baaec192d350001d5c8e4","64e77d7b61f440b60e28659d","64eca321089040d77da8d120","5109"," ","<p>Great, you've seen the third block of words. You may now take a short break.</p>
      <p>Press the spacebar when you're ready to continue.</p>","","","","","","","","",""
"html-keyboard-response","250","397096","0.0-13.0-0.0","5c5baaec192d350001d5c8e4","64e77d7b61f440b60e28659d","64eca321089040d77da8d120","null","null","<p style=""font-size: 60px; font-family: BACS"">lKdbcmAM</p>","","","","","","","","",""
"html-keyboard-response","251","398097","0.0-13.0-0.1","5c5baaec192d350001d5c8e4","64e77d7b61f440b60e28659d","64eca321089040d77da8d120","null","null","<p style=""font-size: 60px; font-family: BACS"">QLrOJcUN</p>","","","","","","","","",""
"html-keyboard-response","252","399102","0.0-13.0-0.2","5c5baaec192d350001d5c8e4","64e77d7b61f440b60e28659d","64eca321089040d77da8d120","null","null","<p style=""font-size: 60px; font-family: BACS"">BPAlmAM</p>","","","","","","","","",""
"html-keyboard-response","253","400109","0.0-13.0-0.3","5c5baaec192d350001d5c8e4","64e77d7b61f440b60e28659d","64eca321089040d77da8d120","null","null","<p style=""font-size: 60px; font-family: BACS"">lmbYkmU</p>","","","","","","","","",""
"html-keyboard-response","254","401125","0.0-13.0-0.4","5c5baaec192d350001d5c8e4","64e77d7b61f440b60e28659d","64eca321089040d77da8d120","null","null","<p style=""font-size: 60px; font-family: BACS"">TPCbOPE</p>","","","","","","","","",""
"html-keyboard-response","255","402133","0.0-13.0-0.5","5c5baaec192d350001d5c8e4","64e77d7b61f440b60e28659d","64eca321089040d77da8d120","null","null","<p style=""font-size: 60px; font-family: BACS"">EMYKmtKP</p>","","","","","","","","",""
"html-keyboard-response","256","403134","0.0-13.0-0.6","5c5baaec192d350001d5c8e4","64e77d7b61f440b60e28659d","64eca321089040d77da8d120","null","null","<p style=""font-size: 60px; font-family: BACS"">PhktkOPE</p>","","","","","","","","",""
"html-keyboard-response","257","404136","0.0-13.0-0.7","5c5baaec192d350001d5c8e4","64e77d7b61f440b60e28659d","64eca321089040d77da8d120","null","null","<p style=""font-size: 60px; font-family: BACS"">ZdNmUkmU</p>","","","","","","","","",""
"html-keyboard-response","258","405146","0.0-13.0-0.8","5c5baaec192d350001d5c8e4","64e77d7b61f440b60e28659d","64eca321089040d77da8d120","null","null","<p style=""font-size: 60px; font-family: BACS"">QLrOJOQAr</p>","","","","","","","","",""
"html-keyboard-response","259","406149","0.0-13.0-0.9","5c5baaec192d350001d5c8e4","64e77d7b61f440b60e28659d","64eca321089040d77da8d120","null","null","<p style=""font-size: 60px; font-family: BACS"">BPAlYbBT</p>","","","","","","","","",""
"html-keyboard-response","260","407161","0.0-13.0-0.10","5c5baaec192d350001d5c8e4","64e77d7b61f440b60e28659d","64eca321089040d77da8d120","null","null","<p style=""font-size: 60px; font-family: BACS"">dNZAcUN</p>","","","","","","","","",""
"html-keyboard-response","261","408163","0.0-13.0-0.11","5c5baaec192d350001d5c8e4","64e77d7b61f440b60e28659d","64eca321089040d77da8d120","null","null","<p style=""font-size: 60px; font-family: BACS"">COTKmCd</p>","","","","","","","","",""
"html-keyboard-response","262","409171","0.0-13.0-0.12","5c5baaec192d350001d5c8e4","64e77d7b61f440b60e28659d","64eca321089040d77da8d120","null","null","<p style=""font-size: 60px; font-family: BACS"">ZNLOvkYL</p>","","","","","","","","",""
"html-keyboard-response","263","410180","0.0-13.0-0.13","5c5baaec192d350001d5c8e4","64e77d7b61f440b60e28659d","64eca321089040d77da8d120","null","null","<p style=""font-size: 60px; font-family: BACS"">ZdNmUcUN</p>","","","","","","","","",""
"html-keyboard-response","264","411188","0.0-13.0-0.14","5c5baaec192d350001d5c8e4","64e77d7b61f440b60e28659d","64eca321089040d77da8d120","null","null","<p style=""font-size: 60px; font-family: BACS"">QcladkmU</p>","","","","","","","","",""
"html-keyboard-response","265","412199","0.0-13.0-0.15","5c5baaec192d350001d5c8e4","64e77d7b61f440b60e28659d","64eca321089040d77da8d120","null","null","<p style=""font-size: 60px; font-family: BACS"">bcbMmCd</p>","","","","","","","","",""
"html-keyboard-response","266","413213","0.0-13.0-0.16","5c5baaec192d350001d5c8e4","64e77d7b61f440b60e28659d","64eca321089040d77da8d120","null","null","<p style=""font-size: 60px; font-family: BACS"">kdaAJkYL</p>","","","","","","","","",""
"html-keyboard-response","267","414214","0.0-13.0-0.17","5c5baaec192d350001d5c8e4","64e77d7b61f440b60e28659d","64eca321089040d77da8d120","null","null","<p style=""font-size: 60px; font-family: BACS"">KTDTBmtKP</p>","","","","","","","","",""
"html-keyboard-response","268","415217","0.0-13.0-0.18","5c5baaec192d350001d5c8e4","64e77d7b61f440b60e28659d","64eca321089040d77da8d120","null","null","<p style=""font-size: 60px; font-family: BACS"">kdaAJrULv</p>","","","","","","","","",""
"html-keyboard-response","269","416230","0.0-13.0-0.19","5c5baaec192d350001d5c8e4","64e77d7b61f440b60e28659d","64eca321089040d77da8d120","null","null","<p style=""font-size: 60px; font-family: BACS"">bcbMmtKP</p>","","","","","","","","",""
"html-keyboard-response","270","417231","0.0-13.0-0.20","5c5baaec192d350001d5c8e4","64e77d7b61f440b60e28659d","64eca321089040d77da8d120","null","null","<p style=""font-size: 60px; font-family: BACS"">QLrOJkYL</p>","","","","","","","","",""
"html-keyboard-response","271","418235","0.0-13.0-0.21","5c5baaec192d350001d5c8e4","64e77d7b61f440b60e28659d","64eca321089040d77da8d120","null","null","<p style=""font-size: 60px; font-family: BACS"">QcladOQAr</p>","","","","","","","","",""
"html-keyboard-response","272","419248","0.0-13.0-0.22","5c5baaec192d350001d5c8e4","64e77d7b61f440b60e28659d","64eca321089040d77da8d120","null","null","<p style=""font-size: 60px; font-family: BACS"">OYuvbkYL</p>","","","","","","","","",""
"html-keyboard-response","273","420249","0.0-13.0-0.23","5c5baaec192d350001d5c8e4","64e77d7b61f440b60e28659d","64eca321089040d77da8d120","null","null","<p style=""font-size: 60px; font-family: BACS"">lKdbcmCd</p>","","","","","","","","",""
"html-keyboard-response","274","421250","0.0-13.0-0.24","5c5baaec192d350001d5c8e4","64e77d7b61f440b60e28659d","64eca321089040d77da8d120","null","null","<p style=""font-size: 60px; font-family: BACS"">COTKmtKP</p>","","","","","","","","",""
"html-keyboard-response","275","422251","0.0-13.0-0.25","5c5baaec192d350001d5c8e4","64e77d7b61f440b60e28659d","64eca321089040d77da8d120","null","null","<p style=""font-size: 60px; font-family: BACS"">PhktkmCd</p>","","","","","","","","",""
"html-keyboard-response","276","423253","0.0-13.0-0.26","5c5baaec192d350001d5c8e4","64e77d7b61f440b60e28659d","64eca321089040d77da8d120","null","null","<p style=""font-size: 60px; font-family: BACS"">bcbMOPE</p>","","","","","","","","",""
"html-keyboard-response","277","424269","0.0-13.0-0.27","5c5baaec192d350001d5c8e4","64e77d7b61f440b60e28659d","64eca321089040d77da8d120","null","null","<p style=""font-size: 60px; font-family: BACS"">kdaAJcUN</p>","","","","","","","","",""
"html-keyboard-response","278","425278","0.0-13.0-0.28","5c5baaec192d350001d5c8e4","64e77d7b61f440b60e28659d","64eca321089040d77da8d120","null","null","<p style=""font-size: 60px; font-family: BACS"">PEkhAYbBT</p>","","","","","","","","",""
"html-keyboard-response","279","426287","0.0-13.0-0.29","5c5baaec192d350001d5c8e4","64e77d7b61f440b60e28659d","64eca321089040d77da8d120","null","null","<p style=""font-size: 60px; font-family: BACS"">krGurULv</p>","","","","","","","","",""
"html-keyboard-response","280","427295","0.0-13.0-0.30","5c5baaec192d350001d5c8e4","64e77d7b61f440b60e28659d","64eca321089040d77da8d120","null","null","<p style=""font-size: 60px; font-family: BACS"">BPAlmCd</p>","","","","","","","","",""
"html-keyboard-response","281","428295","0.0-13.0-0.31","5c5baaec192d350001d5c8e4","64e77d7b61f440b60e28659d","64eca321089040d77da8d120","null","null","<p style=""font-size: 60px; font-family: BACS"">ZNLOvrULv</p>","","","","","","","","",""
"html-keyboard-response","282","429304","0.0-13.0-0.32","5c5baaec192d350001d5c8e4","64e77d7b61f440b60e28659d","64eca321089040d77da8d120","null","null","<p style=""font-size: 60px; font-family: BACS"">krGucUN</p>","","","","","","","","",""
"html-keyboard-response","283","430304","0.0-13.0-0.33","5c5baaec192d350001d5c8e4","64e77d7b61f440b60e28659d","64eca321089040d77da8d120","null","null","<p style=""font-size: 60px; font-family: BACS"">TPCbYbBT</p>","","","","","","","","",""
"html-keyboard-response","284","431314","0.0-13.0-0.34","5c5baaec192d350001d5c8e4","64e77d7b61f440b60e28659d","64eca321089040d77da8d120","null","null","<p style=""font-size: 60px; font-family: BACS"">ZNLOvOQAr</p>","","","","","","","","",""
"html-keyboard-response","285","432320","0.0-13.0-0.35","5c5baaec192d350001d5c8e4","64e77d7b61f440b60e28659d","64eca321089040d77da8d120","null","null","<p style=""font-size: 60px; font-family: BACS"">EMYKmAM</p>","","","","","","","","",""
"html-keyboard-response","286","433326","0.0-13.0-0.36","5c5baaec192d350001d5c8e4","64e77d7b61f440b60e28659d","64eca321089040d77da8d120","null","null","<p style=""font-size: 60px; font-family: BACS"">lmbYOQAr</p>","","","","","","","","",""
"html-keyboard-response","287","434327","0.0-13.0-0.37","5c5baaec192d350001d5c8e4","64e77d7b61f440b60e28659d","64eca321089040d77da8d120","null","null","<p style=""font-size: 60px; font-family: BACS"">dNZAkYL</p>","","","","","","","","",""
"html-keyboard-response","288","435342","0.0-13.0-0.38","5c5baaec192d350001d5c8e4","64e77d7b61f440b60e28659d","64eca321089040d77da8d120","null","null","<p style=""font-size: 60px; font-family: BACS"">PEtEYbBT</p>","","","","","","","","",""
"html-keyboard-response","289","436343","0.0-13.0-0.39","5c5baaec192d350001d5c8e4","64e77d7b61f440b60e28659d","64eca321089040d77da8d120","null","null","<p style=""font-size: 60px; font-family: BACS"">KTDTBmCd</p>","","","","","","","","",""
"html-keyboard-response","290","437344","0.0-13.0-0.40","5c5baaec192d350001d5c8e4","64e77d7b61f440b60e28659d","64eca321089040d77da8d120","null","null","<p style=""font-size: 60px; font-family: BACS"">PEkhAmAM</p>","","","","","","","","",""
"html-keyboard-response","291","438345","0.0-13.0-0.41","5c5baaec192d350001d5c8e4","64e77d7b61f440b60e28659d","64eca321089040d77da8d120","null","null","<p style=""font-size: 60px; font-family: BACS"">YuaNdrULv</p>","","","","","","","","",""
"html-keyboard-response","292","439348","0.0-13.0-0.42","5c5baaec192d350001d5c8e4","64e77d7b61f440b60e28659d","64eca321089040d77da8d120","null","null","<p style=""font-size: 60px; font-family: BACS"">PEtEmtKP</p>","","","","","","","","",""
"html-keyboard-response","293","440362","0.0-13.0-0.43","5c5baaec192d350001d5c8e4","64e77d7b61f440b60e28659d","64eca321089040d77da8d120","null","null","<p style=""font-size: 60px; font-family: BACS"">dNZArULv</p>","","","","","","","","",""
"html-keyboard-response","294","441374","0.0-13.0-0.44","5c5baaec192d350001d5c8e4","64e77d7b61f440b60e28659d","64eca321089040d77da8d120","null","null","<p style=""font-size: 60px; font-family: BACS"">EMYKmCd</p>","","","","","","","","",""
"html-keyboard-response","295","442375","0.0-13.0-0.45","5c5baaec192d350001d5c8e4","64e77d7b61f440b60e28659d","64eca321089040d77da8d120","null","null","<p style=""font-size: 60px; font-family: BACS"">krGukYL</p>","","","","","","","","",""
"html-keyboard-response","296","443385","0.0-13.0-0.46","5c5baaec192d350001d5c8e4","64e77d7b61f440b60e28659d","64eca321089040d77da8d120","null","null","<p style=""font-size: 60px; font-family: BACS"">TPCbmtKP</p>","","","","","","","","",""
"html-keyboard-response","297","444386","0.0-13.0-0.47","5c5baaec192d350001d5c8e4","64e77d7b61f440b60e28659d","64eca321089040d77da8d120","null","null","<p style=""font-size: 60px; font-family: BACS"">ZdNmUOQAr</p>","","","","","","","","",""
"html-keyboard-response","298","445391","0.0-13.0-0.48","5c5baaec192d350001d5c8e4","64e77d7b61f440b60e28659d","64eca321089040d77da8d120","null","null","<p style=""font-size: 60px; font-family: BACS"">COTKmAM</p>","","","","","","","","",""
"html-keyboard-response","299","446402","0.0-13.0-0.49","5c5baaec192d350001d5c8e4","64e77d7b61f440b60e28659d","64eca321089040d77da8d120","null","null","<p style=""font-size: 60px; font-family: BACS"">KTDTBOPE</p>","","","","","","","","",""
"html-keyboard-response","300","447403","0.0-13.0-0.50","5c5baaec192d350001d5c8e4","64e77d7b61f440b60e28659d","64eca321089040d77da8d120","null","null","<p style=""font-size: 60px; font-family: BACS"">QLrOJkmU</p>","","","","","","","","",""
"html-keyboard-response","301","448407","0.0-13.0-0.51","5c5baaec192d350001d5c8e4","64e77d7b61f440b60e28659d","64eca321089040d77da8d120","null","null","<p style=""font-size: 60px; font-family: BACS"">PhktkmtKP</p>","","","","","","","","",""
"html-keyboard-response","302","449413","0.0-13.0-0.52","5c5baaec192d350001d5c8e4","64e77d7b61f440b60e28659d","64eca321089040d77da8d120","null","null","<p style=""font-size: 60px; font-family: BACS"">OYuvbkmU</p>","","","","","","","","",""
"html-keyboard-response","303","450419","0.0-13.0-0.53","5c5baaec192d350001d5c8e4","64e77d7b61f440b60e28659d","64eca321089040d77da8d120","null","null","<p style=""font-size: 60px; font-family: BACS"">QcladcUN</p>","","","","","","","","",""
"html-keyboard-response","304","451420","0.0-13.0-0.54","5c5baaec192d350001d5c8e4","64e77d7b61f440b60e28659d","64eca321089040d77da8d120","null","null","<p style=""font-size: 60px; font-family: BACS"">lmbYkYL</p>","","","","","","","","",""
"html-keyboard-response","305","452433","0.0-13.0-0.55","5c5baaec192d350001d5c8e4","64e77d7b61f440b60e28659d","64eca321089040d77da8d120","null","null","<p style=""font-size: 60px; font-family: BACS"">ZNLOvkmU</p>","","","","","","","","",""
"html-keyboard-response","306","453443","0.0-13.0-0.56","5c5baaec192d350001d5c8e4","64e77d7b61f440b60e28659d","64eca321089040d77da8d120","null","null","<p style=""font-size: 60px; font-family: BACS"">EMYKYbBT</p>","","","","","","","","",""
"html-keyboard-response","307","454453","0.0-13.0-0.57","5c5baaec192d350001d5c8e4","64e77d7b61f440b60e28659d","64eca321089040d77da8d120","null","null","<p style=""font-size: 60px; font-family: BACS"">PEtEOPE</p>","","","","","","","","",""
"html-keyboard-response","308","455465","0.0-13.0-0.58","5c5baaec192d350001d5c8e4","64e77d7b61f440b60e28659d","64eca321089040d77da8d120","null","null","<p style=""font-size: 60px; font-family: BACS"">OYuvbcUN</p>","","","","","","","","",""
"html-keyboard-response","309","456477","0.0-13.0-0.59","5c5baaec192d350001d5c8e4","64e77d7b61f440b60e28659d","64eca321089040d77da8d120","null","null","<p style=""font-size: 60px; font-family: BACS"">BPAlOPE</p>","","","","","","","","",""
"html-keyboard-response","310","457488","0.0-13.0-0.60","5c5baaec192d350001d5c8e4","64e77d7b61f440b60e28659d","64eca321089040d77da8d120","null","null","<p style=""font-size: 60px; font-family: BACS"">PhktkYbBT</p>","","","","","","","","",""
"html-keyboard-response","311","458496","0.0-13.0-0.61","5c5baaec192d350001d5c8e4","64e77d7b61f440b60e28659d","64eca321089040d77da8d120","null","null","<p style=""font-size: 60px; font-family: BACS"">TPCbmAM</p>","","","","","","","","",""
"html-keyboard-response","312","459504","0.0-13.0-0.62","5c5baaec192d350001d5c8e4","64e77d7b61f440b60e28659d","64eca321089040d77da8d120","null","null","<p style=""font-size: 60px; font-family: BACS"">QcladrULv</p>","","","","","","","","",""
"html-keyboard-response","313","460512","0.0-13.0-0.63","5c5baaec192d350001d5c8e4","64e77d7b61f440b60e28659d","64eca321089040d77da8d120","null","null","<p style=""font-size: 60px; font-family: BACS"">bcbMYbBT</p>","","","","","","","","",""
"html-keyboard-response","314","461522","0.0-13.0-0.64","5c5baaec192d350001d5c8e4","64e77d7b61f440b60e28659d","64eca321089040d77da8d120","null","null","<p style=""font-size: 60px; font-family: BACS"">YuaNdcUN</p>","","","","","","","","",""
"html-keyboard-response","315","462533","0.0-13.0-0.65","5c5baaec192d350001d5c8e4","64e77d7b61f440b60e28659d","64eca321089040d77da8d120","null","null","<p style=""font-size: 60px; font-family: BACS"">lKdbcYbBT</p>","","","","","","","","",""
"html-keyboard-response","316","463544","0.0-13.0-0.66","5c5baaec192d350001d5c8e4","64e77d7b61f440b60e28659d","64eca321089040d77da8d120","null","null","<p style=""font-size: 60px; font-family: BACS"">PEkhAmtKP</p>","","","","","","","","",""
"html-keyboard-response","317","464553","0.0-13.0-0.67","5c5baaec192d350001d5c8e4","64e77d7b61f440b60e28659d","64eca321089040d77da8d120","null","null","<p style=""font-size: 60px; font-family: BACS"">lKdbcOPE</p>","","","","","","","","",""
"html-keyboard-response","318","465563","0.0-13.0-0.68","5c5baaec192d350001d5c8e4","64e77d7b61f440b60e28659d","64eca321089040d77da8d120","null","null","<p style=""font-size: 60px; font-family: BACS"">OYuvbOQAr</p>","","","","","","","","",""
"html-keyboard-response","319","466575","0.0-13.0-0.69","5c5baaec192d350001d5c8e4","64e77d7b61f440b60e28659d","64eca321089040d77da8d120","null","null","<p style=""font-size: 60px; font-family: BACS"">KTDTBmAM</p>","","","","","","","","",""
"html-keyboard-response","320","467584","0.0-13.0-0.70","5c5baaec192d350001d5c8e4","64e77d7b61f440b60e28659d","64eca321089040d77da8d120","null","null","<p style=""font-size: 60px; font-family: BACS"">lmbYrULv</p>","","","","","","","","",""
"html-keyboard-response","321","468584","0.0-13.0-0.71","5c5baaec192d350001d5c8e4","64e77d7b61f440b60e28659d","64eca321089040d77da8d120","null","null","<p style=""font-size: 60px; font-family: BACS"">YuaNdkYL</p>","","","","","","","","",""
"html-keyboard-response","322","469585","0.0-13.0-0.72","5c5baaec192d350001d5c8e4","64e77d7b61f440b60e28659d","64eca321089040d77da8d120","null","null","<p style=""font-size: 60px; font-family: BACS"">krGuOQAr</p>","","","","","","","","",""
"html-keyboard-response","323","470592","0.0-13.0-0.73","5c5baaec192d350001d5c8e4","64e77d7b61f440b60e28659d","64eca321089040d77da8d120","null","null","<p style=""font-size: 60px; font-family: BACS"">PEkhAmCd</p>","","","","","","","","",""
"html-keyboard-response","324","471603","0.0-13.0-0.74","5c5baaec192d350001d5c8e4","64e77d7b61f440b60e28659d","64eca321089040d77da8d120","null","null","<p style=""font-size: 60px; font-family: BACS"">COTKOPE</p>","","","","","","","","",""
"html-keyboard-response","325","472610","0.0-13.0-0.75","5c5baaec192d350001d5c8e4","64e77d7b61f440b60e28659d","64eca321089040d77da8d120","null","null","<p style=""font-size: 60px; font-family: BACS"">kdaAJkmU</p>","","","","","","","","",""
"html-keyboard-response","326","473620","0.0-13.0-0.76","5c5baaec192d350001d5c8e4","64e77d7b61f440b60e28659d","64eca321089040d77da8d120","null","null","<p style=""font-size: 60px; font-family: BACS"">dNZAOQAr</p>","","","","","","","","",""
"html-keyboard-response","327","474621","0.0-13.0-0.77","5c5baaec192d350001d5c8e4","64e77d7b61f440b60e28659d","64eca321089040d77da8d120","null","null","<p style=""font-size: 60px; font-family: BACS"">PEtEmAM</p>","","","","","","","","",""
"html-keyboard-response","328","475622","0.0-13.0-0.78","5c5baaec192d350001d5c8e4","64e77d7b61f440b60e28659d","64eca321089040d77da8d120","null","null","<p style=""font-size: 60px; font-family: BACS"">YuaNdkmU</p>","","","","","","","","",""
"html-keyboard-response","329","476624","0.0-13.0-0.79","5c5baaec192d350001d5c8e4","64e77d7b61f440b60e28659d","64eca321089040d77da8d120","null","null","<p style=""font-size: 60px; font-family: BACS"">ZdNmUrULv</p>","","","","","","","","",""
"html-keyboard-response","330","479871","0.0-14.0","5c5baaec192d350001d5c8e4","64e77d7b61f440b60e28659d","64eca321089040d77da8d120","3247"," ","<p>Great, you've seen the fourth block of words. You may now take a short break.</p>
      <p>Press the spacebar when you're ready to continue.</p>","","","","","","","","",""
"html-keyboard-response","331","480879","0.0-15.0-0.0","5c5baaec192d350001d5c8e4","64e77d7b61f440b60e28659d","64eca321089040d77da8d120","null","null","<p style=""font-size: 60px; font-family: BACS"">OYuvbkmU</p>","","","","","","","","",""
"html-keyboard-response","332","481888","0.0-15.0-0.1","5c5baaec192d350001d5c8e4","64e77d7b61f440b60e28659d","64eca321089040d77da8d120","null","null","<p style=""font-size: 60px; font-family: BACS"">OYuvbkmU</p>","","","","","","","","",""
"html-keyboard-response","333","482894","0.0-15.0-0.2","5c5baaec192d350001d5c8e4","64e77d7b61f440b60e28659d","64eca321089040d77da8d120","null","null","<p style=""font-size: 60px; font-family: BACS"">OYuvbkmU</p>","","","","","","","","",""
"html-keyboard-response","334","483895","0.0-15.0-0.3","5c5baaec192d350001d5c8e4","64e77d7b61f440b60e28659d","64eca321089040d77da8d120","null","null","<p style=""font-size: 60px; font-family: BACS"">OYuvbkmU</p>","","","","","","","","",""
"html-keyboard-response","335","484896","0.0-15.0-0.4","5c5baaec192d350001d5c8e4","64e77d7b61f440b60e28659d","64eca321089040d77da8d120","null","null","<p style=""font-size: 60px; font-family: BACS"">OYuvbkmU</p>","","","","","","","","",""
"html-keyboard-response","336","485909","0.0-15.0-0.5","5c5baaec192d350001d5c8e4","64e77d7b61f440b60e28659d","64eca321089040d77da8d120","null","null","<p style=""font-size: 60px; font-family: BACS"">OYuvbkmU</p>","","","","","","","","",""
"html-keyboard-response","337","486922","0.0-15.0-0.6","5c5baaec192d350001d5c8e4","64e77d7b61f440b60e28659d","64eca321089040d77da8d120","null","null","<p style=""font-size: 60px; font-family: BACS"">OYuvbkmU</p>","","","","","","","","",""
"html-keyboard-response","338","487937","0.0-15.0-0.7","5c5baaec192d350001d5c8e4","64e77d7b61f440b60e28659d","64eca321089040d77da8d120","null","null","<p style=""font-size: 60px; font-family: BACS"">OYuvbkmU</p>","","","","","","","","",""
"html-keyboard-response","339","488946","0.0-15.0-0.8","5c5baaec192d350001d5c8e4","64e77d7b61f440b60e28659d","64eca321089040d77da8d120","null","null","<p style=""font-size: 60px; font-family: BACS"">OYuvbkmU</p>","","","","","","","","",""
"html-keyboard-response","340","489947","0.0-15.0-0.9","5c5baaec192d350001d5c8e4","64e77d7b61f440b60e28659d","64eca321089040d77da8d120","null","null","<p style=""font-size: 60px; font-family: BACS"">OYuvbkmU</p>","","","","","","","","",""
"html-keyboard-response","341","490950","0.0-15.0-0.10","5c5baaec192d350001d5c8e4","64e77d7b61f440b60e28659d","64eca321089040d77da8d120","null","null","<p style=""font-size: 60px; font-family: BACS"">OYuvbkmU</p>","","","","","","","","",""
"html-keyboard-response","342","491963","0.0-15.0-0.11","5c5baaec192d350001d5c8e4","64e77d7b61f440b60e28659d","64eca321089040d77da8d120","null","null","<p style=""font-size: 60px; font-family: BACS"">OYuvbkmU</p>","","","","","","","","",""
"html-keyboard-response","343","492973","0.0-15.0-0.12","5c5baaec192d350001d5c8e4","64e77d7b61f440b60e28659d","64eca321089040d77da8d120","null","null","<p style=""font-size: 60px; font-family: BACS"">OYuvbkmU</p>","","","","","","","","",""
"html-keyboard-response","344","493979","0.0-15.0-0.13","5c5baaec192d350001d5c8e4","64e77d7b61f440b60e28659d","64eca321089040d77da8d120","null","null","<p style=""font-size: 60px; font-family: BACS"">OYuvbkmU</p>","","","","","","","","",""
"html-keyboard-response","345","494988","0.0-15.0-0.14","5c5baaec192d350001d5c8e4","64e77d7b61f440b60e28659d","64eca321089040d77da8d120","null","null","<p style=""font-size: 60px; font-family: BACS"">OYuvbkmU</p>","","","","","","","","",""
"html-keyboard-response","346","495996","0.0-15.0-0.15","5c5baaec192d350001d5c8e4","64e77d7b61f440b60e28659d","64eca321089040d77da8d120","null","null","<p style=""font-size: 60px; font-family: BACS"">OYuvbkmU</p>","","","","","","","","",""
"html-keyboard-response","347","497011","0.0-15.0-0.16","5c5baaec192d350001d5c8e4","64e77d7b61f440b60e28659d","64eca321089040d77da8d120","null","null","<p style=""font-size: 60px; font-family: BACS"">OYuvbkmU</p>","","","","","","","","",""
"html-keyboard-response","348","498027","0.0-15.0-0.17","5c5baaec192d350001d5c8e4","64e77d7b61f440b60e28659d","64eca321089040d77da8d120","null","null","<p style=""font-size: 60px; font-family: BACS"">OYuvbkmU</p>","","","","","","","","",""
"html-keyboard-response","349","499037","0.0-15.0-0.18","5c5baaec192d350001d5c8e4","64e77d7b61f440b60e28659d","64eca321089040d77da8d120","null","null","<p style=""font-size: 60px; font-family: BACS"">OYuvbkmU</p>","","","","","","","","",""
"html-keyboard-response","350","500042","0.0-15.0-0.19","5c5baaec192d350001d5c8e4","64e77d7b61f440b60e28659d","64eca321089040d77da8d120","null","null","<p style=""font-size: 60px; font-family: BACS"">OYuvbkmU</p>","","","","","","","","",""
"html-keyboard-response","351","501052","0.0-15.0-0.20","5c5baaec192d350001d5c8e4","64e77d7b61f440b60e28659d","64eca321089040d77da8d120","null","null","<p style=""font-size: 60px; font-family: BACS"">OYuvbkmU</p>","","","","","","","","",""
"html-keyboard-response","352","502053","0.0-15.0-0.21","5c5baaec192d350001d5c8e4","64e77d7b61f440b60e28659d","64eca321089040d77da8d120","null","null","<p style=""font-size: 60px; font-family: BACS"">OYuvbkmU</p>","","","","","","","","",""
"html-keyboard-response","353","503056","0.0-15.0-0.22","5c5baaec192d350001d5c8e4","64e77d7b61f440b60e28659d","64eca321089040d77da8d120","null","null","<p style=""font-size: 60px; font-family: BACS"">OYuvbkmU</p>","","","","","","","","",""
"html-keyboard-response","354","504068","0.0-15.0-0.23","5c5baaec192d350001d5c8e4","64e77d7b61f440b60e28659d","64eca321089040d77da8d120","null","null","<p style=""font-size: 60px; font-family: BACS"">OYuvbkmU</p>","","","","","","","","",""
"html-keyboard-response","355","505069","0.0-15.0-0.24","5c5baaec192d350001d5c8e4","64e77d7b61f440b60e28659d","64eca321089040d77da8d120","null","null","<p style=""font-size: 60px; font-family: BACS"">OYuvbkmU</p>","","","","","","","","",""
"html-keyboard-response","356","506070","0.0-15.0-0.25","5c5baaec192d350001d5c8e4","64e77d7b61f440b60e28659d","64eca321089040d77da8d120","null","null","<p style=""font-size: 60px; font-family: BACS"">OYuvbkmU</p>","","","","","","","","",""
"html-keyboard-response","357","507076","0.0-15.0-0.26","5c5baaec192d350001d5c8e4","64e77d7b61f440b60e28659d","64eca321089040d77da8d120","null","null","<p style=""font-size: 60px; font-family: BACS"">OYuvbkmU</p>","","","","","","","","",""
"html-keyboard-response","358","508083","0.0-15.0-0.27","5c5baaec192d350001d5c8e4","64e77d7b61f440b60e28659d","64eca321089040d77da8d120","null","null","<p style=""font-size: 60px; font-family: BACS"">OYuvbkmU</p>","","","","","","","","",""
"html-keyboard-response","359","509084","0.0-15.0-0.28","5c5baaec192d350001d5c8e4","64e77d7b61f440b60e28659d","64eca321089040d77da8d120","null","null","<p style=""font-size: 60px; font-family: BACS"">OYuvbkmU</p>","","","","","","","","",""
"html-keyboard-response","360","510089","0.0-15.0-0.29","5c5baaec192d350001d5c8e4","64e77d7b61f440b60e28659d","64eca321089040d77da8d120","null","null","<p style=""font-size: 60px; font-family: BACS"">OYuvbkmU</p>","","","","","","","","",""
"html-keyboard-response","361","511100","0.0-15.0-0.30","5c5baaec192d350001d5c8e4","64e77d7b61f440b60e28659d","64eca321089040d77da8d120","null","null","<p style=""font-size: 60px; font-family: BACS"">OYuvbkmU</p>","","","","","","","","",""
"html-keyboard-response","362","512101","0.0-15.0-0.31","5c5baaec192d350001d5c8e4","64e77d7b61f440b60e28659d","64eca321089040d77da8d120","null","null","<p style=""font-size: 60px; font-family: BACS"">OYuvbkmU</p>","","","","","","","","",""
"html-keyboard-response","363","513104","0.0-15.0-0.32","5c5baaec192d350001d5c8e4","64e77d7b61f440b60e28659d","64eca321089040d77da8d120","null","null","<p style=""font-size: 60px; font-family: BACS"">OYuvbkmU</p>","","","","","","","","",""
"html-keyboard-response","364","514114","0.0-15.0-0.33","5c5baaec192d350001d5c8e4","64e77d7b61f440b60e28659d","64eca321089040d77da8d120","null","null","<p style=""font-size: 60px; font-family: BACS"">OYuvbkmU</p>","","","","","","","","",""
"html-keyboard-response","365","515115","0.0-15.0-0.34","5c5baaec192d350001d5c8e4","64e77d7b61f440b60e28659d","64eca321089040d77da8d120","null","null","<p style=""font-size: 60px; font-family: BACS"">OYuvbkmU</p>","","","","","","","","",""
"html-keyboard-response","366","516121","0.0-15.0-0.35","5c5baaec192d350001d5c8e4","64e77d7b61f440b60e28659d","64eca321089040d77da8d120","null","null","<p style=""font-size: 60px; font-family: BACS"">OYuvbkmU</p>","","","","","","","","",""
"html-keyboard-response","367","517121","0.0-15.0-0.36","5c5baaec192d350001d5c8e4","64e77d7b61f440b60e28659d","64eca321089040d77da8d120","null","null","<p style=""font-size: 60px; font-family: BACS"">OYuvbkmU</p>","","","","","","","","",""
"html-keyboard-response","368","518123","0.0-15.0-0.37","5c5baaec192d350001d5c8e4","64e77d7b61f440b60e28659d","64eca321089040d77da8d120","null","null","<p style=""font-size: 60px; font-family: BACS"">OYuvbkmU</p>","","","","","","","","",""
"html-keyboard-response","369","519123","0.0-15.0-0.38","5c5baaec192d350001d5c8e4","64e77d7b61f440b60e28659d","64eca321089040d77da8d120","null","null","<p style=""font-size: 60px; font-family: BACS"">OYuvbkmU</p>","","","","","","","","",""
"html-keyboard-response","370","520129","0.0-15.0-0.39","5c5baaec192d350001d5c8e4","64e77d7b61f440b60e28659d","64eca321089040d77da8d120","null","null","<p style=""font-size: 60px; font-family: BACS"">OYuvbkmU</p>","","","","","","","","",""
"html-keyboard-response","371","521129","0.0-15.0-0.40","5c5baaec192d350001d5c8e4","64e77d7b61f440b60e28659d","64eca321089040d77da8d120","null","null","<p style=""font-size: 60px; font-family: BACS"">OYuvbkmU</p>","","","","","","","","",""
"html-keyboard-response","372","522134","0.0-15.0-0.41","5c5baaec192d350001d5c8e4","64e77d7b61f440b60e28659d","64eca321089040d77da8d120","null","null","<p style=""font-size: 60px; font-family: BACS"">OYuvbkmU</p>","","","","","","","","",""
"html-keyboard-response","373","523142","0.0-15.0-0.42","5c5baaec192d350001d5c8e4","64e77d7b61f440b60e28659d","64eca321089040d77da8d120","null","null","<p style=""font-size: 60px; font-family: BACS"">OYuvbkmU</p>","","","","","","","","",""
"html-keyboard-response","374","524152","0.0-15.0-0.43","5c5baaec192d350001d5c8e4","64e77d7b61f440b60e28659d","64eca321089040d77da8d120","null","null","<p style=""font-size: 60px; font-family: BACS"">OYuvbkmU</p>","","","","","","","","",""
"html-keyboard-response","375","525161","0.0-15.0-0.44","5c5baaec192d350001d5c8e4","64e77d7b61f440b60e28659d","64eca321089040d77da8d120","null","null","<p style=""font-size: 60px; font-family: BACS"">OYuvbkmU</p>","","","","","","","","",""
"html-keyboard-response","376","526163","0.0-15.0-0.45","5c5baaec192d350001d5c8e4","64e77d7b61f440b60e28659d","64eca321089040d77da8d120","null","null","<p style=""font-size: 60px; font-family: BACS"">OYuvbkmU</p>","","","","","","","","",""
"html-keyboard-response","377","527164","0.0-15.0-0.46","5c5baaec192d350001d5c8e4","64e77d7b61f440b60e28659d","64eca321089040d77da8d120","null","null","<p style=""font-size: 60px; font-family: BACS"">OYuvbkmU</p>","","","","","","","","",""
"html-keyboard-response","378","528180","0.0-15.0-0.47","5c5baaec192d350001d5c8e4","64e77d7b61f440b60e28659d","64eca321089040d77da8d120","null","null","<p style=""font-size: 60px; font-family: BACS"">OYuvbkmU</p>","","","","","","","","",""
"html-keyboard-response","379","529192","0.0-15.0-0.48","5c5baaec192d350001d5c8e4","64e77d7b61f440b60e28659d","64eca321089040d77da8d120","null","null","<p style=""font-size: 60px; font-family: BACS"">OYuvbkmU</p>","","","","","","","","",""
"html-keyboard-response","380","530200","0.0-15.0-0.49","5c5baaec192d350001d5c8e4","64e77d7b61f440b60e28659d","64eca321089040d77da8d120","null","null","<p style=""font-size: 60px; font-family: BACS"">OYuvbkmU</p>","","","","","","","","",""
"html-keyboard-response","381","531201","0.0-15.0-0.50","5c5baaec192d350001d5c8e4","64e77d7b61f440b60e28659d","64eca321089040d77da8d120","null","null","<p style=""font-size: 60px; font-family: BACS"">OYuvbkmU</p>","","","","","","","","",""
"html-keyboard-response","382","532206","0.0-15.0-0.51","5c5baaec192d350001d5c8e4","64e77d7b61f440b60e28659d","64eca321089040d77da8d120","null","null","<p style=""font-size: 60px; font-family: BACS"">OYuvbkmU</p>","","","","","","","","",""
"html-keyboard-response","383","533207","0.0-15.0-0.52","5c5baaec192d350001d5c8e4","64e77d7b61f440b60e28659d","64eca321089040d77da8d120","null","null","<p style=""font-size: 60px; font-family: BACS"">OYuvbkmU</p>","","","","","","","","",""
"html-keyboard-response","384","534211","0.0-15.0-0.53","5c5baaec192d350001d5c8e4","64e77d7b61f440b60e28659d","64eca321089040d77da8d120","null","null","<p style=""font-size: 60px; font-family: BACS"">OYuvbkmU</p>","","","","","","","","",""
"html-keyboard-response","385","535220","0.0-15.0-0.54","5c5baaec192d350001d5c8e4","64e77d7b61f440b60e28659d","64eca321089040d77da8d120","null","null","<p style=""font-size: 60px; font-family: BACS"">OYuvbkmU</p>","","","","","","","","",""
"html-keyboard-response","386","536227","0.0-15.0-0.55","5c5baaec192d350001d5c8e4","64e77d7b61f440b60e28659d","64eca321089040d77da8d120","null","null","<p style=""font-size: 60px; font-family: BACS"">OYuvbkmU</p>","","","","","","","","",""
"html-keyboard-response","387","537230","0.0-15.0-0.56","5c5baaec192d350001d5c8e4","64e77d7b61f440b60e28659d","64eca321089040d77da8d120","null","null","<p style=""font-size: 60px; font-family: BACS"">OYuvbkmU</p>","","","","","","","","",""
"html-keyboard-response","388","538245","0.0-15.0-0.57","5c5baaec192d350001d5c8e4","64e77d7b61f440b60e28659d","64eca321089040d77da8d120","null","null","<p style=""font-size: 60px; font-family: BACS"">OYuvbkmU</p>","","","","","","","","",""
"html-keyboard-response","389","539254","0.0-15.0-0.58","5c5baaec192d350001d5c8e4","64e77d7b61f440b60e28659d","64eca321089040d77da8d120","null","null","<p style=""font-size: 60px; font-family: BACS"">OYuvbkmU</p>","","","","","","","","",""
"html-keyboard-response","390","540266","0.0-15.0-0.59","5c5baaec192d350001d5c8e4","64e77d7b61f440b60e28659d","64eca321089040d77da8d120","null","null","<p style=""font-size: 60px; font-family: BACS"">OYuvbkmU</p>","","","","","","","","",""
"html-keyboard-response","391","541276","0.0-15.0-0.60","5c5baaec192d350001d5c8e4","64e77d7b61f440b60e28659d","64eca321089040d77da8d120","null","null","<p style=""font-size: 60px; font-family: BACS"">OYuvbkmU</p>","","","","","","","","",""
"html-keyboard-response","392","542283","0.0-15.0-0.61","5c5baaec192d350001d5c8e4","64e77d7b61f440b60e28659d","64eca321089040d77da8d120","null","null","<p style=""font-size: 60px; font-family: BACS"">OYuvbkmU</p>","","","","","","","","",""
"html-keyboard-response","393","543292","0.0-15.0-0.62","5c5baaec192d350001d5c8e4","64e77d7b61f440b60e28659d","64eca321089040d77da8d120","null","null","<p style=""font-size: 60px; font-family: BACS"">OYuvbkmU</p>","","","","","","","","",""
"html-keyboard-response","394","544301","0.0-15.0-0.63","5c5baaec192d350001d5c8e4","64e77d7b61f440b60e28659d","64eca321089040d77da8d120","null","null","<p style=""font-size: 60px; font-family: BACS"">OYuvbkmU</p>","","","","","","","","",""
"html-keyboard-response","395","545310","0.0-15.0-0.64","5c5baaec192d350001d5c8e4","64e77d7b61f440b60e28659d","64eca321089040d77da8d120","null","null","<p style=""font-size: 60px; font-family: BACS"">OYuvbkmU</p>","","","","","","","","",""
"html-keyboard-response","396","546319","0.0-15.0-0.65","5c5baaec192d350001d5c8e4","64e77d7b61f440b60e28659d","64eca321089040d77da8d120","null","null","<p style=""font-size: 60px; font-family: BACS"">OYuvbkmU</p>","","","","","","","","",""
"html-keyboard-response","397","547326","0.0-15.0-0.66","5c5baaec192d350001d5c8e4","64e77d7b61f440b60e28659d","64eca321089040d77da8d120","null","null","<p style=""font-size: 60px; font-family: BACS"">OYuvbkmU</p>","","","","","","","","",""
"html-keyboard-response","398","548335","0.0-15.0-0.67","5c5baaec192d350001d5c8e4","64e77d7b61f440b60e28659d","64eca321089040d77da8d120","null","null","<p style=""font-size: 60px; font-family: BACS"">OYuvbkmU</p>","","","","","","","","",""
"html-keyboard-response","399","549346","0.0-15.0-0.68","5c5baaec192d350001d5c8e4","64e77d7b61f440b60e28659d","64eca321089040d77da8d120","null","null","<p style=""font-size: 60px; font-family: BACS"">OYuvbkmU</p>","","","","","","","","",""
"html-keyboard-response","400","550360","0.0-15.0-0.69","5c5baaec192d350001d5c8e4","64e77d7b61f440b60e28659d","64eca321089040d77da8d120","null","null","<p style=""font-size: 60px; font-family: BACS"">OYuvbkmU</p>","","","","","","","","",""
