"trial_type","trial_index","time_elapsed","internal_node_id","subject_id","study_id","session_id","rt","response","stimulus","success","item","task","correct_response","testing_condition","correct","target","confound","name"
"pavlovia","0","735","0.0-0.0","5f91dc284909fe0b08f9e2e1","650c16f0f2faf8d7a0d14c09","651c34c3ed997e9068721d2b","","","","","","","","","","","",""
"survey-html-form","1","6299","0.0-1.0","5f91dc284909fe0b08f9e2e1","650c16f0f2faf8d7a0d14c09","651c34c3ed997e9068721d2b","5563","{""ID"":""5f91dc284909fe0b08f9e2e1""}","","","","","","","","","",""
"html-keyboard-response","2","16015","0.0-2.0","5f91dc284909fe0b08f9e2e1","650c16f0f2faf8d7a0d14c09","651c34c3ed997e9068721d2b","9715"," ","<p style=""font-size: 15px;"">Before beginning, we ask that you read the consent information and confirm your agreement to participate in the experiment.</p>
      <p style=""font-size: 15px;""> We ask that you remember that this is a research project and that your participation is entirely voluntary. You can stop your participation at any time, without needing to provide any explanation. The study we're asking you to participate in aims at examining how readers process written words. You will be engaged in a session of apprximately 20 minutes, followed by a brief questionnaire. You will have the opportunity to take a few breaks during the experiment. You will be paid £4 for your participation, corresponding to a rate of £8/hour. While this experiment looks at cognitive faculties, this experiment doesn't constitute clinical proof of eventual pathologies.</p>
      <p style=""font-size: 15px;"">All of the information collected thanks to yours and others' participation will be held in a secure password-protected server, and will not be shared with anyone not authorised to view it. Your personal information will be kept with an arbitrary participant ID. Thanks to this data anonymity process, any researcher analysing the data won't be able to track the information back to a specific participant. Therefore, this process will make identifying you impossibile, even when results from the study will be published in scientific reviews, presented at congresses, or at any other public forum. More generally, the collected data will be treated in accordance with the laws on privacy and conformity to the Legislative Degree n. 196 ""Code regarding the protection of personal data"" of the 30th of June 2003 and to the European Regulation 2016/670 (General Data Protection Regulation - GDPR). The Data Protection Officer is Avv. Valentina Carollo, who can be contacted at the following email addresses: <a href=""mailto:dpo@sissa.it"">dpo@sissa.it</a> or <a href=""mailto:rpd@sissa.it"">rpd@sissa.it</a> - PEC: <a href=""mailto:protocollo@pec.sissa.it"">protocollo@pec.sissa.it</a>.</p>
      <p style=""font-size: 15px;""> Before expressing your consent to participate, we would like to remind you again that in case you need explanations on any aspect of the experimental procedure, the researcher is at your disposition (<a href=""mailto:aliebelt@sissa.it"">aliebelt@sissa.it</a>, <a href=""mailto:davide.crepaldi@sissa.it"">davide.crepaldi@sissa.it</a>).</p>
      <p style=""font-size: 15px;"">If you would like to download the informed consent form, you can do so here: <a href=""BASL-Informed_Consent.pdf"" download>informed consent form</a>.</p>
      <p style=""font-size: 15px;"">We ask that you press the spacebar to proceed to the consent section.</p>","","","","","","","","",""
"survey-html-form","3","35506","0.0-3.0","5f91dc284909fe0b08f9e2e1","650c16f0f2faf8d7a0d14c09","651c34c3ed997e9068721d2b","19491","{""consent1"":""YES"",""consent2"":""YES"",""consent3"":""YES"",""consent4"":""YES"",""consent5"":""YES"",""consent6"":""YES""}","","","","","","","","","",""
"fullscreen","4","43016","0.0-4.0","5f91dc284909fe0b08f9e2e1","650c16f0f2faf8d7a0d14c09","651c34c3ed997e9068721d2b","","","","true","","","","","","","",""
"html-keyboard-response","5","58007","0.0-5.0","5f91dc284909fe0b08f9e2e1","650c16f0f2faf8d7a0d14c09","651c34c3ed997e9068721d2b","14991"," ","<p>Welcome, and thank you very much for your time!</p>
      <p>In this experiment, you'll be a language expert who's been asked to take a look at words that Earth has received in its first communication with aliens. Your task, in this first part of the experiment, is to pay close attention to the words you'll be shown; later, world leaders will ask you questions on what you saw. The words will be shown to you quite quickly; it seems that the aliens were in a hurry :-)</p>
      <p>Press the spacebar to continue.<p>","","","","","","","","",""
"html-keyboard-response","6","58062","0.0-6.0","5f91dc284909fe0b08f9e2e1","650c16f0f2faf8d7a0d14c09","651c34c3ed997e9068721d2b","null","null","<p style=""font-size: 120px; font-family: BACS""> </p>","","","","","","","","",""
"html-keyboard-response","7","62717","0.0-7.0","5f91dc284909fe0b08f9e2e1","650c16f0f2faf8d7a0d14c09","651c34c3ed997e9068721d2b","4654"," ","<p>Here is an example of the words you'll see:</p>
      <img src='esempio.png' height='400px'>
      <p>When you're ready to begin, press the spacebar.</p></div>","","","","","","","","",""
"html-keyboard-response","8","63718","0.0-8.0-0.0","5f91dc284909fe0b08f9e2e1","650c16f0f2faf8d7a0d14c09","651c34c3ed997e9068721d2b","null","null","<p style=""font-size: 60px; font-family: BACS"">ArQurAJu</p>","","","","","","","","",""
"html-keyboard-response","9","64733","0.0-8.0-0.1","5f91dc284909fe0b08f9e2e1","650c16f0f2faf8d7a0d14c09","651c34c3ed997e9068721d2b","null","null","<p style=""font-size: 60px; font-family: BACS"">LdrbvAvdk</p>","","","","","","","","",""
"html-keyboard-response","10","65735","0.0-8.0-0.2","5f91dc284909fe0b08f9e2e1","650c16f0f2faf8d7a0d14c09","651c34c3ed997e9068721d2b","null","null","<p style=""font-size: 60px; font-family: BACS"">vJabOJNk</p>","","","","","","","","",""
"html-keyboard-response","11","66736","0.0-8.0-0.3","5f91dc284909fe0b08f9e2e1","650c16f0f2faf8d7a0d14c09","651c34c3ed997e9068721d2b","null","null","<p style=""font-size: 60px; font-family: BACS"">BATOcOPE</p>","","","","","","","","",""
"html-keyboard-response","12","67737","0.0-8.0-0.4","5f91dc284909fe0b08f9e2e1","650c16f0f2faf8d7a0d14c09","651c34c3ed997e9068721d2b","null","null","<p style=""font-size: 60px; font-family: BACS"">DRPkYBCD</p>","","","","","","","","",""
"html-keyboard-response","13","68752","0.0-8.0-0.5","5f91dc284909fe0b08f9e2e1","650c16f0f2faf8d7a0d14c09","651c34c3ed997e9068721d2b","null","null","<p style=""font-size: 60px; font-family: BACS"">GZJYkGua</p>","","","","","","","","",""
"html-keyboard-response","14","69754","0.0-8.0-0.6","5f91dc284909fe0b08f9e2e1","650c16f0f2faf8d7a0d14c09","651c34c3ed997e9068721d2b","null","null","<p style=""font-size: 60px; font-family: BACS"">dmZvmAvdk</p>","","","","","","","","",""
"html-keyboard-response","15","70768","0.0-8.0-0.7","5f91dc284909fe0b08f9e2e1","650c16f0f2faf8d7a0d14c09","651c34c3ed997e9068721d2b","null","null","<p style=""font-size: 60px; font-family: BACS"">CRdBdTPOM</p>","","","","","","","","",""
"html-keyboard-response","16","71784","0.0-8.0-0.8","5f91dc284909fe0b08f9e2e1","650c16f0f2faf8d7a0d14c09","651c34c3ed997e9068721d2b","null","null","<p style=""font-size: 60px; font-family: BACS"">LdrbvkGua</p>","","","","","","","","",""
"html-keyboard-response","17","72787","0.0-8.0-0.9","5f91dc284909fe0b08f9e2e1","650c16f0f2faf8d7a0d14c09","651c34c3ed997e9068721d2b","null","null","<p style=""font-size: 60px; font-family: BACS"">DOchlOPE</p>","","","","","","","","",""
"html-keyboard-response","18","73800","0.0-8.0-0.10","5f91dc284909fe0b08f9e2e1","650c16f0f2faf8d7a0d14c09","651c34c3ed997e9068721d2b","null","null","<p style=""font-size: 60px; font-family: BACS"">lBKtBCD</p>","","","","","","","","",""
"html-keyboard-response","19","74815","0.0-8.0-0.11","5f91dc284909fe0b08f9e2e1","650c16f0f2faf8d7a0d14c09","651c34c3ed997e9068721d2b","null","null","<p style=""font-size: 60px; font-family: BACS"">tRPDOdOP</p>","","","","","","","","",""
"html-keyboard-response","20","75831","0.0-8.0-0.12","5f91dc284909fe0b08f9e2e1","650c16f0f2faf8d7a0d14c09","651c34c3ed997e9068721d2b","null","null","<p style=""font-size: 60px; font-family: BACS"">BATOcmtKP</p>","","","","","","","","",""
"html-keyboard-response","21","76846","0.0-8.0-0.13","5f91dc284909fe0b08f9e2e1","650c16f0f2faf8d7a0d14c09","651c34c3ed997e9068721d2b","null","null","<p style=""font-size: 60px; font-family: BACS"">lRckAOdOP</p>","","","","","","","","",""
"html-keyboard-response","22","77847","0.0-8.0-0.14","5f91dc284909fe0b08f9e2e1","650c16f0f2faf8d7a0d14c09","651c34c3ed997e9068721d2b","null","null","<p style=""font-size: 60px; font-family: BACS"">UdlGQGUOA</p>","","","","","","","","",""
"html-keyboard-response","23","78847","0.0-8.0-0.15","5f91dc284909fe0b08f9e2e1","650c16f0f2faf8d7a0d14c09","651c34c3ed997e9068721d2b","null","null","<p style=""font-size: 60px; font-family: BACS"">uQkrdAvdk</p>","","","","","","","","",""
"html-keyboard-response","24","79861","0.0-8.0-0.16","5f91dc284909fe0b08f9e2e1","650c16f0f2faf8d7a0d14c09","651c34c3ed997e9068721d2b","null","null","<p style=""font-size: 60px; font-family: BACS"">lRckATPOM</p>","","","","","","","","",""
"html-keyboard-response","25","80862","0.0-8.0-0.17","5f91dc284909fe0b08f9e2e1","650c16f0f2faf8d7a0d14c09","651c34c3ed997e9068721d2b","null","null","<p style=""font-size: 60px; font-family: BACS"">UdlGQOJNk</p>","","","","","","","","",""
"html-keyboard-response","26","81878","0.0-8.0-0.18","5f91dc284909fe0b08f9e2e1","650c16f0f2faf8d7a0d14c09","651c34c3ed997e9068721d2b","null","null","<p style=""font-size: 60px; font-family: BACS"">LdrbvrAJu</p>","","","","","","","","",""
"html-keyboard-response","27","82892","0.0-8.0-0.19","5f91dc284909fe0b08f9e2e1","650c16f0f2faf8d7a0d14c09","651c34c3ed997e9068721d2b","null","null","<p style=""font-size: 60px; font-family: BACS"">DRPkYOPE</p>","","","","","","","","",""
"html-keyboard-response","28","83894","0.0-8.0-0.20","5f91dc284909fe0b08f9e2e1","650c16f0f2faf8d7a0d14c09","651c34c3ed997e9068721d2b","null","null","<p style=""font-size: 60px; font-family: BACS"">dGLAlOJNk</p>","","","","","","","","",""
"html-keyboard-response","29","84909","0.0-8.0-0.21","5f91dc284909fe0b08f9e2e1","650c16f0f2faf8d7a0d14c09","651c34c3ed997e9068721d2b","null","null","<p style=""font-size: 60px; font-family: BACS"">GNAcarAJu</p>","","","","","","","","",""
"html-keyboard-response","30","85923","0.0-8.0-0.22","5f91dc284909fe0b08f9e2e1","650c16f0f2faf8d7a0d14c09","651c34c3ed997e9068721d2b","null","null","<p style=""font-size: 60px; font-family: BACS"">DdckTPOM</p>","","","","","","","","",""
"html-keyboard-response","31","86924","0.0-8.0-0.23","5f91dc284909fe0b08f9e2e1","650c16f0f2faf8d7a0d14c09","651c34c3ed997e9068721d2b","null","null","<p style=""font-size: 60px; font-family: BACS"">lBKtmtKP</p>","","","","","","","","",""
"html-keyboard-response","32","87939","0.0-8.0-0.24","5f91dc284909fe0b08f9e2e1","650c16f0f2faf8d7a0d14c09","651c34c3ed997e9068721d2b","null","null","<p style=""font-size: 60px; font-family: BACS"">DRPkYOdOP</p>","","","","","","","","",""
"html-keyboard-response","33","88940","0.0-8.0-0.25","5f91dc284909fe0b08f9e2e1","650c16f0f2faf8d7a0d14c09","651c34c3ed997e9068721d2b","null","null","<p style=""font-size: 60px; font-family: BACS"">DOchlTPOM</p>","","","","","","","","",""
"html-keyboard-response","34","89955","0.0-8.0-0.26","5f91dc284909fe0b08f9e2e1","650c16f0f2faf8d7a0d14c09","651c34c3ed997e9068721d2b","null","null","<p style=""font-size: 60px; font-family: BACS"">vJabAvdk</p>","","","","","","","","",""
"html-keyboard-response","35","90970","0.0-8.0-0.27","5f91dc284909fe0b08f9e2e1","650c16f0f2faf8d7a0d14c09","651c34c3ed997e9068721d2b","null","null","<p style=""font-size: 60px; font-family: BACS"">lBKtOPE</p>","","","","","","","","",""
"html-keyboard-response","36","91972","0.0-8.0-0.28","5f91dc284909fe0b08f9e2e1","650c16f0f2faf8d7a0d14c09","651c34c3ed997e9068721d2b","null","null","<p style=""font-size: 60px; font-family: BACS"">dGLAlrAJu</p>","","","","","","","","",""
"html-keyboard-response","37","92989","0.0-8.0-0.29","5f91dc284909fe0b08f9e2e1","650c16f0f2faf8d7a0d14c09","651c34c3ed997e9068721d2b","null","null","<p style=""font-size: 60px; font-family: BACS"">tRPDmtKP</p>","","","","","","","","",""
"html-keyboard-response","38","94002","0.0-8.0-0.30","5f91dc284909fe0b08f9e2e1","650c16f0f2faf8d7a0d14c09","651c34c3ed997e9068721d2b","null","null","<p style=""font-size: 60px; font-family: BACS"">vJabkGua</p>","","","","","","","","",""
"html-keyboard-response","39","95003","0.0-8.0-0.31","5f91dc284909fe0b08f9e2e1","650c16f0f2faf8d7a0d14c09","651c34c3ed997e9068721d2b","null","null","<p style=""font-size: 60px; font-family: BACS"">LdrbvGUOA</p>","","","","","","","","",""
"html-keyboard-response","40","96019","0.0-8.0-0.32","5f91dc284909fe0b08f9e2e1","650c16f0f2faf8d7a0d14c09","651c34c3ed997e9068721d2b","null","null","<p style=""font-size: 60px; font-family: BACS"">lBKtOdOP</p>","","","","","","","","",""
"html-keyboard-response","41","97032","0.0-8.0-0.33","5f91dc284909fe0b08f9e2e1","650c16f0f2faf8d7a0d14c09","651c34c3ed997e9068721d2b","null","null","<p style=""font-size: 60px; font-family: BACS"">ArQuAvdk</p>","","","","","","","","",""
"html-keyboard-response","42","98033","0.0-8.0-0.34","5f91dc284909fe0b08f9e2e1","650c16f0f2faf8d7a0d14c09","651c34c3ed997e9068721d2b","null","null","<p style=""font-size: 60px; font-family: BACS"">hTDdTPOM</p>","","","","","","","","",""
"html-keyboard-response","43","99034","0.0-8.0-0.35","5f91dc284909fe0b08f9e2e1","650c16f0f2faf8d7a0d14c09","651c34c3ed997e9068721d2b","null","null","<p style=""font-size: 60px; font-family: BACS"">dGLAlkGua</p>","","","","","","","","",""
"html-keyboard-response","44","100049","0.0-8.0-0.36","5f91dc284909fe0b08f9e2e1","650c16f0f2faf8d7a0d14c09","651c34c3ed997e9068721d2b","null","null","<p style=""font-size: 60px; font-family: BACS"">GNAcaOJNk</p>","","","","","","","","",""
"html-keyboard-response","45","101049","0.0-8.0-0.37","5f91dc284909fe0b08f9e2e1","650c16f0f2faf8d7a0d14c09","651c34c3ed997e9068721d2b","null","null","<p style=""font-size: 60px; font-family: BACS"">kMbTRTPOM</p>","","","","","","","","",""
"html-keyboard-response","46","102063","0.0-8.0-0.38","5f91dc284909fe0b08f9e2e1","650c16f0f2faf8d7a0d14c09","651c34c3ed997e9068721d2b","null","null","<p style=""font-size: 60px; font-family: BACS"">UdlGQkGua</p>","","","","","","","","",""
"html-keyboard-response","47","103079","0.0-8.0-0.39","5f91dc284909fe0b08f9e2e1","650c16f0f2faf8d7a0d14c09","651c34c3ed997e9068721d2b","null","null","<p style=""font-size: 60px; font-family: BACS"">DdckBCD</p>","","","","","","","","",""
"html-keyboard-response","48","104084","0.0-8.0-0.40","5f91dc284909fe0b08f9e2e1","650c16f0f2faf8d7a0d14c09","651c34c3ed997e9068721d2b","null","null","<p style=""font-size: 60px; font-family: BACS"">kMbTRmtKP</p>","","","","","","","","",""
"html-keyboard-response","49","105087","0.0-8.0-0.41","5f91dc284909fe0b08f9e2e1","650c16f0f2faf8d7a0d14c09","651c34c3ed997e9068721d2b","null","null","<p style=""font-size: 60px; font-family: BACS"">tRPDBCD</p>","","","","","","","","",""
"html-keyboard-response","50","106091","0.0-8.0-0.42","5f91dc284909fe0b08f9e2e1","650c16f0f2faf8d7a0d14c09","651c34c3ed997e9068721d2b","null","null","<p style=""font-size: 60px; font-family: BACS"">DRPkYTPOM</p>","","","","","","","","",""
"html-keyboard-response","51","107094","0.0-8.0-0.43","5f91dc284909fe0b08f9e2e1","650c16f0f2faf8d7a0d14c09","651c34c3ed997e9068721d2b","null","null","<p style=""font-size: 60px; font-family: BACS"">mkmJNGUOA</p>","","","","","","","","",""
"html-keyboard-response","52","108108","0.0-8.0-0.44","5f91dc284909fe0b08f9e2e1","650c16f0f2faf8d7a0d14c09","651c34c3ed997e9068721d2b","null","null","<p style=""font-size: 60px; font-family: BACS"">DdckOPE</p>","","","","","","","","",""
"html-keyboard-response","53","109112","0.0-8.0-0.45","5f91dc284909fe0b08f9e2e1","650c16f0f2faf8d7a0d14c09","651c34c3ed997e9068721d2b","null","null","<p style=""font-size: 60px; font-family: BACS"">dmZvmGUOA</p>","","","","","","","","",""
"html-keyboard-response","54","110115","0.0-8.0-0.46","5f91dc284909fe0b08f9e2e1","650c16f0f2faf8d7a0d14c09","651c34c3ed997e9068721d2b","null","null","<p style=""font-size: 60px; font-family: BACS"">GZJYAvdk</p>","","","","","","","","",""
"html-keyboard-response","55","111120","0.0-8.0-0.47","5f91dc284909fe0b08f9e2e1","650c16f0f2faf8d7a0d14c09","651c34c3ed997e9068721d2b","null","null","<p style=""font-size: 60px; font-family: BACS"">uQkrdkGua</p>","","","","","","","","",""
"html-keyboard-response","56","112123","0.0-8.0-0.48","5f91dc284909fe0b08f9e2e1","650c16f0f2faf8d7a0d14c09","651c34c3ed997e9068721d2b","null","null","<p style=""font-size: 60px; font-family: BACS"">BATOcOdOP</p>","","","","","","","","",""
"html-keyboard-response","57","113139","0.0-8.0-0.49","5f91dc284909fe0b08f9e2e1","650c16f0f2faf8d7a0d14c09","651c34c3ed997e9068721d2b","null","null","<p style=""font-size: 60px; font-family: BACS"">hTDdOPE</p>","","","","","","","","",""
"html-keyboard-response","58","114141","0.0-8.0-0.50","5f91dc284909fe0b08f9e2e1","650c16f0f2faf8d7a0d14c09","651c34c3ed997e9068721d2b","null","null","<p style=""font-size: 60px; font-family: BACS"">mkmJNOJNk</p>","","","","","","","","",""
"html-keyboard-response","59","115157","0.0-8.0-0.51","5f91dc284909fe0b08f9e2e1","650c16f0f2faf8d7a0d14c09","651c34c3ed997e9068721d2b","null","null","<p style=""font-size: 60px; font-family: BACS"">kMbTROPE</p>","","","","","","","","",""
"html-keyboard-response","60","116173","0.0-8.0-0.52","5f91dc284909fe0b08f9e2e1","650c16f0f2faf8d7a0d14c09","651c34c3ed997e9068721d2b","null","null","<p style=""font-size: 60px; font-family: BACS"">lRckAmtKP</p>","","","","","","","","",""
"html-keyboard-response","61","117174","0.0-8.0-0.53","5f91dc284909fe0b08f9e2e1","650c16f0f2faf8d7a0d14c09","651c34c3ed997e9068721d2b","null","null","<p style=""font-size: 60px; font-family: BACS"">ArQukGua</p>","","","","","","","","",""
"html-keyboard-response","62","118189","0.0-8.0-0.54","5f91dc284909fe0b08f9e2e1","650c16f0f2faf8d7a0d14c09","651c34c3ed997e9068721d2b","null","null","<p style=""font-size: 60px; font-family: BACS"">tRPDOPE</p>","","","","","","","","",""
"html-keyboard-response","63","119191","0.0-8.0-0.55","5f91dc284909fe0b08f9e2e1","650c16f0f2faf8d7a0d14c09","651c34c3ed997e9068721d2b","null","null","<p style=""font-size: 60px; font-family: BACS"">DOchlBCD</p>","","","","","","","","",""
"html-keyboard-response","64","120192","0.0-8.0-0.56","5f91dc284909fe0b08f9e2e1","650c16f0f2faf8d7a0d14c09","651c34c3ed997e9068721d2b","null","null","<p style=""font-size: 60px; font-family: BACS"">uQkrdGUOA</p>","","","","","","","","",""
"html-keyboard-response","65","121206","0.0-8.0-0.57","5f91dc284909fe0b08f9e2e1","650c16f0f2faf8d7a0d14c09","651c34c3ed997e9068721d2b","null","null","<p style=""font-size: 60px; font-family: BACS"">mkmJNrAJu</p>","","","","","","","","",""
"html-keyboard-response","66","122220","0.0-8.0-0.58","5f91dc284909fe0b08f9e2e1","650c16f0f2faf8d7a0d14c09","651c34c3ed997e9068721d2b","null","null","<p style=""font-size: 60px; font-family: BACS"">uQkrdOJNk</p>","","","","","","","","",""
"html-keyboard-response","67","123221","0.0-8.0-0.59","5f91dc284909fe0b08f9e2e1","650c16f0f2faf8d7a0d14c09","651c34c3ed997e9068721d2b","null","null","<p style=""font-size: 60px; font-family: BACS"">lRckABCD</p>","","","","","","","","",""
"html-keyboard-response","68","124236","0.0-8.0-0.60","5f91dc284909fe0b08f9e2e1","650c16f0f2faf8d7a0d14c09","651c34c3ed997e9068721d2b","null","null","<p style=""font-size: 60px; font-family: BACS"">GZJYGUOA</p>","","","","","","","","",""
"html-keyboard-response","69","125252","0.0-8.0-0.61","5f91dc284909fe0b08f9e2e1","650c16f0f2faf8d7a0d14c09","651c34c3ed997e9068721d2b","null","null","<p style=""font-size: 60px; font-family: BACS"">CRdBdOdOP</p>","","","","","","","","",""
"html-keyboard-response","70","126268","0.0-8.0-0.62","5f91dc284909fe0b08f9e2e1","650c16f0f2faf8d7a0d14c09","651c34c3ed997e9068721d2b","null","null","<p style=""font-size: 60px; font-family: BACS"">UdlGQrAJu</p>","","","","","","","","",""
"html-keyboard-response","71","127283","0.0-8.0-0.63","5f91dc284909fe0b08f9e2e1","650c16f0f2faf8d7a0d14c09","651c34c3ed997e9068721d2b","null","null","<p style=""font-size: 60px; font-family: BACS"">GNAcakGua</p>","","","","","","","","",""
"html-keyboard-response","72","128298","0.0-8.0-0.64","5f91dc284909fe0b08f9e2e1","650c16f0f2faf8d7a0d14c09","651c34c3ed997e9068721d2b","null","null","<p style=""font-size: 60px; font-family: BACS"">dmZvmrAJu</p>","","","","","","","","",""
"html-keyboard-response","73","129312","0.0-8.0-0.65","5f91dc284909fe0b08f9e2e1","650c16f0f2faf8d7a0d14c09","651c34c3ed997e9068721d2b","null","null","<p style=""font-size: 60px; font-family: BACS"">DdckmtKP</p>","","","","","","","","",""
"html-keyboard-response","74","130325","0.0-8.0-0.66","5f91dc284909fe0b08f9e2e1","650c16f0f2faf8d7a0d14c09","651c34c3ed997e9068721d2b","null","null","<p style=""font-size: 60px; font-family: BACS"">ArQuGUOA</p>","","","","","","","","",""
"html-keyboard-response","75","131339","0.0-8.0-0.67","5f91dc284909fe0b08f9e2e1","650c16f0f2faf8d7a0d14c09","651c34c3ed997e9068721d2b","null","null","<p style=""font-size: 60px; font-family: BACS"">hTDdmtKP</p>","","","","","","","","",""
"html-keyboard-response","76","132354","0.0-8.0-0.68","5f91dc284909fe0b08f9e2e1","650c16f0f2faf8d7a0d14c09","651c34c3ed997e9068721d2b","null","null","<p style=""font-size: 60px; font-family: BACS"">kMbTROdOP</p>","","","","","","","","",""
"html-keyboard-response","77","133357","0.0-8.0-0.69","5f91dc284909fe0b08f9e2e1","650c16f0f2faf8d7a0d14c09","651c34c3ed997e9068721d2b","null","null","<p style=""font-size: 60px; font-family: BACS"">vJabrAJu</p>","","","","","","","","",""
"html-keyboard-response","78","134372","0.0-8.0-0.70","5f91dc284909fe0b08f9e2e1","650c16f0f2faf8d7a0d14c09","651c34c3ed997e9068721d2b","null","null","<p style=""font-size: 60px; font-family: BACS"">BATOcTPOM</p>","","","","","","","","",""
"html-keyboard-response","79","135374","0.0-8.0-0.71","5f91dc284909fe0b08f9e2e1","650c16f0f2faf8d7a0d14c09","651c34c3ed997e9068721d2b","null","null","<p style=""font-size: 60px; font-family: BACS"">CRdBdBCD</p>","","","","","","","","",""
"html-keyboard-response","80","136374","0.0-8.0-0.72","5f91dc284909fe0b08f9e2e1","650c16f0f2faf8d7a0d14c09","651c34c3ed997e9068721d2b","null","null","<p style=""font-size: 60px; font-family: BACS"">dmZvmOJNk</p>","","","","","","","","",""
"html-keyboard-response","81","137376","0.0-8.0-0.73","5f91dc284909fe0b08f9e2e1","650c16f0f2faf8d7a0d14c09","651c34c3ed997e9068721d2b","null","null","<p style=""font-size: 60px; font-family: BACS"">hTDdBCD</p>","","","","","","","","",""
"html-keyboard-response","82","138390","0.0-8.0-0.74","5f91dc284909fe0b08f9e2e1","650c16f0f2faf8d7a0d14c09","651c34c3ed997e9068721d2b","null","null","<p style=""font-size: 60px; font-family: BACS"">mkmJNAvdk</p>","","","","","","","","",""
"html-keyboard-response","83","139405","0.0-8.0-0.75","5f91dc284909fe0b08f9e2e1","650c16f0f2faf8d7a0d14c09","651c34c3ed997e9068721d2b","null","null","<p style=""font-size: 60px; font-family: BACS"">GZJYOJNk</p>","","","","","","","","",""
"html-keyboard-response","84","140407","0.0-8.0-0.76","5f91dc284909fe0b08f9e2e1","650c16f0f2faf8d7a0d14c09","651c34c3ed997e9068721d2b","null","null","<p style=""font-size: 60px; font-family: BACS"">DOchlOdOP</p>","","","","","","","","",""
"html-keyboard-response","85","141409","0.0-8.0-0.77","5f91dc284909fe0b08f9e2e1","650c16f0f2faf8d7a0d14c09","651c34c3ed997e9068721d2b","null","null","<p style=""font-size: 60px; font-family: BACS"">CRdBdmtKP</p>","","","","","","","","",""
"html-keyboard-response","86","142424","0.0-8.0-0.78","5f91dc284909fe0b08f9e2e1","650c16f0f2faf8d7a0d14c09","651c34c3ed997e9068721d2b","null","null","<p style=""font-size: 60px; font-family: BACS"">dGLAlGUOA</p>","","","","","","","","",""
"html-keyboard-response","87","143425","0.0-8.0-0.79","5f91dc284909fe0b08f9e2e1","650c16f0f2faf8d7a0d14c09","651c34c3ed997e9068721d2b","null","null","<p style=""font-size: 60px; font-family: BACS"">GNAcaAvdk</p>","","","","","","","","",""
"html-keyboard-response","88","147426","0.0-9.0","5f91dc284909fe0b08f9e2e1","650c16f0f2faf8d7a0d14c09","651c34c3ed997e9068721d2b","4001"," ","<p>Great, you've seen the first block of words. You may now take a short break.</p>
      <p>Press the spacebar when you're ready to continue.</p>","","","","","","","","",""
"html-keyboard-response","89","148427","0.0-10.0-0.0","5f91dc284909fe0b08f9e2e1","650c16f0f2faf8d7a0d14c09","651c34c3ed997e9068721d2b","null","null","<p style=""font-size: 60px; font-family: BACS"">BATOcmtKP</p>","","","","","","","","",""
"html-keyboard-response","90","149442","0.0-10.0-0.1","5f91dc284909fe0b08f9e2e1","650c16f0f2faf8d7a0d14c09","651c34c3ed997e9068721d2b","null","null","<p style=""font-size: 60px; font-family: BACS"">uQkrdkGua</p>","","","","","","","","",""
"html-keyboard-response","91","150453","0.0-10.0-0.2","5f91dc284909fe0b08f9e2e1","650c16f0f2faf8d7a0d14c09","651c34c3ed997e9068721d2b","null","null","<p style=""font-size: 60px; font-family: BACS"">DdckmtKP</p>","","","","","","","","",""
"html-keyboard-response","92","151454","0.0-10.0-0.3","5f91dc284909fe0b08f9e2e1","650c16f0f2faf8d7a0d14c09","651c34c3ed997e9068721d2b","null","null","<p style=""font-size: 60px; font-family: BACS"">dGLAlrAJu</p>","","","","","","","","",""
"html-keyboard-response","93","152469","0.0-10.0-0.4","5f91dc284909fe0b08f9e2e1","650c16f0f2faf8d7a0d14c09","651c34c3ed997e9068721d2b","null","null","<p style=""font-size: 60px; font-family: BACS"">lBKtOdOP</p>","","","","","","","","",""
"html-keyboard-response","94","153471","0.0-10.0-0.5","5f91dc284909fe0b08f9e2e1","650c16f0f2faf8d7a0d14c09","651c34c3ed997e9068721d2b","null","null","<p style=""font-size: 60px; font-family: BACS"">UdlGQOJNk</p>","","","","","","","","",""
"html-keyboard-response","95","154486","0.0-10.0-0.6","5f91dc284909fe0b08f9e2e1","650c16f0f2faf8d7a0d14c09","651c34c3ed997e9068721d2b","null","null","<p style=""font-size: 60px; font-family: BACS"">GZJYkGua</p>","","","","","","","","",""
"html-keyboard-response","96","155501","0.0-10.0-0.7","5f91dc284909fe0b08f9e2e1","650c16f0f2faf8d7a0d14c09","651c34c3ed997e9068721d2b","null","null","<p style=""font-size: 60px; font-family: BACS"">DOchlOdOP</p>","","","","","","","","",""
"html-keyboard-response","97","156504","0.0-10.0-0.8","5f91dc284909fe0b08f9e2e1","650c16f0f2faf8d7a0d14c09","651c34c3ed997e9068721d2b","null","null","<p style=""font-size: 60px; font-family: BACS"">ArQuAvdk</p>","","","","","","","","",""
"html-keyboard-response","98","157517","0.0-10.0-0.9","5f91dc284909fe0b08f9e2e1","650c16f0f2faf8d7a0d14c09","651c34c3ed997e9068721d2b","null","null","<p style=""font-size: 60px; font-family: BACS"">BATOcTPOM</p>","","","","","","","","",""
"html-keyboard-response","99","158518","0.0-10.0-0.10","5f91dc284909fe0b08f9e2e1","650c16f0f2faf8d7a0d14c09","651c34c3ed997e9068721d2b","null","null","<p style=""font-size: 60px; font-family: BACS"">LdrbvrAJu</p>","","","","","","","","",""
"html-keyboard-response","100","159533","0.0-10.0-0.11","5f91dc284909fe0b08f9e2e1","650c16f0f2faf8d7a0d14c09","651c34c3ed997e9068721d2b","null","null","<p style=""font-size: 60px; font-family: BACS"">mkmJNOJNk</p>","","","","","","","","",""
"html-keyboard-response","101","160548","0.0-10.0-0.12","5f91dc284909fe0b08f9e2e1","650c16f0f2faf8d7a0d14c09","651c34c3ed997e9068721d2b","null","null","<p style=""font-size: 60px; font-family: BACS"">tRPDBCD</p>","","","","","","","","",""
"html-keyboard-response","102","161565","0.0-10.0-0.13","5f91dc284909fe0b08f9e2e1","650c16f0f2faf8d7a0d14c09","651c34c3ed997e9068721d2b","null","null","<p style=""font-size: 60px; font-family: BACS"">CRdBdmtKP</p>","","","","","","","","",""
"html-keyboard-response","103","162579","0.0-10.0-0.14","5f91dc284909fe0b08f9e2e1","650c16f0f2faf8d7a0d14c09","651c34c3ed997e9068721d2b","null","null","<p style=""font-size: 60px; font-family: BACS"">DdckOPE</p>","","","","","","","","",""
"html-keyboard-response","104","163580","0.0-10.0-0.15","5f91dc284909fe0b08f9e2e1","650c16f0f2faf8d7a0d14c09","651c34c3ed997e9068721d2b","null","null","<p style=""font-size: 60px; font-family: BACS"">uQkrdOJNk</p>","","","","","","","","",""
"html-keyboard-response","105","164594","0.0-10.0-0.16","5f91dc284909fe0b08f9e2e1","650c16f0f2faf8d7a0d14c09","651c34c3ed997e9068721d2b","null","null","<p style=""font-size: 60px; font-family: BACS"">DRPkYBCD</p>","","","","","","","","",""
"html-keyboard-response","106","165597","0.0-10.0-0.17","5f91dc284909fe0b08f9e2e1","650c16f0f2faf8d7a0d14c09","651c34c3ed997e9068721d2b","null","null","<p style=""font-size: 60px; font-family: BACS"">kMbTRTPOM</p>","","","","","","","","",""
"html-keyboard-response","107","166611","0.0-10.0-0.18","5f91dc284909fe0b08f9e2e1","650c16f0f2faf8d7a0d14c09","651c34c3ed997e9068721d2b","null","null","<p style=""font-size: 60px; font-family: BACS"">vJabkGua</p>","","","","","","","","",""
"html-keyboard-response","108","167627","0.0-10.0-0.19","5f91dc284909fe0b08f9e2e1","650c16f0f2faf8d7a0d14c09","651c34c3ed997e9068721d2b","null","null","<p style=""font-size: 60px; font-family: BACS"">lBKtmtKP</p>","","","","","","","","",""
"html-keyboard-response","109","168628","0.0-10.0-0.20","5f91dc284909fe0b08f9e2e1","650c16f0f2faf8d7a0d14c09","651c34c3ed997e9068721d2b","null","null","<p style=""font-size: 60px; font-family: BACS"">mkmJNAvdk</p>","","","","","","","","",""
"html-keyboard-response","110","169643","0.0-10.0-0.21","5f91dc284909fe0b08f9e2e1","650c16f0f2faf8d7a0d14c09","651c34c3ed997e9068721d2b","null","null","<p style=""font-size: 60px; font-family: BACS"">dGLAlOJNk</p>","","","","","","","","",""
"html-keyboard-response","111","170645","0.0-10.0-0.22","5f91dc284909fe0b08f9e2e1","650c16f0f2faf8d7a0d14c09","651c34c3ed997e9068721d2b","null","null","<p style=""font-size: 60px; font-family: BACS"">DOchlTPOM</p>","","","","","","","","",""
"html-keyboard-response","112","171655","0.0-10.0-0.23","5f91dc284909fe0b08f9e2e1","650c16f0f2faf8d7a0d14c09","651c34c3ed997e9068721d2b","null","null","<p style=""font-size: 60px; font-family: BACS"">lBKtBCD</p>","","","","","","","","",""
"html-keyboard-response","113","172659","0.0-10.0-0.24","5f91dc284909fe0b08f9e2e1","650c16f0f2faf8d7a0d14c09","651c34c3ed997e9068721d2b","null","null","<p style=""font-size: 60px; font-family: BACS"">DRPkYTPOM</p>","","","","","","","","",""
"html-keyboard-response","114","173659","0.0-10.0-0.25","5f91dc284909fe0b08f9e2e1","650c16f0f2faf8d7a0d14c09","651c34c3ed997e9068721d2b","null","null","<p style=""font-size: 60px; font-family: BACS"">BATOcOPE</p>","","","","","","","","",""
"html-keyboard-response","115","174674","0.0-10.0-0.26","5f91dc284909fe0b08f9e2e1","650c16f0f2faf8d7a0d14c09","651c34c3ed997e9068721d2b","null","null","<p style=""font-size: 60px; font-family: BACS"">ArQukGua</p>","","","","","","","","",""
"html-keyboard-response","116","175690","0.0-10.0-0.27","5f91dc284909fe0b08f9e2e1","650c16f0f2faf8d7a0d14c09","651c34c3ed997e9068721d2b","null","null","<p style=""font-size: 60px; font-family: BACS"">lRckABCD</p>","","","","","","","","",""
"html-keyboard-response","117","176693","0.0-10.0-0.28","5f91dc284909fe0b08f9e2e1","650c16f0f2faf8d7a0d14c09","651c34c3ed997e9068721d2b","null","null","<p style=""font-size: 60px; font-family: BACS"">kMbTROPE</p>","","","","","","","","",""
"html-keyboard-response","118","177706","0.0-10.0-0.29","5f91dc284909fe0b08f9e2e1","650c16f0f2faf8d7a0d14c09","651c34c3ed997e9068721d2b","null","null","<p style=""font-size: 60px; font-family: BACS"">uQkrdGUOA</p>","","","","","","","","",""
"html-keyboard-response","119","178720","0.0-10.0-0.30","5f91dc284909fe0b08f9e2e1","650c16f0f2faf8d7a0d14c09","651c34c3ed997e9068721d2b","null","null","<p style=""font-size: 60px; font-family: BACS"">hTDdOPE</p>","","","","","","","","",""
"html-keyboard-response","120","179720","0.0-10.0-0.31","5f91dc284909fe0b08f9e2e1","650c16f0f2faf8d7a0d14c09","651c34c3ed997e9068721d2b","null","null","<p style=""font-size: 60px; font-family: BACS"">mkmJNGUOA</p>","","","","","","","","",""
"html-keyboard-response","121","180735","0.0-10.0-0.32","5f91dc284909fe0b08f9e2e1","650c16f0f2faf8d7a0d14c09","651c34c3ed997e9068721d2b","null","null","<p style=""font-size: 60px; font-family: BACS"">vJabrAJu</p>","","","","","","","","",""
"html-keyboard-response","122","181739","0.0-10.0-0.33","5f91dc284909fe0b08f9e2e1","650c16f0f2faf8d7a0d14c09","651c34c3ed997e9068721d2b","null","null","<p style=""font-size: 60px; font-family: BACS"">DdckBCD</p>","","","","","","","","",""
"html-keyboard-response","123","182754","0.0-10.0-0.34","5f91dc284909fe0b08f9e2e1","650c16f0f2faf8d7a0d14c09","651c34c3ed997e9068721d2b","null","null","<p style=""font-size: 60px; font-family: BACS"">DOchlOPE</p>","","","","","","","","",""
"html-keyboard-response","124","183754","0.0-10.0-0.35","5f91dc284909fe0b08f9e2e1","650c16f0f2faf8d7a0d14c09","651c34c3ed997e9068721d2b","null","null","<p style=""font-size: 60px; font-family: BACS"">dmZvmAvdk</p>","","","","","","","","",""
"html-keyboard-response","125","184755","0.0-10.0-0.36","5f91dc284909fe0b08f9e2e1","650c16f0f2faf8d7a0d14c09","651c34c3ed997e9068721d2b","null","null","<p style=""font-size: 60px; font-family: BACS"">DdckTPOM</p>","","","","","","","","",""
"html-keyboard-response","126","185769","0.0-10.0-0.37","5f91dc284909fe0b08f9e2e1","650c16f0f2faf8d7a0d14c09","651c34c3ed997e9068721d2b","null","null","<p style=""font-size: 60px; font-family: BACS"">LdrbvkGua</p>","","","","","","","","",""
"html-keyboard-response","127","186772","0.0-10.0-0.38","5f91dc284909fe0b08f9e2e1","650c16f0f2faf8d7a0d14c09","651c34c3ed997e9068721d2b","null","null","<p style=""font-size: 60px; font-family: BACS"">CRdBdOdOP</p>","","","","","","","","",""
"html-keyboard-response","128","187775","0.0-10.0-0.39","5f91dc284909fe0b08f9e2e1","650c16f0f2faf8d7a0d14c09","651c34c3ed997e9068721d2b","null","null","<p style=""font-size: 60px; font-family: BACS"">LdrbvAvdk</p>","","","","","","","","",""
"html-keyboard-response","129","188780","0.0-10.0-0.40","5f91dc284909fe0b08f9e2e1","650c16f0f2faf8d7a0d14c09","651c34c3ed997e9068721d2b","null","null","<p style=""font-size: 60px; font-family: BACS"">ArQuGUOA</p>","","","","","","","","",""
"html-keyboard-response","130","189797","0.0-10.0-0.41","5f91dc284909fe0b08f9e2e1","650c16f0f2faf8d7a0d14c09","651c34c3ed997e9068721d2b","null","null","<p style=""font-size: 60px; font-family: BACS"">GNAcarAJu</p>","","","","","","","","",""
"html-keyboard-response","131","190800","0.0-10.0-0.42","5f91dc284909fe0b08f9e2e1","650c16f0f2faf8d7a0d14c09","651c34c3ed997e9068721d2b","null","null","<p style=""font-size: 60px; font-family: BACS"">vJabOJNk</p>","","","","","","","","",""
"html-keyboard-response","132","191815","0.0-10.0-0.43","5f91dc284909fe0b08f9e2e1","650c16f0f2faf8d7a0d14c09","651c34c3ed997e9068721d2b","null","null","<p style=""font-size: 60px; font-family: BACS"">lRckAOdOP</p>","","","","","","","","",""
"html-keyboard-response","133","192817","0.0-10.0-0.44","5f91dc284909fe0b08f9e2e1","650c16f0f2faf8d7a0d14c09","651c34c3ed997e9068721d2b","null","null","<p style=""font-size: 60px; font-family: BACS"">GNAcaOJNk</p>","","","","","","","","",""
"html-keyboard-response","134","193832","0.0-10.0-0.45","5f91dc284909fe0b08f9e2e1","650c16f0f2faf8d7a0d14c09","651c34c3ed997e9068721d2b","null","null","<p style=""font-size: 60px; font-family: BACS"">hTDdTPOM</p>","","","","","","","","",""
"html-keyboard-response","135","194833","0.0-10.0-0.46","5f91dc284909fe0b08f9e2e1","650c16f0f2faf8d7a0d14c09","651c34c3ed997e9068721d2b","null","null","<p style=""font-size: 60px; font-family: BACS"">kMbTRmtKP</p>","","","","","","","","",""
"html-keyboard-response","136","195845","0.0-10.0-0.47","5f91dc284909fe0b08f9e2e1","650c16f0f2faf8d7a0d14c09","651c34c3ed997e9068721d2b","null","null","<p style=""font-size: 60px; font-family: BACS"">UdlGQrAJu</p>","","","","","","","","",""
"html-keyboard-response","137","196846","0.0-10.0-0.48","5f91dc284909fe0b08f9e2e1","650c16f0f2faf8d7a0d14c09","651c34c3ed997e9068721d2b","null","null","<p style=""font-size: 60px; font-family: BACS"">GZJYOJNk</p>","","","","","","","","",""
"html-keyboard-response","138","197857","0.0-10.0-0.49","5f91dc284909fe0b08f9e2e1","650c16f0f2faf8d7a0d14c09","651c34c3ed997e9068721d2b","null","null","<p style=""font-size: 60px; font-family: BACS"">uQkrdAvdk</p>","","","","","","","","",""
"html-keyboard-response","139","198871","0.0-10.0-0.50","5f91dc284909fe0b08f9e2e1","650c16f0f2faf8d7a0d14c09","651c34c3ed997e9068721d2b","null","null","<p style=""font-size: 60px; font-family: BACS"">tRPDOdOP</p>","","","","","","","","",""
"html-keyboard-response","140","199885","0.0-10.0-0.51","5f91dc284909fe0b08f9e2e1","650c16f0f2faf8d7a0d14c09","651c34c3ed997e9068721d2b","null","null","<p style=""font-size: 60px; font-family: BACS"">dmZvmOJNk</p>","","","","","","","","",""
"html-keyboard-response","141","200901","0.0-10.0-0.52","5f91dc284909fe0b08f9e2e1","650c16f0f2faf8d7a0d14c09","651c34c3ed997e9068721d2b","null","null","<p style=""font-size: 60px; font-family: BACS"">DRPkYOPE</p>","","","","","","","","",""
"html-keyboard-response","142","201912","0.0-10.0-0.53","5f91dc284909fe0b08f9e2e1","650c16f0f2faf8d7a0d14c09","651c34c3ed997e9068721d2b","null","null","<p style=""font-size: 60px; font-family: BACS"">GZJYAvdk</p>","","","","","","","","",""
"html-keyboard-response","143","202925","0.0-10.0-0.54","5f91dc284909fe0b08f9e2e1","650c16f0f2faf8d7a0d14c09","651c34c3ed997e9068721d2b","null","null","<p style=""font-size: 60px; font-family: BACS"">mkmJNrAJu</p>","","","","","","","","",""
"html-keyboard-response","144","203930","0.0-10.0-0.55","5f91dc284909fe0b08f9e2e1","650c16f0f2faf8d7a0d14c09","651c34c3ed997e9068721d2b","null","null","<p style=""font-size: 60px; font-family: BACS"">GNAcaAvdk</p>","","","","","","","","",""
"html-keyboard-response","145","204941","0.0-10.0-0.56","5f91dc284909fe0b08f9e2e1","650c16f0f2faf8d7a0d14c09","651c34c3ed997e9068721d2b","null","null","<p style=""font-size: 60px; font-family: BACS"">UdlGQkGua</p>","","","","","","","","",""
"html-keyboard-response","146","205943","0.0-10.0-0.57","5f91dc284909fe0b08f9e2e1","650c16f0f2faf8d7a0d14c09","651c34c3ed997e9068721d2b","null","null","<p style=""font-size: 60px; font-family: BACS"">CRdBdTPOM</p>","","","","","","","","",""
"html-keyboard-response","147","206956","0.0-10.0-0.58","5f91dc284909fe0b08f9e2e1","650c16f0f2faf8d7a0d14c09","651c34c3ed997e9068721d2b","null","null","<p style=""font-size: 60px; font-family: BACS"">BATOcOdOP</p>","","","","","","","","",""
"html-keyboard-response","148","207956","0.0-10.0-0.59","5f91dc284909fe0b08f9e2e1","650c16f0f2faf8d7a0d14c09","651c34c3ed997e9068721d2b","null","null","<p style=""font-size: 60px; font-family: BACS"">GZJYGUOA</p>","","","","","","","","",""
"html-keyboard-response","149","208971","0.0-10.0-0.60","5f91dc284909fe0b08f9e2e1","650c16f0f2faf8d7a0d14c09","651c34c3ed997e9068721d2b","null","null","<p style=""font-size: 60px; font-family: BACS"">DOchlBCD</p>","","","","","","","","",""
"html-keyboard-response","150","209986","0.0-10.0-0.61","5f91dc284909fe0b08f9e2e1","650c16f0f2faf8d7a0d14c09","651c34c3ed997e9068721d2b","null","null","<p style=""font-size: 60px; font-family: BACS"">vJabAvdk</p>","","","","","","","","",""
"html-keyboard-response","151","210988","0.0-10.0-0.62","5f91dc284909fe0b08f9e2e1","650c16f0f2faf8d7a0d14c09","651c34c3ed997e9068721d2b","null","null","<p style=""font-size: 60px; font-family: BACS"">dGLAlkGua</p>","","","","","","","","",""
"html-keyboard-response","152","212001","0.0-10.0-0.63","5f91dc284909fe0b08f9e2e1","650c16f0f2faf8d7a0d14c09","651c34c3ed997e9068721d2b","null","null","<p style=""font-size: 60px; font-family: BACS"">lRckAmtKP</p>","","","","","","","","",""
"html-keyboard-response","153","213018","0.0-10.0-0.64","5f91dc284909fe0b08f9e2e1","650c16f0f2faf8d7a0d14c09","651c34c3ed997e9068721d2b","null","null","<p style=""font-size: 60px; font-family: BACS"">GNAcakGua</p>","","","","","","","","",""
"html-keyboard-response","154","214019","0.0-10.0-0.65","5f91dc284909fe0b08f9e2e1","650c16f0f2faf8d7a0d14c09","651c34c3ed997e9068721d2b","null","null","<p style=""font-size: 60px; font-family: BACS"">CRdBdBCD</p>","","","","","","","","",""
"html-keyboard-response","155","215025","0.0-10.0-0.66","5f91dc284909fe0b08f9e2e1","650c16f0f2faf8d7a0d14c09","651c34c3ed997e9068721d2b","null","null","<p style=""font-size: 60px; font-family: BACS"">LdrbvGUOA</p>","","","","","","","","",""
"html-keyboard-response","156","216030","0.0-10.0-0.67","5f91dc284909fe0b08f9e2e1","650c16f0f2faf8d7a0d14c09","651c34c3ed997e9068721d2b","null","null","<p style=""font-size: 60px; font-family: BACS"">tRPDmtKP</p>","","","","","","","","",""
"html-keyboard-response","157","217036","0.0-10.0-0.68","5f91dc284909fe0b08f9e2e1","650c16f0f2faf8d7a0d14c09","651c34c3ed997e9068721d2b","null","null","<p style=""font-size: 60px; font-family: BACS"">DRPkYOdOP</p>","","","","","","","","",""
"html-keyboard-response","158","218049","0.0-10.0-0.69","5f91dc284909fe0b08f9e2e1","650c16f0f2faf8d7a0d14c09","651c34c3ed997e9068721d2b","null","null","<p style=""font-size: 60px; font-family: BACS"">lRckATPOM</p>","","","","","","","","",""
"html-keyboard-response","159","219052","0.0-10.0-0.70","5f91dc284909fe0b08f9e2e1","650c16f0f2faf8d7a0d14c09","651c34c3ed997e9068721d2b","null","null","<p style=""font-size: 60px; font-family: BACS"">ArQurAJu</p>","","","","","","","","",""
"html-keyboard-response","160","220061","0.0-10.0-0.71","5f91dc284909fe0b08f9e2e1","650c16f0f2faf8d7a0d14c09","651c34c3ed997e9068721d2b","null","null","<p style=""font-size: 60px; font-family: BACS"">dGLAlGUOA</p>","","","","","","","","",""
"html-keyboard-response","161","221065","0.0-10.0-0.72","5f91dc284909fe0b08f9e2e1","650c16f0f2faf8d7a0d14c09","651c34c3ed997e9068721d2b","null","null","<p style=""font-size: 60px; font-family: BACS"">hTDdmtKP</p>","","","","","","","","",""
"html-keyboard-response","162","222066","0.0-10.0-0.73","5f91dc284909fe0b08f9e2e1","650c16f0f2faf8d7a0d14c09","651c34c3ed997e9068721d2b","null","null","<p style=""font-size: 60px; font-family: BACS"">kMbTROdOP</p>","","","","","","","","",""
"html-keyboard-response","163","223080","0.0-10.0-0.74","5f91dc284909fe0b08f9e2e1","650c16f0f2faf8d7a0d14c09","651c34c3ed997e9068721d2b","null","null","<p style=""font-size: 60px; font-family: BACS"">UdlGQGUOA</p>","","","","","","","","",""
"html-keyboard-response","164","224094","0.0-10.0-0.75","5f91dc284909fe0b08f9e2e1","650c16f0f2faf8d7a0d14c09","651c34c3ed997e9068721d2b","null","null","<p style=""font-size: 60px; font-family: BACS"">hTDdBCD</p>","","","","","","","","",""
"html-keyboard-response","165","225097","0.0-10.0-0.76","5f91dc284909fe0b08f9e2e1","650c16f0f2faf8d7a0d14c09","651c34c3ed997e9068721d2b","null","null","<p style=""font-size: 60px; font-family: BACS"">dmZvmGUOA</p>","","","","","","","","",""
"html-keyboard-response","166","226113","0.0-10.0-0.77","5f91dc284909fe0b08f9e2e1","650c16f0f2faf8d7a0d14c09","651c34c3ed997e9068721d2b","null","null","<p style=""font-size: 60px; font-family: BACS"">tRPDOPE</p>","","","","","","","","",""
"html-keyboard-response","167","227114","0.0-10.0-0.78","5f91dc284909fe0b08f9e2e1","650c16f0f2faf8d7a0d14c09","651c34c3ed997e9068721d2b","null","null","<p style=""font-size: 60px; font-family: BACS"">dmZvmrAJu</p>","","","","","","","","",""
"html-keyboard-response","168","228127","0.0-10.0-0.79","5f91dc284909fe0b08f9e2e1","650c16f0f2faf8d7a0d14c09","651c34c3ed997e9068721d2b","null","null","<p style=""font-size: 60px; font-family: BACS"">lBKtOPE</p>","","","","","","","","",""
"html-keyboard-response","169","332838","0.0-11.0","5f91dc284909fe0b08f9e2e1","650c16f0f2faf8d7a0d14c09","651c34c3ed997e9068721d2b","104711"," ","<p>Great, you've seen the second block of words. You may now take a short break.</p>
      <p>Press the spacebar when you're ready to continue.</p>","","","","","","","","",""
"html-keyboard-response","170","333839","0.0-12.0-0.0","5f91dc284909fe0b08f9e2e1","650c16f0f2faf8d7a0d14c09","651c34c3ed997e9068721d2b","null","null","<p style=""font-size: 60px; font-family: BACS"">kMbTRTPOM</p>","","","","","","","","",""
"html-keyboard-response","171","334846","0.0-12.0-0.1","5f91dc284909fe0b08f9e2e1","650c16f0f2faf8d7a0d14c09","651c34c3ed997e9068721d2b","null","null","<p style=""font-size: 60px; font-family: BACS"">CRdBdmtKP</p>","","","","","","","","",""
"html-keyboard-response","172","335861","0.0-12.0-0.2","5f91dc284909fe0b08f9e2e1","650c16f0f2faf8d7a0d14c09","651c34c3ed997e9068721d2b","null","null","<p style=""font-size: 60px; font-family: BACS"">GZJYkGua</p>","","","","","","","","",""
"html-keyboard-response","173","336875","0.0-12.0-0.3","5f91dc284909fe0b08f9e2e1","650c16f0f2faf8d7a0d14c09","651c34c3ed997e9068721d2b","null","null","<p style=""font-size: 60px; font-family: BACS"">BATOcmtKP</p>","","","","","","","","",""
"html-keyboard-response","174","337877","0.0-12.0-0.4","5f91dc284909fe0b08f9e2e1","650c16f0f2faf8d7a0d14c09","651c34c3ed997e9068721d2b","null","null","<p style=""font-size: 60px; font-family: BACS"">mkmJNOJNk</p>","","","","","","","","",""
"html-keyboard-response","175","338877","0.0-12.0-0.5","5f91dc284909fe0b08f9e2e1","650c16f0f2faf8d7a0d14c09","651c34c3ed997e9068721d2b","null","null","<p style=""font-size: 60px; font-family: BACS"">lRckAmtKP</p>","","","","","","","","",""
"html-keyboard-response","176","339880","0.0-12.0-0.6","5f91dc284909fe0b08f9e2e1","650c16f0f2faf8d7a0d14c09","651c34c3ed997e9068721d2b","null","null","<p style=""font-size: 60px; font-family: BACS"">DRPkYOPE</p>","","","","","","","","",""
"html-keyboard-response","177","340887","0.0-12.0-0.7","5f91dc284909fe0b08f9e2e1","650c16f0f2faf8d7a0d14c09","651c34c3ed997e9068721d2b","null","null","<p style=""font-size: 60px; font-family: BACS"">lBKtmtKP</p>","","","","","","","","",""
"html-keyboard-response","178","341892","0.0-12.0-0.8","5f91dc284909fe0b08f9e2e1","650c16f0f2faf8d7a0d14c09","651c34c3ed997e9068721d2b","null","null","<p style=""font-size: 60px; font-family: BACS"">hTDdOPE</p>","","","","","","","","",""
"html-keyboard-response","179","342896","0.0-12.0-0.9","5f91dc284909fe0b08f9e2e1","650c16f0f2faf8d7a0d14c09","651c34c3ed997e9068721d2b","null","null","<p style=""font-size: 60px; font-family: BACS"">ArQuGUOA</p>","","","","","","","","",""
"html-keyboard-response","180","343907","0.0-12.0-0.10","5f91dc284909fe0b08f9e2e1","650c16f0f2faf8d7a0d14c09","651c34c3ed997e9068721d2b","null","null","<p style=""font-size: 60px; font-family: BACS"">DOchlOdOP</p>","","","","","","","","",""
"html-keyboard-response","181","344910","0.0-12.0-0.11","5f91dc284909fe0b08f9e2e1","650c16f0f2faf8d7a0d14c09","651c34c3ed997e9068721d2b","null","null","<p style=""font-size: 60px; font-family: BACS"">GNAcaAvdk</p>","","","","","","","","",""
"html-keyboard-response","182","345925","0.0-12.0-0.12","5f91dc284909fe0b08f9e2e1","650c16f0f2faf8d7a0d14c09","651c34c3ed997e9068721d2b","null","null","<p style=""font-size: 60px; font-family: BACS"">ArQurAJu</p>","","","","","","","","",""
"html-keyboard-response","183","346926","0.0-12.0-0.13","5f91dc284909fe0b08f9e2e1","650c16f0f2faf8d7a0d14c09","651c34c3ed997e9068721d2b","null","null","<p style=""font-size: 60px; font-family: BACS"">tRPDOPE</p>","","","","","","","","",""
"html-keyboard-response","184","347940","0.0-12.0-0.14","5f91dc284909fe0b08f9e2e1","650c16f0f2faf8d7a0d14c09","651c34c3ed997e9068721d2b","null","null","<p style=""font-size: 60px; font-family: BACS"">DdckTPOM</p>","","","","","","","","",""
"html-keyboard-response","185","348943","0.0-12.0-0.15","5f91dc284909fe0b08f9e2e1","650c16f0f2faf8d7a0d14c09","651c34c3ed997e9068721d2b","null","null","<p style=""font-size: 60px; font-family: BACS"">vJabOJNk</p>","","","","","","","","",""
"html-keyboard-response","186","349955","0.0-12.0-0.16","5f91dc284909fe0b08f9e2e1","650c16f0f2faf8d7a0d14c09","651c34c3ed997e9068721d2b","null","null","<p style=""font-size: 60px; font-family: BACS"">mkmJNrAJu</p>","","","","","","","","",""
"html-keyboard-response","187","350956","0.0-12.0-0.17","5f91dc284909fe0b08f9e2e1","650c16f0f2faf8d7a0d14c09","651c34c3ed997e9068721d2b","null","null","<p style=""font-size: 60px; font-family: BACS"">kMbTROdOP</p>","","","","","","","","",""
"html-keyboard-response","188","351969","0.0-12.0-0.18","5f91dc284909fe0b08f9e2e1","650c16f0f2faf8d7a0d14c09","651c34c3ed997e9068721d2b","null","null","<p style=""font-size: 60px; font-family: BACS"">LdrbvAvdk</p>","","","","","","","","",""
"html-keyboard-response","189","352970","0.0-12.0-0.19","5f91dc284909fe0b08f9e2e1","650c16f0f2faf8d7a0d14c09","651c34c3ed997e9068721d2b","null","null","<p style=""font-size: 60px; font-family: BACS"">kMbTRmtKP</p>","","","","","","","","",""
"html-keyboard-response","190","353985","0.0-12.0-0.20","5f91dc284909fe0b08f9e2e1","650c16f0f2faf8d7a0d14c09","651c34c3ed997e9068721d2b","null","null","<p style=""font-size: 60px; font-family: BACS"">lBKtOPE</p>","","","","","","","","",""
"html-keyboard-response","191","354987","0.0-12.0-0.21","5f91dc284909fe0b08f9e2e1","650c16f0f2faf8d7a0d14c09","651c34c3ed997e9068721d2b","null","null","<p style=""font-size: 60px; font-family: BACS"">BATOcTPOM</p>","","","","","","","","",""
"html-keyboard-response","192","355996","0.0-12.0-0.22","5f91dc284909fe0b08f9e2e1","650c16f0f2faf8d7a0d14c09","651c34c3ed997e9068721d2b","null","null","<p style=""font-size: 60px; font-family: BACS"">vJabrAJu</p>","","","","","","","","",""
"html-keyboard-response","193","357005","0.0-12.0-0.23","5f91dc284909fe0b08f9e2e1","650c16f0f2faf8d7a0d14c09","651c34c3ed997e9068721d2b","null","null","<p style=""font-size: 60px; font-family: BACS"">uQkrdAvdk</p>","","","","","","","","",""
"html-keyboard-response","194","358013","0.0-12.0-0.24","5f91dc284909fe0b08f9e2e1","650c16f0f2faf8d7a0d14c09","651c34c3ed997e9068721d2b","null","null","<p style=""font-size: 60px; font-family: BACS"">hTDdmtKP</p>","","","","","","","","",""
"html-keyboard-response","195","359017","0.0-12.0-0.25","5f91dc284909fe0b08f9e2e1","650c16f0f2faf8d7a0d14c09","651c34c3ed997e9068721d2b","null","null","<p style=""font-size: 60px; font-family: BACS"">DOchlTPOM</p>","","","","","","","","",""
"html-keyboard-response","196","360033","0.0-12.0-0.26","5f91dc284909fe0b08f9e2e1","650c16f0f2faf8d7a0d14c09","651c34c3ed997e9068721d2b","null","null","<p style=""font-size: 60px; font-family: BACS"">DRPkYOdOP</p>","","","","","","","","",""
"html-keyboard-response","197","361034","0.0-12.0-0.27","5f91dc284909fe0b08f9e2e1","650c16f0f2faf8d7a0d14c09","651c34c3ed997e9068721d2b","null","null","<p style=""font-size: 60px; font-family: BACS"">UdlGQkGua</p>","","","","","","","","",""
"html-keyboard-response","198","362049","0.0-12.0-0.28","5f91dc284909fe0b08f9e2e1","650c16f0f2faf8d7a0d14c09","651c34c3ed997e9068721d2b","null","null","<p style=""font-size: 60px; font-family: BACS"">hTDdTPOM</p>","","","","","","","","",""
"html-keyboard-response","199","363061","0.0-12.0-0.29","5f91dc284909fe0b08f9e2e1","650c16f0f2faf8d7a0d14c09","651c34c3ed997e9068721d2b","null","null","<p style=""font-size: 60px; font-family: BACS"">ArQukGua</p>","","","","","","","","",""
"html-keyboard-response","200","364066","0.0-12.0-0.30","5f91dc284909fe0b08f9e2e1","650c16f0f2faf8d7a0d14c09","651c34c3ed997e9068721d2b","null","null","<p style=""font-size: 60px; font-family: BACS"">mkmJNGUOA</p>","","","","","","","","",""
"html-keyboard-response","201","365079","0.0-12.0-0.31","5f91dc284909fe0b08f9e2e1","650c16f0f2faf8d7a0d14c09","651c34c3ed997e9068721d2b","null","null","<p style=""font-size: 60px; font-family: BACS"">hTDdBCD</p>","","","","","","","","",""
"html-keyboard-response","202","366085","0.0-12.0-0.32","5f91dc284909fe0b08f9e2e1","650c16f0f2faf8d7a0d14c09","651c34c3ed997e9068721d2b","null","null","<p style=""font-size: 60px; font-family: BACS"">GNAcaOJNk</p>","","","","","","","","",""
"html-keyboard-response","203","367090","0.0-12.0-0.33","5f91dc284909fe0b08f9e2e1","650c16f0f2faf8d7a0d14c09","651c34c3ed997e9068721d2b","null","null","<p style=""font-size: 60px; font-family: BACS"">lRckAOdOP</p>","","","","","","","","",""
"html-keyboard-response","204","368096","0.0-12.0-0.34","5f91dc284909fe0b08f9e2e1","650c16f0f2faf8d7a0d14c09","651c34c3ed997e9068721d2b","null","null","<p style=""font-size: 60px; font-family: BACS"">ArQuAvdk</p>","","","","","","","","",""
"html-keyboard-response","205","369112","0.0-12.0-0.35","5f91dc284909fe0b08f9e2e1","650c16f0f2faf8d7a0d14c09","651c34c3ed997e9068721d2b","null","null","<p style=""font-size: 60px; font-family: BACS"">BATOcOdOP</p>","","","","","","","","",""
"html-keyboard-response","206","370113","0.0-12.0-0.36","5f91dc284909fe0b08f9e2e1","650c16f0f2faf8d7a0d14c09","651c34c3ed997e9068721d2b","null","null","<p style=""font-size: 60px; font-family: BACS"">CRdBdTPOM</p>","","","","","","","","",""
"html-keyboard-response","207","371126","0.0-12.0-0.37","5f91dc284909fe0b08f9e2e1","650c16f0f2faf8d7a0d14c09","651c34c3ed997e9068721d2b","null","null","<p style=""font-size: 60px; font-family: BACS"">dGLAlOJNk</p>","","","","","","","","",""
"html-keyboard-response","208","372128","0.0-12.0-0.38","5f91dc284909fe0b08f9e2e1","650c16f0f2faf8d7a0d14c09","651c34c3ed997e9068721d2b","null","null","<p style=""font-size: 60px; font-family: BACS"">dmZvmGUOA</p>","","","","","","","","",""
"html-keyboard-response","209","373129","0.0-12.0-0.39","5f91dc284909fe0b08f9e2e1","650c16f0f2faf8d7a0d14c09","651c34c3ed997e9068721d2b","null","null","<p style=""font-size: 60px; font-family: BACS"">DdckOPE</p>","","","","","","","","",""
"html-keyboard-response","210","374143","0.0-12.0-0.40","5f91dc284909fe0b08f9e2e1","650c16f0f2faf8d7a0d14c09","651c34c3ed997e9068721d2b","null","null","<p style=""font-size: 60px; font-family: BACS"">dmZvmAvdk</p>","","","","","","","","",""
"html-keyboard-response","211","375144","0.0-12.0-0.41","5f91dc284909fe0b08f9e2e1","650c16f0f2faf8d7a0d14c09","651c34c3ed997e9068721d2b","null","null","<p style=""font-size: 60px; font-family: BACS"">dGLAlkGua</p>","","","","","","","","",""
"html-keyboard-response","212","376160","0.0-12.0-0.42","5f91dc284909fe0b08f9e2e1","650c16f0f2faf8d7a0d14c09","651c34c3ed997e9068721d2b","null","null","<p style=""font-size: 60px; font-family: BACS"">DdckmtKP</p>","","","","","","","","",""
"html-keyboard-response","213","377161","0.0-12.0-0.43","5f91dc284909fe0b08f9e2e1","650c16f0f2faf8d7a0d14c09","651c34c3ed997e9068721d2b","null","null","<p style=""font-size: 60px; font-family: BACS"">lBKtBCD</p>","","","","","","","","",""
"html-keyboard-response","214","378175","0.0-12.0-0.44","5f91dc284909fe0b08f9e2e1","650c16f0f2faf8d7a0d14c09","651c34c3ed997e9068721d2b","null","null","<p style=""font-size: 60px; font-family: BACS"">uQkrdOJNk</p>","","","","","","","","",""
"html-keyboard-response","215","379189","0.0-12.0-0.45","5f91dc284909fe0b08f9e2e1","650c16f0f2faf8d7a0d14c09","651c34c3ed997e9068721d2b","null","null","<p style=""font-size: 60px; font-family: BACS"">mkmJNAvdk</p>","","","","","","","","",""
"html-keyboard-response","216","380203","0.0-12.0-0.46","5f91dc284909fe0b08f9e2e1","650c16f0f2faf8d7a0d14c09","651c34c3ed997e9068721d2b","null","null","<p style=""font-size: 60px; font-family: BACS"">dGLAlrAJu</p>","","","","","","","","",""
"html-keyboard-response","217","381206","0.0-12.0-0.47","5f91dc284909fe0b08f9e2e1","650c16f0f2faf8d7a0d14c09","651c34c3ed997e9068721d2b","null","null","<p style=""font-size: 60px; font-family: BACS"">uQkrdkGua</p>","","","","","","","","",""
"html-keyboard-response","218","382221","0.0-12.0-0.48","5f91dc284909fe0b08f9e2e1","650c16f0f2faf8d7a0d14c09","651c34c3ed997e9068721d2b","null","null","<p style=""font-size: 60px; font-family: BACS"">GZJYGUOA</p>","","","","","","","","",""
"html-keyboard-response","219","383237","0.0-12.0-0.49","5f91dc284909fe0b08f9e2e1","650c16f0f2faf8d7a0d14c09","651c34c3ed997e9068721d2b","null","null","<p style=""font-size: 60px; font-family: BACS"">dmZvmOJNk</p>","","","","","","","","",""
"html-keyboard-response","220","384240","0.0-12.0-0.50","5f91dc284909fe0b08f9e2e1","650c16f0f2faf8d7a0d14c09","651c34c3ed997e9068721d2b","null","null","<p style=""font-size: 60px; font-family: BACS"">GNAcakGua</p>","","","","","","","","",""
"html-keyboard-response","221","385251","0.0-12.0-0.51","5f91dc284909fe0b08f9e2e1","650c16f0f2faf8d7a0d14c09","651c34c3ed997e9068721d2b","null","null","<p style=""font-size: 60px; font-family: BACS"">lRckABCD</p>","","","","","","","","",""
"html-keyboard-response","222","386254","0.0-12.0-0.52","5f91dc284909fe0b08f9e2e1","650c16f0f2faf8d7a0d14c09","651c34c3ed997e9068721d2b","null","null","<p style=""font-size: 60px; font-family: BACS"">UdlGQrAJu</p>","","","","","","","","",""
"html-keyboard-response","223","387258","0.0-12.0-0.53","5f91dc284909fe0b08f9e2e1","650c16f0f2faf8d7a0d14c09","651c34c3ed997e9068721d2b","null","null","<p style=""font-size: 60px; font-family: BACS"">dGLAlGUOA</p>","","","","","","","","",""
"html-keyboard-response","224","388271","0.0-12.0-0.54","5f91dc284909fe0b08f9e2e1","650c16f0f2faf8d7a0d14c09","651c34c3ed997e9068721d2b","null","null","<p style=""font-size: 60px; font-family: BACS"">LdrbvrAJu</p>","","","","","","","","",""
"html-keyboard-response","225","389283","0.0-12.0-0.55","5f91dc284909fe0b08f9e2e1","650c16f0f2faf8d7a0d14c09","651c34c3ed997e9068721d2b","null","null","<p style=""font-size: 60px; font-family: BACS"">vJabAvdk</p>","","","","","","","","",""
"html-keyboard-response","226","390284","0.0-12.0-0.56","5f91dc284909fe0b08f9e2e1","650c16f0f2faf8d7a0d14c09","651c34c3ed997e9068721d2b","null","null","<p style=""font-size: 60px; font-family: BACS"">kMbTROPE</p>","","","","","","","","",""
"html-keyboard-response","227","391284","0.0-12.0-0.57","5f91dc284909fe0b08f9e2e1","650c16f0f2faf8d7a0d14c09","651c34c3ed997e9068721d2b","null","null","<p style=""font-size: 60px; font-family: BACS"">LdrbvkGua</p>","","","","","","","","",""
"html-keyboard-response","228","392292","0.0-12.0-0.58","5f91dc284909fe0b08f9e2e1","650c16f0f2faf8d7a0d14c09","651c34c3ed997e9068721d2b","null","null","<p style=""font-size: 60px; font-family: BACS"">DRPkYTPOM</p>","","","","","","","","",""
"html-keyboard-response","229","393301","0.0-12.0-0.59","5f91dc284909fe0b08f9e2e1","650c16f0f2faf8d7a0d14c09","651c34c3ed997e9068721d2b","null","null","<p style=""font-size: 60px; font-family: BACS"">tRPDOdOP</p>","","","","","","","","",""
"html-keyboard-response","230","394315","0.0-12.0-0.60","5f91dc284909fe0b08f9e2e1","650c16f0f2faf8d7a0d14c09","651c34c3ed997e9068721d2b","null","null","<p style=""font-size: 60px; font-family: BACS"">GNAcarAJu</p>","","","","","","","","",""
"html-keyboard-response","231","395331","0.0-12.0-0.61","5f91dc284909fe0b08f9e2e1","650c16f0f2faf8d7a0d14c09","651c34c3ed997e9068721d2b","null","null","<p style=""font-size: 60px; font-family: BACS"">uQkrdGUOA</p>","","","","","","","","",""
"html-keyboard-response","232","396332","0.0-12.0-0.62","5f91dc284909fe0b08f9e2e1","650c16f0f2faf8d7a0d14c09","651c34c3ed997e9068721d2b","null","null","<p style=""font-size: 60px; font-family: BACS"">DOchlBCD</p>","","","","","","","","",""
"html-keyboard-response","233","397336","0.0-12.0-0.63","5f91dc284909fe0b08f9e2e1","650c16f0f2faf8d7a0d14c09","651c34c3ed997e9068721d2b","null","null","<p style=""font-size: 60px; font-family: BACS"">UdlGQOJNk</p>","","","","","","","","",""
"html-keyboard-response","234","398345","0.0-12.0-0.64","5f91dc284909fe0b08f9e2e1","650c16f0f2faf8d7a0d14c09","651c34c3ed997e9068721d2b","null","null","<p style=""font-size: 60px; font-family: BACS"">lRckATPOM</p>","","","","","","","","",""
"html-keyboard-response","235","399349","0.0-12.0-0.65","5f91dc284909fe0b08f9e2e1","650c16f0f2faf8d7a0d14c09","651c34c3ed997e9068721d2b","null","null","<p style=""font-size: 60px; font-family: BACS"">DOchlOPE</p>","","","","","","","","",""
"html-keyboard-response","236","400361","0.0-12.0-0.66","5f91dc284909fe0b08f9e2e1","650c16f0f2faf8d7a0d14c09","651c34c3ed997e9068721d2b","null","null","<p style=""font-size: 60px; font-family: BACS"">lBKtOdOP</p>","","","","","","","","",""
"html-keyboard-response","237","401366","0.0-12.0-0.67","5f91dc284909fe0b08f9e2e1","650c16f0f2faf8d7a0d14c09","651c34c3ed997e9068721d2b","null","null","<p style=""font-size: 60px; font-family: BACS"">CRdBdBCD</p>","","","","","","","","",""
"html-keyboard-response","238","402377","0.0-12.0-0.68","5f91dc284909fe0b08f9e2e1","650c16f0f2faf8d7a0d14c09","651c34c3ed997e9068721d2b","null","null","<p style=""font-size: 60px; font-family: BACS"">BATOcOPE</p>","","","","","","","","",""
"html-keyboard-response","239","403378","0.0-12.0-0.69","5f91dc284909fe0b08f9e2e1","650c16f0f2faf8d7a0d14c09","651c34c3ed997e9068721d2b","null","null","<p style=""font-size: 60px; font-family: BACS"">CRdBdOdOP</p>","","","","","","","","",""
"html-keyboard-response","240","404394","0.0-12.0-0.70","5f91dc284909fe0b08f9e2e1","650c16f0f2faf8d7a0d14c09","651c34c3ed997e9068721d2b","null","null","<p style=""font-size: 60px; font-family: BACS"">DRPkYBCD</p>","","","","","","","","",""
"html-keyboard-response","241","405397","0.0-12.0-0.71","5f91dc284909fe0b08f9e2e1","650c16f0f2faf8d7a0d14c09","651c34c3ed997e9068721d2b","null","null","<p style=""font-size: 60px; font-family: BACS"">UdlGQGUOA</p>","","","","","","","","",""
"html-keyboard-response","242","406406","0.0-12.0-0.72","5f91dc284909fe0b08f9e2e1","650c16f0f2faf8d7a0d14c09","651c34c3ed997e9068721d2b","null","null","<p style=""font-size: 60px; font-family: BACS"">GZJYOJNk</p>","","","","","","","","",""
"html-keyboard-response","243","407408","0.0-12.0-0.73","5f91dc284909fe0b08f9e2e1","650c16f0f2faf8d7a0d14c09","651c34c3ed997e9068721d2b","null","null","<p style=""font-size: 60px; font-family: BACS"">tRPDmtKP</p>","","","","","","","","",""
"html-keyboard-response","244","408412","0.0-12.0-0.74","5f91dc284909fe0b08f9e2e1","650c16f0f2faf8d7a0d14c09","651c34c3ed997e9068721d2b","null","null","<p style=""font-size: 60px; font-family: BACS"">DdckBCD</p>","","","","","","","","",""
"html-keyboard-response","245","409424","0.0-12.0-0.75","5f91dc284909fe0b08f9e2e1","650c16f0f2faf8d7a0d14c09","651c34c3ed997e9068721d2b","null","null","<p style=""font-size: 60px; font-family: BACS"">dmZvmrAJu</p>","","","","","","","","",""
"html-keyboard-response","246","410426","0.0-12.0-0.76","5f91dc284909fe0b08f9e2e1","650c16f0f2faf8d7a0d14c09","651c34c3ed997e9068721d2b","null","null","<p style=""font-size: 60px; font-family: BACS"">vJabkGua</p>","","","","","","","","",""
"html-keyboard-response","247","411443","0.0-12.0-0.77","5f91dc284909fe0b08f9e2e1","650c16f0f2faf8d7a0d14c09","651c34c3ed997e9068721d2b","null","null","<p style=""font-size: 60px; font-family: BACS"">tRPDBCD</p>","","","","","","","","",""
"html-keyboard-response","248","412445","0.0-12.0-0.78","5f91dc284909fe0b08f9e2e1","650c16f0f2faf8d7a0d14c09","651c34c3ed997e9068721d2b","null","null","<p style=""font-size: 60px; font-family: BACS"">GZJYAvdk</p>","","","","","","","","",""
"html-keyboard-response","249","413453","0.0-12.0-0.79","5f91dc284909fe0b08f9e2e1","650c16f0f2faf8d7a0d14c09","651c34c3ed997e9068721d2b","null","null","<p style=""font-size: 60px; font-family: BACS"">LdrbvGUOA</p>","","","","","","","","",""
"html-keyboard-response","250","851168","0.0-13.0","5f91dc284909fe0b08f9e2e1","650c16f0f2faf8d7a0d14c09","651c34c3ed997e9068721d2b","439354"," ","<p>Great, you've seen the third block of words. You may now take a short break.</p>
      <p>Press the spacebar when you're ready to continue.</p>","","","","","","","","",""
"html-keyboard-response","251","852171","0.0-14.0-0.0","5f91dc284909fe0b08f9e2e1","650c16f0f2faf8d7a0d14c09","651c34c3ed997e9068721d2b","null","null","<p style=""font-size: 60px; font-family: BACS"">GZJYkGua</p>","","","","","","","","",""
"html-keyboard-response","252","853175","0.0-14.0-0.1","5f91dc284909fe0b08f9e2e1","650c16f0f2faf8d7a0d14c09","651c34c3ed997e9068721d2b","null","null","<p style=""font-size: 60px; font-family: BACS"">GNAcaAvdk</p>","","","","","","","","",""
"html-keyboard-response","253","854178","0.0-14.0-0.2","5f91dc284909fe0b08f9e2e1","650c16f0f2faf8d7a0d14c09","651c34c3ed997e9068721d2b","null","null","<p style=""font-size: 60px; font-family: BACS"">dGLAlkGua</p>","","","","","","","","",""
"html-keyboard-response","254","855192","0.0-14.0-0.3","5f91dc284909fe0b08f9e2e1","650c16f0f2faf8d7a0d14c09","651c34c3ed997e9068721d2b","null","null","<p style=""font-size: 60px; font-family: BACS"">BATOcOdOP</p>","","","","","","","","",""
"html-keyboard-response","255","856205","0.0-14.0-0.4","5f91dc284909fe0b08f9e2e1","650c16f0f2faf8d7a0d14c09","651c34c3ed997e9068721d2b","null","null","<p style=""font-size: 60px; font-family: BACS"">LdrbvrAJu</p>","","","","","","","","",""
"html-keyboard-response","256","857208","0.0-14.0-0.5","5f91dc284909fe0b08f9e2e1","650c16f0f2faf8d7a0d14c09","651c34c3ed997e9068721d2b","null","null","<p style=""font-size: 60px; font-family: BACS"">CRdBdmtKP</p>","","","","","","","","",""
"html-keyboard-response","257","858222","0.0-14.0-0.6","5f91dc284909fe0b08f9e2e1","650c16f0f2faf8d7a0d14c09","651c34c3ed997e9068721d2b","null","null","<p style=""font-size: 60px; font-family: BACS"">LdrbvGUOA</p>","","","","","","","","",""
"html-keyboard-response","258","859225","0.0-14.0-0.7","5f91dc284909fe0b08f9e2e1","650c16f0f2faf8d7a0d14c09","651c34c3ed997e9068721d2b","null","null","<p style=""font-size: 60px; font-family: BACS"">tRPDmtKP</p>","","","","","","","","",""
"html-keyboard-response","259","860239","0.0-14.0-0.8","5f91dc284909fe0b08f9e2e1","650c16f0f2faf8d7a0d14c09","651c34c3ed997e9068721d2b","null","null","<p style=""font-size: 60px; font-family: BACS"">DRPkYTPOM</p>","","","","","","","","",""
"html-keyboard-response","260","861240","0.0-14.0-0.9","5f91dc284909fe0b08f9e2e1","650c16f0f2faf8d7a0d14c09","651c34c3ed997e9068721d2b","null","null","<p style=""font-size: 60px; font-family: BACS"">mkmJNrAJu</p>","","","","","","","","",""
"html-keyboard-response","261","862253","0.0-14.0-0.10","5f91dc284909fe0b08f9e2e1","650c16f0f2faf8d7a0d14c09","651c34c3ed997e9068721d2b","null","null","<p style=""font-size: 60px; font-family: BACS"">lRckABCD</p>","","","","","","","","",""
"html-keyboard-response","262","863256","0.0-14.0-0.11","5f91dc284909fe0b08f9e2e1","650c16f0f2faf8d7a0d14c09","651c34c3ed997e9068721d2b","null","null","<p style=""font-size: 60px; font-family: BACS"">dmZvmrAJu</p>","","","","","","","","",""
"html-keyboard-response","263","864271","0.0-14.0-0.12","5f91dc284909fe0b08f9e2e1","650c16f0f2faf8d7a0d14c09","651c34c3ed997e9068721d2b","null","null","<p style=""font-size: 60px; font-family: BACS"">kMbTROdOP</p>","","","","","","","","",""
"html-keyboard-response","264","865282","0.0-14.0-0.13","5f91dc284909fe0b08f9e2e1","650c16f0f2faf8d7a0d14c09","651c34c3ed997e9068721d2b","null","null","<p style=""font-size: 60px; font-family: BACS"">ArQuAvdk</p>","","","","","","","","",""
"html-keyboard-response","265","866285","0.0-14.0-0.14","5f91dc284909fe0b08f9e2e1","650c16f0f2faf8d7a0d14c09","651c34c3ed997e9068721d2b","null","null","<p style=""font-size: 60px; font-family: BACS"">lBKtBCD</p>","","","","","","","","",""
"html-keyboard-response","266","867300","0.0-14.0-0.15","5f91dc284909fe0b08f9e2e1","650c16f0f2faf8d7a0d14c09","651c34c3ed997e9068721d2b","null","null","<p style=""font-size: 60px; font-family: BACS"">DOchlTPOM</p>","","","","","","","","",""
"html-keyboard-response","267","868302","0.0-14.0-0.16","5f91dc284909fe0b08f9e2e1","650c16f0f2faf8d7a0d14c09","651c34c3ed997e9068721d2b","null","null","<p style=""font-size: 60px; font-family: BACS"">mkmJNOJNk</p>","","","","","","","","",""
"html-keyboard-response","268","869315","0.0-14.0-0.17","5f91dc284909fe0b08f9e2e1","650c16f0f2faf8d7a0d14c09","651c34c3ed997e9068721d2b","null","null","<p style=""font-size: 60px; font-family: BACS"">UdlGQrAJu</p>","","","","","","","","",""
"html-keyboard-response","269","870316","0.0-14.0-0.18","5f91dc284909fe0b08f9e2e1","650c16f0f2faf8d7a0d14c09","651c34c3ed997e9068721d2b","null","null","<p style=""font-size: 60px; font-family: BACS"">DOchlBCD</p>","","","","","","","","",""
"html-keyboard-response","270","871319","0.0-14.0-0.19","5f91dc284909fe0b08f9e2e1","650c16f0f2faf8d7a0d14c09","651c34c3ed997e9068721d2b","null","null","<p style=""font-size: 60px; font-family: BACS"">tRPDOdOP</p>","","","","","","","","",""
"html-keyboard-response","271","872325","0.0-14.0-0.20","5f91dc284909fe0b08f9e2e1","650c16f0f2faf8d7a0d14c09","651c34c3ed997e9068721d2b","null","null","<p style=""font-size: 60px; font-family: BACS"">ArQukGua</p>","","","","","","","","",""
"html-keyboard-response","272","873332","0.0-14.0-0.21","5f91dc284909fe0b08f9e2e1","650c16f0f2faf8d7a0d14c09","651c34c3ed997e9068721d2b","null","null","<p style=""font-size: 60px; font-family: BACS"">lRckATPOM</p>","","","","","","","","",""
"html-keyboard-response","273","874334","0.0-14.0-0.22","5f91dc284909fe0b08f9e2e1","650c16f0f2faf8d7a0d14c09","651c34c3ed997e9068721d2b","null","null","<p style=""font-size: 60px; font-family: BACS"">DOchlOPE</p>","","","","","","","","",""
"html-keyboard-response","274","875348","0.0-14.0-0.23","5f91dc284909fe0b08f9e2e1","650c16f0f2faf8d7a0d14c09","651c34c3ed997e9068721d2b","null","null","<p style=""font-size: 60px; font-family: BACS"">LdrbvkGua</p>","","","","","","","","",""
"html-keyboard-response","275","876353","0.0-14.0-0.24","5f91dc284909fe0b08f9e2e1","650c16f0f2faf8d7a0d14c09","651c34c3ed997e9068721d2b","null","null","<p style=""font-size: 60px; font-family: BACS"">GNAcarAJu</p>","","","","","","","","",""
"html-keyboard-response","276","877363","0.0-14.0-0.25","5f91dc284909fe0b08f9e2e1","650c16f0f2faf8d7a0d14c09","651c34c3ed997e9068721d2b","null","null","<p style=""font-size: 60px; font-family: BACS"">kMbTRTPOM</p>","","","","","","","","",""
"html-keyboard-response","277","878380","0.0-14.0-0.26","5f91dc284909fe0b08f9e2e1","650c16f0f2faf8d7a0d14c09","651c34c3ed997e9068721d2b","null","null","<p style=""font-size: 60px; font-family: BACS"">dmZvmGUOA</p>","","","","","","","","",""
"html-keyboard-response","278","879380","0.0-14.0-0.27","5f91dc284909fe0b08f9e2e1","650c16f0f2faf8d7a0d14c09","651c34c3ed997e9068721d2b","null","null","<p style=""font-size: 60px; font-family: BACS"">vJabkGua</p>","","","","","","","","",""
"html-keyboard-response","279","880383","0.0-14.0-0.28","5f91dc284909fe0b08f9e2e1","650c16f0f2faf8d7a0d14c09","651c34c3ed997e9068721d2b","null","null","<p style=""font-size: 60px; font-family: BACS"">lBKtOdOP</p>","","","","","","","","",""
"html-keyboard-response","280","881395","0.0-14.0-0.29","5f91dc284909fe0b08f9e2e1","650c16f0f2faf8d7a0d14c09","651c34c3ed997e9068721d2b","null","null","<p style=""font-size: 60px; font-family: BACS"">kMbTROPE</p>","","","","","","","","",""
"html-keyboard-response","281","882410","0.0-14.0-0.30","5f91dc284909fe0b08f9e2e1","650c16f0f2faf8d7a0d14c09","651c34c3ed997e9068721d2b","null","null","<p style=""font-size: 60px; font-family: BACS"">GNAcakGua</p>","","","","","","","","",""
"html-keyboard-response","282","883426","0.0-14.0-0.31","5f91dc284909fe0b08f9e2e1","650c16f0f2faf8d7a0d14c09","651c34c3ed997e9068721d2b","null","null","<p style=""font-size: 60px; font-family: BACS"">DdckOPE</p>","","","","","","","","",""
"html-keyboard-response","283","884427","0.0-14.0-0.32","5f91dc284909fe0b08f9e2e1","650c16f0f2faf8d7a0d14c09","651c34c3ed997e9068721d2b","null","null","<p style=""font-size: 60px; font-family: BACS"">UdlGQOJNk</p>","","","","","","","","",""
"html-keyboard-response","284","885442","0.0-14.0-0.33","5f91dc284909fe0b08f9e2e1","650c16f0f2faf8d7a0d14c09","651c34c3ed997e9068721d2b","null","null","<p style=""font-size: 60px; font-family: BACS"">uQkrdkGua</p>","","","","","","","","",""
"html-keyboard-response","285","886457","0.0-14.0-0.34","5f91dc284909fe0b08f9e2e1","650c16f0f2faf8d7a0d14c09","651c34c3ed997e9068721d2b","null","null","<p style=""font-size: 60px; font-family: BACS"">tRPDBCD</p>","","","","","","","","",""
"html-keyboard-response","286","887469","0.0-14.0-0.35","5f91dc284909fe0b08f9e2e1","650c16f0f2faf8d7a0d14c09","651c34c3ed997e9068721d2b","null","null","<p style=""font-size: 60px; font-family: BACS"">DdckTPOM</p>","","","","","","","","",""
"html-keyboard-response","287","888473","0.0-14.0-0.36","5f91dc284909fe0b08f9e2e1","650c16f0f2faf8d7a0d14c09","651c34c3ed997e9068721d2b","null","null","<p style=""font-size: 60px; font-family: BACS"">mkmJNGUOA</p>","","","","","","","","",""
"html-keyboard-response","288","889476","0.0-14.0-0.37","5f91dc284909fe0b08f9e2e1","650c16f0f2faf8d7a0d14c09","651c34c3ed997e9068721d2b","null","null","<p style=""font-size: 60px; font-family: BACS"">DdckmtKP</p>","","","","","","","","",""
"html-keyboard-response","289","890483","0.0-14.0-0.38","5f91dc284909fe0b08f9e2e1","650c16f0f2faf8d7a0d14c09","651c34c3ed997e9068721d2b","null","null","<p style=""font-size: 60px; font-family: BACS"">DRPkYBCD</p>","","","","","","","","",""
"html-keyboard-response","290","891489","0.0-14.0-0.39","5f91dc284909fe0b08f9e2e1","650c16f0f2faf8d7a0d14c09","651c34c3ed997e9068721d2b","null","null","<p style=""font-size: 60px; font-family: BACS"">dGLAlGUOA</p>","","","","","","","","",""
"html-keyboard-response","291","892490","0.0-14.0-0.40","5f91dc284909fe0b08f9e2e1","650c16f0f2faf8d7a0d14c09","651c34c3ed997e9068721d2b","null","null","<p style=""font-size: 60px; font-family: BACS"">hTDdOPE</p>","","","","","","","","",""
"html-keyboard-response","292","893503","0.0-14.0-0.41","5f91dc284909fe0b08f9e2e1","650c16f0f2faf8d7a0d14c09","651c34c3ed997e9068721d2b","null","null","<p style=""font-size: 60px; font-family: BACS"">BATOcmtKP</p>","","","","","","","","",""
"html-keyboard-response","293","894506","0.0-14.0-0.42","5f91dc284909fe0b08f9e2e1","650c16f0f2faf8d7a0d14c09","651c34c3ed997e9068721d2b","null","null","<p style=""font-size: 60px; font-family: BACS"">vJabOJNk</p>","","","","","","","","",""
"html-keyboard-response","294","895521","0.0-14.0-0.43","5f91dc284909fe0b08f9e2e1","650c16f0f2faf8d7a0d14c09","651c34c3ed997e9068721d2b","null","null","<p style=""font-size: 60px; font-family: BACS"">BATOcTPOM</p>","","","","","","","","",""
"html-keyboard-response","295","896535","0.0-14.0-0.44","5f91dc284909fe0b08f9e2e1","650c16f0f2faf8d7a0d14c09","651c34c3ed997e9068721d2b","null","null","<p style=""font-size: 60px; font-family: BACS"">lRckAOdOP</p>","","","","","","","","",""
"html-keyboard-response","296","897537","0.0-14.0-0.45","5f91dc284909fe0b08f9e2e1","650c16f0f2faf8d7a0d14c09","651c34c3ed997e9068721d2b","null","null","<p style=""font-size: 60px; font-family: BACS"">kMbTRmtKP</p>","","","","","","","","",""
"html-keyboard-response","297","898551","0.0-14.0-0.46","5f91dc284909fe0b08f9e2e1","650c16f0f2faf8d7a0d14c09","651c34c3ed997e9068721d2b","null","null","<p style=""font-size: 60px; font-family: BACS"">dmZvmOJNk</p>","","","","","","","","",""
"html-keyboard-response","298","899566","0.0-14.0-0.47","5f91dc284909fe0b08f9e2e1","650c16f0f2faf8d7a0d14c09","651c34c3ed997e9068721d2b","null","null","<p style=""font-size: 60px; font-family: BACS"">DOchlOdOP</p>","","","","","","","","",""
"html-keyboard-response","299","900571","0.0-14.0-0.48","5f91dc284909fe0b08f9e2e1","650c16f0f2faf8d7a0d14c09","651c34c3ed997e9068721d2b","null","null","<p style=""font-size: 60px; font-family: BACS"">DdckBCD</p>","","","","","","","","",""
"html-keyboard-response","300","901585","0.0-14.0-0.49","5f91dc284909fe0b08f9e2e1","650c16f0f2faf8d7a0d14c09","651c34c3ed997e9068721d2b","null","null","<p style=""font-size: 60px; font-family: BACS"">lBKtmtKP</p>","","","","","","","","",""
"html-keyboard-response","301","902594","0.0-14.0-0.50","5f91dc284909fe0b08f9e2e1","650c16f0f2faf8d7a0d14c09","651c34c3ed997e9068721d2b","null","null","<p style=""font-size: 60px; font-family: BACS"">CRdBdTPOM</p>","","","","","","","","",""
"html-keyboard-response","302","903597","0.0-14.0-0.51","5f91dc284909fe0b08f9e2e1","650c16f0f2faf8d7a0d14c09","651c34c3ed997e9068721d2b","null","null","<p style=""font-size: 60px; font-family: BACS"">dGLAlOJNk</p>","","","","","","","","",""
"html-keyboard-response","303","904601","0.0-14.0-0.52","5f91dc284909fe0b08f9e2e1","650c16f0f2faf8d7a0d14c09","651c34c3ed997e9068721d2b","null","null","<p style=""font-size: 60px; font-family: BACS"">vJabrAJu</p>","","","","","","","","",""
"html-keyboard-response","304","905613","0.0-14.0-0.53","5f91dc284909fe0b08f9e2e1","650c16f0f2faf8d7a0d14c09","651c34c3ed997e9068721d2b","null","null","<p style=""font-size: 60px; font-family: BACS"">mkmJNAvdk</p>","","","","","","","","",""
"html-keyboard-response","305","906613","0.0-14.0-0.54","5f91dc284909fe0b08f9e2e1","650c16f0f2faf8d7a0d14c09","651c34c3ed997e9068721d2b","null","null","<p style=""font-size: 60px; font-family: BACS"">CRdBdOdOP</p>","","","","","","","","",""
"html-keyboard-response","306","907628","0.0-14.0-0.55","5f91dc284909fe0b08f9e2e1","650c16f0f2faf8d7a0d14c09","651c34c3ed997e9068721d2b","null","null","<p style=""font-size: 60px; font-family: BACS"">UdlGQGUOA</p>","","","","","","","","",""
"html-keyboard-response","307","908632","0.0-14.0-0.56","5f91dc284909fe0b08f9e2e1","650c16f0f2faf8d7a0d14c09","651c34c3ed997e9068721d2b","null","null","<p style=""font-size: 60px; font-family: BACS"">ArQurAJu</p>","","","","","","","","",""
"html-keyboard-response","308","909643","0.0-14.0-0.57","5f91dc284909fe0b08f9e2e1","650c16f0f2faf8d7a0d14c09","651c34c3ed997e9068721d2b","null","null","<p style=""font-size: 60px; font-family: BACS"">lBKtOPE</p>","","","","","","","","",""
"html-keyboard-response","309","910644","0.0-14.0-0.58","5f91dc284909fe0b08f9e2e1","650c16f0f2faf8d7a0d14c09","651c34c3ed997e9068721d2b","null","null","<p style=""font-size: 60px; font-family: BACS"">GNAcaOJNk</p>","","","","","","","","",""
"html-keyboard-response","310","911658","0.0-14.0-0.59","5f91dc284909fe0b08f9e2e1","650c16f0f2faf8d7a0d14c09","651c34c3ed997e9068721d2b","null","null","<p style=""font-size: 60px; font-family: BACS"">LdrbvAvdk</p>","","","","","","","","",""
"html-keyboard-response","311","912660","0.0-14.0-0.60","5f91dc284909fe0b08f9e2e1","650c16f0f2faf8d7a0d14c09","651c34c3ed997e9068721d2b","null","null","<p style=""font-size: 60px; font-family: BACS"">UdlGQkGua</p>","","","","","","","","",""
"html-keyboard-response","312","913660","0.0-14.0-0.61","5f91dc284909fe0b08f9e2e1","650c16f0f2faf8d7a0d14c09","651c34c3ed997e9068721d2b","null","null","<p style=""font-size: 60px; font-family: BACS"">hTDdTPOM</p>","","","","","","","","",""
"html-keyboard-response","313","914661","0.0-14.0-0.62","5f91dc284909fe0b08f9e2e1","650c16f0f2faf8d7a0d14c09","651c34c3ed997e9068721d2b","null","null","<p style=""font-size: 60px; font-family: BACS"">DRPkYOPE</p>","","","","","","","","",""
"html-keyboard-response","314","915676","0.0-14.0-0.63","5f91dc284909fe0b08f9e2e1","650c16f0f2faf8d7a0d14c09","651c34c3ed997e9068721d2b","null","null","<p style=""font-size: 60px; font-family: BACS"">hTDdBCD</p>","","","","","","","","",""
"html-keyboard-response","315","916677","0.0-14.0-0.64","5f91dc284909fe0b08f9e2e1","650c16f0f2faf8d7a0d14c09","651c34c3ed997e9068721d2b","null","null","<p style=""font-size: 60px; font-family: BACS"">GZJYAvdk</p>","","","","","","","","",""
"html-keyboard-response","316","917677","0.0-14.0-0.65","5f91dc284909fe0b08f9e2e1","650c16f0f2faf8d7a0d14c09","651c34c3ed997e9068721d2b","null","null","<p style=""font-size: 60px; font-family: BACS"">DRPkYOdOP</p>","","","","","","","","",""
"html-keyboard-response","317","918690","0.0-14.0-0.66","5f91dc284909fe0b08f9e2e1","650c16f0f2faf8d7a0d14c09","651c34c3ed997e9068721d2b","null","null","<p style=""font-size: 60px; font-family: BACS"">uQkrdOJNk</p>","","","","","","","","",""
"html-keyboard-response","318","919692","0.0-14.0-0.67","5f91dc284909fe0b08f9e2e1","650c16f0f2faf8d7a0d14c09","651c34c3ed997e9068721d2b","null","null","<p style=""font-size: 60px; font-family: BACS"">GZJYGUOA</p>","","","","","","","","",""
"html-keyboard-response","319","920706","0.0-14.0-0.68","5f91dc284909fe0b08f9e2e1","650c16f0f2faf8d7a0d14c09","651c34c3ed997e9068721d2b","null","null","<p style=""font-size: 60px; font-family: BACS"">dmZvmAvdk</p>","","","","","","","","",""
"html-keyboard-response","320","921707","0.0-14.0-0.69","5f91dc284909fe0b08f9e2e1","650c16f0f2faf8d7a0d14c09","651c34c3ed997e9068721d2b","null","null","<p style=""font-size: 60px; font-family: BACS"">GZJYOJNk</p>","","","","","","","","",""
"html-keyboard-response","321","922715","0.0-14.0-0.70","5f91dc284909fe0b08f9e2e1","650c16f0f2faf8d7a0d14c09","651c34c3ed997e9068721d2b","null","null","<p style=""font-size: 60px; font-family: BACS"">hTDdmtKP</p>","","","","","","","","",""
"html-keyboard-response","322","923723","0.0-14.0-0.71","5f91dc284909fe0b08f9e2e1","650c16f0f2faf8d7a0d14c09","651c34c3ed997e9068721d2b","null","null","<p style=""font-size: 60px; font-family: BACS"">CRdBdBCD</p>","","","","","","","","",""
"html-keyboard-response","323","924739","0.0-14.0-0.72","5f91dc284909fe0b08f9e2e1","650c16f0f2faf8d7a0d14c09","651c34c3ed997e9068721d2b","null","null","<p style=""font-size: 60px; font-family: BACS"">ArQuGUOA</p>","","","","","","","","",""
"html-keyboard-response","324","925754","0.0-14.0-0.73","5f91dc284909fe0b08f9e2e1","650c16f0f2faf8d7a0d14c09","651c34c3ed997e9068721d2b","null","null","<p style=""font-size: 60px; font-family: BACS"">vJabAvdk</p>","","","","","","","","",""
"html-keyboard-response","325","926755","0.0-14.0-0.74","5f91dc284909fe0b08f9e2e1","650c16f0f2faf8d7a0d14c09","651c34c3ed997e9068721d2b","null","null","<p style=""font-size: 60px; font-family: BACS"">BATOcOPE</p>","","","","","","","","",""
"html-keyboard-response","326","927769","0.0-14.0-0.75","5f91dc284909fe0b08f9e2e1","650c16f0f2faf8d7a0d14c09","651c34c3ed997e9068721d2b","null","null","<p style=""font-size: 60px; font-family: BACS"">uQkrdGUOA</p>","","","","","","","","",""
"html-keyboard-response","327","928784","0.0-14.0-0.76","5f91dc284909fe0b08f9e2e1","650c16f0f2faf8d7a0d14c09","651c34c3ed997e9068721d2b","null","null","<p style=""font-size: 60px; font-family: BACS"">dGLAlrAJu</p>","","","","","","","","",""
"html-keyboard-response","328","929786","0.0-14.0-0.77","5f91dc284909fe0b08f9e2e1","650c16f0f2faf8d7a0d14c09","651c34c3ed997e9068721d2b","null","null","<p style=""font-size: 60px; font-family: BACS"">lRckAmtKP</p>","","","","","","","","",""
"html-keyboard-response","329","930801","0.0-14.0-0.78","5f91dc284909fe0b08f9e2e1","650c16f0f2faf8d7a0d14c09","651c34c3ed997e9068721d2b","null","null","<p style=""font-size: 60px; font-family: BACS"">tRPDOPE</p>","","","","","","","","",""
"html-keyboard-response","330","931815","0.0-14.0-0.79","5f91dc284909fe0b08f9e2e1","650c16f0f2faf8d7a0d14c09","651c34c3ed997e9068721d2b","null","null","<p style=""font-size: 60px; font-family: BACS"">uQkrdAvdk</p>","","","","","","","","",""
"html-keyboard-response","331","934601","0.0-15.0","5f91dc284909fe0b08f9e2e1","650c16f0f2faf8d7a0d14c09","651c34c3ed997e9068721d2b","2785"," ","<p>Great, you've seen the fourth block of words. You may now take a short break.</p>
      <p>Press the spacebar when you're ready to continue.</p>","","","","","","","","",""
"html-keyboard-response","332","935614","0.0-16.0-0.0","5f91dc284909fe0b08f9e2e1","650c16f0f2faf8d7a0d14c09","651c34c3ed997e9068721d2b","null","null","<p style=""font-size: 60px; font-family: BACS"">GNAcaAvdk</p>","","","","","","","","",""
"html-keyboard-response","333","936618","0.0-16.0-0.1","5f91dc284909fe0b08f9e2e1","650c16f0f2faf8d7a0d14c09","651c34c3ed997e9068721d2b","null","null","<p style=""font-size: 60px; font-family: BACS"">GNAcaAvdk</p>","","","","","","","","",""
"html-keyboard-response","334","937629","0.0-16.0-0.2","5f91dc284909fe0b08f9e2e1","650c16f0f2faf8d7a0d14c09","651c34c3ed997e9068721d2b","null","null","<p style=""font-size: 60px; font-family: BACS"">GNAcaAvdk</p>","","","","","","","","",""
"html-keyboard-response","335","938642","0.0-16.0-0.3","5f91dc284909fe0b08f9e2e1","650c16f0f2faf8d7a0d14c09","651c34c3ed997e9068721d2b","null","null","<p style=""font-size: 60px; font-family: BACS"">GNAcaAvdk</p>","","","","","","","","",""
"html-keyboard-response","336","939644","0.0-16.0-0.4","5f91dc284909fe0b08f9e2e1","650c16f0f2faf8d7a0d14c09","651c34c3ed997e9068721d2b","null","null","<p style=""font-size: 60px; font-family: BACS"">GNAcaAvdk</p>","","","","","","","","",""
"html-keyboard-response","337","940660","0.0-16.0-0.5","5f91dc284909fe0b08f9e2e1","650c16f0f2faf8d7a0d14c09","651c34c3ed997e9068721d2b","null","null","<p style=""font-size: 60px; font-family: BACS"">GNAcaAvdk</p>","","","","","","","","",""
"html-keyboard-response","338","941661","0.0-16.0-0.6","5f91dc284909fe0b08f9e2e1","650c16f0f2faf8d7a0d14c09","651c34c3ed997e9068721d2b","null","null","<p style=""font-size: 60px; font-family: BACS"">GNAcaAvdk</p>","","","","","","","","",""
"html-keyboard-response","339","942676","0.0-16.0-0.7","5f91dc284909fe0b08f9e2e1","650c16f0f2faf8d7a0d14c09","651c34c3ed997e9068721d2b","null","null","<p style=""font-size: 60px; font-family: BACS"">GNAcaAvdk</p>","","","","","","","","",""
"html-keyboard-response","340","943682","0.0-16.0-0.8","5f91dc284909fe0b08f9e2e1","650c16f0f2faf8d7a0d14c09","651c34c3ed997e9068721d2b","null","null","<p style=""font-size: 60px; font-family: BACS"">GNAcaAvdk</p>","","","","","","","","",""
"html-keyboard-response","341","944691","0.0-16.0-0.9","5f91dc284909fe0b08f9e2e1","650c16f0f2faf8d7a0d14c09","651c34c3ed997e9068721d2b","null","null","<p style=""font-size: 60px; font-family: BACS"">GNAcaAvdk</p>","","","","","","","","",""
"html-keyboard-response","342","945705","0.0-16.0-0.10","5f91dc284909fe0b08f9e2e1","650c16f0f2faf8d7a0d14c09","651c34c3ed997e9068721d2b","null","null","<p style=""font-size: 60px; font-family: BACS"">GNAcaAvdk</p>","","","","","","","","",""
"html-keyboard-response","343","946708","0.0-16.0-0.11","5f91dc284909fe0b08f9e2e1","650c16f0f2faf8d7a0d14c09","651c34c3ed997e9068721d2b","null","null","<p style=""font-size: 60px; font-family: BACS"">GNAcaAvdk</p>","","","","","","","","",""
"html-keyboard-response","344","947708","0.0-16.0-0.12","5f91dc284909fe0b08f9e2e1","650c16f0f2faf8d7a0d14c09","651c34c3ed997e9068721d2b","null","null","<p style=""font-size: 60px; font-family: BACS"">GNAcaAvdk</p>","","","","","","","","",""
"html-keyboard-response","345","948724","0.0-16.0-0.13","5f91dc284909fe0b08f9e2e1","650c16f0f2faf8d7a0d14c09","651c34c3ed997e9068721d2b","null","null","<p style=""font-size: 60px; font-family: BACS"">GNAcaAvdk</p>","","","","","","","","",""
"html-keyboard-response","346","949729","0.0-16.0-0.14","5f91dc284909fe0b08f9e2e1","650c16f0f2faf8d7a0d14c09","651c34c3ed997e9068721d2b","null","null","<p style=""font-size: 60px; font-family: BACS"">GNAcaAvdk</p>","","","","","","","","",""
"html-keyboard-response","347","950739","0.0-16.0-0.15","5f91dc284909fe0b08f9e2e1","650c16f0f2faf8d7a0d14c09","651c34c3ed997e9068721d2b","null","null","<p style=""font-size: 60px; font-family: BACS"">GNAcaAvdk</p>","","","","","","","","",""
"html-keyboard-response","348","951753","0.0-16.0-0.16","5f91dc284909fe0b08f9e2e1","650c16f0f2faf8d7a0d14c09","651c34c3ed997e9068721d2b","null","null","<p style=""font-size: 60px; font-family: BACS"">GNAcaAvdk</p>","","","","","","","","",""
"html-keyboard-response","349","952767","0.0-16.0-0.17","5f91dc284909fe0b08f9e2e1","650c16f0f2faf8d7a0d14c09","651c34c3ed997e9068721d2b","null","null","<p style=""font-size: 60px; font-family: BACS"">GNAcaAvdk</p>","","","","","","","","",""
"html-keyboard-response","350","953770","0.0-16.0-0.18","5f91dc284909fe0b08f9e2e1","650c16f0f2faf8d7a0d14c09","651c34c3ed997e9068721d2b","null","null","<p style=""font-size: 60px; font-family: BACS"">GNAcaAvdk</p>","","","","","","","","",""
"html-keyboard-response","351","954785","0.0-16.0-0.19","5f91dc284909fe0b08f9e2e1","650c16f0f2faf8d7a0d14c09","651c34c3ed997e9068721d2b","null","null","<p style=""font-size: 60px; font-family: BACS"">GNAcaAvdk</p>","","","","","","","","",""
"html-keyboard-response","352","955801","0.0-16.0-0.20","5f91dc284909fe0b08f9e2e1","650c16f0f2faf8d7a0d14c09","651c34c3ed997e9068721d2b","null","null","<p style=""font-size: 60px; font-family: BACS"">GNAcaAvdk</p>","","","","","","","","",""
"html-keyboard-response","353","956802","0.0-16.0-0.21","5f91dc284909fe0b08f9e2e1","650c16f0f2faf8d7a0d14c09","651c34c3ed997e9068721d2b","null","null","<p style=""font-size: 60px; font-family: BACS"">GNAcaAvdk</p>","","","","","","","","",""
"html-keyboard-response","354","957817","0.0-16.0-0.22","5f91dc284909fe0b08f9e2e1","650c16f0f2faf8d7a0d14c09","651c34c3ed997e9068721d2b","null","null","<p style=""font-size: 60px; font-family: BACS"">GNAcaAvdk</p>","","","","","","","","",""
"html-keyboard-response","355","958819","0.0-16.0-0.23","5f91dc284909fe0b08f9e2e1","650c16f0f2faf8d7a0d14c09","651c34c3ed997e9068721d2b","null","null","<p style=""font-size: 60px; font-family: BACS"">GNAcaAvdk</p>","","","","","","","","",""
"html-keyboard-response","356","959824","0.0-16.0-0.24","5f91dc284909fe0b08f9e2e1","650c16f0f2faf8d7a0d14c09","651c34c3ed997e9068721d2b","null","null","<p style=""font-size: 60px; font-family: BACS"">GNAcaAvdk</p>","","","","","","","","",""
"html-keyboard-response","357","960832","0.0-16.0-0.25","5f91dc284909fe0b08f9e2e1","650c16f0f2faf8d7a0d14c09","651c34c3ed997e9068721d2b","null","null","<p style=""font-size: 60px; font-family: BACS"">GNAcaAvdk</p>","","","","","","","","",""
"html-keyboard-response","358","961833","0.0-16.0-0.26","5f91dc284909fe0b08f9e2e1","650c16f0f2faf8d7a0d14c09","651c34c3ed997e9068721d2b","null","null","<p style=""font-size: 60px; font-family: BACS"">GNAcaAvdk</p>","","","","","","","","",""
"html-keyboard-response","359","962836","0.0-16.0-0.27","5f91dc284909fe0b08f9e2e1","650c16f0f2faf8d7a0d14c09","651c34c3ed997e9068721d2b","null","null","<p style=""font-size: 60px; font-family: BACS"">GNAcaAvdk</p>","","","","","","","","",""
"html-keyboard-response","360","963848","0.0-16.0-0.28","5f91dc284909fe0b08f9e2e1","650c16f0f2faf8d7a0d14c09","651c34c3ed997e9068721d2b","null","null","<p style=""font-size: 60px; font-family: BACS"">GNAcaAvdk</p>","","","","","","","","",""
"html-keyboard-response","361","964851","0.0-16.0-0.29","5f91dc284909fe0b08f9e2e1","650c16f0f2faf8d7a0d14c09","651c34c3ed997e9068721d2b","null","null","<p style=""font-size: 60px; font-family: BACS"">GNAcaAvdk</p>","","","","","","","","",""
"html-keyboard-response","362","965860","0.0-16.0-0.30","5f91dc284909fe0b08f9e2e1","650c16f0f2faf8d7a0d14c09","651c34c3ed997e9068721d2b","null","null","<p style=""font-size: 60px; font-family: BACS"">GNAcaAvdk</p>","","","","","","","","",""
"html-keyboard-response","363","966863","0.0-16.0-0.31","5f91dc284909fe0b08f9e2e1","650c16f0f2faf8d7a0d14c09","651c34c3ed997e9068721d2b","null","null","<p style=""font-size: 60px; font-family: BACS"">GNAcaAvdk</p>","","","","","","","","",""
"html-keyboard-response","364","967864","0.0-16.0-0.32","5f91dc284909fe0b08f9e2e1","650c16f0f2faf8d7a0d14c09","651c34c3ed997e9068721d2b","null","null","<p style=""font-size: 60px; font-family: BACS"">GNAcaAvdk</p>","","","","","","","","",""
"html-keyboard-response","365","968879","0.0-16.0-0.33","5f91dc284909fe0b08f9e2e1","650c16f0f2faf8d7a0d14c09","651c34c3ed997e9068721d2b","null","null","<p style=""font-size: 60px; font-family: BACS"">GNAcaAvdk</p>","","","","","","","","",""
"html-keyboard-response","366","969895","0.0-16.0-0.34","5f91dc284909fe0b08f9e2e1","650c16f0f2faf8d7a0d14c09","651c34c3ed997e9068721d2b","null","null","<p style=""font-size: 60px; font-family: BACS"">GNAcaAvdk</p>","","","","","","","","",""
"html-keyboard-response","367","970897","0.0-16.0-0.35","5f91dc284909fe0b08f9e2e1","650c16f0f2faf8d7a0d14c09","651c34c3ed997e9068721d2b","null","null","<p style=""font-size: 60px; font-family: BACS"">GNAcaAvdk</p>","","","","","","","","",""
"html-keyboard-response","368","971910","0.0-16.0-0.36","5f91dc284909fe0b08f9e2e1","650c16f0f2faf8d7a0d14c09","651c34c3ed997e9068721d2b","null","null","<p style=""font-size: 60px; font-family: BACS"">GNAcaAvdk</p>","","","","","","","","",""
"html-keyboard-response","369","972920","0.0-16.0-0.37","5f91dc284909fe0b08f9e2e1","650c16f0f2faf8d7a0d14c09","651c34c3ed997e9068721d2b","null","null","<p style=""font-size: 60px; font-family: BACS"">GNAcaAvdk</p>","","","","","","","","",""
"html-keyboard-response","370","973924","0.0-16.0-0.38","5f91dc284909fe0b08f9e2e1","650c16f0f2faf8d7a0d14c09","651c34c3ed997e9068721d2b","null","null","<p style=""font-size: 60px; font-family: BACS"">GNAcaAvdk</p>","","","","","","","","",""
"html-keyboard-response","371","974925","0.0-16.0-0.39","5f91dc284909fe0b08f9e2e1","650c16f0f2faf8d7a0d14c09","651c34c3ed997e9068721d2b","null","null","<p style=""font-size: 60px; font-family: BACS"">GNAcaAvdk</p>","","","","","","","","",""
"html-keyboard-response","372","975925","0.0-16.0-0.40","5f91dc284909fe0b08f9e2e1","650c16f0f2faf8d7a0d14c09","651c34c3ed997e9068721d2b","null","null","<p style=""font-size: 60px; font-family: BACS"">GNAcaAvdk</p>","","","","","","","","",""
"html-keyboard-response","373","976927","0.0-16.0-0.41","5f91dc284909fe0b08f9e2e1","650c16f0f2faf8d7a0d14c09","651c34c3ed997e9068721d2b","null","null","<p style=""font-size: 60px; font-family: BACS"">GNAcaAvdk</p>","","","","","","","","",""
"html-keyboard-response","374","977939","0.0-16.0-0.42","5f91dc284909fe0b08f9e2e1","650c16f0f2faf8d7a0d14c09","651c34c3ed997e9068721d2b","null","null","<p style=""font-size: 60px; font-family: BACS"">GNAcaAvdk</p>","","","","","","","","",""
"html-keyboard-response","375","978941","0.0-16.0-0.43","5f91dc284909fe0b08f9e2e1","650c16f0f2faf8d7a0d14c09","651c34c3ed997e9068721d2b","null","null","<p style=""font-size: 60px; font-family: BACS"">GNAcaAvdk</p>","","","","","","","","",""
"html-keyboard-response","376","979943","0.0-16.0-0.44","5f91dc284909fe0b08f9e2e1","650c16f0f2faf8d7a0d14c09","651c34c3ed997e9068721d2b","null","null","<p style=""font-size: 60px; font-family: BACS"">GNAcaAvdk</p>","","","","","","","","",""
"html-keyboard-response","377","980950","0.0-16.0-0.45","5f91dc284909fe0b08f9e2e1","650c16f0f2faf8d7a0d14c09","651c34c3ed997e9068721d2b","null","null","<p style=""font-size: 60px; font-family: BACS"">GNAcaAvdk</p>","","","","","","","","",""
"html-keyboard-response","378","981957","0.0-16.0-0.46","5f91dc284909fe0b08f9e2e1","650c16f0f2faf8d7a0d14c09","651c34c3ed997e9068721d2b","null","null","<p style=""font-size: 60px; font-family: BACS"">GNAcaAvdk</p>","","","","","","","","",""
"html-keyboard-response","379","982959","0.0-16.0-0.47","5f91dc284909fe0b08f9e2e1","650c16f0f2faf8d7a0d14c09","651c34c3ed997e9068721d2b","null","null","<p style=""font-size: 60px; font-family: BACS"">GNAcaAvdk</p>","","","","","","","","",""
"html-keyboard-response","380","983966","0.0-16.0-0.48","5f91dc284909fe0b08f9e2e1","650c16f0f2faf8d7a0d14c09","651c34c3ed997e9068721d2b","null","null","<p style=""font-size: 60px; font-family: BACS"">GNAcaAvdk</p>","","","","","","","","",""
"html-keyboard-response","381","984972","0.0-16.0-0.49","5f91dc284909fe0b08f9e2e1","650c16f0f2faf8d7a0d14c09","651c34c3ed997e9068721d2b","null","null","<p style=""font-size: 60px; font-family: BACS"">GNAcaAvdk</p>","","","","","","","","",""
"html-keyboard-response","382","985976","0.0-16.0-0.50","5f91dc284909fe0b08f9e2e1","650c16f0f2faf8d7a0d14c09","651c34c3ed997e9068721d2b","null","null","<p style=""font-size: 60px; font-family: BACS"">GNAcaAvdk</p>","","","","","","","","",""
"html-keyboard-response","383","986984","0.0-16.0-0.51","5f91dc284909fe0b08f9e2e1","650c16f0f2faf8d7a0d14c09","651c34c3ed997e9068721d2b","null","null","<p style=""font-size: 60px; font-family: BACS"">GNAcaAvdk</p>","","","","","","","","",""
"html-keyboard-response","384","987988","0.0-16.0-0.52","5f91dc284909fe0b08f9e2e1","650c16f0f2faf8d7a0d14c09","651c34c3ed997e9068721d2b","null","null","<p style=""font-size: 60px; font-family: BACS"">GNAcaAvdk</p>","","","","","","","","",""
"html-keyboard-response","385","989003","0.0-16.0-0.53","5f91dc284909fe0b08f9e2e1","650c16f0f2faf8d7a0d14c09","651c34c3ed997e9068721d2b","null","null","<p style=""font-size: 60px; font-family: BACS"">GNAcaAvdk</p>","","","","","","","","",""
"html-keyboard-response","386","990006","0.0-16.0-0.54","5f91dc284909fe0b08f9e2e1","650c16f0f2faf8d7a0d14c09","651c34c3ed997e9068721d2b","null","null","<p style=""font-size: 60px; font-family: BACS"">GNAcaAvdk</p>","","","","","","","","",""
"html-keyboard-response","387","991008","0.0-16.0-0.55","5f91dc284909fe0b08f9e2e1","650c16f0f2faf8d7a0d14c09","651c34c3ed997e9068721d2b","null","null","<p style=""font-size: 60px; font-family: BACS"">GNAcaAvdk</p>","","","","","","","","",""
"html-keyboard-response","388","992020","0.0-16.0-0.56","5f91dc284909fe0b08f9e2e1","650c16f0f2faf8d7a0d14c09","651c34c3ed997e9068721d2b","null","null","<p style=""font-size: 60px; font-family: BACS"">GNAcaAvdk</p>","","","","","","","","",""
"html-keyboard-response","389","993022","0.0-16.0-0.57","5f91dc284909fe0b08f9e2e1","650c16f0f2faf8d7a0d14c09","651c34c3ed997e9068721d2b","null","null","<p style=""font-size: 60px; font-family: BACS"">GNAcaAvdk</p>","","","","","","","","",""
"html-keyboard-response","390","994029","0.0-16.0-0.58","5f91dc284909fe0b08f9e2e1","650c16f0f2faf8d7a0d14c09","651c34c3ed997e9068721d2b","null","null","<p style=""font-size: 60px; font-family: BACS"">GNAcaAvdk</p>","","","","","","","","",""
"html-keyboard-response","391","995035","0.0-16.0-0.59","5f91dc284909fe0b08f9e2e1","650c16f0f2faf8d7a0d14c09","651c34c3ed997e9068721d2b","null","null","<p style=""font-size: 60px; font-family: BACS"">GNAcaAvdk</p>","","","","","","","","",""
"html-keyboard-response","392","996039","0.0-16.0-0.60","5f91dc284909fe0b08f9e2e1","650c16f0f2faf8d7a0d14c09","651c34c3ed997e9068721d2b","null","null","<p style=""font-size: 60px; font-family: BACS"">GNAcaAvdk</p>","","","","","","","","",""
"html-keyboard-response","393","997048","0.0-16.0-0.61","5f91dc284909fe0b08f9e2e1","650c16f0f2faf8d7a0d14c09","651c34c3ed997e9068721d2b","null","null","<p style=""font-size: 60px; font-family: BACS"">GNAcaAvdk</p>","","","","","","","","",""
"html-keyboard-response","394","998049","0.0-16.0-0.62","5f91dc284909fe0b08f9e2e1","650c16f0f2faf8d7a0d14c09","651c34c3ed997e9068721d2b","null","null","<p style=""font-size: 60px; font-family: BACS"">GNAcaAvdk</p>","","","","","","","","",""
"html-keyboard-response","395","999051","0.0-16.0-0.63","5f91dc284909fe0b08f9e2e1","650c16f0f2faf8d7a0d14c09","651c34c3ed997e9068721d2b","null","null","<p style=""font-size: 60px; font-family: BACS"">GNAcaAvdk</p>","","","","","","","","",""
"html-keyboard-response","396","1000058","0.0-16.0-0.64","5f91dc284909fe0b08f9e2e1","650c16f0f2faf8d7a0d14c09","651c34c3ed997e9068721d2b","null","null","<p style=""font-size: 60px; font-family: BACS"">GNAcaAvdk</p>","","","","","","","","",""
"html-keyboard-response","397","1001066","0.0-16.0-0.65","5f91dc284909fe0b08f9e2e1","650c16f0f2faf8d7a0d14c09","651c34c3ed997e9068721d2b","null","null","<p style=""font-size: 60px; font-family: BACS"">GNAcaAvdk</p>","","","","","","","","",""
"html-keyboard-response","398","1002068","0.0-16.0-0.66","5f91dc284909fe0b08f9e2e1","650c16f0f2faf8d7a0d14c09","651c34c3ed997e9068721d2b","null","null","<p style=""font-size: 60px; font-family: BACS"">GNAcaAvdk</p>","","","","","","","","",""
"html-keyboard-response","399","1003082","0.0-16.0-0.67","5f91dc284909fe0b08f9e2e1","650c16f0f2faf8d7a0d14c09","651c34c3ed997e9068721d2b","null","null","<p style=""font-size: 60px; font-family: BACS"">GNAcaAvdk</p>","","","","","","","","",""
