"trial_type","trial_index","time_elapsed","internal_node_id","subject_id","study_id","session_id","rt","response","stimulus","success","item","task","correct_response","correct","target","confound","name"
"pavlovia","0","4456","0.0-0.0","60ba2011cd8052508d401296","64afc2c9a8732ea92db0087d","64afd48c19fb837426da2a63","","","","","","","","","","",""
"survey-html-form","1","8189","0.0-1.0","60ba2011cd8052508d401296","64afc2c9a8732ea92db0087d","64afd48c19fb837426da2a63","3732","{""ID"":""60ba2011cd8052508d401296""}","","","","","","","","",""
"html-keyboard-response","2","12089","0.0-2.0","60ba2011cd8052508d401296","64afc2c9a8732ea92db0087d","64afd48c19fb837426da2a63","3900"," ","<p style=""font-size: 15px;"">Prima di cominciare, le chiediamo di leggere il modulo di consenso informato e confermare la sua volontà di partecipare all'esperimento.</p>
      <p style=""font-size: 15px;""> La preghiamo di ricordare che questo è un progetto di ricerca e che la sua partecipazione è completamente volontaria. Lei si potra' ritirare in qualunque momento, senza necessariamente dover dare alcuna spiegazione. Lo studio al quale Le si chiede di partecipare ha lo scopo di esaminare come i lettori elaborano le parole scritte. La somministrazione delle prove è individuale. Lei sarà impegnato in una sessione di lavoro della durata media di 10 minuti, e un questionario di 10 minuti. L’ordine delle prove ed il loro svolgimento sono stabiliti in modo tale da evitare un eventuale affaticamento. Tutte le prove saranno precedute da un breve addestramento in modo tale che abbia la possibilità di familiarizzare con il compito. Sono previste alcune pause nel corso dello svolgimento dell’esperimento. Una ricompensa di £4 (£8 per ora) Le verrà consegnata al termine della sessione di testing. Nonostante il testing preveda delle prove cognitive, il presente esperimento non costituisce una prova clinica che permetta la diagnosi di eventuali patologie.</p>
      <p style=""font-size: 15px;"">Tutti i dati raccolti grazie alla partecipazione Sua e di altre persone volontarie saranno custoditi in server sicuri e protetti da password, e non sarà consentito ad alcuna persona non autorizzata di accedervi. Le Sue informazioni personali saranno conservate separatamente dai risultati della presente ricerca, cui saranno associati soltanto attraverso un ID arbitrario. Grazie a questo processo di anonimizzazione dei dati, a nessun ricercatore sarà possibile analizzare i risultati sapendo da quale specifico partecipante essi provengono. Inoltre, questa procedura renderà impossibile la Sua identificazione anche nel momento in cui i risultati della ricerca fossero pubblicati su riviste scientifiche, o presentati a congressi o in qualsiasi altro pubblico consesso. Più in generale, i dati raccolti saranno trattati in accordo con le leggi sulla privacy e in conformità al Decreto Legislativo 30 giugno 2003 n. 196 “Codice in materia di protezione dei dati personali” e al Regolamento Europeo 2016/679 (General Data Protection Regulation - GDPR). Il Responsabile della protezione dei dati (RPD) è l’Avv. Valentina Carollo che può essere contattato ai seguenti indirizzi email: <a href=""mailto:dpo@sissa.it"">dpo@sissa.it</a> oppure <a href=""mailto:rpd@sissa.it"">rpd@sissa.it</a> - PEC: <a href=""mailto:protocollo@pec.sissa.it"">protocollo@pec.sissa.it</a>.</p>
      <p style=""font-size: 15px;""> Prima di esprimere il suo consenso alla partecipazione, Le ricordiamo ancora che in caso Lei abbia bisogno di delucidazioni su qualunque aspetto della procedura sperimentale, il ricercatore è a Sua completa disposizione (<a href=""mailto:aliebelt@sissa.it"">aliebelt@sissa.it</a>, <a href=""mailto:davide.crepaldi@sissa.it"">davide.crepaldi@sissa.it</a>).</p>
      <p style=""font-size: 15px;"">Se vuole scaricare il modulo di consenso informato, clicca qui: <a href=""BASL_modulo_consenso.pdf"" download>modulo di consenso</a>.</p>
      <p style=""font-size: 15px;""> Le chiediamo di premere la barra per continuare al consenso.</p>","","","","","","","",""
"survey-html-form","3","19658","0.0-3.0","60ba2011cd8052508d401296","64afc2c9a8732ea92db0087d","64afd48c19fb837426da2a63","7568","{""consent1"":""YES"",""consent2"":""YES"",""consent3"":""YES"",""consent4"":""YES"",""consent5"":""YES"",""consent6"":""YES""}","","","","","","","","",""
"fullscreen","4","24137","0.0-4.0","60ba2011cd8052508d401296","64afc2c9a8732ea92db0087d","64afd48c19fb837426da2a63","","","","true","","","","","","",""
"html-keyboard-response","5","39585","0.0-5.0","60ba2011cd8052508d401296","64afc2c9a8732ea92db0087d","64afd48c19fb837426da2a63","15446"," ","<p>Benvenuta/o, e grazie mille del tuo tempo!</p>
      <p>In questo esperimento sarai un esperto/un'esperta di linguaggio cui è stato chiesto di dare un'occhiata ad alcuni messaggi che la Terra ha ricevuto dallo spazio. Il tuo compito, in questa prima parte dell'esperimento, sarà di fare molta attenzione alle parole che ti verranno mostrate; più tardi, i leader del mondo ti chiederanno qualche informazione su quello che hai visto. Le parole si susseguiranno abbastanza velocemente; sembra che questi alieni abbiano una certa fretta :-) </p>
      <p>Per favore, chiama lo sperimentatore se ha qualche domanda.</p><p>Premi la barra per continuare.</p>","","","","","","","",""
"html-keyboard-response","6","46852","0.0-6.0","60ba2011cd8052508d401296","64afc2c9a8732ea92db0087d","64afd48c19fb837426da2a63","7266"," ","<p>Ecco un esempio delle parole che vedrai:</p>
      <img src='esempio.png' height='400px'>
      <p>Quando sei pronti per iniziare, premi la barra.</p></div>","","","","","","","",""
"html-keyboard-response","7","47859","0.0-7.0-0.0","60ba2011cd8052508d401296","64afc2c9a8732ea92db0087d","64afd48c19fb837426da2a63","null","null","<p style=""font-size: 60px; font-family: BACS"">rLkmkam</p>","","","","","","","",""
"html-keyboard-response","8","48868","0.0-7.0-0.1","60ba2011cd8052508d401296","64afc2c9a8732ea92db0087d","64afd48c19fb837426da2a63","null","null","<p style=""font-size: 60px; font-family: BACS"">aUZArZYd</p>","","","","","","","",""
"html-keyboard-response","9","49873","0.0-7.0-0.2","60ba2011cd8052508d401296","64afc2c9a8732ea92db0087d","64afd48c19fb837426da2a63","null","null","<p style=""font-size: 60px; font-family: BACS"">PMPtkKmE</p>","","","","","","","",""
"html-keyboard-response","10","50884","0.0-7.0-0.3","60ba2011cd8052508d401296","64afc2c9a8732ea92db0087d","64afd48c19fb837426da2a63","null","null","<p style=""font-size: 60px; font-family: BACS"">kCRmOBT</p>","","","","","","","",""
"html-keyboard-response","11","51889","0.0-7.0-0.4","60ba2011cd8052508d401296","64afc2c9a8732ea92db0087d","64afd48c19fb837426da2a63","null","null","<p style=""font-size: 60px; font-family: BACS"">vYLUYNu</p>","","","","","","","",""
"html-keyboard-response","12","52896","0.0-7.0-0.5","60ba2011cd8052508d401296","64afc2c9a8732ea92db0087d","64afd48c19fb837426da2a63","null","null","<p style=""font-size: 60px; font-family: BACS"">NaAQdYArG</p>","","","","","","","",""
"html-keyboard-response","13","53908","0.0-7.0-0.6","60ba2011cd8052508d401296","64afc2c9a8732ea92db0087d","64afd48c19fb837426da2a63","null","null","<p style=""font-size: 60px; font-family: BACS"">JmvmOrZYd</p>","","","","","","","",""
"html-keyboard-response","14","54912","0.0-7.0-0.7","60ba2011cd8052508d401296","64afc2c9a8732ea92db0087d","64afd48c19fb837426da2a63","null","null","<p style=""font-size: 60px; font-family: BACS"">BOckPDOAK</p>","","","","","","","",""
"html-keyboard-response","15","55923","0.0-7.0-0.8","60ba2011cd8052508d401296","64afc2c9a8732ea92db0087d","64afd48c19fb837426da2a63","null","null","<p style=""font-size: 60px; font-family: BACS"">RCcEKmE</p>","","","","","","","",""
"html-keyboard-response","16","56928","0.0-7.0-0.9","60ba2011cd8052508d401296","64afc2c9a8732ea92db0087d","64afd48c19fb837426da2a63","null","null","<p style=""font-size: 60px; font-family: BACS"">rLkmYNu</p>","","","","","","","",""
"html-keyboard-response","17","57939","0.0-7.0-0.10","60ba2011cd8052508d401296","64afc2c9a8732ea92db0087d","64afd48c19fb837426da2a63","null","null","<p style=""font-size: 60px; font-family: BACS"">ckduArZYd</p>","","","","","","","",""
"html-keyboard-response","18","58948","0.0-7.0-0.11","60ba2011cd8052508d401296","64afc2c9a8732ea92db0087d","64afd48c19fb837426da2a63","null","null","<p style=""font-size: 60px; font-family: BACS"">UAcdukam</p>","","","","","","","",""
"html-keyboard-response","19","59952","0.0-7.0-0.12","60ba2011cd8052508d401296","64afc2c9a8732ea92db0087d","64afd48c19fb837426da2a63","null","null","<p style=""font-size: 60px; font-family: BACS"">damYbYNu</p>","","","","","","","",""
"html-keyboard-response","20","60964","0.0-7.0-0.13","60ba2011cd8052508d401296","64afc2c9a8732ea92db0087d","64afd48c19fb837426da2a63","null","null","<p style=""font-size: 60px; font-family: BACS"">DBklKmE</p>","","","","","","","",""
"html-keyboard-response","21","61968","0.0-7.0-0.14","60ba2011cd8052508d401296","64afc2c9a8732ea92db0087d","64afd48c19fb837426da2a63","null","null","<p style=""font-size: 60px; font-family: BACS"">lRckATmTm</p>","","","","","","","",""
"html-keyboard-response","22","62972","0.0-7.0-0.15","60ba2011cd8052508d401296","64afc2c9a8732ea92db0087d","64afd48c19fb837426da2a63","null","null","<p style=""font-size: 60px; font-family: BACS"">kCRmDOAK</p>","","","","","","","",""
"html-keyboard-response","23","63977","0.0-7.0-0.16","60ba2011cd8052508d401296","64afc2c9a8732ea92db0087d","64afd48c19fb837426da2a63","null","null","<p style=""font-size: 60px; font-family: BACS"">NaAQdkam</p>","","","","","","","",""
"html-keyboard-response","24","64988","0.0-7.0-0.17","60ba2011cd8052508d401296","64afc2c9a8732ea92db0087d","64afd48c19fb837426da2a63","null","null","<p style=""font-size: 60px; font-family: BACS"">JmvmOYNu</p>","","","","","","","",""
"html-keyboard-response","25","65992","0.0-7.0-0.18","60ba2011cd8052508d401296","64afc2c9a8732ea92db0087d","64afd48c19fb837426da2a63","null","null","<p style=""font-size: 60px; font-family: BACS"">aUZAJUNa</p>","","","","","","","",""
"html-keyboard-response","26","67004","0.0-7.0-0.19","60ba2011cd8052508d401296","64afc2c9a8732ea92db0087d","64afd48c19fb837426da2a63","null","null","<p style=""font-size: 60px; font-family: BACS"">DBklOBT</p>","","","","","","","",""
"html-keyboard-response","27","68008","0.0-7.0-0.20","60ba2011cd8052508d401296","64afc2c9a8732ea92db0087d","64afd48c19fb837426da2a63","null","null","<p style=""font-size: 60px; font-family: BACS"">damYbYArG</p>","","","","","","","",""
"html-keyboard-response","28","69020","0.0-7.0-0.21","60ba2011cd8052508d401296","64afc2c9a8732ea92db0087d","64afd48c19fb837426da2a63","null","null","<p style=""font-size: 60px; font-family: BACS"">kNuaYNu</p>","","","","","","","",""
"html-keyboard-response","29","70024","0.0-7.0-0.22","60ba2011cd8052508d401296","64afc2c9a8732ea92db0087d","64afd48c19fb837426da2a63","null","null","<p style=""font-size: 60px; font-family: BACS"">NaAQdJUNa</p>","","","","","","","",""
"html-keyboard-response","30","71036","0.0-7.0-0.23","60ba2011cd8052508d401296","64afc2c9a8732ea92db0087d","64afd48c19fb837426da2a63","null","null","<p style=""font-size: 60px; font-family: BACS"">RCcEOBT</p>","","","","","","","",""
"html-keyboard-response","31","72040","0.0-7.0-0.24","60ba2011cd8052508d401296","64afc2c9a8732ea92db0087d","64afd48c19fb837426da2a63","null","null","<p style=""font-size: 60px; font-family: BACS"">dvNvAkam</p>","","","","","","","",""
"html-keyboard-response","32","73048","0.0-7.0-0.25","60ba2011cd8052508d401296","64afc2c9a8732ea92db0087d","64afd48c19fb837426da2a63","null","null","<p style=""font-size: 60px; font-family: BACS"">AdDbdTAh</p>","","","","","","","",""
"html-keyboard-response","33","74060","0.0-7.0-0.26","60ba2011cd8052508d401296","64afc2c9a8732ea92db0087d","64afd48c19fb837426da2a63","null","null","<p style=""font-size: 60px; font-family: BACS"">lRckAOBT</p>","","","","","","","",""
"html-keyboard-response","34","75069","0.0-7.0-0.27","60ba2011cd8052508d401296","64afc2c9a8732ea92db0087d","64afd48c19fb837426da2a63","null","null","<p style=""font-size: 60px; font-family: BACS"">UAcdurZYd</p>","","","","","","","",""
"html-keyboard-response","35","76073","0.0-7.0-0.28","60ba2011cd8052508d401296","64afc2c9a8732ea92db0087d","64afd48c19fb837426da2a63","null","null","<p style=""font-size: 60px; font-family: BACS"">kCRmdTAh</p>","","","","","","","",""
"html-keyboard-response","36","77084","0.0-7.0-0.29","60ba2011cd8052508d401296","64afc2c9a8732ea92db0087d","64afd48c19fb837426da2a63","null","null","<p style=""font-size: 60px; font-family: BACS"">dvNvAJUNa</p>","","","","","","","",""
"html-keyboard-response","37","78092","0.0-7.0-0.30","60ba2011cd8052508d401296","64afc2c9a8732ea92db0087d","64afd48c19fb837426da2a63","null","null","<p style=""font-size: 60px; font-family: BACS"">RCcETmTm</p>","","","","","","","",""
"html-keyboard-response","38","79098","0.0-7.0-0.31","60ba2011cd8052508d401296","64afc2c9a8732ea92db0087d","64afd48c19fb837426da2a63","null","null","<p style=""font-size: 60px; font-family: BACS"">BOckPKmE</p>","","","","","","","",""
"html-keyboard-response","39","80109","0.0-7.0-0.32","60ba2011cd8052508d401296","64afc2c9a8732ea92db0087d","64afd48c19fb837426da2a63","null","null","<p style=""font-size: 60px; font-family: BACS"">EhbtdTAh</p>","","","","","","","",""
"html-keyboard-response","40","81112","0.0-7.0-0.33","60ba2011cd8052508d401296","64afc2c9a8732ea92db0087d","64afd48c19fb837426da2a63","null","null","<p style=""font-size: 60px; font-family: BACS"">rLkmYArG</p>","","","","","","","",""
"html-keyboard-response","41","82124","0.0-7.0-0.34","60ba2011cd8052508d401296","64afc2c9a8732ea92db0087d","64afd48c19fb837426da2a63","null","null","<p style=""font-size: 60px; font-family: BACS"">damYbkam</p>","","","","","","","",""
"html-keyboard-response","42","83133","0.0-7.0-0.35","60ba2011cd8052508d401296","64afc2c9a8732ea92db0087d","64afd48c19fb837426da2a63","null","null","<p style=""font-size: 60px; font-family: BACS"">ckduAYNu</p>","","","","","","","",""
"html-keyboard-response","43","84137","0.0-7.0-0.36","60ba2011cd8052508d401296","64afc2c9a8732ea92db0087d","64afd48c19fb837426da2a63","null","null","<p style=""font-size: 60px; font-family: BACS"">kNuarZYd</p>","","","","","","","",""
"html-keyboard-response","44","85148","0.0-7.0-0.37","60ba2011cd8052508d401296","64afc2c9a8732ea92db0087d","64afd48c19fb837426da2a63","null","null","<p style=""font-size: 60px; font-family: BACS"">DBklTmTm</p>","","","","","","","",""
"html-keyboard-response","45","86153","0.0-7.0-0.38","60ba2011cd8052508d401296","64afc2c9a8732ea92db0087d","64afd48c19fb837426da2a63","null","null","<p style=""font-size: 60px; font-family: BACS"">JmvmOJUNa</p>","","","","","","","",""
"html-keyboard-response","46","87165","0.0-7.0-0.39","60ba2011cd8052508d401296","64afc2c9a8732ea92db0087d","64afd48c19fb837426da2a63","null","null","<p style=""font-size: 60px; font-family: BACS"">PMPtkOBT</p>","","","","","","","",""
"html-keyboard-response","47","88168","0.0-7.0-0.40","60ba2011cd8052508d401296","64afc2c9a8732ea92db0087d","64afd48c19fb837426da2a63","null","null","<p style=""font-size: 60px; font-family: BACS"">ABPRBTmTm</p>","","","","","","","",""
"html-keyboard-response","48","89181","0.0-7.0-0.41","60ba2011cd8052508d401296","64afc2c9a8732ea92db0087d","64afd48c19fb837426da2a63","null","null","<p style=""font-size: 60px; font-family: BACS"">UAcduJUNa</p>","","","","","","","",""
"html-keyboard-response","49","90185","0.0-7.0-0.42","60ba2011cd8052508d401296","64afc2c9a8732ea92db0087d","64afd48c19fb837426da2a63","null","null","<p style=""font-size: 60px; font-family: BACS"">PMPtkDOAK</p>","","","","","","","",""
"html-keyboard-response","50","91197","0.0-7.0-0.43","60ba2011cd8052508d401296","64afc2c9a8732ea92db0087d","64afd48c19fb837426da2a63","null","null","<p style=""font-size: 60px; font-family: BACS"">AdDbTmTm</p>","","","","","","","",""
"html-keyboard-response","51","92205","0.0-7.0-0.44","60ba2011cd8052508d401296","64afc2c9a8732ea92db0087d","64afd48c19fb837426da2a63","null","null","<p style=""font-size: 60px; font-family: BACS"">ABPRBDOAK</p>","","","","","","","",""
"html-keyboard-response","52","93209","0.0-7.0-0.45","60ba2011cd8052508d401296","64afc2c9a8732ea92db0087d","64afd48c19fb837426da2a63","null","null","<p style=""font-size: 60px; font-family: BACS"">hTtBbOBT</p>","","","","","","","",""
"html-keyboard-response","53","94221","0.0-7.0-0.46","60ba2011cd8052508d401296","64afc2c9a8732ea92db0087d","64afd48c19fb837426da2a63","null","null","<p style=""font-size: 60px; font-family: BACS"">rLkmrZYd</p>","","","","","","","",""
"html-keyboard-response","54","95230","0.0-7.0-0.47","60ba2011cd8052508d401296","64afc2c9a8732ea92db0087d","64afd48c19fb837426da2a63","null","null","<p style=""font-size: 60px; font-family: BACS"">PMPtkdTAh</p>","","","","","","","",""
"html-keyboard-response","55","96233","0.0-7.0-0.48","60ba2011cd8052508d401296","64afc2c9a8732ea92db0087d","64afd48c19fb837426da2a63","null","null","<p style=""font-size: 60px; font-family: BACS"">ckduAkam</p>","","","","","","","",""
"html-keyboard-response","56","97245","0.0-7.0-0.49","60ba2011cd8052508d401296","64afc2c9a8732ea92db0087d","64afd48c19fb837426da2a63","null","null","<p style=""font-size: 60px; font-family: BACS"">EhbtTmTm</p>","","","","","","","",""
"html-keyboard-response","57","98248","0.0-7.0-0.50","60ba2011cd8052508d401296","64afc2c9a8732ea92db0087d","64afd48c19fb837426da2a63","null","null","<p style=""font-size: 60px; font-family: BACS"">kNuaYArG</p>","","","","","","","",""
"html-keyboard-response","58","99257","0.0-7.0-0.51","60ba2011cd8052508d401296","64afc2c9a8732ea92db0087d","64afd48c19fb837426da2a63","null","null","<p style=""font-size: 60px; font-family: BACS"">vYLUkam</p>","","","","","","","",""
"html-keyboard-response","59","100269","0.0-7.0-0.52","60ba2011cd8052508d401296","64afc2c9a8732ea92db0087d","64afd48c19fb837426da2a63","null","null","<p style=""font-size: 60px; font-family: BACS"">BOckPTmTm</p>","","","","","","","",""
"html-keyboard-response","60","101274","0.0-7.0-0.53","60ba2011cd8052508d401296","64afc2c9a8732ea92db0087d","64afd48c19fb837426da2a63","null","null","<p style=""font-size: 60px; font-family: BACS"">EhbtOBT</p>","","","","","","","",""
"html-keyboard-response","61","102285","0.0-7.0-0.54","60ba2011cd8052508d401296","64afc2c9a8732ea92db0087d","64afd48c19fb837426da2a63","null","null","<p style=""font-size: 60px; font-family: BACS"">lRckADOAK</p>","","","","","","","",""
"html-keyboard-response","62","103289","0.0-7.0-0.55","60ba2011cd8052508d401296","64afc2c9a8732ea92db0087d","64afd48c19fb837426da2a63","null","null","<p style=""font-size: 60px; font-family: BACS"">RCcEdTAh</p>","","","","","","","",""
"html-keyboard-response","63","104297","0.0-7.0-0.56","60ba2011cd8052508d401296","64afc2c9a8732ea92db0087d","64afd48c19fb837426da2a63","null","null","<p style=""font-size: 60px; font-family: BACS"">ABPRBKmE</p>","","","","","","","",""
"html-keyboard-response","64","105305","0.0-7.0-0.57","60ba2011cd8052508d401296","64afc2c9a8732ea92db0087d","64afd48c19fb837426da2a63","null","null","<p style=""font-size: 60px; font-family: BACS"">aUZAYArG</p>","","","","","","","",""
"html-keyboard-response","65","106314","0.0-7.0-0.58","60ba2011cd8052508d401296","64afc2c9a8732ea92db0087d","64afd48c19fb837426da2a63","null","null","<p style=""font-size: 60px; font-family: BACS"">dvNvAYNu</p>","","","","","","","",""
"html-keyboard-response","66","107325","0.0-7.0-0.59","60ba2011cd8052508d401296","64afc2c9a8732ea92db0087d","64afd48c19fb837426da2a63","null","null","<p style=""font-size: 60px; font-family: BACS"">hTtBbdTAh</p>","","","","","","","",""
"html-keyboard-response","67","108328","0.0-7.0-0.60","60ba2011cd8052508d401296","64afc2c9a8732ea92db0087d","64afd48c19fb837426da2a63","null","null","<p style=""font-size: 60px; font-family: BACS"">vYLUrZYd</p>","","","","","","","",""
"html-keyboard-response","68","109341","0.0-7.0-0.61","60ba2011cd8052508d401296","64afc2c9a8732ea92db0087d","64afd48c19fb837426da2a63","null","null","<p style=""font-size: 60px; font-family: BACS"">UAcduYArG</p>","","","","","","","",""
"html-keyboard-response","69","110346","0.0-7.0-0.62","60ba2011cd8052508d401296","64afc2c9a8732ea92db0087d","64afd48c19fb837426da2a63","null","null","<p style=""font-size: 60px; font-family: BACS"">EhbtKmE</p>","","","","","","","",""
"html-keyboard-response","70","111357","0.0-7.0-0.63","60ba2011cd8052508d401296","64afc2c9a8732ea92db0087d","64afd48c19fb837426da2a63","null","null","<p style=""font-size: 60px; font-family: BACS"">DBklDOAK</p>","","","","","","","",""
"html-keyboard-response","71","112366","0.0-7.0-0.64","60ba2011cd8052508d401296","64afc2c9a8732ea92db0087d","64afd48c19fb837426da2a63","null","null","<p style=""font-size: 60px; font-family: BACS"">JmvmOYArG</p>","","","","","","","",""
"html-keyboard-response","72","113369","0.0-7.0-0.65","60ba2011cd8052508d401296","64afc2c9a8732ea92db0087d","64afd48c19fb837426da2a63","null","null","<p style=""font-size: 60px; font-family: BACS"">AdDbDOAK</p>","","","","","","","",""
"html-keyboard-response","73","114381","0.0-7.0-0.66","60ba2011cd8052508d401296","64afc2c9a8732ea92db0087d","64afd48c19fb837426da2a63","null","null","<p style=""font-size: 60px; font-family: BACS"">aUZAkam</p>","","","","","","","",""
"html-keyboard-response","74","115385","0.0-7.0-0.67","60ba2011cd8052508d401296","64afc2c9a8732ea92db0087d","64afd48c19fb837426da2a63","null","null","<p style=""font-size: 60px; font-family: BACS"">NaAQdYNu</p>","","","","","","","",""
"html-keyboard-response","75","116396","0.0-7.0-0.68","60ba2011cd8052508d401296","64afc2c9a8732ea92db0087d","64afd48c19fb837426da2a63","null","null","<p style=""font-size: 60px; font-family: BACS"">hTtBbDOAK</p>","","","","","","","",""
"html-keyboard-response","76","117405","0.0-7.0-0.69","60ba2011cd8052508d401296","64afc2c9a8732ea92db0087d","64afd48c19fb837426da2a63","null","null","<p style=""font-size: 60px; font-family: BACS"">AdDbKmE</p>","","","","","","","",""
"html-keyboard-response","77","118409","0.0-7.0-0.70","60ba2011cd8052508d401296","64afc2c9a8732ea92db0087d","64afd48c19fb837426da2a63","null","null","<p style=""font-size: 60px; font-family: BACS"">BOckPOBT</p>","","","","","","","",""
"html-keyboard-response","78","119421","0.0-7.0-0.71","60ba2011cd8052508d401296","64afc2c9a8732ea92db0087d","64afd48c19fb837426da2a63","null","null","<p style=""font-size: 60px; font-family: BACS"">vYLUYArG</p>","","","","","","","",""
"html-keyboard-response","79","120430","0.0-7.0-0.72","60ba2011cd8052508d401296","64afc2c9a8732ea92db0087d","64afd48c19fb837426da2a63","null","null","<p style=""font-size: 60px; font-family: BACS"">ckduAJUNa</p>","","","","","","","",""
"html-keyboard-response","80","121433","0.0-7.0-0.73","60ba2011cd8052508d401296","64afc2c9a8732ea92db0087d","64afd48c19fb837426da2a63","null","null","<p style=""font-size: 60px; font-family: BACS"">ABPRBdTAh</p>","","","","","","","",""
"html-keyboard-response","81","122445","0.0-7.0-0.74","60ba2011cd8052508d401296","64afc2c9a8732ea92db0087d","64afd48c19fb837426da2a63","null","null","<p style=""font-size: 60px; font-family: BACS"">damYbJUNa</p>","","","","","","","",""
"html-keyboard-response","82","123449","0.0-7.0-0.75","60ba2011cd8052508d401296","64afc2c9a8732ea92db0087d","64afd48c19fb837426da2a63","null","null","<p style=""font-size: 60px; font-family: BACS"">dvNvArZYd</p>","","","","","","","",""
"html-keyboard-response","83","124461","0.0-7.0-0.76","60ba2011cd8052508d401296","64afc2c9a8732ea92db0087d","64afd48c19fb837426da2a63","null","null","<p style=""font-size: 60px; font-family: BACS"">kCRmTmTm</p>","","","","","","","",""
"html-keyboard-response","84","125464","0.0-7.0-0.77","60ba2011cd8052508d401296","64afc2c9a8732ea92db0087d","64afd48c19fb837426da2a63","null","null","<p style=""font-size: 60px; font-family: BACS"">kNuaJUNa</p>","","","","","","","",""
"html-keyboard-response","85","126477","0.0-7.0-0.78","60ba2011cd8052508d401296","64afc2c9a8732ea92db0087d","64afd48c19fb837426da2a63","null","null","<p style=""font-size: 60px; font-family: BACS"">hTtBbKmE</p>","","","","","","","",""
"html-keyboard-response","86","127485","0.0-7.0-0.79","60ba2011cd8052508d401296","64afc2c9a8732ea92db0087d","64afd48c19fb837426da2a63","null","null","<p style=""font-size: 60px; font-family: BACS"">lRckAdTAh</p>","","","","","","","",""
"html-keyboard-response","87","149071","0.0-8.0","60ba2011cd8052508d401296","64afc2c9a8732ea92db0087d","64afd48c19fb837426da2a63","21585"," ","<p>Ottimo, hai visto il primo blocco di parole. Ora puoi prenderti una piccola pausa.</p>
      <p>Premi la barra quando sei pronta/o per riprendere.</p>","","","","","","","",""
"html-keyboard-response","88","150076","0.0-9.0-0.0","60ba2011cd8052508d401296","64afc2c9a8732ea92db0087d","64afd48c19fb837426da2a63","null","null","<p style=""font-size: 60px; font-family: BACS"">kNuarZYd</p>","","","","","","","",""
"html-keyboard-response","89","151085","0.0-9.0-0.1","60ba2011cd8052508d401296","64afc2c9a8732ea92db0087d","64afd48c19fb837426da2a63","null","null","<p style=""font-size: 60px; font-family: BACS"">kCRmOBT</p>","","","","","","","",""
"html-keyboard-response","90","152088","0.0-9.0-0.2","60ba2011cd8052508d401296","64afc2c9a8732ea92db0087d","64afd48c19fb837426da2a63","null","null","<p style=""font-size: 60px; font-family: BACS"">vYLUkam</p>","","","","","","","",""
"html-keyboard-response","91","153101","0.0-9.0-0.3","60ba2011cd8052508d401296","64afc2c9a8732ea92db0087d","64afd48c19fb837426da2a63","null","null","<p style=""font-size: 60px; font-family: BACS"">PMPtkKmE</p>","","","","","","","",""
"html-keyboard-response","92","154105","0.0-9.0-0.4","60ba2011cd8052508d401296","64afc2c9a8732ea92db0087d","64afd48c19fb837426da2a63","null","null","<p style=""font-size: 60px; font-family: BACS"">ABPRBTmTm</p>","","","","","","","",""
"html-keyboard-response","93","155117","0.0-9.0-0.5","60ba2011cd8052508d401296","64afc2c9a8732ea92db0087d","64afd48c19fb837426da2a63","null","null","<p style=""font-size: 60px; font-family: BACS"">RCcEOBT</p>","","","","","","","",""
"html-keyboard-response","94","156125","0.0-9.0-0.6","60ba2011cd8052508d401296","64afc2c9a8732ea92db0087d","64afd48c19fb837426da2a63","null","null","<p style=""font-size: 60px; font-family: BACS"">AdDbDOAK</p>","","","","","","","",""
"html-keyboard-response","95","157128","0.0-9.0-0.7","60ba2011cd8052508d401296","64afc2c9a8732ea92db0087d","64afd48c19fb837426da2a63","null","null","<p style=""font-size: 60px; font-family: BACS"">NaAQdJUNa</p>","","","","","","","",""
"html-keyboard-response","96","158141","0.0-9.0-0.8","60ba2011cd8052508d401296","64afc2c9a8732ea92db0087d","64afd48c19fb837426da2a63","null","null","<p style=""font-size: 60px; font-family: BACS"">UAcdukam</p>","","","","","","","",""
"html-keyboard-response","97","159149","0.0-9.0-0.9","60ba2011cd8052508d401296","64afc2c9a8732ea92db0087d","64afd48c19fb837426da2a63","null","null","<p style=""font-size: 60px; font-family: BACS"">aUZArZYd</p>","","","","","","","",""
"html-keyboard-response","98","160158","0.0-9.0-0.10","60ba2011cd8052508d401296","64afc2c9a8732ea92db0087d","64afd48c19fb837426da2a63","null","null","<p style=""font-size: 60px; font-family: BACS"">hTtBbOBT</p>","","","","","","","",""
"html-keyboard-response","99","161162","0.0-9.0-0.11","60ba2011cd8052508d401296","64afc2c9a8732ea92db0087d","64afd48c19fb837426da2a63","null","null","<p style=""font-size: 60px; font-family: BACS"">damYbJUNa</p>","","","","","","","",""
"html-keyboard-response","100","162173","0.0-9.0-0.12","60ba2011cd8052508d401296","64afc2c9a8732ea92db0087d","64afd48c19fb837426da2a63","null","null","<p style=""font-size: 60px; font-family: BACS"">BOckPKmE</p>","","","","","","","",""
"html-keyboard-response","101","163177","0.0-9.0-0.13","60ba2011cd8052508d401296","64afc2c9a8732ea92db0087d","64afd48c19fb837426da2a63","null","null","<p style=""font-size: 60px; font-family: BACS"">lRckATmTm</p>","","","","","","","",""
"html-keyboard-response","102","164189","0.0-9.0-0.14","60ba2011cd8052508d401296","64afc2c9a8732ea92db0087d","64afd48c19fb837426da2a63","null","null","<p style=""font-size: 60px; font-family: BACS"">AdDbdTAh</p>","","","","","","","",""
"html-keyboard-response","103","165193","0.0-9.0-0.15","60ba2011cd8052508d401296","64afc2c9a8732ea92db0087d","64afd48c19fb837426da2a63","null","null","<p style=""font-size: 60px; font-family: BACS"">kCRmDOAK</p>","","","","","","","",""
"html-keyboard-response","104","166205","0.0-9.0-0.16","60ba2011cd8052508d401296","64afc2c9a8732ea92db0087d","64afd48c19fb837426da2a63","null","null","<p style=""font-size: 60px; font-family: BACS"">EhbtKmE</p>","","","","","","","",""
"html-keyboard-response","105","167209","0.0-9.0-0.17","60ba2011cd8052508d401296","64afc2c9a8732ea92db0087d","64afd48c19fb837426da2a63","null","null","<p style=""font-size: 60px; font-family: BACS"">PMPtkdTAh</p>","","","","","","","",""
"html-keyboard-response","106","168217","0.0-9.0-0.18","60ba2011cd8052508d401296","64afc2c9a8732ea92db0087d","64afd48c19fb837426da2a63","null","null","<p style=""font-size: 60px; font-family: BACS"">rLkmkam</p>","","","","","","","",""
"html-keyboard-response","107","169230","0.0-9.0-0.19","60ba2011cd8052508d401296","64afc2c9a8732ea92db0087d","64afd48c19fb837426da2a63","null","null","<p style=""font-size: 60px; font-family: BACS"">JmvmOrZYd</p>","","","","","","","",""
"html-keyboard-response","108","170234","0.0-9.0-0.20","60ba2011cd8052508d401296","64afc2c9a8732ea92db0087d","64afd48c19fb837426da2a63","null","null","<p style=""font-size: 60px; font-family: BACS"">DBklTmTm</p>","","","","","","","",""
"html-keyboard-response","109","171242","0.0-9.0-0.21","60ba2011cd8052508d401296","64afc2c9a8732ea92db0087d","64afd48c19fb837426da2a63","null","null","<p style=""font-size: 60px; font-family: BACS"">ckduAkam</p>","","","","","","","",""
"html-keyboard-response","110","172253","0.0-9.0-0.22","60ba2011cd8052508d401296","64afc2c9a8732ea92db0087d","64afd48c19fb837426da2a63","null","null","<p style=""font-size: 60px; font-family: BACS"">kCRmTmTm</p>","","","","","","","",""
"html-keyboard-response","111","173257","0.0-9.0-0.23","60ba2011cd8052508d401296","64afc2c9a8732ea92db0087d","64afd48c19fb837426da2a63","null","null","<p style=""font-size: 60px; font-family: BACS"">NaAQdkam</p>","","","","","","","",""
"html-keyboard-response","112","174269","0.0-9.0-0.24","60ba2011cd8052508d401296","64afc2c9a8732ea92db0087d","64afd48c19fb837426da2a63","null","null","<p style=""font-size: 60px; font-family: BACS"">dvNvArZYd</p>","","","","","","","",""
"html-keyboard-response","113","175274","0.0-9.0-0.25","60ba2011cd8052508d401296","64afc2c9a8732ea92db0087d","64afd48c19fb837426da2a63","null","null","<p style=""font-size: 60px; font-family: BACS"">kNuaYNu</p>","","","","","","","",""
"html-keyboard-response","114","176281","0.0-9.0-0.26","60ba2011cd8052508d401296","64afc2c9a8732ea92db0087d","64afd48c19fb837426da2a63","null","null","<p style=""font-size: 60px; font-family: BACS"">dvNvAkam</p>","","","","","","","",""
"html-keyboard-response","115","177292","0.0-9.0-0.27","60ba2011cd8052508d401296","64afc2c9a8732ea92db0087d","64afd48c19fb837426da2a63","null","null","<p style=""font-size: 60px; font-family: BACS"">RCcETmTm</p>","","","","","","","",""
"html-keyboard-response","116","178298","0.0-9.0-0.28","60ba2011cd8052508d401296","64afc2c9a8732ea92db0087d","64afd48c19fb837426da2a63","null","null","<p style=""font-size: 60px; font-family: BACS"">ABPRBDOAK</p>","","","","","","","",""
"html-keyboard-response","117","179309","0.0-9.0-0.29","60ba2011cd8052508d401296","64afc2c9a8732ea92db0087d","64afd48c19fb837426da2a63","null","null","<p style=""font-size: 60px; font-family: BACS"">BOckPTmTm</p>","","","","","","","",""
"html-keyboard-response","118","180313","0.0-9.0-0.30","60ba2011cd8052508d401296","64afc2c9a8732ea92db0087d","64afd48c19fb837426da2a63","null","null","<p style=""font-size: 60px; font-family: BACS"">hTtBbDOAK</p>","","","","","","","",""
"html-keyboard-response","119","181324","0.0-9.0-0.31","60ba2011cd8052508d401296","64afc2c9a8732ea92db0087d","64afd48c19fb837426da2a63","null","null","<p style=""font-size: 60px; font-family: BACS"">UAcduJUNa</p>","","","","","","","",""
"html-keyboard-response","120","182334","0.0-9.0-0.32","60ba2011cd8052508d401296","64afc2c9a8732ea92db0087d","64afd48c19fb837426da2a63","null","null","<p style=""font-size: 60px; font-family: BACS"">EhbtTmTm</p>","","","","","","","",""
"html-keyboard-response","121","183337","0.0-9.0-0.33","60ba2011cd8052508d401296","64afc2c9a8732ea92db0087d","64afd48c19fb837426da2a63","null","null","<p style=""font-size: 60px; font-family: BACS"">DBklOBT</p>","","","","","","","",""
"html-keyboard-response","122","184349","0.0-9.0-0.34","60ba2011cd8052508d401296","64afc2c9a8732ea92db0087d","64afd48c19fb837426da2a63","null","null","<p style=""font-size: 60px; font-family: BACS"">ckduAYNu</p>","","","","","","","",""
"html-keyboard-response","123","185353","0.0-9.0-0.35","60ba2011cd8052508d401296","64afc2c9a8732ea92db0087d","64afd48c19fb837426da2a63","null","null","<p style=""font-size: 60px; font-family: BACS"">AdDbKmE</p>","","","","","","","",""
"html-keyboard-response","124","186365","0.0-9.0-0.36","60ba2011cd8052508d401296","64afc2c9a8732ea92db0087d","64afd48c19fb837426da2a63","null","null","<p style=""font-size: 60px; font-family: BACS"">hTtBbdTAh</p>","","","","","","","",""
"html-keyboard-response","125","187370","0.0-9.0-0.37","60ba2011cd8052508d401296","64afc2c9a8732ea92db0087d","64afd48c19fb837426da2a63","null","null","<p style=""font-size: 60px; font-family: BACS"">BOckPDOAK</p>","","","","","","","",""
"html-keyboard-response","126","188381","0.0-9.0-0.38","60ba2011cd8052508d401296","64afc2c9a8732ea92db0087d","64afd48c19fb837426da2a63","null","null","<p style=""font-size: 60px; font-family: BACS"">aUZAJUNa</p>","","","","","","","",""
"html-keyboard-response","127","189390","0.0-9.0-0.39","60ba2011cd8052508d401296","64afc2c9a8732ea92db0087d","64afd48c19fb837426da2a63","null","null","<p style=""font-size: 60px; font-family: BACS"">lRckAOBT</p>","","","","","","","",""
"html-keyboard-response","128","190394","0.0-9.0-0.40","60ba2011cd8052508d401296","64afc2c9a8732ea92db0087d","64afd48c19fb837426da2a63","null","null","<p style=""font-size: 60px; font-family: BACS"">kNuaJUNa</p>","","","","","","","",""
"html-keyboard-response","129","191402","0.0-9.0-0.41","60ba2011cd8052508d401296","64afc2c9a8732ea92db0087d","64afd48c19fb837426da2a63","null","null","<p style=""font-size: 60px; font-family: BACS"">aUZAkam</p>","","","","","","","",""
"html-keyboard-response","130","192414","0.0-9.0-0.42","60ba2011cd8052508d401296","64afc2c9a8732ea92db0087d","64afd48c19fb837426da2a63","null","null","<p style=""font-size: 60px; font-family: BACS"">AdDbTmTm</p>","","","","","","","",""
"html-keyboard-response","131","193417","0.0-9.0-0.43","60ba2011cd8052508d401296","64afc2c9a8732ea92db0087d","64afd48c19fb837426da2a63","null","null","<p style=""font-size: 60px; font-family: BACS"">dvNvAYNu</p>","","","","","","","",""
"html-keyboard-response","132","194430","0.0-9.0-0.44","60ba2011cd8052508d401296","64afc2c9a8732ea92db0087d","64afd48c19fb837426da2a63","null","null","<p style=""font-size: 60px; font-family: BACS"">hTtBbKmE</p>","","","","","","","",""
"html-keyboard-response","133","195433","0.0-9.0-0.45","60ba2011cd8052508d401296","64afc2c9a8732ea92db0087d","64afd48c19fb837426da2a63","null","null","<p style=""font-size: 60px; font-family: BACS"">lRckADOAK</p>","","","","","","","",""
"html-keyboard-response","134","196441","0.0-9.0-0.46","60ba2011cd8052508d401296","64afc2c9a8732ea92db0087d","64afd48c19fb837426da2a63","null","null","<p style=""font-size: 60px; font-family: BACS"">RCcEKmE</p>","","","","","","","",""
"html-keyboard-response","135","197454","0.0-9.0-0.47","60ba2011cd8052508d401296","64afc2c9a8732ea92db0087d","64afd48c19fb837426da2a63","null","null","<p style=""font-size: 60px; font-family: BACS"">kNuaYArG</p>","","","","","","","",""
"html-keyboard-response","136","198457","0.0-9.0-0.48","60ba2011cd8052508d401296","64afc2c9a8732ea92db0087d","64afd48c19fb837426da2a63","null","null","<p style=""font-size: 60px; font-family: BACS"">vYLUYNu</p>","","","","","","","",""
"html-keyboard-response","137","199465","0.0-9.0-0.49","60ba2011cd8052508d401296","64afc2c9a8732ea92db0087d","64afd48c19fb837426da2a63","null","null","<p style=""font-size: 60px; font-family: BACS"">kCRmdTAh</p>","","","","","","","",""
"html-keyboard-response","138","200475","0.0-9.0-0.50","60ba2011cd8052508d401296","64afc2c9a8732ea92db0087d","64afd48c19fb837426da2a63","null","null","<p style=""font-size: 60px; font-family: BACS"">rLkmYArG</p>","","","","","","","",""
"html-keyboard-response","139","201481","0.0-9.0-0.51","60ba2011cd8052508d401296","64afc2c9a8732ea92db0087d","64afd48c19fb837426da2a63","null","null","<p style=""font-size: 60px; font-family: BACS"">UAcdurZYd</p>","","","","","","","",""
"html-keyboard-response","140","202490","0.0-9.0-0.52","60ba2011cd8052508d401296","64afc2c9a8732ea92db0087d","64afd48c19fb837426da2a63","null","null","<p style=""font-size: 60px; font-family: BACS"">damYbYArG</p>","","","","","","","",""
"html-keyboard-response","141","203502","0.0-9.0-0.53","60ba2011cd8052508d401296","64afc2c9a8732ea92db0087d","64afd48c19fb837426da2a63","null","null","<p style=""font-size: 60px; font-family: BACS"">PMPtkOBT</p>","","","","","","","",""
"html-keyboard-response","142","204506","0.0-9.0-0.54","60ba2011cd8052508d401296","64afc2c9a8732ea92db0087d","64afd48c19fb837426da2a63","null","null","<p style=""font-size: 60px; font-family: BACS"">JmvmOJUNa</p>","","","","","","","",""
"html-keyboard-response","143","205518","0.0-9.0-0.55","60ba2011cd8052508d401296","64afc2c9a8732ea92db0087d","64afd48c19fb837426da2a63","null","null","<p style=""font-size: 60px; font-family: BACS"">vYLUrZYd</p>","","","","","","","",""
"html-keyboard-response","144","206521","0.0-9.0-0.56","60ba2011cd8052508d401296","64afc2c9a8732ea92db0087d","64afd48c19fb837426da2a63","null","null","<p style=""font-size: 60px; font-family: BACS"">EhbtOBT</p>","","","","","","","",""
"html-keyboard-response","145","207534","0.0-9.0-0.57","60ba2011cd8052508d401296","64afc2c9a8732ea92db0087d","64afd48c19fb837426da2a63","null","null","<p style=""font-size: 60px; font-family: BACS"">rLkmYNu</p>","","","","","","","",""
"html-keyboard-response","146","208541","0.0-9.0-0.58","60ba2011cd8052508d401296","64afc2c9a8732ea92db0087d","64afd48c19fb837426da2a63","null","null","<p style=""font-size: 60px; font-family: BACS"">ckduArZYd</p>","","","","","","","",""
"html-keyboard-response","147","209545","0.0-9.0-0.59","60ba2011cd8052508d401296","64afc2c9a8732ea92db0087d","64afd48c19fb837426da2a63","null","null","<p style=""font-size: 60px; font-family: BACS"">JmvmOYNu</p>","","","","","","","",""
"html-keyboard-response","148","210558","0.0-9.0-0.60","60ba2011cd8052508d401296","64afc2c9a8732ea92db0087d","64afd48c19fb837426da2a63","null","null","<p style=""font-size: 60px; font-family: BACS"">UAcduYArG</p>","","","","","","","",""
"html-keyboard-response","149","211566","0.0-9.0-0.61","60ba2011cd8052508d401296","64afc2c9a8732ea92db0087d","64afd48c19fb837426da2a63","null","null","<p style=""font-size: 60px; font-family: BACS"">ABPRBdTAh</p>","","","","","","","",""
"html-keyboard-response","150","212569","0.0-9.0-0.62","60ba2011cd8052508d401296","64afc2c9a8732ea92db0087d","64afd48c19fb837426da2a63","null","null","<p style=""font-size: 60px; font-family: BACS"">PMPtkDOAK</p>","","","","","","","",""
"html-keyboard-response","151","213582","0.0-9.0-0.63","60ba2011cd8052508d401296","64afc2c9a8732ea92db0087d","64afd48c19fb837426da2a63","null","null","<p style=""font-size: 60px; font-family: BACS"">NaAQdYNu</p>","","","","","","","",""
"html-keyboard-response","152","214587","0.0-9.0-0.64","60ba2011cd8052508d401296","64afc2c9a8732ea92db0087d","64afd48c19fb837426da2a63","null","null","<p style=""font-size: 60px; font-family: BACS"">damYbkam</p>","","","","","","","",""
"html-keyboard-response","153","215598","0.0-9.0-0.65","60ba2011cd8052508d401296","64afc2c9a8732ea92db0087d","64afd48c19fb837426da2a63","null","null","<p style=""font-size: 60px; font-family: BACS"">DBklDOAK</p>","","","","","","","",""
"html-keyboard-response","154","216601","0.0-9.0-0.66","60ba2011cd8052508d401296","64afc2c9a8732ea92db0087d","64afd48c19fb837426da2a63","null","null","<p style=""font-size: 60px; font-family: BACS"">aUZAYArG</p>","","","","","","","",""
"html-keyboard-response","155","217610","0.0-9.0-0.67","60ba2011cd8052508d401296","64afc2c9a8732ea92db0087d","64afd48c19fb837426da2a63","null","null","<p style=""font-size: 60px; font-family: BACS"">ABPRBKmE</p>","","","","","","","",""
"html-keyboard-response","156","218617","0.0-9.0-0.68","60ba2011cd8052508d401296","64afc2c9a8732ea92db0087d","64afd48c19fb837426da2a63","null","null","<p style=""font-size: 60px; font-family: BACS"">damYbYNu</p>","","","","","","","",""
"html-keyboard-response","157","219625","0.0-9.0-0.69","60ba2011cd8052508d401296","64afc2c9a8732ea92db0087d","64afd48c19fb837426da2a63","null","null","<p style=""font-size: 60px; font-family: BACS"">rLkmrZYd</p>","","","","","","","",""
"html-keyboard-response","158","220638","0.0-9.0-0.70","60ba2011cd8052508d401296","64afc2c9a8732ea92db0087d","64afd48c19fb837426da2a63","null","null","<p style=""font-size: 60px; font-family: BACS"">BOckPOBT</p>","","","","","","","",""
"html-keyboard-response","159","221641","0.0-9.0-0.71","60ba2011cd8052508d401296","64afc2c9a8732ea92db0087d","64afd48c19fb837426da2a63","null","null","<p style=""font-size: 60px; font-family: BACS"">NaAQdYArG</p>","","","","","","","",""
"html-keyboard-response","160","222654","0.0-9.0-0.72","60ba2011cd8052508d401296","64afc2c9a8732ea92db0087d","64afd48c19fb837426da2a63","null","null","<p style=""font-size: 60px; font-family: BACS"">RCcEdTAh</p>","","","","","","","",""
"html-keyboard-response","161","223657","0.0-9.0-0.73","60ba2011cd8052508d401296","64afc2c9a8732ea92db0087d","64afd48c19fb837426da2a63","null","null","<p style=""font-size: 60px; font-family: BACS"">dvNvAJUNa</p>","","","","","","","",""
"html-keyboard-response","162","224670","0.0-9.0-0.74","60ba2011cd8052508d401296","64afc2c9a8732ea92db0087d","64afd48c19fb837426da2a63","null","null","<p style=""font-size: 60px; font-family: BACS"">EhbtdTAh</p>","","","","","","","",""
"html-keyboard-response","163","225679","0.0-9.0-0.75","60ba2011cd8052508d401296","64afc2c9a8732ea92db0087d","64afd48c19fb837426da2a63","null","null","<p style=""font-size: 60px; font-family: BACS"">ckduAJUNa</p>","","","","","","","",""
"html-keyboard-response","164","226684","0.0-9.0-0.76","60ba2011cd8052508d401296","64afc2c9a8732ea92db0087d","64afd48c19fb837426da2a63","null","null","<p style=""font-size: 60px; font-family: BACS"">DBklKmE</p>","","","","","","","",""
"html-keyboard-response","165","227690","0.0-9.0-0.77","60ba2011cd8052508d401296","64afc2c9a8732ea92db0087d","64afd48c19fb837426da2a63","null","null","<p style=""font-size: 60px; font-family: BACS"">JmvmOYArG</p>","","","","","","","",""
"html-keyboard-response","166","228702","0.0-9.0-0.78","60ba2011cd8052508d401296","64afc2c9a8732ea92db0087d","64afd48c19fb837426da2a63","null","null","<p style=""font-size: 60px; font-family: BACS"">lRckAdTAh</p>","","","","","","","",""
"html-keyboard-response","167","229705","0.0-9.0-0.79","60ba2011cd8052508d401296","64afc2c9a8732ea92db0087d","64afd48c19fb837426da2a63","null","null","<p style=""font-size: 60px; font-family: BACS"">vYLUYArG</p>","","","","","","","",""
"html-keyboard-response","168","256667","0.0-10.0","60ba2011cd8052508d401296","64afc2c9a8732ea92db0087d","64afd48c19fb837426da2a63","26962"," ","<p>Ottimo, hai visto il secondo blocco di parole. Ora puoi prenderti una piccola pausa.</p>
      <p>Premi la barra quando sei pronta/o per riprendere.</p>","","","","","","","",""
"html-keyboard-response","169","257675","0.0-11.0-0.0","60ba2011cd8052508d401296","64afc2c9a8732ea92db0087d","64afd48c19fb837426da2a63","null","null","<p style=""font-size: 60px; font-family: BACS"">NaAQdkam</p>","","","","","","","",""
"html-keyboard-response","170","258685","0.0-11.0-0.1","60ba2011cd8052508d401296","64afc2c9a8732ea92db0087d","64afd48c19fb837426da2a63","null","null","<p style=""font-size: 60px; font-family: BACS"">aUZAYArG</p>","","","","","","","",""
"html-keyboard-response","171","259689","0.0-11.0-0.2","60ba2011cd8052508d401296","64afc2c9a8732ea92db0087d","64afd48c19fb837426da2a63","null","null","<p style=""font-size: 60px; font-family: BACS"">AdDbTmTm</p>","","","","","","","",""
"html-keyboard-response","172","260697","0.0-11.0-0.3","60ba2011cd8052508d401296","64afc2c9a8732ea92db0087d","64afd48c19fb837426da2a63","null","null","<p style=""font-size: 60px; font-family: BACS"">NaAQdJUNa</p>","","","","","","","",""
"html-keyboard-response","173","261705","0.0-11.0-0.4","60ba2011cd8052508d401296","64afc2c9a8732ea92db0087d","64afd48c19fb837426da2a63","null","null","<p style=""font-size: 60px; font-family: BACS"">EhbtOBT</p>","","","","","","","",""
"html-keyboard-response","174","262713","0.0-11.0-0.5","60ba2011cd8052508d401296","64afc2c9a8732ea92db0087d","64afd48c19fb837426da2a63","null","null","<p style=""font-size: 60px; font-family: BACS"">DBklDOAK</p>","","","","","","","",""
"html-keyboard-response","175","263725","0.0-11.0-0.6","60ba2011cd8052508d401296","64afc2c9a8732ea92db0087d","64afd48c19fb837426da2a63","null","null","<p style=""font-size: 60px; font-family: BACS"">dvNvAJUNa</p>","","","","","","","",""
"html-keyboard-response","176","264730","0.0-11.0-0.7","60ba2011cd8052508d401296","64afc2c9a8732ea92db0087d","64afd48c19fb837426da2a63","null","null","<p style=""font-size: 60px; font-family: BACS"">JmvmOYArG</p>","","","","","","","",""
"html-keyboard-response","177","265738","0.0-11.0-0.8","60ba2011cd8052508d401296","64afc2c9a8732ea92db0087d","64afd48c19fb837426da2a63","null","null","<p style=""font-size: 60px; font-family: BACS"">lRckAOBT</p>","","","","","","","",""
"html-keyboard-response","178","266746","0.0-11.0-0.9","60ba2011cd8052508d401296","64afc2c9a8732ea92db0087d","64afd48c19fb837426da2a63","null","null","<p style=""font-size: 60px; font-family: BACS"">ABPRBdTAh</p>","","","","","","","",""
"html-keyboard-response","179","267753","0.0-11.0-0.10","60ba2011cd8052508d401296","64afc2c9a8732ea92db0087d","64afd48c19fb837426da2a63","null","null","<p style=""font-size: 60px; font-family: BACS"">BOckPTmTm</p>","","","","","","","",""
"html-keyboard-response","180","268761","0.0-11.0-0.11","60ba2011cd8052508d401296","64afc2c9a8732ea92db0087d","64afd48c19fb837426da2a63","null","null","<p style=""font-size: 60px; font-family: BACS"">EhbtKmE</p>","","","","","","","",""
"html-keyboard-response","181","269770","0.0-11.0-0.12","60ba2011cd8052508d401296","64afc2c9a8732ea92db0087d","64afd48c19fb837426da2a63","null","null","<p style=""font-size: 60px; font-family: BACS"">kCRmdTAh</p>","","","","","","","",""
"html-keyboard-response","182","270783","0.0-11.0-0.13","60ba2011cd8052508d401296","64afc2c9a8732ea92db0087d","64afd48c19fb837426da2a63","null","null","<p style=""font-size: 60px; font-family: BACS"">vYLUkam</p>","","","","","","","",""
"html-keyboard-response","183","271788","0.0-11.0-0.14","60ba2011cd8052508d401296","64afc2c9a8732ea92db0087d","64afd48c19fb837426da2a63","null","null","<p style=""font-size: 60px; font-family: BACS"">AdDbDOAK</p>","","","","","","","",""
"html-keyboard-response","184","272794","0.0-11.0-0.15","60ba2011cd8052508d401296","64afc2c9a8732ea92db0087d","64afd48c19fb837426da2a63","null","null","<p style=""font-size: 60px; font-family: BACS"">EhbtdTAh</p>","","","","","","","",""
"html-keyboard-response","185","273807","0.0-11.0-0.16","60ba2011cd8052508d401296","64afc2c9a8732ea92db0087d","64afd48c19fb837426da2a63","null","null","<p style=""font-size: 60px; font-family: BACS"">damYbYNu</p>","","","","","","","",""
"html-keyboard-response","186","274815","0.0-11.0-0.17","60ba2011cd8052508d401296","64afc2c9a8732ea92db0087d","64afd48c19fb837426da2a63","null","null","<p style=""font-size: 60px; font-family: BACS"">rLkmrZYd</p>","","","","","","","",""
"html-keyboard-response","187","275823","0.0-11.0-0.18","60ba2011cd8052508d401296","64afc2c9a8732ea92db0087d","64afd48c19fb837426da2a63","null","null","<p style=""font-size: 60px; font-family: BACS"">ckduAYNu</p>","","","","","","","",""
"html-keyboard-response","188","276825","0.0-11.0-0.19","60ba2011cd8052508d401296","64afc2c9a8732ea92db0087d","64afd48c19fb837426da2a63","null","null","<p style=""font-size: 60px; font-family: BACS"">JmvmOJUNa</p>","","","","","","","",""
"html-keyboard-response","189","277837","0.0-11.0-0.20","60ba2011cd8052508d401296","64afc2c9a8732ea92db0087d","64afd48c19fb837426da2a63","null","null","<p style=""font-size: 60px; font-family: BACS"">ABPRBDOAK</p>","","","","","","","",""
"html-keyboard-response","190","278847","0.0-11.0-0.21","60ba2011cd8052508d401296","64afc2c9a8732ea92db0087d","64afd48c19fb837426da2a63","null","null","<p style=""font-size: 60px; font-family: BACS"">rLkmYArG</p>","","","","","","","",""
"html-keyboard-response","191","279855","0.0-11.0-0.22","60ba2011cd8052508d401296","64afc2c9a8732ea92db0087d","64afd48c19fb837426da2a63","null","null","<p style=""font-size: 60px; font-family: BACS"">dvNvAYNu</p>","","","","","","","",""
"html-keyboard-response","192","280861","0.0-11.0-0.23","60ba2011cd8052508d401296","64afc2c9a8732ea92db0087d","64afd48c19fb837426da2a63","null","null","<p style=""font-size: 60px; font-family: BACS"">kCRmOBT</p>","","","","","","","",""
"html-keyboard-response","193","281871","0.0-11.0-0.24","60ba2011cd8052508d401296","64afc2c9a8732ea92db0087d","64afd48c19fb837426da2a63","null","null","<p style=""font-size: 60px; font-family: BACS"">lRckADOAK</p>","","","","","","","",""
"html-keyboard-response","194","282875","0.0-11.0-0.25","60ba2011cd8052508d401296","64afc2c9a8732ea92db0087d","64afd48c19fb837426da2a63","null","null","<p style=""font-size: 60px; font-family: BACS"">UAcduJUNa</p>","","","","","","","",""
"html-keyboard-response","195","283887","0.0-11.0-0.26","60ba2011cd8052508d401296","64afc2c9a8732ea92db0087d","64afd48c19fb837426da2a63","null","null","<p style=""font-size: 60px; font-family: BACS"">aUZAkam</p>","","","","","","","",""
"html-keyboard-response","196","284890","0.0-11.0-0.27","60ba2011cd8052508d401296","64afc2c9a8732ea92db0087d","64afd48c19fb837426da2a63","null","null","<p style=""font-size: 60px; font-family: BACS"">ckduArZYd</p>","","","","","","","",""
"html-keyboard-response","197","285903","0.0-11.0-0.28","60ba2011cd8052508d401296","64afc2c9a8732ea92db0087d","64afd48c19fb837426da2a63","null","null","<p style=""font-size: 60px; font-family: BACS"">BOckPDOAK</p>","","","","","","","",""
"html-keyboard-response","198","286911","0.0-11.0-0.29","60ba2011cd8052508d401296","64afc2c9a8732ea92db0087d","64afd48c19fb837426da2a63","null","null","<p style=""font-size: 60px; font-family: BACS"">damYbkam</p>","","","","","","","",""
"html-keyboard-response","199","287919","0.0-11.0-0.30","60ba2011cd8052508d401296","64afc2c9a8732ea92db0087d","64afd48c19fb837426da2a63","null","null","<p style=""font-size: 60px; font-family: BACS"">NaAQdYNu</p>","","","","","","","",""
"html-keyboard-response","200","288925","0.0-11.0-0.31","60ba2011cd8052508d401296","64afc2c9a8732ea92db0087d","64afd48c19fb837426da2a63","null","null","<p style=""font-size: 60px; font-family: BACS"">dvNvAkam</p>","","","","","","","",""
"html-keyboard-response","201","289930","0.0-11.0-0.32","60ba2011cd8052508d401296","64afc2c9a8732ea92db0087d","64afd48c19fb837426da2a63","null","null","<p style=""font-size: 60px; font-family: BACS"">vYLUrZYd</p>","","","","","","","",""
"html-keyboard-response","202","290943","0.0-11.0-0.33","60ba2011cd8052508d401296","64afc2c9a8732ea92db0087d","64afd48c19fb837426da2a63","null","null","<p style=""font-size: 60px; font-family: BACS"">hTtBbDOAK</p>","","","","","","","",""
"html-keyboard-response","203","291945","0.0-11.0-0.34","60ba2011cd8052508d401296","64afc2c9a8732ea92db0087d","64afd48c19fb837426da2a63","null","null","<p style=""font-size: 60px; font-family: BACS"">aUZArZYd</p>","","","","","","","",""
"html-keyboard-response","204","292954","0.0-11.0-0.35","60ba2011cd8052508d401296","64afc2c9a8732ea92db0087d","64afd48c19fb837426da2a63","null","null","<p style=""font-size: 60px; font-family: BACS"">DBklTmTm</p>","","","","","","","",""
"html-keyboard-response","205","293967","0.0-11.0-0.36","60ba2011cd8052508d401296","64afc2c9a8732ea92db0087d","64afd48c19fb837426da2a63","null","null","<p style=""font-size: 60px; font-family: BACS"">ckduAkam</p>","","","","","","","",""
"html-keyboard-response","206","294973","0.0-11.0-0.37","60ba2011cd8052508d401296","64afc2c9a8732ea92db0087d","64afd48c19fb837426da2a63","null","null","<p style=""font-size: 60px; font-family: BACS"">hTtBbdTAh</p>","","","","","","","",""
"html-keyboard-response","207","295983","0.0-11.0-0.38","60ba2011cd8052508d401296","64afc2c9a8732ea92db0087d","64afd48c19fb837426da2a63","null","null","<p style=""font-size: 60px; font-family: BACS"">kCRmDOAK</p>","","","","","","","",""
"html-keyboard-response","208","296987","0.0-11.0-0.39","60ba2011cd8052508d401296","64afc2c9a8732ea92db0087d","64afd48c19fb837426da2a63","null","null","<p style=""font-size: 60px; font-family: BACS"">PMPtkKmE</p>","","","","","","","",""
"html-keyboard-response","209","297999","0.0-11.0-0.40","60ba2011cd8052508d401296","64afc2c9a8732ea92db0087d","64afd48c19fb837426da2a63","null","null","<p style=""font-size: 60px; font-family: BACS"">JmvmOYNu</p>","","","","","","","",""
"html-keyboard-response","210","299002","0.0-11.0-0.41","60ba2011cd8052508d401296","64afc2c9a8732ea92db0087d","64afd48c19fb837426da2a63","null","null","<p style=""font-size: 60px; font-family: BACS"">vYLUYArG</p>","","","","","","","",""
"html-keyboard-response","211","300015","0.0-11.0-0.42","60ba2011cd8052508d401296","64afc2c9a8732ea92db0087d","64afd48c19fb837426da2a63","null","null","<p style=""font-size: 60px; font-family: BACS"">kNuarZYd</p>","","","","","","","",""
"html-keyboard-response","212","301018","0.0-11.0-0.43","60ba2011cd8052508d401296","64afc2c9a8732ea92db0087d","64afd48c19fb837426da2a63","null","null","<p style=""font-size: 60px; font-family: BACS"">AdDbKmE</p>","","","","","","","",""
"html-keyboard-response","213","302031","0.0-11.0-0.44","60ba2011cd8052508d401296","64afc2c9a8732ea92db0087d","64afd48c19fb837426da2a63","null","null","<p style=""font-size: 60px; font-family: BACS"">damYbJUNa</p>","","","","","","","",""
"html-keyboard-response","214","303037","0.0-11.0-0.45","60ba2011cd8052508d401296","64afc2c9a8732ea92db0087d","64afd48c19fb837426da2a63","null","null","<p style=""font-size: 60px; font-family: BACS"">hTtBbOBT</p>","","","","","","","",""
"html-keyboard-response","215","304047","0.0-11.0-0.46","60ba2011cd8052508d401296","64afc2c9a8732ea92db0087d","64afd48c19fb837426da2a63","null","null","<p style=""font-size: 60px; font-family: BACS"">PMPtkdTAh</p>","","","","","","","",""
"html-keyboard-response","216","305055","0.0-11.0-0.47","60ba2011cd8052508d401296","64afc2c9a8732ea92db0087d","64afd48c19fb837426da2a63","null","null","<p style=""font-size: 60px; font-family: BACS"">UAcdurZYd</p>","","","","","","","",""
"html-keyboard-response","217","306063","0.0-11.0-0.48","60ba2011cd8052508d401296","64afc2c9a8732ea92db0087d","64afd48c19fb837426da2a63","null","null","<p style=""font-size: 60px; font-family: BACS"">hTtBbKmE</p>","","","","","","","",""
"html-keyboard-response","218","307071","0.0-11.0-0.49","60ba2011cd8052508d401296","64afc2c9a8732ea92db0087d","64afd48c19fb837426da2a63","null","null","<p style=""font-size: 60px; font-family: BACS"">ckduAJUNa</p>","","","","","","","",""
"html-keyboard-response","219","308076","0.0-11.0-0.50","60ba2011cd8052508d401296","64afc2c9a8732ea92db0087d","64afd48c19fb837426da2a63","null","null","<p style=""font-size: 60px; font-family: BACS"">kNuaYArG</p>","","","","","","","",""
"html-keyboard-response","220","309087","0.0-11.0-0.51","60ba2011cd8052508d401296","64afc2c9a8732ea92db0087d","64afd48c19fb837426da2a63","null","null","<p style=""font-size: 60px; font-family: BACS"">vYLUYNu</p>","","","","","","","",""
"html-keyboard-response","221","310095","0.0-11.0-0.52","60ba2011cd8052508d401296","64afc2c9a8732ea92db0087d","64afd48c19fb837426da2a63","null","null","<p style=""font-size: 60px; font-family: BACS"">BOckPOBT</p>","","","","","","","",""
"html-keyboard-response","222","311103","0.0-11.0-0.53","60ba2011cd8052508d401296","64afc2c9a8732ea92db0087d","64afd48c19fb837426da2a63","null","null","<p style=""font-size: 60px; font-family: BACS"">kNuaYNu</p>","","","","","","","",""
"html-keyboard-response","223","312111","0.0-11.0-0.54","60ba2011cd8052508d401296","64afc2c9a8732ea92db0087d","64afd48c19fb837426da2a63","null","null","<p style=""font-size: 60px; font-family: BACS"">JmvmOrZYd</p>","","","","","","","",""
"html-keyboard-response","224","313120","0.0-11.0-0.55","60ba2011cd8052508d401296","64afc2c9a8732ea92db0087d","64afd48c19fb837426da2a63","null","null","<p style=""font-size: 60px; font-family: BACS"">ABPRBKmE</p>","","","","","","","",""
"html-keyboard-response","225","314126","0.0-11.0-0.56","60ba2011cd8052508d401296","64afc2c9a8732ea92db0087d","64afd48c19fb837426da2a63","null","null","<p style=""font-size: 60px; font-family: BACS"">NaAQdYArG</p>","","","","","","","",""
"html-keyboard-response","226","315135","0.0-11.0-0.57","60ba2011cd8052508d401296","64afc2c9a8732ea92db0087d","64afd48c19fb837426da2a63","null","null","<p style=""font-size: 60px; font-family: BACS"">rLkmkam</p>","","","","","","","",""
"html-keyboard-response","227","316139","0.0-11.0-0.58","60ba2011cd8052508d401296","64afc2c9a8732ea92db0087d","64afd48c19fb837426da2a63","null","null","<p style=""font-size: 60px; font-family: BACS"">PMPtkOBT</p>","","","","","","","",""
"html-keyboard-response","228","317146","0.0-11.0-0.59","60ba2011cd8052508d401296","64afc2c9a8732ea92db0087d","64afd48c19fb837426da2a63","null","null","<p style=""font-size: 60px; font-family: BACS"">AdDbdTAh</p>","","","","","","","",""
"html-keyboard-response","229","318159","0.0-11.0-0.60","60ba2011cd8052508d401296","64afc2c9a8732ea92db0087d","64afd48c19fb837426da2a63","null","null","<p style=""font-size: 60px; font-family: BACS"">RCcEKmE</p>","","","","","","","",""
"html-keyboard-response","230","319167","0.0-11.0-0.61","60ba2011cd8052508d401296","64afc2c9a8732ea92db0087d","64afd48c19fb837426da2a63","null","null","<p style=""font-size: 60px; font-family: BACS"">aUZAJUNa</p>","","","","","","","",""
"html-keyboard-response","231","320176","0.0-11.0-0.62","60ba2011cd8052508d401296","64afc2c9a8732ea92db0087d","64afd48c19fb837426da2a63","null","null","<p style=""font-size: 60px; font-family: BACS"">RCcEOBT</p>","","","","","","","",""
"html-keyboard-response","232","321178","0.0-11.0-0.63","60ba2011cd8052508d401296","64afc2c9a8732ea92db0087d","64afd48c19fb837426da2a63","null","null","<p style=""font-size: 60px; font-family: BACS"">EhbtTmTm</p>","","","","","","","",""
"html-keyboard-response","233","322188","0.0-11.0-0.64","60ba2011cd8052508d401296","64afc2c9a8732ea92db0087d","64afd48c19fb837426da2a63","null","null","<p style=""font-size: 60px; font-family: BACS"">DBklOBT</p>","","","","","","","",""
"html-keyboard-response","234","323200","0.0-11.0-0.65","60ba2011cd8052508d401296","64afc2c9a8732ea92db0087d","64afd48c19fb837426da2a63","null","null","<p style=""font-size: 60px; font-family: BACS"">lRckAdTAh</p>","","","","","","","",""
"html-keyboard-response","235","324207","0.0-11.0-0.66","60ba2011cd8052508d401296","64afc2c9a8732ea92db0087d","64afd48c19fb837426da2a63","null","null","<p style=""font-size: 60px; font-family: BACS"">ABPRBTmTm</p>","","","","","","","",""
"html-keyboard-response","236","325215","0.0-11.0-0.67","60ba2011cd8052508d401296","64afc2c9a8732ea92db0087d","64afd48c19fb837426da2a63","null","null","<p style=""font-size: 60px; font-family: BACS"">PMPtkDOAK</p>","","","","","","","",""
"html-keyboard-response","237","326224","0.0-11.0-0.68","60ba2011cd8052508d401296","64afc2c9a8732ea92db0087d","64afd48c19fb837426da2a63","null","null","<p style=""font-size: 60px; font-family: BACS"">rLkmYNu</p>","","","","","","","",""
"html-keyboard-response","238","327226","0.0-11.0-0.69","60ba2011cd8052508d401296","64afc2c9a8732ea92db0087d","64afd48c19fb837426da2a63","null","null","<p style=""font-size: 60px; font-family: BACS"">DBklKmE</p>","","","","","","","",""
"html-keyboard-response","239","328236","0.0-11.0-0.70","60ba2011cd8052508d401296","64afc2c9a8732ea92db0087d","64afd48c19fb837426da2a63","null","null","<p style=""font-size: 60px; font-family: BACS"">lRckATmTm</p>","","","","","","","",""
"html-keyboard-response","240","329242","0.0-11.0-0.71","60ba2011cd8052508d401296","64afc2c9a8732ea92db0087d","64afd48c19fb837426da2a63","null","null","<p style=""font-size: 60px; font-family: BACS"">damYbYArG</p>","","","","","","","",""
"html-keyboard-response","241","330250","0.0-11.0-0.72","60ba2011cd8052508d401296","64afc2c9a8732ea92db0087d","64afd48c19fb837426da2a63","null","null","<p style=""font-size: 60px; font-family: BACS"">dvNvArZYd</p>","","","","","","","",""
"html-keyboard-response","242","331263","0.0-11.0-0.73","60ba2011cd8052508d401296","64afc2c9a8732ea92db0087d","64afd48c19fb837426da2a63","null","null","<p style=""font-size: 60px; font-family: BACS"">kNuaJUNa</p>","","","","","","","",""
"html-keyboard-response","243","332266","0.0-11.0-0.74","60ba2011cd8052508d401296","64afc2c9a8732ea92db0087d","64afd48c19fb837426da2a63","null","null","<p style=""font-size: 60px; font-family: BACS"">RCcEdTAh</p>","","","","","","","",""
"html-keyboard-response","244","333276","0.0-11.0-0.75","60ba2011cd8052508d401296","64afc2c9a8732ea92db0087d","64afd48c19fb837426da2a63","null","null","<p style=""font-size: 60px; font-family: BACS"">BOckPKmE</p>","","","","","","","",""
"html-keyboard-response","245","334286","0.0-11.0-0.76","60ba2011cd8052508d401296","64afc2c9a8732ea92db0087d","64afd48c19fb837426da2a63","null","null","<p style=""font-size: 60px; font-family: BACS"">RCcETmTm</p>","","","","","","","",""
"html-keyboard-response","246","335290","0.0-11.0-0.77","60ba2011cd8052508d401296","64afc2c9a8732ea92db0087d","64afd48c19fb837426da2a63","null","null","<p style=""font-size: 60px; font-family: BACS"">UAcduYArG</p>","","","","","","","",""
"html-keyboard-response","247","336298","0.0-11.0-0.78","60ba2011cd8052508d401296","64afc2c9a8732ea92db0087d","64afd48c19fb837426da2a63","null","null","<p style=""font-size: 60px; font-family: BACS"">kCRmTmTm</p>","","","","","","","",""
"html-keyboard-response","248","337306","0.0-11.0-0.79","60ba2011cd8052508d401296","64afc2c9a8732ea92db0087d","64afd48c19fb837426da2a63","null","null","<p style=""font-size: 60px; font-family: BACS"">UAcdukam</p>","","","","","","","",""
"html-keyboard-response","249","349413","0.0-12.0","60ba2011cd8052508d401296","64afc2c9a8732ea92db0087d","64afd48c19fb837426da2a63","12106"," ","<p>Ottimo, hai visto il terzo blocco di parole. Ora puoi prenderti una piccola pausa.</p>
      <p>Premi la barra quando sei pronta/o per riprendere.</p>","","","","","","","",""
"html-keyboard-response","250","350416","0.0-13.0-0.0","60ba2011cd8052508d401296","64afc2c9a8732ea92db0087d","64afd48c19fb837426da2a63","null","null","<p style=""font-size: 60px; font-family: BACS"">rLkmkam</p>","","","","","","","",""
"html-keyboard-response","251","351418","0.0-13.0-0.1","60ba2011cd8052508d401296","64afc2c9a8732ea92db0087d","64afd48c19fb837426da2a63","null","null","<p style=""font-size: 60px; font-family: BACS"">kCRmOBT</p>","","","","","","","",""
"html-keyboard-response","252","352426","0.0-13.0-0.2","60ba2011cd8052508d401296","64afc2c9a8732ea92db0087d","64afd48c19fb837426da2a63","null","null","<p style=""font-size: 60px; font-family: BACS"">EhbtTmTm</p>","","","","","","","",""
"html-keyboard-response","253","353437","0.0-13.0-0.3","60ba2011cd8052508d401296","64afc2c9a8732ea92db0087d","64afd48c19fb837426da2a63","null","null","<p style=""font-size: 60px; font-family: BACS"">DBklKmE</p>","","","","","","","",""
"html-keyboard-response","254","354442","0.0-13.0-0.4","60ba2011cd8052508d401296","64afc2c9a8732ea92db0087d","64afd48c19fb837426da2a63","null","null","<p style=""font-size: 60px; font-family: BACS"">kNuaYArG</p>","","","","","","","",""
"html-keyboard-response","255","355452","0.0-13.0-0.5","60ba2011cd8052508d401296","64afc2c9a8732ea92db0087d","64afd48c19fb837426da2a63","null","null","<p style=""font-size: 60px; font-family: BACS"">dvNvAYNu</p>","","","","","","","",""
"html-keyboard-response","256","356463","0.0-13.0-0.6","60ba2011cd8052508d401296","64afc2c9a8732ea92db0087d","64afd48c19fb837426da2a63","null","null","<p style=""font-size: 60px; font-family: BACS"">EhbtOBT</p>","","","","","","","",""
"html-keyboard-response","257","357466","0.0-13.0-0.7","60ba2011cd8052508d401296","64afc2c9a8732ea92db0087d","64afd48c19fb837426da2a63","null","null","<p style=""font-size: 60px; font-family: BACS"">UAcdukam</p>","","","","","","","",""
"html-keyboard-response","258","358476","0.0-13.0-0.8","60ba2011cd8052508d401296","64afc2c9a8732ea92db0087d","64afd48c19fb837426da2a63","null","null","<p style=""font-size: 60px; font-family: BACS"">ckduAJUNa</p>","","","","","","","",""
"html-keyboard-response","259","359487","0.0-13.0-0.9","60ba2011cd8052508d401296","64afc2c9a8732ea92db0087d","64afd48c19fb837426da2a63","null","null","<p style=""font-size: 60px; font-family: BACS"">rLkmrZYd</p>","","","","","","","",""
"html-keyboard-response","260","360490","0.0-13.0-0.10","60ba2011cd8052508d401296","64afc2c9a8732ea92db0087d","64afd48c19fb837426da2a63","null","null","<p style=""font-size: 60px; font-family: BACS"">vYLUkam</p>","","","","","","","",""
"html-keyboard-response","261","361503","0.0-13.0-0.11","60ba2011cd8052508d401296","64afc2c9a8732ea92db0087d","64afd48c19fb837426da2a63","null","null","<p style=""font-size: 60px; font-family: BACS"">ABPRBdTAh</p>","","","","","","","",""
"html-keyboard-response","262","362506","0.0-13.0-0.12","60ba2011cd8052508d401296","64afc2c9a8732ea92db0087d","64afd48c19fb837426da2a63","null","null","<p style=""font-size: 60px; font-family: BACS"">PMPtkKmE</p>","","","","","","","",""
"html-keyboard-response","263","363519","0.0-13.0-0.13","60ba2011cd8052508d401296","64afc2c9a8732ea92db0087d","64afd48c19fb837426da2a63","null","null","<p style=""font-size: 60px; font-family: BACS"">damYbYNu</p>","","","","","","","",""
"html-keyboard-response","264","364527","0.0-13.0-0.14","60ba2011cd8052508d401296","64afc2c9a8732ea92db0087d","64afd48c19fb837426da2a63","null","null","<p style=""font-size: 60px; font-family: BACS"">AdDbKmE</p>","","","","","","","",""
"html-keyboard-response","265","365530","0.0-13.0-0.15","60ba2011cd8052508d401296","64afc2c9a8732ea92db0087d","64afd48c19fb837426da2a63","null","null","<p style=""font-size: 60px; font-family: BACS"">rLkmYArG</p>","","","","","","","",""
"html-keyboard-response","266","366539","0.0-13.0-0.16","60ba2011cd8052508d401296","64afc2c9a8732ea92db0087d","64afd48c19fb837426da2a63","null","null","<p style=""font-size: 60px; font-family: BACS"">dvNvAkam</p>","","","","","","","",""
"html-keyboard-response","267","367551","0.0-13.0-0.17","60ba2011cd8052508d401296","64afc2c9a8732ea92db0087d","64afd48c19fb837426da2a63","null","null","<p style=""font-size: 60px; font-family: BACS"">lRckAOBT</p>","","","","","","","",""
"html-keyboard-response","268","368560","0.0-13.0-0.18","60ba2011cd8052508d401296","64afc2c9a8732ea92db0087d","64afd48c19fb837426da2a63","null","null","<p style=""font-size: 60px; font-family: BACS"">PMPtkDOAK</p>","","","","","","","",""
"html-keyboard-response","269","369563","0.0-13.0-0.19","60ba2011cd8052508d401296","64afc2c9a8732ea92db0087d","64afd48c19fb837426da2a63","null","null","<p style=""font-size: 60px; font-family: BACS"">NaAQdYNu</p>","","","","","","","",""
"html-keyboard-response","270","370576","0.0-13.0-0.20","60ba2011cd8052508d401296","64afc2c9a8732ea92db0087d","64afd48c19fb837426da2a63","null","null","<p style=""font-size: 60px; font-family: BACS"">aUZAYArG</p>","","","","","","","",""
"html-keyboard-response","271","371579","0.0-13.0-0.21","60ba2011cd8052508d401296","64afc2c9a8732ea92db0087d","64afd48c19fb837426da2a63","null","null","<p style=""font-size: 60px; font-family: BACS"">dvNvAJUNa</p>","","","","","","","",""
"html-keyboard-response","272","372587","0.0-13.0-0.22","60ba2011cd8052508d401296","64afc2c9a8732ea92db0087d","64afd48c19fb837426da2a63","null","null","<p style=""font-size: 60px; font-family: BACS"">kCRmTmTm</p>","","","","","","","",""
"html-keyboard-response","273","373597","0.0-13.0-0.23","60ba2011cd8052508d401296","64afc2c9a8732ea92db0087d","64afd48c19fb837426da2a63","null","null","<p style=""font-size: 60px; font-family: BACS"">UAcdurZYd</p>","","","","","","","",""
"html-keyboard-response","274","374608","0.0-13.0-0.24","60ba2011cd8052508d401296","64afc2c9a8732ea92db0087d","64afd48c19fb837426da2a63","null","null","<p style=""font-size: 60px; font-family: BACS"">ABPRBKmE</p>","","","","","","","",""
"html-keyboard-response","275","375612","0.0-13.0-0.25","60ba2011cd8052508d401296","64afc2c9a8732ea92db0087d","64afd48c19fb837426da2a63","null","null","<p style=""font-size: 60px; font-family: BACS"">PMPtkdTAh</p>","","","","","","","",""
"html-keyboard-response","276","376624","0.0-13.0-0.26","60ba2011cd8052508d401296","64afc2c9a8732ea92db0087d","64afd48c19fb837426da2a63","null","null","<p style=""font-size: 60px; font-family: BACS"">NaAQdYArG</p>","","","","","","","",""
"html-keyboard-response","277","377626","0.0-13.0-0.27","60ba2011cd8052508d401296","64afc2c9a8732ea92db0087d","64afd48c19fb837426da2a63","null","null","<p style=""font-size: 60px; font-family: BACS"">kCRmdTAh</p>","","","","","","","",""
"html-keyboard-response","278","378637","0.0-13.0-0.28","60ba2011cd8052508d401296","64afc2c9a8732ea92db0087d","64afd48c19fb837426da2a63","null","null","<p style=""font-size: 60px; font-family: BACS"">ABPRBTmTm</p>","","","","","","","",""
"html-keyboard-response","279","379643","0.0-13.0-0.29","60ba2011cd8052508d401296","64afc2c9a8732ea92db0087d","64afd48c19fb837426da2a63","null","null","<p style=""font-size: 60px; font-family: BACS"">NaAQdJUNa</p>","","","","","","","",""
"html-keyboard-response","280","380655","0.0-13.0-0.30","60ba2011cd8052508d401296","64afc2c9a8732ea92db0087d","64afd48c19fb837426da2a63","null","null","<p style=""font-size: 60px; font-family: BACS"">kCRmDOAK</p>","","","","","","","",""
"html-keyboard-response","281","381658","0.0-13.0-0.31","60ba2011cd8052508d401296","64afc2c9a8732ea92db0087d","64afd48c19fb837426da2a63","null","null","<p style=""font-size: 60px; font-family: BACS"">BOckPOBT</p>","","","","","","","",""
"html-keyboard-response","282","382672","0.0-13.0-0.32","60ba2011cd8052508d401296","64afc2c9a8732ea92db0087d","64afd48c19fb837426da2a63","null","null","<p style=""font-size: 60px; font-family: BACS"">hTtBbKmE</p>","","","","","","","",""
"html-keyboard-response","283","383676","0.0-13.0-0.33","60ba2011cd8052508d401296","64afc2c9a8732ea92db0087d","64afd48c19fb837426da2a63","null","null","<p style=""font-size: 60px; font-family: BACS"">ckduAYNu</p>","","","","","","","",""
"html-keyboard-response","284","384687","0.0-13.0-0.34","60ba2011cd8052508d401296","64afc2c9a8732ea92db0087d","64afd48c19fb837426da2a63","null","null","<p style=""font-size: 60px; font-family: BACS"">JmvmOJUNa</p>","","","","","","","",""
"html-keyboard-response","285","385695","0.0-13.0-0.35","60ba2011cd8052508d401296","64afc2c9a8732ea92db0087d","64afd48c19fb837426da2a63","null","null","<p style=""font-size: 60px; font-family: BACS"">AdDbdTAh</p>","","","","","","","",""
"html-keyboard-response","286","386701","0.0-13.0-0.36","60ba2011cd8052508d401296","64afc2c9a8732ea92db0087d","64afd48c19fb837426da2a63","null","null","<p style=""font-size: 60px; font-family: BACS"">vYLUYArG</p>","","","","","","","",""
"html-keyboard-response","287","387711","0.0-13.0-0.37","60ba2011cd8052508d401296","64afc2c9a8732ea92db0087d","64afd48c19fb837426da2a63","null","null","<p style=""font-size: 60px; font-family: BACS"">RCcEKmE</p>","","","","","","","",""
"html-keyboard-response","288","388717","0.0-13.0-0.38","60ba2011cd8052508d401296","64afc2c9a8732ea92db0087d","64afd48c19fb837426da2a63","null","null","<p style=""font-size: 60px; font-family: BACS"">lRckAdTAh</p>","","","","","","","",""
"html-keyboard-response","289","389726","0.0-13.0-0.39","60ba2011cd8052508d401296","64afc2c9a8732ea92db0087d","64afd48c19fb837426da2a63","null","null","<p style=""font-size: 60px; font-family: BACS"">RCcEOBT</p>","","","","","","","",""
"html-keyboard-response","290","390736","0.0-13.0-0.40","60ba2011cd8052508d401296","64afc2c9a8732ea92db0087d","64afd48c19fb837426da2a63","null","null","<p style=""font-size: 60px; font-family: BACS"">kNuaJUNa</p>","","","","","","","",""
"html-keyboard-response","291","391739","0.0-13.0-0.41","60ba2011cd8052508d401296","64afc2c9a8732ea92db0087d","64afd48c19fb837426da2a63","null","null","<p style=""font-size: 60px; font-family: BACS"">aUZAkam</p>","","","","","","","",""
"html-keyboard-response","292","392747","0.0-13.0-0.42","60ba2011cd8052508d401296","64afc2c9a8732ea92db0087d","64afd48c19fb837426da2a63","null","null","<p style=""font-size: 60px; font-family: BACS"">lRckATmTm</p>","","","","","","","",""
"html-keyboard-response","293","393759","0.0-13.0-0.43","60ba2011cd8052508d401296","64afc2c9a8732ea92db0087d","64afd48c19fb837426da2a63","null","null","<p style=""font-size: 60px; font-family: BACS"">damYbJUNa</p>","","","","","","","",""
"html-keyboard-response","294","394768","0.0-13.0-0.44","60ba2011cd8052508d401296","64afc2c9a8732ea92db0087d","64afd48c19fb837426da2a63","null","null","<p style=""font-size: 60px; font-family: BACS"">AdDbDOAK</p>","","","","","","","",""
"html-keyboard-response","295","395771","0.0-13.0-0.45","60ba2011cd8052508d401296","64afc2c9a8732ea92db0087d","64afd48c19fb837426da2a63","null","null","<p style=""font-size: 60px; font-family: BACS"">rLkmYNu</p>","","","","","","","",""
"html-keyboard-response","296","396778","0.0-13.0-0.46","60ba2011cd8052508d401296","64afc2c9a8732ea92db0087d","64afd48c19fb837426da2a63","null","null","<p style=""font-size: 60px; font-family: BACS"">vYLUrZYd</p>","","","","","","","",""
"html-keyboard-response","297","397787","0.0-13.0-0.47","60ba2011cd8052508d401296","64afc2c9a8732ea92db0087d","64afd48c19fb837426da2a63","null","null","<p style=""font-size: 60px; font-family: BACS"">lRckADOAK</p>","","","","","","","",""
"html-keyboard-response","298","398800","0.0-13.0-0.48","60ba2011cd8052508d401296","64afc2c9a8732ea92db0087d","64afd48c19fb837426da2a63","null","null","<p style=""font-size: 60px; font-family: BACS"">EhbtdTAh</p>","","","","","","","",""
"html-keyboard-response","299","399803","0.0-13.0-0.49","60ba2011cd8052508d401296","64afc2c9a8732ea92db0087d","64afd48c19fb837426da2a63","null","null","<p style=""font-size: 60px; font-family: BACS"">UAcduJUNa</p>","","","","","","","",""
"html-keyboard-response","300","400816","0.0-13.0-0.50","60ba2011cd8052508d401296","64afc2c9a8732ea92db0087d","64afd48c19fb837426da2a63","null","null","<p style=""font-size: 60px; font-family: BACS"">RCcEdTAh</p>","","","","","","","",""
"html-keyboard-response","301","401824","0.0-13.0-0.51","60ba2011cd8052508d401296","64afc2c9a8732ea92db0087d","64afd48c19fb837426da2a63","null","null","<p style=""font-size: 60px; font-family: BACS"">damYbYArG</p>","","","","","","","",""
"html-keyboard-response","302","402832","0.0-13.0-0.52","60ba2011cd8052508d401296","64afc2c9a8732ea92db0087d","64afd48c19fb837426da2a63","null","null","<p style=""font-size: 60px; font-family: BACS"">kNuarZYd</p>","","","","","","","",""
"html-keyboard-response","303","403835","0.0-13.0-0.53","60ba2011cd8052508d401296","64afc2c9a8732ea92db0087d","64afd48c19fb837426da2a63","null","null","<p style=""font-size: 60px; font-family: BACS"">AdDbTmTm</p>","","","","","","","",""
"html-keyboard-response","304","404848","0.0-13.0-0.54","60ba2011cd8052508d401296","64afc2c9a8732ea92db0087d","64afd48c19fb837426da2a63","null","null","<p style=""font-size: 60px; font-family: BACS"">aUZArZYd</p>","","","","","","","",""
"html-keyboard-response","305","405851","0.0-13.0-0.55","60ba2011cd8052508d401296","64afc2c9a8732ea92db0087d","64afd48c19fb837426da2a63","null","null","<p style=""font-size: 60px; font-family: BACS"">NaAQdkam</p>","","","","","","","",""
"html-keyboard-response","306","406864","0.0-13.0-0.56","60ba2011cd8052508d401296","64afc2c9a8732ea92db0087d","64afd48c19fb837426da2a63","null","null","<p style=""font-size: 60px; font-family: BACS"">UAcduYArG</p>","","","","","","","",""
"html-keyboard-response","307","407867","0.0-13.0-0.57","60ba2011cd8052508d401296","64afc2c9a8732ea92db0087d","64afd48c19fb837426da2a63","null","null","<p style=""font-size: 60px; font-family: BACS"">BOckPTmTm</p>","","","","","","","",""
"html-keyboard-response","308","408877","0.0-13.0-0.58","60ba2011cd8052508d401296","64afc2c9a8732ea92db0087d","64afd48c19fb837426da2a63","null","null","<p style=""font-size: 60px; font-family: BACS"">kNuaYNu</p>","","","","","","","",""
"html-keyboard-response","309","409888","0.0-13.0-0.59","60ba2011cd8052508d401296","64afc2c9a8732ea92db0087d","64afd48c19fb837426da2a63","null","null","<p style=""font-size: 60px; font-family: BACS"">ckduAkam</p>","","","","","","","",""
"html-keyboard-response","310","410892","0.0-13.0-0.60","60ba2011cd8052508d401296","64afc2c9a8732ea92db0087d","64afd48c19fb837426da2a63","null","null","<p style=""font-size: 60px; font-family: BACS"">JmvmOYArG</p>","","","","","","","",""
"html-keyboard-response","311","411904","0.0-13.0-0.61","60ba2011cd8052508d401296","64afc2c9a8732ea92db0087d","64afd48c19fb837426da2a63","null","null","<p style=""font-size: 60px; font-family: BACS"">BOckPDOAK</p>","","","","","","","",""
"html-keyboard-response","312","412912","0.0-13.0-0.62","60ba2011cd8052508d401296","64afc2c9a8732ea92db0087d","64afd48c19fb837426da2a63","null","null","<p style=""font-size: 60px; font-family: BACS"">DBklOBT</p>","","","","","","","",""
"html-keyboard-response","313","413915","0.0-13.0-0.63","60ba2011cd8052508d401296","64afc2c9a8732ea92db0087d","64afd48c19fb837426da2a63","null","null","<p style=""font-size: 60px; font-family: BACS"">damYbkam</p>","","","","","","","",""
"html-keyboard-response","314","414928","0.0-13.0-0.64","60ba2011cd8052508d401296","64afc2c9a8732ea92db0087d","64afd48c19fb837426da2a63","null","null","<p style=""font-size: 60px; font-family: BACS"">EhbtKmE</p>","","","","","","","",""
"html-keyboard-response","315","415931","0.0-13.0-0.65","60ba2011cd8052508d401296","64afc2c9a8732ea92db0087d","64afd48c19fb837426da2a63","null","null","<p style=""font-size: 60px; font-family: BACS"">aUZAJUNa</p>","","","","","","","",""
"html-keyboard-response","316","416944","0.0-13.0-0.66","60ba2011cd8052508d401296","64afc2c9a8732ea92db0087d","64afd48c19fb837426da2a63","null","null","<p style=""font-size: 60px; font-family: BACS"">DBklDOAK</p>","","","","","","","",""
"html-keyboard-response","317","417947","0.0-13.0-0.67","60ba2011cd8052508d401296","64afc2c9a8732ea92db0087d","64afd48c19fb837426da2a63","null","null","<p style=""font-size: 60px; font-family: BACS"">JmvmOrZYd</p>","","","","","","","",""
"html-keyboard-response","318","418956","0.0-13.0-0.68","60ba2011cd8052508d401296","64afc2c9a8732ea92db0087d","64afd48c19fb837426da2a63","null","null","<p style=""font-size: 60px; font-family: BACS"">BOckPKmE</p>","","","","","","","",""
"html-keyboard-response","319","419967","0.0-13.0-0.69","60ba2011cd8052508d401296","64afc2c9a8732ea92db0087d","64afd48c19fb837426da2a63","null","null","<p style=""font-size: 60px; font-family: BACS"">hTtBbDOAK</p>","","","","","","","",""
"html-keyboard-response","320","420976","0.0-13.0-0.70","60ba2011cd8052508d401296","64afc2c9a8732ea92db0087d","64afd48c19fb837426da2a63","null","null","<p style=""font-size: 60px; font-family: BACS"">ckduArZYd</p>","","","","","","","",""
"html-keyboard-response","321","421979","0.0-13.0-0.71","60ba2011cd8052508d401296","64afc2c9a8732ea92db0087d","64afd48c19fb837426da2a63","null","null","<p style=""font-size: 60px; font-family: BACS"">DBklTmTm</p>","","","","","","","",""
"html-keyboard-response","322","422987","0.0-13.0-0.72","60ba2011cd8052508d401296","64afc2c9a8732ea92db0087d","64afd48c19fb837426da2a63","null","null","<p style=""font-size: 60px; font-family: BACS"">dvNvArZYd</p>","","","","","","","",""
"html-keyboard-response","323","424000","0.0-13.0-0.73","60ba2011cd8052508d401296","64afc2c9a8732ea92db0087d","64afd48c19fb837426da2a63","null","null","<p style=""font-size: 60px; font-family: BACS"">ABPRBDOAK</p>","","","","","","","",""
"html-keyboard-response","324","425003","0.0-13.0-0.74","60ba2011cd8052508d401296","64afc2c9a8732ea92db0087d","64afd48c19fb837426da2a63","null","null","<p style=""font-size: 60px; font-family: BACS"">PMPtkOBT</p>","","","","","","","",""
"html-keyboard-response","325","426016","0.0-13.0-0.75","60ba2011cd8052508d401296","64afc2c9a8732ea92db0087d","64afd48c19fb837426da2a63","null","null","<p style=""font-size: 60px; font-family: BACS"">hTtBbdTAh</p>","","","","","","","",""
"html-keyboard-response","326","427021","0.0-13.0-0.76","60ba2011cd8052508d401296","64afc2c9a8732ea92db0087d","64afd48c19fb837426da2a63","null","null","<p style=""font-size: 60px; font-family: BACS"">JmvmOYNu</p>","","","","","","","",""
"html-keyboard-response","327","428032","0.0-13.0-0.77","60ba2011cd8052508d401296","64afc2c9a8732ea92db0087d","64afd48c19fb837426da2a63","null","null","<p style=""font-size: 60px; font-family: BACS"">RCcETmTm</p>","","","","","","","",""
"html-keyboard-response","328","429037","0.0-13.0-0.78","60ba2011cd8052508d401296","64afc2c9a8732ea92db0087d","64afd48c19fb837426da2a63","null","null","<p style=""font-size: 60px; font-family: BACS"">hTtBbOBT</p>","","","","","","","",""
"html-keyboard-response","329","430048","0.0-13.0-0.79","60ba2011cd8052508d401296","64afc2c9a8732ea92db0087d","64afd48c19fb837426da2a63","null","null","<p style=""font-size: 60px; font-family: BACS"">vYLUYNu</p>","","","","","","","",""
"html-keyboard-response","330","434510","0.0-14.0","60ba2011cd8052508d401296","64afc2c9a8732ea92db0087d","64afd48c19fb837426da2a63","4461"," ","<p>Ottimo! Hai visto tutte le parole che abbiamo ricevuto dallo spazio.</p>
      <p>Premi la barra quando sei pronta/o per continuare.</p>","","","","","","","",""
"html-keyboard-response","331","594126","0.0-15.0","60ba2011cd8052508d401296","64afc2c9a8732ea92db0087d","64afd48c19fb837426da2a63","159615"," ","<p>In questa seconda parte, vedrai delle nuove parole che abbiamo ricevuto dallo stesso gruppo di alieni, e altre che invece provengono da un'altra comunicazione, con un altro gruppo di alieni. Purtroppo le due comunicazioni non arrivano a noi separatamente, per cui le parole sono mescolate tra loro. Il tuo compito sarà quello di individuare le parole che provengono dal gruppo che hai studiato nella prima parte dell'esperimento.</p>
      <p>Questo compito non è per nulla facile; le due comunicazioni infatti usano gli stessi caratteri. Il tuo meeting con i leader mondiali inizia tra poco, per cui non avrai molto tempo per prendere la tua decisione; dovrai essere veloce. Cerca di fare del tuo meglio usando la tua intuizione; non hai tempo di stare a pensare a lungo su ogni singola parola.</p>
      <p>Premi <strong>k</strong> quando pensi che la parola che stai vedendo sia degli stessi alieni che hai studiato prima, e <strong>d</strong> quando invece pensi che la parola che stai vedendo venga dall'altra comunicazione, con il nuovo gruppo di alieni.</p><p>Premi la barra quando sei pronta/o per iniziare.</p>","","","","","","","",""
"html-keyboard-response","332","596848","0.0-16.0-0.0","60ba2011cd8052508d401296","64afc2c9a8732ea92db0087d","64afd48c19fb837426da2a63","2722","k","<p style=""font-size: 30px;"">La parola viene del gruppo di alieni che hai studiato prima?</p><br><p style=""font-size: 60px; font-family: BACS"">ABPRBOBT<p style=""font-size: 15px"">Premi <strong>k</strong> per sì, <strong>d</strong> per no.</p>","","ABPRBOBT","testing","k","true","","",""
"html-keyboard-response","333","599909","0.0-16.0-1.0-0.0","60ba2011cd8052508d401296","64afc2c9a8732ea92db0087d","64afd48c19fb837426da2a63","3058"," ","<p style=""font-size: 30px; color: red"">Attenzione! Sei stato troppo lento con questa parola.</p>
      <p style=""font-size: 30px; color: red"">Cerca di essere più veloce.</p><p></p><p>Premi la barra per continuare.</p>","","","","","","","",""
"html-keyboard-response","334","600741","0.0-16.0-0.1","60ba2011cd8052508d401296","64afc2c9a8732ea92db0087d","64afd48c19fb837426da2a63","832","d","<p style=""font-size: 30px;"">La parola viene del gruppo di alieni che hai studiato prima?</p><br><p style=""font-size: 60px; font-family: BACS"">lRckArZYd<p style=""font-size: 15px"">Premi <strong>k</strong> per sì, <strong>d</strong> per no.</p>","","lRckArZYd","testing","d","true","","",""
"html-keyboard-response","335","601933","0.0-16.0-0.2","60ba2011cd8052508d401296","64afc2c9a8732ea92db0087d","64afd48c19fb837426da2a63","1192","k","<p style=""font-size: 30px;"">La parola viene del gruppo di alieni che hai studiato prima?</p><br><p style=""font-size: 60px; font-family: BACS"">JmvmOkam<p style=""font-size: 15px"">Premi <strong>k</strong> per sì, <strong>d</strong> per no.</p>","","JmvmOkam","testing","k","true","","",""
"html-keyboard-response","336","603081","0.0-16.0-0.3","60ba2011cd8052508d401296","64afc2c9a8732ea92db0087d","64afd48c19fb837426da2a63","1147","k","<p style=""font-size: 30px"">&emsp;</p><br><p style=""font-size: 60px; font-family: BACS"">hTtBbYNu<p style=""font-size: 15px"">Premi <strong>k</strong> per sì, <strong>d</strong> per no.</p>","","hTtBbYNu","testing","d","false","","",""
"html-keyboard-response","337","604183","0.0-16.0-0.4","60ba2011cd8052508d401296","64afc2c9a8732ea92db0087d","64afd48c19fb837426da2a63","1102","k","<p style=""font-size: 30px"">&emsp;</p><br><p style=""font-size: 60px; font-family: BACS"">vYLUOBT<p style=""font-size: 15px"">Premi <strong>k</strong> per sì, <strong>d</strong> per no.</p>","","vYLUOBT","testing","d","false","","",""
"html-keyboard-response","338","605196","0.0-16.0-0.5","60ba2011cd8052508d401296","64afc2c9a8732ea92db0087d","64afd48c19fb837426da2a63","1012","k","<p style=""font-size: 30px"">&emsp;</p><br><p style=""font-size: 60px; font-family: BACS"">kNuakam<p style=""font-size: 15px"">Premi <strong>k</strong> per sì, <strong>d</strong> per no.</p>","","kNuakam","testing","k","true","","",""
"html-keyboard-response","339","606275","0.0-16.0-0.6","60ba2011cd8052508d401296","64afc2c9a8732ea92db0087d","64afd48c19fb837426da2a63","1079","k","<p style=""font-size: 30px"">&emsp;</p><br><p style=""font-size: 60px; font-family: BACS"">AdDbOBT<p style=""font-size: 15px"">Premi <strong>k</strong> per sì, <strong>d</strong> per no.</p>","","AdDbOBT","testing","k","true","","",""
"html-keyboard-response","340","607333","0.0-16.0-0.7","60ba2011cd8052508d401296","64afc2c9a8732ea92db0087d","64afd48c19fb837426da2a63","1057","d","<p style=""font-size: 30px"">&emsp;</p><br><p style=""font-size: 60px; font-family: BACS"">damYbrZYd<p style=""font-size: 15px"">Premi <strong>k</strong> per sì, <strong>d</strong> per no.</p>","","damYbrZYd","testing","k","false","","",""
"html-keyboard-response","341","608211","0.0-16.0-0.8","60ba2011cd8052508d401296","64afc2c9a8732ea92db0087d","64afd48c19fb837426da2a63","878","k","<p style=""font-size: 30px"">&emsp;</p><br><p style=""font-size: 60px; font-family: BACS"">vYLUJUNa<p style=""font-size: 15px"">Premi <strong>k</strong> per sì, <strong>d</strong> per no.</p>","","vYLUJUNa","testing","k","true","","",""
"html-keyboard-response","342","609201","0.0-16.0-0.9","60ba2011cd8052508d401296","64afc2c9a8732ea92db0087d","64afd48c19fb837426da2a63","989","k","<p style=""font-size: 30px"">&emsp;</p><br><p style=""font-size: 60px; font-family: BACS"">ckduAYArG<p style=""font-size: 15px"">Premi <strong>k</strong> per sì, <strong>d</strong> per no.</p>","","ckduAYArG","testing","k","true","","",""
"html-keyboard-response","343","610303","0.0-16.0-0.10","60ba2011cd8052508d401296","64afc2c9a8732ea92db0087d","64afd48c19fb837426da2a63","1102","d","<p style=""font-size: 30px"">&emsp;</p><br><p style=""font-size: 60px; font-family: BACS"">NaAQdrZYd<p style=""font-size: 15px"">Premi <strong>k</strong> per sì, <strong>d</strong> per no.</p>","","NaAQdrZYd","testing","k","false","","",""
"html-keyboard-response","344","611136","0.0-16.0-0.11","60ba2011cd8052508d401296","64afc2c9a8732ea92db0087d","64afd48c19fb837426da2a63","832","k","<p style=""font-size: 30px"">&emsp;</p><br><p style=""font-size: 60px; font-family: BACS"">RCcEYArG<p style=""font-size: 15px"">Premi <strong>k</strong> per sì, <strong>d</strong> per no.</p>","","RCcEYArG","testing","d","false","","",""
"html-keyboard-response","345","612238","0.0-16.0-0.12","60ba2011cd8052508d401296","64afc2c9a8732ea92db0087d","64afd48c19fb837426da2a63","1101","k","<p style=""font-size: 30px"">&emsp;</p><br><p style=""font-size: 60px; font-family: BACS"">NaAQdKmE<p style=""font-size: 15px"">Premi <strong>k</strong> per sì, <strong>d</strong> per no.</p>","","NaAQdKmE","testing","d","false","","",""
"html-keyboard-response","346","613026","0.0-16.0-0.13","60ba2011cd8052508d401296","64afc2c9a8732ea92db0087d","64afd48c19fb837426da2a63","786","d","<p style=""font-size: 30px"">&emsp;</p><br><p style=""font-size: 60px; font-family: BACS"">dvNvADOAK<p style=""font-size: 15px"">Premi <strong>k</strong> per sì, <strong>d</strong> per no.</p>","","dvNvADOAK","testing","d","true","","",""
"html-keyboard-response","347","613926","0.0-16.0-0.14","60ba2011cd8052508d401296","64afc2c9a8732ea92db0087d","64afd48c19fb837426da2a63","900","d","<p style=""font-size: 30px"">&emsp;</p><br><p style=""font-size: 60px; font-family: BACS"">damYbKmE<p style=""font-size: 15px"">Premi <strong>k</strong> per sì, <strong>d</strong> per no.</p>","","damYbKmE","testing","d","true","","",""
"html-keyboard-response","348","615479","0.0-16.0-0.15","60ba2011cd8052508d401296","64afc2c9a8732ea92db0087d","64afd48c19fb837426da2a63","1553","d","<p style=""font-size: 30px"">&emsp;</p><br><p style=""font-size: 60px; font-family: BACS"">kNuadTAh<p style=""font-size: 15px"">Premi <strong>k</strong> per sì, <strong>d</strong> per no.</p>","","kNuadTAh","testing","d","true","","",""
"html-keyboard-response","349","616761","0.0-16.0-0.16","60ba2011cd8052508d401296","64afc2c9a8732ea92db0087d","64afd48c19fb837426da2a63","1282","k","<p style=""font-size: 30px"">&emsp;</p><br><p style=""font-size: 60px; font-family: BACS"">DBklkam<p style=""font-size: 15px"">Premi <strong>k</strong> per sì, <strong>d</strong> per no.</p>","","DBklkam","testing","d","false","","",""
"html-keyboard-response","350","617908","0.0-16.0-0.17","60ba2011cd8052508d401296","64afc2c9a8732ea92db0087d","64afd48c19fb837426da2a63","1148","k","<p style=""font-size: 30px"">&emsp;</p><br><p style=""font-size: 60px; font-family: BACS"">hTtBbTmTm<p style=""font-size: 15px"">Premi <strong>k</strong> per sì, <strong>d</strong> per no.</p>","","hTtBbTmTm","testing","k","true","","",""
"html-keyboard-response","351","619213","0.0-16.0-0.18","60ba2011cd8052508d401296","64afc2c9a8732ea92db0087d","64afd48c19fb837426da2a63","1304","k","<p style=""font-size: 30px"">&emsp;</p><br><p style=""font-size: 60px; font-family: BACS"">EhbtYArG<p style=""font-size: 15px"">Premi <strong>k</strong> per sì, <strong>d</strong> per no.</p>","","EhbtYArG","testing","d","false","","",""
"html-keyboard-response","352","620653","0.0-16.0-0.19","60ba2011cd8052508d401296","64afc2c9a8732ea92db0087d","64afd48c19fb837426da2a63","1440","k","<p style=""font-size: 30px"">&emsp;</p><br><p style=""font-size: 60px; font-family: BACS"">AdDbJUNa<p style=""font-size: 15px"">Premi <strong>k</strong> per sì, <strong>d</strong> per no.</p>","","AdDbJUNa","testing","d","false","","",""
"html-keyboard-response","353","621441","0.0-16.0-0.20","60ba2011cd8052508d401296","64afc2c9a8732ea92db0087d","64afd48c19fb837426da2a63","787","k","<p style=""font-size: 30px"">&emsp;</p><br><p style=""font-size: 60px; font-family: BACS"">RCcEDOAK<p style=""font-size: 15px"">Premi <strong>k</strong> per sì, <strong>d</strong> per no.</p>","","RCcEDOAK","testing","k","true","","",""
"html-keyboard-response","354","622206","0.0-16.0-0.21","60ba2011cd8052508d401296","64afc2c9a8732ea92db0087d","64afd48c19fb837426da2a63","765","k","<p style=""font-size: 30px"">&emsp;</p><br><p style=""font-size: 60px; font-family: BACS"">rLkmOBT<p style=""font-size: 15px"">Premi <strong>k</strong> per sì, <strong>d</strong> per no.</p>","","rLkmOBT","testing","d","false","","",""
"html-keyboard-response","355","623061","0.0-16.0-0.22","60ba2011cd8052508d401296","64afc2c9a8732ea92db0087d","64afd48c19fb837426da2a63","854","k","<p style=""font-size: 30px"">&emsp;</p><br><p style=""font-size: 60px; font-family: BACS"">EhbtDOAK<p style=""font-size: 15px"">Premi <strong>k</strong> per sì, <strong>d</strong> per no.</p>","","EhbtDOAK","testing","k","true","","",""
"html-keyboard-response","356","623893","0.0-16.0-0.23","60ba2011cd8052508d401296","64afc2c9a8732ea92db0087d","64afd48c19fb837426da2a63","833","k","<p style=""font-size: 30px"">&emsp;</p><br><p style=""font-size: 60px; font-family: BACS"">aUZAYNu<p style=""font-size: 15px"">Premi <strong>k</strong> per sì, <strong>d</strong> per no.</p>","","aUZAYNu","testing","k","true","","",""
"html-keyboard-response","357","625041","0.0-16.0-0.24","60ba2011cd8052508d401296","64afc2c9a8732ea92db0087d","64afd48c19fb837426da2a63","1147","d","<p style=""font-size: 30px"">&emsp;</p><br><p style=""font-size: 60px; font-family: BACS"">lRckAKmE<p style=""font-size: 15px"">Premi <strong>k</strong> per sì, <strong>d</strong> per no.</p>","","lRckAKmE","testing","k","false","","",""
"html-keyboard-response","358","625356","0.0-16.0-0.25","60ba2011cd8052508d401296","64afc2c9a8732ea92db0087d","64afd48c19fb837426da2a63","315","k","<p style=""font-size: 30px"">&emsp;</p><br><p style=""font-size: 60px; font-family: BACS"">rLkmJUNa<p style=""font-size: 15px"">Premi <strong>k</strong> per sì, <strong>d</strong> per no.</p>","","rLkmJUNa","testing","k","true","","",""
"html-keyboard-response","359","626414","0.0-16.0-0.26","60ba2011cd8052508d401296","64afc2c9a8732ea92db0087d","64afd48c19fb837426da2a63","1057","k","<p style=""font-size: 30px"">&emsp;</p><br><p style=""font-size: 60px; font-family: BACS"">JmvmOdTAh<p style=""font-size: 15px"">Premi <strong>k</strong> per sì, <strong>d</strong> per no.</p>","","JmvmOdTAh","testing","d","false","","",""
"html-keyboard-response","360","627179","0.0-16.0-0.27","60ba2011cd8052508d401296","64afc2c9a8732ea92db0087d","64afd48c19fb837426da2a63","765","d","<p style=""font-size: 30px"">&emsp;</p><br><p style=""font-size: 60px; font-family: BACS"">dvNvAYArG<p style=""font-size: 15px"">Premi <strong>k</strong> per sì, <strong>d</strong> per no.</p>","","dvNvAYArG","testing","k","false","","",""
"html-keyboard-response","361","627988","0.0-16.0-0.28","60ba2011cd8052508d401296","64afc2c9a8732ea92db0087d","64afd48c19fb837426da2a63","810","k","<p style=""font-size: 30px"">&emsp;</p><br><p style=""font-size: 60px; font-family: BACS"">DBkldTAh<p style=""font-size: 15px"">Premi <strong>k</strong> per sì, <strong>d</strong> per no.</p>","","DBkldTAh","testing","k","true","","",""
"html-keyboard-response","362","628911","0.0-16.0-0.29","60ba2011cd8052508d401296","64afc2c9a8732ea92db0087d","64afd48c19fb837426da2a63","922","k","<p style=""font-size: 30px"">&emsp;</p><br><p style=""font-size: 60px; font-family: BACS"">aUZATmTm<p style=""font-size: 15px"">Premi <strong>k</strong> per sì, <strong>d</strong> per no.</p>","","aUZATmTm","testing","d","false","","",""
"html-keyboard-response","363","630149","0.0-16.0-0.30","60ba2011cd8052508d401296","64afc2c9a8732ea92db0087d","64afd48c19fb837426da2a63","1237","k","<p style=""font-size: 30px"">&emsp;</p><br><p style=""font-size: 60px; font-family: BACS"">kCRmKmE<p style=""font-size: 15px"">Premi <strong>k</strong> per sì, <strong>d</strong> per no.</p>","","kCRmKmE","testing","k","true","","",""
"html-keyboard-response","364","631251","0.0-16.0-0.31","60ba2011cd8052508d401296","64afc2c9a8732ea92db0087d","64afd48c19fb837426da2a63","1102","d","<p style=""font-size: 30px"">&emsp;</p><br><p style=""font-size: 60px; font-family: BACS"">BOckPkam<p style=""font-size: 15px"">Premi <strong>k</strong> per sì, <strong>d</strong> per no.</p>","","BOckPkam","testing","d","true","","",""
"html-keyboard-response","365","632016","0.0-16.0-0.32","60ba2011cd8052508d401296","64afc2c9a8732ea92db0087d","64afd48c19fb837426da2a63","765","k","<p style=""font-size: 30px"">&emsp;</p><br><p style=""font-size: 60px; font-family: BACS"">UAcduTmTm<p style=""font-size: 15px"">Premi <strong>k</strong> per sì, <strong>d</strong> per no.</p>","","UAcduTmTm","testing","d","false","","",""
"html-keyboard-response","366","632601","0.0-16.0-0.33","60ba2011cd8052508d401296","64afc2c9a8732ea92db0087d","64afd48c19fb837426da2a63","585","d","<p style=""font-size: 30px"">&emsp;</p><br><p style=""font-size: 60px; font-family: BACS"">ckduADOAK<p style=""font-size: 15px"">Premi <strong>k</strong> per sì, <strong>d</strong> per no.</p>","","ckduADOAK","testing","d","true","","",""
"html-keyboard-response","367","633209","0.0-16.0-0.34","60ba2011cd8052508d401296","64afc2c9a8732ea92db0087d","64afd48c19fb837426da2a63","607","k","<p style=""font-size: 30px"">&emsp;</p><br><p style=""font-size: 60px; font-family: BACS"">PMPtkTmTm<p style=""font-size: 15px"">Premi <strong>k</strong> per sì, <strong>d</strong> per no.</p>","","PMPtkTmTm","testing","k","true","","",""
"html-keyboard-response","368","634401","0.0-16.0-0.35","60ba2011cd8052508d401296","64afc2c9a8732ea92db0087d","64afd48c19fb837426da2a63","1192","k","<p style=""font-size: 30px"">&emsp;</p><br><p style=""font-size: 60px; font-family: BACS"">BOckPdTAh<p style=""font-size: 15px"">Premi <strong>k</strong> per sì, <strong>d</strong> per no.</p>","","BOckPdTAh","testing","k","true","","",""
"html-keyboard-response","369","635189","0.0-16.0-0.36","60ba2011cd8052508d401296","64afc2c9a8732ea92db0087d","64afd48c19fb837426da2a63","788","k","<p style=""font-size: 30px"">&emsp;</p><br><p style=""font-size: 60px; font-family: BACS"">ABPRBJUNa<p style=""font-size: 15px"">Premi <strong>k</strong> per sì, <strong>d</strong> per no.</p>","","ABPRBJUNa","testing","d","false","","",""
"html-keyboard-response","370","636314","0.0-16.0-0.37","60ba2011cd8052508d401296","64afc2c9a8732ea92db0087d","64afd48c19fb837426da2a63","1125","k","<p style=""font-size: 30px"">&emsp;</p><br><p style=""font-size: 60px; font-family: BACS"">PMPtkYNu<p style=""font-size: 15px"">Premi <strong>k</strong> per sì, <strong>d</strong> per no.</p>","","PMPtkYNu","testing","d","false","","",""
"html-keyboard-response","371","637259","0.0-16.0-0.38","60ba2011cd8052508d401296","64afc2c9a8732ea92db0087d","64afd48c19fb837426da2a63","945","d","<p style=""font-size: 30px"">&emsp;</p><br><p style=""font-size: 60px; font-family: BACS"">kCRmrZYd<p style=""font-size: 15px"">Premi <strong>k</strong> per sì, <strong>d</strong> per no.</p>","","kCRmrZYd","testing","d","true","","",""
