"trial_type","trial_index","time_elapsed","internal_node_id","subject_id","study_id","session_id","rt","response","stimulus","success","item","task","correct_response","testing_condition","correct","target","confound","name"
"pavlovia","0","2123","0.0-0.0","6455490f7c5f35e4221a810a","650c16f0f2faf8d7a0d14c09","651c1e14c6eaf8f5c63ff5e6","","","","","","","","","","","",""
"survey-html-form","1","6383","0.0-1.0","6455490f7c5f35e4221a810a","650c16f0f2faf8d7a0d14c09","651c1e14c6eaf8f5c63ff5e6","4257","{""ID"":""6455490f7c5f35e4221a810a""}","","","","","","","","","",""
"html-keyboard-response","2","33050","0.0-2.0","6455490f7c5f35e4221a810a","650c16f0f2faf8d7a0d14c09","651c1e14c6eaf8f5c63ff5e6","26665"," ","<p style=""font-size: 15px;"">Before beginning, we ask that you read the consent information and confirm your agreement to participate in the experiment.</p>
      <p style=""font-size: 15px;""> We ask that you remember that this is a research project and that your participation is entirely voluntary. You can stop your participation at any time, without needing to provide any explanation. The study we're asking you to participate in aims at examining how readers process written words. You will be engaged in a session of apprximately 20 minutes, followed by a brief questionnaire. You will have the opportunity to take a few breaks during the experiment. You will be paid £4 for your participation, corresponding to a rate of £8/hour. While this experiment looks at cognitive faculties, this experiment doesn't constitute clinical proof of eventual pathologies.</p>
      <p style=""font-size: 15px;"">All of the information collected thanks to yours and others' participation will be held in a secure password-protected server, and will not be shared with anyone not authorised to view it. Your personal information will be kept with an arbitrary participant ID. Thanks to this data anonymity process, any researcher analysing the data won't be able to track the information back to a specific participant. Therefore, this process will make identifying you impossibile, even when results from the study will be published in scientific reviews, presented at congresses, or at any other public forum. More generally, the collected data will be treated in accordance with the laws on privacy and conformity to the Legislative Degree n. 196 ""Code regarding the protection of personal data"" of the 30th of June 2003 and to the European Regulation 2016/670 (General Data Protection Regulation - GDPR). The Data Protection Officer is Avv. Valentina Carollo, who can be contacted at the following email addresses: <a href=""mailto:dpo@sissa.it"">dpo@sissa.it</a> or <a href=""mailto:rpd@sissa.it"">rpd@sissa.it</a> - PEC: <a href=""mailto:protocollo@pec.sissa.it"">protocollo@pec.sissa.it</a>.</p>
      <p style=""font-size: 15px;""> Before expressing your consent to participate, we would like to remind you again that in case you need explanations on any aspect of the experimental procedure, the researcher is at your disposition (<a href=""mailto:aliebelt@sissa.it"">aliebelt@sissa.it</a>, <a href=""mailto:davide.crepaldi@sissa.it"">davide.crepaldi@sissa.it</a>).</p>
      <p style=""font-size: 15px;"">If you would like to download the informed consent form, you can do so here: <a href=""BASL-Informed_Consent.pdf"" download>informed consent form</a>.</p>
      <p style=""font-size: 15px;"">We ask that you press the spacebar to proceed to the consent section.</p>","","","","","","","","",""
"survey-html-form","3","57228","0.0-3.0","6455490f7c5f35e4221a810a","650c16f0f2faf8d7a0d14c09","651c1e14c6eaf8f5c63ff5e6","24177","{""consent1"":""YES"",""consent2"":""YES"",""consent3"":""YES"",""consent4"":""YES"",""consent5"":""YES"",""consent6"":""YES""}","","","","","","","","","",""
"fullscreen","4","64437","0.0-4.0","6455490f7c5f35e4221a810a","650c16f0f2faf8d7a0d14c09","651c1e14c6eaf8f5c63ff5e6","","","","true","","","","","","","",""
"html-keyboard-response","5","118014","0.0-5.0","6455490f7c5f35e4221a810a","650c16f0f2faf8d7a0d14c09","651c1e14c6eaf8f5c63ff5e6","53576"," ","<p>Welcome, and thank you very much for your time!</p>
      <p>In this experiment, you'll be a language expert who's been asked to take a look at words that Earth has received in its first communication with aliens. Your task, in this first part of the experiment, is to pay close attention to the words you'll be shown; later, world leaders will ask you questions on what you saw. The words will be shown to you quite quickly; it seems that the aliens were in a hurry :-)</p>
      <p>Press the spacebar to continue.<p>","","","","","","","","",""
"html-keyboard-response","6","118066","0.0-6.0","6455490f7c5f35e4221a810a","650c16f0f2faf8d7a0d14c09","651c1e14c6eaf8f5c63ff5e6","null","null","<p style=""font-size: 120px; font-family: BACS""> </p>","","","","","","","","",""
"html-keyboard-response","7","133726","0.0-7.0","6455490f7c5f35e4221a810a","650c16f0f2faf8d7a0d14c09","651c1e14c6eaf8f5c63ff5e6","15660"," ","<p>Here is an example of the words you'll see:</p>
      <img src='esempio.png' height='400px'>
      <p>When you're ready to begin, press the spacebar.</p></div>","","","","","","","","",""
"html-keyboard-response","8","134729","0.0-8.0-0.0","6455490f7c5f35e4221a810a","650c16f0f2faf8d7a0d14c09","651c1e14c6eaf8f5c63ff5e6","null","null","<p style=""font-size: 60px; font-family: BACS"">rcmuvrAm</p>","","","","","","","","",""
"html-keyboard-response","9","135730","0.0-8.0-0.1","6455490f7c5f35e4221a810a","650c16f0f2faf8d7a0d14c09","651c1e14c6eaf8f5c63ff5e6","null","null","<p style=""font-size: 60px; font-family: BACS"">AlUYrZYd</p>","","","","","","","","",""
"html-keyboard-response","10","136732","0.0-8.0-0.2","6455490f7c5f35e4221a810a","650c16f0f2faf8d7a0d14c09","651c1e14c6eaf8f5c63ff5e6","null","null","<p style=""font-size: 60px; font-family: BACS"">CYPcATc</p>","","","","","","","","",""
"html-keyboard-response","11","137733","0.0-8.0-0.3","6455490f7c5f35e4221a810a","650c16f0f2faf8d7a0d14c09","651c1e14c6eaf8f5c63ff5e6","null","null","<p style=""font-size: 60px; font-family: BACS"">ldAaukbY</p>","","","","","","","","",""
"html-keyboard-response","12","138745","0.0-8.0-0.4","6455490f7c5f35e4221a810a","650c16f0f2faf8d7a0d14c09","651c1e14c6eaf8f5c63ff5e6","null","null","<p style=""font-size: 60px; font-family: BACS"">JmNkbadk</p>","","","","","","","","",""
"html-keyboard-response","13","139746","0.0-8.0-0.5","6455490f7c5f35e4221a810a","650c16f0f2faf8d7a0d14c09","651c1e14c6eaf8f5c63ff5e6","null","null","<p style=""font-size: 60px; font-family: BACS"">PhktkATc</p>","","","","","","","","",""
"html-keyboard-response","14","140751","0.0-8.0-0.6","6455490f7c5f35e4221a810a","650c16f0f2faf8d7a0d14c09","651c1e14c6eaf8f5c63ff5e6","null","null","<p style=""font-size: 60px; font-family: BACS"">ldAabadk</p>","","","","","","","","",""
"html-keyboard-response","15","141754","0.0-8.0-0.7","6455490f7c5f35e4221a810a","650c16f0f2faf8d7a0d14c09","651c1e14c6eaf8f5c63ff5e6","null","null","<p style=""font-size: 60px; font-family: BACS"">TDKhPTl</p>","","","","","","","","",""
"html-keyboard-response","16","142756","0.0-8.0-0.8","6455490f7c5f35e4221a810a","650c16f0f2faf8d7a0d14c09","651c1e14c6eaf8f5c63ff5e6","null","null","<p style=""font-size: 60px; font-family: BACS"">mLdkZrZYd</p>","","","","","","","","",""
"html-keyboard-response","17","143766","0.0-8.0-0.9","6455490f7c5f35e4221a810a","650c16f0f2faf8d7a0d14c09","651c1e14c6eaf8f5c63ff5e6","null","null","<p style=""font-size: 60px; font-family: BACS"">BATOcATc</p>","","","","","","","","",""
"html-keyboard-response","18","144768","0.0-8.0-0.10","6455490f7c5f35e4221a810a","650c16f0f2faf8d7a0d14c09","651c1e14c6eaf8f5c63ff5e6","null","null","<p style=""font-size: 60px; font-family: BACS"">ldAarAm</p>","","","","","","","","",""
"html-keyboard-response","19","145779","0.0-8.0-0.11","6455490f7c5f35e4221a810a","650c16f0f2faf8d7a0d14c09","651c1e14c6eaf8f5c63ff5e6","null","null","<p style=""font-size: 60px; font-family: BACS"">COtBDRCdc</p>","","","","","","","","",""
"html-keyboard-response","20","146780","0.0-8.0-0.12","6455490f7c5f35e4221a810a","650c16f0f2faf8d7a0d14c09","651c1e14c6eaf8f5c63ff5e6","null","null","<p style=""font-size: 60px; font-family: BACS"">PhktkTmc</p>","","","","","","","","",""
"html-keyboard-response","21","147782","0.0-8.0-0.13","6455490f7c5f35e4221a810a","650c16f0f2faf8d7a0d14c09","651c1e14c6eaf8f5c63ff5e6","null","null","<p style=""font-size: 60px; font-family: BACS"">AlUYukbY</p>","","","","","","","","",""
"html-keyboard-response","22","148783","0.0-8.0-0.14","6455490f7c5f35e4221a810a","650c16f0f2faf8d7a0d14c09","651c1e14c6eaf8f5c63ff5e6","null","null","<p style=""font-size: 60px; font-family: BACS"">kDRKcTmc</p>","","","","","","","","",""
"html-keyboard-response","23","149783","0.0-8.0-0.15","6455490f7c5f35e4221a810a","650c16f0f2faf8d7a0d14c09","651c1e14c6eaf8f5c63ff5e6","null","null","<p style=""font-size: 60px; font-family: BACS"">TDKhRCdc</p>","","","","","","","","",""
"html-keyboard-response","24","150784","0.0-8.0-0.16","6455490f7c5f35e4221a810a","650c16f0f2faf8d7a0d14c09","651c1e14c6eaf8f5c63ff5e6","null","null","<p style=""font-size: 60px; font-family: BACS"">AlUYrAm</p>","","","","","","","","",""
"html-keyboard-response","25","151784","0.0-8.0-0.17","6455490f7c5f35e4221a810a","650c16f0f2faf8d7a0d14c09","651c1e14c6eaf8f5c63ff5e6","null","null","<p style=""font-size: 60px; font-family: BACS"">ldAarZYd</p>","","","","","","","","",""
"html-keyboard-response","26","152794","0.0-8.0-0.18","6455490f7c5f35e4221a810a","650c16f0f2faf8d7a0d14c09","651c1e14c6eaf8f5c63ff5e6","null","null","<p style=""font-size: 60px; font-family: BACS"">MlthTmc</p>","","","","","","","","",""
"html-keyboard-response","27","153800","0.0-8.0-0.19","6455490f7c5f35e4221a810a","650c16f0f2faf8d7a0d14c09","651c1e14c6eaf8f5c63ff5e6","null","null","<p style=""font-size: 60px; font-family: BACS"">YmBdRCdc</p>","","","","","","","","",""
"html-keyboard-response","28","154809","0.0-8.0-0.20","6455490f7c5f35e4221a810a","650c16f0f2faf8d7a0d14c09","651c1e14c6eaf8f5c63ff5e6","null","null","<p style=""font-size: 60px; font-family: BACS"">CYPcMCkm</p>","","","","","","","","",""
"html-keyboard-response","29","155816","0.0-8.0-0.21","6455490f7c5f35e4221a810a","650c16f0f2faf8d7a0d14c09","651c1e14c6eaf8f5c63ff5e6","null","null","<p style=""font-size: 60px; font-family: BACS"">ukYZUdvY</p>","","","","","","","","",""
"html-keyboard-response","30","156819","0.0-8.0-0.22","6455490f7c5f35e4221a810a","650c16f0f2faf8d7a0d14c09","651c1e14c6eaf8f5c63ff5e6","null","null","<p style=""font-size: 60px; font-family: BACS"">ZvalvukbY</p>","","","","","","","","",""
"html-keyboard-response","31","157828","0.0-8.0-0.23","6455490f7c5f35e4221a810a","650c16f0f2faf8d7a0d14c09","651c1e14c6eaf8f5c63ff5e6","null","null","<p style=""font-size: 60px; font-family: BACS"">KRARmMCkm</p>","","","","","","","","",""
"html-keyboard-response","32","158836","0.0-8.0-0.24","6455490f7c5f35e4221a810a","650c16f0f2faf8d7a0d14c09","651c1e14c6eaf8f5c63ff5e6","null","null","<p style=""font-size: 60px; font-family: BACS"">MlthRCdc</p>","","","","","","","","",""
"html-keyboard-response","33","159843","0.0-8.0-0.25","6455490f7c5f35e4221a810a","650c16f0f2faf8d7a0d14c09","651c1e14c6eaf8f5c63ff5e6","null","null","<p style=""font-size: 60px; font-family: BACS"">kDRKcATc</p>","","","","","","","","",""
"html-keyboard-response","34","160852","0.0-8.0-0.26","6455490f7c5f35e4221a810a","650c16f0f2faf8d7a0d14c09","651c1e14c6eaf8f5c63ff5e6","null","null","<p style=""font-size: 60px; font-family: BACS"">ukYZbadk</p>","","","","","","","","",""
"html-keyboard-response","35","161860","0.0-8.0-0.27","6455490f7c5f35e4221a810a","650c16f0f2faf8d7a0d14c09","651c1e14c6eaf8f5c63ff5e6","null","null","<p style=""font-size: 60px; font-family: BACS"">KRARmRCdc</p>","","","","","","","","",""
"html-keyboard-response","36","162867","0.0-8.0-0.28","6455490f7c5f35e4221a810a","650c16f0f2faf8d7a0d14c09","651c1e14c6eaf8f5c63ff5e6","null","null","<p style=""font-size: 60px; font-family: BACS"">ZvalvUdvY</p>","","","","","","","","",""
"html-keyboard-response","37","163875","0.0-8.0-0.29","6455490f7c5f35e4221a810a","650c16f0f2faf8d7a0d14c09","651c1e14c6eaf8f5c63ff5e6","null","null","<p style=""font-size: 60px; font-family: BACS"">OJGQukbY</p>","","","","","","","","",""
"html-keyboard-response","38","164885","0.0-8.0-0.30","6455490f7c5f35e4221a810a","650c16f0f2faf8d7a0d14c09","651c1e14c6eaf8f5c63ff5e6","null","null","<p style=""font-size: 60px; font-family: BACS"">lGZvrZYd</p>","","","","","","","","",""
"html-keyboard-response","39","165898","0.0-8.0-0.31","6455490f7c5f35e4221a810a","650c16f0f2faf8d7a0d14c09","651c1e14c6eaf8f5c63ff5e6","null","null","<p style=""font-size: 60px; font-family: BACS"">ukYZukbY</p>","","","","","","","","",""
"html-keyboard-response","40","166909","0.0-8.0-0.32","6455490f7c5f35e4221a810a","650c16f0f2faf8d7a0d14c09","651c1e14c6eaf8f5c63ff5e6","null","null","<p style=""font-size: 60px; font-family: BACS"">lGZvbadk</p>","","","","","","","","",""
"html-keyboard-response","41","167917","0.0-8.0-0.33","6455490f7c5f35e4221a810a","650c16f0f2faf8d7a0d14c09","651c1e14c6eaf8f5c63ff5e6","null","null","<p style=""font-size: 60px; font-family: BACS"">RlAKcATc</p>","","","","","","","","",""
"html-keyboard-response","42","168922","0.0-8.0-0.34","6455490f7c5f35e4221a810a","650c16f0f2faf8d7a0d14c09","651c1e14c6eaf8f5c63ff5e6","null","null","<p style=""font-size: 60px; font-family: BACS"">JmNkUdvY</p>","","","","","","","","",""
"html-keyboard-response","43","169926","0.0-8.0-0.35","6455490f7c5f35e4221a810a","650c16f0f2faf8d7a0d14c09","651c1e14c6eaf8f5c63ff5e6","null","null","<p style=""font-size: 60px; font-family: BACS"">OJGQrZYd</p>","","","","","","","","",""
"html-keyboard-response","44","170932","0.0-8.0-0.36","6455490f7c5f35e4221a810a","650c16f0f2faf8d7a0d14c09","651c1e14c6eaf8f5c63ff5e6","null","null","<p style=""font-size: 60px; font-family: BACS"">KRARmTmc</p>","","","","","","","","",""
"html-keyboard-response","45","171940","0.0-8.0-0.37","6455490f7c5f35e4221a810a","650c16f0f2faf8d7a0d14c09","651c1e14c6eaf8f5c63ff5e6","null","null","<p style=""font-size: 60px; font-family: BACS"">OJGQUdvY</p>","","","","","","","","",""
"html-keyboard-response","46","172951","0.0-8.0-0.38","6455490f7c5f35e4221a810a","650c16f0f2faf8d7a0d14c09","651c1e14c6eaf8f5c63ff5e6","null","null","<p style=""font-size: 60px; font-family: BACS"">CYPcRCdc</p>","","","","","","","","",""
"html-keyboard-response","47","173956","0.0-8.0-0.39","6455490f7c5f35e4221a810a","650c16f0f2faf8d7a0d14c09","651c1e14c6eaf8f5c63ff5e6","null","null","<p style=""font-size: 60px; font-family: BACS"">bvuZUdvY</p>","","","","","","","","",""
"html-keyboard-response","48","174971","0.0-8.0-0.40","6455490f7c5f35e4221a810a","650c16f0f2faf8d7a0d14c09","651c1e14c6eaf8f5c63ff5e6","null","null","<p style=""font-size: 60px; font-family: BACS"">BATOcRCdc</p>","","","","","","","","",""
"html-keyboard-response","49","175982","0.0-8.0-0.41","6455490f7c5f35e4221a810a","650c16f0f2faf8d7a0d14c09","651c1e14c6eaf8f5c63ff5e6","null","null","<p style=""font-size: 60px; font-family: BACS"">TDKhATc</p>","","","","","","","","",""
"html-keyboard-response","50","176989","0.0-8.0-0.42","6455490f7c5f35e4221a810a","650c16f0f2faf8d7a0d14c09","651c1e14c6eaf8f5c63ff5e6","null","null","<p style=""font-size: 60px; font-family: BACS"">OJGQrAm</p>","","","","","","","","",""
"html-keyboard-response","51","177997","0.0-8.0-0.43","6455490f7c5f35e4221a810a","650c16f0f2faf8d7a0d14c09","651c1e14c6eaf8f5c63ff5e6","null","null","<p style=""font-size: 60px; font-family: BACS"">BATOcTmc</p>","","","","","","","","",""
"html-keyboard-response","52","179003","0.0-8.0-0.44","6455490f7c5f35e4221a810a","650c16f0f2faf8d7a0d14c09","651c1e14c6eaf8f5c63ff5e6","null","null","<p style=""font-size: 60px; font-family: BACS"">COtBDPTl</p>","","","","","","","","",""
"html-keyboard-response","53","180010","0.0-8.0-0.45","6455490f7c5f35e4221a810a","650c16f0f2faf8d7a0d14c09","651c1e14c6eaf8f5c63ff5e6","null","null","<p style=""font-size: 60px; font-family: BACS"">PhktkMCkm</p>","","","","","","","","",""
"html-keyboard-response","54","181016","0.0-8.0-0.46","6455490f7c5f35e4221a810a","650c16f0f2faf8d7a0d14c09","651c1e14c6eaf8f5c63ff5e6","null","null","<p style=""font-size: 60px; font-family: BACS"">bvuZukbY</p>","","","","","","","","",""
"html-keyboard-response","55","182023","0.0-8.0-0.47","6455490f7c5f35e4221a810a","650c16f0f2faf8d7a0d14c09","651c1e14c6eaf8f5c63ff5e6","null","null","<p style=""font-size: 60px; font-family: BACS"">MlthATc</p>","","","","","","","","",""
"html-keyboard-response","56","183031","0.0-8.0-0.48","6455490f7c5f35e4221a810a","650c16f0f2faf8d7a0d14c09","651c1e14c6eaf8f5c63ff5e6","null","null","<p style=""font-size: 60px; font-family: BACS"">RlAKcTmc</p>","","","","","","","","",""
"html-keyboard-response","57","184035","0.0-8.0-0.49","6455490f7c5f35e4221a810a","650c16f0f2faf8d7a0d14c09","651c1e14c6eaf8f5c63ff5e6","null","null","<p style=""font-size: 60px; font-family: BACS"">mLdkZbadk</p>","","","","","","","","",""
"html-keyboard-response","58","185040","0.0-8.0-0.50","6455490f7c5f35e4221a810a","650c16f0f2faf8d7a0d14c09","651c1e14c6eaf8f5c63ff5e6","null","null","<p style=""font-size: 60px; font-family: BACS"">MlthMCkm</p>","","","","","","","","",""
"html-keyboard-response","59","186049","0.0-8.0-0.51","6455490f7c5f35e4221a810a","650c16f0f2faf8d7a0d14c09","651c1e14c6eaf8f5c63ff5e6","null","null","<p style=""font-size: 60px; font-family: BACS"">ukYZrAm</p>","","","","","","","","",""
"html-keyboard-response","60","187058","0.0-8.0-0.52","6455490f7c5f35e4221a810a","650c16f0f2faf8d7a0d14c09","651c1e14c6eaf8f5c63ff5e6","null","null","<p style=""font-size: 60px; font-family: BACS"">YmBdPTl</p>","","","","","","","","",""
"html-keyboard-response","61","188065","0.0-8.0-0.53","6455490f7c5f35e4221a810a","650c16f0f2faf8d7a0d14c09","651c1e14c6eaf8f5c63ff5e6","null","null","<p style=""font-size: 60px; font-family: BACS"">lGZvUdvY</p>","","","","","","","","",""
"html-keyboard-response","62","189073","0.0-8.0-0.54","6455490f7c5f35e4221a810a","650c16f0f2faf8d7a0d14c09","651c1e14c6eaf8f5c63ff5e6","null","null","<p style=""font-size: 60px; font-family: BACS"">RlAKcMCkm</p>","","","","","","","","",""
"html-keyboard-response","63","190082","0.0-8.0-0.55","6455490f7c5f35e4221a810a","650c16f0f2faf8d7a0d14c09","651c1e14c6eaf8f5c63ff5e6","null","null","<p style=""font-size: 60px; font-family: BACS"">ZvalvrZYd</p>","","","","","","","","",""
"html-keyboard-response","64","191087","0.0-8.0-0.56","6455490f7c5f35e4221a810a","650c16f0f2faf8d7a0d14c09","651c1e14c6eaf8f5c63ff5e6","null","null","<p style=""font-size: 60px; font-family: BACS"">KRARmPTl</p>","","","","","","","","",""
"html-keyboard-response","65","192094","0.0-8.0-0.57","6455490f7c5f35e4221a810a","650c16f0f2faf8d7a0d14c09","651c1e14c6eaf8f5c63ff5e6","null","null","<p style=""font-size: 60px; font-family: BACS"">mLdkZrAm</p>","","","","","","","","",""
"html-keyboard-response","66","193103","0.0-8.0-0.58","6455490f7c5f35e4221a810a","650c16f0f2faf8d7a0d14c09","651c1e14c6eaf8f5c63ff5e6","null","null","<p style=""font-size: 60px; font-family: BACS"">PhktkPTl</p>","","","","","","","","",""
"html-keyboard-response","67","194113","0.0-8.0-0.59","6455490f7c5f35e4221a810a","650c16f0f2faf8d7a0d14c09","651c1e14c6eaf8f5c63ff5e6","null","null","<p style=""font-size: 60px; font-family: BACS"">rcmuvbadk</p>","","","","","","","","",""
"html-keyboard-response","68","195119","0.0-8.0-0.60","6455490f7c5f35e4221a810a","650c16f0f2faf8d7a0d14c09","651c1e14c6eaf8f5c63ff5e6","null","null","<p style=""font-size: 60px; font-family: BACS"">COtBDTmc</p>","","","","","","","","",""
"html-keyboard-response","69","196125","0.0-8.0-0.61","6455490f7c5f35e4221a810a","650c16f0f2faf8d7a0d14c09","651c1e14c6eaf8f5c63ff5e6","null","null","<p style=""font-size: 60px; font-family: BACS"">lGZvukbY</p>","","","","","","","","",""
"html-keyboard-response","70","197128","0.0-8.0-0.62","6455490f7c5f35e4221a810a","650c16f0f2faf8d7a0d14c09","651c1e14c6eaf8f5c63ff5e6","null","null","<p style=""font-size: 60px; font-family: BACS"">YmBdTmc</p>","","","","","","","","",""
"html-keyboard-response","71","198134","0.0-8.0-0.63","6455490f7c5f35e4221a810a","650c16f0f2faf8d7a0d14c09","651c1e14c6eaf8f5c63ff5e6","null","null","<p style=""font-size: 60px; font-family: BACS"">RlAKcRCdc</p>","","","","","","","","",""
"html-keyboard-response","72","199140","0.0-8.0-0.64","6455490f7c5f35e4221a810a","650c16f0f2faf8d7a0d14c09","651c1e14c6eaf8f5c63ff5e6","null","null","<p style=""font-size: 60px; font-family: BACS"">rcmuvukbY</p>","","","","","","","","",""
"html-keyboard-response","73","200145","0.0-8.0-0.65","6455490f7c5f35e4221a810a","650c16f0f2faf8d7a0d14c09","651c1e14c6eaf8f5c63ff5e6","null","null","<p style=""font-size: 60px; font-family: BACS"">JmNkrAm</p>","","","","","","","","",""
"html-keyboard-response","74","201152","0.0-8.0-0.66","6455490f7c5f35e4221a810a","650c16f0f2faf8d7a0d14c09","651c1e14c6eaf8f5c63ff5e6","null","null","<p style=""font-size: 60px; font-family: BACS"">YmBdMCkm</p>","","","","","","","","",""
"html-keyboard-response","75","202160","0.0-8.0-0.67","6455490f7c5f35e4221a810a","650c16f0f2faf8d7a0d14c09","651c1e14c6eaf8f5c63ff5e6","null","null","<p style=""font-size: 60px; font-family: BACS"">kDRKcPTl</p>","","","","","","","","",""
"html-keyboard-response","76","203166","0.0-8.0-0.68","6455490f7c5f35e4221a810a","650c16f0f2faf8d7a0d14c09","651c1e14c6eaf8f5c63ff5e6","null","null","<p style=""font-size: 60px; font-family: BACS"">COtBDATc</p>","","","","","","","","",""
"html-keyboard-response","77","204175","0.0-8.0-0.69","6455490f7c5f35e4221a810a","650c16f0f2faf8d7a0d14c09","651c1e14c6eaf8f5c63ff5e6","null","null","<p style=""font-size: 60px; font-family: BACS"">rcmuvrZYd</p>","","","","","","","","",""
"html-keyboard-response","78","205182","0.0-8.0-0.70","6455490f7c5f35e4221a810a","650c16f0f2faf8d7a0d14c09","651c1e14c6eaf8f5c63ff5e6","null","null","<p style=""font-size: 60px; font-family: BACS"">mLdkZUdvY</p>","","","","","","","","",""
"html-keyboard-response","79","206187","0.0-8.0-0.71","6455490f7c5f35e4221a810a","650c16f0f2faf8d7a0d14c09","651c1e14c6eaf8f5c63ff5e6","null","null","<p style=""font-size: 60px; font-family: BACS"">TDKhMCkm</p>","","","","","","","","",""
"html-keyboard-response","80","207194","0.0-8.0-0.72","6455490f7c5f35e4221a810a","650c16f0f2faf8d7a0d14c09","651c1e14c6eaf8f5c63ff5e6","null","null","<p style=""font-size: 60px; font-family: BACS"">bvuZbadk</p>","","","","","","","","",""
"html-keyboard-response","81","208201","0.0-8.0-0.73","6455490f7c5f35e4221a810a","650c16f0f2faf8d7a0d14c09","651c1e14c6eaf8f5c63ff5e6","null","null","<p style=""font-size: 60px; font-family: BACS"">AlUYUdvY</p>","","","","","","","","",""
"html-keyboard-response","82","209206","0.0-8.0-0.74","6455490f7c5f35e4221a810a","650c16f0f2faf8d7a0d14c09","651c1e14c6eaf8f5c63ff5e6","null","null","<p style=""font-size: 60px; font-family: BACS"">CYPcPTl</p>","","","","","","","","",""
"html-keyboard-response","83","210218","0.0-8.0-0.75","6455490f7c5f35e4221a810a","650c16f0f2faf8d7a0d14c09","651c1e14c6eaf8f5c63ff5e6","null","null","<p style=""font-size: 60px; font-family: BACS"">JmNkrZYd</p>","","","","","","","","",""
"html-keyboard-response","84","211225","0.0-8.0-0.76","6455490f7c5f35e4221a810a","650c16f0f2faf8d7a0d14c09","651c1e14c6eaf8f5c63ff5e6","null","null","<p style=""font-size: 60px; font-family: BACS"">kDRKcMCkm</p>","","","","","","","","",""
"html-keyboard-response","85","212235","0.0-8.0-0.77","6455490f7c5f35e4221a810a","650c16f0f2faf8d7a0d14c09","651c1e14c6eaf8f5c63ff5e6","null","null","<p style=""font-size: 60px; font-family: BACS"">BATOcPTl</p>","","","","","","","","",""
"html-keyboard-response","86","213239","0.0-8.0-0.78","6455490f7c5f35e4221a810a","650c16f0f2faf8d7a0d14c09","651c1e14c6eaf8f5c63ff5e6","null","null","<p style=""font-size: 60px; font-family: BACS"">Zvalvbadk</p>","","","","","","","","",""
"html-keyboard-response","87","214246","0.0-8.0-0.79","6455490f7c5f35e4221a810a","650c16f0f2faf8d7a0d14c09","651c1e14c6eaf8f5c63ff5e6","null","null","<p style=""font-size: 60px; font-family: BACS"">bvuZrAm</p>","","","","","","","","",""
"html-keyboard-response","88","225363","0.0-9.0","6455490f7c5f35e4221a810a","650c16f0f2faf8d7a0d14c09","651c1e14c6eaf8f5c63ff5e6","11116"," ","<p>Great, you've seen the first block of words. You may now take a short break.</p>
      <p>Press the spacebar when you're ready to continue.</p>","","","","","","","","",""
"html-keyboard-response","89","226374","0.0-10.0-0.0","6455490f7c5f35e4221a810a","650c16f0f2faf8d7a0d14c09","651c1e14c6eaf8f5c63ff5e6","null","null","<p style=""font-size: 60px; font-family: BACS"">MlthRCdc</p>","","","","","","","","",""
"html-keyboard-response","90","227379","0.0-10.0-0.1","6455490f7c5f35e4221a810a","650c16f0f2faf8d7a0d14c09","651c1e14c6eaf8f5c63ff5e6","null","null","<p style=""font-size: 60px; font-family: BACS"">rcmuvrZYd</p>","","","","","","","","",""
"html-keyboard-response","91","228386","0.0-10.0-0.2","6455490f7c5f35e4221a810a","650c16f0f2faf8d7a0d14c09","651c1e14c6eaf8f5c63ff5e6","null","null","<p style=""font-size: 60px; font-family: BACS"">TDKhMCkm</p>","","","","","","","","",""
"html-keyboard-response","92","229392","0.0-10.0-0.3","6455490f7c5f35e4221a810a","650c16f0f2faf8d7a0d14c09","651c1e14c6eaf8f5c63ff5e6","null","null","<p style=""font-size: 60px; font-family: BACS"">lGZvrZYd</p>","","","","","","","","",""
"html-keyboard-response","93","230400","0.0-10.0-0.4","6455490f7c5f35e4221a810a","650c16f0f2faf8d7a0d14c09","651c1e14c6eaf8f5c63ff5e6","null","null","<p style=""font-size: 60px; font-family: BACS"">TDKhATc</p>","","","","","","","","",""
"html-keyboard-response","94","231412","0.0-10.0-0.5","6455490f7c5f35e4221a810a","650c16f0f2faf8d7a0d14c09","651c1e14c6eaf8f5c63ff5e6","null","null","<p style=""font-size: 60px; font-family: BACS"">rcmuvukbY</p>","","","","","","","","",""
"html-keyboard-response","95","232419","0.0-10.0-0.6","6455490f7c5f35e4221a810a","650c16f0f2faf8d7a0d14c09","651c1e14c6eaf8f5c63ff5e6","null","null","<p style=""font-size: 60px; font-family: BACS"">RlAKcTmc</p>","","","","","","","","",""
"html-keyboard-response","96","233421","0.0-10.0-0.7","6455490f7c5f35e4221a810a","650c16f0f2faf8d7a0d14c09","651c1e14c6eaf8f5c63ff5e6","null","null","<p style=""font-size: 60px; font-family: BACS"">ZvalvukbY</p>","","","","","","","","",""
"html-keyboard-response","97","234428","0.0-10.0-0.8","6455490f7c5f35e4221a810a","650c16f0f2faf8d7a0d14c09","651c1e14c6eaf8f5c63ff5e6","null","null","<p style=""font-size: 60px; font-family: BACS"">TDKhPTl</p>","","","","","","","","",""
"html-keyboard-response","98","235437","0.0-10.0-0.9","6455490f7c5f35e4221a810a","650c16f0f2faf8d7a0d14c09","651c1e14c6eaf8f5c63ff5e6","null","null","<p style=""font-size: 60px; font-family: BACS"">ukYZukbY</p>","","","","","","","","",""
"html-keyboard-response","99","236438","0.0-10.0-0.10","6455490f7c5f35e4221a810a","650c16f0f2faf8d7a0d14c09","651c1e14c6eaf8f5c63ff5e6","null","null","<p style=""font-size: 60px; font-family: BACS"">KRARmRCdc</p>","","","","","","","","",""
"html-keyboard-response","100","237444","0.0-10.0-0.11","6455490f7c5f35e4221a810a","650c16f0f2faf8d7a0d14c09","651c1e14c6eaf8f5c63ff5e6","null","null","<p style=""font-size: 60px; font-family: BACS"">lGZvUdvY</p>","","","","","","","","",""
"html-keyboard-response","101","238448","0.0-10.0-0.12","6455490f7c5f35e4221a810a","650c16f0f2faf8d7a0d14c09","651c1e14c6eaf8f5c63ff5e6","null","null","<p style=""font-size: 60px; font-family: BACS"">BATOcRCdc</p>","","","","","","","","",""
"html-keyboard-response","102","239453","0.0-10.0-0.13","6455490f7c5f35e4221a810a","650c16f0f2faf8d7a0d14c09","651c1e14c6eaf8f5c63ff5e6","null","null","<p style=""font-size: 60px; font-family: BACS"">ldAaukbY</p>","","","","","","","","",""
"html-keyboard-response","103","240461","0.0-10.0-0.14","6455490f7c5f35e4221a810a","650c16f0f2faf8d7a0d14c09","651c1e14c6eaf8f5c63ff5e6","null","null","<p style=""font-size: 60px; font-family: BACS"">PhktkTmc</p>","","","","","","","","",""
"html-keyboard-response","104","241467","0.0-10.0-0.15","6455490f7c5f35e4221a810a","650c16f0f2faf8d7a0d14c09","651c1e14c6eaf8f5c63ff5e6","null","null","<p style=""font-size: 60px; font-family: BACS"">OJGQUdvY</p>","","","","","","","","",""
"html-keyboard-response","105","242469","0.0-10.0-0.16","6455490f7c5f35e4221a810a","650c16f0f2faf8d7a0d14c09","651c1e14c6eaf8f5c63ff5e6","null","null","<p style=""font-size: 60px; font-family: BACS"">MlthMCkm</p>","","","","","","","","",""
"html-keyboard-response","106","243475","0.0-10.0-0.17","6455490f7c5f35e4221a810a","650c16f0f2faf8d7a0d14c09","651c1e14c6eaf8f5c63ff5e6","null","null","<p style=""font-size: 60px; font-family: BACS"">OJGQrAm</p>","","","","","","","","",""
"html-keyboard-response","107","244480","0.0-10.0-0.18","6455490f7c5f35e4221a810a","650c16f0f2faf8d7a0d14c09","651c1e14c6eaf8f5c63ff5e6","null","null","<p style=""font-size: 60px; font-family: BACS"">BATOcATc</p>","","","","","","","","",""
"html-keyboard-response","108","245484","0.0-10.0-0.19","6455490f7c5f35e4221a810a","650c16f0f2faf8d7a0d14c09","651c1e14c6eaf8f5c63ff5e6","null","null","<p style=""font-size: 60px; font-family: BACS"">mLdkZbadk</p>","","","","","","","","",""
"html-keyboard-response","109","246494","0.0-10.0-0.20","6455490f7c5f35e4221a810a","650c16f0f2faf8d7a0d14c09","651c1e14c6eaf8f5c63ff5e6","null","null","<p style=""font-size: 60px; font-family: BACS"">PhktkPTl</p>","","","","","","","","",""
"html-keyboard-response","110","247503","0.0-10.0-0.21","6455490f7c5f35e4221a810a","650c16f0f2faf8d7a0d14c09","651c1e14c6eaf8f5c63ff5e6","null","null","<p style=""font-size: 60px; font-family: BACS"">rcmuvbadk</p>","","","","","","","","",""
"html-keyboard-response","111","248510","0.0-10.0-0.22","6455490f7c5f35e4221a810a","650c16f0f2faf8d7a0d14c09","651c1e14c6eaf8f5c63ff5e6","null","null","<p style=""font-size: 60px; font-family: BACS"">ldAarAm</p>","","","","","","","","",""
"html-keyboard-response","112","249513","0.0-10.0-0.23","6455490f7c5f35e4221a810a","650c16f0f2faf8d7a0d14c09","651c1e14c6eaf8f5c63ff5e6","null","null","<p style=""font-size: 60px; font-family: BACS"">RlAKcATc</p>","","","","","","","","",""
"html-keyboard-response","113","250521","0.0-10.0-0.24","6455490f7c5f35e4221a810a","650c16f0f2faf8d7a0d14c09","651c1e14c6eaf8f5c63ff5e6","null","null","<p style=""font-size: 60px; font-family: BACS"">KRARmMCkm</p>","","","","","","","","",""
"html-keyboard-response","114","251528","0.0-10.0-0.25","6455490f7c5f35e4221a810a","650c16f0f2faf8d7a0d14c09","651c1e14c6eaf8f5c63ff5e6","null","null","<p style=""font-size: 60px; font-family: BACS"">lGZvukbY</p>","","","","","","","","",""
"html-keyboard-response","115","252540","0.0-10.0-0.26","6455490f7c5f35e4221a810a","650c16f0f2faf8d7a0d14c09","651c1e14c6eaf8f5c63ff5e6","null","null","<p style=""font-size: 60px; font-family: BACS"">CYPcMCkm</p>","","","","","","","","",""
"html-keyboard-response","116","253547","0.0-10.0-0.27","6455490f7c5f35e4221a810a","650c16f0f2faf8d7a0d14c09","651c1e14c6eaf8f5c63ff5e6","null","null","<p style=""font-size: 60px; font-family: BACS"">mLdkZUdvY</p>","","","","","","","","",""
"html-keyboard-response","117","254552","0.0-10.0-0.28","6455490f7c5f35e4221a810a","650c16f0f2faf8d7a0d14c09","651c1e14c6eaf8f5c63ff5e6","null","null","<p style=""font-size: 60px; font-family: BACS"">bvuZbadk</p>","","","","","","","","",""
"html-keyboard-response","118","255560","0.0-10.0-0.29","6455490f7c5f35e4221a810a","650c16f0f2faf8d7a0d14c09","651c1e14c6eaf8f5c63ff5e6","null","null","<p style=""font-size: 60px; font-family: BACS"">YmBdRCdc</p>","","","","","","","","",""
"html-keyboard-response","119","256564","0.0-10.0-0.30","6455490f7c5f35e4221a810a","650c16f0f2faf8d7a0d14c09","651c1e14c6eaf8f5c63ff5e6","null","null","<p style=""font-size: 60px; font-family: BACS"">COtBDTmc</p>","","","","","","","","",""
"html-keyboard-response","120","257569","0.0-10.0-0.31","6455490f7c5f35e4221a810a","650c16f0f2faf8d7a0d14c09","651c1e14c6eaf8f5c63ff5e6","null","null","<p style=""font-size: 60px; font-family: BACS"">ukYZrAm</p>","","","","","","","","",""
"html-keyboard-response","121","258577","0.0-10.0-0.32","6455490f7c5f35e4221a810a","650c16f0f2faf8d7a0d14c09","651c1e14c6eaf8f5c63ff5e6","null","null","<p style=""font-size: 60px; font-family: BACS"">BATOcPTl</p>","","","","","","","","",""
"html-keyboard-response","122","259584","0.0-10.0-0.33","6455490f7c5f35e4221a810a","650c16f0f2faf8d7a0d14c09","651c1e14c6eaf8f5c63ff5e6","null","null","<p style=""font-size: 60px; font-family: BACS"">kDRKcATc</p>","","","","","","","","",""
"html-keyboard-response","123","260587","0.0-10.0-0.34","6455490f7c5f35e4221a810a","650c16f0f2faf8d7a0d14c09","651c1e14c6eaf8f5c63ff5e6","null","null","<p style=""font-size: 60px; font-family: BACS"">OJGQrZYd</p>","","","","","","","","",""
"html-keyboard-response","124","261595","0.0-10.0-0.35","6455490f7c5f35e4221a810a","650c16f0f2faf8d7a0d14c09","651c1e14c6eaf8f5c63ff5e6","null","null","<p style=""font-size: 60px; font-family: BACS"">AlUYukbY</p>","","","","","","","","",""
"html-keyboard-response","125","262601","0.0-10.0-0.36","6455490f7c5f35e4221a810a","650c16f0f2faf8d7a0d14c09","651c1e14c6eaf8f5c63ff5e6","null","null","<p style=""font-size: 60px; font-family: BACS"">ZvalvUdvY</p>","","","","","","","","",""
"html-keyboard-response","126","263616","0.0-10.0-0.37","6455490f7c5f35e4221a810a","650c16f0f2faf8d7a0d14c09","651c1e14c6eaf8f5c63ff5e6","null","null","<p style=""font-size: 60px; font-family: BACS"">ldAarZYd</p>","","","","","","","","",""
"html-keyboard-response","127","264625","0.0-10.0-0.38","6455490f7c5f35e4221a810a","650c16f0f2faf8d7a0d14c09","651c1e14c6eaf8f5c63ff5e6","null","null","<p style=""font-size: 60px; font-family: BACS"">YmBdMCkm</p>","","","","","","","","",""
"html-keyboard-response","128","265631","0.0-10.0-0.39","6455490f7c5f35e4221a810a","650c16f0f2faf8d7a0d14c09","651c1e14c6eaf8f5c63ff5e6","null","null","<p style=""font-size: 60px; font-family: BACS"">TDKhRCdc</p>","","","","","","","","",""
"html-keyboard-response","129","266644","0.0-10.0-0.40","6455490f7c5f35e4221a810a","650c16f0f2faf8d7a0d14c09","651c1e14c6eaf8f5c63ff5e6","null","null","<p style=""font-size: 60px; font-family: BACS"">RlAKcMCkm</p>","","","","","","","","",""
"html-keyboard-response","130","267647","0.0-10.0-0.41","6455490f7c5f35e4221a810a","650c16f0f2faf8d7a0d14c09","651c1e14c6eaf8f5c63ff5e6","null","null","<p style=""font-size: 60px; font-family: BACS"">CYPcPTl</p>","","","","","","","","",""
"html-keyboard-response","131","268647","0.0-10.0-0.42","6455490f7c5f35e4221a810a","650c16f0f2faf8d7a0d14c09","651c1e14c6eaf8f5c63ff5e6","null","null","<p style=""font-size: 60px; font-family: BACS"">OJGQukbY</p>","","","","","","","","",""
"html-keyboard-response","132","269662","0.0-10.0-0.43","6455490f7c5f35e4221a810a","650c16f0f2faf8d7a0d14c09","651c1e14c6eaf8f5c63ff5e6","null","null","<p style=""font-size: 60px; font-family: BACS"">MlthTmc</p>","","","","","","","","",""
"html-keyboard-response","133","270663","0.0-10.0-0.44","6455490f7c5f35e4221a810a","650c16f0f2faf8d7a0d14c09","651c1e14c6eaf8f5c63ff5e6","null","null","<p style=""font-size: 60px; font-family: BACS"">ukYZUdvY</p>","","","","","","","","",""
"html-keyboard-response","134","271664","0.0-10.0-0.45","6455490f7c5f35e4221a810a","650c16f0f2faf8d7a0d14c09","651c1e14c6eaf8f5c63ff5e6","null","null","<p style=""font-size: 60px; font-family: BACS"">ZvalvrZYd</p>","","","","","","","","",""
"html-keyboard-response","135","272668","0.0-10.0-0.46","6455490f7c5f35e4221a810a","650c16f0f2faf8d7a0d14c09","651c1e14c6eaf8f5c63ff5e6","null","null","<p style=""font-size: 60px; font-family: BACS"">lGZvbadk</p>","","","","","","","","",""
"html-keyboard-response","136","273669","0.0-10.0-0.47","6455490f7c5f35e4221a810a","650c16f0f2faf8d7a0d14c09","651c1e14c6eaf8f5c63ff5e6","null","null","<p style=""font-size: 60px; font-family: BACS"">JmNkrAm</p>","","","","","","","","",""
"html-keyboard-response","137","274673","0.0-10.0-0.48","6455490f7c5f35e4221a810a","650c16f0f2faf8d7a0d14c09","651c1e14c6eaf8f5c63ff5e6","null","null","<p style=""font-size: 60px; font-family: BACS"">PhktkATc</p>","","","","","","","","",""
"html-keyboard-response","138","275674","0.0-10.0-0.49","6455490f7c5f35e4221a810a","650c16f0f2faf8d7a0d14c09","651c1e14c6eaf8f5c63ff5e6","null","null","<p style=""font-size: 60px; font-family: BACS"">JmNkbadk</p>","","","","","","","","",""
"html-keyboard-response","139","276676","0.0-10.0-0.50","6455490f7c5f35e4221a810a","650c16f0f2faf8d7a0d14c09","651c1e14c6eaf8f5c63ff5e6","null","null","<p style=""font-size: 60px; font-family: BACS"">kDRKcPTl</p>","","","","","","","","",""
"html-keyboard-response","140","277691","0.0-10.0-0.51","6455490f7c5f35e4221a810a","650c16f0f2faf8d7a0d14c09","651c1e14c6eaf8f5c63ff5e6","null","null","<p style=""font-size: 60px; font-family: BACS"">AlUYrAm</p>","","","","","","","","",""
"html-keyboard-response","141","278692","0.0-10.0-0.52","6455490f7c5f35e4221a810a","650c16f0f2faf8d7a0d14c09","651c1e14c6eaf8f5c63ff5e6","null","null","<p style=""font-size: 60px; font-family: BACS"">bvuZUdvY</p>","","","","","","","","",""
"html-keyboard-response","142","279702","0.0-10.0-0.53","6455490f7c5f35e4221a810a","650c16f0f2faf8d7a0d14c09","651c1e14c6eaf8f5c63ff5e6","null","null","<p style=""font-size: 60px; font-family: BACS"">BATOcTmc</p>","","","","","","","","",""
"html-keyboard-response","143","280703","0.0-10.0-0.54","6455490f7c5f35e4221a810a","650c16f0f2faf8d7a0d14c09","651c1e14c6eaf8f5c63ff5e6","null","null","<p style=""font-size: 60px; font-family: BACS"">JmNkrZYd</p>","","","","","","","","",""
"html-keyboard-response","144","281710","0.0-10.0-0.55","6455490f7c5f35e4221a810a","650c16f0f2faf8d7a0d14c09","651c1e14c6eaf8f5c63ff5e6","null","null","<p style=""font-size: 60px; font-family: BACS"">CYPcRCdc</p>","","","","","","","","",""
"html-keyboard-response","145","282711","0.0-10.0-0.56","6455490f7c5f35e4221a810a","650c16f0f2faf8d7a0d14c09","651c1e14c6eaf8f5c63ff5e6","null","null","<p style=""font-size: 60px; font-family: BACS"">kDRKcMCkm</p>","","","","","","","","",""
"html-keyboard-response","146","283712","0.0-10.0-0.57","6455490f7c5f35e4221a810a","650c16f0f2faf8d7a0d14c09","651c1e14c6eaf8f5c63ff5e6","null","null","<p style=""font-size: 60px; font-family: BACS"">KRARmTmc</p>","","","","","","","","",""
"html-keyboard-response","147","284717","0.0-10.0-0.58","6455490f7c5f35e4221a810a","650c16f0f2faf8d7a0d14c09","651c1e14c6eaf8f5c63ff5e6","null","null","<p style=""font-size: 60px; font-family: BACS"">COtBDRCdc</p>","","","","","","","","",""
"html-keyboard-response","148","285719","0.0-10.0-0.59","6455490f7c5f35e4221a810a","650c16f0f2faf8d7a0d14c09","651c1e14c6eaf8f5c63ff5e6","null","null","<p style=""font-size: 60px; font-family: BACS"">KRARmPTl</p>","","","","","","","","",""
"html-keyboard-response","149","286734","0.0-10.0-0.60","6455490f7c5f35e4221a810a","650c16f0f2faf8d7a0d14c09","651c1e14c6eaf8f5c63ff5e6","null","null","<p style=""font-size: 60px; font-family: BACS"">CYPcATc</p>","","","","","","","","",""
"html-keyboard-response","150","287735","0.0-10.0-0.61","6455490f7c5f35e4221a810a","650c16f0f2faf8d7a0d14c09","651c1e14c6eaf8f5c63ff5e6","null","null","<p style=""font-size: 60px; font-family: BACS"">AlUYrZYd</p>","","","","","","","","",""
"html-keyboard-response","151","288736","0.0-10.0-0.62","6455490f7c5f35e4221a810a","650c16f0f2faf8d7a0d14c09","651c1e14c6eaf8f5c63ff5e6","null","null","<p style=""font-size: 60px; font-family: BACS"">COtBDPTl</p>","","","","","","","","",""
"html-keyboard-response","152","289738","0.0-10.0-0.63","6455490f7c5f35e4221a810a","650c16f0f2faf8d7a0d14c09","651c1e14c6eaf8f5c63ff5e6","null","null","<p style=""font-size: 60px; font-family: BACS"">MlthATc</p>","","","","","","","","",""
"html-keyboard-response","153","290740","0.0-10.0-0.64","6455490f7c5f35e4221a810a","650c16f0f2faf8d7a0d14c09","651c1e14c6eaf8f5c63ff5e6","null","null","<p style=""font-size: 60px; font-family: BACS"">rcmuvrAm</p>","","","","","","","","",""
"html-keyboard-response","154","291741","0.0-10.0-0.65","6455490f7c5f35e4221a810a","650c16f0f2faf8d7a0d14c09","651c1e14c6eaf8f5c63ff5e6","null","null","<p style=""font-size: 60px; font-family: BACS"">bvuZukbY</p>","","","","","","","","",""
"html-keyboard-response","155","292742","0.0-10.0-0.66","6455490f7c5f35e4221a810a","650c16f0f2faf8d7a0d14c09","651c1e14c6eaf8f5c63ff5e6","null","null","<p style=""font-size: 60px; font-family: BACS"">YmBdPTl</p>","","","","","","","","",""
"html-keyboard-response","156","293743","0.0-10.0-0.67","6455490f7c5f35e4221a810a","650c16f0f2faf8d7a0d14c09","651c1e14c6eaf8f5c63ff5e6","null","null","<p style=""font-size: 60px; font-family: BACS"">ukYZbadk</p>","","","","","","","","",""
"html-keyboard-response","157","294752","0.0-10.0-0.68","6455490f7c5f35e4221a810a","650c16f0f2faf8d7a0d14c09","651c1e14c6eaf8f5c63ff5e6","null","null","<p style=""font-size: 60px; font-family: BACS"">AlUYUdvY</p>","","","","","","","","",""
"html-keyboard-response","158","295759","0.0-10.0-0.69","6455490f7c5f35e4221a810a","650c16f0f2faf8d7a0d14c09","651c1e14c6eaf8f5c63ff5e6","null","null","<p style=""font-size: 60px; font-family: BACS"">mLdkZrAm</p>","","","","","","","","",""
"html-keyboard-response","159","296761","0.0-10.0-0.70","6455490f7c5f35e4221a810a","650c16f0f2faf8d7a0d14c09","651c1e14c6eaf8f5c63ff5e6","null","null","<p style=""font-size: 60px; font-family: BACS"">YmBdTmc</p>","","","","","","","","",""
"html-keyboard-response","160","297762","0.0-10.0-0.71","6455490f7c5f35e4221a810a","650c16f0f2faf8d7a0d14c09","651c1e14c6eaf8f5c63ff5e6","null","null","<p style=""font-size: 60px; font-family: BACS"">PhktkMCkm</p>","","","","","","","","",""
"html-keyboard-response","161","298764","0.0-10.0-0.72","6455490f7c5f35e4221a810a","650c16f0f2faf8d7a0d14c09","651c1e14c6eaf8f5c63ff5e6","null","null","<p style=""font-size: 60px; font-family: BACS"">COtBDATc</p>","","","","","","","","",""
"html-keyboard-response","162","299764","0.0-10.0-0.73","6455490f7c5f35e4221a810a","650c16f0f2faf8d7a0d14c09","651c1e14c6eaf8f5c63ff5e6","null","null","<p style=""font-size: 60px; font-family: BACS"">JmNkUdvY</p>","","","","","","","","",""
"html-keyboard-response","163","300766","0.0-10.0-0.74","6455490f7c5f35e4221a810a","650c16f0f2faf8d7a0d14c09","651c1e14c6eaf8f5c63ff5e6","null","null","<p style=""font-size: 60px; font-family: BACS"">RlAKcRCdc</p>","","","","","","","","",""
"html-keyboard-response","164","301769","0.0-10.0-0.75","6455490f7c5f35e4221a810a","650c16f0f2faf8d7a0d14c09","651c1e14c6eaf8f5c63ff5e6","null","null","<p style=""font-size: 60px; font-family: BACS"">mLdkZrZYd</p>","","","","","","","","",""
"html-keyboard-response","165","302777","0.0-10.0-0.76","6455490f7c5f35e4221a810a","650c16f0f2faf8d7a0d14c09","651c1e14c6eaf8f5c63ff5e6","null","null","<p style=""font-size: 60px; font-family: BACS"">ldAabadk</p>","","","","","","","","",""
"html-keyboard-response","166","303783","0.0-10.0-0.77","6455490f7c5f35e4221a810a","650c16f0f2faf8d7a0d14c09","651c1e14c6eaf8f5c63ff5e6","null","null","<p style=""font-size: 60px; font-family: BACS"">kDRKcTmc</p>","","","","","","","","",""
"html-keyboard-response","167","304784","0.0-10.0-0.78","6455490f7c5f35e4221a810a","650c16f0f2faf8d7a0d14c09","651c1e14c6eaf8f5c63ff5e6","null","null","<p style=""font-size: 60px; font-family: BACS"">Zvalvbadk</p>","","","","","","","","",""
"html-keyboard-response","168","305785","0.0-10.0-0.79","6455490f7c5f35e4221a810a","650c16f0f2faf8d7a0d14c09","651c1e14c6eaf8f5c63ff5e6","null","null","<p style=""font-size: 60px; font-family: BACS"">bvuZrAm</p>","","","","","","","","",""
"html-keyboard-response","169","338743","0.0-11.0","6455490f7c5f35e4221a810a","650c16f0f2faf8d7a0d14c09","651c1e14c6eaf8f5c63ff5e6","32956"," ","<p>Great, you've seen the second block of words. You may now take a short break.</p>
      <p>Press the spacebar when you're ready to continue.</p>","","","","","","","","",""
"html-keyboard-response","170","339744","0.0-12.0-0.0","6455490f7c5f35e4221a810a","650c16f0f2faf8d7a0d14c09","651c1e14c6eaf8f5c63ff5e6","null","null","<p style=""font-size: 60px; font-family: BACS"">rcmuvukbY</p>","","","","","","","","",""
"html-keyboard-response","171","340745","0.0-12.0-0.1","6455490f7c5f35e4221a810a","650c16f0f2faf8d7a0d14c09","651c1e14c6eaf8f5c63ff5e6","null","null","<p style=""font-size: 60px; font-family: BACS"">PhktkPTl</p>","","","","","","","","",""
"html-keyboard-response","172","341745","0.0-12.0-0.2","6455490f7c5f35e4221a810a","650c16f0f2faf8d7a0d14c09","651c1e14c6eaf8f5c63ff5e6","null","null","<p style=""font-size: 60px; font-family: BACS"">mLdkZUdvY</p>","","","","","","","","",""
"html-keyboard-response","173","342755","0.0-12.0-0.3","6455490f7c5f35e4221a810a","650c16f0f2faf8d7a0d14c09","651c1e14c6eaf8f5c63ff5e6","null","null","<p style=""font-size: 60px; font-family: BACS"">kDRKcPTl</p>","","","","","","","","",""
"html-keyboard-response","174","343756","0.0-12.0-0.4","6455490f7c5f35e4221a810a","650c16f0f2faf8d7a0d14c09","651c1e14c6eaf8f5c63ff5e6","null","null","<p style=""font-size: 60px; font-family: BACS"">ldAabadk</p>","","","","","","","","",""
"html-keyboard-response","175","344756","0.0-12.0-0.5","6455490f7c5f35e4221a810a","650c16f0f2faf8d7a0d14c09","651c1e14c6eaf8f5c63ff5e6","null","null","<p style=""font-size: 60px; font-family: BACS"">COtBDPTl</p>","","","","","","","","",""
"html-keyboard-response","176","345757","0.0-12.0-0.6","6455490f7c5f35e4221a810a","650c16f0f2faf8d7a0d14c09","651c1e14c6eaf8f5c63ff5e6","null","null","<p style=""font-size: 60px; font-family: BACS"">ldAarZYd</p>","","","","","","","","",""
"html-keyboard-response","177","346762","0.0-12.0-0.7","6455490f7c5f35e4221a810a","650c16f0f2faf8d7a0d14c09","651c1e14c6eaf8f5c63ff5e6","null","null","<p style=""font-size: 60px; font-family: BACS"">RlAKcATc</p>","","","","","","","","",""
"html-keyboard-response","178","347763","0.0-12.0-0.8","6455490f7c5f35e4221a810a","650c16f0f2faf8d7a0d14c09","651c1e14c6eaf8f5c63ff5e6","null","null","<p style=""font-size: 60px; font-family: BACS"">bvuZbadk</p>","","","","","","","","",""
"html-keyboard-response","179","348765","0.0-12.0-0.9","6455490f7c5f35e4221a810a","650c16f0f2faf8d7a0d14c09","651c1e14c6eaf8f5c63ff5e6","null","null","<p style=""font-size: 60px; font-family: BACS"">YmBdRCdc</p>","","","","","","","","",""
"html-keyboard-response","180","349765","0.0-12.0-0.10","6455490f7c5f35e4221a810a","650c16f0f2faf8d7a0d14c09","651c1e14c6eaf8f5c63ff5e6","null","null","<p style=""font-size: 60px; font-family: BACS"">AlUYrZYd</p>","","","","","","","","",""
"html-keyboard-response","181","350767","0.0-12.0-0.11","6455490f7c5f35e4221a810a","650c16f0f2faf8d7a0d14c09","651c1e14c6eaf8f5c63ff5e6","null","null","<p style=""font-size: 60px; font-family: BACS"">MlthTmc</p>","","","","","","","","",""
"html-keyboard-response","182","351773","0.0-12.0-0.12","6455490f7c5f35e4221a810a","650c16f0f2faf8d7a0d14c09","651c1e14c6eaf8f5c63ff5e6","null","null","<p style=""font-size: 60px; font-family: BACS"">rcmuvrZYd</p>","","","","","","","","",""
"html-keyboard-response","183","352774","0.0-12.0-0.13","6455490f7c5f35e4221a810a","650c16f0f2faf8d7a0d14c09","651c1e14c6eaf8f5c63ff5e6","null","null","<p style=""font-size: 60px; font-family: BACS"">CYPcMCkm</p>","","","","","","","","",""
"html-keyboard-response","184","353787","0.0-12.0-0.14","6455490f7c5f35e4221a810a","650c16f0f2faf8d7a0d14c09","651c1e14c6eaf8f5c63ff5e6","null","null","<p style=""font-size: 60px; font-family: BACS"">MlthRCdc</p>","","","","","","","","",""
"html-keyboard-response","185","354789","0.0-12.0-0.15","6455490f7c5f35e4221a810a","650c16f0f2faf8d7a0d14c09","651c1e14c6eaf8f5c63ff5e6","null","null","<p style=""font-size: 60px; font-family: BACS"">JmNkUdvY</p>","","","","","","","","",""
"html-keyboard-response","186","355790","0.0-12.0-0.16","6455490f7c5f35e4221a810a","650c16f0f2faf8d7a0d14c09","651c1e14c6eaf8f5c63ff5e6","null","null","<p style=""font-size: 60px; font-family: BACS"">OJGQukbY</p>","","","","","","","","",""
"html-keyboard-response","187","356801","0.0-12.0-0.17","6455490f7c5f35e4221a810a","650c16f0f2faf8d7a0d14c09","651c1e14c6eaf8f5c63ff5e6","null","null","<p style=""font-size: 60px; font-family: BACS"">lGZvUdvY</p>","","","","","","","","",""
"html-keyboard-response","188","357803","0.0-12.0-0.18","6455490f7c5f35e4221a810a","650c16f0f2faf8d7a0d14c09","651c1e14c6eaf8f5c63ff5e6","null","null","<p style=""font-size: 60px; font-family: BACS"">CYPcATc</p>","","","","","","","","",""
"html-keyboard-response","189","358804","0.0-12.0-0.19","6455490f7c5f35e4221a810a","650c16f0f2faf8d7a0d14c09","651c1e14c6eaf8f5c63ff5e6","null","null","<p style=""font-size: 60px; font-family: BACS"">Zvalvbadk</p>","","","","","","","","",""
"html-keyboard-response","190","359805","0.0-12.0-0.20","6455490f7c5f35e4221a810a","650c16f0f2faf8d7a0d14c09","651c1e14c6eaf8f5c63ff5e6","null","null","<p style=""font-size: 60px; font-family: BACS"">BATOcATc</p>","","","","","","","","",""
"html-keyboard-response","191","360812","0.0-12.0-0.21","6455490f7c5f35e4221a810a","650c16f0f2faf8d7a0d14c09","651c1e14c6eaf8f5c63ff5e6","null","null","<p style=""font-size: 60px; font-family: BACS"">lGZvbadk</p>","","","","","","","","",""
"html-keyboard-response","192","361813","0.0-12.0-0.22","6455490f7c5f35e4221a810a","650c16f0f2faf8d7a0d14c09","651c1e14c6eaf8f5c63ff5e6","null","null","<p style=""font-size: 60px; font-family: BACS"">OJGQrZYd</p>","","","","","","","","",""
"html-keyboard-response","193","362814","0.0-12.0-0.23","6455490f7c5f35e4221a810a","650c16f0f2faf8d7a0d14c09","651c1e14c6eaf8f5c63ff5e6","null","null","<p style=""font-size: 60px; font-family: BACS"">BATOcTmc</p>","","","","","","","","",""
"html-keyboard-response","194","363815","0.0-12.0-0.24","6455490f7c5f35e4221a810a","650c16f0f2faf8d7a0d14c09","651c1e14c6eaf8f5c63ff5e6","null","null","<p style=""font-size: 60px; font-family: BACS"">JmNkrAm</p>","","","","","","","","",""
"html-keyboard-response","195","364817","0.0-12.0-0.25","6455490f7c5f35e4221a810a","650c16f0f2faf8d7a0d14c09","651c1e14c6eaf8f5c63ff5e6","null","null","<p style=""font-size: 60px; font-family: BACS"">RlAKcRCdc</p>","","","","","","","","",""
"html-keyboard-response","196","365818","0.0-12.0-0.26","6455490f7c5f35e4221a810a","650c16f0f2faf8d7a0d14c09","651c1e14c6eaf8f5c63ff5e6","null","null","<p style=""font-size: 60px; font-family: BACS"">kDRKcTmc</p>","","","","","","","","",""
"html-keyboard-response","197","366829","0.0-12.0-0.27","6455490f7c5f35e4221a810a","650c16f0f2faf8d7a0d14c09","651c1e14c6eaf8f5c63ff5e6","null","null","<p style=""font-size: 60px; font-family: BACS"">KRARmRCdc</p>","","","","","","","","",""
"html-keyboard-response","198","367830","0.0-12.0-0.28","6455490f7c5f35e4221a810a","650c16f0f2faf8d7a0d14c09","651c1e14c6eaf8f5c63ff5e6","null","null","<p style=""font-size: 60px; font-family: BACS"">bvuZukbY</p>","","","","","","","","",""
"html-keyboard-response","199","368831","0.0-12.0-0.29","6455490f7c5f35e4221a810a","650c16f0f2faf8d7a0d14c09","651c1e14c6eaf8f5c63ff5e6","null","null","<p style=""font-size: 60px; font-family: BACS"">JmNkrZYd</p>","","","","","","","","",""
"html-keyboard-response","200","369834","0.0-12.0-0.30","6455490f7c5f35e4221a810a","650c16f0f2faf8d7a0d14c09","651c1e14c6eaf8f5c63ff5e6","null","null","<p style=""font-size: 60px; font-family: BACS"">RlAKcMCkm</p>","","","","","","","","",""
"html-keyboard-response","201","370836","0.0-12.0-0.31","6455490f7c5f35e4221a810a","650c16f0f2faf8d7a0d14c09","651c1e14c6eaf8f5c63ff5e6","null","null","<p style=""font-size: 60px; font-family: BACS"">ZvalvUdvY</p>","","","","","","","","",""
"html-keyboard-response","202","371849","0.0-12.0-0.32","6455490f7c5f35e4221a810a","650c16f0f2faf8d7a0d14c09","651c1e14c6eaf8f5c63ff5e6","null","null","<p style=""font-size: 60px; font-family: BACS"">rcmuvbadk</p>","","","","","","","","",""
"html-keyboard-response","203","372850","0.0-12.0-0.33","6455490f7c5f35e4221a810a","650c16f0f2faf8d7a0d14c09","651c1e14c6eaf8f5c63ff5e6","null","null","<p style=""font-size: 60px; font-family: BACS"">PhktkTmc</p>","","","","","","","","",""
"html-keyboard-response","204","373851","0.0-12.0-0.34","6455490f7c5f35e4221a810a","650c16f0f2faf8d7a0d14c09","651c1e14c6eaf8f5c63ff5e6","null","null","<p style=""font-size: 60px; font-family: BACS"">TDKhATc</p>","","","","","","","","",""
"html-keyboard-response","205","374852","0.0-12.0-0.35","6455490f7c5f35e4221a810a","650c16f0f2faf8d7a0d14c09","651c1e14c6eaf8f5c63ff5e6","null","null","<p style=""font-size: 60px; font-family: BACS"">CYPcPTl</p>","","","","","","","","",""
"html-keyboard-response","206","375854","0.0-12.0-0.36","6455490f7c5f35e4221a810a","650c16f0f2faf8d7a0d14c09","651c1e14c6eaf8f5c63ff5e6","null","null","<p style=""font-size: 60px; font-family: BACS"">COtBDATc</p>","","","","","","","","",""
"html-keyboard-response","207","376855","0.0-12.0-0.37","6455490f7c5f35e4221a810a","650c16f0f2faf8d7a0d14c09","651c1e14c6eaf8f5c63ff5e6","null","null","<p style=""font-size: 60px; font-family: BACS"">AlUYukbY</p>","","","","","","","","",""
"html-keyboard-response","208","377865","0.0-12.0-0.38","6455490f7c5f35e4221a810a","650c16f0f2faf8d7a0d14c09","651c1e14c6eaf8f5c63ff5e6","null","null","<p style=""font-size: 60px; font-family: BACS"">bvuZUdvY</p>","","","","","","","","",""
"html-keyboard-response","209","378871","0.0-12.0-0.39","6455490f7c5f35e4221a810a","650c16f0f2faf8d7a0d14c09","651c1e14c6eaf8f5c63ff5e6","null","null","<p style=""font-size: 60px; font-family: BACS"">MlthATc</p>","","","","","","","","",""
"html-keyboard-response","210","379872","0.0-12.0-0.40","6455490f7c5f35e4221a810a","650c16f0f2faf8d7a0d14c09","651c1e14c6eaf8f5c63ff5e6","null","null","<p style=""font-size: 60px; font-family: BACS"">BATOcRCdc</p>","","","","","","","","",""
"html-keyboard-response","211","380873","0.0-12.0-0.41","6455490f7c5f35e4221a810a","650c16f0f2faf8d7a0d14c09","651c1e14c6eaf8f5c63ff5e6","null","null","<p style=""font-size: 60px; font-family: BACS"">KRARmMCkm</p>","","","","","","","","",""
"html-keyboard-response","212","381874","0.0-12.0-0.42","6455490f7c5f35e4221a810a","650c16f0f2faf8d7a0d14c09","651c1e14c6eaf8f5c63ff5e6","null","null","<p style=""font-size: 60px; font-family: BACS"">ukYZbadk</p>","","","","","","","","",""
"html-keyboard-response","213","382875","0.0-12.0-0.43","6455490f7c5f35e4221a810a","650c16f0f2faf8d7a0d14c09","651c1e14c6eaf8f5c63ff5e6","null","null","<p style=""font-size: 60px; font-family: BACS"">kDRKcATc</p>","","","","","","","","",""
"html-keyboard-response","214","383876","0.0-12.0-0.44","6455490f7c5f35e4221a810a","650c16f0f2faf8d7a0d14c09","651c1e14c6eaf8f5c63ff5e6","null","null","<p style=""font-size: 60px; font-family: BACS"">lGZvukbY</p>","","","","","","","","",""
"html-keyboard-response","215","384878","0.0-12.0-0.45","6455490f7c5f35e4221a810a","650c16f0f2faf8d7a0d14c09","651c1e14c6eaf8f5c63ff5e6","null","null","<p style=""font-size: 60px; font-family: BACS"">AlUYUdvY</p>","","","","","","","","",""
"html-keyboard-response","216","385879","0.0-12.0-0.46","6455490f7c5f35e4221a810a","650c16f0f2faf8d7a0d14c09","651c1e14c6eaf8f5c63ff5e6","null","null","<p style=""font-size: 60px; font-family: BACS"">mLdkZrAm</p>","","","","","","","","",""
"html-keyboard-response","217","386881","0.0-12.0-0.47","6455490f7c5f35e4221a810a","650c16f0f2faf8d7a0d14c09","651c1e14c6eaf8f5c63ff5e6","null","null","<p style=""font-size: 60px; font-family: BACS"">TDKhRCdc</p>","","","","","","","","",""
"html-keyboard-response","218","387890","0.0-12.0-0.48","6455490f7c5f35e4221a810a","650c16f0f2faf8d7a0d14c09","651c1e14c6eaf8f5c63ff5e6","null","null","<p style=""font-size: 60px; font-family: BACS"">YmBdMCkm</p>","","","","","","","","",""
"html-keyboard-response","219","388895","0.0-12.0-0.49","6455490f7c5f35e4221a810a","650c16f0f2faf8d7a0d14c09","651c1e14c6eaf8f5c63ff5e6","null","null","<p style=""font-size: 60px; font-family: BACS"">ZvalvukbY</p>","","","","","","","","",""
"html-keyboard-response","220","389897","0.0-12.0-0.50","6455490f7c5f35e4221a810a","650c16f0f2faf8d7a0d14c09","651c1e14c6eaf8f5c63ff5e6","null","null","<p style=""font-size: 60px; font-family: BACS"">MlthMCkm</p>","","","","","","","","",""
"html-keyboard-response","221","390904","0.0-12.0-0.51","6455490f7c5f35e4221a810a","650c16f0f2faf8d7a0d14c09","651c1e14c6eaf8f5c63ff5e6","null","null","<p style=""font-size: 60px; font-family: BACS"">COtBDTmc</p>","","","","","","","","",""
"html-keyboard-response","222","391911","0.0-12.0-0.52","6455490f7c5f35e4221a810a","650c16f0f2faf8d7a0d14c09","651c1e14c6eaf8f5c63ff5e6","null","null","<p style=""font-size: 60px; font-family: BACS"">PhktkMCkm</p>","","","","","","","","",""
"html-keyboard-response","223","392917","0.0-12.0-0.53","6455490f7c5f35e4221a810a","650c16f0f2faf8d7a0d14c09","651c1e14c6eaf8f5c63ff5e6","null","null","<p style=""font-size: 60px; font-family: BACS"">BATOcPTl</p>","","","","","","","","",""
"html-keyboard-response","224","393918","0.0-12.0-0.54","6455490f7c5f35e4221a810a","650c16f0f2faf8d7a0d14c09","651c1e14c6eaf8f5c63ff5e6","null","null","<p style=""font-size: 60px; font-family: BACS"">ZvalvrZYd</p>","","","","","","","","",""
"html-keyboard-response","225","394919","0.0-12.0-0.55","6455490f7c5f35e4221a810a","650c16f0f2faf8d7a0d14c09","651c1e14c6eaf8f5c63ff5e6","null","null","<p style=""font-size: 60px; font-family: BACS"">PhktkATc</p>","","","","","","","","",""
"html-keyboard-response","226","395920","0.0-12.0-0.56","6455490f7c5f35e4221a810a","650c16f0f2faf8d7a0d14c09","651c1e14c6eaf8f5c63ff5e6","null","null","<p style=""font-size: 60px; font-family: BACS"">bvuZrAm</p>","","","","","","","","",""
"html-keyboard-response","227","396921","0.0-12.0-0.57","6455490f7c5f35e4221a810a","650c16f0f2faf8d7a0d14c09","651c1e14c6eaf8f5c63ff5e6","null","null","<p style=""font-size: 60px; font-family: BACS"">OJGQUdvY</p>","","","","","","","","",""
"html-keyboard-response","228","397926","0.0-12.0-0.58","6455490f7c5f35e4221a810a","650c16f0f2faf8d7a0d14c09","651c1e14c6eaf8f5c63ff5e6","null","null","<p style=""font-size: 60px; font-family: BACS"">ukYZrAm</p>","","","","","","","","",""
"html-keyboard-response","229","398927","0.0-12.0-0.59","6455490f7c5f35e4221a810a","650c16f0f2faf8d7a0d14c09","651c1e14c6eaf8f5c63ff5e6","null","null","<p style=""font-size: 60px; font-family: BACS"">TDKhMCkm</p>","","","","","","","","",""
"html-keyboard-response","230","399940","0.0-12.0-0.60","6455490f7c5f35e4221a810a","650c16f0f2faf8d7a0d14c09","651c1e14c6eaf8f5c63ff5e6","null","null","<p style=""font-size: 60px; font-family: BACS"">COtBDRCdc</p>","","","","","","","","",""
"html-keyboard-response","231","400947","0.0-12.0-0.61","6455490f7c5f35e4221a810a","650c16f0f2faf8d7a0d14c09","651c1e14c6eaf8f5c63ff5e6","null","null","<p style=""font-size: 60px; font-family: BACS"">kDRKcMCkm</p>","","","","","","","","",""
"html-keyboard-response","232","401954","0.0-12.0-0.62","6455490f7c5f35e4221a810a","650c16f0f2faf8d7a0d14c09","651c1e14c6eaf8f5c63ff5e6","null","null","<p style=""font-size: 60px; font-family: BACS"">ukYZukbY</p>","","","","","","","","",""
"html-keyboard-response","233","402954","0.0-12.0-0.63","6455490f7c5f35e4221a810a","650c16f0f2faf8d7a0d14c09","651c1e14c6eaf8f5c63ff5e6","null","null","<p style=""font-size: 60px; font-family: BACS"">CYPcRCdc</p>","","","","","","","","",""
"html-keyboard-response","234","403968","0.0-12.0-0.64","6455490f7c5f35e4221a810a","650c16f0f2faf8d7a0d14c09","651c1e14c6eaf8f5c63ff5e6","null","null","<p style=""font-size: 60px; font-family: BACS"">KRARmTmc</p>","","","","","","","","",""
"html-keyboard-response","235","404976","0.0-12.0-0.65","6455490f7c5f35e4221a810a","650c16f0f2faf8d7a0d14c09","651c1e14c6eaf8f5c63ff5e6","null","null","<p style=""font-size: 60px; font-family: BACS"">OJGQrAm</p>","","","","","","","","",""
"html-keyboard-response","236","405977","0.0-12.0-0.66","6455490f7c5f35e4221a810a","650c16f0f2faf8d7a0d14c09","651c1e14c6eaf8f5c63ff5e6","null","null","<p style=""font-size: 60px; font-family: BACS"">TDKhPTl</p>","","","","","","","","",""
"html-keyboard-response","237","406978","0.0-12.0-0.67","6455490f7c5f35e4221a810a","650c16f0f2faf8d7a0d14c09","651c1e14c6eaf8f5c63ff5e6","null","null","<p style=""font-size: 60px; font-family: BACS"">JmNkbadk</p>","","","","","","","","",""
"html-keyboard-response","238","407980","0.0-12.0-0.68","6455490f7c5f35e4221a810a","650c16f0f2faf8d7a0d14c09","651c1e14c6eaf8f5c63ff5e6","null","null","<p style=""font-size: 60px; font-family: BACS"">AlUYrAm</p>","","","","","","","","",""
"html-keyboard-response","239","408984","0.0-12.0-0.69","6455490f7c5f35e4221a810a","650c16f0f2faf8d7a0d14c09","651c1e14c6eaf8f5c63ff5e6","null","null","<p style=""font-size: 60px; font-family: BACS"">YmBdTmc</p>","","","","","","","","",""
"html-keyboard-response","240","409985","0.0-12.0-0.70","6455490f7c5f35e4221a810a","650c16f0f2faf8d7a0d14c09","651c1e14c6eaf8f5c63ff5e6","null","null","<p style=""font-size: 60px; font-family: BACS"">mLdkZrZYd</p>","","","","","","","","",""
"html-keyboard-response","241","410986","0.0-12.0-0.71","6455490f7c5f35e4221a810a","650c16f0f2faf8d7a0d14c09","651c1e14c6eaf8f5c63ff5e6","null","null","<p style=""font-size: 60px; font-family: BACS"">YmBdPTl</p>","","","","","","","","",""
"html-keyboard-response","242","411987","0.0-12.0-0.72","6455490f7c5f35e4221a810a","650c16f0f2faf8d7a0d14c09","651c1e14c6eaf8f5c63ff5e6","null","null","<p style=""font-size: 60px; font-family: BACS"">ldAaukbY</p>","","","","","","","","",""
"html-keyboard-response","243","412988","0.0-12.0-0.73","6455490f7c5f35e4221a810a","650c16f0f2faf8d7a0d14c09","651c1e14c6eaf8f5c63ff5e6","null","null","<p style=""font-size: 60px; font-family: BACS"">ukYZUdvY</p>","","","","","","","","",""
"html-keyboard-response","244","413989","0.0-12.0-0.74","6455490f7c5f35e4221a810a","650c16f0f2faf8d7a0d14c09","651c1e14c6eaf8f5c63ff5e6","null","null","<p style=""font-size: 60px; font-family: BACS"">lGZvrZYd</p>","","","","","","","","",""
"html-keyboard-response","245","414990","0.0-12.0-0.75","6455490f7c5f35e4221a810a","650c16f0f2faf8d7a0d14c09","651c1e14c6eaf8f5c63ff5e6","null","null","<p style=""font-size: 60px; font-family: BACS"">rcmuvrAm</p>","","","","","","","","",""
"html-keyboard-response","246","415991","0.0-12.0-0.76","6455490f7c5f35e4221a810a","650c16f0f2faf8d7a0d14c09","651c1e14c6eaf8f5c63ff5e6","null","null","<p style=""font-size: 60px; font-family: BACS"">KRARmPTl</p>","","","","","","","","",""
"html-keyboard-response","247","416999","0.0-12.0-0.77","6455490f7c5f35e4221a810a","650c16f0f2faf8d7a0d14c09","651c1e14c6eaf8f5c63ff5e6","null","null","<p style=""font-size: 60px; font-family: BACS"">RlAKcTmc</p>","","","","","","","","",""
"html-keyboard-response","248","418000","0.0-12.0-0.78","6455490f7c5f35e4221a810a","650c16f0f2faf8d7a0d14c09","651c1e14c6eaf8f5c63ff5e6","null","null","<p style=""font-size: 60px; font-family: BACS"">ldAarAm</p>","","","","","","","","",""
"html-keyboard-response","249","419000","0.0-12.0-0.79","6455490f7c5f35e4221a810a","650c16f0f2faf8d7a0d14c09","651c1e14c6eaf8f5c63ff5e6","null","null","<p style=""font-size: 60px; font-family: BACS"">mLdkZbadk</p>","","","","","","","","",""
"html-keyboard-response","250","422908","0.0-13.0","6455490f7c5f35e4221a810a","650c16f0f2faf8d7a0d14c09","651c1e14c6eaf8f5c63ff5e6","3907"," ","<p>Great, you've seen the third block of words. You may now take a short break.</p>
      <p>Press the spacebar when you're ready to continue.</p>","","","","","","","","",""
"html-keyboard-response","251","423909","0.0-14.0-0.0","6455490f7c5f35e4221a810a","650c16f0f2faf8d7a0d14c09","651c1e14c6eaf8f5c63ff5e6","null","null","<p style=""font-size: 60px; font-family: BACS"">kDRKcMCkm</p>","","","","","","","","",""
"html-keyboard-response","252","424911","0.0-14.0-0.1","6455490f7c5f35e4221a810a","650c16f0f2faf8d7a0d14c09","651c1e14c6eaf8f5c63ff5e6","null","null","<p style=""font-size: 60px; font-family: BACS"">CYPcRCdc</p>","","","","","","","","",""
"html-keyboard-response","253","425913","0.0-14.0-0.2","6455490f7c5f35e4221a810a","650c16f0f2faf8d7a0d14c09","651c1e14c6eaf8f5c63ff5e6","null","null","<p style=""font-size: 60px; font-family: BACS"">lGZvbadk</p>","","","","","","","","",""
"html-keyboard-response","254","426913","0.0-14.0-0.3","6455490f7c5f35e4221a810a","650c16f0f2faf8d7a0d14c09","651c1e14c6eaf8f5c63ff5e6","null","null","<p style=""font-size: 60px; font-family: BACS"">PhktkPTl</p>","","","","","","","","",""
"html-keyboard-response","255","427915","0.0-14.0-0.4","6455490f7c5f35e4221a810a","650c16f0f2faf8d7a0d14c09","651c1e14c6eaf8f5c63ff5e6","null","null","<p style=""font-size: 60px; font-family: BACS"">TDKhRCdc</p>","","","","","","","","",""
"html-keyboard-response","256","428916","0.0-14.0-0.5","6455490f7c5f35e4221a810a","650c16f0f2faf8d7a0d14c09","651c1e14c6eaf8f5c63ff5e6","null","null","<p style=""font-size: 60px; font-family: BACS"">ukYZbadk</p>","","","","","","","","",""
"html-keyboard-response","257","429917","0.0-14.0-0.6","6455490f7c5f35e4221a810a","650c16f0f2faf8d7a0d14c09","651c1e14c6eaf8f5c63ff5e6","null","null","<p style=""font-size: 60px; font-family: BACS"">bvuZrAm</p>","","","","","","","","",""
"html-keyboard-response","258","430918","0.0-14.0-0.7","6455490f7c5f35e4221a810a","650c16f0f2faf8d7a0d14c09","651c1e14c6eaf8f5c63ff5e6","null","null","<p style=""font-size: 60px; font-family: BACS"">lGZvUdvY</p>","","","","","","","","",""
"html-keyboard-response","259","431919","0.0-14.0-0.8","6455490f7c5f35e4221a810a","650c16f0f2faf8d7a0d14c09","651c1e14c6eaf8f5c63ff5e6","null","null","<p style=""font-size: 60px; font-family: BACS"">kDRKcPTl</p>","","","","","","","","",""
"html-keyboard-response","260","432920","0.0-14.0-0.9","6455490f7c5f35e4221a810a","650c16f0f2faf8d7a0d14c09","651c1e14c6eaf8f5c63ff5e6","null","null","<p style=""font-size: 60px; font-family: BACS"">ZvalvukbY</p>","","","","","","","","",""
"html-keyboard-response","261","433928","0.0-14.0-0.10","6455490f7c5f35e4221a810a","650c16f0f2faf8d7a0d14c09","651c1e14c6eaf8f5c63ff5e6","null","null","<p style=""font-size: 60px; font-family: BACS"">mLdkZbadk</p>","","","","","","","","",""
"html-keyboard-response","262","434934","0.0-14.0-0.11","6455490f7c5f35e4221a810a","650c16f0f2faf8d7a0d14c09","651c1e14c6eaf8f5c63ff5e6","null","null","<p style=""font-size: 60px; font-family: BACS"">RlAKcTmc</p>","","","","","","","","",""
"html-keyboard-response","263","435936","0.0-14.0-0.12","6455490f7c5f35e4221a810a","650c16f0f2faf8d7a0d14c09","651c1e14c6eaf8f5c63ff5e6","null","null","<p style=""font-size: 60px; font-family: BACS"">OJGQrZYd</p>","","","","","","","","",""
"html-keyboard-response","264","436936","0.0-14.0-0.13","6455490f7c5f35e4221a810a","650c16f0f2faf8d7a0d14c09","651c1e14c6eaf8f5c63ff5e6","null","null","<p style=""font-size: 60px; font-family: BACS"">JmNkrAm</p>","","","","","","","","",""
"html-keyboard-response","265","437951","0.0-14.0-0.14","6455490f7c5f35e4221a810a","650c16f0f2faf8d7a0d14c09","651c1e14c6eaf8f5c63ff5e6","null","null","<p style=""font-size: 60px; font-family: BACS"">kDRKcATc</p>","","","","","","","","",""
"html-keyboard-response","266","438952","0.0-14.0-0.15","6455490f7c5f35e4221a810a","650c16f0f2faf8d7a0d14c09","651c1e14c6eaf8f5c63ff5e6","null","null","<p style=""font-size: 60px; font-family: BACS"">bvuZukbY</p>","","","","","","","","",""
"html-keyboard-response","267","439953","0.0-14.0-0.16","6455490f7c5f35e4221a810a","650c16f0f2faf8d7a0d14c09","651c1e14c6eaf8f5c63ff5e6","null","null","<p style=""font-size: 60px; font-family: BACS"">ldAabadk</p>","","","","","","","","",""
"html-keyboard-response","268","440961","0.0-14.0-0.17","6455490f7c5f35e4221a810a","650c16f0f2faf8d7a0d14c09","651c1e14c6eaf8f5c63ff5e6","null","null","<p style=""font-size: 60px; font-family: BACS"">YmBdTmc</p>","","","","","","","","",""
"html-keyboard-response","269","441972","0.0-14.0-0.18","6455490f7c5f35e4221a810a","650c16f0f2faf8d7a0d14c09","651c1e14c6eaf8f5c63ff5e6","null","null","<p style=""font-size: 60px; font-family: BACS"">mLdkZrZYd</p>","","","","","","","","",""
"html-keyboard-response","270","442973","0.0-14.0-0.19","6455490f7c5f35e4221a810a","650c16f0f2faf8d7a0d14c09","651c1e14c6eaf8f5c63ff5e6","null","null","<p style=""font-size: 60px; font-family: BACS"">YmBdPTl</p>","","","","","","","","",""
"html-keyboard-response","271","443980","0.0-14.0-0.20","6455490f7c5f35e4221a810a","650c16f0f2faf8d7a0d14c09","651c1e14c6eaf8f5c63ff5e6","null","null","<p style=""font-size: 60px; font-family: BACS"">TDKhATc</p>","","","","","","","","",""
"html-keyboard-response","272","444985","0.0-14.0-0.21","6455490f7c5f35e4221a810a","650c16f0f2faf8d7a0d14c09","651c1e14c6eaf8f5c63ff5e6","null","null","<p style=""font-size: 60px; font-family: BACS"">JmNkrZYd</p>","","","","","","","","",""
"html-keyboard-response","273","445986","0.0-14.0-0.22","6455490f7c5f35e4221a810a","650c16f0f2faf8d7a0d14c09","651c1e14c6eaf8f5c63ff5e6","null","null","<p style=""font-size: 60px; font-family: BACS"">BATOcTmc</p>","","","","","","","","",""
"html-keyboard-response","274","446998","0.0-14.0-0.23","6455490f7c5f35e4221a810a","650c16f0f2faf8d7a0d14c09","651c1e14c6eaf8f5c63ff5e6","null","null","<p style=""font-size: 60px; font-family: BACS"">ZvalvrZYd</p>","","","","","","","","",""
"html-keyboard-response","275","447999","0.0-14.0-0.24","6455490f7c5f35e4221a810a","650c16f0f2faf8d7a0d14c09","651c1e14c6eaf8f5c63ff5e6","null","null","<p style=""font-size: 60px; font-family: BACS"">COtBDRCdc</p>","","","","","","","","",""
"html-keyboard-response","276","449000","0.0-14.0-0.25","6455490f7c5f35e4221a810a","650c16f0f2faf8d7a0d14c09","651c1e14c6eaf8f5c63ff5e6","null","null","<p style=""font-size: 60px; font-family: BACS"">lGZvukbY</p>","","","","","","","","",""
"html-keyboard-response","277","450010","0.0-14.0-0.26","6455490f7c5f35e4221a810a","650c16f0f2faf8d7a0d14c09","651c1e14c6eaf8f5c63ff5e6","null","null","<p style=""font-size: 60px; font-family: BACS"">PhktkTmc</p>","","","","","","","","",""
"html-keyboard-response","278","451011","0.0-14.0-0.27","6455490f7c5f35e4221a810a","650c16f0f2faf8d7a0d14c09","651c1e14c6eaf8f5c63ff5e6","null","null","<p style=""font-size: 60px; font-family: BACS"">AlUYrAm</p>","","","","","","","","",""
"html-keyboard-response","279","452013","0.0-14.0-0.28","6455490f7c5f35e4221a810a","650c16f0f2faf8d7a0d14c09","651c1e14c6eaf8f5c63ff5e6","null","null","<p style=""font-size: 60px; font-family: BACS"">OJGQUdvY</p>","","","","","","","","",""
"html-keyboard-response","280","453014","0.0-14.0-0.29","6455490f7c5f35e4221a810a","650c16f0f2faf8d7a0d14c09","651c1e14c6eaf8f5c63ff5e6","null","null","<p style=""font-size: 60px; font-family: BACS"">KRARmPTl</p>","","","","","","","","",""
"html-keyboard-response","281","454025","0.0-14.0-0.30","6455490f7c5f35e4221a810a","650c16f0f2faf8d7a0d14c09","651c1e14c6eaf8f5c63ff5e6","null","null","<p style=""font-size: 60px; font-family: BACS"">BATOcATc</p>","","","","","","","","",""
"html-keyboard-response","282","455027","0.0-14.0-0.31","6455490f7c5f35e4221a810a","650c16f0f2faf8d7a0d14c09","651c1e14c6eaf8f5c63ff5e6","null","null","<p style=""font-size: 60px; font-family: BACS"">YmBdMCkm</p>","","","","","","","","",""
"html-keyboard-response","283","456032","0.0-14.0-0.32","6455490f7c5f35e4221a810a","650c16f0f2faf8d7a0d14c09","651c1e14c6eaf8f5c63ff5e6","null","null","<p style=""font-size: 60px; font-family: BACS"">Zvalvbadk</p>","","","","","","","","",""
"html-keyboard-response","284","457038","0.0-14.0-0.33","6455490f7c5f35e4221a810a","650c16f0f2faf8d7a0d14c09","651c1e14c6eaf8f5c63ff5e6","null","null","<p style=""font-size: 60px; font-family: BACS"">KRARmMCkm</p>","","","","","","","","",""
"html-keyboard-response","285","458049","0.0-14.0-0.34","6455490f7c5f35e4221a810a","650c16f0f2faf8d7a0d14c09","651c1e14c6eaf8f5c63ff5e6","null","null","<p style=""font-size: 60px; font-family: BACS"">rcmuvrAm</p>","","","","","","","","",""
"html-keyboard-response","286","459057","0.0-14.0-0.35","6455490f7c5f35e4221a810a","650c16f0f2faf8d7a0d14c09","651c1e14c6eaf8f5c63ff5e6","null","null","<p style=""font-size: 60px; font-family: BACS"">PhktkMCkm</p>","","","","","","","","",""
"html-keyboard-response","287","460058","0.0-14.0-0.36","6455490f7c5f35e4221a810a","650c16f0f2faf8d7a0d14c09","651c1e14c6eaf8f5c63ff5e6","null","null","<p style=""font-size: 60px; font-family: BACS"">bvuZUdvY</p>","","","","","","","","",""
"html-keyboard-response","288","461074","0.0-14.0-0.37","6455490f7c5f35e4221a810a","650c16f0f2faf8d7a0d14c09","651c1e14c6eaf8f5c63ff5e6","null","null","<p style=""font-size: 60px; font-family: BACS"">mLdkZrAm</p>","","","","","","","","",""
"html-keyboard-response","289","462075","0.0-14.0-0.38","6455490f7c5f35e4221a810a","650c16f0f2faf8d7a0d14c09","651c1e14c6eaf8f5c63ff5e6","null","null","<p style=""font-size: 60px; font-family: BACS"">COtBDPTl</p>","","","","","","","","",""
"html-keyboard-response","290","463085","0.0-14.0-0.39","6455490f7c5f35e4221a810a","650c16f0f2faf8d7a0d14c09","651c1e14c6eaf8f5c63ff5e6","null","null","<p style=""font-size: 60px; font-family: BACS"">ldAarZYd</p>","","","","","","","","",""
"html-keyboard-response","291","464094","0.0-14.0-0.40","6455490f7c5f35e4221a810a","650c16f0f2faf8d7a0d14c09","651c1e14c6eaf8f5c63ff5e6","null","null","<p style=""font-size: 60px; font-family: BACS"">kDRKcTmc</p>","","","","","","","","",""
"html-keyboard-response","292","465094","0.0-14.0-0.41","6455490f7c5f35e4221a810a","650c16f0f2faf8d7a0d14c09","651c1e14c6eaf8f5c63ff5e6","null","null","<p style=""font-size: 60px; font-family: BACS"">MlthRCdc</p>","","","","","","","","",""
"html-keyboard-response","293","466095","0.0-14.0-0.42","6455490f7c5f35e4221a810a","650c16f0f2faf8d7a0d14c09","651c1e14c6eaf8f5c63ff5e6","null","null","<p style=""font-size: 60px; font-family: BACS"">PhktkATc</p>","","","","","","","","",""
"html-keyboard-response","294","467096","0.0-14.0-0.43","6455490f7c5f35e4221a810a","650c16f0f2faf8d7a0d14c09","651c1e14c6eaf8f5c63ff5e6","null","null","<p style=""font-size: 60px; font-family: BACS"">rcmuvrZYd</p>","","","","","","","","",""
"html-keyboard-response","295","468097","0.0-14.0-0.44","6455490f7c5f35e4221a810a","650c16f0f2faf8d7a0d14c09","651c1e14c6eaf8f5c63ff5e6","null","null","<p style=""font-size: 60px; font-family: BACS"">RlAKcMCkm</p>","","","","","","","","",""
"html-keyboard-response","296","469099","0.0-14.0-0.45","6455490f7c5f35e4221a810a","650c16f0f2faf8d7a0d14c09","651c1e14c6eaf8f5c63ff5e6","null","null","<p style=""font-size: 60px; font-family: BACS"">ldAaukbY</p>","","","","","","","","",""
"html-keyboard-response","297","470100","0.0-14.0-0.46","6455490f7c5f35e4221a810a","650c16f0f2faf8d7a0d14c09","651c1e14c6eaf8f5c63ff5e6","null","null","<p style=""font-size: 60px; font-family: BACS"">BATOcRCdc</p>","","","","","","","","",""
"html-keyboard-response","298","471101","0.0-14.0-0.47","6455490f7c5f35e4221a810a","650c16f0f2faf8d7a0d14c09","651c1e14c6eaf8f5c63ff5e6","null","null","<p style=""font-size: 60px; font-family: BACS"">COtBDATc</p>","","","","","","","","",""
"html-keyboard-response","299","472107","0.0-14.0-0.48","6455490f7c5f35e4221a810a","650c16f0f2faf8d7a0d14c09","651c1e14c6eaf8f5c63ff5e6","null","null","<p style=""font-size: 60px; font-family: BACS"">mLdkZUdvY</p>","","","","","","","","",""
"html-keyboard-response","300","473116","0.0-14.0-0.49","6455490f7c5f35e4221a810a","650c16f0f2faf8d7a0d14c09","651c1e14c6eaf8f5c63ff5e6","null","null","<p style=""font-size: 60px; font-family: BACS"">AlUYukbY</p>","","","","","","","","",""
"html-keyboard-response","301","474126","0.0-14.0-0.50","6455490f7c5f35e4221a810a","650c16f0f2faf8d7a0d14c09","651c1e14c6eaf8f5c63ff5e6","null","null","<p style=""font-size: 60px; font-family: BACS"">ZvalvUdvY</p>","","","","","","","","",""
"html-keyboard-response","302","475133","0.0-14.0-0.51","6455490f7c5f35e4221a810a","650c16f0f2faf8d7a0d14c09","651c1e14c6eaf8f5c63ff5e6","null","null","<p style=""font-size: 60px; font-family: BACS"">RlAKcATc</p>","","","","","","","","",""
"html-keyboard-response","303","476147","0.0-14.0-0.52","6455490f7c5f35e4221a810a","650c16f0f2faf8d7a0d14c09","651c1e14c6eaf8f5c63ff5e6","null","null","<p style=""font-size: 60px; font-family: BACS"">BATOcPTl</p>","","","","","","","","",""
"html-keyboard-response","304","477153","0.0-14.0-0.53","6455490f7c5f35e4221a810a","650c16f0f2faf8d7a0d14c09","651c1e14c6eaf8f5c63ff5e6","null","null","<p style=""font-size: 60px; font-family: BACS"">JmNkUdvY</p>","","","","","","","","",""
"html-keyboard-response","305","478157","0.0-14.0-0.54","6455490f7c5f35e4221a810a","650c16f0f2faf8d7a0d14c09","651c1e14c6eaf8f5c63ff5e6","null","null","<p style=""font-size: 60px; font-family: BACS"">ldAarAm</p>","","","","","","","","",""
"html-keyboard-response","306","479165","0.0-14.0-0.55","6455490f7c5f35e4221a810a","650c16f0f2faf8d7a0d14c09","651c1e14c6eaf8f5c63ff5e6","null","null","<p style=""font-size: 60px; font-family: BACS"">AlUYrZYd</p>","","","","","","","","",""
"html-keyboard-response","307","480172","0.0-14.0-0.56","6455490f7c5f35e4221a810a","650c16f0f2faf8d7a0d14c09","651c1e14c6eaf8f5c63ff5e6","null","null","<p style=""font-size: 60px; font-family: BACS"">JmNkbadk</p>","","","","","","","","",""
"html-keyboard-response","308","481180","0.0-14.0-0.57","6455490f7c5f35e4221a810a","650c16f0f2faf8d7a0d14c09","651c1e14c6eaf8f5c63ff5e6","null","null","<p style=""font-size: 60px; font-family: BACS"">MlthATc</p>","","","","","","","","",""
"html-keyboard-response","309","482185","0.0-14.0-0.58","6455490f7c5f35e4221a810a","650c16f0f2faf8d7a0d14c09","651c1e14c6eaf8f5c63ff5e6","null","null","<p style=""font-size: 60px; font-family: BACS"">rcmuvukbY</p>","","","","","","","","",""
"html-keyboard-response","310","483187","0.0-14.0-0.59","6455490f7c5f35e4221a810a","650c16f0f2faf8d7a0d14c09","651c1e14c6eaf8f5c63ff5e6","null","null","<p style=""font-size: 60px; font-family: BACS"">RlAKcRCdc</p>","","","","","","","","",""
"html-keyboard-response","311","484193","0.0-14.0-0.60","6455490f7c5f35e4221a810a","650c16f0f2faf8d7a0d14c09","651c1e14c6eaf8f5c63ff5e6","null","null","<p style=""font-size: 60px; font-family: BACS"">CYPcATc</p>","","","","","","","","",""
"html-keyboard-response","312","485196","0.0-14.0-0.61","6455490f7c5f35e4221a810a","650c16f0f2faf8d7a0d14c09","651c1e14c6eaf8f5c63ff5e6","null","null","<p style=""font-size: 60px; font-family: BACS"">lGZvrZYd</p>","","","","","","","","",""
"html-keyboard-response","313","486204","0.0-14.0-0.62","6455490f7c5f35e4221a810a","650c16f0f2faf8d7a0d14c09","651c1e14c6eaf8f5c63ff5e6","null","null","<p style=""font-size: 60px; font-family: BACS"">TDKhPTl</p>","","","","","","","","",""
"html-keyboard-response","314","487213","0.0-14.0-0.63","6455490f7c5f35e4221a810a","650c16f0f2faf8d7a0d14c09","651c1e14c6eaf8f5c63ff5e6","null","null","<p style=""font-size: 60px; font-family: BACS"">CYPcMCkm</p>","","","","","","","","",""
"html-keyboard-response","315","488217","0.0-14.0-0.64","6455490f7c5f35e4221a810a","650c16f0f2faf8d7a0d14c09","651c1e14c6eaf8f5c63ff5e6","null","null","<p style=""font-size: 60px; font-family: BACS"">ukYZUdvY</p>","","","","","","","","",""
"html-keyboard-response","316","489229","0.0-14.0-0.65","6455490f7c5f35e4221a810a","650c16f0f2faf8d7a0d14c09","651c1e14c6eaf8f5c63ff5e6","null","null","<p style=""font-size: 60px; font-family: BACS"">OJGQrAm</p>","","","","","","","","",""
"html-keyboard-response","317","490234","0.0-14.0-0.66","6455490f7c5f35e4221a810a","650c16f0f2faf8d7a0d14c09","651c1e14c6eaf8f5c63ff5e6","null","null","<p style=""font-size: 60px; font-family: BACS"">rcmuvbadk</p>","","","","","","","","",""
"html-keyboard-response","318","491242","0.0-14.0-0.67","6455490f7c5f35e4221a810a","650c16f0f2faf8d7a0d14c09","651c1e14c6eaf8f5c63ff5e6","null","null","<p style=""font-size: 60px; font-family: BACS"">MlthTmc</p>","","","","","","","","",""
"html-keyboard-response","319","492248","0.0-14.0-0.68","6455490f7c5f35e4221a810a","650c16f0f2faf8d7a0d14c09","651c1e14c6eaf8f5c63ff5e6","null","null","<p style=""font-size: 60px; font-family: BACS"">YmBdRCdc</p>","","","","","","","","",""
"html-keyboard-response","320","493258","0.0-14.0-0.69","6455490f7c5f35e4221a810a","650c16f0f2faf8d7a0d14c09","651c1e14c6eaf8f5c63ff5e6","null","null","<p style=""font-size: 60px; font-family: BACS"">KRARmTmc</p>","","","","","","","","",""
"html-keyboard-response","321","494268","0.0-14.0-0.70","6455490f7c5f35e4221a810a","650c16f0f2faf8d7a0d14c09","651c1e14c6eaf8f5c63ff5e6","null","null","<p style=""font-size: 60px; font-family: BACS"">bvuZbadk</p>","","","","","","","","",""
"html-keyboard-response","322","495276","0.0-14.0-0.71","6455490f7c5f35e4221a810a","650c16f0f2faf8d7a0d14c09","651c1e14c6eaf8f5c63ff5e6","null","null","<p style=""font-size: 60px; font-family: BACS"">AlUYUdvY</p>","","","","","","","","",""
"html-keyboard-response","323","496293","0.0-14.0-0.72","6455490f7c5f35e4221a810a","650c16f0f2faf8d7a0d14c09","651c1e14c6eaf8f5c63ff5e6","null","null","<p style=""font-size: 60px; font-family: BACS"">MlthMCkm</p>","","","","","","","","",""
"html-keyboard-response","324","497303","0.0-14.0-0.73","6455490f7c5f35e4221a810a","650c16f0f2faf8d7a0d14c09","651c1e14c6eaf8f5c63ff5e6","null","null","<p style=""font-size: 60px; font-family: BACS"">ukYZrAm</p>","","","","","","","","",""
"html-keyboard-response","325","498309","0.0-14.0-0.74","6455490f7c5f35e4221a810a","650c16f0f2faf8d7a0d14c09","651c1e14c6eaf8f5c63ff5e6","null","null","<p style=""font-size: 60px; font-family: BACS"">CYPcPTl</p>","","","","","","","","",""
"html-keyboard-response","326","499319","0.0-14.0-0.75","6455490f7c5f35e4221a810a","650c16f0f2faf8d7a0d14c09","651c1e14c6eaf8f5c63ff5e6","null","null","<p style=""font-size: 60px; font-family: BACS"">OJGQukbY</p>","","","","","","","","",""
"html-keyboard-response","327","500327","0.0-14.0-0.76","6455490f7c5f35e4221a810a","650c16f0f2faf8d7a0d14c09","651c1e14c6eaf8f5c63ff5e6","null","null","<p style=""font-size: 60px; font-family: BACS"">COtBDTmc</p>","","","","","","","","",""
"html-keyboard-response","328","501328","0.0-14.0-0.77","6455490f7c5f35e4221a810a","650c16f0f2faf8d7a0d14c09","651c1e14c6eaf8f5c63ff5e6","null","null","<p style=""font-size: 60px; font-family: BACS"">KRARmRCdc</p>","","","","","","","","",""
"html-keyboard-response","329","502336","0.0-14.0-0.78","6455490f7c5f35e4221a810a","650c16f0f2faf8d7a0d14c09","651c1e14c6eaf8f5c63ff5e6","null","null","<p style=""font-size: 60px; font-family: BACS"">ukYZukbY</p>","","","","","","","","",""
"html-keyboard-response","330","503339","0.0-14.0-0.79","6455490f7c5f35e4221a810a","650c16f0f2faf8d7a0d14c09","651c1e14c6eaf8f5c63ff5e6","null","null","<p style=""font-size: 60px; font-family: BACS"">TDKhMCkm</p>","","","","","","","","",""
"html-keyboard-response","331","511137","0.0-15.0","6455490f7c5f35e4221a810a","650c16f0f2faf8d7a0d14c09","651c1e14c6eaf8f5c63ff5e6","7798"," ","<p>Great, you've seen the fourth block of words. You may now take a short break.</p>
      <p>Press the spacebar when you're ready to continue.</p>","","","","","","","","",""
"html-keyboard-response","332","512137","0.0-16.0-0.0","6455490f7c5f35e4221a810a","650c16f0f2faf8d7a0d14c09","651c1e14c6eaf8f5c63ff5e6","null","null","<p style=""font-size: 60px; font-family: BACS"">bvuZrAm</p>","","","","","","","","",""
"html-keyboard-response","333","513139","0.0-16.0-0.1","6455490f7c5f35e4221a810a","650c16f0f2faf8d7a0d14c09","651c1e14c6eaf8f5c63ff5e6","null","null","<p style=""font-size: 60px; font-family: BACS"">bvuZrAm</p>","","","","","","","","",""
"html-keyboard-response","334","514140","0.0-16.0-0.2","6455490f7c5f35e4221a810a","650c16f0f2faf8d7a0d14c09","651c1e14c6eaf8f5c63ff5e6","null","null","<p style=""font-size: 60px; font-family: BACS"">bvuZrAm</p>","","","","","","","","",""
"html-keyboard-response","335","515141","0.0-16.0-0.3","6455490f7c5f35e4221a810a","650c16f0f2faf8d7a0d14c09","651c1e14c6eaf8f5c63ff5e6","null","null","<p style=""font-size: 60px; font-family: BACS"">bvuZrAm</p>","","","","","","","","",""
"html-keyboard-response","336","516143","0.0-16.0-0.4","6455490f7c5f35e4221a810a","650c16f0f2faf8d7a0d14c09","651c1e14c6eaf8f5c63ff5e6","null","null","<p style=""font-size: 60px; font-family: BACS"">bvuZrAm</p>","","","","","","","","",""
"html-keyboard-response","337","517144","0.0-16.0-0.5","6455490f7c5f35e4221a810a","650c16f0f2faf8d7a0d14c09","651c1e14c6eaf8f5c63ff5e6","null","null","<p style=""font-size: 60px; font-family: BACS"">bvuZrAm</p>","","","","","","","","",""
"html-keyboard-response","338","518145","0.0-16.0-0.6","6455490f7c5f35e4221a810a","650c16f0f2faf8d7a0d14c09","651c1e14c6eaf8f5c63ff5e6","null","null","<p style=""font-size: 60px; font-family: BACS"">bvuZrAm</p>","","","","","","","","",""
"html-keyboard-response","339","519146","0.0-16.0-0.7","6455490f7c5f35e4221a810a","650c16f0f2faf8d7a0d14c09","651c1e14c6eaf8f5c63ff5e6","null","null","<p style=""font-size: 60px; font-family: BACS"">bvuZrAm</p>","","","","","","","","",""
"html-keyboard-response","340","520150","0.0-16.0-0.8","6455490f7c5f35e4221a810a","650c16f0f2faf8d7a0d14c09","651c1e14c6eaf8f5c63ff5e6","null","null","<p style=""font-size: 60px; font-family: BACS"">bvuZrAm</p>","","","","","","","","",""
"html-keyboard-response","341","521151","0.0-16.0-0.9","6455490f7c5f35e4221a810a","650c16f0f2faf8d7a0d14c09","651c1e14c6eaf8f5c63ff5e6","null","null","<p style=""font-size: 60px; font-family: BACS"">bvuZrAm</p>","","","","","","","","",""
"html-keyboard-response","342","522161","0.0-16.0-0.10","6455490f7c5f35e4221a810a","650c16f0f2faf8d7a0d14c09","651c1e14c6eaf8f5c63ff5e6","null","null","<p style=""font-size: 60px; font-family: BACS"">bvuZrAm</p>","","","","","","","","",""
"html-keyboard-response","343","523162","0.0-16.0-0.11","6455490f7c5f35e4221a810a","650c16f0f2faf8d7a0d14c09","651c1e14c6eaf8f5c63ff5e6","null","null","<p style=""font-size: 60px; font-family: BACS"">bvuZrAm</p>","","","","","","","","",""
"html-keyboard-response","344","524162","0.0-16.0-0.12","6455490f7c5f35e4221a810a","650c16f0f2faf8d7a0d14c09","651c1e14c6eaf8f5c63ff5e6","null","null","<p style=""font-size: 60px; font-family: BACS"">bvuZrAm</p>","","","","","","","","",""
"html-keyboard-response","345","525163","0.0-16.0-0.13","6455490f7c5f35e4221a810a","650c16f0f2faf8d7a0d14c09","651c1e14c6eaf8f5c63ff5e6","null","null","<p style=""font-size: 60px; font-family: BACS"">bvuZrAm</p>","","","","","","","","",""
"html-keyboard-response","346","526167","0.0-16.0-0.14","6455490f7c5f35e4221a810a","650c16f0f2faf8d7a0d14c09","651c1e14c6eaf8f5c63ff5e6","null","null","<p style=""font-size: 60px; font-family: BACS"">bvuZrAm</p>","","","","","","","","",""
"html-keyboard-response","347","527168","0.0-16.0-0.15","6455490f7c5f35e4221a810a","650c16f0f2faf8d7a0d14c09","651c1e14c6eaf8f5c63ff5e6","null","null","<p style=""font-size: 60px; font-family: BACS"">bvuZrAm</p>","","","","","","","","",""
"html-keyboard-response","348","528183","0.0-16.0-0.16","6455490f7c5f35e4221a810a","650c16f0f2faf8d7a0d14c09","651c1e14c6eaf8f5c63ff5e6","null","null","<p style=""font-size: 60px; font-family: BACS"">bvuZrAm</p>","","","","","","","","",""
"html-keyboard-response","349","529184","0.0-16.0-0.17","6455490f7c5f35e4221a810a","650c16f0f2faf8d7a0d14c09","651c1e14c6eaf8f5c63ff5e6","null","null","<p style=""font-size: 60px; font-family: BACS"">bvuZrAm</p>","","","","","","","","",""
"html-keyboard-response","350","530186","0.0-16.0-0.18","6455490f7c5f35e4221a810a","650c16f0f2faf8d7a0d14c09","651c1e14c6eaf8f5c63ff5e6","null","null","<p style=""font-size: 60px; font-family: BACS"">bvuZrAm</p>","","","","","","","","",""
"html-keyboard-response","351","531200","0.0-16.0-0.19","6455490f7c5f35e4221a810a","650c16f0f2faf8d7a0d14c09","651c1e14c6eaf8f5c63ff5e6","null","null","<p style=""font-size: 60px; font-family: BACS"">bvuZrAm</p>","","","","","","","","",""
"html-keyboard-response","352","532208","0.0-16.0-0.20","6455490f7c5f35e4221a810a","650c16f0f2faf8d7a0d14c09","651c1e14c6eaf8f5c63ff5e6","null","null","<p style=""font-size: 60px; font-family: BACS"">bvuZrAm</p>","","","","","","","","",""
"html-keyboard-response","353","533213","0.0-16.0-0.21","6455490f7c5f35e4221a810a","650c16f0f2faf8d7a0d14c09","651c1e14c6eaf8f5c63ff5e6","null","null","<p style=""font-size: 60px; font-family: BACS"">bvuZrAm</p>","","","","","","","","",""
"html-keyboard-response","354","534219","0.0-16.0-0.22","6455490f7c5f35e4221a810a","650c16f0f2faf8d7a0d14c09","651c1e14c6eaf8f5c63ff5e6","null","null","<p style=""font-size: 60px; font-family: BACS"">bvuZrAm</p>","","","","","","","","",""
"html-keyboard-response","355","535227","0.0-16.0-0.23","6455490f7c5f35e4221a810a","650c16f0f2faf8d7a0d14c09","651c1e14c6eaf8f5c63ff5e6","null","null","<p style=""font-size: 60px; font-family: BACS"">bvuZrAm</p>","","","","","","","","",""
"html-keyboard-response","356","536234","0.0-16.0-0.24","6455490f7c5f35e4221a810a","650c16f0f2faf8d7a0d14c09","651c1e14c6eaf8f5c63ff5e6","null","null","<p style=""font-size: 60px; font-family: BACS"">bvuZrAm</p>","","","","","","","","",""
"html-keyboard-response","357","537240","0.0-16.0-0.25","6455490f7c5f35e4221a810a","650c16f0f2faf8d7a0d14c09","651c1e14c6eaf8f5c63ff5e6","null","null","<p style=""font-size: 60px; font-family: BACS"">bvuZrAm</p>","","","","","","","","",""
"html-keyboard-response","358","538245","0.0-16.0-0.26","6455490f7c5f35e4221a810a","650c16f0f2faf8d7a0d14c09","651c1e14c6eaf8f5c63ff5e6","null","null","<p style=""font-size: 60px; font-family: BACS"">bvuZrAm</p>","","","","","","","","",""
"html-keyboard-response","359","539256","0.0-16.0-0.27","6455490f7c5f35e4221a810a","650c16f0f2faf8d7a0d14c09","651c1e14c6eaf8f5c63ff5e6","null","null","<p style=""font-size: 60px; font-family: BACS"">bvuZrAm</p>","","","","","","","","",""
"html-keyboard-response","360","540261","0.0-16.0-0.28","6455490f7c5f35e4221a810a","650c16f0f2faf8d7a0d14c09","651c1e14c6eaf8f5c63ff5e6","null","null","<p style=""font-size: 60px; font-family: BACS"">bvuZrAm</p>","","","","","","","","",""
"html-keyboard-response","361","541267","0.0-16.0-0.29","6455490f7c5f35e4221a810a","650c16f0f2faf8d7a0d14c09","651c1e14c6eaf8f5c63ff5e6","null","null","<p style=""font-size: 60px; font-family: BACS"">bvuZrAm</p>","","","","","","","","",""
"html-keyboard-response","362","542275","0.0-16.0-0.30","6455490f7c5f35e4221a810a","650c16f0f2faf8d7a0d14c09","651c1e14c6eaf8f5c63ff5e6","null","null","<p style=""font-size: 60px; font-family: BACS"">bvuZrAm</p>","","","","","","","","",""
"html-keyboard-response","363","543281","0.0-16.0-0.31","6455490f7c5f35e4221a810a","650c16f0f2faf8d7a0d14c09","651c1e14c6eaf8f5c63ff5e6","null","null","<p style=""font-size: 60px; font-family: BACS"">bvuZrAm</p>","","","","","","","","",""
"html-keyboard-response","364","544289","0.0-16.0-0.32","6455490f7c5f35e4221a810a","650c16f0f2faf8d7a0d14c09","651c1e14c6eaf8f5c63ff5e6","null","null","<p style=""font-size: 60px; font-family: BACS"">bvuZrAm</p>","","","","","","","","",""
"html-keyboard-response","365","545292","0.0-16.0-0.33","6455490f7c5f35e4221a810a","650c16f0f2faf8d7a0d14c09","651c1e14c6eaf8f5c63ff5e6","null","null","<p style=""font-size: 60px; font-family: BACS"">bvuZrAm</p>","","","","","","","","",""
"html-keyboard-response","366","546300","0.0-16.0-0.34","6455490f7c5f35e4221a810a","650c16f0f2faf8d7a0d14c09","651c1e14c6eaf8f5c63ff5e6","null","null","<p style=""font-size: 60px; font-family: BACS"">bvuZrAm</p>","","","","","","","","",""
"html-keyboard-response","367","547308","0.0-16.0-0.35","6455490f7c5f35e4221a810a","650c16f0f2faf8d7a0d14c09","651c1e14c6eaf8f5c63ff5e6","null","null","<p style=""font-size: 60px; font-family: BACS"">bvuZrAm</p>","","","","","","","","",""
"html-keyboard-response","368","548317","0.0-16.0-0.36","6455490f7c5f35e4221a810a","650c16f0f2faf8d7a0d14c09","651c1e14c6eaf8f5c63ff5e6","null","null","<p style=""font-size: 60px; font-family: BACS"">bvuZrAm</p>","","","","","","","","",""
"html-keyboard-response","369","549329","0.0-16.0-0.37","6455490f7c5f35e4221a810a","650c16f0f2faf8d7a0d14c09","651c1e14c6eaf8f5c63ff5e6","null","null","<p style=""font-size: 60px; font-family: BACS"">bvuZrAm</p>","","","","","","","","",""
"html-keyboard-response","370","550337","0.0-16.0-0.38","6455490f7c5f35e4221a810a","650c16f0f2faf8d7a0d14c09","651c1e14c6eaf8f5c63ff5e6","null","null","<p style=""font-size: 60px; font-family: BACS"">bvuZrAm</p>","","","","","","","","",""
"html-keyboard-response","371","551341","0.0-16.0-0.39","6455490f7c5f35e4221a810a","650c16f0f2faf8d7a0d14c09","651c1e14c6eaf8f5c63ff5e6","null","null","<p style=""font-size: 60px; font-family: BACS"">bvuZrAm</p>","","","","","","","","",""
"html-keyboard-response","372","552342","0.0-16.0-0.40","6455490f7c5f35e4221a810a","650c16f0f2faf8d7a0d14c09","651c1e14c6eaf8f5c63ff5e6","null","null","<p style=""font-size: 60px; font-family: BACS"">bvuZrAm</p>","","","","","","","","",""
"html-keyboard-response","373","553357","0.0-16.0-0.41","6455490f7c5f35e4221a810a","650c16f0f2faf8d7a0d14c09","651c1e14c6eaf8f5c63ff5e6","null","null","<p style=""font-size: 60px; font-family: BACS"">bvuZrAm</p>","","","","","","","","",""
"html-keyboard-response","374","554366","0.0-16.0-0.42","6455490f7c5f35e4221a810a","650c16f0f2faf8d7a0d14c09","651c1e14c6eaf8f5c63ff5e6","null","null","<p style=""font-size: 60px; font-family: BACS"">bvuZrAm</p>","","","","","","","","",""
"html-keyboard-response","375","555368","0.0-16.0-0.43","6455490f7c5f35e4221a810a","650c16f0f2faf8d7a0d14c09","651c1e14c6eaf8f5c63ff5e6","null","null","<p style=""font-size: 60px; font-family: BACS"">bvuZrAm</p>","","","","","","","","",""
"html-keyboard-response","376","556375","0.0-16.0-0.44","6455490f7c5f35e4221a810a","650c16f0f2faf8d7a0d14c09","651c1e14c6eaf8f5c63ff5e6","null","null","<p style=""font-size: 60px; font-family: BACS"">bvuZrAm</p>","","","","","","","","",""
"html-keyboard-response","377","557386","0.0-16.0-0.45","6455490f7c5f35e4221a810a","650c16f0f2faf8d7a0d14c09","651c1e14c6eaf8f5c63ff5e6","null","null","<p style=""font-size: 60px; font-family: BACS"">bvuZrAm</p>","","","","","","","","",""
"html-keyboard-response","378","558402","0.0-16.0-0.46","6455490f7c5f35e4221a810a","650c16f0f2faf8d7a0d14c09","651c1e14c6eaf8f5c63ff5e6","null","null","<p style=""font-size: 60px; font-family: BACS"">bvuZrAm</p>","","","","","","","","",""
"html-keyboard-response","379","559406","0.0-16.0-0.47","6455490f7c5f35e4221a810a","650c16f0f2faf8d7a0d14c09","651c1e14c6eaf8f5c63ff5e6","null","null","<p style=""font-size: 60px; font-family: BACS"">bvuZrAm</p>","","","","","","","","",""
"html-keyboard-response","380","560416","0.0-16.0-0.48","6455490f7c5f35e4221a810a","650c16f0f2faf8d7a0d14c09","651c1e14c6eaf8f5c63ff5e6","null","null","<p style=""font-size: 60px; font-family: BACS"">bvuZrAm</p>","","","","","","","","",""
"html-keyboard-response","381","561418","0.0-16.0-0.49","6455490f7c5f35e4221a810a","650c16f0f2faf8d7a0d14c09","651c1e14c6eaf8f5c63ff5e6","null","null","<p style=""font-size: 60px; font-family: BACS"">bvuZrAm</p>","","","","","","","","",""
"html-keyboard-response","382","562423","0.0-16.0-0.50","6455490f7c5f35e4221a810a","650c16f0f2faf8d7a0d14c09","651c1e14c6eaf8f5c63ff5e6","null","null","<p style=""font-size: 60px; font-family: BACS"">bvuZrAm</p>","","","","","","","","",""
"html-keyboard-response","383","563433","0.0-16.0-0.51","6455490f7c5f35e4221a810a","650c16f0f2faf8d7a0d14c09","651c1e14c6eaf8f5c63ff5e6","null","null","<p style=""font-size: 60px; font-family: BACS"">bvuZrAm</p>","","","","","","","","",""
"html-keyboard-response","384","564439","0.0-16.0-0.52","6455490f7c5f35e4221a810a","650c16f0f2faf8d7a0d14c09","651c1e14c6eaf8f5c63ff5e6","null","null","<p style=""font-size: 60px; font-family: BACS"">bvuZrAm</p>","","","","","","","","",""
"html-keyboard-response","385","565448","0.0-16.0-0.53","6455490f7c5f35e4221a810a","650c16f0f2faf8d7a0d14c09","651c1e14c6eaf8f5c63ff5e6","null","null","<p style=""font-size: 60px; font-family: BACS"">bvuZrAm</p>","","","","","","","","",""
"html-keyboard-response","386","566454","0.0-16.0-0.54","6455490f7c5f35e4221a810a","650c16f0f2faf8d7a0d14c09","651c1e14c6eaf8f5c63ff5e6","null","null","<p style=""font-size: 60px; font-family: BACS"">bvuZrAm</p>","","","","","","","","",""
"html-keyboard-response","387","567463","0.0-16.0-0.55","6455490f7c5f35e4221a810a","650c16f0f2faf8d7a0d14c09","651c1e14c6eaf8f5c63ff5e6","null","null","<p style=""font-size: 60px; font-family: BACS"">bvuZrAm</p>","","","","","","","","",""
"html-keyboard-response","388","568469","0.0-16.0-0.56","6455490f7c5f35e4221a810a","650c16f0f2faf8d7a0d14c09","651c1e14c6eaf8f5c63ff5e6","null","null","<p style=""font-size: 60px; font-family: BACS"">bvuZrAm</p>","","","","","","","","",""
"html-keyboard-response","389","569479","0.0-16.0-0.57","6455490f7c5f35e4221a810a","650c16f0f2faf8d7a0d14c09","651c1e14c6eaf8f5c63ff5e6","null","null","<p style=""font-size: 60px; font-family: BACS"">bvuZrAm</p>","","","","","","","","",""
"html-keyboard-response","390","570484","0.0-16.0-0.58","6455490f7c5f35e4221a810a","650c16f0f2faf8d7a0d14c09","651c1e14c6eaf8f5c63ff5e6","null","null","<p style=""font-size: 60px; font-family: BACS"">bvuZrAm</p>","","","","","","","","",""
"html-keyboard-response","391","571490","0.0-16.0-0.59","6455490f7c5f35e4221a810a","650c16f0f2faf8d7a0d14c09","651c1e14c6eaf8f5c63ff5e6","null","null","<p style=""font-size: 60px; font-family: BACS"">bvuZrAm</p>","","","","","","","","",""
"html-keyboard-response","392","572491","0.0-16.0-0.60","6455490f7c5f35e4221a810a","650c16f0f2faf8d7a0d14c09","651c1e14c6eaf8f5c63ff5e6","null","null","<p style=""font-size: 60px; font-family: BACS"">bvuZrAm</p>","","","","","","","","",""
"html-keyboard-response","393","573505","0.0-16.0-0.61","6455490f7c5f35e4221a810a","650c16f0f2faf8d7a0d14c09","651c1e14c6eaf8f5c63ff5e6","null","null","<p style=""font-size: 60px; font-family: BACS"">bvuZrAm</p>","","","","","","","","",""
"html-keyboard-response","394","574510","0.0-16.0-0.62","6455490f7c5f35e4221a810a","650c16f0f2faf8d7a0d14c09","651c1e14c6eaf8f5c63ff5e6","null","null","<p style=""font-size: 60px; font-family: BACS"">bvuZrAm</p>","","","","","","","","",""
"html-keyboard-response","395","575518","0.0-16.0-0.63","6455490f7c5f35e4221a810a","650c16f0f2faf8d7a0d14c09","651c1e14c6eaf8f5c63ff5e6","null","null","<p style=""font-size: 60px; font-family: BACS"">bvuZrAm</p>","","","","","","","","",""
"html-keyboard-response","396","576525","0.0-16.0-0.64","6455490f7c5f35e4221a810a","650c16f0f2faf8d7a0d14c09","651c1e14c6eaf8f5c63ff5e6","null","null","<p style=""font-size: 60px; font-family: BACS"">bvuZrAm</p>","","","","","","","","",""
"html-keyboard-response","397","577528","0.0-16.0-0.65","6455490f7c5f35e4221a810a","650c16f0f2faf8d7a0d14c09","651c1e14c6eaf8f5c63ff5e6","null","null","<p style=""font-size: 60px; font-family: BACS"">bvuZrAm</p>","","","","","","","","",""
"html-keyboard-response","398","578538","0.0-16.0-0.66","6455490f7c5f35e4221a810a","650c16f0f2faf8d7a0d14c09","651c1e14c6eaf8f5c63ff5e6","null","null","<p style=""font-size: 60px; font-family: BACS"">bvuZrAm</p>","","","","","","","","",""
"html-keyboard-response","399","579547","0.0-16.0-0.67","6455490f7c5f35e4221a810a","650c16f0f2faf8d7a0d14c09","651c1e14c6eaf8f5c63ff5e6","null","null","<p style=""font-size: 60px; font-family: BACS"">bvuZrAm</p>","","","","","","","","",""
"html-keyboard-response","400","580554","0.0-16.0-0.68","6455490f7c5f35e4221a810a","650c16f0f2faf8d7a0d14c09","651c1e14c6eaf8f5c63ff5e6","null","null","<p style=""font-size: 60px; font-family: BACS"">bvuZrAm</p>","","","","","","","","",""
