"trial_type","trial_index","time_elapsed","internal_node_id","subject_id","study_id","session_id","rt","response","stimulus","success","item","task","correct_response","correct","target","confound","name"
"pavlovia","0","3727","0.0-0.0","609568823ff056b77e565445","64b003020eef62ee308107cc","64b10ac2f0a8606386078e15","","","","","","","","","","",""
"survey-html-form","1","19840","0.0-1.0","609568823ff056b77e565445","64b003020eef62ee308107cc","64b10ac2f0a8606386078e15","16110","{""ID"":""609568823ff056b77e565445""}","","","","","","","","",""
"html-keyboard-response","2","23738","0.0-2.0","609568823ff056b77e565445","64b003020eef62ee308107cc","64b10ac2f0a8606386078e15","3896"," ","<p style=""font-size: 15px;"">Prima di cominciare, le chiediamo di leggere il modulo di consenso informato e confermare la sua volontà di partecipare all'esperimento.</p>
      <p style=""font-size: 15px;""> La preghiamo di ricordare che questo è un progetto di ricerca e che la sua partecipazione è completamente volontaria. Lei si potra' ritirare in qualunque momento, senza necessariamente dover dare alcuna spiegazione. Lo studio al quale Le si chiede di partecipare ha lo scopo di esaminare come i lettori elaborano le parole scritte. La somministrazione delle prove è individuale. Lei sarà impegnato in una sessione di lavoro della durata media di 10 minuti, e un questionario di 10 minuti. L’ordine delle prove ed il loro svolgimento sono stabiliti in modo tale da evitare un eventuale affaticamento. Tutte le prove saranno precedute da un breve addestramento in modo tale che abbia la possibilità di familiarizzare con il compito. Sono previste alcune pause nel corso dello svolgimento dell’esperimento. Una ricompensa di £4 (£8 per ora) Le verrà consegnata al termine della sessione di testing. Nonostante il testing preveda delle prove cognitive, il presente esperimento non costituisce una prova clinica che permetta la diagnosi di eventuali patologie.</p>
      <p style=""font-size: 15px;"">Tutti i dati raccolti grazie alla partecipazione Sua e di altre persone volontarie saranno custoditi in server sicuri e protetti da password, e non sarà consentito ad alcuna persona non autorizzata di accedervi. Le Sue informazioni personali saranno conservate separatamente dai risultati della presente ricerca, cui saranno associati soltanto attraverso un ID arbitrario. Grazie a questo processo di anonimizzazione dei dati, a nessun ricercatore sarà possibile analizzare i risultati sapendo da quale specifico partecipante essi provengono. Inoltre, questa procedura renderà impossibile la Sua identificazione anche nel momento in cui i risultati della ricerca fossero pubblicati su riviste scientifiche, o presentati a congressi o in qualsiasi altro pubblico consesso. Più in generale, i dati raccolti saranno trattati in accordo con le leggi sulla privacy e in conformità al Decreto Legislativo 30 giugno 2003 n. 196 “Codice in materia di protezione dei dati personali” e al Regolamento Europeo 2016/679 (General Data Protection Regulation - GDPR). Il Responsabile della protezione dei dati (RPD) è l’Avv. Valentina Carollo che può essere contattato ai seguenti indirizzi email: <a href=""mailto:dpo@sissa.it"">dpo@sissa.it</a> oppure <a href=""mailto:rpd@sissa.it"">rpd@sissa.it</a> - PEC: <a href=""mailto:protocollo@pec.sissa.it"">protocollo@pec.sissa.it</a>.</p>
      <p style=""font-size: 15px;""> Prima di esprimere il suo consenso alla partecipazione, Le ricordiamo ancora che in caso Lei abbia bisogno di delucidazioni su qualunque aspetto della procedura sperimentale, il ricercatore è a Sua completa disposizione (<a href=""mailto:aliebelt@sissa.it"">aliebelt@sissa.it</a>, <a href=""mailto:davide.crepaldi@sissa.it"">davide.crepaldi@sissa.it</a>).</p>
      <p style=""font-size: 15px;"">Se vuole scaricare il modulo di consenso informato, clicca qui: <a href=""BASL_modulo_consenso.pdf"" download>modulo di consenso</a>.</p>
      <p style=""font-size: 15px;""> Le chiediamo di premere la barra per continuare al consenso.</p>","","","","","","","",""
"survey-html-form","3","35664","0.0-3.0","609568823ff056b77e565445","64b003020eef62ee308107cc","64b10ac2f0a8606386078e15","11924","{""consent1"":""YES"",""consent2"":""YES"",""consent3"":""YES"",""consent4"":""YES"",""consent5"":""YES"",""consent6"":""YES""}","","","","","","","","",""
"fullscreen","4","42101","0.0-4.0","609568823ff056b77e565445","64b003020eef62ee308107cc","64b10ac2f0a8606386078e15","","","","true","","","","","","",""
"html-keyboard-response","5","87715","0.0-5.0","609568823ff056b77e565445","64b003020eef62ee308107cc","64b10ac2f0a8606386078e15","45622"," ","<p>Benvenuta/o, e grazie mille del tuo tempo!</p>
      <p>In questo esperimento sarai un esperto/un'esperta di linguaggio cui è stato chiesto di dare un'occhiata ad alcuni messaggi che la Terra ha ricevuto dallo spazio. Il tuo compito, in questa prima parte dell'esperimento, sarà di fare molta attenzione alle parole che ti verranno mostrate; più tardi, i leader del mondo ti chiederanno qualche informazione su quello che hai visto. Le parole si susseguiranno abbastanza velocemente; sembra che questi alieni abbiano una certa fretta :-) </p>
      <p>Per favore, chiama lo sperimentatore se ha qualche domanda.</p><p>Premi la barra per continuare.</p>","","","","","","","",""
"html-keyboard-response","6","91349","0.0-6.0","609568823ff056b77e565445","64b003020eef62ee308107cc","64b10ac2f0a8606386078e15","3632"," ","<p>Ecco un esempio delle parole che vedrai:</p>
      <img src='esempio.png' height='400px'>
      <p>Quando sei pronti per iniziare, premi la barra.</p></div>","","","","","","","",""
"html-keyboard-response","7","92359","0.0-7.0-0.0","609568823ff056b77e565445","64b003020eef62ee308107cc","64b10ac2f0a8606386078e15","null","null","<p style=""font-size: 60px; font-family: BACS"">TKDkbdtK</p>","","","","","","","",""
"html-keyboard-response","8","93360","0.0-7.0-0.1","609568823ff056b77e565445","64b003020eef62ee308107cc","64b10ac2f0a8606386078e15","null","null","<p style=""font-size: 60px; font-family: BACS"">JNkaQvlZ</p>","","","","","","","",""
"html-keyboard-response","9","94374","0.0-7.0-0.2","609568823ff056b77e565445","64b003020eef62ee308107cc","64b10ac2f0a8606386078e15","null","null","<p style=""font-size: 60px; font-family: BACS"">lBKtOMC</p>","","","","","","","",""
"html-keyboard-response","10","95392","0.0-7.0-0.3","609568823ff056b77e565445","64b003020eef62ee308107cc","64b10ac2f0a8606386078e15","null","null","<p style=""font-size: 60px; font-family: BACS"">mBbKmhc</p>","","","","","","","",""
"html-keyboard-response","11","96408","0.0-7.0-0.4","609568823ff056b77e565445","64b003020eef62ee308107cc","64b10ac2f0a8606386078e15","null","null","<p style=""font-size: 60px; font-family: BACS"">vkYGlYUYa</p>","","","","","","","",""
"html-keyboard-response","12","97424","0.0-7.0-0.5","609568823ff056b77e565445","64b003020eef62ee308107cc","64b10ac2f0a8606386078e15","null","null","<p style=""font-size: 60px; font-family: BACS"">UaZmaQvlZ</p>","","","","","","","",""
"html-keyboard-response","13","98439","0.0-7.0-0.6","609568823ff056b77e565445","64b003020eef62ee308107cc","64b10ac2f0a8606386078e15","null","null","<p style=""font-size: 60px; font-family: BACS"">JNkaUdvY</p>","","","","","","","",""
"html-keyboard-response","14","99454","0.0-7.0-0.7","609568823ff056b77e565445","64b003020eef62ee308107cc","64b10ac2f0a8606386078e15","null","null","<p style=""font-size: 60px; font-family: BACS"">ZvalvrZYd</p>","","","","","","","",""
"html-keyboard-response","15","100471","0.0-7.0-0.8","609568823ff056b77e565445","64b003020eef62ee308107cc","64b10ac2f0a8606386078e15","null","null","<p style=""font-size: 60px; font-family: BACS"">ZdlOYUYa</p>","","","","","","","",""
"html-keyboard-response","16","101487","0.0-7.0-0.9","609568823ff056b77e565445","64b003020eef62ee308107cc","64b10ac2f0a8606386078e15","null","null","<p style=""font-size: 60px; font-family: BACS"">NulkQONk</p>","","","","","","","",""
"html-keyboard-response","17","102503","0.0-7.0-0.10","609568823ff056b77e565445","64b003020eef62ee308107cc","64b10ac2f0a8606386078e15","null","null","<p style=""font-size: 60px; font-family: BACS"">lBKtmhc</p>","","","","","","","",""
"html-keyboard-response","18","103504","0.0-7.0-0.11","609568823ff056b77e565445","64b003020eef62ee308107cc","64b10ac2f0a8606386078e15","null","null","<p style=""font-size: 60px; font-family: BACS"">JNkaQONk</p>","","","","","","","",""
"html-keyboard-response","19","104518","0.0-7.0-0.12","609568823ff056b77e565445","64b003020eef62ee308107cc","64b10ac2f0a8606386078e15","null","null","<p style=""font-size: 60px; font-family: BACS"">ZvalvQvlZ</p>","","","","","","","",""
"html-keyboard-response","20","105520","0.0-7.0-0.13","609568823ff056b77e565445","64b003020eef62ee308107cc","64b10ac2f0a8606386078e15","null","null","<p style=""font-size: 60px; font-family: BACS"">QLrOJYUYa</p>","","","","","","","",""
"html-keyboard-response","21","106522","0.0-7.0-0.14","609568823ff056b77e565445","64b003020eef62ee308107cc","64b10ac2f0a8606386078e15","null","null","<p style=""font-size: 60px; font-family: BACS"">NulkQvlZ</p>","","","","","","","",""
"html-keyboard-response","22","107533","0.0-7.0-0.15","609568823ff056b77e565445","64b003020eef62ee308107cc","64b10ac2f0a8606386078e15","null","null","<p style=""font-size: 60px; font-family: BACS"">EMbDPmhc</p>","","","","","","","",""
"html-keyboard-response","23","108549","0.0-7.0-0.16","609568823ff056b77e565445","64b003020eef62ee308107cc","64b10ac2f0a8606386078e15","null","null","<p style=""font-size: 60px; font-family: BACS"">mBbKbdtK</p>","","","","","","","",""
"html-keyboard-response","24","109551","0.0-7.0-0.17","609568823ff056b77e565445","64b003020eef62ee308107cc","64b10ac2f0a8606386078e15","null","null","<p style=""font-size: 60px; font-family: BACS"">PCPDhEAO</p>","","","","","","","",""
"html-keyboard-response","25","110565","0.0-7.0-0.18","609568823ff056b77e565445","64b003020eef62ee308107cc","64b10ac2f0a8606386078e15","null","null","<p style=""font-size: 60px; font-family: BACS"">NkUAYUYa</p>","","","","","","","",""
"html-keyboard-response","26","111581","0.0-7.0-0.19","609568823ff056b77e565445","64b003020eef62ee308107cc","64b10ac2f0a8606386078e15","null","null","<p style=""font-size: 60px; font-family: BACS"">mBbKOMC</p>","","","","","","","",""
"html-keyboard-response","27","112583","0.0-7.0-0.20","609568823ff056b77e565445","64b003020eef62ee308107cc","64b10ac2f0a8606386078e15","null","null","<p style=""font-size: 60px; font-family: BACS"">TKDkmhc</p>","","","","","","","",""
"html-keyboard-response","28","113596","0.0-7.0-0.21","609568823ff056b77e565445","64b003020eef62ee308107cc","64b10ac2f0a8606386078e15","null","null","<p style=""font-size: 60px; font-family: BACS"">JmNkYUYa</p>","","","","","","","",""
"html-keyboard-response","29","114613","0.0-7.0-0.22","609568823ff056b77e565445","64b003020eef62ee308107cc","64b10ac2f0a8606386078e15","null","null","<p style=""font-size: 60px; font-family: BACS"">NkUArZYd</p>","","","","","","","",""
"html-keyboard-response","30","115629","0.0-7.0-0.23","609568823ff056b77e565445","64b003020eef62ee308107cc","64b10ac2f0a8606386078e15","null","null","<p style=""font-size: 60px; font-family: BACS"">mBbKEAO</p>","","","","","","","",""
"html-keyboard-response","31","116645","0.0-7.0-0.24","609568823ff056b77e565445","64b003020eef62ee308107cc","64b10ac2f0a8606386078e15","null","null","<p style=""font-size: 60px; font-family: BACS"">BKDRYmhc</p>","","","","","","","",""
"html-keyboard-response","32","117661","0.0-7.0-0.25","609568823ff056b77e565445","64b003020eef62ee308107cc","64b10ac2f0a8606386078e15","null","null","<p style=""font-size: 60px; font-family: BACS"">tmtEMOMC</p>","","","","","","","",""
"html-keyboard-response","33","118677","0.0-7.0-0.26","609568823ff056b77e565445","64b003020eef62ee308107cc","64b10ac2f0a8606386078e15","null","null","<p style=""font-size: 60px; font-family: BACS"">TKDkCPMl</p>","","","","","","","",""
"html-keyboard-response","34","119694","0.0-7.0-0.27","609568823ff056b77e565445","64b003020eef62ee308107cc","64b10ac2f0a8606386078e15","null","null","<p style=""font-size: 60px; font-family: BACS"">kulZQvlZ</p>","","","","","","","",""
"html-keyboard-response","35","120709","0.0-7.0-0.28","609568823ff056b77e565445","64b003020eef62ee308107cc","64b10ac2f0a8606386078e15","null","null","<p style=""font-size: 60px; font-family: BACS"">BKDRYOMC</p>","","","","","","","",""
"html-keyboard-response","36","121711","0.0-7.0-0.29","609568823ff056b77e565445","64b003020eef62ee308107cc","64b10ac2f0a8606386078e15","null","null","<p style=""font-size: 60px; font-family: BACS"">RdPtDmhc</p>","","","","","","","",""
"html-keyboard-response","37","122726","0.0-7.0-0.30","609568823ff056b77e565445","64b003020eef62ee308107cc","64b10ac2f0a8606386078e15","null","null","<p style=""font-size: 60px; font-family: BACS"">PCPDhbdtK</p>","","","","","","","",""
"html-keyboard-response","38","123741","0.0-7.0-0.31","609568823ff056b77e565445","64b003020eef62ee308107cc","64b10ac2f0a8606386078e15","null","null","<p style=""font-size: 60px; font-family: BACS"">EMbDPEAO</p>","","","","","","","",""
"html-keyboard-response","39","124743","0.0-7.0-0.32","609568823ff056b77e565445","64b003020eef62ee308107cc","64b10ac2f0a8606386078e15","null","null","<p style=""font-size: 60px; font-family: BACS"">NkUAUdvY</p>","","","","","","","",""
"html-keyboard-response","40","125756","0.0-7.0-0.33","609568823ff056b77e565445","64b003020eef62ee308107cc","64b10ac2f0a8606386078e15","null","null","<p style=""font-size: 60px; font-family: BACS"">tmtEMmhc</p>","","","","","","","",""
"html-keyboard-response","41","126772","0.0-7.0-0.34","609568823ff056b77e565445","64b003020eef62ee308107cc","64b10ac2f0a8606386078e15","null","null","<p style=""font-size: 60px; font-family: BACS"">QLrOJUdvY</p>","","","","","","","",""
"html-keyboard-response","42","127789","0.0-7.0-0.35","609568823ff056b77e565445","64b003020eef62ee308107cc","64b10ac2f0a8606386078e15","null","null","<p style=""font-size: 60px; font-family: BACS"">EMbDPCPMl</p>","","","","","","","",""
"html-keyboard-response","43","128805","0.0-7.0-0.36","609568823ff056b77e565445","64b003020eef62ee308107cc","64b10ac2f0a8606386078e15","null","null","<p style=""font-size: 60px; font-family: BACS"">lBKtbdtK</p>","","","","","","","",""
"html-keyboard-response","44","129821","0.0-7.0-0.37","609568823ff056b77e565445","64b003020eef62ee308107cc","64b10ac2f0a8606386078e15","null","null","<p style=""font-size: 60px; font-family: BACS"">JmNkQvlZ</p>","","","","","","","",""
"html-keyboard-response","45","130837","0.0-7.0-0.38","609568823ff056b77e565445","64b003020eef62ee308107cc","64b10ac2f0a8606386078e15","null","null","<p style=""font-size: 60px; font-family: BACS"">RdPtDOMC</p>","","","","","","","",""
"html-keyboard-response","46","131853","0.0-7.0-0.39","609568823ff056b77e565445","64b003020eef62ee308107cc","64b10ac2f0a8606386078e15","null","null","<p style=""font-size: 60px; font-family: BACS"">JNkarZYd</p>","","","","","","","",""
"html-keyboard-response","47","132869","0.0-7.0-0.40","609568823ff056b77e565445","64b003020eef62ee308107cc","64b10ac2f0a8606386078e15","null","null","<p style=""font-size: 60px; font-family: BACS"">NulkYUYa</p>","","","","","","","",""
"html-keyboard-response","48","133885","0.0-7.0-0.41","609568823ff056b77e565445","64b003020eef62ee308107cc","64b10ac2f0a8606386078e15","null","null","<p style=""font-size: 60px; font-family: BACS"">mdkKCPMl</p>","","","","","","","",""
"html-keyboard-response","49","134887","0.0-7.0-0.42","609568823ff056b77e565445","64b003020eef62ee308107cc","64b10ac2f0a8606386078e15","null","null","<p style=""font-size: 60px; font-family: BACS"">KABAOMC</p>","","","","","","","",""
"html-keyboard-response","50","135902","0.0-7.0-0.43","609568823ff056b77e565445","64b003020eef62ee308107cc","64b10ac2f0a8606386078e15","null","null","<p style=""font-size: 60px; font-family: BACS"">kulZUdvY</p>","","","","","","","",""
"html-keyboard-response","51","136919","0.0-7.0-0.44","609568823ff056b77e565445","64b003020eef62ee308107cc","64b10ac2f0a8606386078e15","null","null","<p style=""font-size: 60px; font-family: BACS"">tmtEMEAO</p>","","","","","","","",""
"html-keyboard-response","52","137933","0.0-7.0-0.45","609568823ff056b77e565445","64b003020eef62ee308107cc","64b10ac2f0a8606386078e15","null","null","<p style=""font-size: 60px; font-family: BACS"">vkYGlrZYd</p>","","","","","","","",""
"html-keyboard-response","53","138935","0.0-7.0-0.46","609568823ff056b77e565445","64b003020eef62ee308107cc","64b10ac2f0a8606386078e15","null","null","<p style=""font-size: 60px; font-family: BACS"">mdkKOMC</p>","","","","","","","",""
"html-keyboard-response","54","139950","0.0-7.0-0.47","609568823ff056b77e565445","64b003020eef62ee308107cc","64b10ac2f0a8606386078e15","null","null","<p style=""font-size: 60px; font-family: BACS"">PCPDhCPMl</p>","","","","","","","",""
"html-keyboard-response","55","140965","0.0-7.0-0.48","609568823ff056b77e565445","64b003020eef62ee308107cc","64b10ac2f0a8606386078e15","null","null","<p style=""font-size: 60px; font-family: BACS"">JmNkrZYd</p>","","","","","","","",""
"html-keyboard-response","56","141981","0.0-7.0-0.49","609568823ff056b77e565445","64b003020eef62ee308107cc","64b10ac2f0a8606386078e15","null","null","<p style=""font-size: 60px; font-family: BACS"">ZdlOQvlZ</p>","","","","","","","",""
"html-keyboard-response","57","142997","0.0-7.0-0.50","609568823ff056b77e565445","64b003020eef62ee308107cc","64b10ac2f0a8606386078e15","null","null","<p style=""font-size: 60px; font-family: BACS"">KABAEAO</p>","","","","","","","",""
"html-keyboard-response","58","143998","0.0-7.0-0.51","609568823ff056b77e565445","64b003020eef62ee308107cc","64b10ac2f0a8606386078e15","null","null","<p style=""font-size: 60px; font-family: BACS"">UaZmaQONk</p>","","","","","","","",""
"html-keyboard-response","59","145012","0.0-7.0-0.52","609568823ff056b77e565445","64b003020eef62ee308107cc","64b10ac2f0a8606386078e15","null","null","<p style=""font-size: 60px; font-family: BACS"">vkYGlQvlZ</p>","","","","","","","",""
"html-keyboard-response","60","146029","0.0-7.0-0.53","609568823ff056b77e565445","64b003020eef62ee308107cc","64b10ac2f0a8606386078e15","null","null","<p style=""font-size: 60px; font-family: BACS"">kulZrZYd</p>","","","","","","","",""
"html-keyboard-response","61","147032","0.0-7.0-0.54","609568823ff056b77e565445","64b003020eef62ee308107cc","64b10ac2f0a8606386078e15","null","null","<p style=""font-size: 60px; font-family: BACS"">RdPtDbdtK</p>","","","","","","","",""
"html-keyboard-response","62","148051","0.0-7.0-0.55","609568823ff056b77e565445","64b003020eef62ee308107cc","64b10ac2f0a8606386078e15","null","null","<p style=""font-size: 60px; font-family: BACS"">QLrOJrZYd</p>","","","","","","","",""
"html-keyboard-response","63","149067","0.0-7.0-0.56","609568823ff056b77e565445","64b003020eef62ee308107cc","64b10ac2f0a8606386078e15","null","null","<p style=""font-size: 60px; font-family: BACS"">NulkUdvY</p>","","","","","","","",""
"html-keyboard-response","64","150072","0.0-7.0-0.57","609568823ff056b77e565445","64b003020eef62ee308107cc","64b10ac2f0a8606386078e15","null","null","<p style=""font-size: 60px; font-family: BACS"">kulZYUYa</p>","","","","","","","",""
"html-keyboard-response","65","151084","0.0-7.0-0.58","609568823ff056b77e565445","64b003020eef62ee308107cc","64b10ac2f0a8606386078e15","null","null","<p style=""font-size: 60px; font-family: BACS"">ZdlOQONk</p>","","","","","","","",""
"html-keyboard-response","66","152098","0.0-7.0-0.59","609568823ff056b77e565445","64b003020eef62ee308107cc","64b10ac2f0a8606386078e15","null","null","<p style=""font-size: 60px; font-family: BACS"">lBKtEAO</p>","","","","","","","",""
"html-keyboard-response","67","153100","0.0-7.0-0.60","609568823ff056b77e565445","64b003020eef62ee308107cc","64b10ac2f0a8606386078e15","null","null","<p style=""font-size: 60px; font-family: BACS"">QLrOJQONk</p>","","","","","","","",""
"html-keyboard-response","68","154115","0.0-7.0-0.61","609568823ff056b77e565445","64b003020eef62ee308107cc","64b10ac2f0a8606386078e15","null","null","<p style=""font-size: 60px; font-family: BACS"">RdPtDCPMl</p>","","","","","","","",""
"html-keyboard-response","69","155131","0.0-7.0-0.62","609568823ff056b77e565445","64b003020eef62ee308107cc","64b10ac2f0a8606386078e15","null","null","<p style=""font-size: 60px; font-family: BACS"">UaZmaUdvY</p>","","","","","","","",""
"html-keyboard-response","70","156148","0.0-7.0-0.63","609568823ff056b77e565445","64b003020eef62ee308107cc","64b10ac2f0a8606386078e15","null","null","<p style=""font-size: 60px; font-family: BACS"">TKDkEAO</p>","","","","","","","",""
"html-keyboard-response","71","157164","0.0-7.0-0.64","609568823ff056b77e565445","64b003020eef62ee308107cc","64b10ac2f0a8606386078e15","null","null","<p style=""font-size: 60px; font-family: BACS"">UaZmaYUYa</p>","","","","","","","",""
"html-keyboard-response","72","158179","0.0-7.0-0.65","609568823ff056b77e565445","64b003020eef62ee308107cc","64b10ac2f0a8606386078e15","null","null","<p style=""font-size: 60px; font-family: BACS"">ZvalvQONk</p>","","","","","","","",""
"html-keyboard-response","73","159196","0.0-7.0-0.66","609568823ff056b77e565445","64b003020eef62ee308107cc","64b10ac2f0a8606386078e15","null","null","<p style=""font-size: 60px; font-family: BACS"">BKDRYbdtK</p>","","","","","","","",""
"html-keyboard-response","74","160211","0.0-7.0-0.67","609568823ff056b77e565445","64b003020eef62ee308107cc","64b10ac2f0a8606386078e15","null","null","<p style=""font-size: 60px; font-family: BACS"">EMbDPOMC</p>","","","","","","","",""
"html-keyboard-response","75","161227","0.0-7.0-0.68","609568823ff056b77e565445","64b003020eef62ee308107cc","64b10ac2f0a8606386078e15","null","null","<p style=""font-size: 60px; font-family: BACS"">NkUAQONk</p>","","","","","","","",""
"html-keyboard-response","76","162243","0.0-7.0-0.69","609568823ff056b77e565445","64b003020eef62ee308107cc","64b10ac2f0a8606386078e15","null","null","<p style=""font-size: 60px; font-family: BACS"">tmtEMCPMl</p>","","","","","","","",""
"html-keyboard-response","77","163261","0.0-7.0-0.70","609568823ff056b77e565445","64b003020eef62ee308107cc","64b10ac2f0a8606386078e15","null","null","<p style=""font-size: 60px; font-family: BACS"">ZvalvUdvY</p>","","","","","","","",""
"html-keyboard-response","78","164276","0.0-7.0-0.71","609568823ff056b77e565445","64b003020eef62ee308107cc","64b10ac2f0a8606386078e15","null","null","<p style=""font-size: 60px; font-family: BACS"">ZdlOrZYd</p>","","","","","","","",""
"html-keyboard-response","79","165292","0.0-7.0-0.72","609568823ff056b77e565445","64b003020eef62ee308107cc","64b10ac2f0a8606386078e15","null","null","<p style=""font-size: 60px; font-family: BACS"">KABACPMl</p>","","","","","","","",""
"html-keyboard-response","80","166308","0.0-7.0-0.73","609568823ff056b77e565445","64b003020eef62ee308107cc","64b10ac2f0a8606386078e15","null","null","<p style=""font-size: 60px; font-family: BACS"">mdkKbdtK</p>","","","","","","","",""
"html-keyboard-response","81","167325","0.0-7.0-0.74","609568823ff056b77e565445","64b003020eef62ee308107cc","64b10ac2f0a8606386078e15","null","null","<p style=""font-size: 60px; font-family: BACS"">PCPDhmhc</p>","","","","","","","",""
"html-keyboard-response","82","168340","0.0-7.0-0.75","609568823ff056b77e565445","64b003020eef62ee308107cc","64b10ac2f0a8606386078e15","null","null","<p style=""font-size: 60px; font-family: BACS"">JmNkQONk</p>","","","","","","","",""
"html-keyboard-response","83","169356","0.0-7.0-0.76","609568823ff056b77e565445","64b003020eef62ee308107cc","64b10ac2f0a8606386078e15","null","null","<p style=""font-size: 60px; font-family: BACS"">mdkKEAO</p>","","","","","","","",""
"html-keyboard-response","84","170358","0.0-7.0-0.77","609568823ff056b77e565445","64b003020eef62ee308107cc","64b10ac2f0a8606386078e15","null","null","<p style=""font-size: 60px; font-family: BACS"">BKDRYCPMl</p>","","","","","","","",""
"html-keyboard-response","85","171374","0.0-7.0-0.78","609568823ff056b77e565445","64b003020eef62ee308107cc","64b10ac2f0a8606386078e15","null","null","<p style=""font-size: 60px; font-family: BACS"">KABAbdtK</p>","","","","","","","",""
"html-keyboard-response","86","172389","0.0-7.0-0.79","609568823ff056b77e565445","64b003020eef62ee308107cc","64b10ac2f0a8606386078e15","null","null","<p style=""font-size: 60px; font-family: BACS"">vkYGlUdvY</p>","","","","","","","",""
"html-keyboard-response","87","175664","0.0-8.0","609568823ff056b77e565445","64b003020eef62ee308107cc","64b10ac2f0a8606386078e15","3274"," ","<p>Ottimo, hai visto il primo blocco di parole. Ora puoi prenderti una piccola pausa.</p>
      <p>Premi la barra quando sei pronta/o per riprendere.</p>","","","","","","","",""
"html-keyboard-response","88","176670","0.0-9.0-0.0","609568823ff056b77e565445","64b003020eef62ee308107cc","64b10ac2f0a8606386078e15","null","null","<p style=""font-size: 60px; font-family: BACS"">NkUAYUYa</p>","","","","","","","",""
"html-keyboard-response","89","177686","0.0-9.0-0.1","609568823ff056b77e565445","64b003020eef62ee308107cc","64b10ac2f0a8606386078e15","null","null","<p style=""font-size: 60px; font-family: BACS"">QLrOJrZYd</p>","","","","","","","",""
"html-keyboard-response","90","178701","0.0-9.0-0.2","609568823ff056b77e565445","64b003020eef62ee308107cc","64b10ac2f0a8606386078e15","null","null","<p style=""font-size: 60px; font-family: BACS"">EMbDPOMC</p>","","","","","","","",""
"html-keyboard-response","91","179717","0.0-9.0-0.3","609568823ff056b77e565445","64b003020eef62ee308107cc","64b10ac2f0a8606386078e15","null","null","<p style=""font-size: 60px; font-family: BACS"">NkUAUdvY</p>","","","","","","","",""
"html-keyboard-response","92","180733","0.0-9.0-0.4","609568823ff056b77e565445","64b003020eef62ee308107cc","64b10ac2f0a8606386078e15","null","null","<p style=""font-size: 60px; font-family: BACS"">TKDkmhc</p>","","","","","","","",""
"html-keyboard-response","93","181749","0.0-9.0-0.5","609568823ff056b77e565445","64b003020eef62ee308107cc","64b10ac2f0a8606386078e15","null","null","<p style=""font-size: 60px; font-family: BACS"">NulkQONk</p>","","","","","","","",""
"html-keyboard-response","94","182765","0.0-9.0-0.6","609568823ff056b77e565445","64b003020eef62ee308107cc","64b10ac2f0a8606386078e15","null","null","<p style=""font-size: 60px; font-family: BACS"">JNkaQvlZ</p>","","","","","","","",""
"html-keyboard-response","95","183781","0.0-9.0-0.7","609568823ff056b77e565445","64b003020eef62ee308107cc","64b10ac2f0a8606386078e15","null","null","<p style=""font-size: 60px; font-family: BACS"">lBKtmhc</p>","","","","","","","",""
"html-keyboard-response","96","184782","0.0-9.0-0.8","609568823ff056b77e565445","64b003020eef62ee308107cc","64b10ac2f0a8606386078e15","null","null","<p style=""font-size: 60px; font-family: BACS"">EMbDPEAO</p>","","","","","","","",""
"html-keyboard-response","97","185797","0.0-9.0-0.9","609568823ff056b77e565445","64b003020eef62ee308107cc","64b10ac2f0a8606386078e15","null","null","<p style=""font-size: 60px; font-family: BACS"">ZvalvQONk</p>","","","","","","","",""
"html-keyboard-response","98","186813","0.0-9.0-0.10","609568823ff056b77e565445","64b003020eef62ee308107cc","64b10ac2f0a8606386078e15","null","null","<p style=""font-size: 60px; font-family: BACS"">vkYGlYUYa</p>","","","","","","","",""
"html-keyboard-response","99","187829","0.0-9.0-0.11","609568823ff056b77e565445","64b003020eef62ee308107cc","64b10ac2f0a8606386078e15","null","null","<p style=""font-size: 60px; font-family: BACS"">KABAOMC</p>","","","","","","","",""
"html-keyboard-response","100","188845","0.0-9.0-0.12","609568823ff056b77e565445","64b003020eef62ee308107cc","64b10ac2f0a8606386078e15","null","null","<p style=""font-size: 60px; font-family: BACS"">QLrOJYUYa</p>","","","","","","","",""
"html-keyboard-response","101","189847","0.0-9.0-0.13","609568823ff056b77e565445","64b003020eef62ee308107cc","64b10ac2f0a8606386078e15","null","null","<p style=""font-size: 60px; font-family: BACS"">ZdlOrZYd</p>","","","","","","","",""
"html-keyboard-response","102","190861","0.0-9.0-0.14","609568823ff056b77e565445","64b003020eef62ee308107cc","64b10ac2f0a8606386078e15","null","null","<p style=""font-size: 60px; font-family: BACS"">NkUAQONk</p>","","","","","","","",""
"html-keyboard-response","103","191877","0.0-9.0-0.15","609568823ff056b77e565445","64b003020eef62ee308107cc","64b10ac2f0a8606386078e15","null","null","<p style=""font-size: 60px; font-family: BACS"">RdPtDOMC</p>","","","","","","","",""
"html-keyboard-response","104","192893","0.0-9.0-0.16","609568823ff056b77e565445","64b003020eef62ee308107cc","64b10ac2f0a8606386078e15","null","null","<p style=""font-size: 60px; font-family: BACS"">tmtEMEAO</p>","","","","","","","",""
"html-keyboard-response","105","193895","0.0-9.0-0.17","609568823ff056b77e565445","64b003020eef62ee308107cc","64b10ac2f0a8606386078e15","null","null","<p style=""font-size: 60px; font-family: BACS"">RdPtDbdtK</p>","","","","","","","",""
"html-keyboard-response","106","194908","0.0-9.0-0.18","609568823ff056b77e565445","64b003020eef62ee308107cc","64b10ac2f0a8606386078e15","null","null","<p style=""font-size: 60px; font-family: BACS"">tmtEMOMC</p>","","","","","","","",""
"html-keyboard-response","107","195925","0.0-9.0-0.19","609568823ff056b77e565445","64b003020eef62ee308107cc","64b10ac2f0a8606386078e15","null","null","<p style=""font-size: 60px; font-family: BACS"">JNkaQONk</p>","","","","","","","",""
"html-keyboard-response","108","196926","0.0-9.0-0.20","609568823ff056b77e565445","64b003020eef62ee308107cc","64b10ac2f0a8606386078e15","null","null","<p style=""font-size: 60px; font-family: BACS"">NulkQvlZ</p>","","","","","","","",""
"html-keyboard-response","109","197941","0.0-9.0-0.21","609568823ff056b77e565445","64b003020eef62ee308107cc","64b10ac2f0a8606386078e15","null","null","<p style=""font-size: 60px; font-family: BACS"">TKDkCPMl</p>","","","","","","","",""
"html-keyboard-response","110","198956","0.0-9.0-0.22","609568823ff056b77e565445","64b003020eef62ee308107cc","64b10ac2f0a8606386078e15","null","null","<p style=""font-size: 60px; font-family: BACS"">vkYGlrZYd</p>","","","","","","","",""
"html-keyboard-response","111","199972","0.0-9.0-0.23","609568823ff056b77e565445","64b003020eef62ee308107cc","64b10ac2f0a8606386078e15","null","null","<p style=""font-size: 60px; font-family: BACS"">PCPDhbdtK</p>","","","","","","","",""
"html-keyboard-response","112","200974","0.0-9.0-0.24","609568823ff056b77e565445","64b003020eef62ee308107cc","64b10ac2f0a8606386078e15","null","null","<p style=""font-size: 60px; font-family: BACS"">NulkUdvY</p>","","","","","","","",""
"html-keyboard-response","113","201989","0.0-9.0-0.25","609568823ff056b77e565445","64b003020eef62ee308107cc","64b10ac2f0a8606386078e15","null","null","<p style=""font-size: 60px; font-family: BACS"">mdkKEAO</p>","","","","","","","",""
"html-keyboard-response","114","203004","0.0-9.0-0.26","609568823ff056b77e565445","64b003020eef62ee308107cc","64b10ac2f0a8606386078e15","null","null","<p style=""font-size: 60px; font-family: BACS"">ZdlOYUYa</p>","","","","","","","",""
"html-keyboard-response","115","204020","0.0-9.0-0.27","609568823ff056b77e565445","64b003020eef62ee308107cc","64b10ac2f0a8606386078e15","null","null","<p style=""font-size: 60px; font-family: BACS"">JmNkQONk</p>","","","","","","","",""
"html-keyboard-response","116","205036","0.0-9.0-0.28","609568823ff056b77e565445","64b003020eef62ee308107cc","64b10ac2f0a8606386078e15","null","null","<p style=""font-size: 60px; font-family: BACS"">EMbDPCPMl</p>","","","","","","","",""
"html-keyboard-response","117","206052","0.0-9.0-0.29","609568823ff056b77e565445","64b003020eef62ee308107cc","64b10ac2f0a8606386078e15","null","null","<p style=""font-size: 60px; font-family: BACS"">NkUArZYd</p>","","","","","","","",""
"html-keyboard-response","118","207053","0.0-9.0-0.30","609568823ff056b77e565445","64b003020eef62ee308107cc","64b10ac2f0a8606386078e15","null","null","<p style=""font-size: 60px; font-family: BACS"">lBKtOMC</p>","","","","","","","",""
"html-keyboard-response","119","208068","0.0-9.0-0.31","609568823ff056b77e565445","64b003020eef62ee308107cc","64b10ac2f0a8606386078e15","null","null","<p style=""font-size: 60px; font-family: BACS"">mdkKbdtK</p>","","","","","","","",""
"html-keyboard-response","120","209069","0.0-9.0-0.32","609568823ff056b77e565445","64b003020eef62ee308107cc","64b10ac2f0a8606386078e15","null","null","<p style=""font-size: 60px; font-family: BACS"">lBKtEAO</p>","","","","","","","",""
"html-keyboard-response","121","210084","0.0-9.0-0.33","609568823ff056b77e565445","64b003020eef62ee308107cc","64b10ac2f0a8606386078e15","null","null","<p style=""font-size: 60px; font-family: BACS"">BKDRYmhc</p>","","","","","","","",""
"html-keyboard-response","122","211101","0.0-9.0-0.34","609568823ff056b77e565445","64b003020eef62ee308107cc","64b10ac2f0a8606386078e15","null","null","<p style=""font-size: 60px; font-family: BACS"">JmNkYUYa</p>","","","","","","","",""
"html-keyboard-response","123","212116","0.0-9.0-0.35","609568823ff056b77e565445","64b003020eef62ee308107cc","64b10ac2f0a8606386078e15","null","null","<p style=""font-size: 60px; font-family: BACS"">TKDkEAO</p>","","","","","","","",""
"html-keyboard-response","124","213117","0.0-9.0-0.36","609568823ff056b77e565445","64b003020eef62ee308107cc","64b10ac2f0a8606386078e15","null","null","<p style=""font-size: 60px; font-family: BACS"">ZvalvrZYd</p>","","","","","","","",""
"html-keyboard-response","125","214132","0.0-9.0-0.37","609568823ff056b77e565445","64b003020eef62ee308107cc","64b10ac2f0a8606386078e15","null","null","<p style=""font-size: 60px; font-family: BACS"">TKDkbdtK</p>","","","","","","","",""
"html-keyboard-response","126","215147","0.0-9.0-0.38","609568823ff056b77e565445","64b003020eef62ee308107cc","64b10ac2f0a8606386078e15","null","null","<p style=""font-size: 60px; font-family: BACS"">ZdlOQvlZ</p>","","","","","","","",""
"html-keyboard-response","127","216149","0.0-9.0-0.39","609568823ff056b77e565445","64b003020eef62ee308107cc","64b10ac2f0a8606386078e15","null","null","<p style=""font-size: 60px; font-family: BACS"">KABAEAO</p>","","","","","","","",""
"html-keyboard-response","128","217163","0.0-9.0-0.40","609568823ff056b77e565445","64b003020eef62ee308107cc","64b10ac2f0a8606386078e15","null","null","<p style=""font-size: 60px; font-family: BACS"">JNkaUdvY</p>","","","","","","","",""
"html-keyboard-response","129","218164","0.0-9.0-0.41","609568823ff056b77e565445","64b003020eef62ee308107cc","64b10ac2f0a8606386078e15","null","null","<p style=""font-size: 60px; font-family: BACS"">ZvalvQvlZ</p>","","","","","","","",""
"html-keyboard-response","130","219179","0.0-9.0-0.42","609568823ff056b77e565445","64b003020eef62ee308107cc","64b10ac2f0a8606386078e15","null","null","<p style=""font-size: 60px; font-family: BACS"">RdPtDmhc</p>","","","","","","","",""
"html-keyboard-response","131","220195","0.0-9.0-0.43","609568823ff056b77e565445","64b003020eef62ee308107cc","64b10ac2f0a8606386078e15","null","null","<p style=""font-size: 60px; font-family: BACS"">JmNkrZYd</p>","","","","","","","",""
"html-keyboard-response","132","221196","0.0-9.0-0.44","609568823ff056b77e565445","64b003020eef62ee308107cc","64b10ac2f0a8606386078e15","null","null","<p style=""font-size: 60px; font-family: BACS"">lBKtbdtK</p>","","","","","","","",""
"html-keyboard-response","133","222211","0.0-9.0-0.45","609568823ff056b77e565445","64b003020eef62ee308107cc","64b10ac2f0a8606386078e15","null","null","<p style=""font-size: 60px; font-family: BACS"">UaZmaUdvY</p>","","","","","","","",""
"html-keyboard-response","134","223226","0.0-9.0-0.46","609568823ff056b77e565445","64b003020eef62ee308107cc","64b10ac2f0a8606386078e15","null","null","<p style=""font-size: 60px; font-family: BACS"">kulZYUYa</p>","","","","","","","",""
"html-keyboard-response","135","224227","0.0-9.0-0.47","609568823ff056b77e565445","64b003020eef62ee308107cc","64b10ac2f0a8606386078e15","null","null","<p style=""font-size: 60px; font-family: BACS"">mBbKbdtK</p>","","","","","","","",""
"html-keyboard-response","136","225241","0.0-9.0-0.48","609568823ff056b77e565445","64b003020eef62ee308107cc","64b10ac2f0a8606386078e15","null","null","<p style=""font-size: 60px; font-family: BACS"">PCPDhEAO</p>","","","","","","","",""
"html-keyboard-response","137","226243","0.0-9.0-0.49","609568823ff056b77e565445","64b003020eef62ee308107cc","64b10ac2f0a8606386078e15","null","null","<p style=""font-size: 60px; font-family: BACS"">ZdlOQONk</p>","","","","","","","",""
"html-keyboard-response","138","227257","0.0-9.0-0.50","609568823ff056b77e565445","64b003020eef62ee308107cc","64b10ac2f0a8606386078e15","null","null","<p style=""font-size: 60px; font-family: BACS"">vkYGlQvlZ</p>","","","","","","","",""
"html-keyboard-response","139","228274","0.0-9.0-0.51","609568823ff056b77e565445","64b003020eef62ee308107cc","64b10ac2f0a8606386078e15","null","null","<p style=""font-size: 60px; font-family: BACS"">BKDRYOMC</p>","","","","","","","",""
"html-keyboard-response","140","229290","0.0-9.0-0.52","609568823ff056b77e565445","64b003020eef62ee308107cc","64b10ac2f0a8606386078e15","null","null","<p style=""font-size: 60px; font-family: BACS"">QLrOJUdvY</p>","","","","","","","",""
"html-keyboard-response","141","230306","0.0-9.0-0.53","609568823ff056b77e565445","64b003020eef62ee308107cc","64b10ac2f0a8606386078e15","null","null","<p style=""font-size: 60px; font-family: BACS"">mdkKCPMl</p>","","","","","","","",""
"html-keyboard-response","142","231308","0.0-9.0-0.54","609568823ff056b77e565445","64b003020eef62ee308107cc","64b10ac2f0a8606386078e15","null","null","<p style=""font-size: 60px; font-family: BACS"">vkYGlUdvY</p>","","","","","","","",""
"html-keyboard-response","143","232322","0.0-9.0-0.55","609568823ff056b77e565445","64b003020eef62ee308107cc","64b10ac2f0a8606386078e15","null","null","<p style=""font-size: 60px; font-family: BACS"">RdPtDCPMl</p>","","","","","","","",""
"html-keyboard-response","144","233337","0.0-9.0-0.56","609568823ff056b77e565445","64b003020eef62ee308107cc","64b10ac2f0a8606386078e15","null","null","<p style=""font-size: 60px; font-family: BACS"">kulZrZYd</p>","","","","","","","",""
"html-keyboard-response","145","234339","0.0-9.0-0.57","609568823ff056b77e565445","64b003020eef62ee308107cc","64b10ac2f0a8606386078e15","null","null","<p style=""font-size: 60px; font-family: BACS"">QLrOJQONk</p>","","","","","","","",""
"html-keyboard-response","146","235354","0.0-9.0-0.58","609568823ff056b77e565445","64b003020eef62ee308107cc","64b10ac2f0a8606386078e15","null","null","<p style=""font-size: 60px; font-family: BACS"">PCPDhCPMl</p>","","","","","","","",""
"html-keyboard-response","147","236370","0.0-9.0-0.59","609568823ff056b77e565445","64b003020eef62ee308107cc","64b10ac2f0a8606386078e15","null","null","<p style=""font-size: 60px; font-family: BACS"">JmNkQvlZ</p>","","","","","","","",""
"html-keyboard-response","148","237386","0.0-9.0-0.60","609568823ff056b77e565445","64b003020eef62ee308107cc","64b10ac2f0a8606386078e15","null","null","<p style=""font-size: 60px; font-family: BACS"">PCPDhmhc</p>","","","","","","","",""
"html-keyboard-response","149","238402","0.0-9.0-0.61","609568823ff056b77e565445","64b003020eef62ee308107cc","64b10ac2f0a8606386078e15","null","null","<p style=""font-size: 60px; font-family: BACS"">KABAbdtK</p>","","","","","","","",""
"html-keyboard-response","150","239418","0.0-9.0-0.62","609568823ff056b77e565445","64b003020eef62ee308107cc","64b10ac2f0a8606386078e15","null","null","<p style=""font-size: 60px; font-family: BACS"">JNkarZYd</p>","","","","","","","",""
"html-keyboard-response","151","240434","0.0-9.0-0.63","609568823ff056b77e565445","64b003020eef62ee308107cc","64b10ac2f0a8606386078e15","null","null","<p style=""font-size: 60px; font-family: BACS"">BKDRYCPMl</p>","","","","","","","",""
"html-keyboard-response","152","241449","0.0-9.0-0.64","609568823ff056b77e565445","64b003020eef62ee308107cc","64b10ac2f0a8606386078e15","null","null","<p style=""font-size: 60px; font-family: BACS"">mBbKEAO</p>","","","","","","","",""
"html-keyboard-response","153","242465","0.0-9.0-0.65","609568823ff056b77e565445","64b003020eef62ee308107cc","64b10ac2f0a8606386078e15","null","null","<p style=""font-size: 60px; font-family: BACS"">UaZmaQONk</p>","","","","","","","",""
"html-keyboard-response","154","243466","0.0-9.0-0.66","609568823ff056b77e565445","64b003020eef62ee308107cc","64b10ac2f0a8606386078e15","null","null","<p style=""font-size: 60px; font-family: BACS"">mBbKmhc</p>","","","","","","","",""
"html-keyboard-response","155","244481","0.0-9.0-0.67","609568823ff056b77e565445","64b003020eef62ee308107cc","64b10ac2f0a8606386078e15","null","null","<p style=""font-size: 60px; font-family: BACS"">tmtEMCPMl</p>","","","","","","","",""
"html-keyboard-response","156","245497","0.0-9.0-0.68","609568823ff056b77e565445","64b003020eef62ee308107cc","64b10ac2f0a8606386078e15","null","null","<p style=""font-size: 60px; font-family: BACS"">UaZmaYUYa</p>","","","","","","","",""
"html-keyboard-response","157","246513","0.0-9.0-0.69","609568823ff056b77e565445","64b003020eef62ee308107cc","64b10ac2f0a8606386078e15","null","null","<p style=""font-size: 60px; font-family: BACS"">ZvalvUdvY</p>","","","","","","","",""
"html-keyboard-response","158","247529","0.0-9.0-0.70","609568823ff056b77e565445","64b003020eef62ee308107cc","64b10ac2f0a8606386078e15","null","null","<p style=""font-size: 60px; font-family: BACS"">BKDRYbdtK</p>","","","","","","","",""
"html-keyboard-response","159","248530","0.0-9.0-0.71","609568823ff056b77e565445","64b003020eef62ee308107cc","64b10ac2f0a8606386078e15","null","null","<p style=""font-size: 60px; font-family: BACS"">kulZUdvY</p>","","","","","","","",""
"html-keyboard-response","160","249546","0.0-9.0-0.72","609568823ff056b77e565445","64b003020eef62ee308107cc","64b10ac2f0a8606386078e15","null","null","<p style=""font-size: 60px; font-family: BACS"">UaZmaQvlZ</p>","","","","","","","",""
"html-keyboard-response","161","250561","0.0-9.0-0.73","609568823ff056b77e565445","64b003020eef62ee308107cc","64b10ac2f0a8606386078e15","null","null","<p style=""font-size: 60px; font-family: BACS"">EMbDPmhc</p>","","","","","","","",""
"html-keyboard-response","162","251576","0.0-9.0-0.74","609568823ff056b77e565445","64b003020eef62ee308107cc","64b10ac2f0a8606386078e15","null","null","<p style=""font-size: 60px; font-family: BACS"">KABACPMl</p>","","","","","","","",""
"html-keyboard-response","163","252578","0.0-9.0-0.75","609568823ff056b77e565445","64b003020eef62ee308107cc","64b10ac2f0a8606386078e15","null","null","<p style=""font-size: 60px; font-family: BACS"">kulZQvlZ</p>","","","","","","","",""
"html-keyboard-response","164","253592","0.0-9.0-0.76","609568823ff056b77e565445","64b003020eef62ee308107cc","64b10ac2f0a8606386078e15","null","null","<p style=""font-size: 60px; font-family: BACS"">mdkKOMC</p>","","","","","","","",""
"html-keyboard-response","165","254609","0.0-9.0-0.77","609568823ff056b77e565445","64b003020eef62ee308107cc","64b10ac2f0a8606386078e15","null","null","<p style=""font-size: 60px; font-family: BACS"">tmtEMmhc</p>","","","","","","","",""
"html-keyboard-response","166","255625","0.0-9.0-0.78","609568823ff056b77e565445","64b003020eef62ee308107cc","64b10ac2f0a8606386078e15","null","null","<p style=""font-size: 60px; font-family: BACS"">mBbKOMC</p>","","","","","","","",""
"html-keyboard-response","167","256634","0.0-9.0-0.79","609568823ff056b77e565445","64b003020eef62ee308107cc","64b10ac2f0a8606386078e15","null","null","<p style=""font-size: 60px; font-family: BACS"">NulkYUYa</p>","","","","","","","",""
"html-keyboard-response","168","258543","0.0-10.0","609568823ff056b77e565445","64b003020eef62ee308107cc","64b10ac2f0a8606386078e15","1908"," ","<p>Ottimo, hai visto il secondo blocco di parole. Ora puoi prenderti una piccola pausa.</p>
      <p>Premi la barra quando sei pronta/o per riprendere.</p>","","","","","","","",""
"html-keyboard-response","169","259556","0.0-11.0-0.0","609568823ff056b77e565445","64b003020eef62ee308107cc","64b10ac2f0a8606386078e15","null","null","<p style=""font-size: 60px; font-family: BACS"">KABAEAO</p>","","","","","","","",""
"html-keyboard-response","170","260571","0.0-11.0-0.1","609568823ff056b77e565445","64b003020eef62ee308107cc","64b10ac2f0a8606386078e15","null","null","<p style=""font-size: 60px; font-family: BACS"">RdPtDOMC</p>","","","","","","","",""
"html-keyboard-response","171","261587","0.0-11.0-0.2","609568823ff056b77e565445","64b003020eef62ee308107cc","64b10ac2f0a8606386078e15","null","null","<p style=""font-size: 60px; font-family: BACS"">KABACPMl</p>","","","","","","","",""
"html-keyboard-response","172","262604","0.0-11.0-0.3","609568823ff056b77e565445","64b003020eef62ee308107cc","64b10ac2f0a8606386078e15","null","null","<p style=""font-size: 60px; font-family: BACS"">UaZmaUdvY</p>","","","","","","","",""
"html-keyboard-response","173","263604","0.0-11.0-0.4","609568823ff056b77e565445","64b003020eef62ee308107cc","64b10ac2f0a8606386078e15","null","null","<p style=""font-size: 60px; font-family: BACS"">JmNkQvlZ</p>","","","","","","","",""
"html-keyboard-response","174","264619","0.0-11.0-0.5","609568823ff056b77e565445","64b003020eef62ee308107cc","64b10ac2f0a8606386078e15","null","null","<p style=""font-size: 60px; font-family: BACS"">mBbKbdtK</p>","","","","","","","",""
"html-keyboard-response","175","265621","0.0-11.0-0.6","609568823ff056b77e565445","64b003020eef62ee308107cc","64b10ac2f0a8606386078e15","null","null","<p style=""font-size: 60px; font-family: BACS"">UaZmaQvlZ</p>","","","","","","","",""
"html-keyboard-response","176","266635","0.0-11.0-0.7","609568823ff056b77e565445","64b003020eef62ee308107cc","64b10ac2f0a8606386078e15","null","null","<p style=""font-size: 60px; font-family: BACS"">JNkaUdvY</p>","","","","","","","",""
"html-keyboard-response","177","267637","0.0-11.0-0.8","609568823ff056b77e565445","64b003020eef62ee308107cc","64b10ac2f0a8606386078e15","null","null","<p style=""font-size: 60px; font-family: BACS"">tmtEMmhc</p>","","","","","","","",""
"html-keyboard-response","178","268651","0.0-11.0-0.9","609568823ff056b77e565445","64b003020eef62ee308107cc","64b10ac2f0a8606386078e15","null","null","<p style=""font-size: 60px; font-family: BACS"">ZdlOQvlZ</p>","","","","","","","",""
"html-keyboard-response","179","269667","0.0-11.0-0.10","609568823ff056b77e565445","64b003020eef62ee308107cc","64b10ac2f0a8606386078e15","null","null","<p style=""font-size: 60px; font-family: BACS"">EMbDPEAO</p>","","","","","","","",""
"html-keyboard-response","180","270668","0.0-11.0-0.11","609568823ff056b77e565445","64b003020eef62ee308107cc","64b10ac2f0a8606386078e15","null","null","<p style=""font-size: 60px; font-family: BACS"">NkUAQONk</p>","","","","","","","",""
"html-keyboard-response","181","271681","0.0-11.0-0.12","609568823ff056b77e565445","64b003020eef62ee308107cc","64b10ac2f0a8606386078e15","null","null","<p style=""font-size: 60px; font-family: BACS"">BKDRYbdtK</p>","","","","","","","",""
"html-keyboard-response","182","272684","0.0-11.0-0.13","609568823ff056b77e565445","64b003020eef62ee308107cc","64b10ac2f0a8606386078e15","null","null","<p style=""font-size: 60px; font-family: BACS"">mdkKCPMl</p>","","","","","","","",""
"html-keyboard-response","183","273698","0.0-11.0-0.14","609568823ff056b77e565445","64b003020eef62ee308107cc","64b10ac2f0a8606386078e15","null","null","<p style=""font-size: 60px; font-family: BACS"">kulZYUYa</p>","","","","","","","",""
"html-keyboard-response","184","274714","0.0-11.0-0.15","609568823ff056b77e565445","64b003020eef62ee308107cc","64b10ac2f0a8606386078e15","null","null","<p style=""font-size: 60px; font-family: BACS"">RdPtDCPMl</p>","","","","","","","",""
"html-keyboard-response","185","275729","0.0-11.0-0.16","609568823ff056b77e565445","64b003020eef62ee308107cc","64b10ac2f0a8606386078e15","null","null","<p style=""font-size: 60px; font-family: BACS"">lBKtmhc</p>","","","","","","","",""
"html-keyboard-response","186","276730","0.0-11.0-0.17","609568823ff056b77e565445","64b003020eef62ee308107cc","64b10ac2f0a8606386078e15","null","null","<p style=""font-size: 60px; font-family: BACS"">tmtEMEAO</p>","","","","","","","",""
"html-keyboard-response","187","277746","0.0-11.0-0.18","609568823ff056b77e565445","64b003020eef62ee308107cc","64b10ac2f0a8606386078e15","null","null","<p style=""font-size: 60px; font-family: BACS"">vkYGlYUYa</p>","","","","","","","",""
"html-keyboard-response","188","278747","0.0-11.0-0.19","609568823ff056b77e565445","64b003020eef62ee308107cc","64b10ac2f0a8606386078e15","null","null","<p style=""font-size: 60px; font-family: BACS"">QLrOJQONk</p>","","","","","","","",""
"html-keyboard-response","189","279762","0.0-11.0-0.20","609568823ff056b77e565445","64b003020eef62ee308107cc","64b10ac2f0a8606386078e15","null","null","<p style=""font-size: 60px; font-family: BACS"">TKDkEAO</p>","","","","","","","",""
"html-keyboard-response","190","280777","0.0-11.0-0.21","609568823ff056b77e565445","64b003020eef62ee308107cc","64b10ac2f0a8606386078e15","null","null","<p style=""font-size: 60px; font-family: BACS"">tmtEMOMC</p>","","","","","","","",""
"html-keyboard-response","191","281793","0.0-11.0-0.22","609568823ff056b77e565445","64b003020eef62ee308107cc","64b10ac2f0a8606386078e15","null","null","<p style=""font-size: 60px; font-family: BACS"">BKDRYmhc</p>","","","","","","","",""
"html-keyboard-response","192","282809","0.0-11.0-0.23","609568823ff056b77e565445","64b003020eef62ee308107cc","64b10ac2f0a8606386078e15","null","null","<p style=""font-size: 60px; font-family: BACS"">vkYGlrZYd</p>","","","","","","","",""
"html-keyboard-response","193","283825","0.0-11.0-0.24","609568823ff056b77e565445","64b003020eef62ee308107cc","64b10ac2f0a8606386078e15","null","null","<p style=""font-size: 60px; font-family: BACS"">EMbDPOMC</p>","","","","","","","",""
"html-keyboard-response","194","284841","0.0-11.0-0.25","609568823ff056b77e565445","64b003020eef62ee308107cc","64b10ac2f0a8606386078e15","null","null","<p style=""font-size: 60px; font-family: BACS"">kulZQvlZ</p>","","","","","","","",""
"html-keyboard-response","195","285842","0.0-11.0-0.26","609568823ff056b77e565445","64b003020eef62ee308107cc","64b10ac2f0a8606386078e15","null","null","<p style=""font-size: 60px; font-family: BACS"">mBbKmhc</p>","","","","","","","",""
"html-keyboard-response","196","286856","0.0-11.0-0.27","609568823ff056b77e565445","64b003020eef62ee308107cc","64b10ac2f0a8606386078e15","null","null","<p style=""font-size: 60px; font-family: BACS"">UaZmaQONk</p>","","","","","","","",""
"html-keyboard-response","197","287859","0.0-11.0-0.28","609568823ff056b77e565445","64b003020eef62ee308107cc","64b10ac2f0a8606386078e15","null","null","<p style=""font-size: 60px; font-family: BACS"">mBbKEAO</p>","","","","","","","",""
"html-keyboard-response","198","288872","0.0-11.0-0.29","609568823ff056b77e565445","64b003020eef62ee308107cc","64b10ac2f0a8606386078e15","null","null","<p style=""font-size: 60px; font-family: BACS"">BKDRYCPMl</p>","","","","","","","",""
"html-keyboard-response","199","289888","0.0-11.0-0.30","609568823ff056b77e565445","64b003020eef62ee308107cc","64b10ac2f0a8606386078e15","null","null","<p style=""font-size: 60px; font-family: BACS"">JmNkrZYd</p>","","","","","","","",""
"html-keyboard-response","200","290904","0.0-11.0-0.31","609568823ff056b77e565445","64b003020eef62ee308107cc","64b10ac2f0a8606386078e15","null","null","<p style=""font-size: 60px; font-family: BACS"">kulZUdvY</p>","","","","","","","",""
"html-keyboard-response","201","291920","0.0-11.0-0.32","609568823ff056b77e565445","64b003020eef62ee308107cc","64b10ac2f0a8606386078e15","null","null","<p style=""font-size: 60px; font-family: BACS"">JmNkYUYa</p>","","","","","","","",""
"html-keyboard-response","202","292921","0.0-11.0-0.33","609568823ff056b77e565445","64b003020eef62ee308107cc","64b10ac2f0a8606386078e15","null","null","<p style=""font-size: 60px; font-family: BACS"">KABAOMC</p>","","","","","","","",""
"html-keyboard-response","203","293936","0.0-11.0-0.34","609568823ff056b77e565445","64b003020eef62ee308107cc","64b10ac2f0a8606386078e15","null","null","<p style=""font-size: 60px; font-family: BACS"">vkYGlUdvY</p>","","","","","","","",""
"html-keyboard-response","204","294937","0.0-11.0-0.35","609568823ff056b77e565445","64b003020eef62ee308107cc","64b10ac2f0a8606386078e15","null","null","<p style=""font-size: 60px; font-family: BACS"">RdPtDmhc</p>","","","","","","","",""
"html-keyboard-response","205","295953","0.0-11.0-0.36","609568823ff056b77e565445","64b003020eef62ee308107cc","64b10ac2f0a8606386078e15","null","null","<p style=""font-size: 60px; font-family: BACS"">ZvalvUdvY</p>","","","","","","","",""
"html-keyboard-response","206","296968","0.0-11.0-0.37","609568823ff056b77e565445","64b003020eef62ee308107cc","64b10ac2f0a8606386078e15","null","null","<p style=""font-size: 60px; font-family: BACS"">lBKtOMC</p>","","","","","","","",""
"html-keyboard-response","207","297984","0.0-11.0-0.38","609568823ff056b77e565445","64b003020eef62ee308107cc","64b10ac2f0a8606386078e15","null","null","<p style=""font-size: 60px; font-family: BACS"">ZvalvQvlZ</p>","","","","","","","",""
"html-keyboard-response","208","298985","0.0-11.0-0.39","609568823ff056b77e565445","64b003020eef62ee308107cc","64b10ac2f0a8606386078e15","null","null","<p style=""font-size: 60px; font-family: BACS"">QLrOJUdvY</p>","","","","","","","",""
"html-keyboard-response","209","299999","0.0-11.0-0.40","609568823ff056b77e565445","64b003020eef62ee308107cc","64b10ac2f0a8606386078e15","null","null","<p style=""font-size: 60px; font-family: BACS"">kulZrZYd</p>","","","","","","","",""
"html-keyboard-response","210","301000","0.0-11.0-0.41","609568823ff056b77e565445","64b003020eef62ee308107cc","64b10ac2f0a8606386078e15","null","null","<p style=""font-size: 60px; font-family: BACS"">PCPDhEAO</p>","","","","","","","",""
"html-keyboard-response","211","302015","0.0-11.0-0.42","609568823ff056b77e565445","64b003020eef62ee308107cc","64b10ac2f0a8606386078e15","null","null","<p style=""font-size: 60px; font-family: BACS"">EMbDPmhc</p>","","","","","","","",""
"html-keyboard-response","212","303017","0.0-11.0-0.43","609568823ff056b77e565445","64b003020eef62ee308107cc","64b10ac2f0a8606386078e15","null","null","<p style=""font-size: 60px; font-family: BACS"">lBKtbdtK</p>","","","","","","","",""
"html-keyboard-response","213","304031","0.0-11.0-0.44","609568823ff056b77e565445","64b003020eef62ee308107cc","64b10ac2f0a8606386078e15","null","null","<p style=""font-size: 60px; font-family: BACS"">QLrOJrZYd</p>","","","","","","","",""
"html-keyboard-response","214","305047","0.0-11.0-0.45","609568823ff056b77e565445","64b003020eef62ee308107cc","64b10ac2f0a8606386078e15","null","null","<p style=""font-size: 60px; font-family: BACS"">mdkKEAO</p>","","","","","","","",""
"html-keyboard-response","215","306062","0.0-11.0-0.46","609568823ff056b77e565445","64b003020eef62ee308107cc","64b10ac2f0a8606386078e15","null","null","<p style=""font-size: 60px; font-family: BACS"">vkYGlQvlZ</p>","","","","","","","",""
"html-keyboard-response","216","307064","0.0-11.0-0.47","609568823ff056b77e565445","64b003020eef62ee308107cc","64b10ac2f0a8606386078e15","null","null","<p style=""font-size: 60px; font-family: BACS"">mdkKOMC</p>","","","","","","","",""
"html-keyboard-response","217","308079","0.0-11.0-0.48","609568823ff056b77e565445","64b003020eef62ee308107cc","64b10ac2f0a8606386078e15","null","null","<p style=""font-size: 60px; font-family: BACS"">TKDkCPMl</p>","","","","","","","",""
"html-keyboard-response","218","309095","0.0-11.0-0.49","609568823ff056b77e565445","64b003020eef62ee308107cc","64b10ac2f0a8606386078e15","null","null","<p style=""font-size: 60px; font-family: BACS"">BKDRYOMC</p>","","","","","","","",""
"html-keyboard-response","219","310111","0.0-11.0-0.50","609568823ff056b77e565445","64b003020eef62ee308107cc","64b10ac2f0a8606386078e15","null","null","<p style=""font-size: 60px; font-family: BACS"">NkUAYUYa</p>","","","","","","","",""
"html-keyboard-response","220","311112","0.0-11.0-0.51","609568823ff056b77e565445","64b003020eef62ee308107cc","64b10ac2f0a8606386078e15","null","null","<p style=""font-size: 60px; font-family: BACS"">ZdlOQONk</p>","","","","","","","",""
"html-keyboard-response","221","312126","0.0-11.0-0.52","609568823ff056b77e565445","64b003020eef62ee308107cc","64b10ac2f0a8606386078e15","null","null","<p style=""font-size: 60px; font-family: BACS"">TKDkbdtK</p>","","","","","","","",""
"html-keyboard-response","222","313128","0.0-11.0-0.53","609568823ff056b77e565445","64b003020eef62ee308107cc","64b10ac2f0a8606386078e15","null","null","<p style=""font-size: 60px; font-family: BACS"">ZdlOrZYd</p>","","","","","","","",""
"html-keyboard-response","223","314142","0.0-11.0-0.54","609568823ff056b77e565445","64b003020eef62ee308107cc","64b10ac2f0a8606386078e15","null","null","<p style=""font-size: 60px; font-family: BACS"">PCPDhbdtK</p>","","","","","","","",""
"html-keyboard-response","224","315143","0.0-11.0-0.55","609568823ff056b77e565445","64b003020eef62ee308107cc","64b10ac2f0a8606386078e15","null","null","<p style=""font-size: 60px; font-family: BACS"">JNkaQONk</p>","","","","","","","",""
"html-keyboard-response","225","316144","0.0-11.0-0.56","609568823ff056b77e565445","64b003020eef62ee308107cc","64b10ac2f0a8606386078e15","null","null","<p style=""font-size: 60px; font-family: BACS"">EMbDPCPMl</p>","","","","","","","",""
"html-keyboard-response","226","317159","0.0-11.0-0.57","609568823ff056b77e565445","64b003020eef62ee308107cc","64b10ac2f0a8606386078e15","null","null","<p style=""font-size: 60px; font-family: BACS"">NkUAUdvY</p>","","","","","","","",""
"html-keyboard-response","227","318173","0.0-11.0-0.58","609568823ff056b77e565445","64b003020eef62ee308107cc","64b10ac2f0a8606386078e15","null","null","<p style=""font-size: 60px; font-family: BACS"">TKDkmhc</p>","","","","","","","",""
"html-keyboard-response","228","319190","0.0-11.0-0.59","609568823ff056b77e565445","64b003020eef62ee308107cc","64b10ac2f0a8606386078e15","null","null","<p style=""font-size: 60px; font-family: BACS"">JNkaQvlZ</p>","","","","","","","",""
"html-keyboard-response","229","320191","0.0-11.0-0.60","609568823ff056b77e565445","64b003020eef62ee308107cc","64b10ac2f0a8606386078e15","null","null","<p style=""font-size: 60px; font-family: BACS"">mBbKOMC</p>","","","","","","","",""
"html-keyboard-response","230","321205","0.0-11.0-0.61","609568823ff056b77e565445","64b003020eef62ee308107cc","64b10ac2f0a8606386078e15","null","null","<p style=""font-size: 60px; font-family: BACS"">PCPDhCPMl</p>","","","","","","","",""
"html-keyboard-response","231","322221","0.0-11.0-0.62","609568823ff056b77e565445","64b003020eef62ee308107cc","64b10ac2f0a8606386078e15","null","null","<p style=""font-size: 60px; font-family: BACS"">ZvalvQONk</p>","","","","","","","",""
"html-keyboard-response","232","323237","0.0-11.0-0.63","609568823ff056b77e565445","64b003020eef62ee308107cc","64b10ac2f0a8606386078e15","null","null","<p style=""font-size: 60px; font-family: BACS"">NulkYUYa</p>","","","","","","","",""
"html-keyboard-response","233","324253","0.0-11.0-0.64","609568823ff056b77e565445","64b003020eef62ee308107cc","64b10ac2f0a8606386078e15","null","null","<p style=""font-size: 60px; font-family: BACS"">KABAbdtK</p>","","","","","","","",""
"html-keyboard-response","234","325254","0.0-11.0-0.65","609568823ff056b77e565445","64b003020eef62ee308107cc","64b10ac2f0a8606386078e15","null","null","<p style=""font-size: 60px; font-family: BACS"">JmNkQONk</p>","","","","","","","",""
"html-keyboard-response","235","326268","0.0-11.0-0.66","609568823ff056b77e565445","64b003020eef62ee308107cc","64b10ac2f0a8606386078e15","null","null","<p style=""font-size: 60px; font-family: BACS"">lBKtEAO</p>","","","","","","","",""
"html-keyboard-response","236","327284","0.0-11.0-0.67","609568823ff056b77e565445","64b003020eef62ee308107cc","64b10ac2f0a8606386078e15","null","null","<p style=""font-size: 60px; font-family: BACS"">tmtEMCPMl</p>","","","","","","","",""
"html-keyboard-response","237","328286","0.0-11.0-0.68","609568823ff056b77e565445","64b003020eef62ee308107cc","64b10ac2f0a8606386078e15","null","null","<p style=""font-size: 60px; font-family: BACS"">NulkQONk</p>","","","","","","","",""
"html-keyboard-response","238","329300","0.0-11.0-0.69","609568823ff056b77e565445","64b003020eef62ee308107cc","64b10ac2f0a8606386078e15","null","null","<p style=""font-size: 60px; font-family: BACS"">RdPtDbdtK</p>","","","","","","","",""
"html-keyboard-response","239","330317","0.0-11.0-0.70","609568823ff056b77e565445","64b003020eef62ee308107cc","64b10ac2f0a8606386078e15","null","null","<p style=""font-size: 60px; font-family: BACS"">NulkUdvY</p>","","","","","","","",""
"html-keyboard-response","240","331332","0.0-11.0-0.71","609568823ff056b77e565445","64b003020eef62ee308107cc","64b10ac2f0a8606386078e15","null","null","<p style=""font-size: 60px; font-family: BACS"">QLrOJYUYa</p>","","","","","","","",""
"html-keyboard-response","241","332347","0.0-11.0-0.72","609568823ff056b77e565445","64b003020eef62ee308107cc","64b10ac2f0a8606386078e15","null","null","<p style=""font-size: 60px; font-family: BACS"">NkUArZYd</p>","","","","","","","",""
"html-keyboard-response","242","333349","0.0-11.0-0.73","609568823ff056b77e565445","64b003020eef62ee308107cc","64b10ac2f0a8606386078e15","null","null","<p style=""font-size: 60px; font-family: BACS"">ZdlOYUYa</p>","","","","","","","",""
"html-keyboard-response","243","334364","0.0-11.0-0.74","609568823ff056b77e565445","64b003020eef62ee308107cc","64b10ac2f0a8606386078e15","null","null","<p style=""font-size: 60px; font-family: BACS"">ZvalvrZYd</p>","","","","","","","",""
"html-keyboard-response","244","335380","0.0-11.0-0.75","609568823ff056b77e565445","64b003020eef62ee308107cc","64b10ac2f0a8606386078e15","null","null","<p style=""font-size: 60px; font-family: BACS"">NulkQvlZ</p>","","","","","","","",""
"html-keyboard-response","245","336382","0.0-11.0-0.76","609568823ff056b77e565445","64b003020eef62ee308107cc","64b10ac2f0a8606386078e15","null","null","<p style=""font-size: 60px; font-family: BACS"">PCPDhmhc</p>","","","","","","","",""
"html-keyboard-response","246","337396","0.0-11.0-0.77","609568823ff056b77e565445","64b003020eef62ee308107cc","64b10ac2f0a8606386078e15","null","null","<p style=""font-size: 60px; font-family: BACS"">UaZmaYUYa</p>","","","","","","","",""
"html-keyboard-response","247","338412","0.0-11.0-0.78","609568823ff056b77e565445","64b003020eef62ee308107cc","64b10ac2f0a8606386078e15","null","null","<p style=""font-size: 60px; font-family: BACS"">mdkKbdtK</p>","","","","","","","",""
"html-keyboard-response","248","339428","0.0-11.0-0.79","609568823ff056b77e565445","64b003020eef62ee308107cc","64b10ac2f0a8606386078e15","null","null","<p style=""font-size: 60px; font-family: BACS"">JNkarZYd</p>","","","","","","","",""
"html-keyboard-response","249","352795","0.0-12.0","609568823ff056b77e565445","64b003020eef62ee308107cc","64b10ac2f0a8606386078e15","13367"," ","<p>Ottimo, hai visto il terzo blocco di parole. Ora puoi prenderti una piccola pausa.</p>
      <p>Premi la barra quando sei pronta/o per riprendere.</p>","","","","","","","",""
"html-keyboard-response","250","353803","0.0-13.0-0.0","609568823ff056b77e565445","64b003020eef62ee308107cc","64b10ac2f0a8606386078e15","null","null","<p style=""font-size: 60px; font-family: BACS"">mBbKmhc</p>","","","","","","","",""
"html-keyboard-response","251","354819","0.0-13.0-0.1","609568823ff056b77e565445","64b003020eef62ee308107cc","64b10ac2f0a8606386078e15","null","null","<p style=""font-size: 60px; font-family: BACS"">JNkarZYd</p>","","","","","","","",""
"html-keyboard-response","252","355835","0.0-13.0-0.2","609568823ff056b77e565445","64b003020eef62ee308107cc","64b10ac2f0a8606386078e15","null","null","<p style=""font-size: 60px; font-family: BACS"">UaZmaQONk</p>","","","","","","","",""
"html-keyboard-response","253","356851","0.0-13.0-0.3","609568823ff056b77e565445","64b003020eef62ee308107cc","64b10ac2f0a8606386078e15","null","null","<p style=""font-size: 60px; font-family: BACS"">vkYGlQvlZ</p>","","","","","","","",""
"html-keyboard-response","254","357867","0.0-13.0-0.4","609568823ff056b77e565445","64b003020eef62ee308107cc","64b10ac2f0a8606386078e15","null","null","<p style=""font-size: 60px; font-family: BACS"">EMbDPCPMl</p>","","","","","","","",""
"html-keyboard-response","255","358884","0.0-13.0-0.5","609568823ff056b77e565445","64b003020eef62ee308107cc","64b10ac2f0a8606386078e15","null","null","<p style=""font-size: 60px; font-family: BACS"">RdPtDOMC</p>","","","","","","","",""
"html-keyboard-response","256","359900","0.0-13.0-0.6","609568823ff056b77e565445","64b003020eef62ee308107cc","64b10ac2f0a8606386078e15","null","null","<p style=""font-size: 60px; font-family: BACS"">EMbDPmhc</p>","","","","","","","",""
"html-keyboard-response","257","360901","0.0-13.0-0.7","609568823ff056b77e565445","64b003020eef62ee308107cc","64b10ac2f0a8606386078e15","null","null","<p style=""font-size: 60px; font-family: BACS"">BKDRYCPMl</p>","","","","","","","",""
"html-keyboard-response","258","361915","0.0-13.0-0.8","609568823ff056b77e565445","64b003020eef62ee308107cc","64b10ac2f0a8606386078e15","null","null","<p style=""font-size: 60px; font-family: BACS"">vkYGlUdvY</p>","","","","","","","",""
"html-keyboard-response","259","362916","0.0-13.0-0.9","609568823ff056b77e565445","64b003020eef62ee308107cc","64b10ac2f0a8606386078e15","null","null","<p style=""font-size: 60px; font-family: BACS"">ZvalvQvlZ</p>","","","","","","","",""
"html-keyboard-response","260","363931","0.0-13.0-0.10","609568823ff056b77e565445","64b003020eef62ee308107cc","64b10ac2f0a8606386078e15","null","null","<p style=""font-size: 60px; font-family: BACS"">ZdlOQONk</p>","","","","","","","",""
"html-keyboard-response","261","364932","0.0-13.0-0.11","609568823ff056b77e565445","64b003020eef62ee308107cc","64b10ac2f0a8606386078e15","null","null","<p style=""font-size: 60px; font-family: BACS"">kulZQvlZ</p>","","","","","","","",""
"html-keyboard-response","262","365947","0.0-13.0-0.12","609568823ff056b77e565445","64b003020eef62ee308107cc","64b10ac2f0a8606386078e15","null","null","<p style=""font-size: 60px; font-family: BACS"">PCPDhmhc</p>","","","","","","","",""
"html-keyboard-response","263","366962","0.0-13.0-0.13","609568823ff056b77e565445","64b003020eef62ee308107cc","64b10ac2f0a8606386078e15","null","null","<p style=""font-size: 60px; font-family: BACS"">JmNkQONk</p>","","","","","","","",""
"html-keyboard-response","264","367963","0.0-13.0-0.14","609568823ff056b77e565445","64b003020eef62ee308107cc","64b10ac2f0a8606386078e15","null","null","<p style=""font-size: 60px; font-family: BACS"">TKDkCPMl</p>","","","","","","","",""
"html-keyboard-response","265","368978","0.0-13.0-0.15","609568823ff056b77e565445","64b003020eef62ee308107cc","64b10ac2f0a8606386078e15","null","null","<p style=""font-size: 60px; font-family: BACS"">lBKtbdtK</p>","","","","","","","",""
"html-keyboard-response","266","369979","0.0-13.0-0.16","609568823ff056b77e565445","64b003020eef62ee308107cc","64b10ac2f0a8606386078e15","null","null","<p style=""font-size: 60px; font-family: BACS"">mBbKOMC</p>","","","","","","","",""
"html-keyboard-response","267","370993","0.0-13.0-0.17","609568823ff056b77e565445","64b003020eef62ee308107cc","64b10ac2f0a8606386078e15","null","null","<p style=""font-size: 60px; font-family: BACS"">mdkKbdtK</p>","","","","","","","",""
"html-keyboard-response","268","371994","0.0-13.0-0.18","609568823ff056b77e565445","64b003020eef62ee308107cc","64b10ac2f0a8606386078e15","null","null","<p style=""font-size: 60px; font-family: BACS"">kulZUdvY</p>","","","","","","","",""
"html-keyboard-response","269","373009","0.0-13.0-0.19","609568823ff056b77e565445","64b003020eef62ee308107cc","64b10ac2f0a8606386078e15","null","null","<p style=""font-size: 60px; font-family: BACS"">mdkKCPMl</p>","","","","","","","",""
"html-keyboard-response","270","374010","0.0-13.0-0.20","609568823ff056b77e565445","64b003020eef62ee308107cc","64b10ac2f0a8606386078e15","null","null","<p style=""font-size: 60px; font-family: BACS"">JNkaQONk</p>","","","","","","","",""
"html-keyboard-response","271","375025","0.0-13.0-0.21","609568823ff056b77e565445","64b003020eef62ee308107cc","64b10ac2f0a8606386078e15","null","null","<p style=""font-size: 60px; font-family: BACS"">kulZrZYd</p>","","","","","","","",""
"html-keyboard-response","272","376026","0.0-13.0-0.22","609568823ff056b77e565445","64b003020eef62ee308107cc","64b10ac2f0a8606386078e15","null","null","<p style=""font-size: 60px; font-family: BACS"">UaZmaYUYa</p>","","","","","","","",""
"html-keyboard-response","273","377039","0.0-13.0-0.23","609568823ff056b77e565445","64b003020eef62ee308107cc","64b10ac2f0a8606386078e15","null","null","<p style=""font-size: 60px; font-family: BACS"">RdPtDmhc</p>","","","","","","","",""
"html-keyboard-response","274","378042","0.0-13.0-0.24","609568823ff056b77e565445","64b003020eef62ee308107cc","64b10ac2f0a8606386078e15","null","null","<p style=""font-size: 60px; font-family: BACS"">vkYGlrZYd</p>","","","","","","","",""
"html-keyboard-response","275","379056","0.0-13.0-0.25","609568823ff056b77e565445","64b003020eef62ee308107cc","64b10ac2f0a8606386078e15","null","null","<p style=""font-size: 60px; font-family: BACS"">TKDkEAO</p>","","","","","","","",""
"html-keyboard-response","276","380072","0.0-13.0-0.26","609568823ff056b77e565445","64b003020eef62ee308107cc","64b10ac2f0a8606386078e15","null","null","<p style=""font-size: 60px; font-family: BACS"">KABAOMC</p>","","","","","","","",""
"html-keyboard-response","277","381087","0.0-13.0-0.27","609568823ff056b77e565445","64b003020eef62ee308107cc","64b10ac2f0a8606386078e15","null","null","<p style=""font-size: 60px; font-family: BACS"">QLrOJrZYd</p>","","","","","","","",""
"html-keyboard-response","278","382088","0.0-13.0-0.28","609568823ff056b77e565445","64b003020eef62ee308107cc","64b10ac2f0a8606386078e15","null","null","<p style=""font-size: 60px; font-family: BACS"">BKDRYmhc</p>","","","","","","","",""
"html-keyboard-response","279","383104","0.0-13.0-0.29","609568823ff056b77e565445","64b003020eef62ee308107cc","64b10ac2f0a8606386078e15","null","null","<p style=""font-size: 60px; font-family: BACS"">ZdlOYUYa</p>","","","","","","","",""
"html-keyboard-response","280","384119","0.0-13.0-0.30","609568823ff056b77e565445","64b003020eef62ee308107cc","64b10ac2f0a8606386078e15","null","null","<p style=""font-size: 60px; font-family: BACS"">JNkaUdvY</p>","","","","","","","",""
"html-keyboard-response","281","385135","0.0-13.0-0.31","609568823ff056b77e565445","64b003020eef62ee308107cc","64b10ac2f0a8606386078e15","null","null","<p style=""font-size: 60px; font-family: BACS"">BKDRYOMC</p>","","","","","","","",""
"html-keyboard-response","282","386136","0.0-13.0-0.32","609568823ff056b77e565445","64b003020eef62ee308107cc","64b10ac2f0a8606386078e15","null","null","<p style=""font-size: 60px; font-family: BACS"">PCPDhbdtK</p>","","","","","","","",""
"html-keyboard-response","283","387152","0.0-13.0-0.33","609568823ff056b77e565445","64b003020eef62ee308107cc","64b10ac2f0a8606386078e15","null","null","<p style=""font-size: 60px; font-family: BACS"">vkYGlYUYa</p>","","","","","","","",""
"html-keyboard-response","284","388167","0.0-13.0-0.34","609568823ff056b77e565445","64b003020eef62ee308107cc","64b10ac2f0a8606386078e15","null","null","<p style=""font-size: 60px; font-family: BACS"">PCPDhEAO</p>","","","","","","","",""
"html-keyboard-response","285","389168","0.0-13.0-0.35","609568823ff056b77e565445","64b003020eef62ee308107cc","64b10ac2f0a8606386078e15","null","null","<p style=""font-size: 60px; font-family: BACS"">NulkQvlZ</p>","","","","","","","",""
"html-keyboard-response","286","390183","0.0-13.0-0.36","609568823ff056b77e565445","64b003020eef62ee308107cc","64b10ac2f0a8606386078e15","null","null","<p style=""font-size: 60px; font-family: BACS"">RdPtDbdtK</p>","","","","","","","",""
"html-keyboard-response","287","391184","0.0-13.0-0.37","609568823ff056b77e565445","64b003020eef62ee308107cc","64b10ac2f0a8606386078e15","null","null","<p style=""font-size: 60px; font-family: BACS"">JNkaQvlZ</p>","","","","","","","",""
"html-keyboard-response","288","392198","0.0-13.0-0.38","609568823ff056b77e565445","64b003020eef62ee308107cc","64b10ac2f0a8606386078e15","null","null","<p style=""font-size: 60px; font-family: BACS"">NkUAQONk</p>","","","","","","","",""
"html-keyboard-response","289","393215","0.0-13.0-0.39","609568823ff056b77e565445","64b003020eef62ee308107cc","64b10ac2f0a8606386078e15","null","null","<p style=""font-size: 60px; font-family: BACS"">UaZmaQvlZ</p>","","","","","","","",""
"html-keyboard-response","290","394232","0.0-13.0-0.40","609568823ff056b77e565445","64b003020eef62ee308107cc","64b10ac2f0a8606386078e15","null","null","<p style=""font-size: 60px; font-family: BACS"">TKDkmhc</p>","","","","","","","",""
"html-keyboard-response","291","395247","0.0-13.0-0.41","609568823ff056b77e565445","64b003020eef62ee308107cc","64b10ac2f0a8606386078e15","null","null","<p style=""font-size: 60px; font-family: BACS"">tmtEMEAO</p>","","","","","","","",""
"html-keyboard-response","292","396263","0.0-13.0-0.42","609568823ff056b77e565445","64b003020eef62ee308107cc","64b10ac2f0a8606386078e15","null","null","<p style=""font-size: 60px; font-family: BACS"">PCPDhCPMl</p>","","","","","","","",""
"html-keyboard-response","293","397279","0.0-13.0-0.43","609568823ff056b77e565445","64b003020eef62ee308107cc","64b10ac2f0a8606386078e15","null","null","<p style=""font-size: 60px; font-family: BACS"">NkUArZYd</p>","","","","","","","",""
"html-keyboard-response","294","398295","0.0-13.0-0.44","609568823ff056b77e565445","64b003020eef62ee308107cc","64b10ac2f0a8606386078e15","null","null","<p style=""font-size: 60px; font-family: BACS"">ZdlOQvlZ</p>","","","","","","","",""
"html-keyboard-response","295","399296","0.0-13.0-0.45","609568823ff056b77e565445","64b003020eef62ee308107cc","64b10ac2f0a8606386078e15","null","null","<p style=""font-size: 60px; font-family: BACS"">KABACPMl</p>","","","","","","","",""
"html-keyboard-response","296","400312","0.0-13.0-0.46","609568823ff056b77e565445","64b003020eef62ee308107cc","64b10ac2f0a8606386078e15","null","null","<p style=""font-size: 60px; font-family: BACS"">BKDRYbdtK</p>","","","","","","","",""
"html-keyboard-response","297","401328","0.0-13.0-0.47","609568823ff056b77e565445","64b003020eef62ee308107cc","64b10ac2f0a8606386078e15","null","null","<p style=""font-size: 60px; font-family: BACS"">QLrOJQONk</p>","","","","","","","",""
"html-keyboard-response","298","402342","0.0-13.0-0.48","609568823ff056b77e565445","64b003020eef62ee308107cc","64b10ac2f0a8606386078e15","null","null","<p style=""font-size: 60px; font-family: BACS"">KABAbdtK</p>","","","","","","","",""
"html-keyboard-response","299","403344","0.0-13.0-0.49","609568823ff056b77e565445","64b003020eef62ee308107cc","64b10ac2f0a8606386078e15","null","null","<p style=""font-size: 60px; font-family: BACS"">NkUAUdvY</p>","","","","","","","",""
"html-keyboard-response","300","404360","0.0-13.0-0.50","609568823ff056b77e565445","64b003020eef62ee308107cc","64b10ac2f0a8606386078e15","null","null","<p style=""font-size: 60px; font-family: BACS"">mdkKEAO</p>","","","","","","","",""
"html-keyboard-response","301","405374","0.0-13.0-0.51","609568823ff056b77e565445","64b003020eef62ee308107cc","64b10ac2f0a8606386078e15","null","null","<p style=""font-size: 60px; font-family: BACS"">JmNkrZYd</p>","","","","","","","",""
"html-keyboard-response","302","406376","0.0-13.0-0.52","609568823ff056b77e565445","64b003020eef62ee308107cc","64b10ac2f0a8606386078e15","null","null","<p style=""font-size: 60px; font-family: BACS"">lBKtmhc</p>","","","","","","","",""
"html-keyboard-response","303","407390","0.0-13.0-0.53","609568823ff056b77e565445","64b003020eef62ee308107cc","64b10ac2f0a8606386078e15","null","null","<p style=""font-size: 60px; font-family: BACS"">mBbKEAO</p>","","","","","","","",""
"html-keyboard-response","304","408391","0.0-13.0-0.54","609568823ff056b77e565445","64b003020eef62ee308107cc","64b10ac2f0a8606386078e15","null","null","<p style=""font-size: 60px; font-family: BACS"">RdPtDCPMl</p>","","","","","","","",""
"html-keyboard-response","305","409405","0.0-13.0-0.55","609568823ff056b77e565445","64b003020eef62ee308107cc","64b10ac2f0a8606386078e15","null","null","<p style=""font-size: 60px; font-family: BACS"">tmtEMOMC</p>","","","","","","","",""
"html-keyboard-response","306","410421","0.0-13.0-0.56","609568823ff056b77e565445","64b003020eef62ee308107cc","64b10ac2f0a8606386078e15","null","null","<p style=""font-size: 60px; font-family: BACS"">UaZmaUdvY</p>","","","","","","","",""
"html-keyboard-response","307","411422","0.0-13.0-0.57","609568823ff056b77e565445","64b003020eef62ee308107cc","64b10ac2f0a8606386078e15","null","null","<p style=""font-size: 60px; font-family: BACS"">TKDkbdtK</p>","","","","","","","",""
"html-keyboard-response","308","412436","0.0-13.0-0.58","609568823ff056b77e565445","64b003020eef62ee308107cc","64b10ac2f0a8606386078e15","null","null","<p style=""font-size: 60px; font-family: BACS"">QLrOJYUYa</p>","","","","","","","",""
"html-keyboard-response","309","413438","0.0-13.0-0.59","609568823ff056b77e565445","64b003020eef62ee308107cc","64b10ac2f0a8606386078e15","null","null","<p style=""font-size: 60px; font-family: BACS"">tmtEMCPMl</p>","","","","","","","",""
"html-keyboard-response","310","414453","0.0-13.0-0.60","609568823ff056b77e565445","64b003020eef62ee308107cc","64b10ac2f0a8606386078e15","null","null","<p style=""font-size: 60px; font-family: BACS"">mBbKbdtK</p>","","","","","","","",""
"html-keyboard-response","311","415454","0.0-13.0-0.61","609568823ff056b77e565445","64b003020eef62ee308107cc","64b10ac2f0a8606386078e15","null","null","<p style=""font-size: 60px; font-family: BACS"">ZvalvUdvY</p>","","","","","","","",""
"html-keyboard-response","312","416469","0.0-13.0-0.62","609568823ff056b77e565445","64b003020eef62ee308107cc","64b10ac2f0a8606386078e15","null","null","<p style=""font-size: 60px; font-family: BACS"">kulZYUYa</p>","","","","","","","",""
"html-keyboard-response","313","417486","0.0-13.0-0.63","609568823ff056b77e565445","64b003020eef62ee308107cc","64b10ac2f0a8606386078e15","null","null","<p style=""font-size: 60px; font-family: BACS"">JmNkQvlZ</p>","","","","","","","",""
"html-keyboard-response","314","418500","0.0-13.0-0.64","609568823ff056b77e565445","64b003020eef62ee308107cc","64b10ac2f0a8606386078e15","null","null","<p style=""font-size: 60px; font-family: BACS"">tmtEMmhc</p>","","","","","","","",""
"html-keyboard-response","315","419517","0.0-13.0-0.65","609568823ff056b77e565445","64b003020eef62ee308107cc","64b10ac2f0a8606386078e15","null","null","<p style=""font-size: 60px; font-family: BACS"">EMbDPEAO</p>","","","","","","","",""
"html-keyboard-response","316","420533","0.0-13.0-0.66","609568823ff056b77e565445","64b003020eef62ee308107cc","64b10ac2f0a8606386078e15","null","null","<p style=""font-size: 60px; font-family: BACS"">ZvalvQONk</p>","","","","","","","",""
"html-keyboard-response","317","421548","0.0-13.0-0.67","609568823ff056b77e565445","64b003020eef62ee308107cc","64b10ac2f0a8606386078e15","null","null","<p style=""font-size: 60px; font-family: BACS"">QLrOJUdvY</p>","","","","","","","",""
"html-keyboard-response","318","422564","0.0-13.0-0.68","609568823ff056b77e565445","64b003020eef62ee308107cc","64b10ac2f0a8606386078e15","null","null","<p style=""font-size: 60px; font-family: BACS"">KABAEAO</p>","","","","","","","",""
"html-keyboard-response","319","423565","0.0-13.0-0.69","609568823ff056b77e565445","64b003020eef62ee308107cc","64b10ac2f0a8606386078e15","null","null","<p style=""font-size: 60px; font-family: BACS"">mdkKOMC</p>","","","","","","","",""
"html-keyboard-response","320","424581","0.0-13.0-0.70","609568823ff056b77e565445","64b003020eef62ee308107cc","64b10ac2f0a8606386078e15","null","null","<p style=""font-size: 60px; font-family: BACS"">ZvalvrZYd</p>","","","","","","","",""
"html-keyboard-response","321","425581","0.0-13.0-0.71","609568823ff056b77e565445","64b003020eef62ee308107cc","64b10ac2f0a8606386078e15","null","null","<p style=""font-size: 60px; font-family: BACS"">lBKtEAO</p>","","","","","","","",""
"html-keyboard-response","322","426596","0.0-13.0-0.72","609568823ff056b77e565445","64b003020eef62ee308107cc","64b10ac2f0a8606386078e15","null","null","<p style=""font-size: 60px; font-family: BACS"">NulkYUYa</p>","","","","","","","",""
"html-keyboard-response","323","427597","0.0-13.0-0.73","609568823ff056b77e565445","64b003020eef62ee308107cc","64b10ac2f0a8606386078e15","null","null","<p style=""font-size: 60px; font-family: BACS"">EMbDPOMC</p>","","","","","","","",""
"html-keyboard-response","324","428611","0.0-13.0-0.74","609568823ff056b77e565445","64b003020eef62ee308107cc","64b10ac2f0a8606386078e15","null","null","<p style=""font-size: 60px; font-family: BACS"">NulkQONk</p>","","","","","","","",""
"html-keyboard-response","325","429627","0.0-13.0-0.75","609568823ff056b77e565445","64b003020eef62ee308107cc","64b10ac2f0a8606386078e15","null","null","<p style=""font-size: 60px; font-family: BACS"">JmNkYUYa</p>","","","","","","","",""
"html-keyboard-response","326","430628","0.0-13.0-0.76","609568823ff056b77e565445","64b003020eef62ee308107cc","64b10ac2f0a8606386078e15","null","null","<p style=""font-size: 60px; font-family: BACS"">lBKtOMC</p>","","","","","","","",""
"html-keyboard-response","327","431643","0.0-13.0-0.77","609568823ff056b77e565445","64b003020eef62ee308107cc","64b10ac2f0a8606386078e15","null","null","<p style=""font-size: 60px; font-family: BACS"">ZdlOrZYd</p>","","","","","","","",""
"html-keyboard-response","328","432659","0.0-13.0-0.78","609568823ff056b77e565445","64b003020eef62ee308107cc","64b10ac2f0a8606386078e15","null","null","<p style=""font-size: 60px; font-family: BACS"">NkUAYUYa</p>","","","","","","","",""
"html-keyboard-response","329","433675","0.0-13.0-0.79","609568823ff056b77e565445","64b003020eef62ee308107cc","64b10ac2f0a8606386078e15","null","null","<p style=""font-size: 60px; font-family: BACS"">NulkUdvY</p>","","","","","","","",""
"html-keyboard-response","330","451332","0.0-14.0","609568823ff056b77e565445","64b003020eef62ee308107cc","64b10ac2f0a8606386078e15","17666"," ","<p>Ottimo, hai visto il quarto blocco di parole. Ora puoi prenderti una piccola pausa.</p>
      <p>Premi la barra quando sei pronta/o per riprendere.</p>","","","","","","","",""
"html-keyboard-response","331","452339","0.0-15.0-0.0","609568823ff056b77e565445","64b003020eef62ee308107cc","64b10ac2f0a8606386078e15","null","null","<p style=""font-size: 60px; font-family: BACS"">vkYGlUdvY</p>","","","","","","","",""
"html-keyboard-response","332","453355","0.0-15.0-0.1","609568823ff056b77e565445","64b003020eef62ee308107cc","64b10ac2f0a8606386078e15","null","null","<p style=""font-size: 60px; font-family: BACS"">vkYGlUdvY</p>","","","","","","","",""
"html-keyboard-response","333","454371","0.0-15.0-0.2","609568823ff056b77e565445","64b003020eef62ee308107cc","64b10ac2f0a8606386078e15","null","null","<p style=""font-size: 60px; font-family: BACS"">vkYGlUdvY</p>","","","","","","","",""
"html-keyboard-response","334","455373","0.0-15.0-0.3","609568823ff056b77e565445","64b003020eef62ee308107cc","64b10ac2f0a8606386078e15","null","null","<p style=""font-size: 60px; font-family: BACS"">vkYGlUdvY</p>","","","","","","","",""
"html-keyboard-response","335","456387","0.0-15.0-0.4","609568823ff056b77e565445","64b003020eef62ee308107cc","64b10ac2f0a8606386078e15","null","null","<p style=""font-size: 60px; font-family: BACS"">vkYGlUdvY</p>","","","","","","","",""
"html-keyboard-response","336","457402","0.0-15.0-0.5","609568823ff056b77e565445","64b003020eef62ee308107cc","64b10ac2f0a8606386078e15","null","null","<p style=""font-size: 60px; font-family: BACS"">vkYGlUdvY</p>","","","","","","","",""
"html-keyboard-response","337","458418","0.0-15.0-0.6","609568823ff056b77e565445","64b003020eef62ee308107cc","64b10ac2f0a8606386078e15","null","null","<p style=""font-size: 60px; font-family: BACS"">vkYGlUdvY</p>","","","","","","","",""
"html-keyboard-response","338","459420","0.0-15.0-0.7","609568823ff056b77e565445","64b003020eef62ee308107cc","64b10ac2f0a8606386078e15","null","null","<p style=""font-size: 60px; font-family: BACS"">vkYGlUdvY</p>","","","","","","","",""
"html-keyboard-response","339","460433","0.0-15.0-0.8","609568823ff056b77e565445","64b003020eef62ee308107cc","64b10ac2f0a8606386078e15","null","null","<p style=""font-size: 60px; font-family: BACS"">vkYGlUdvY</p>","","","","","","","",""
"html-keyboard-response","340","461434","0.0-15.0-0.9","609568823ff056b77e565445","64b003020eef62ee308107cc","64b10ac2f0a8606386078e15","null","null","<p style=""font-size: 60px; font-family: BACS"">vkYGlUdvY</p>","","","","","","","",""
"html-keyboard-response","341","462449","0.0-15.0-0.10","609568823ff056b77e565445","64b003020eef62ee308107cc","64b10ac2f0a8606386078e15","null","null","<p style=""font-size: 60px; font-family: BACS"">vkYGlUdvY</p>","","","","","","","",""
"html-keyboard-response","342","463450","0.0-15.0-0.11","609568823ff056b77e565445","64b003020eef62ee308107cc","64b10ac2f0a8606386078e15","null","null","<p style=""font-size: 60px; font-family: BACS"">vkYGlUdvY</p>","","","","","","","",""
"html-keyboard-response","343","464464","0.0-15.0-0.12","609568823ff056b77e565445","64b003020eef62ee308107cc","64b10ac2f0a8606386078e15","null","null","<p style=""font-size: 60px; font-family: BACS"">vkYGlUdvY</p>","","","","","","","",""
"html-keyboard-response","344","465481","0.0-15.0-0.13","609568823ff056b77e565445","64b003020eef62ee308107cc","64b10ac2f0a8606386078e15","null","null","<p style=""font-size: 60px; font-family: BACS"">vkYGlUdvY</p>","","","","","","","",""
"html-keyboard-response","345","466496","0.0-15.0-0.14","609568823ff056b77e565445","64b003020eef62ee308107cc","64b10ac2f0a8606386078e15","null","null","<p style=""font-size: 60px; font-family: BACS"">vkYGlUdvY</p>","","","","","","","",""
"html-keyboard-response","346","467497","0.0-15.0-0.15","609568823ff056b77e565445","64b003020eef62ee308107cc","64b10ac2f0a8606386078e15","null","null","<p style=""font-size: 60px; font-family: BACS"">vkYGlUdvY</p>","","","","","","","",""
"html-keyboard-response","347","468513","0.0-15.0-0.16","609568823ff056b77e565445","64b003020eef62ee308107cc","64b10ac2f0a8606386078e15","null","null","<p style=""font-size: 60px; font-family: BACS"">vkYGlUdvY</p>","","","","","","","",""
"html-keyboard-response","348","469514","0.0-15.0-0.17","609568823ff056b77e565445","64b003020eef62ee308107cc","64b10ac2f0a8606386078e15","null","null","<p style=""font-size: 60px; font-family: BACS"">vkYGlUdvY</p>","","","","","","","",""
"html-keyboard-response","349","470529","0.0-15.0-0.18","609568823ff056b77e565445","64b003020eef62ee308107cc","64b10ac2f0a8606386078e15","null","null","<p style=""font-size: 60px; font-family: BACS"">vkYGlUdvY</p>","","","","","","","",""
"html-keyboard-response","350","471544","0.0-15.0-0.19","609568823ff056b77e565445","64b003020eef62ee308107cc","64b10ac2f0a8606386078e15","null","null","<p style=""font-size: 60px; font-family: BACS"">vkYGlUdvY</p>","","","","","","","",""
"html-keyboard-response","351","472560","0.0-15.0-0.20","609568823ff056b77e565445","64b003020eef62ee308107cc","64b10ac2f0a8606386078e15","null","null","<p style=""font-size: 60px; font-family: BACS"">vkYGlUdvY</p>","","","","","","","",""
"html-keyboard-response","352","473576","0.0-15.0-0.21","609568823ff056b77e565445","64b003020eef62ee308107cc","64b10ac2f0a8606386078e15","null","null","<p style=""font-size: 60px; font-family: BACS"">vkYGlUdvY</p>","","","","","","","",""
"html-keyboard-response","353","474592","0.0-15.0-0.22","609568823ff056b77e565445","64b003020eef62ee308107cc","64b10ac2f0a8606386078e15","null","null","<p style=""font-size: 60px; font-family: BACS"">vkYGlUdvY</p>","","","","","","","",""
"html-keyboard-response","354","475608","0.0-15.0-0.23","609568823ff056b77e565445","64b003020eef62ee308107cc","64b10ac2f0a8606386078e15","null","null","<p style=""font-size: 60px; font-family: BACS"">vkYGlUdvY</p>","","","","","","","",""
"html-keyboard-response","355","476623","0.0-15.0-0.24","609568823ff056b77e565445","64b003020eef62ee308107cc","64b10ac2f0a8606386078e15","null","null","<p style=""font-size: 60px; font-family: BACS"">vkYGlUdvY</p>","","","","","","","",""
"html-keyboard-response","356","477624","0.0-15.0-0.25","609568823ff056b77e565445","64b003020eef62ee308107cc","64b10ac2f0a8606386078e15","null","null","<p style=""font-size: 60px; font-family: BACS"">vkYGlUdvY</p>","","","","","","","",""
"html-keyboard-response","357","478639","0.0-15.0-0.26","609568823ff056b77e565445","64b003020eef62ee308107cc","64b10ac2f0a8606386078e15","null","null","<p style=""font-size: 60px; font-family: BACS"">vkYGlUdvY</p>","","","","","","","",""
"html-keyboard-response","358","479650","0.0-15.0-0.27","609568823ff056b77e565445","64b003020eef62ee308107cc","64b10ac2f0a8606386078e15","null","null","<p style=""font-size: 60px; font-family: BACS"">vkYGlUdvY</p>","","","","","","","",""
"html-keyboard-response","359","480656","0.0-15.0-0.28","609568823ff056b77e565445","64b003020eef62ee308107cc","64b10ac2f0a8606386078e15","null","null","<p style=""font-size: 60px; font-family: BACS"">vkYGlUdvY</p>","","","","","","","",""
"html-keyboard-response","360","481667","0.0-15.0-0.29","609568823ff056b77e565445","64b003020eef62ee308107cc","64b10ac2f0a8606386078e15","null","null","<p style=""font-size: 60px; font-family: BACS"">vkYGlUdvY</p>","","","","","","","",""
"html-keyboard-response","361","482673","0.0-15.0-0.30","609568823ff056b77e565445","64b003020eef62ee308107cc","64b10ac2f0a8606386078e15","null","null","<p style=""font-size: 60px; font-family: BACS"">vkYGlUdvY</p>","","","","","","","",""
"html-keyboard-response","362","483688","0.0-15.0-0.31","609568823ff056b77e565445","64b003020eef62ee308107cc","64b10ac2f0a8606386078e15","null","null","<p style=""font-size: 60px; font-family: BACS"">vkYGlUdvY</p>","","","","","","","",""
"html-keyboard-response","363","484703","0.0-15.0-0.32","609568823ff056b77e565445","64b003020eef62ee308107cc","64b10ac2f0a8606386078e15","null","null","<p style=""font-size: 60px; font-family: BACS"">vkYGlUdvY</p>","","","","","","","",""
"html-keyboard-response","364","485704","0.0-15.0-0.33","609568823ff056b77e565445","64b003020eef62ee308107cc","64b10ac2f0a8606386078e15","null","null","<p style=""font-size: 60px; font-family: BACS"">vkYGlUdvY</p>","","","","","","","",""
"html-keyboard-response","365","486719","0.0-15.0-0.34","609568823ff056b77e565445","64b003020eef62ee308107cc","64b10ac2f0a8606386078e15","null","null","<p style=""font-size: 60px; font-family: BACS"">vkYGlUdvY</p>","","","","","","","",""
"html-keyboard-response","366","487735","0.0-15.0-0.35","609568823ff056b77e565445","64b003020eef62ee308107cc","64b10ac2f0a8606386078e15","null","null","<p style=""font-size: 60px; font-family: BACS"">vkYGlUdvY</p>","","","","","","","",""
"html-keyboard-response","367","488751","0.0-15.0-0.36","609568823ff056b77e565445","64b003020eef62ee308107cc","64b10ac2f0a8606386078e15","null","null","<p style=""font-size: 60px; font-family: BACS"">vkYGlUdvY</p>","","","","","","","",""
"html-keyboard-response","368","489767","0.0-15.0-0.37","609568823ff056b77e565445","64b003020eef62ee308107cc","64b10ac2f0a8606386078e15","null","null","<p style=""font-size: 60px; font-family: BACS"">vkYGlUdvY</p>","","","","","","","",""
"html-keyboard-response","369","490782","0.0-15.0-0.38","609568823ff056b77e565445","64b003020eef62ee308107cc","64b10ac2f0a8606386078e15","null","null","<p style=""font-size: 60px; font-family: BACS"">vkYGlUdvY</p>","","","","","","","",""
"html-keyboard-response","370","491799","0.0-15.0-0.39","609568823ff056b77e565445","64b003020eef62ee308107cc","64b10ac2f0a8606386078e15","null","null","<p style=""font-size: 60px; font-family: BACS"">vkYGlUdvY</p>","","","","","","","",""
"html-keyboard-response","371","492800","0.0-15.0-0.40","609568823ff056b77e565445","64b003020eef62ee308107cc","64b10ac2f0a8606386078e15","null","null","<p style=""font-size: 60px; font-family: BACS"">vkYGlUdvY</p>","","","","","","","",""
"html-keyboard-response","372","493815","0.0-15.0-0.41","609568823ff056b77e565445","64b003020eef62ee308107cc","64b10ac2f0a8606386078e15","null","null","<p style=""font-size: 60px; font-family: BACS"">vkYGlUdvY</p>","","","","","","","",""
"html-keyboard-response","373","494831","0.0-15.0-0.42","609568823ff056b77e565445","64b003020eef62ee308107cc","64b10ac2f0a8606386078e15","null","null","<p style=""font-size: 60px; font-family: BACS"">vkYGlUdvY</p>","","","","","","","",""
"html-keyboard-response","374","495846","0.0-15.0-0.43","609568823ff056b77e565445","64b003020eef62ee308107cc","64b10ac2f0a8606386078e15","null","null","<p style=""font-size: 60px; font-family: BACS"">vkYGlUdvY</p>","","","","","","","",""
"html-keyboard-response","375","496862","0.0-15.0-0.44","609568823ff056b77e565445","64b003020eef62ee308107cc","64b10ac2f0a8606386078e15","null","null","<p style=""font-size: 60px; font-family: BACS"">vkYGlUdvY</p>","","","","","","","",""
"html-keyboard-response","376","497864","0.0-15.0-0.45","609568823ff056b77e565445","64b003020eef62ee308107cc","64b10ac2f0a8606386078e15","null","null","<p style=""font-size: 60px; font-family: BACS"">vkYGlUdvY</p>","","","","","","","",""
"html-keyboard-response","377","498879","0.0-15.0-0.46","609568823ff056b77e565445","64b003020eef62ee308107cc","64b10ac2f0a8606386078e15","null","null","<p style=""font-size: 60px; font-family: BACS"">vkYGlUdvY</p>","","","","","","","",""
"html-keyboard-response","378","499894","0.0-15.0-0.47","609568823ff056b77e565445","64b003020eef62ee308107cc","64b10ac2f0a8606386078e15","null","null","<p style=""font-size: 60px; font-family: BACS"">vkYGlUdvY</p>","","","","","","","",""
"html-keyboard-response","379","500896","0.0-15.0-0.48","609568823ff056b77e565445","64b003020eef62ee308107cc","64b10ac2f0a8606386078e15","null","null","<p style=""font-size: 60px; font-family: BACS"">vkYGlUdvY</p>","","","","","","","",""
"html-keyboard-response","380","501911","0.0-15.0-0.49","609568823ff056b77e565445","64b003020eef62ee308107cc","64b10ac2f0a8606386078e15","null","null","<p style=""font-size: 60px; font-family: BACS"">vkYGlUdvY</p>","","","","","","","",""
"html-keyboard-response","381","502912","0.0-15.0-0.50","609568823ff056b77e565445","64b003020eef62ee308107cc","64b10ac2f0a8606386078e15","null","null","<p style=""font-size: 60px; font-family: BACS"">vkYGlUdvY</p>","","","","","","","",""
"html-keyboard-response","382","503926","0.0-15.0-0.51","609568823ff056b77e565445","64b003020eef62ee308107cc","64b10ac2f0a8606386078e15","null","null","<p style=""font-size: 60px; font-family: BACS"">vkYGlUdvY</p>","","","","","","","",""
"html-keyboard-response","383","504929","0.0-15.0-0.52","609568823ff056b77e565445","64b003020eef62ee308107cc","64b10ac2f0a8606386078e15","null","null","<p style=""font-size: 60px; font-family: BACS"">vkYGlUdvY</p>","","","","","","","",""
"html-keyboard-response","384","505941","0.0-15.0-0.53","609568823ff056b77e565445","64b003020eef62ee308107cc","64b10ac2f0a8606386078e15","null","null","<p style=""font-size: 60px; font-family: BACS"">vkYGlUdvY</p>","","","","","","","",""
"html-keyboard-response","385","506942","0.0-15.0-0.54","609568823ff056b77e565445","64b003020eef62ee308107cc","64b10ac2f0a8606386078e15","null","null","<p style=""font-size: 60px; font-family: BACS"">vkYGlUdvY</p>","","","","","","","",""
"html-keyboard-response","386","507943","0.0-15.0-0.55","609568823ff056b77e565445","64b003020eef62ee308107cc","64b10ac2f0a8606386078e15","null","null","<p style=""font-size: 60px; font-family: BACS"">vkYGlUdvY</p>","","","","","","","",""
"html-keyboard-response","387","508956","0.0-15.0-0.56","609568823ff056b77e565445","64b003020eef62ee308107cc","64b10ac2f0a8606386078e15","null","null","<p style=""font-size: 60px; font-family: BACS"">vkYGlUdvY</p>","","","","","","","",""
"html-keyboard-response","388","509957","0.0-15.0-0.57","609568823ff056b77e565445","64b003020eef62ee308107cc","64b10ac2f0a8606386078e15","null","null","<p style=""font-size: 60px; font-family: BACS"">vkYGlUdvY</p>","","","","","","","",""
"html-keyboard-response","389","510974","0.0-15.0-0.58","609568823ff056b77e565445","64b003020eef62ee308107cc","64b10ac2f0a8606386078e15","null","null","<p style=""font-size: 60px; font-family: BACS"">vkYGlUdvY</p>","","","","","","","",""
"html-keyboard-response","390","511998","0.0-15.0-0.59","609568823ff056b77e565445","64b003020eef62ee308107cc","64b10ac2f0a8606386078e15","null","null","<p style=""font-size: 60px; font-family: BACS"">vkYGlUdvY</p>","","","","","","","",""
"html-keyboard-response","391","513014","0.0-15.0-0.60","609568823ff056b77e565445","64b003020eef62ee308107cc","64b10ac2f0a8606386078e15","null","null","<p style=""font-size: 60px; font-family: BACS"">vkYGlUdvY</p>","","","","","","","",""
"html-keyboard-response","392","514029","0.0-15.0-0.61","609568823ff056b77e565445","64b003020eef62ee308107cc","64b10ac2f0a8606386078e15","null","null","<p style=""font-size: 60px; font-family: BACS"">vkYGlUdvY</p>","","","","","","","",""
"html-keyboard-response","393","515031","0.0-15.0-0.62","609568823ff056b77e565445","64b003020eef62ee308107cc","64b10ac2f0a8606386078e15","null","null","<p style=""font-size: 60px; font-family: BACS"">vkYGlUdvY</p>","","","","","","","",""
"html-keyboard-response","394","516046","0.0-15.0-0.63","609568823ff056b77e565445","64b003020eef62ee308107cc","64b10ac2f0a8606386078e15","null","null","<p style=""font-size: 60px; font-family: BACS"">vkYGlUdvY</p>","","","","","","","",""
"html-keyboard-response","395","517061","0.0-15.0-0.64","609568823ff056b77e565445","64b003020eef62ee308107cc","64b10ac2f0a8606386078e15","null","null","<p style=""font-size: 60px; font-family: BACS"">vkYGlUdvY</p>","","","","","","","",""
"html-keyboard-response","396","518063","0.0-15.0-0.65","609568823ff056b77e565445","64b003020eef62ee308107cc","64b10ac2f0a8606386078e15","null","null","<p style=""font-size: 60px; font-family: BACS"">vkYGlUdvY</p>","","","","","","","",""
"html-keyboard-response","397","519077","0.0-15.0-0.66","609568823ff056b77e565445","64b003020eef62ee308107cc","64b10ac2f0a8606386078e15","null","null","<p style=""font-size: 60px; font-family: BACS"">vkYGlUdvY</p>","","","","","","","",""
"html-keyboard-response","398","520093","0.0-15.0-0.67","609568823ff056b77e565445","64b003020eef62ee308107cc","64b10ac2f0a8606386078e15","null","null","<p style=""font-size: 60px; font-family: BACS"">vkYGlUdvY</p>","","","","","","","",""
"html-keyboard-response","399","521110","0.0-15.0-0.68","609568823ff056b77e565445","64b003020eef62ee308107cc","64b10ac2f0a8606386078e15","null","null","<p style=""font-size: 60px; font-family: BACS"">vkYGlUdvY</p>","","","","","","","",""
"html-keyboard-response","400","522125","0.0-15.0-0.69","609568823ff056b77e565445","64b003020eef62ee308107cc","64b10ac2f0a8606386078e15","null","null","<p style=""font-size: 60px; font-family: BACS"">vkYGlUdvY</p>","","","","","","","",""
"html-keyboard-response","401","523126","0.0-15.0-0.70","609568823ff056b77e565445","64b003020eef62ee308107cc","64b10ac2f0a8606386078e15","null","null","<p style=""font-size: 60px; font-family: BACS"">vkYGlUdvY</p>","","","","","","","",""
