"trial_type","trial_index","time_elapsed","internal_node_id","subject_id","study_id","session_id","rt","response","stimulus","success","item","task","correct_response","testing_condition","correct","target","confound","name"
"pavlovia","0","920","0.0-0.0","64ef422a4789bd6b6b9042ce","650c16f0f2faf8d7a0d14c09","651c1e6c62eab12a59b27824","","","","","","","","","","","",""
"survey-html-form","1","7552","0.0-1.0","64ef422a4789bd6b6b9042ce","650c16f0f2faf8d7a0d14c09","651c1e6c62eab12a59b27824","6624","{""ID"":""64ef422a4789bd6b6b9042ce""}","","","","","","","","","",""
"html-keyboard-response","2","74824","0.0-2.0","64ef422a4789bd6b6b9042ce","650c16f0f2faf8d7a0d14c09","651c1e6c62eab12a59b27824","67268"," ","<p style=""font-size: 15px;"">Before beginning, we ask that you read the consent information and confirm your agreement to participate in the experiment.</p>
      <p style=""font-size: 15px;""> We ask that you remember that this is a research project and that your participation is entirely voluntary. You can stop your participation at any time, without needing to provide any explanation. The study we're asking you to participate in aims at examining how readers process written words. You will be engaged in a session of apprximately 20 minutes, followed by a brief questionnaire. You will have the opportunity to take a few breaks during the experiment. You will be paid £4 for your participation, corresponding to a rate of £8/hour. While this experiment looks at cognitive faculties, this experiment doesn't constitute clinical proof of eventual pathologies.</p>
      <p style=""font-size: 15px;"">All of the information collected thanks to yours and others' participation will be held in a secure password-protected server, and will not be shared with anyone not authorised to view it. Your personal information will be kept with an arbitrary participant ID. Thanks to this data anonymity process, any researcher analysing the data won't be able to track the information back to a specific participant. Therefore, this process will make identifying you impossibile, even when results from the study will be published in scientific reviews, presented at congresses, or at any other public forum. More generally, the collected data will be treated in accordance with the laws on privacy and conformity to the Legislative Degree n. 196 ""Code regarding the protection of personal data"" of the 30th of June 2003 and to the European Regulation 2016/670 (General Data Protection Regulation - GDPR). The Data Protection Officer is Avv. Valentina Carollo, who can be contacted at the following email addresses: <a href=""mailto:dpo@sissa.it"">dpo@sissa.it</a> or <a href=""mailto:rpd@sissa.it"">rpd@sissa.it</a> - PEC: <a href=""mailto:protocollo@pec.sissa.it"">protocollo@pec.sissa.it</a>.</p>
      <p style=""font-size: 15px;""> Before expressing your consent to participate, we would like to remind you again that in case you need explanations on any aspect of the experimental procedure, the researcher is at your disposition (<a href=""mailto:aliebelt@sissa.it"">aliebelt@sissa.it</a>, <a href=""mailto:davide.crepaldi@sissa.it"">davide.crepaldi@sissa.it</a>).</p>
      <p style=""font-size: 15px;"">If you would like to download the informed consent form, you can do so here: <a href=""BASL-Informed_Consent.pdf"" download>informed consent form</a>.</p>
      <p style=""font-size: 15px;"">We ask that you press the spacebar to proceed to the consent section.</p>","","","","","","","","",""
"survey-html-form","3","108617","0.0-3.0","64ef422a4789bd6b6b9042ce","650c16f0f2faf8d7a0d14c09","651c1e6c62eab12a59b27824","33790","{""consent1"":""YES"",""consent2"":""YES"",""consent3"":""YES"",""consent4"":""YES"",""consent5"":""YES"",""consent6"":""YES""}","","","","","","","","","",""
"fullscreen","4","126355","0.0-4.0","64ef422a4789bd6b6b9042ce","650c16f0f2faf8d7a0d14c09","651c1e6c62eab12a59b27824","","","","true","","","","","","","",""
"html-keyboard-response","5","151107","0.0-5.0","64ef422a4789bd6b6b9042ce","650c16f0f2faf8d7a0d14c09","651c1e6c62eab12a59b27824","24749"," ","<p>Welcome, and thank you very much for your time!</p>
      <p>In this experiment, you'll be a language expert who's been asked to take a look at words that Earth has received in its first communication with aliens. Your task, in this first part of the experiment, is to pay close attention to the words you'll be shown; later, world leaders will ask you questions on what you saw. The words will be shown to you quite quickly; it seems that the aliens were in a hurry :-)</p>
      <p>Press the spacebar to continue.<p>","","","","","","","","",""
"html-keyboard-response","6","151160","0.0-6.0","64ef422a4789bd6b6b9042ce","650c16f0f2faf8d7a0d14c09","651c1e6c62eab12a59b27824","null","null","<p style=""font-size: 120px; font-family: BACS""> </p>","","","","","","","","",""
"html-keyboard-response","7","171039","0.0-7.0","64ef422a4789bd6b6b9042ce","650c16f0f2faf8d7a0d14c09","651c1e6c62eab12a59b27824","19878"," ","<p>Here is an example of the words you'll see:</p>
      <img src='esempio.png' height='400px'>
      <p>When you're ready to begin, press the spacebar.</p></div>","","","","","","","","",""
"html-keyboard-response","8","172058","0.0-8.0-0.0","64ef422a4789bd6b6b9042ce","650c16f0f2faf8d7a0d14c09","651c1e6c62eab12a59b27824","null","null","<p style=""font-size: 60px; font-family: BACS"">dGLAldUr</p>","","","","","","","","",""
"html-keyboard-response","9","173086","0.0-8.0-0.1","64ef422a4789bd6b6b9042ce","650c16f0f2faf8d7a0d14c09","651c1e6c62eab12a59b27824","null","null","<p style=""font-size: 60px; font-family: BACS"">OAblckJdr</p>","","","","","","","","",""
"html-keyboard-response","10","174111","0.0-8.0-0.2","64ef422a4789bd6b6b9042ce","650c16f0f2faf8d7a0d14c09","651c1e6c62eab12a59b27824","null","null","<p style=""font-size: 60px; font-family: BACS"">CtmbmAM</p>","","","","","","","","",""
"html-keyboard-response","11","175132","0.0-8.0-0.3","64ef422a4789bd6b6b9042ce","650c16f0f2faf8d7a0d14c09","651c1e6c62eab12a59b27824","null","null","<p style=""font-size: 60px; font-family: BACS"">DCmhYBO</p>","","","","","","","","",""
"html-keyboard-response","12","176142","0.0-8.0-0.4","64ef422a4789bd6b6b9042ce","650c16f0f2faf8d7a0d14c09","651c1e6c62eab12a59b27824","null","null","<p style=""font-size: 60px; font-family: BACS"">dGLAlYUYa</p>","","","","","","","","",""
"html-keyboard-response","13","177158","0.0-8.0-0.5","64ef422a4789bd6b6b9042ce","650c16f0f2faf8d7a0d14c09","651c1e6c62eab12a59b27824","null","null","<p style=""font-size: 60px; font-family: BACS"">tKDmhkPM</p>","","","","","","","","",""
"html-keyboard-response","14","178165","0.0-8.0-0.6","64ef422a4789bd6b6b9042ce","650c16f0f2faf8d7a0d14c09","651c1e6c62eab12a59b27824","null","null","<p style=""font-size: 60px; font-family: BACS"">ZdlOYUYa</p>","","","","","","","","",""
"html-keyboard-response","15","179181","0.0-8.0-0.7","64ef422a4789bd6b6b9042ce","650c16f0f2faf8d7a0d14c09","651c1e6c62eab12a59b27824","null","null","<p style=""font-size: 60px; font-family: BACS"">rLaZkdrO</p>","","","","","","","","",""
"html-keyboard-response","16","180189","0.0-8.0-0.8","64ef422a4789bd6b6b9042ce","650c16f0f2faf8d7a0d14c09","651c1e6c62eab12a59b27824","null","null","<p style=""font-size: 60px; font-family: BACS"">ZdlOdUr</p>","","","","","","","","",""
"html-keyboard-response","17","181203","0.0-8.0-0.9","64ef422a4789bd6b6b9042ce","650c16f0f2faf8d7a0d14c09","651c1e6c62eab12a59b27824","null","null","<p style=""font-size: 60px; font-family: BACS"">JauQYUYa</p>","","","","","","","","",""
"html-keyboard-response","18","182211","0.0-8.0-0.10","64ef422a4789bd6b6b9042ce","650c16f0f2faf8d7a0d14c09","651c1e6c62eab12a59b27824","null","null","<p style=""font-size: 60px; font-family: BACS"">ktBdYBO</p>","","","","","","","","",""
"html-keyboard-response","19","183231","0.0-8.0-0.11","64ef422a4789bd6b6b9042ce","650c16f0f2faf8d7a0d14c09","651c1e6c62eab12a59b27824","null","null","<p style=""font-size: 60px; font-family: BACS"">ZdlOkdrO</p>","","","","","","","","",""
"html-keyboard-response","20","184254","0.0-8.0-0.12","64ef422a4789bd6b6b9042ce","650c16f0f2faf8d7a0d14c09","651c1e6c62eab12a59b27824","null","null","<p style=""font-size: 60px; font-family: BACS"">bvkrkJdr</p>","","","","","","","","",""
"html-keyboard-response","21","185259","0.0-8.0-0.13","64ef422a4789bd6b6b9042ce","650c16f0f2faf8d7a0d14c09","651c1e6c62eab12a59b27824","null","null","<p style=""font-size: 60px; font-family: BACS"">JauQdUr</p>","","","","","","","","",""
"html-keyboard-response","22","186261","0.0-8.0-0.14","64ef422a4789bd6b6b9042ce","650c16f0f2faf8d7a0d14c09","651c1e6c62eab12a59b27824","null","null","<p style=""font-size: 60px; font-family: BACS"">DCmhmAM</p>","","","","","","","","",""
"html-keyboard-response","23","187267","0.0-8.0-0.15","64ef422a4789bd6b6b9042ce","650c16f0f2faf8d7a0d14c09","651c1e6c62eab12a59b27824","null","null","<p style=""font-size: 60px; font-family: BACS"">OAblcdUr</p>","","","","","","","","",""
"html-keyboard-response","24","188278","0.0-8.0-0.16","64ef422a4789bd6b6b9042ce","650c16f0f2faf8d7a0d14c09","651c1e6c62eab12a59b27824","null","null","<p style=""font-size: 60px; font-family: BACS"">DCmhCKOb</p>","","","","","","","","",""
"html-keyboard-response","25","189290","0.0-8.0-0.17","64ef422a4789bd6b6b9042ce","650c16f0f2faf8d7a0d14c09","651c1e6c62eab12a59b27824","null","null","<p style=""font-size: 60px; font-family: BACS"">CkBOPYBO</p>","","","","","","","","",""
"html-keyboard-response","26","190307","0.0-8.0-0.18","64ef422a4789bd6b6b9042ce","650c16f0f2faf8d7a0d14c09","651c1e6c62eab12a59b27824","null","null","<p style=""font-size: 60px; font-family: BACS"">JauQkdrO</p>","","","","","","","","",""
"html-keyboard-response","27","191313","0.0-8.0-0.19","64ef422a4789bd6b6b9042ce","650c16f0f2faf8d7a0d14c09","651c1e6c62eab12a59b27824","null","null","<p style=""font-size: 60px; font-family: BACS"">PDPhlkPM</p>","","","","","","","","",""
"html-keyboard-response","28","192317","0.0-8.0-0.20","64ef422a4789bd6b6b9042ce","650c16f0f2faf8d7a0d14c09","651c1e6c62eab12a59b27824","null","null","<p style=""font-size: 60px; font-family: BACS"">bmbNYZJO</p>","","","","","","","","",""
"html-keyboard-response","29","193338","0.0-8.0-0.21","64ef422a4789bd6b6b9042ce","650c16f0f2faf8d7a0d14c09","651c1e6c62eab12a59b27824","null","null","<p style=""font-size: 60px; font-family: BACS"">CtmbCKOb</p>","","","","","","","","",""
"html-keyboard-response","30","194361","0.0-8.0-0.22","64ef422a4789bd6b6b9042ce","650c16f0f2faf8d7a0d14c09","651c1e6c62eab12a59b27824","null","null","<p style=""font-size: 60px; font-family: BACS"">YObAmAM</p>","","","","","","","","",""
"html-keyboard-response","31","195367","0.0-8.0-0.23","64ef422a4789bd6b6b9042ce","650c16f0f2faf8d7a0d14c09","651c1e6c62eab12a59b27824","null","null","<p style=""font-size: 60px; font-family: BACS"">OAmAdYBO</p>","","","","","","","","",""
"html-keyboard-response","32","196391","0.0-8.0-0.24","64ef422a4789bd6b6b9042ce","650c16f0f2faf8d7a0d14c09","651c1e6c62eab12a59b27824","null","null","<p style=""font-size: 60px; font-family: BACS"">dGLAlkJdr</p>","","","","","","","","",""
"html-keyboard-response","33","197411","0.0-8.0-0.25","64ef422a4789bd6b6b9042ce","650c16f0f2faf8d7a0d14c09","651c1e6c62eab12a59b27824","null","null","<p style=""font-size: 60px; font-family: BACS"">DCmhkPM</p>","","","","","","","","",""
"html-keyboard-response","34","198415","0.0-8.0-0.26","64ef422a4789bd6b6b9042ce","650c16f0f2faf8d7a0d14c09","651c1e6c62eab12a59b27824","null","null","<p style=""font-size: 60px; font-family: BACS"">LckGNkJdr</p>","","","","","","","","",""
"html-keyboard-response","35","199421","0.0-8.0-0.27","64ef422a4789bd6b6b9042ce","650c16f0f2faf8d7a0d14c09","651c1e6c62eab12a59b27824","null","null","<p style=""font-size: 60px; font-family: BACS"">OAmAdkPM</p>","","","","","","","","",""
"html-keyboard-response","36","200440","0.0-8.0-0.28","64ef422a4789bd6b6b9042ce","650c16f0f2faf8d7a0d14c09","651c1e6c62eab12a59b27824","null","null","<p style=""font-size: 60px; font-family: BACS"">dGLAlYZJO</p>","","","","","","","","",""
"html-keyboard-response","37","201467","0.0-8.0-0.29","64ef422a4789bd6b6b9042ce","650c16f0f2faf8d7a0d14c09","651c1e6c62eab12a59b27824","null","null","<p style=""font-size: 60px; font-family: BACS"">YObAYBO</p>","","","","","","","","",""
"html-keyboard-response","38","202489","0.0-8.0-0.30","64ef422a4789bd6b6b9042ce","650c16f0f2faf8d7a0d14c09","651c1e6c62eab12a59b27824","null","null","<p style=""font-size: 60px; font-family: BACS"">OAmAdmAM</p>","","","","","","","","",""
"html-keyboard-response","39","203501","0.0-8.0-0.31","64ef422a4789bd6b6b9042ce","650c16f0f2faf8d7a0d14c09","651c1e6c62eab12a59b27824","null","null","<p style=""font-size: 60px; font-family: BACS"">lAOKMkPM</p>","","","","","","","","",""
"html-keyboard-response","40","204504","0.0-8.0-0.32","64ef422a4789bd6b6b9042ce","650c16f0f2faf8d7a0d14c09","651c1e6c62eab12a59b27824","null","null","<p style=""font-size: 60px; font-family: BACS"">rLaZkJdr</p>","","","","","","","","",""
"html-keyboard-response","41","205509","0.0-8.0-0.33","64ef422a4789bd6b6b9042ce","650c16f0f2faf8d7a0d14c09","651c1e6c62eab12a59b27824","null","null","<p style=""font-size: 60px; font-family: BACS"">OAmAdCPMl</p>","","","","","","","","",""
"html-keyboard-response","42","206536","0.0-8.0-0.34","64ef422a4789bd6b6b9042ce","650c16f0f2faf8d7a0d14c09","651c1e6c62eab12a59b27824","null","null","<p style=""font-size: 60px; font-family: BACS"">lAOKMYBO</p>","","","","","","","","",""
"html-keyboard-response","43","207555","0.0-8.0-0.35","64ef422a4789bd6b6b9042ce","650c16f0f2faf8d7a0d14c09","651c1e6c62eab12a59b27824","null","null","<p style=""font-size: 60px; font-family: BACS"">CtmbCPMl</p>","","","","","","","","",""
"html-keyboard-response","44","208583","0.0-8.0-0.36","64ef422a4789bd6b6b9042ce","650c16f0f2faf8d7a0d14c09","651c1e6c62eab12a59b27824","null","null","<p style=""font-size: 60px; font-family: BACS"">YObAkPM</p>","","","","","","","","",""
"html-keyboard-response","45","209586","0.0-8.0-0.37","64ef422a4789bd6b6b9042ce","650c16f0f2faf8d7a0d14c09","651c1e6c62eab12a59b27824","null","null","<p style=""font-size: 60px; font-family: BACS"">tKDmhCKOb</p>","","","","","","","","",""
"html-keyboard-response","46","210609","0.0-8.0-0.38","64ef422a4789bd6b6b9042ce","650c16f0f2faf8d7a0d14c09","651c1e6c62eab12a59b27824","null","null","<p style=""font-size: 60px; font-family: BACS"">bmbNYUYa</p>","","","","","","","","",""
"html-keyboard-response","47","211632","0.0-8.0-0.39","64ef422a4789bd6b6b9042ce","650c16f0f2faf8d7a0d14c09","651c1e6c62eab12a59b27824","null","null","<p style=""font-size: 60px; font-family: BACS"">ZdlOYZJO</p>","","","","","","","","",""
"html-keyboard-response","48","212656","0.0-8.0-0.40","64ef422a4789bd6b6b9042ce","650c16f0f2faf8d7a0d14c09","651c1e6c62eab12a59b27824","null","null","<p style=""font-size: 60px; font-family: BACS"">tKDmhYBO</p>","","","","","","","","",""
"html-keyboard-response","49","213662","0.0-8.0-0.41","64ef422a4789bd6b6b9042ce","650c16f0f2faf8d7a0d14c09","651c1e6c62eab12a59b27824","null","null","<p style=""font-size: 60px; font-family: BACS"">CkBOPCKOb</p>","","","","","","","","",""
"html-keyboard-response","50","214666","0.0-8.0-0.42","64ef422a4789bd6b6b9042ce","650c16f0f2faf8d7a0d14c09","651c1e6c62eab12a59b27824","null","null","<p style=""font-size: 60px; font-family: BACS"">bvkrYUYa</p>","","","","","","","","",""
"html-keyboard-response","51","215688","0.0-8.0-0.43","64ef422a4789bd6b6b9042ce","650c16f0f2faf8d7a0d14c09","651c1e6c62eab12a59b27824","null","null","<p style=""font-size: 60px; font-family: BACS"">PDPhlCKOb</p>","","","","","","","","",""
"html-keyboard-response","52","216698","0.0-8.0-0.44","64ef422a4789bd6b6b9042ce","650c16f0f2faf8d7a0d14c09","651c1e6c62eab12a59b27824","null","null","<p style=""font-size: 60px; font-family: BACS"">YObACPMl</p>","","","","","","","","",""
"html-keyboard-response","53","217714","0.0-8.0-0.45","64ef422a4789bd6b6b9042ce","650c16f0f2faf8d7a0d14c09","651c1e6c62eab12a59b27824","null","null","<p style=""font-size: 60px; font-family: BACS"">vkYGlYUYa</p>","","","","","","","","",""
"html-keyboard-response","54","218737","0.0-8.0-0.46","64ef422a4789bd6b6b9042ce","650c16f0f2faf8d7a0d14c09","651c1e6c62eab12a59b27824","null","null","<p style=""font-size: 60px; font-family: BACS"">YlCPBkPM</p>","","","","","","","","",""
"html-keyboard-response","55","219742","0.0-8.0-0.47","64ef422a4789bd6b6b9042ce","650c16f0f2faf8d7a0d14c09","651c1e6c62eab12a59b27824","null","null","<p style=""font-size: 60px; font-family: BACS"">NvYJYZJO</p>","","","","","","","","",""
"html-keyboard-response","56","220764","0.0-8.0-0.48","64ef422a4789bd6b6b9042ce","650c16f0f2faf8d7a0d14c09","651c1e6c62eab12a59b27824","null","null","<p style=""font-size: 60px; font-family: BACS"">CtmbkPM</p>","","","","","","","","",""
"html-keyboard-response","57","221783","0.0-8.0-0.49","64ef422a4789bd6b6b9042ce","650c16f0f2faf8d7a0d14c09","651c1e6c62eab12a59b27824","null","null","<p style=""font-size: 60px; font-family: BACS"">ktBdCKOb</p>","","","","","","","","",""
"html-keyboard-response","58","222805","0.0-8.0-0.50","64ef422a4789bd6b6b9042ce","650c16f0f2faf8d7a0d14c09","651c1e6c62eab12a59b27824","null","null","<p style=""font-size: 60px; font-family: BACS"">tKDmhCPMl</p>","","","","","","","","",""
"html-keyboard-response","59","223813","0.0-8.0-0.51","64ef422a4789bd6b6b9042ce","650c16f0f2faf8d7a0d14c09","651c1e6c62eab12a59b27824","null","null","<p style=""font-size: 60px; font-family: BACS"">vkYGldUr</p>","","","","","","","","",""
"html-keyboard-response","60","224839","0.0-8.0-0.52","64ef422a4789bd6b6b9042ce","650c16f0f2faf8d7a0d14c09","651c1e6c62eab12a59b27824","null","null","<p style=""font-size: 60px; font-family: BACS"">bmbNkJdr</p>","","","","","","","","",""
"html-keyboard-response","61","225863","0.0-8.0-0.53","64ef422a4789bd6b6b9042ce","650c16f0f2faf8d7a0d14c09","651c1e6c62eab12a59b27824","null","null","<p style=""font-size: 60px; font-family: BACS"">PDPhlCPMl</p>","","","","","","","","",""
"html-keyboard-response","62","226885","0.0-8.0-0.54","64ef422a4789bd6b6b9042ce","650c16f0f2faf8d7a0d14c09","651c1e6c62eab12a59b27824","null","null","<p style=""font-size: 60px; font-family: BACS"">ktBdmAM</p>","","","","","","","","",""
"html-keyboard-response","63","227890","0.0-8.0-0.55","64ef422a4789bd6b6b9042ce","650c16f0f2faf8d7a0d14c09","651c1e6c62eab12a59b27824","null","null","<p style=""font-size: 60px; font-family: BACS"">LckGNkdrO</p>","","","","","","","","",""
"html-keyboard-response","64","228912","0.0-8.0-0.56","64ef422a4789bd6b6b9042ce","650c16f0f2faf8d7a0d14c09","651c1e6c62eab12a59b27824","null","null","<p style=""font-size: 60px; font-family: BACS"">vkYGlkJdr</p>","","","","","","","","",""
"html-keyboard-response","65","229933","0.0-8.0-0.57","64ef422a4789bd6b6b9042ce","650c16f0f2faf8d7a0d14c09","651c1e6c62eab12a59b27824","null","null","<p style=""font-size: 60px; font-family: BACS"">NvYJYUYa</p>","","","","","","","","",""
"html-keyboard-response","66","230957","0.0-8.0-0.58","64ef422a4789bd6b6b9042ce","650c16f0f2faf8d7a0d14c09","651c1e6c62eab12a59b27824","null","null","<p style=""font-size: 60px; font-family: BACS"">bvkrdUr</p>","","","","","","","","",""
"html-keyboard-response","67","231962","0.0-8.0-0.59","64ef422a4789bd6b6b9042ce","650c16f0f2faf8d7a0d14c09","651c1e6c62eab12a59b27824","null","null","<p style=""font-size: 60px; font-family: BACS"">NvYJkdrO</p>","","","","","","","","",""
"html-keyboard-response","68","232991","0.0-8.0-0.60","64ef422a4789bd6b6b9042ce","650c16f0f2faf8d7a0d14c09","651c1e6c62eab12a59b27824","null","null","<p style=""font-size: 60px; font-family: BACS"">LckGNYZJO</p>","","","","","","","","",""
"html-keyboard-response","69","234018","0.0-8.0-0.61","64ef422a4789bd6b6b9042ce","650c16f0f2faf8d7a0d14c09","651c1e6c62eab12a59b27824","null","null","<p style=""font-size: 60px; font-family: BACS"">YlCPBYBO</p>","","","","","","","","",""
"html-keyboard-response","70","235021","0.0-8.0-0.62","64ef422a4789bd6b6b9042ce","650c16f0f2faf8d7a0d14c09","651c1e6c62eab12a59b27824","null","null","<p style=""font-size: 60px; font-family: BACS"">bvkrYZJO</p>","","","","","","","","",""
"html-keyboard-response","71","236034","0.0-8.0-0.63","64ef422a4789bd6b6b9042ce","650c16f0f2faf8d7a0d14c09","651c1e6c62eab12a59b27824","null","null","<p style=""font-size: 60px; font-family: BACS"">JauQkJdr</p>","","","","","","","","",""
"html-keyboard-response","72","237044","0.0-8.0-0.64","64ef422a4789bd6b6b9042ce","650c16f0f2faf8d7a0d14c09","651c1e6c62eab12a59b27824","null","null","<p style=""font-size: 60px; font-family: BACS"">OAblckdrO</p>","","","","","","","","",""
"html-keyboard-response","73","238061","0.0-8.0-0.65","64ef422a4789bd6b6b9042ce","650c16f0f2faf8d7a0d14c09","651c1e6c62eab12a59b27824","null","null","<p style=""font-size: 60px; font-family: BACS"">CkBOPCPMl</p>","","","","","","","","",""
"html-keyboard-response","74","239083","0.0-8.0-0.66","64ef422a4789bd6b6b9042ce","650c16f0f2faf8d7a0d14c09","651c1e6c62eab12a59b27824","null","null","<p style=""font-size: 60px; font-family: BACS"">YlCPBCKOb</p>","","","","","","","","",""
"html-keyboard-response","75","240112","0.0-8.0-0.67","64ef422a4789bd6b6b9042ce","650c16f0f2faf8d7a0d14c09","651c1e6c62eab12a59b27824","null","null","<p style=""font-size: 60px; font-family: BACS"">bmbNkdrO</p>","","","","","","","","",""
"html-keyboard-response","76","241134","0.0-8.0-0.68","64ef422a4789bd6b6b9042ce","650c16f0f2faf8d7a0d14c09","651c1e6c62eab12a59b27824","null","null","<p style=""font-size: 60px; font-family: BACS"">rLaZdUr</p>","","","","","","","","",""
"html-keyboard-response","77","242140","0.0-8.0-0.69","64ef422a4789bd6b6b9042ce","650c16f0f2faf8d7a0d14c09","651c1e6c62eab12a59b27824","null","null","<p style=""font-size: 60px; font-family: BACS"">lAOKMCKOb</p>","","","","","","","","",""
"html-keyboard-response","78","243154","0.0-8.0-0.70","64ef422a4789bd6b6b9042ce","650c16f0f2faf8d7a0d14c09","651c1e6c62eab12a59b27824","null","null","<p style=""font-size: 60px; font-family: BACS"">NvYJdUr</p>","","","","","","","","",""
"html-keyboard-response","79","244156","0.0-8.0-0.71","64ef422a4789bd6b6b9042ce","650c16f0f2faf8d7a0d14c09","651c1e6c62eab12a59b27824","null","null","<p style=""font-size: 60px; font-family: BACS"">rLaZYZJO</p>","","","","","","","","",""
"html-keyboard-response","80","245166","0.0-8.0-0.72","64ef422a4789bd6b6b9042ce","650c16f0f2faf8d7a0d14c09","651c1e6c62eab12a59b27824","null","null","<p style=""font-size: 60px; font-family: BACS"">vkYGlkdrO</p>","","","","","","","","",""
"html-keyboard-response","81","246178","0.0-8.0-0.73","64ef422a4789bd6b6b9042ce","650c16f0f2faf8d7a0d14c09","651c1e6c62eab12a59b27824","null","null","<p style=""font-size: 60px; font-family: BACS"">CkBOPmAM</p>","","","","","","","","",""
"html-keyboard-response","82","247184","0.0-8.0-0.74","64ef422a4789bd6b6b9042ce","650c16f0f2faf8d7a0d14c09","651c1e6c62eab12a59b27824","null","null","<p style=""font-size: 60px; font-family: BACS"">ktBdCPMl</p>","","","","","","","","",""
"html-keyboard-response","83","248198","0.0-8.0-0.75","64ef422a4789bd6b6b9042ce","650c16f0f2faf8d7a0d14c09","651c1e6c62eab12a59b27824","null","null","<p style=""font-size: 60px; font-family: BACS"">PDPhlmAM</p>","","","","","","","","",""
"html-keyboard-response","84","249217","0.0-8.0-0.76","64ef422a4789bd6b6b9042ce","650c16f0f2faf8d7a0d14c09","651c1e6c62eab12a59b27824","null","null","<p style=""font-size: 60px; font-family: BACS"">LckGNYUYa</p>","","","","","","","","",""
"html-keyboard-response","85","250225","0.0-8.0-0.77","64ef422a4789bd6b6b9042ce","650c16f0f2faf8d7a0d14c09","651c1e6c62eab12a59b27824","null","null","<p style=""font-size: 60px; font-family: BACS"">OAblcYZJO</p>","","","","","","","","",""
"html-keyboard-response","86","251236","0.0-8.0-0.78","64ef422a4789bd6b6b9042ce","650c16f0f2faf8d7a0d14c09","651c1e6c62eab12a59b27824","null","null","<p style=""font-size: 60px; font-family: BACS"">lAOKMmAM</p>","","","","","","","","",""
"html-keyboard-response","87","252263","0.0-8.0-0.79","64ef422a4789bd6b6b9042ce","650c16f0f2faf8d7a0d14c09","651c1e6c62eab12a59b27824","null","null","<p style=""font-size: 60px; font-family: BACS"">YlCPBCPMl</p>","","","","","","","","",""
"html-keyboard-response","88","262395","0.0-9.0","64ef422a4789bd6b6b9042ce","650c16f0f2faf8d7a0d14c09","651c1e6c62eab12a59b27824","10130"," ","<p>Great, you've seen the first block of words. You may now take a short break.</p>
      <p>Press the spacebar when you're ready to continue.</p>","","","","","","","","",""
"html-keyboard-response","89","263408","0.0-10.0-0.0","64ef422a4789bd6b6b9042ce","650c16f0f2faf8d7a0d14c09","651c1e6c62eab12a59b27824","null","null","<p style=""font-size: 60px; font-family: BACS"">rLaZkJdr</p>","","","","","","","","",""
"html-keyboard-response","90","264415","0.0-10.0-0.1","64ef422a4789bd6b6b9042ce","650c16f0f2faf8d7a0d14c09","651c1e6c62eab12a59b27824","null","null","<p style=""font-size: 60px; font-family: BACS"">PDPhlkPM</p>","","","","","","","","",""
"html-keyboard-response","91","265436","0.0-10.0-0.2","64ef422a4789bd6b6b9042ce","650c16f0f2faf8d7a0d14c09","651c1e6c62eab12a59b27824","null","null","<p style=""font-size: 60px; font-family: BACS"">bvkrYZJO</p>","","","","","","","","",""
"html-keyboard-response","92","266443","0.0-10.0-0.3","64ef422a4789bd6b6b9042ce","650c16f0f2faf8d7a0d14c09","651c1e6c62eab12a59b27824","null","null","<p style=""font-size: 60px; font-family: BACS"">NvYJkdrO</p>","","","","","","","","",""
"html-keyboard-response","93","267463","0.0-10.0-0.4","64ef422a4789bd6b6b9042ce","650c16f0f2faf8d7a0d14c09","651c1e6c62eab12a59b27824","null","null","<p style=""font-size: 60px; font-family: BACS"">YlCPBCKOb</p>","","","","","","","","",""
"html-keyboard-response","94","268466","0.0-10.0-0.5","64ef422a4789bd6b6b9042ce","650c16f0f2faf8d7a0d14c09","651c1e6c62eab12a59b27824","null","null","<p style=""font-size: 60px; font-family: BACS"">DCmhkPM</p>","","","","","","","","",""
"html-keyboard-response","95","269485","0.0-10.0-0.6","64ef422a4789bd6b6b9042ce","650c16f0f2faf8d7a0d14c09","651c1e6c62eab12a59b27824","null","null","<p style=""font-size: 60px; font-family: BACS"">JauQkJdr</p>","","","","","","","","",""
"html-keyboard-response","96","270492","0.0-10.0-0.7","64ef422a4789bd6b6b9042ce","650c16f0f2faf8d7a0d14c09","651c1e6c62eab12a59b27824","null","null","<p style=""font-size: 60px; font-family: BACS"">YObAYBO</p>","","","","","","","","",""
"html-keyboard-response","97","271513","0.0-10.0-0.8","64ef422a4789bd6b6b9042ce","650c16f0f2faf8d7a0d14c09","651c1e6c62eab12a59b27824","null","null","<p style=""font-size: 60px; font-family: BACS"">CtmbCKOb</p>","","","","","","","","",""
"html-keyboard-response","98","272535","0.0-10.0-0.9","64ef422a4789bd6b6b9042ce","650c16f0f2faf8d7a0d14c09","651c1e6c62eab12a59b27824","null","null","<p style=""font-size: 60px; font-family: BACS"">LckGNYUYa</p>","","","","","","","","",""
"html-keyboard-response","99","273565","0.0-10.0-0.10","64ef422a4789bd6b6b9042ce","650c16f0f2faf8d7a0d14c09","651c1e6c62eab12a59b27824","null","null","<p style=""font-size: 60px; font-family: BACS"">dGLAldUr</p>","","","","","","","","",""
"html-keyboard-response","100","274572","0.0-10.0-0.11","64ef422a4789bd6b6b9042ce","650c16f0f2faf8d7a0d14c09","651c1e6c62eab12a59b27824","null","null","<p style=""font-size: 60px; font-family: BACS"">lAOKMmAM</p>","","","","","","","","",""
"html-keyboard-response","101","275593","0.0-10.0-0.12","64ef422a4789bd6b6b9042ce","650c16f0f2faf8d7a0d14c09","651c1e6c62eab12a59b27824","null","null","<p style=""font-size: 60px; font-family: BACS"">CkBOPCPMl</p>","","","","","","","","",""
"html-keyboard-response","102","276613","0.0-10.0-0.13","64ef422a4789bd6b6b9042ce","650c16f0f2faf8d7a0d14c09","651c1e6c62eab12a59b27824","null","null","<p style=""font-size: 60px; font-family: BACS"">OAmAdmAM</p>","","","","","","","","",""
"html-keyboard-response","103","277632","0.0-10.0-0.14","64ef422a4789bd6b6b9042ce","650c16f0f2faf8d7a0d14c09","651c1e6c62eab12a59b27824","null","null","<p style=""font-size: 60px; font-family: BACS"">NvYJYZJO</p>","","","","","","","","",""
"html-keyboard-response","104","278648","0.0-10.0-0.15","64ef422a4789bd6b6b9042ce","650c16f0f2faf8d7a0d14c09","651c1e6c62eab12a59b27824","null","null","<p style=""font-size: 60px; font-family: BACS"">vkYGlkdrO</p>","","","","","","","","",""
"html-keyboard-response","105","279664","0.0-10.0-0.16","64ef422a4789bd6b6b9042ce","650c16f0f2faf8d7a0d14c09","651c1e6c62eab12a59b27824","null","null","<p style=""font-size: 60px; font-family: BACS"">NvYJYUYa</p>","","","","","","","","",""
"html-keyboard-response","106","280688","0.0-10.0-0.17","64ef422a4789bd6b6b9042ce","650c16f0f2faf8d7a0d14c09","651c1e6c62eab12a59b27824","null","null","<p style=""font-size: 60px; font-family: BACS"">OAblcYZJO</p>","","","","","","","","",""
"html-keyboard-response","107","281706","0.0-10.0-0.18","64ef422a4789bd6b6b9042ce","650c16f0f2faf8d7a0d14c09","651c1e6c62eab12a59b27824","null","null","<p style=""font-size: 60px; font-family: BACS"">vkYGlYUYa</p>","","","","","","","","",""
"html-keyboard-response","108","282718","0.0-10.0-0.19","64ef422a4789bd6b6b9042ce","650c16f0f2faf8d7a0d14c09","651c1e6c62eab12a59b27824","null","null","<p style=""font-size: 60px; font-family: BACS"">DCmhCKOb</p>","","","","","","","","",""
"html-keyboard-response","109","283735","0.0-10.0-0.20","64ef422a4789bd6b6b9042ce","650c16f0f2faf8d7a0d14c09","651c1e6c62eab12a59b27824","null","null","<p style=""font-size: 60px; font-family: BACS"">bvkrYUYa</p>","","","","","","","","",""
"html-keyboard-response","110","284747","0.0-10.0-0.21","64ef422a4789bd6b6b9042ce","650c16f0f2faf8d7a0d14c09","651c1e6c62eab12a59b27824","null","null","<p style=""font-size: 60px; font-family: BACS"">rLaZYZJO</p>","","","","","","","","",""
"html-keyboard-response","111","285764","0.0-10.0-0.22","64ef422a4789bd6b6b9042ce","650c16f0f2faf8d7a0d14c09","651c1e6c62eab12a59b27824","null","null","<p style=""font-size: 60px; font-family: BACS"">dGLAlkJdr</p>","","","","","","","","",""
"html-keyboard-response","112","286784","0.0-10.0-0.23","64ef422a4789bd6b6b9042ce","650c16f0f2faf8d7a0d14c09","651c1e6c62eab12a59b27824","null","null","<p style=""font-size: 60px; font-family: BACS"">CtmbmAM</p>","","","","","","","","",""
"html-keyboard-response","113","287785","0.0-10.0-0.24","64ef422a4789bd6b6b9042ce","650c16f0f2faf8d7a0d14c09","651c1e6c62eab12a59b27824","null","null","<p style=""font-size: 60px; font-family: BACS"">vkYGlkJdr</p>","","","","","","","","",""
"html-keyboard-response","114","288791","0.0-10.0-0.25","64ef422a4789bd6b6b9042ce","650c16f0f2faf8d7a0d14c09","651c1e6c62eab12a59b27824","null","null","<p style=""font-size: 60px; font-family: BACS"">OAblcdUr</p>","","","","","","","","",""
"html-keyboard-response","115","289795","0.0-10.0-0.26","64ef422a4789bd6b6b9042ce","650c16f0f2faf8d7a0d14c09","651c1e6c62eab12a59b27824","null","null","<p style=""font-size: 60px; font-family: BACS"">ZdlOYUYa</p>","","","","","","","","",""
"html-keyboard-response","116","290815","0.0-10.0-0.27","64ef422a4789bd6b6b9042ce","650c16f0f2faf8d7a0d14c09","651c1e6c62eab12a59b27824","null","null","<p style=""font-size: 60px; font-family: BACS"">ktBdYBO</p>","","","","","","","","",""
"html-keyboard-response","117","291834","0.0-10.0-0.28","64ef422a4789bd6b6b9042ce","650c16f0f2faf8d7a0d14c09","651c1e6c62eab12a59b27824","null","null","<p style=""font-size: 60px; font-family: BACS"">rLaZdUr</p>","","","","","","","","",""
"html-keyboard-response","118","292841","0.0-10.0-0.29","64ef422a4789bd6b6b9042ce","650c16f0f2faf8d7a0d14c09","651c1e6c62eab12a59b27824","null","null","<p style=""font-size: 60px; font-family: BACS"">ktBdCKOb</p>","","","","","","","","",""
"html-keyboard-response","119","293857","0.0-10.0-0.30","64ef422a4789bd6b6b9042ce","650c16f0f2faf8d7a0d14c09","651c1e6c62eab12a59b27824","null","null","<p style=""font-size: 60px; font-family: BACS"">bvkrdUr</p>","","","","","","","","",""
"html-keyboard-response","120","294886","0.0-10.0-0.31","64ef422a4789bd6b6b9042ce","650c16f0f2faf8d7a0d14c09","651c1e6c62eab12a59b27824","null","null","<p style=""font-size: 60px; font-family: BACS"">DCmhYBO</p>","","","","","","","","",""
"html-keyboard-response","121","295911","0.0-10.0-0.32","64ef422a4789bd6b6b9042ce","650c16f0f2faf8d7a0d14c09","651c1e6c62eab12a59b27824","null","null","<p style=""font-size: 60px; font-family: BACS"">bmbNYUYa</p>","","","","","","","","",""
"html-keyboard-response","122","296934","0.0-10.0-0.33","64ef422a4789bd6b6b9042ce","650c16f0f2faf8d7a0d14c09","651c1e6c62eab12a59b27824","null","null","<p style=""font-size: 60px; font-family: BACS"">tKDmhCPMl</p>","","","","","","","","",""
"html-keyboard-response","123","297942","0.0-10.0-0.34","64ef422a4789bd6b6b9042ce","650c16f0f2faf8d7a0d14c09","651c1e6c62eab12a59b27824","null","null","<p style=""font-size: 60px; font-family: BACS"">lAOKMCKOb</p>","","","","","","","","",""
"html-keyboard-response","124","298963","0.0-10.0-0.35","64ef422a4789bd6b6b9042ce","650c16f0f2faf8d7a0d14c09","651c1e6c62eab12a59b27824","null","null","<p style=""font-size: 60px; font-family: BACS"">dGLAlYUYa</p>","","","","","","","","",""
"html-keyboard-response","125","299968","0.0-10.0-0.36","64ef422a4789bd6b6b9042ce","650c16f0f2faf8d7a0d14c09","651c1e6c62eab12a59b27824","null","null","<p style=""font-size: 60px; font-family: BACS"">ZdlOYZJO</p>","","","","","","","","",""
"html-keyboard-response","126","300977","0.0-10.0-0.37","64ef422a4789bd6b6b9042ce","650c16f0f2faf8d7a0d14c09","651c1e6c62eab12a59b27824","null","null","<p style=""font-size: 60px; font-family: BACS"">CtmbCPMl</p>","","","","","","","","",""
"html-keyboard-response","127","301990","0.0-10.0-0.38","64ef422a4789bd6b6b9042ce","650c16f0f2faf8d7a0d14c09","651c1e6c62eab12a59b27824","null","null","<p style=""font-size: 60px; font-family: BACS"">OAmAdYBO</p>","","","","","","","","",""
"html-keyboard-response","128","303009","0.0-10.0-0.39","64ef422a4789bd6b6b9042ce","650c16f0f2faf8d7a0d14c09","651c1e6c62eab12a59b27824","null","null","<p style=""font-size: 60px; font-family: BACS"">ZdlOdUr</p>","","","","","","","","",""
"html-keyboard-response","129","304037","0.0-10.0-0.40","64ef422a4789bd6b6b9042ce","650c16f0f2faf8d7a0d14c09","651c1e6c62eab12a59b27824","null","null","<p style=""font-size: 60px; font-family: BACS"">CkBOPmAM</p>","","","","","","","","",""
"html-keyboard-response","130","305060","0.0-10.0-0.41","64ef422a4789bd6b6b9042ce","650c16f0f2faf8d7a0d14c09","651c1e6c62eab12a59b27824","null","null","<p style=""font-size: 60px; font-family: BACS"">OAblckdrO</p>","","","","","","","","",""
"html-keyboard-response","131","306070","0.0-10.0-0.42","64ef422a4789bd6b6b9042ce","650c16f0f2faf8d7a0d14c09","651c1e6c62eab12a59b27824","null","null","<p style=""font-size: 60px; font-family: BACS"">LckGNkJdr</p>","","","","","","","","",""
"html-keyboard-response","132","307078","0.0-10.0-0.43","64ef422a4789bd6b6b9042ce","650c16f0f2faf8d7a0d14c09","651c1e6c62eab12a59b27824","null","null","<p style=""font-size: 60px; font-family: BACS"">rLaZkdrO</p>","","","","","","","","",""
"html-keyboard-response","133","308081","0.0-10.0-0.44","64ef422a4789bd6b6b9042ce","650c16f0f2faf8d7a0d14c09","651c1e6c62eab12a59b27824","null","null","<p style=""font-size: 60px; font-family: BACS"">PDPhlCPMl</p>","","","","","","","","",""
"html-keyboard-response","134","309085","0.0-10.0-0.45","64ef422a4789bd6b6b9042ce","650c16f0f2faf8d7a0d14c09","651c1e6c62eab12a59b27824","null","null","<p style=""font-size: 60px; font-family: BACS"">JauQkdrO</p>","","","","","","","","",""
"html-keyboard-response","135","310091","0.0-10.0-0.46","64ef422a4789bd6b6b9042ce","650c16f0f2faf8d7a0d14c09","651c1e6c62eab12a59b27824","null","null","<p style=""font-size: 60px; font-family: BACS"">bvkrkJdr</p>","","","","","","","","",""
"html-keyboard-response","136","311109","0.0-10.0-0.47","64ef422a4789bd6b6b9042ce","650c16f0f2faf8d7a0d14c09","651c1e6c62eab12a59b27824","null","null","<p style=""font-size: 60px; font-family: BACS"">CkBOPYBO</p>","","","","","","","","",""
"html-keyboard-response","137","312111","0.0-10.0-0.48","64ef422a4789bd6b6b9042ce","650c16f0f2faf8d7a0d14c09","651c1e6c62eab12a59b27824","null","null","<p style=""font-size: 60px; font-family: BACS"">LckGNkdrO</p>","","","","","","","","",""
"html-keyboard-response","138","313127","0.0-10.0-0.49","64ef422a4789bd6b6b9042ce","650c16f0f2faf8d7a0d14c09","651c1e6c62eab12a59b27824","null","null","<p style=""font-size: 60px; font-family: BACS"">ktBdCPMl</p>","","","","","","","","",""
"html-keyboard-response","139","314136","0.0-10.0-0.50","64ef422a4789bd6b6b9042ce","650c16f0f2faf8d7a0d14c09","651c1e6c62eab12a59b27824","null","null","<p style=""font-size: 60px; font-family: BACS"">JauQYUYa</p>","","","","","","","","",""
"html-keyboard-response","140","315162","0.0-10.0-0.51","64ef422a4789bd6b6b9042ce","650c16f0f2faf8d7a0d14c09","651c1e6c62eab12a59b27824","null","null","<p style=""font-size: 60px; font-family: BACS"">YlCPBkPM</p>","","","","","","","","",""
"html-keyboard-response","141","316184","0.0-10.0-0.52","64ef422a4789bd6b6b9042ce","650c16f0f2faf8d7a0d14c09","651c1e6c62eab12a59b27824","null","null","<p style=""font-size: 60px; font-family: BACS"">PDPhlCKOb</p>","","","","","","","","",""
"html-keyboard-response","142","317188","0.0-10.0-0.53","64ef422a4789bd6b6b9042ce","650c16f0f2faf8d7a0d14c09","651c1e6c62eab12a59b27824","null","null","<p style=""font-size: 60px; font-family: BACS"">OAblckJdr</p>","","","","","","","","",""
"html-keyboard-response","143","318203","0.0-10.0-0.54","64ef422a4789bd6b6b9042ce","650c16f0f2faf8d7a0d14c09","651c1e6c62eab12a59b27824","null","null","<p style=""font-size: 60px; font-family: BACS"">ZdlOkdrO</p>","","","","","","","","",""
"html-keyboard-response","144","319215","0.0-10.0-0.55","64ef422a4789bd6b6b9042ce","650c16f0f2faf8d7a0d14c09","651c1e6c62eab12a59b27824","null","null","<p style=""font-size: 60px; font-family: BACS"">dGLAlYZJO</p>","","","","","","","","",""
"html-keyboard-response","145","320241","0.0-10.0-0.56","64ef422a4789bd6b6b9042ce","650c16f0f2faf8d7a0d14c09","651c1e6c62eab12a59b27824","null","null","<p style=""font-size: 60px; font-family: BACS"">NvYJdUr</p>","","","","","","","","",""
"html-keyboard-response","146","321245","0.0-10.0-0.57","64ef422a4789bd6b6b9042ce","650c16f0f2faf8d7a0d14c09","651c1e6c62eab12a59b27824","null","null","<p style=""font-size: 60px; font-family: BACS"">bmbNYZJO</p>","","","","","","","","",""
"html-keyboard-response","147","322253","0.0-10.0-0.58","64ef422a4789bd6b6b9042ce","650c16f0f2faf8d7a0d14c09","651c1e6c62eab12a59b27824","null","null","<p style=""font-size: 60px; font-family: BACS"">OAmAdkPM</p>","","","","","","","","",""
"html-keyboard-response","148","323263","0.0-10.0-0.59","64ef422a4789bd6b6b9042ce","650c16f0f2faf8d7a0d14c09","651c1e6c62eab12a59b27824","null","null","<p style=""font-size: 60px; font-family: BACS"">ktBdmAM</p>","","","","","","","","",""
"html-keyboard-response","149","324283","0.0-10.0-0.60","64ef422a4789bd6b6b9042ce","650c16f0f2faf8d7a0d14c09","651c1e6c62eab12a59b27824","null","null","<p style=""font-size: 60px; font-family: BACS"">lAOKMYBO</p>","","","","","","","","",""
"html-keyboard-response","150","325287","0.0-10.0-0.61","64ef422a4789bd6b6b9042ce","650c16f0f2faf8d7a0d14c09","651c1e6c62eab12a59b27824","null","null","<p style=""font-size: 60px; font-family: BACS"">LckGNYZJO</p>","","","","","","","","",""
"html-keyboard-response","151","326303","0.0-10.0-0.62","64ef422a4789bd6b6b9042ce","650c16f0f2faf8d7a0d14c09","651c1e6c62eab12a59b27824","null","null","<p style=""font-size: 60px; font-family: BACS"">YlCPBYBO</p>","","","","","","","","",""
"html-keyboard-response","152","327311","0.0-10.0-0.63","64ef422a4789bd6b6b9042ce","650c16f0f2faf8d7a0d14c09","651c1e6c62eab12a59b27824","null","null","<p style=""font-size: 60px; font-family: BACS"">PDPhlmAM</p>","","","","","","","","",""
"html-keyboard-response","153","328328","0.0-10.0-0.64","64ef422a4789bd6b6b9042ce","650c16f0f2faf8d7a0d14c09","651c1e6c62eab12a59b27824","null","null","<p style=""font-size: 60px; font-family: BACS"">tKDmhYBO</p>","","","","","","","","",""
"html-keyboard-response","154","329348","0.0-10.0-0.65","64ef422a4789bd6b6b9042ce","650c16f0f2faf8d7a0d14c09","651c1e6c62eab12a59b27824","null","null","<p style=""font-size: 60px; font-family: BACS"">YObAmAM</p>","","","","","","","","",""
"html-keyboard-response","155","330356","0.0-10.0-0.66","64ef422a4789bd6b6b9042ce","650c16f0f2faf8d7a0d14c09","651c1e6c62eab12a59b27824","null","null","<p style=""font-size: 60px; font-family: BACS"">bmbNkJdr</p>","","","","","","","","",""
"html-keyboard-response","156","331363","0.0-10.0-0.67","64ef422a4789bd6b6b9042ce","650c16f0f2faf8d7a0d14c09","651c1e6c62eab12a59b27824","null","null","<p style=""font-size: 60px; font-family: BACS"">lAOKMkPM</p>","","","","","","","","",""
"html-keyboard-response","157","332375","0.0-10.0-0.68","64ef422a4789bd6b6b9042ce","650c16f0f2faf8d7a0d14c09","651c1e6c62eab12a59b27824","null","null","<p style=""font-size: 60px; font-family: BACS"">vkYGldUr</p>","","","","","","","","",""
"html-keyboard-response","158","333399","0.0-10.0-0.69","64ef422a4789bd6b6b9042ce","650c16f0f2faf8d7a0d14c09","651c1e6c62eab12a59b27824","null","null","<p style=""font-size: 60px; font-family: BACS"">CkBOPCKOb</p>","","","","","","","","",""
"html-keyboard-response","159","334416","0.0-10.0-0.70","64ef422a4789bd6b6b9042ce","650c16f0f2faf8d7a0d14c09","651c1e6c62eab12a59b27824","null","null","<p style=""font-size: 60px; font-family: BACS"">YObACPMl</p>","","","","","","","","",""
"html-keyboard-response","160","335438","0.0-10.0-0.71","64ef422a4789bd6b6b9042ce","650c16f0f2faf8d7a0d14c09","651c1e6c62eab12a59b27824","null","null","<p style=""font-size: 60px; font-family: BACS"">CtmbkPM</p>","","","","","","","","",""
"html-keyboard-response","161","336441","0.0-10.0-0.72","64ef422a4789bd6b6b9042ce","650c16f0f2faf8d7a0d14c09","651c1e6c62eab12a59b27824","null","null","<p style=""font-size: 60px; font-family: BACS"">OAmAdCPMl</p>","","","","","","","","",""
"html-keyboard-response","162","337444","0.0-10.0-0.73","64ef422a4789bd6b6b9042ce","650c16f0f2faf8d7a0d14c09","651c1e6c62eab12a59b27824","null","null","<p style=""font-size: 60px; font-family: BACS"">tKDmhkPM</p>","","","","","","","","",""
"html-keyboard-response","163","338455","0.0-10.0-0.74","64ef422a4789bd6b6b9042ce","650c16f0f2faf8d7a0d14c09","651c1e6c62eab12a59b27824","null","null","<p style=""font-size: 60px; font-family: BACS"">YlCPBCPMl</p>","","","","","","","","",""
"html-keyboard-response","164","339458","0.0-10.0-0.75","64ef422a4789bd6b6b9042ce","650c16f0f2faf8d7a0d14c09","651c1e6c62eab12a59b27824","null","null","<p style=""font-size: 60px; font-family: BACS"">tKDmhCKOb</p>","","","","","","","","",""
"html-keyboard-response","165","340487","0.0-10.0-0.76","64ef422a4789bd6b6b9042ce","650c16f0f2faf8d7a0d14c09","651c1e6c62eab12a59b27824","null","null","<p style=""font-size: 60px; font-family: BACS"">DCmhmAM</p>","","","","","","","","",""
"html-keyboard-response","166","341492","0.0-10.0-0.77","64ef422a4789bd6b6b9042ce","650c16f0f2faf8d7a0d14c09","651c1e6c62eab12a59b27824","null","null","<p style=""font-size: 60px; font-family: BACS"">bmbNkdrO</p>","","","","","","","","",""
"html-keyboard-response","167","342515","0.0-10.0-0.78","64ef422a4789bd6b6b9042ce","650c16f0f2faf8d7a0d14c09","651c1e6c62eab12a59b27824","null","null","<p style=""font-size: 60px; font-family: BACS"">YObAkPM</p>","","","","","","","","",""
"html-keyboard-response","168","343530","0.0-10.0-0.79","64ef422a4789bd6b6b9042ce","650c16f0f2faf8d7a0d14c09","651c1e6c62eab12a59b27824","null","null","<p style=""font-size: 60px; font-family: BACS"">JauQdUr</p>","","","","","","","","",""
"html-keyboard-response","169","398167","0.0-11.0","64ef422a4789bd6b6b9042ce","650c16f0f2faf8d7a0d14c09","651c1e6c62eab12a59b27824","54635"," ","<p>Great, you've seen the second block of words. You may now take a short break.</p>
      <p>Press the spacebar when you're ready to continue.</p>","","","","","","","","",""
"html-keyboard-response","170","399187","0.0-12.0-0.0","64ef422a4789bd6b6b9042ce","650c16f0f2faf8d7a0d14c09","651c1e6c62eab12a59b27824","null","null","<p style=""font-size: 60px; font-family: BACS"">ktBdCPMl</p>","","","","","","","","",""
"html-keyboard-response","171","400190","0.0-12.0-0.1","64ef422a4789bd6b6b9042ce","650c16f0f2faf8d7a0d14c09","651c1e6c62eab12a59b27824","null","null","<p style=""font-size: 60px; font-family: BACS"">YObAYBO</p>","","","","","","","","",""
"html-keyboard-response","172","401214","0.0-12.0-0.2","64ef422a4789bd6b6b9042ce","650c16f0f2faf8d7a0d14c09","651c1e6c62eab12a59b27824","null","null","<p style=""font-size: 60px; font-family: BACS"">YlCPBkPM</p>","","","","","","","","",""
"html-keyboard-response","173","402234","0.0-12.0-0.3","64ef422a4789bd6b6b9042ce","650c16f0f2faf8d7a0d14c09","651c1e6c62eab12a59b27824","null","null","<p style=""font-size: 60px; font-family: BACS"">dGLAldUr</p>","","","","","","","","",""
"html-keyboard-response","174","403240","0.0-12.0-0.4","64ef422a4789bd6b6b9042ce","650c16f0f2faf8d7a0d14c09","651c1e6c62eab12a59b27824","null","null","<p style=""font-size: 60px; font-family: BACS"">ZdlOYUYa</p>","","","","","","","","",""
"html-keyboard-response","175","404261","0.0-12.0-0.5","64ef422a4789bd6b6b9042ce","650c16f0f2faf8d7a0d14c09","651c1e6c62eab12a59b27824","null","null","<p style=""font-size: 60px; font-family: BACS"">LckGNYZJO</p>","","","","","","","","",""
"html-keyboard-response","176","405281","0.0-12.0-0.6","64ef422a4789bd6b6b9042ce","650c16f0f2faf8d7a0d14c09","651c1e6c62eab12a59b27824","null","null","<p style=""font-size: 60px; font-family: BACS"">YlCPBYBO</p>","","","","","","","","",""
"html-keyboard-response","177","406305","0.0-12.0-0.7","64ef422a4789bd6b6b9042ce","650c16f0f2faf8d7a0d14c09","651c1e6c62eab12a59b27824","null","null","<p style=""font-size: 60px; font-family: BACS"">ktBdmAM</p>","","","","","","","","",""
"html-keyboard-response","178","407320","0.0-12.0-0.8","64ef422a4789bd6b6b9042ce","650c16f0f2faf8d7a0d14c09","651c1e6c62eab12a59b27824","null","null","<p style=""font-size: 60px; font-family: BACS"">JauQYUYa</p>","","","","","","","","",""
"html-keyboard-response","179","408329","0.0-12.0-0.9","64ef422a4789bd6b6b9042ce","650c16f0f2faf8d7a0d14c09","651c1e6c62eab12a59b27824","null","null","<p style=""font-size: 60px; font-family: BACS"">OAmAdCPMl</p>","","","","","","","","",""
"html-keyboard-response","180","409334","0.0-12.0-0.10","64ef422a4789bd6b6b9042ce","650c16f0f2faf8d7a0d14c09","651c1e6c62eab12a59b27824","null","null","<p style=""font-size: 60px; font-family: BACS"">JauQdUr</p>","","","","","","","","",""
"html-keyboard-response","181","410348","0.0-12.0-0.11","64ef422a4789bd6b6b9042ce","650c16f0f2faf8d7a0d14c09","651c1e6c62eab12a59b27824","null","null","<p style=""font-size: 60px; font-family: BACS"">CtmbCKOb</p>","","","","","","","","",""
"html-keyboard-response","182","411365","0.0-12.0-0.12","64ef422a4789bd6b6b9042ce","650c16f0f2faf8d7a0d14c09","651c1e6c62eab12a59b27824","null","null","<p style=""font-size: 60px; font-family: BACS"">vkYGlkJdr</p>","","","","","","","","",""
"html-keyboard-response","183","412389","0.0-12.0-0.13","64ef422a4789bd6b6b9042ce","650c16f0f2faf8d7a0d14c09","651c1e6c62eab12a59b27824","null","null","<p style=""font-size: 60px; font-family: BACS"">DCmhYBO</p>","","","","","","","","",""
"html-keyboard-response","184","413415","0.0-12.0-0.14","64ef422a4789bd6b6b9042ce","650c16f0f2faf8d7a0d14c09","651c1e6c62eab12a59b27824","null","null","<p style=""font-size: 60px; font-family: BACS"">CkBOPCPMl</p>","","","","","","","","",""
"html-keyboard-response","185","414438","0.0-12.0-0.15","64ef422a4789bd6b6b9042ce","650c16f0f2faf8d7a0d14c09","651c1e6c62eab12a59b27824","null","null","<p style=""font-size: 60px; font-family: BACS"">LckGNkdrO</p>","","","","","","","","",""
"html-keyboard-response","186","415443","0.0-12.0-0.16","64ef422a4789bd6b6b9042ce","650c16f0f2faf8d7a0d14c09","651c1e6c62eab12a59b27824","null","null","<p style=""font-size: 60px; font-family: BACS"">PDPhlCKOb</p>","","","","","","","","",""
"html-keyboard-response","187","416463","0.0-12.0-0.17","64ef422a4789bd6b6b9042ce","650c16f0f2faf8d7a0d14c09","651c1e6c62eab12a59b27824","null","null","<p style=""font-size: 60px; font-family: BACS"">JauQkdrO</p>","","","","","","","","",""
"html-keyboard-response","188","417490","0.0-12.0-0.18","64ef422a4789bd6b6b9042ce","650c16f0f2faf8d7a0d14c09","651c1e6c62eab12a59b27824","null","null","<p style=""font-size: 60px; font-family: BACS"">lAOKMYBO</p>","","","","","","","","",""
"html-keyboard-response","189","418513","0.0-12.0-0.19","64ef422a4789bd6b6b9042ce","650c16f0f2faf8d7a0d14c09","651c1e6c62eab12a59b27824","null","null","<p style=""font-size: 60px; font-family: BACS"">OAmAdkPM</p>","","","","","","","","",""
"html-keyboard-response","190","419529","0.0-12.0-0.20","64ef422a4789bd6b6b9042ce","650c16f0f2faf8d7a0d14c09","651c1e6c62eab12a59b27824","null","null","<p style=""font-size: 60px; font-family: BACS"">vkYGlYUYa</p>","","","","","","","","",""
"html-keyboard-response","191","420547","0.0-12.0-0.21","64ef422a4789bd6b6b9042ce","650c16f0f2faf8d7a0d14c09","651c1e6c62eab12a59b27824","null","null","<p style=""font-size: 60px; font-family: BACS"">OAmAdmAM</p>","","","","","","","","",""
"html-keyboard-response","192","421554","0.0-12.0-0.22","64ef422a4789bd6b6b9042ce","650c16f0f2faf8d7a0d14c09","651c1e6c62eab12a59b27824","null","null","<p style=""font-size: 60px; font-family: BACS"">bmbNkJdr</p>","","","","","","","","",""
"html-keyboard-response","193","422565","0.0-12.0-0.23","64ef422a4789bd6b6b9042ce","650c16f0f2faf8d7a0d14c09","651c1e6c62eab12a59b27824","null","null","<p style=""font-size: 60px; font-family: BACS"">YObAmAM</p>","","","","","","","","",""
"html-keyboard-response","194","423590","0.0-12.0-0.24","64ef422a4789bd6b6b9042ce","650c16f0f2faf8d7a0d14c09","651c1e6c62eab12a59b27824","null","null","<p style=""font-size: 60px; font-family: BACS"">bmbNYUYa</p>","","","","","","","","",""
"html-keyboard-response","195","424608","0.0-12.0-0.25","64ef422a4789bd6b6b9042ce","650c16f0f2faf8d7a0d14c09","651c1e6c62eab12a59b27824","null","null","<p style=""font-size: 60px; font-family: BACS"">ktBdYBO</p>","","","","","","","","",""
"html-keyboard-response","196","425629","0.0-12.0-0.26","64ef422a4789bd6b6b9042ce","650c16f0f2faf8d7a0d14c09","651c1e6c62eab12a59b27824","null","null","<p style=""font-size: 60px; font-family: BACS"">bvkrYZJO</p>","","","","","","","","",""
"html-keyboard-response","197","426639","0.0-12.0-0.27","64ef422a4789bd6b6b9042ce","650c16f0f2faf8d7a0d14c09","651c1e6c62eab12a59b27824","null","null","<p style=""font-size: 60px; font-family: BACS"">vkYGldUr</p>","","","","","","","","",""
"html-keyboard-response","198","427665","0.0-12.0-0.28","64ef422a4789bd6b6b9042ce","650c16f0f2faf8d7a0d14c09","651c1e6c62eab12a59b27824","null","null","<p style=""font-size: 60px; font-family: BACS"">PDPhlmAM</p>","","","","","","","","",""
"html-keyboard-response","199","428689","0.0-12.0-0.29","64ef422a4789bd6b6b9042ce","650c16f0f2faf8d7a0d14c09","651c1e6c62eab12a59b27824","null","null","<p style=""font-size: 60px; font-family: BACS"">OAmAdYBO</p>","","","","","","","","",""
"html-keyboard-response","200","429709","0.0-12.0-0.30","64ef422a4789bd6b6b9042ce","650c16f0f2faf8d7a0d14c09","651c1e6c62eab12a59b27824","null","null","<p style=""font-size: 60px; font-family: BACS"">NvYJYUYa</p>","","","","","","","","",""
"html-keyboard-response","201","430712","0.0-12.0-0.31","64ef422a4789bd6b6b9042ce","650c16f0f2faf8d7a0d14c09","651c1e6c62eab12a59b27824","null","null","<p style=""font-size: 60px; font-family: BACS"">OAblckdrO</p>","","","","","","","","",""
"html-keyboard-response","202","431741","0.0-12.0-0.32","64ef422a4789bd6b6b9042ce","650c16f0f2faf8d7a0d14c09","651c1e6c62eab12a59b27824","null","null","<p style=""font-size: 60px; font-family: BACS"">bvkrkJdr</p>","","","","","","","","",""
"html-keyboard-response","203","432757","0.0-12.0-0.33","64ef422a4789bd6b6b9042ce","650c16f0f2faf8d7a0d14c09","651c1e6c62eab12a59b27824","null","null","<p style=""font-size: 60px; font-family: BACS"">CkBOPmAM</p>","","","","","","","","",""
"html-keyboard-response","204","433760","0.0-12.0-0.34","64ef422a4789bd6b6b9042ce","650c16f0f2faf8d7a0d14c09","651c1e6c62eab12a59b27824","null","null","<p style=""font-size: 60px; font-family: BACS"">rLaZkdrO</p>","","","","","","","","",""
"html-keyboard-response","205","434781","0.0-12.0-0.35","64ef422a4789bd6b6b9042ce","650c16f0f2faf8d7a0d14c09","651c1e6c62eab12a59b27824","null","null","<p style=""font-size: 60px; font-family: BACS"">bmbNYZJO</p>","","","","","","","","",""
"html-keyboard-response","206","435790","0.0-12.0-0.36","64ef422a4789bd6b6b9042ce","650c16f0f2faf8d7a0d14c09","651c1e6c62eab12a59b27824","null","null","<p style=""font-size: 60px; font-family: BACS"">YObACPMl</p>","","","","","","","","",""
"html-keyboard-response","207","436815","0.0-12.0-0.37","64ef422a4789bd6b6b9042ce","650c16f0f2faf8d7a0d14c09","651c1e6c62eab12a59b27824","null","null","<p style=""font-size: 60px; font-family: BACS"">NvYJkdrO</p>","","","","","","","","",""
"html-keyboard-response","208","437838","0.0-12.0-0.38","64ef422a4789bd6b6b9042ce","650c16f0f2faf8d7a0d14c09","651c1e6c62eab12a59b27824","null","null","<p style=""font-size: 60px; font-family: BACS"">OAblckJdr</p>","","","","","","","","",""
"html-keyboard-response","209","438862","0.0-12.0-0.39","64ef422a4789bd6b6b9042ce","650c16f0f2faf8d7a0d14c09","651c1e6c62eab12a59b27824","null","null","<p style=""font-size: 60px; font-family: BACS"">NvYJYZJO</p>","","","","","","","","",""
"html-keyboard-response","210","439880","0.0-12.0-0.40","64ef422a4789bd6b6b9042ce","650c16f0f2faf8d7a0d14c09","651c1e6c62eab12a59b27824","null","null","<p style=""font-size: 60px; font-family: BACS"">tKDmhCKOb</p>","","","","","","","","",""
"html-keyboard-response","211","440893","0.0-12.0-0.41","64ef422a4789bd6b6b9042ce","650c16f0f2faf8d7a0d14c09","651c1e6c62eab12a59b27824","null","null","<p style=""font-size: 60px; font-family: BACS"">YObAkPM</p>","","","","","","","","",""
"html-keyboard-response","212","441908","0.0-12.0-0.42","64ef422a4789bd6b6b9042ce","650c16f0f2faf8d7a0d14c09","651c1e6c62eab12a59b27824","null","null","<p style=""font-size: 60px; font-family: BACS"">rLaZYZJO</p>","","","","","","","","",""
"html-keyboard-response","213","442937","0.0-12.0-0.43","64ef422a4789bd6b6b9042ce","650c16f0f2faf8d7a0d14c09","651c1e6c62eab12a59b27824","null","null","<p style=""font-size: 60px; font-family: BACS"">DCmhkPM</p>","","","","","","","","",""
"html-keyboard-response","214","443950","0.0-12.0-0.44","64ef422a4789bd6b6b9042ce","650c16f0f2faf8d7a0d14c09","651c1e6c62eab12a59b27824","null","null","<p style=""font-size: 60px; font-family: BACS"">ZdlOYZJO</p>","","","","","","","","",""
"html-keyboard-response","215","444967","0.0-12.0-0.45","64ef422a4789bd6b6b9042ce","650c16f0f2faf8d7a0d14c09","651c1e6c62eab12a59b27824","null","null","<p style=""font-size: 60px; font-family: BACS"">lAOKMCKOb</p>","","","","","","","","",""
"html-keyboard-response","216","445990","0.0-12.0-0.46","64ef422a4789bd6b6b9042ce","650c16f0f2faf8d7a0d14c09","651c1e6c62eab12a59b27824","null","null","<p style=""font-size: 60px; font-family: BACS"">tKDmhkPM</p>","","","","","","","","",""
"html-keyboard-response","217","447010","0.0-12.0-0.47","64ef422a4789bd6b6b9042ce","650c16f0f2faf8d7a0d14c09","651c1e6c62eab12a59b27824","null","null","<p style=""font-size: 60px; font-family: BACS"">DCmhmAM</p>","","","","","","","","",""
"html-keyboard-response","218","448038","0.0-12.0-0.48","64ef422a4789bd6b6b9042ce","650c16f0f2faf8d7a0d14c09","651c1e6c62eab12a59b27824","null","null","<p style=""font-size: 60px; font-family: BACS"">bmbNkdrO</p>","","","","","","","","",""
"html-keyboard-response","219","449059","0.0-12.0-0.49","64ef422a4789bd6b6b9042ce","650c16f0f2faf8d7a0d14c09","651c1e6c62eab12a59b27824","null","null","<p style=""font-size: 60px; font-family: BACS"">CtmbCPMl</p>","","","","","","","","",""
"html-keyboard-response","220","450083","0.0-12.0-0.50","64ef422a4789bd6b6b9042ce","650c16f0f2faf8d7a0d14c09","651c1e6c62eab12a59b27824","null","null","<p style=""font-size: 60px; font-family: BACS"">lAOKMkPM</p>","","","","","","","","",""
"html-keyboard-response","221","451093","0.0-12.0-0.51","64ef422a4789bd6b6b9042ce","650c16f0f2faf8d7a0d14c09","651c1e6c62eab12a59b27824","null","null","<p style=""font-size: 60px; font-family: BACS"">NvYJdUr</p>","","","","","","","","",""
"html-keyboard-response","222","452112","0.0-12.0-0.52","64ef422a4789bd6b6b9042ce","650c16f0f2faf8d7a0d14c09","651c1e6c62eab12a59b27824","null","null","<p style=""font-size: 60px; font-family: BACS"">CtmbkPM</p>","","","","","","","","",""
"html-keyboard-response","223","453114","0.0-12.0-0.53","64ef422a4789bd6b6b9042ce","650c16f0f2faf8d7a0d14c09","651c1e6c62eab12a59b27824","null","null","<p style=""font-size: 60px; font-family: BACS"">tKDmhYBO</p>","","","","","","","","",""
"html-keyboard-response","224","454132","0.0-12.0-0.54","64ef422a4789bd6b6b9042ce","650c16f0f2faf8d7a0d14c09","651c1e6c62eab12a59b27824","null","null","<p style=""font-size: 60px; font-family: BACS"">dGLAlYZJO</p>","","","","","","","","",""
"html-keyboard-response","225","455143","0.0-12.0-0.55","64ef422a4789bd6b6b9042ce","650c16f0f2faf8d7a0d14c09","651c1e6c62eab12a59b27824","null","null","<p style=""font-size: 60px; font-family: BACS"">OAblcdUr</p>","","","","","","","","",""
"html-keyboard-response","226","456158","0.0-12.0-0.56","64ef422a4789bd6b6b9042ce","650c16f0f2faf8d7a0d14c09","651c1e6c62eab12a59b27824","null","null","<p style=""font-size: 60px; font-family: BACS"">DCmhCKOb</p>","","","","","","","","",""
"html-keyboard-response","227","457163","0.0-12.0-0.57","64ef422a4789bd6b6b9042ce","650c16f0f2faf8d7a0d14c09","651c1e6c62eab12a59b27824","null","null","<p style=""font-size: 60px; font-family: BACS"">PDPhlCPMl</p>","","","","","","","","",""
"html-keyboard-response","228","458187","0.0-12.0-0.58","64ef422a4789bd6b6b9042ce","650c16f0f2faf8d7a0d14c09","651c1e6c62eab12a59b27824","null","null","<p style=""font-size: 60px; font-family: BACS"">ktBdCKOb</p>","","","","","","","","",""
"html-keyboard-response","229","459207","0.0-12.0-0.59","64ef422a4789bd6b6b9042ce","650c16f0f2faf8d7a0d14c09","651c1e6c62eab12a59b27824","null","null","<p style=""font-size: 60px; font-family: BACS"">bvkrYUYa</p>","","","","","","","","",""
"html-keyboard-response","230","460213","0.0-12.0-0.60","64ef422a4789bd6b6b9042ce","650c16f0f2faf8d7a0d14c09","651c1e6c62eab12a59b27824","null","null","<p style=""font-size: 60px; font-family: BACS"">rLaZdUr</p>","","","","","","","","",""
"html-keyboard-response","231","461232","0.0-12.0-0.61","64ef422a4789bd6b6b9042ce","650c16f0f2faf8d7a0d14c09","651c1e6c62eab12a59b27824","null","null","<p style=""font-size: 60px; font-family: BACS"">dGLAlYUYa</p>","","","","","","","","",""
"html-keyboard-response","232","462257","0.0-12.0-0.62","64ef422a4789bd6b6b9042ce","650c16f0f2faf8d7a0d14c09","651c1e6c62eab12a59b27824","null","null","<p style=""font-size: 60px; font-family: BACS"">YlCPBCPMl</p>","","","","","","","","",""
"html-keyboard-response","233","463260","0.0-12.0-0.63","64ef422a4789bd6b6b9042ce","650c16f0f2faf8d7a0d14c09","651c1e6c62eab12a59b27824","null","null","<p style=""font-size: 60px; font-family: BACS"">dGLAlkJdr</p>","","","","","","","","",""
"html-keyboard-response","234","464287","0.0-12.0-0.64","64ef422a4789bd6b6b9042ce","650c16f0f2faf8d7a0d14c09","651c1e6c62eab12a59b27824","null","null","<p style=""font-size: 60px; font-family: BACS"">ZdlOkdrO</p>","","","","","","","","",""
"html-keyboard-response","235","465316","0.0-12.0-0.65","64ef422a4789bd6b6b9042ce","650c16f0f2faf8d7a0d14c09","651c1e6c62eab12a59b27824","null","null","<p style=""font-size: 60px; font-family: BACS"">LckGNYUYa</p>","","","","","","","","",""
"html-keyboard-response","236","466339","0.0-12.0-0.66","64ef422a4789bd6b6b9042ce","650c16f0f2faf8d7a0d14c09","651c1e6c62eab12a59b27824","null","null","<p style=""font-size: 60px; font-family: BACS"">tKDmhCPMl</p>","","","","","","","","",""
"html-keyboard-response","237","467345","0.0-12.0-0.67","64ef422a4789bd6b6b9042ce","650c16f0f2faf8d7a0d14c09","651c1e6c62eab12a59b27824","null","null","<p style=""font-size: 60px; font-family: BACS"">lAOKMmAM</p>","","","","","","","","",""
"html-keyboard-response","238","468355","0.0-12.0-0.68","64ef422a4789bd6b6b9042ce","650c16f0f2faf8d7a0d14c09","651c1e6c62eab12a59b27824","null","null","<p style=""font-size: 60px; font-family: BACS"">JauQkJdr</p>","","","","","","","","",""
"html-keyboard-response","239","469359","0.0-12.0-0.69","64ef422a4789bd6b6b9042ce","650c16f0f2faf8d7a0d14c09","651c1e6c62eab12a59b27824","null","null","<p style=""font-size: 60px; font-family: BACS"">CkBOPCKOb</p>","","","","","","","","",""
"html-keyboard-response","240","470387","0.0-12.0-0.70","64ef422a4789bd6b6b9042ce","650c16f0f2faf8d7a0d14c09","651c1e6c62eab12a59b27824","null","null","<p style=""font-size: 60px; font-family: BACS"">vkYGlkdrO</p>","","","","","","","","",""
"html-keyboard-response","241","471397","0.0-12.0-0.71","64ef422a4789bd6b6b9042ce","650c16f0f2faf8d7a0d14c09","651c1e6c62eab12a59b27824","null","null","<p style=""font-size: 60px; font-family: BACS"">rLaZkJdr</p>","","","","","","","","",""
"html-keyboard-response","242","472416","0.0-12.0-0.72","64ef422a4789bd6b6b9042ce","650c16f0f2faf8d7a0d14c09","651c1e6c62eab12a59b27824","null","null","<p style=""font-size: 60px; font-family: BACS"">ZdlOdUr</p>","","","","","","","","",""
"html-keyboard-response","243","473440","0.0-12.0-0.73","64ef422a4789bd6b6b9042ce","650c16f0f2faf8d7a0d14c09","651c1e6c62eab12a59b27824","null","null","<p style=""font-size: 60px; font-family: BACS"">CkBOPYBO</p>","","","","","","","","",""
"html-keyboard-response","244","474457","0.0-12.0-0.74","64ef422a4789bd6b6b9042ce","650c16f0f2faf8d7a0d14c09","651c1e6c62eab12a59b27824","null","null","<p style=""font-size: 60px; font-family: BACS"">CtmbmAM</p>","","","","","","","","",""
"html-keyboard-response","245","475485","0.0-12.0-0.75","64ef422a4789bd6b6b9042ce","650c16f0f2faf8d7a0d14c09","651c1e6c62eab12a59b27824","null","null","<p style=""font-size: 60px; font-family: BACS"">LckGNkJdr</p>","","","","","","","","",""
"html-keyboard-response","246","476505","0.0-12.0-0.76","64ef422a4789bd6b6b9042ce","650c16f0f2faf8d7a0d14c09","651c1e6c62eab12a59b27824","null","null","<p style=""font-size: 60px; font-family: BACS"">PDPhlkPM</p>","","","","","","","","",""
"html-keyboard-response","247","477531","0.0-12.0-0.77","64ef422a4789bd6b6b9042ce","650c16f0f2faf8d7a0d14c09","651c1e6c62eab12a59b27824","null","null","<p style=""font-size: 60px; font-family: BACS"">bvkrdUr</p>","","","","","","","","",""
"html-keyboard-response","248","478541","0.0-12.0-0.78","64ef422a4789bd6b6b9042ce","650c16f0f2faf8d7a0d14c09","651c1e6c62eab12a59b27824","null","null","<p style=""font-size: 60px; font-family: BACS"">OAblcYZJO</p>","","","","","","","","",""
"html-keyboard-response","249","479562","0.0-12.0-0.79","64ef422a4789bd6b6b9042ce","650c16f0f2faf8d7a0d14c09","651c1e6c62eab12a59b27824","null","null","<p style=""font-size: 60px; font-family: BACS"">YlCPBCKOb</p>","","","","","","","","",""
"html-keyboard-response","250","492135","0.0-13.0","64ef422a4789bd6b6b9042ce","650c16f0f2faf8d7a0d14c09","651c1e6c62eab12a59b27824","12571"," ","<p>Great, you've seen the third block of words. You may now take a short break.</p>
      <p>Press the spacebar when you're ready to continue.</p>","","","","","","","","",""
"html-keyboard-response","251","493159","0.0-14.0-0.0","64ef422a4789bd6b6b9042ce","650c16f0f2faf8d7a0d14c09","651c1e6c62eab12a59b27824","null","null","<p style=""font-size: 60px; font-family: BACS"">dGLAlYUYa</p>","","","","","","","","",""
"html-keyboard-response","252","494181","0.0-14.0-0.1","64ef422a4789bd6b6b9042ce","650c16f0f2faf8d7a0d14c09","651c1e6c62eab12a59b27824","null","null","<p style=""font-size: 60px; font-family: BACS"">CkBOPmAM</p>","","","","","","","","",""
"html-keyboard-response","253","495204","0.0-14.0-0.2","64ef422a4789bd6b6b9042ce","650c16f0f2faf8d7a0d14c09","651c1e6c62eab12a59b27824","null","null","<p style=""font-size: 60px; font-family: BACS"">rLaZkdrO</p>","","","","","","","","",""
"html-keyboard-response","254","496214","0.0-14.0-0.3","64ef422a4789bd6b6b9042ce","650c16f0f2faf8d7a0d14c09","651c1e6c62eab12a59b27824","null","null","<p style=""font-size: 60px; font-family: BACS"">PDPhlCKOb</p>","","","","","","","","",""
"html-keyboard-response","255","497236","0.0-14.0-0.4","64ef422a4789bd6b6b9042ce","650c16f0f2faf8d7a0d14c09","651c1e6c62eab12a59b27824","null","null","<p style=""font-size: 60px; font-family: BACS"">JauQYUYa</p>","","","","","","","","",""
"html-keyboard-response","256","498262","0.0-14.0-0.5","64ef422a4789bd6b6b9042ce","650c16f0f2faf8d7a0d14c09","651c1e6c62eab12a59b27824","null","null","<p style=""font-size: 60px; font-family: BACS"">YObAYBO</p>","","","","","","","","",""
"html-keyboard-response","257","499284","0.0-14.0-0.6","64ef422a4789bd6b6b9042ce","650c16f0f2faf8d7a0d14c09","651c1e6c62eab12a59b27824","null","null","<p style=""font-size: 60px; font-family: BACS"">CtmbkPM</p>","","","","","","","","",""
"html-keyboard-response","258","500290","0.0-14.0-0.7","64ef422a4789bd6b6b9042ce","650c16f0f2faf8d7a0d14c09","651c1e6c62eab12a59b27824","null","null","<p style=""font-size: 60px; font-family: BACS"">OAblckJdr</p>","","","","","","","","",""
"html-keyboard-response","259","501310","0.0-14.0-0.8","64ef422a4789bd6b6b9042ce","650c16f0f2faf8d7a0d14c09","651c1e6c62eab12a59b27824","null","null","<p style=""font-size: 60px; font-family: BACS"">PDPhlCPMl</p>","","","","","","","","",""
"html-keyboard-response","260","502340","0.0-14.0-0.9","64ef422a4789bd6b6b9042ce","650c16f0f2faf8d7a0d14c09","651c1e6c62eab12a59b27824","null","null","<p style=""font-size: 60px; font-family: BACS"">vkYGlkdrO</p>","","","","","","","","",""
"html-keyboard-response","261","503356","0.0-14.0-0.10","64ef422a4789bd6b6b9042ce","650c16f0f2faf8d7a0d14c09","651c1e6c62eab12a59b27824","null","null","<p style=""font-size: 60px; font-family: BACS"">CkBOPCKOb</p>","","","","","","","","",""
"html-keyboard-response","262","504370","0.0-14.0-0.11","64ef422a4789bd6b6b9042ce","650c16f0f2faf8d7a0d14c09","651c1e6c62eab12a59b27824","null","null","<p style=""font-size: 60px; font-family: BACS"">rLaZdUr</p>","","","","","","","","",""
"html-keyboard-response","263","505390","0.0-14.0-0.12","64ef422a4789bd6b6b9042ce","650c16f0f2faf8d7a0d14c09","651c1e6c62eab12a59b27824","null","null","<p style=""font-size: 60px; font-family: BACS"">OAblckdrO</p>","","","","","","","","",""
"html-keyboard-response","264","506408","0.0-14.0-0.13","64ef422a4789bd6b6b9042ce","650c16f0f2faf8d7a0d14c09","651c1e6c62eab12a59b27824","null","null","<p style=""font-size: 60px; font-family: BACS"">ZdlOYZJO</p>","","","","","","","","",""
"html-keyboard-response","265","507414","0.0-14.0-0.14","64ef422a4789bd6b6b9042ce","650c16f0f2faf8d7a0d14c09","651c1e6c62eab12a59b27824","null","null","<p style=""font-size: 60px; font-family: BACS"">ktBdmAM</p>","","","","","","","","",""
"html-keyboard-response","266","508442","0.0-14.0-0.15","64ef422a4789bd6b6b9042ce","650c16f0f2faf8d7a0d14c09","651c1e6c62eab12a59b27824","null","null","<p style=""font-size: 60px; font-family: BACS"">LckGNkdrO</p>","","","","","","","","",""
"html-keyboard-response","267","509467","0.0-14.0-0.16","64ef422a4789bd6b6b9042ce","650c16f0f2faf8d7a0d14c09","651c1e6c62eab12a59b27824","null","null","<p style=""font-size: 60px; font-family: BACS"">rLaZYZJO</p>","","","","","","","","",""
"html-keyboard-response","268","510488","0.0-14.0-0.17","64ef422a4789bd6b6b9042ce","650c16f0f2faf8d7a0d14c09","651c1e6c62eab12a59b27824","null","null","<p style=""font-size: 60px; font-family: BACS"">tKDmhYBO</p>","","","","","","","","",""
"html-keyboard-response","269","511512","0.0-14.0-0.18","64ef422a4789bd6b6b9042ce","650c16f0f2faf8d7a0d14c09","651c1e6c62eab12a59b27824","null","null","<p style=""font-size: 60px; font-family: BACS"">CtmbCPMl</p>","","","","","","","","",""
"html-keyboard-response","270","512514","0.0-14.0-0.19","64ef422a4789bd6b6b9042ce","650c16f0f2faf8d7a0d14c09","651c1e6c62eab12a59b27824","null","null","<p style=""font-size: 60px; font-family: BACS"">lAOKMmAM</p>","","","","","","","","",""
"html-keyboard-response","271","513533","0.0-14.0-0.20","64ef422a4789bd6b6b9042ce","650c16f0f2faf8d7a0d14c09","651c1e6c62eab12a59b27824","null","null","<p style=""font-size: 60px; font-family: BACS"">DCmhkPM</p>","","","","","","","","",""
"html-keyboard-response","272","514543","0.0-14.0-0.21","64ef422a4789bd6b6b9042ce","650c16f0f2faf8d7a0d14c09","651c1e6c62eab12a59b27824","null","null","<p style=""font-size: 60px; font-family: BACS"">bmbNkJdr</p>","","","","","","","","",""
"html-keyboard-response","273","515559","0.0-14.0-0.22","64ef422a4789bd6b6b9042ce","650c16f0f2faf8d7a0d14c09","651c1e6c62eab12a59b27824","null","null","<p style=""font-size: 60px; font-family: BACS"">ktBdCKOb</p>","","","","","","","","",""
"html-keyboard-response","274","516588","0.0-14.0-0.23","64ef422a4789bd6b6b9042ce","650c16f0f2faf8d7a0d14c09","651c1e6c62eab12a59b27824","null","null","<p style=""font-size: 60px; font-family: BACS"">vkYGldUr</p>","","","","","","","","",""
"html-keyboard-response","275","517610","0.0-14.0-0.24","64ef422a4789bd6b6b9042ce","650c16f0f2faf8d7a0d14c09","651c1e6c62eab12a59b27824","null","null","<p style=""font-size: 60px; font-family: BACS"">PDPhlmAM</p>","","","","","","","","",""
"html-keyboard-response","276","518630","0.0-14.0-0.25","64ef422a4789bd6b6b9042ce","650c16f0f2faf8d7a0d14c09","651c1e6c62eab12a59b27824","null","null","<p style=""font-size: 60px; font-family: BACS"">OAmAdYBO</p>","","","","","","","","",""
"html-keyboard-response","277","519640","0.0-14.0-0.26","64ef422a4789bd6b6b9042ce","650c16f0f2faf8d7a0d14c09","651c1e6c62eab12a59b27824","null","null","<p style=""font-size: 60px; font-family: BACS"">NvYJYUYa</p>","","","","","","","","",""
"html-keyboard-response","278","520661","0.0-14.0-0.27","64ef422a4789bd6b6b9042ce","650c16f0f2faf8d7a0d14c09","651c1e6c62eab12a59b27824","null","null","<p style=""font-size: 60px; font-family: BACS"">CkBOPCPMl</p>","","","","","","","","",""
"html-keyboard-response","279","521664","0.0-14.0-0.28","64ef422a4789bd6b6b9042ce","650c16f0f2faf8d7a0d14c09","651c1e6c62eab12a59b27824","null","null","<p style=""font-size: 60px; font-family: BACS"">JauQdUr</p>","","","","","","","","",""
"html-keyboard-response","280","522683","0.0-14.0-0.29","64ef422a4789bd6b6b9042ce","650c16f0f2faf8d7a0d14c09","651c1e6c62eab12a59b27824","null","null","<p style=""font-size: 60px; font-family: BACS"">NvYJYZJO</p>","","","","","","","","",""
"html-keyboard-response","281","523688","0.0-14.0-0.30","64ef422a4789bd6b6b9042ce","650c16f0f2faf8d7a0d14c09","651c1e6c62eab12a59b27824","null","null","<p style=""font-size: 60px; font-family: BACS"">dGLAlkJdr</p>","","","","","","","","",""
"html-keyboard-response","282","524694","0.0-14.0-0.31","64ef422a4789bd6b6b9042ce","650c16f0f2faf8d7a0d14c09","651c1e6c62eab12a59b27824","null","null","<p style=""font-size: 60px; font-family: BACS"">OAblcdUr</p>","","","","","","","","",""
"html-keyboard-response","283","525711","0.0-14.0-0.32","64ef422a4789bd6b6b9042ce","650c16f0f2faf8d7a0d14c09","651c1e6c62eab12a59b27824","null","null","<p style=""font-size: 60px; font-family: BACS"">bmbNkdrO</p>","","","","","","","","",""
"html-keyboard-response","284","526715","0.0-14.0-0.33","64ef422a4789bd6b6b9042ce","650c16f0f2faf8d7a0d14c09","651c1e6c62eab12a59b27824","null","null","<p style=""font-size: 60px; font-family: BACS"">ktBdYBO</p>","","","","","","","","",""
"html-keyboard-response","285","527729","0.0-14.0-0.34","64ef422a4789bd6b6b9042ce","650c16f0f2faf8d7a0d14c09","651c1e6c62eab12a59b27824","null","null","<p style=""font-size: 60px; font-family: BACS"">OAmAdCPMl</p>","","","","","","","","",""
"html-keyboard-response","286","528757","0.0-14.0-0.35","64ef422a4789bd6b6b9042ce","650c16f0f2faf8d7a0d14c09","651c1e6c62eab12a59b27824","null","null","<p style=""font-size: 60px; font-family: BACS"">JauQkJdr</p>","","","","","","","","",""
"html-keyboard-response","287","529782","0.0-14.0-0.36","64ef422a4789bd6b6b9042ce","650c16f0f2faf8d7a0d14c09","651c1e6c62eab12a59b27824","null","null","<p style=""font-size: 60px; font-family: BACS"">ZdlOdUr</p>","","","","","","","","",""
"html-keyboard-response","288","530787","0.0-14.0-0.37","64ef422a4789bd6b6b9042ce","650c16f0f2faf8d7a0d14c09","651c1e6c62eab12a59b27824","null","null","<p style=""font-size: 60px; font-family: BACS"">YlCPBCKOb</p>","","","","","","","","",""
"html-keyboard-response","289","531806","0.0-14.0-0.38","64ef422a4789bd6b6b9042ce","650c16f0f2faf8d7a0d14c09","651c1e6c62eab12a59b27824","null","null","<p style=""font-size: 60px; font-family: BACS"">ZdlOkdrO</p>","","","","","","","","",""
"html-keyboard-response","290","532813","0.0-14.0-0.39","64ef422a4789bd6b6b9042ce","650c16f0f2faf8d7a0d14c09","651c1e6c62eab12a59b27824","null","null","<p style=""font-size: 60px; font-family: BACS"">bvkrdUr</p>","","","","","","","","",""
"html-keyboard-response","291","533830","0.0-14.0-0.40","64ef422a4789bd6b6b9042ce","650c16f0f2faf8d7a0d14c09","651c1e6c62eab12a59b27824","null","null","<p style=""font-size: 60px; font-family: BACS"">tKDmhCPMl</p>","","","","","","","","",""
"html-keyboard-response","292","534858","0.0-14.0-0.41","64ef422a4789bd6b6b9042ce","650c16f0f2faf8d7a0d14c09","651c1e6c62eab12a59b27824","null","null","<p style=""font-size: 60px; font-family: BACS"">YlCPBkPM</p>","","","","","","","","",""
"html-keyboard-response","293","535866","0.0-14.0-0.42","64ef422a4789bd6b6b9042ce","650c16f0f2faf8d7a0d14c09","651c1e6c62eab12a59b27824","null","null","<p style=""font-size: 60px; font-family: BACS"">JauQkdrO</p>","","","","","","","","",""
"html-keyboard-response","294","536890","0.0-14.0-0.43","64ef422a4789bd6b6b9042ce","650c16f0f2faf8d7a0d14c09","651c1e6c62eab12a59b27824","null","null","<p style=""font-size: 60px; font-family: BACS"">DCmhYBO</p>","","","","","","","","",""
"html-keyboard-response","295","537911","0.0-14.0-0.44","64ef422a4789bd6b6b9042ce","650c16f0f2faf8d7a0d14c09","651c1e6c62eab12a59b27824","null","null","<p style=""font-size: 60px; font-family: BACS"">ktBdCPMl</p>","","","","","","","","",""
"html-keyboard-response","296","538937","0.0-14.0-0.45","64ef422a4789bd6b6b9042ce","650c16f0f2faf8d7a0d14c09","651c1e6c62eab12a59b27824","null","null","<p style=""font-size: 60px; font-family: BACS"">bvkrYUYa</p>","","","","","","","","",""
"html-keyboard-response","297","539965","0.0-14.0-0.46","64ef422a4789bd6b6b9042ce","650c16f0f2faf8d7a0d14c09","651c1e6c62eab12a59b27824","null","null","<p style=""font-size: 60px; font-family: BACS"">DCmhmAM</p>","","","","","","","","",""
"html-keyboard-response","298","540986","0.0-14.0-0.47","64ef422a4789bd6b6b9042ce","650c16f0f2faf8d7a0d14c09","651c1e6c62eab12a59b27824","null","null","<p style=""font-size: 60px; font-family: BACS"">bmbNYZJO</p>","","","","","","","","",""
"html-keyboard-response","299","541992","0.0-14.0-0.48","64ef422a4789bd6b6b9042ce","650c16f0f2faf8d7a0d14c09","651c1e6c62eab12a59b27824","null","null","<p style=""font-size: 60px; font-family: BACS"">CkBOPYBO</p>","","","","","","","","",""
"html-keyboard-response","300","543016","0.0-14.0-0.49","64ef422a4789bd6b6b9042ce","650c16f0f2faf8d7a0d14c09","651c1e6c62eab12a59b27824","null","null","<p style=""font-size: 60px; font-family: BACS"">YlCPBCPMl</p>","","","","","","","","",""
"html-keyboard-response","301","544039","0.0-14.0-0.50","64ef422a4789bd6b6b9042ce","650c16f0f2faf8d7a0d14c09","651c1e6c62eab12a59b27824","null","null","<p style=""font-size: 60px; font-family: BACS"">LckGNYUYa</p>","","","","","","","","",""
"html-keyboard-response","302","545056","0.0-14.0-0.51","64ef422a4789bd6b6b9042ce","650c16f0f2faf8d7a0d14c09","651c1e6c62eab12a59b27824","null","null","<p style=""font-size: 60px; font-family: BACS"">CtmbmAM</p>","","","","","","","","",""
"html-keyboard-response","303","546081","0.0-14.0-0.52","64ef422a4789bd6b6b9042ce","650c16f0f2faf8d7a0d14c09","651c1e6c62eab12a59b27824","null","null","<p style=""font-size: 60px; font-family: BACS"">lAOKMYBO</p>","","","","","","","","",""
"html-keyboard-response","304","547103","0.0-14.0-0.53","64ef422a4789bd6b6b9042ce","650c16f0f2faf8d7a0d14c09","651c1e6c62eab12a59b27824","null","null","<p style=""font-size: 60px; font-family: BACS"">bvkrYZJO</p>","","","","","","","","",""
"html-keyboard-response","305","548111","0.0-14.0-0.54","64ef422a4789bd6b6b9042ce","650c16f0f2faf8d7a0d14c09","651c1e6c62eab12a59b27824","null","null","<p style=""font-size: 60px; font-family: BACS"">YObAmAM</p>","","","","","","","","",""
"html-keyboard-response","306","549137","0.0-14.0-0.55","64ef422a4789bd6b6b9042ce","650c16f0f2faf8d7a0d14c09","651c1e6c62eab12a59b27824","null","null","<p style=""font-size: 60px; font-family: BACS"">vkYGlYUYa</p>","","","","","","","","",""
"html-keyboard-response","307","550158","0.0-14.0-0.56","64ef422a4789bd6b6b9042ce","650c16f0f2faf8d7a0d14c09","651c1e6c62eab12a59b27824","null","null","<p style=""font-size: 60px; font-family: BACS"">LckGNYZJO</p>","","","","","","","","",""
"html-keyboard-response","308","551162","0.0-14.0-0.57","64ef422a4789bd6b6b9042ce","650c16f0f2faf8d7a0d14c09","651c1e6c62eab12a59b27824","null","null","<p style=""font-size: 60px; font-family: BACS"">dGLAldUr</p>","","","","","","","","",""
"html-keyboard-response","309","552178","0.0-14.0-0.58","64ef422a4789bd6b6b9042ce","650c16f0f2faf8d7a0d14c09","651c1e6c62eab12a59b27824","null","null","<p style=""font-size: 60px; font-family: BACS"">PDPhlkPM</p>","","","","","","","","",""
"html-keyboard-response","310","553186","0.0-14.0-0.59","64ef422a4789bd6b6b9042ce","650c16f0f2faf8d7a0d14c09","651c1e6c62eab12a59b27824","null","null","<p style=""font-size: 60px; font-family: BACS"">dGLAlYZJO</p>","","","","","","","","",""
"html-keyboard-response","311","554198","0.0-14.0-0.60","64ef422a4789bd6b6b9042ce","650c16f0f2faf8d7a0d14c09","651c1e6c62eab12a59b27824","null","null","<p style=""font-size: 60px; font-family: BACS"">YObAkPM</p>","","","","","","","","",""
"html-keyboard-response","312","555217","0.0-14.0-0.61","64ef422a4789bd6b6b9042ce","650c16f0f2faf8d7a0d14c09","651c1e6c62eab12a59b27824","null","null","<p style=""font-size: 60px; font-family: BACS"">tKDmhCKOb</p>","","","","","","","","",""
"html-keyboard-response","313","556244","0.0-14.0-0.62","64ef422a4789bd6b6b9042ce","650c16f0f2faf8d7a0d14c09","651c1e6c62eab12a59b27824","null","null","<p style=""font-size: 60px; font-family: BACS"">NvYJkdrO</p>","","","","","","","","",""
"html-keyboard-response","314","557260","0.0-14.0-0.63","64ef422a4789bd6b6b9042ce","650c16f0f2faf8d7a0d14c09","651c1e6c62eab12a59b27824","null","null","<p style=""font-size: 60px; font-family: BACS"">YlCPBYBO</p>","","","","","","","","",""
"html-keyboard-response","315","558289","0.0-14.0-0.64","64ef422a4789bd6b6b9042ce","650c16f0f2faf8d7a0d14c09","651c1e6c62eab12a59b27824","null","null","<p style=""font-size: 60px; font-family: BACS"">YObACPMl</p>","","","","","","","","",""
"html-keyboard-response","316","559307","0.0-14.0-0.65","64ef422a4789bd6b6b9042ce","650c16f0f2faf8d7a0d14c09","651c1e6c62eab12a59b27824","null","null","<p style=""font-size: 60px; font-family: BACS"">CtmbCKOb</p>","","","","","","","","",""
"html-keyboard-response","317","560331","0.0-14.0-0.66","64ef422a4789bd6b6b9042ce","650c16f0f2faf8d7a0d14c09","651c1e6c62eab12a59b27824","null","null","<p style=""font-size: 60px; font-family: BACS"">ZdlOYUYa</p>","","","","","","","","",""
"html-keyboard-response","318","561352","0.0-14.0-0.67","64ef422a4789bd6b6b9042ce","650c16f0f2faf8d7a0d14c09","651c1e6c62eab12a59b27824","null","null","<p style=""font-size: 60px; font-family: BACS"">tKDmhkPM</p>","","","","","","","","",""
"html-keyboard-response","319","562364","0.0-14.0-0.68","64ef422a4789bd6b6b9042ce","650c16f0f2faf8d7a0d14c09","651c1e6c62eab12a59b27824","null","null","<p style=""font-size: 60px; font-family: BACS"">bvkrkJdr</p>","","","","","","","","",""
"html-keyboard-response","320","563388","0.0-14.0-0.69","64ef422a4789bd6b6b9042ce","650c16f0f2faf8d7a0d14c09","651c1e6c62eab12a59b27824","null","null","<p style=""font-size: 60px; font-family: BACS"">OAblcYZJO</p>","","","","","","","","",""
"html-keyboard-response","321","564414","0.0-14.0-0.70","64ef422a4789bd6b6b9042ce","650c16f0f2faf8d7a0d14c09","651c1e6c62eab12a59b27824","null","null","<p style=""font-size: 60px; font-family: BACS"">lAOKMkPM</p>","","","","","","","","",""
"html-keyboard-response","322","565420","0.0-14.0-0.71","64ef422a4789bd6b6b9042ce","650c16f0f2faf8d7a0d14c09","651c1e6c62eab12a59b27824","null","null","<p style=""font-size: 60px; font-family: BACS"">DCmhCKOb</p>","","","","","","","","",""
"html-keyboard-response","323","566444","0.0-14.0-0.72","64ef422a4789bd6b6b9042ce","650c16f0f2faf8d7a0d14c09","651c1e6c62eab12a59b27824","null","null","<p style=""font-size: 60px; font-family: BACS"">vkYGlkJdr</p>","","","","","","","","",""
"html-keyboard-response","324","567462","0.0-14.0-0.73","64ef422a4789bd6b6b9042ce","650c16f0f2faf8d7a0d14c09","651c1e6c62eab12a59b27824","null","null","<p style=""font-size: 60px; font-family: BACS"">OAmAdkPM</p>","","","","","","","","",""
"html-keyboard-response","325","568464","0.0-14.0-0.74","64ef422a4789bd6b6b9042ce","650c16f0f2faf8d7a0d14c09","651c1e6c62eab12a59b27824","null","null","<p style=""font-size: 60px; font-family: BACS"">NvYJdUr</p>","","","","","","","","",""
"html-keyboard-response","326","569485","0.0-14.0-0.75","64ef422a4789bd6b6b9042ce","650c16f0f2faf8d7a0d14c09","651c1e6c62eab12a59b27824","null","null","<p style=""font-size: 60px; font-family: BACS"">lAOKMCKOb</p>","","","","","","","","",""
"html-keyboard-response","327","570489","0.0-14.0-0.76","64ef422a4789bd6b6b9042ce","650c16f0f2faf8d7a0d14c09","651c1e6c62eab12a59b27824","null","null","<p style=""font-size: 60px; font-family: BACS"">OAmAdmAM</p>","","","","","","","","",""
"html-keyboard-response","328","571508","0.0-14.0-0.77","64ef422a4789bd6b6b9042ce","650c16f0f2faf8d7a0d14c09","651c1e6c62eab12a59b27824","null","null","<p style=""font-size: 60px; font-family: BACS"">rLaZkJdr</p>","","","","","","","","",""
"html-keyboard-response","329","572513","0.0-14.0-0.78","64ef422a4789bd6b6b9042ce","650c16f0f2faf8d7a0d14c09","651c1e6c62eab12a59b27824","null","null","<p style=""font-size: 60px; font-family: BACS"">bmbNYUYa</p>","","","","","","","","",""
"html-keyboard-response","330","573531","0.0-14.0-0.79","64ef422a4789bd6b6b9042ce","650c16f0f2faf8d7a0d14c09","651c1e6c62eab12a59b27824","null","null","<p style=""font-size: 60px; font-family: BACS"">LckGNkJdr</p>","","","","","","","","",""
"html-keyboard-response","331","582906","0.0-15.0","64ef422a4789bd6b6b9042ce","650c16f0f2faf8d7a0d14c09","651c1e6c62eab12a59b27824","9374"," ","<p>Great, you've seen the fourth block of words. You may now take a short break.</p>
      <p>Press the spacebar when you're ready to continue.</p>","","","","","","","","",""
"html-keyboard-response","332","583910","0.0-16.0-0.0","64ef422a4789bd6b6b9042ce","650c16f0f2faf8d7a0d14c09","651c1e6c62eab12a59b27824","null","null","<p style=""font-size: 60px; font-family: BACS"">YlCPBCPMl</p>","","","","","","","","",""
"html-keyboard-response","333","584930","0.0-16.0-0.1","64ef422a4789bd6b6b9042ce","650c16f0f2faf8d7a0d14c09","651c1e6c62eab12a59b27824","null","null","<p style=""font-size: 60px; font-family: BACS"">YlCPBCPMl</p>","","","","","","","","",""
"html-keyboard-response","334","585939","0.0-16.0-0.2","64ef422a4789bd6b6b9042ce","650c16f0f2faf8d7a0d14c09","651c1e6c62eab12a59b27824","null","null","<p style=""font-size: 60px; font-family: BACS"">YlCPBCPMl</p>","","","","","","","","",""
"html-keyboard-response","335","586964","0.0-16.0-0.3","64ef422a4789bd6b6b9042ce","650c16f0f2faf8d7a0d14c09","651c1e6c62eab12a59b27824","null","null","<p style=""font-size: 60px; font-family: BACS"">YlCPBCPMl</p>","","","","","","","","",""
"html-keyboard-response","336","587983","0.0-16.0-0.4","64ef422a4789bd6b6b9042ce","650c16f0f2faf8d7a0d14c09","651c1e6c62eab12a59b27824","null","null","<p style=""font-size: 60px; font-family: BACS"">YlCPBCPMl</p>","","","","","","","","",""
"html-keyboard-response","337","589011","0.0-16.0-0.5","64ef422a4789bd6b6b9042ce","650c16f0f2faf8d7a0d14c09","651c1e6c62eab12a59b27824","null","null","<p style=""font-size: 60px; font-family: BACS"">YlCPBCPMl</p>","","","","","","","","",""
"html-keyboard-response","338","590029","0.0-16.0-0.6","64ef422a4789bd6b6b9042ce","650c16f0f2faf8d7a0d14c09","651c1e6c62eab12a59b27824","null","null","<p style=""font-size: 60px; font-family: BACS"">YlCPBCPMl</p>","","","","","","","","",""
"html-keyboard-response","339","591049","0.0-16.0-0.7","64ef422a4789bd6b6b9042ce","650c16f0f2faf8d7a0d14c09","651c1e6c62eab12a59b27824","null","null","<p style=""font-size: 60px; font-family: BACS"">YlCPBCPMl</p>","","","","","","","","",""
"html-keyboard-response","340","592064","0.0-16.0-0.8","64ef422a4789bd6b6b9042ce","650c16f0f2faf8d7a0d14c09","651c1e6c62eab12a59b27824","null","null","<p style=""font-size: 60px; font-family: BACS"">YlCPBCPMl</p>","","","","","","","","",""
"html-keyboard-response","341","593087","0.0-16.0-0.9","64ef422a4789bd6b6b9042ce","650c16f0f2faf8d7a0d14c09","651c1e6c62eab12a59b27824","null","null","<p style=""font-size: 60px; font-family: BACS"">YlCPBCPMl</p>","","","","","","","","",""
"html-keyboard-response","342","594114","0.0-16.0-0.10","64ef422a4789bd6b6b9042ce","650c16f0f2faf8d7a0d14c09","651c1e6c62eab12a59b27824","null","null","<p style=""font-size: 60px; font-family: BACS"">YlCPBCPMl</p>","","","","","","","","",""
"html-keyboard-response","343","595130","0.0-16.0-0.11","64ef422a4789bd6b6b9042ce","650c16f0f2faf8d7a0d14c09","651c1e6c62eab12a59b27824","null","null","<p style=""font-size: 60px; font-family: BACS"">YlCPBCPMl</p>","","","","","","","","",""
"html-keyboard-response","344","596149","0.0-16.0-0.12","64ef422a4789bd6b6b9042ce","650c16f0f2faf8d7a0d14c09","651c1e6c62eab12a59b27824","null","null","<p style=""font-size: 60px; font-family: BACS"">YlCPBCPMl</p>","","","","","","","","",""
"html-keyboard-response","345","597162","0.0-16.0-0.13","64ef422a4789bd6b6b9042ce","650c16f0f2faf8d7a0d14c09","651c1e6c62eab12a59b27824","null","null","<p style=""font-size: 60px; font-family: BACS"">YlCPBCPMl</p>","","","","","","","","",""
"html-keyboard-response","346","598186","0.0-16.0-0.14","64ef422a4789bd6b6b9042ce","650c16f0f2faf8d7a0d14c09","651c1e6c62eab12a59b27824","null","null","<p style=""font-size: 60px; font-family: BACS"">YlCPBCPMl</p>","","","","","","","","",""
"html-keyboard-response","347","599207","0.0-16.0-0.15","64ef422a4789bd6b6b9042ce","650c16f0f2faf8d7a0d14c09","651c1e6c62eab12a59b27824","null","null","<p style=""font-size: 60px; font-family: BACS"">YlCPBCPMl</p>","","","","","","","","",""
"html-keyboard-response","348","600221","0.0-16.0-0.16","64ef422a4789bd6b6b9042ce","650c16f0f2faf8d7a0d14c09","651c1e6c62eab12a59b27824","null","null","<p style=""font-size: 60px; font-family: BACS"">YlCPBCPMl</p>","","","","","","","","",""
"html-keyboard-response","349","601242","0.0-16.0-0.17","64ef422a4789bd6b6b9042ce","650c16f0f2faf8d7a0d14c09","651c1e6c62eab12a59b27824","null","null","<p style=""font-size: 60px; font-family: BACS"">YlCPBCPMl</p>","","","","","","","","",""
"html-keyboard-response","350","602263","0.0-16.0-0.18","64ef422a4789bd6b6b9042ce","650c16f0f2faf8d7a0d14c09","651c1e6c62eab12a59b27824","null","null","<p style=""font-size: 60px; font-family: BACS"">YlCPBCPMl</p>","","","","","","","","",""
"html-keyboard-response","351","603287","0.0-16.0-0.19","64ef422a4789bd6b6b9042ce","650c16f0f2faf8d7a0d14c09","651c1e6c62eab12a59b27824","null","null","<p style=""font-size: 60px; font-family: BACS"">YlCPBCPMl</p>","","","","","","","","",""
"html-keyboard-response","352","604296","0.0-16.0-0.20","64ef422a4789bd6b6b9042ce","650c16f0f2faf8d7a0d14c09","651c1e6c62eab12a59b27824","null","null","<p style=""font-size: 60px; font-family: BACS"">YlCPBCPMl</p>","","","","","","","","",""
"html-keyboard-response","353","605299","0.0-16.0-0.21","64ef422a4789bd6b6b9042ce","650c16f0f2faf8d7a0d14c09","651c1e6c62eab12a59b27824","null","null","<p style=""font-size: 60px; font-family: BACS"">YlCPBCPMl</p>","","","","","","","","",""
"html-keyboard-response","354","606312","0.0-16.0-0.22","64ef422a4789bd6b6b9042ce","650c16f0f2faf8d7a0d14c09","651c1e6c62eab12a59b27824","null","null","<p style=""font-size: 60px; font-family: BACS"">YlCPBCPMl</p>","","","","","","","","",""
"html-keyboard-response","355","607340","0.0-16.0-0.23","64ef422a4789bd6b6b9042ce","650c16f0f2faf8d7a0d14c09","651c1e6c62eab12a59b27824","null","null","<p style=""font-size: 60px; font-family: BACS"">YlCPBCPMl</p>","","","","","","","","",""
"html-keyboard-response","356","608345","0.0-16.0-0.24","64ef422a4789bd6b6b9042ce","650c16f0f2faf8d7a0d14c09","651c1e6c62eab12a59b27824","null","null","<p style=""font-size: 60px; font-family: BACS"">YlCPBCPMl</p>","","","","","","","","",""
"html-keyboard-response","357","609365","0.0-16.0-0.25","64ef422a4789bd6b6b9042ce","650c16f0f2faf8d7a0d14c09","651c1e6c62eab12a59b27824","null","null","<p style=""font-size: 60px; font-family: BACS"">YlCPBCPMl</p>","","","","","","","","",""
"html-keyboard-response","358","610389","0.0-16.0-0.26","64ef422a4789bd6b6b9042ce","650c16f0f2faf8d7a0d14c09","651c1e6c62eab12a59b27824","null","null","<p style=""font-size: 60px; font-family: BACS"">YlCPBCPMl</p>","","","","","","","","",""
"html-keyboard-response","359","611414","0.0-16.0-0.27","64ef422a4789bd6b6b9042ce","650c16f0f2faf8d7a0d14c09","651c1e6c62eab12a59b27824","null","null","<p style=""font-size: 60px; font-family: BACS"">YlCPBCPMl</p>","","","","","","","","",""
"html-keyboard-response","360","612440","0.0-16.0-0.28","64ef422a4789bd6b6b9042ce","650c16f0f2faf8d7a0d14c09","651c1e6c62eab12a59b27824","null","null","<p style=""font-size: 60px; font-family: BACS"">YlCPBCPMl</p>","","","","","","","","",""
"html-keyboard-response","361","613461","0.0-16.0-0.29","64ef422a4789bd6b6b9042ce","650c16f0f2faf8d7a0d14c09","651c1e6c62eab12a59b27824","null","null","<p style=""font-size: 60px; font-family: BACS"">YlCPBCPMl</p>","","","","","","","","",""
"html-keyboard-response","362","614481","0.0-16.0-0.30","64ef422a4789bd6b6b9042ce","650c16f0f2faf8d7a0d14c09","651c1e6c62eab12a59b27824","null","null","<p style=""font-size: 60px; font-family: BACS"">YlCPBCPMl</p>","","","","","","","","",""
"html-keyboard-response","363","615488","0.0-16.0-0.31","64ef422a4789bd6b6b9042ce","650c16f0f2faf8d7a0d14c09","651c1e6c62eab12a59b27824","null","null","<p style=""font-size: 60px; font-family: BACS"">YlCPBCPMl</p>","","","","","","","","",""
"html-keyboard-response","364","616493","0.0-16.0-0.32","64ef422a4789bd6b6b9042ce","650c16f0f2faf8d7a0d14c09","651c1e6c62eab12a59b27824","null","null","<p style=""font-size: 60px; font-family: BACS"">YlCPBCPMl</p>","","","","","","","","",""
"html-keyboard-response","365","617506","0.0-16.0-0.33","64ef422a4789bd6b6b9042ce","650c16f0f2faf8d7a0d14c09","651c1e6c62eab12a59b27824","null","null","<p style=""font-size: 60px; font-family: BACS"">YlCPBCPMl</p>","","","","","","","","",""
"html-keyboard-response","366","618513","0.0-16.0-0.34","64ef422a4789bd6b6b9042ce","650c16f0f2faf8d7a0d14c09","651c1e6c62eab12a59b27824","null","null","<p style=""font-size: 60px; font-family: BACS"">YlCPBCPMl</p>","","","","","","","","",""
"html-keyboard-response","367","619515","0.0-16.0-0.35","64ef422a4789bd6b6b9042ce","650c16f0f2faf8d7a0d14c09","651c1e6c62eab12a59b27824","null","null","<p style=""font-size: 60px; font-family: BACS"">YlCPBCPMl</p>","","","","","","","","",""
"html-keyboard-response","368","620530","0.0-16.0-0.36","64ef422a4789bd6b6b9042ce","650c16f0f2faf8d7a0d14c09","651c1e6c62eab12a59b27824","null","null","<p style=""font-size: 60px; font-family: BACS"">YlCPBCPMl</p>","","","","","","","","",""
"html-keyboard-response","369","621534","0.0-16.0-0.37","64ef422a4789bd6b6b9042ce","650c16f0f2faf8d7a0d14c09","651c1e6c62eab12a59b27824","null","null","<p style=""font-size: 60px; font-family: BACS"">YlCPBCPMl</p>","","","","","","","","",""
"html-keyboard-response","370","622540","0.0-16.0-0.38","64ef422a4789bd6b6b9042ce","650c16f0f2faf8d7a0d14c09","651c1e6c62eab12a59b27824","null","null","<p style=""font-size: 60px; font-family: BACS"">YlCPBCPMl</p>","","","","","","","","",""
"html-keyboard-response","371","623560","0.0-16.0-0.39","64ef422a4789bd6b6b9042ce","650c16f0f2faf8d7a0d14c09","651c1e6c62eab12a59b27824","null","null","<p style=""font-size: 60px; font-family: BACS"">YlCPBCPMl</p>","","","","","","","","",""
"html-keyboard-response","372","624565","0.0-16.0-0.40","64ef422a4789bd6b6b9042ce","650c16f0f2faf8d7a0d14c09","651c1e6c62eab12a59b27824","null","null","<p style=""font-size: 60px; font-family: BACS"">YlCPBCPMl</p>","","","","","","","","",""
"html-keyboard-response","373","625582","0.0-16.0-0.41","64ef422a4789bd6b6b9042ce","650c16f0f2faf8d7a0d14c09","651c1e6c62eab12a59b27824","null","null","<p style=""font-size: 60px; font-family: BACS"">YlCPBCPMl</p>","","","","","","","","",""
"html-keyboard-response","374","626594","0.0-16.0-0.42","64ef422a4789bd6b6b9042ce","650c16f0f2faf8d7a0d14c09","651c1e6c62eab12a59b27824","null","null","<p style=""font-size: 60px; font-family: BACS"">YlCPBCPMl</p>","","","","","","","","",""
"html-keyboard-response","375","627608","0.0-16.0-0.43","64ef422a4789bd6b6b9042ce","650c16f0f2faf8d7a0d14c09","651c1e6c62eab12a59b27824","null","null","<p style=""font-size: 60px; font-family: BACS"">YlCPBCPMl</p>","","","","","","","","",""
"html-keyboard-response","376","628635","0.0-16.0-0.44","64ef422a4789bd6b6b9042ce","650c16f0f2faf8d7a0d14c09","651c1e6c62eab12a59b27824","null","null","<p style=""font-size: 60px; font-family: BACS"">YlCPBCPMl</p>","","","","","","","","",""
"html-keyboard-response","377","629662","0.0-16.0-0.45","64ef422a4789bd6b6b9042ce","650c16f0f2faf8d7a0d14c09","651c1e6c62eab12a59b27824","null","null","<p style=""font-size: 60px; font-family: BACS"">YlCPBCPMl</p>","","","","","","","","",""
"html-keyboard-response","378","630681","0.0-16.0-0.46","64ef422a4789bd6b6b9042ce","650c16f0f2faf8d7a0d14c09","651c1e6c62eab12a59b27824","null","null","<p style=""font-size: 60px; font-family: BACS"">YlCPBCPMl</p>","","","","","","","","",""
"html-keyboard-response","379","631699","0.0-16.0-0.47","64ef422a4789bd6b6b9042ce","650c16f0f2faf8d7a0d14c09","651c1e6c62eab12a59b27824","null","null","<p style=""font-size: 60px; font-family: BACS"">YlCPBCPMl</p>","","","","","","","","",""
"html-keyboard-response","380","632717","0.0-16.0-0.48","64ef422a4789bd6b6b9042ce","650c16f0f2faf8d7a0d14c09","651c1e6c62eab12a59b27824","null","null","<p style=""font-size: 60px; font-family: BACS"">YlCPBCPMl</p>","","","","","","","","",""
"html-keyboard-response","381","633726","0.0-16.0-0.49","64ef422a4789bd6b6b9042ce","650c16f0f2faf8d7a0d14c09","651c1e6c62eab12a59b27824","null","null","<p style=""font-size: 60px; font-family: BACS"">YlCPBCPMl</p>","","","","","","","","",""
"html-keyboard-response","382","634753","0.0-16.0-0.50","64ef422a4789bd6b6b9042ce","650c16f0f2faf8d7a0d14c09","651c1e6c62eab12a59b27824","null","null","<p style=""font-size: 60px; font-family: BACS"">YlCPBCPMl</p>","","","","","","","","",""
"html-keyboard-response","383","635780","0.0-16.0-0.51","64ef422a4789bd6b6b9042ce","650c16f0f2faf8d7a0d14c09","651c1e6c62eab12a59b27824","null","null","<p style=""font-size: 60px; font-family: BACS"">YlCPBCPMl</p>","","","","","","","","",""
"html-keyboard-response","384","636790","0.0-16.0-0.52","64ef422a4789bd6b6b9042ce","650c16f0f2faf8d7a0d14c09","651c1e6c62eab12a59b27824","null","null","<p style=""font-size: 60px; font-family: BACS"">YlCPBCPMl</p>","","","","","","","","",""
"html-keyboard-response","385","637811","0.0-16.0-0.53","64ef422a4789bd6b6b9042ce","650c16f0f2faf8d7a0d14c09","651c1e6c62eab12a59b27824","null","null","<p style=""font-size: 60px; font-family: BACS"">YlCPBCPMl</p>","","","","","","","","",""
"html-keyboard-response","386","638830","0.0-16.0-0.54","64ef422a4789bd6b6b9042ce","650c16f0f2faf8d7a0d14c09","651c1e6c62eab12a59b27824","null","null","<p style=""font-size: 60px; font-family: BACS"">YlCPBCPMl</p>","","","","","","","","",""
"html-keyboard-response","387","639837","0.0-16.0-0.55","64ef422a4789bd6b6b9042ce","650c16f0f2faf8d7a0d14c09","651c1e6c62eab12a59b27824","null","null","<p style=""font-size: 60px; font-family: BACS"">YlCPBCPMl</p>","","","","","","","","",""
"html-keyboard-response","388","640853","0.0-16.0-0.56","64ef422a4789bd6b6b9042ce","650c16f0f2faf8d7a0d14c09","651c1e6c62eab12a59b27824","null","null","<p style=""font-size: 60px; font-family: BACS"">YlCPBCPMl</p>","","","","","","","","",""
"html-keyboard-response","389","641857","0.0-16.0-0.57","64ef422a4789bd6b6b9042ce","650c16f0f2faf8d7a0d14c09","651c1e6c62eab12a59b27824","null","null","<p style=""font-size: 60px; font-family: BACS"">YlCPBCPMl</p>","","","","","","","","",""
"html-keyboard-response","390","642865","0.0-16.0-0.58","64ef422a4789bd6b6b9042ce","650c16f0f2faf8d7a0d14c09","651c1e6c62eab12a59b27824","null","null","<p style=""font-size: 60px; font-family: BACS"">YlCPBCPMl</p>","","","","","","","","",""
"html-keyboard-response","391","643888","0.0-16.0-0.59","64ef422a4789bd6b6b9042ce","650c16f0f2faf8d7a0d14c09","651c1e6c62eab12a59b27824","null","null","<p style=""font-size: 60px; font-family: BACS"">YlCPBCPMl</p>","","","","","","","","",""
"html-keyboard-response","392","644903","0.0-16.0-0.60","64ef422a4789bd6b6b9042ce","650c16f0f2faf8d7a0d14c09","651c1e6c62eab12a59b27824","null","null","<p style=""font-size: 60px; font-family: BACS"">YlCPBCPMl</p>","","","","","","","","",""
"html-keyboard-response","393","645914","0.0-16.0-0.61","64ef422a4789bd6b6b9042ce","650c16f0f2faf8d7a0d14c09","651c1e6c62eab12a59b27824","null","null","<p style=""font-size: 60px; font-family: BACS"">YlCPBCPMl</p>","","","","","","","","",""
"html-keyboard-response","394","646935","0.0-16.0-0.62","64ef422a4789bd6b6b9042ce","650c16f0f2faf8d7a0d14c09","651c1e6c62eab12a59b27824","null","null","<p style=""font-size: 60px; font-family: BACS"">YlCPBCPMl</p>","","","","","","","","",""
"html-keyboard-response","395","647949","0.0-16.0-0.63","64ef422a4789bd6b6b9042ce","650c16f0f2faf8d7a0d14c09","651c1e6c62eab12a59b27824","null","null","<p style=""font-size: 60px; font-family: BACS"">YlCPBCPMl</p>","","","","","","","","",""
"html-keyboard-response","396","648966","0.0-16.0-0.64","64ef422a4789bd6b6b9042ce","650c16f0f2faf8d7a0d14c09","651c1e6c62eab12a59b27824","null","null","<p style=""font-size: 60px; font-family: BACS"">YlCPBCPMl</p>","","","","","","","","",""
"html-keyboard-response","397","649988","0.0-16.0-0.65","64ef422a4789bd6b6b9042ce","650c16f0f2faf8d7a0d14c09","651c1e6c62eab12a59b27824","null","null","<p style=""font-size: 60px; font-family: BACS"">YlCPBCPMl</p>","","","","","","","","",""
"html-keyboard-response","398","651008","0.0-16.0-0.66","64ef422a4789bd6b6b9042ce","650c16f0f2faf8d7a0d14c09","651c1e6c62eab12a59b27824","null","null","<p style=""font-size: 60px; font-family: BACS"">YlCPBCPMl</p>","","","","","","","","",""
"html-keyboard-response","399","652036","0.0-16.0-0.67","64ef422a4789bd6b6b9042ce","650c16f0f2faf8d7a0d14c09","651c1e6c62eab12a59b27824","null","null","<p style=""font-size: 60px; font-family: BACS"">YlCPBCPMl</p>","","","","","","","","",""
