"trial_type","trial_index","time_elapsed","internal_node_id","subject_id","study_id","session_id","rt","response","stimulus","success","item","task","correct_response","testing_condition","correct","target","confound","name"
"pavlovia","0","685","0.0-0.0","6074768dc48e0753011d3d72","650c16f0f2faf8d7a0d14c09","651c1d6bb14b8bb77b234bd6","","","","","","","","","","","",""
"survey-html-form","1","24592","0.0-1.0","6074768dc48e0753011d3d72","650c16f0f2faf8d7a0d14c09","651c1d6bb14b8bb77b234bd6","23906","{""ID"":""6074768dc48e0753011d3d72""}","","","","","","","","","",""
"html-keyboard-response","2","106072","0.0-2.0","6074768dc48e0753011d3d72","650c16f0f2faf8d7a0d14c09","651c1d6bb14b8bb77b234bd6","81479"," ","<p style=""font-size: 15px;"">Before beginning, we ask that you read the consent information and confirm your agreement to participate in the experiment.</p>
      <p style=""font-size: 15px;""> We ask that you remember that this is a research project and that your participation is entirely voluntary. You can stop your participation at any time, without needing to provide any explanation. The study we're asking you to participate in aims at examining how readers process written words. You will be engaged in a session of apprximately 20 minutes, followed by a brief questionnaire. You will have the opportunity to take a few breaks during the experiment. You will be paid £4 for your participation, corresponding to a rate of £8/hour. While this experiment looks at cognitive faculties, this experiment doesn't constitute clinical proof of eventual pathologies.</p>
      <p style=""font-size: 15px;"">All of the information collected thanks to yours and others' participation will be held in a secure password-protected server, and will not be shared with anyone not authorised to view it. Your personal information will be kept with an arbitrary participant ID. Thanks to this data anonymity process, any researcher analysing the data won't be able to track the information back to a specific participant. Therefore, this process will make identifying you impossibile, even when results from the study will be published in scientific reviews, presented at congresses, or at any other public forum. More generally, the collected data will be treated in accordance with the laws on privacy and conformity to the Legislative Degree n. 196 ""Code regarding the protection of personal data"" of the 30th of June 2003 and to the European Regulation 2016/670 (General Data Protection Regulation - GDPR). The Data Protection Officer is Avv. Valentina Carollo, who can be contacted at the following email addresses: <a href=""mailto:dpo@sissa.it"">dpo@sissa.it</a> or <a href=""mailto:rpd@sissa.it"">rpd@sissa.it</a> - PEC: <a href=""mailto:protocollo@pec.sissa.it"">protocollo@pec.sissa.it</a>.</p>
      <p style=""font-size: 15px;""> Before expressing your consent to participate, we would like to remind you again that in case you need explanations on any aspect of the experimental procedure, the researcher is at your disposition (<a href=""mailto:aliebelt@sissa.it"">aliebelt@sissa.it</a>, <a href=""mailto:davide.crepaldi@sissa.it"">davide.crepaldi@sissa.it</a>).</p>
      <p style=""font-size: 15px;"">If you would like to download the informed consent form, you can do so here: <a href=""BASL-Informed_Consent.pdf"" download>informed consent form</a>.</p>
      <p style=""font-size: 15px;"">We ask that you press the spacebar to proceed to the consent section.</p>","","","","","","","","",""
"survey-html-form","3","127160","0.0-3.0","6074768dc48e0753011d3d72","650c16f0f2faf8d7a0d14c09","651c1d6bb14b8bb77b234bd6","21087","{""consent1"":""YES"",""consent2"":""YES"",""consent3"":""YES"",""consent4"":""YES"",""consent5"":""YES"",""consent6"":""YES""}","","","","","","","","","",""
"fullscreen","4","133298","0.0-4.0","6074768dc48e0753011d3d72","650c16f0f2faf8d7a0d14c09","651c1d6bb14b8bb77b234bd6","","","","true","","","","","","","",""
"html-keyboard-response","5","152591","0.0-5.0","6074768dc48e0753011d3d72","650c16f0f2faf8d7a0d14c09","651c1d6bb14b8bb77b234bd6","19292"," ","<p>Welcome, and thank you very much for your time!</p>
      <p>In this experiment, you'll be a language expert who's been asked to take a look at words that Earth has received in its first communication with aliens. Your task, in this first part of the experiment, is to pay close attention to the words you'll be shown; later, world leaders will ask you questions on what you saw. The words will be shown to you quite quickly; it seems that the aliens were in a hurry :-)</p>
      <p>Press the spacebar to continue.<p>","","","","","","","","",""
"html-keyboard-response","6","152648","0.0-6.0","6074768dc48e0753011d3d72","650c16f0f2faf8d7a0d14c09","651c1d6bb14b8bb77b234bd6","null","null","<p style=""font-size: 120px; font-family: BACS""> </p>","","","","","","","","",""
"html-keyboard-response","7","180895","0.0-7.0","6074768dc48e0753011d3d72","650c16f0f2faf8d7a0d14c09","651c1d6bb14b8bb77b234bd6","28247"," ","<p>Here is an example of the words you'll see:</p>
      <img src='esempio.png' height='400px'>
      <p>When you're ready to begin, press the spacebar.</p></div>","","","","","","","","",""
"html-keyboard-response","8","181902","0.0-8.0-0.0","6074768dc48e0753011d3d72","650c16f0f2faf8d7a0d14c09","651c1d6bb14b8bb77b234bd6","null","null","<p style=""font-size: 60px; font-family: BACS"">QLrOJkmU</p>","","","","","","","","",""
"html-keyboard-response","9","182908","0.0-8.0-0.1","6074768dc48e0753011d3d72","650c16f0f2faf8d7a0d14c09","651c1d6bb14b8bb77b234bd6","null","null","<p style=""font-size: 60px; font-family: BACS"">tmYhKlkD</p>","","","","","","","","",""
"html-keyboard-response","10","183914","0.0-8.0-0.2","6074768dc48e0753011d3d72","650c16f0f2faf8d7a0d14c09","651c1d6bb14b8bb77b234bd6","null","null","<p style=""font-size: 60px; font-family: BACS"">NkUAkmU</p>","","","","","","","","",""
"html-keyboard-response","11","184920","0.0-8.0-0.3","6074768dc48e0753011d3d72","650c16f0f2faf8d7a0d14c09","651c1d6bb14b8bb77b234bd6","null","null","<p style=""font-size: 60px; font-family: BACS"">mkmJNcrdY</p>","","","","","","","","",""
"html-keyboard-response","12","185928","0.0-8.0-0.4","6074768dc48e0753011d3d72","650c16f0f2faf8d7a0d14c09","651c1d6bb14b8bb77b234bd6","null","null","<p style=""font-size: 60px; font-family: BACS"">rvAJkmU</p>","","","","","","","","",""
"html-keyboard-response","13","186932","0.0-8.0-0.5","6074768dc48e0753011d3d72","650c16f0f2faf8d7a0d14c09","651c1d6bb14b8bb77b234bd6","null","null","<p style=""font-size: 60px; font-family: BACS"">EPERdcDR</p>","","","","","","","","",""
"html-keyboard-response","14","187940","0.0-8.0-0.6","6074768dc48e0753011d3d72","650c16f0f2faf8d7a0d14c09","651c1d6bb14b8bb77b234bd6","null","null","<p style=""font-size: 60px; font-family: BACS"">KElBbdtK</p>","","","","","","","","",""
"html-keyboard-response","15","188948","0.0-8.0-0.7","6074768dc48e0753011d3d72","650c16f0f2faf8d7a0d14c09","651c1d6bb14b8bb77b234bd6","null","null","<p style=""font-size: 60px; font-family: BACS"">NkUAGUa</p>","","","","","","","","",""
"html-keyboard-response","16","189950","0.0-8.0-0.8","6074768dc48e0753011d3d72","650c16f0f2faf8d7a0d14c09","651c1d6bb14b8bb77b234bd6","null","null","<p style=""font-size: 60px; font-family: BACS"">EPERdkPM</p>","","","","","","","","",""
"html-keyboard-response","17","190957","0.0-8.0-0.9","6074768dc48e0753011d3d72","650c16f0f2faf8d7a0d14c09","651c1d6bb14b8bb77b234bd6","null","null","<p style=""font-size: 60px; font-family: BACS"">kRCkOKlkD</p>","","","","","","","","",""
"html-keyboard-response","18","191962","0.0-8.0-0.10","6074768dc48e0753011d3d72","650c16f0f2faf8d7a0d14c09","651c1d6bb14b8bb77b234bd6","null","null","<p style=""font-size: 60px; font-family: BACS"">NkUAuOAO</p>","","","","","","","","",""
"html-keyboard-response","19","192986","0.0-8.0-0.11","6074768dc48e0753011d3d72","650c16f0f2faf8d7a0d14c09","651c1d6bb14b8bb77b234bd6","null","null","<p style=""font-size: 60px; font-family: BACS"">CRdBdcDR</p>","","","","","","","","",""
"html-keyboard-response","20","193993","0.0-8.0-0.12","6074768dc48e0753011d3d72","650c16f0f2faf8d7a0d14c09","651c1d6bb14b8bb77b234bd6","null","null","<p style=""font-size: 60px; font-family: BACS"">rLkmkmU</p>","","","","","","","","",""
"html-keyboard-response","21","195000","0.0-8.0-0.13","6074768dc48e0753011d3d72","650c16f0f2faf8d7a0d14c09","651c1d6bb14b8bb77b234bd6","null","null","<p style=""font-size: 60px; font-family: BACS"">KdARKlkD</p>","","","","","","","","",""
"html-keyboard-response","22","196003","0.0-8.0-0.14","6074768dc48e0753011d3d72","650c16f0f2faf8d7a0d14c09","651c1d6bb14b8bb77b234bd6","null","null","<p style=""font-size: 60px; font-family: BACS"">GAcYkbu</p>","","","","","","","","",""
"html-keyboard-response","23","197008","0.0-8.0-0.15","6074768dc48e0753011d3d72","650c16f0f2faf8d7a0d14c09","651c1d6bb14b8bb77b234bd6","null","null","<p style=""font-size: 60px; font-family: BACS"">kRCkObdtK</p>","","","","","","","","",""
"html-keyboard-response","24","198015","0.0-8.0-0.16","6074768dc48e0753011d3d72","650c16f0f2faf8d7a0d14c09","651c1d6bb14b8bb77b234bd6","null","null","<p style=""font-size: 60px; font-family: BACS"">QLrOJuOAO</p>","","","","","","","","",""
"html-keyboard-response","25","199020","0.0-8.0-0.17","6074768dc48e0753011d3d72","650c16f0f2faf8d7a0d14c09","651c1d6bb14b8bb77b234bd6","null","null","<p style=""font-size: 60px; font-family: BACS"">KElBcDR</p>","","","","","","","","",""
"html-keyboard-response","26","200022","0.0-8.0-0.18","6074768dc48e0753011d3d72","650c16f0f2faf8d7a0d14c09","651c1d6bb14b8bb77b234bd6","null","null","<p style=""font-size: 60px; font-family: BACS"">ZdNmUcrdY</p>","","","","","","","","",""
"html-keyboard-response","27","201036","0.0-8.0-0.19","6074768dc48e0753011d3d72","650c16f0f2faf8d7a0d14c09","651c1d6bb14b8bb77b234bd6","null","null","<p style=""font-size: 60px; font-family: BACS"">YJLcAkbu</p>","","","","","","","","",""
"html-keyboard-response","28","202044","0.0-8.0-0.20","6074768dc48e0753011d3d72","650c16f0f2faf8d7a0d14c09","651c1d6bb14b8bb77b234bd6","null","null","<p style=""font-size: 60px; font-family: BACS"">vJabkmU</p>","","","","","","","","",""
"html-keyboard-response","29","203052","0.0-8.0-0.21","6074768dc48e0753011d3d72","650c16f0f2faf8d7a0d14c09","651c1d6bb14b8bb77b234bd6","null","null","<p style=""font-size: 60px; font-family: BACS"">kRCkOkPM</p>","","","","","","","","",""
"html-keyboard-response","30","204058","0.0-8.0-0.22","6074768dc48e0753011d3d72","650c16f0f2faf8d7a0d14c09","651c1d6bb14b8bb77b234bd6","null","null","<p style=""font-size: 60px; font-family: BACS"">YObAbdtK</p>","","","","","","","","",""
"html-keyboard-response","31","205064","0.0-8.0-0.23","6074768dc48e0753011d3d72","650c16f0f2faf8d7a0d14c09","651c1d6bb14b8bb77b234bd6","null","null","<p style=""font-size: 60px; font-family: BACS"">KdAREcR</p>","","","","","","","","",""
"html-keyboard-response","32","206072","0.0-8.0-0.24","6074768dc48e0753011d3d72","650c16f0f2faf8d7a0d14c09","651c1d6bb14b8bb77b234bd6","null","null","<p style=""font-size: 60px; font-family: BACS"">GAcYkmU</p>","","","","","","","","",""
"html-keyboard-response","33","207080","0.0-8.0-0.25","6074768dc48e0753011d3d72","650c16f0f2faf8d7a0d14c09","651c1d6bb14b8bb77b234bd6","null","null","<p style=""font-size: 60px; font-family: BACS"">ZdNmUuOAO</p>","","","","","","","","",""
"html-keyboard-response","34","208088","0.0-8.0-0.26","6074768dc48e0753011d3d72","650c16f0f2faf8d7a0d14c09","651c1d6bb14b8bb77b234bd6","null","null","<p style=""font-size: 60px; font-family: BACS"">NkUAcrdY</p>","","","","","","","","",""
"html-keyboard-response","35","209094","0.0-8.0-0.27","6074768dc48e0753011d3d72","650c16f0f2faf8d7a0d14c09","651c1d6bb14b8bb77b234bd6","null","null","<p style=""font-size: 60px; font-family: BACS"">CRdBdEcR</p>","","","","","","","","",""
"html-keyboard-response","36","210100","0.0-8.0-0.28","6074768dc48e0753011d3d72","650c16f0f2faf8d7a0d14c09","651c1d6bb14b8bb77b234bd6","null","null","<p style=""font-size: 60px; font-family: BACS"">KdARcDR</p>","","","","","","","","",""
"html-keyboard-response","37","211102","0.0-8.0-0.29","6074768dc48e0753011d3d72","650c16f0f2faf8d7a0d14c09","651c1d6bb14b8bb77b234bd6","null","null","<p style=""font-size: 60px; font-family: BACS"">vQdOkmU</p>","","","","","","","","",""
"html-keyboard-response","38","212108","0.0-8.0-0.30","6074768dc48e0753011d3d72","650c16f0f2faf8d7a0d14c09","651c1d6bb14b8bb77b234bd6","null","null","<p style=""font-size: 60px; font-family: BACS"">YJLcAGUa</p>","","","","","","","","",""
"html-keyboard-response","39","213116","0.0-8.0-0.31","6074768dc48e0753011d3d72","650c16f0f2faf8d7a0d14c09","651c1d6bb14b8bb77b234bd6","null","null","<p style=""font-size: 60px; font-family: BACS"">GAcYuOAO</p>","","","","","","","","",""
"html-keyboard-response","40","214125","0.0-8.0-0.32","6074768dc48e0753011d3d72","650c16f0f2faf8d7a0d14c09","651c1d6bb14b8bb77b234bd6","null","null","<p style=""font-size: 60px; font-family: BACS"">KElBkPM</p>","","","","","","","","",""
"html-keyboard-response","41","215131","0.0-8.0-0.33","6074768dc48e0753011d3d72","650c16f0f2faf8d7a0d14c09","651c1d6bb14b8bb77b234bd6","null","null","<p style=""font-size: 60px; font-family: BACS"">BEPOcDR</p>","","","","","","","","",""
"html-keyboard-response","42","216139","0.0-8.0-0.34","6074768dc48e0753011d3d72","650c16f0f2faf8d7a0d14c09","651c1d6bb14b8bb77b234bd6","null","null","<p style=""font-size: 60px; font-family: BACS"">vJabkbu</p>","","","","","","","","",""
"html-keyboard-response","43","217144","0.0-8.0-0.35","6074768dc48e0753011d3d72","650c16f0f2faf8d7a0d14c09","651c1d6bb14b8bb77b234bd6","null","null","<p style=""font-size: 60px; font-family: BACS"">YObAKlkD</p>","","","","","","","","",""
"html-keyboard-response","44","218150","0.0-8.0-0.36","6074768dc48e0753011d3d72","650c16f0f2faf8d7a0d14c09","651c1d6bb14b8bb77b234bd6","null","null","<p style=""font-size: 60px; font-family: BACS"">BEPOEcR</p>","","","","","","","","",""
"html-keyboard-response","45","219155","0.0-8.0-0.37","6074768dc48e0753011d3d72","650c16f0f2faf8d7a0d14c09","651c1d6bb14b8bb77b234bd6","null","null","<p style=""font-size: 60px; font-family: BACS"">YObAcDR</p>","","","","","","","","",""
"html-keyboard-response","46","220160","0.0-8.0-0.38","6074768dc48e0753011d3d72","650c16f0f2faf8d7a0d14c09","651c1d6bb14b8bb77b234bd6","null","null","<p style=""font-size: 60px; font-family: BACS"">rLkmuOAO</p>","","","","","","","","",""
"html-keyboard-response","47","221169","0.0-8.0-0.39","6074768dc48e0753011d3d72","650c16f0f2faf8d7a0d14c09","651c1d6bb14b8bb77b234bd6","null","null","<p style=""font-size: 60px; font-family: BACS"">rvAJGUa</p>","","","","","","","","",""
"html-keyboard-response","48","222175","0.0-8.0-0.40","6074768dc48e0753011d3d72","650c16f0f2faf8d7a0d14c09","651c1d6bb14b8bb77b234bd6","null","null","<p style=""font-size: 60px; font-family: BACS"">KdARkPM</p>","","","","","","","","",""
"html-keyboard-response","49","223181","0.0-8.0-0.41","6074768dc48e0753011d3d72","650c16f0f2faf8d7a0d14c09","651c1d6bb14b8bb77b234bd6","null","null","<p style=""font-size: 60px; font-family: BACS"">QLrOJGUa</p>","","","","","","","","",""
"html-keyboard-response","50","224186","0.0-8.0-0.42","6074768dc48e0753011d3d72","650c16f0f2faf8d7a0d14c09","651c1d6bb14b8bb77b234bd6","null","null","<p style=""font-size: 60px; font-family: BACS"">vJabcrdY</p>","","","","","","","","",""
"html-keyboard-response","51","225193","0.0-8.0-0.43","6074768dc48e0753011d3d72","650c16f0f2faf8d7a0d14c09","651c1d6bb14b8bb77b234bd6","null","null","<p style=""font-size: 60px; font-family: BACS"">tmYhbdtK</p>","","","","","","","","",""
"html-keyboard-response","52","226198","0.0-8.0-0.44","6074768dc48e0753011d3d72","650c16f0f2faf8d7a0d14c09","651c1d6bb14b8bb77b234bd6","null","null","<p style=""font-size: 60px; font-family: BACS"">KElBEcR</p>","","","","","","","","",""
"html-keyboard-response","53","227204","0.0-8.0-0.45","6074768dc48e0753011d3d72","650c16f0f2faf8d7a0d14c09","651c1d6bb14b8bb77b234bd6","null","null","<p style=""font-size: 60px; font-family: BACS"">CRdBdKlkD</p>","","","","","","","","",""
"html-keyboard-response","54","228212","0.0-8.0-0.46","6074768dc48e0753011d3d72","650c16f0f2faf8d7a0d14c09","651c1d6bb14b8bb77b234bd6","null","null","<p style=""font-size: 60px; font-family: BACS"">DhMtcDR</p>","","","","","","","","",""
"html-keyboard-response","55","229218","0.0-8.0-0.47","6074768dc48e0753011d3d72","650c16f0f2faf8d7a0d14c09","651c1d6bb14b8bb77b234bd6","null","null","<p style=""font-size: 60px; font-family: BACS"">YJLcAcrdY</p>","","","","","","","","",""
"html-keyboard-response","56","230225","0.0-8.0-0.48","6074768dc48e0753011d3d72","650c16f0f2faf8d7a0d14c09","651c1d6bb14b8bb77b234bd6","null","null","<p style=""font-size: 60px; font-family: BACS"">mkmJNGUa</p>","","","","","","","","",""
"html-keyboard-response","57","231228","0.0-8.0-0.49","6074768dc48e0753011d3d72","650c16f0f2faf8d7a0d14c09","651c1d6bb14b8bb77b234bd6","null","null","<p style=""font-size: 60px; font-family: BACS"">OdYPkPM</p>","","","","","","","","",""
"html-keyboard-response","58","232236","0.0-8.0-0.50","6074768dc48e0753011d3d72","650c16f0f2faf8d7a0d14c09","651c1d6bb14b8bb77b234bd6","null","null","<p style=""font-size: 60px; font-family: BACS"">EPERdKlkD</p>","","","","","","","","",""
"html-keyboard-response","59","233243","0.0-8.0-0.51","6074768dc48e0753011d3d72","650c16f0f2faf8d7a0d14c09","651c1d6bb14b8bb77b234bd6","null","null","<p style=""font-size: 60px; font-family: BACS"">rLkmkbu</p>","","","","","","","","",""
"html-keyboard-response","60","234248","0.0-8.0-0.52","6074768dc48e0753011d3d72","650c16f0f2faf8d7a0d14c09","651c1d6bb14b8bb77b234bd6","null","null","<p style=""font-size: 60px; font-family: BACS"">EPERdEcR</p>","","","","","","","","",""
"html-keyboard-response","61","235254","0.0-8.0-0.53","6074768dc48e0753011d3d72","650c16f0f2faf8d7a0d14c09","651c1d6bb14b8bb77b234bd6","null","null","<p style=""font-size: 60px; font-family: BACS"">GAcYcrdY</p>","","","","","","","","",""
"html-keyboard-response","62","236261","0.0-8.0-0.54","6074768dc48e0753011d3d72","650c16f0f2faf8d7a0d14c09","651c1d6bb14b8bb77b234bd6","null","null","<p style=""font-size: 60px; font-family: BACS"">tmYhcDR</p>","","","","","","","","",""
"html-keyboard-response","63","237261","0.0-8.0-0.55","6074768dc48e0753011d3d72","650c16f0f2faf8d7a0d14c09","651c1d6bb14b8bb77b234bd6","null","null","<p style=""font-size: 60px; font-family: BACS"">OdYPKlkD</p>","","","","","","","","",""
"html-keyboard-response","64","238266","0.0-8.0-0.56","6074768dc48e0753011d3d72","650c16f0f2faf8d7a0d14c09","651c1d6bb14b8bb77b234bd6","null","null","<p style=""font-size: 60px; font-family: BACS"">mkmJNuOAO</p>","","","","","","","","",""
"html-keyboard-response","65","239273","0.0-8.0-0.57","6074768dc48e0753011d3d72","650c16f0f2faf8d7a0d14c09","651c1d6bb14b8bb77b234bd6","null","null","<p style=""font-size: 60px; font-family: BACS"">vQdOGUa</p>","","","","","","","","",""
"html-keyboard-response","66","240277","0.0-8.0-0.58","6074768dc48e0753011d3d72","650c16f0f2faf8d7a0d14c09","651c1d6bb14b8bb77b234bd6","null","null","<p style=""font-size: 60px; font-family: BACS"">QLrOJkbu</p>","","","","","","","","",""
"html-keyboard-response","67","241284","0.0-8.0-0.59","6074768dc48e0753011d3d72","650c16f0f2faf8d7a0d14c09","651c1d6bb14b8bb77b234bd6","null","null","<p style=""font-size: 60px; font-family: BACS"">BEPOkPM</p>","","","","","","","","",""
"html-keyboard-response","68","242292","0.0-8.0-0.60","6074768dc48e0753011d3d72","650c16f0f2faf8d7a0d14c09","651c1d6bb14b8bb77b234bd6","null","null","<p style=""font-size: 60px; font-family: BACS"">OdYPEcR</p>","","","","","","","","",""
"html-keyboard-response","69","243300","0.0-8.0-0.61","6074768dc48e0753011d3d72","650c16f0f2faf8d7a0d14c09","651c1d6bb14b8bb77b234bd6","null","null","<p style=""font-size: 60px; font-family: BACS"">rLkmGUa</p>","","","","","","","","",""
"html-keyboard-response","70","244309","0.0-8.0-0.62","6074768dc48e0753011d3d72","650c16f0f2faf8d7a0d14c09","651c1d6bb14b8bb77b234bd6","null","null","<p style=""font-size: 60px; font-family: BACS"">BEPObdtK</p>","","","","","","","","",""
"html-keyboard-response","71","245312","0.0-8.0-0.63","6074768dc48e0753011d3d72","650c16f0f2faf8d7a0d14c09","651c1d6bb14b8bb77b234bd6","null","null","<p style=""font-size: 60px; font-family: BACS"">kRCkOEcR</p>","","","","","","","","",""
"html-keyboard-response","72","246321","0.0-8.0-0.64","6074768dc48e0753011d3d72","650c16f0f2faf8d7a0d14c09","651c1d6bb14b8bb77b234bd6","null","null","<p style=""font-size: 60px; font-family: BACS"">vQdOkbu</p>","","","","","","","","",""
"html-keyboard-response","73","247323","0.0-8.0-0.65","6074768dc48e0753011d3d72","650c16f0f2faf8d7a0d14c09","651c1d6bb14b8bb77b234bd6","null","null","<p style=""font-size: 60px; font-family: BACS"">YObAEcR</p>","","","","","","","","",""
"html-keyboard-response","74","248325","0.0-8.0-0.66","6074768dc48e0753011d3d72","650c16f0f2faf8d7a0d14c09","651c1d6bb14b8bb77b234bd6","null","null","<p style=""font-size: 60px; font-family: BACS"">OdYPbdtK</p>","","","","","","","","",""
"html-keyboard-response","75","249332","0.0-8.0-0.67","6074768dc48e0753011d3d72","650c16f0f2faf8d7a0d14c09","651c1d6bb14b8bb77b234bd6","null","null","<p style=""font-size: 60px; font-family: BACS"">YJLcAuOAO</p>","","","","","","","","",""
"html-keyboard-response","76","250341","0.0-8.0-0.68","6074768dc48e0753011d3d72","650c16f0f2faf8d7a0d14c09","651c1d6bb14b8bb77b234bd6","null","null","<p style=""font-size: 60px; font-family: BACS"">mkmJNkbu</p>","","","","","","","","",""
"html-keyboard-response","77","251347","0.0-8.0-0.69","6074768dc48e0753011d3d72","650c16f0f2faf8d7a0d14c09","651c1d6bb14b8bb77b234bd6","null","null","<p style=""font-size: 60px; font-family: BACS"">ZdNmUkmU</p>","","","","","","","","",""
"html-keyboard-response","78","252352","0.0-8.0-0.70","6074768dc48e0753011d3d72","650c16f0f2faf8d7a0d14c09","651c1d6bb14b8bb77b234bd6","null","null","<p style=""font-size: 60px; font-family: BACS"">DhMtKlkD</p>","","","","","","","","",""
"html-keyboard-response","79","253356","0.0-8.0-0.71","6074768dc48e0753011d3d72","650c16f0f2faf8d7a0d14c09","651c1d6bb14b8bb77b234bd6","null","null","<p style=""font-size: 60px; font-family: BACS"">vQdOcrdY</p>","","","","","","","","",""
"html-keyboard-response","80","254363","0.0-8.0-0.72","6074768dc48e0753011d3d72","650c16f0f2faf8d7a0d14c09","651c1d6bb14b8bb77b234bd6","null","null","<p style=""font-size: 60px; font-family: BACS"">ZdNmUGUa</p>","","","","","","","","",""
"html-keyboard-response","81","255367","0.0-8.0-0.73","6074768dc48e0753011d3d72","650c16f0f2faf8d7a0d14c09","651c1d6bb14b8bb77b234bd6","null","null","<p style=""font-size: 60px; font-family: BACS"">DhMtkPM</p>","","","","","","","","",""
"html-keyboard-response","82","256373","0.0-8.0-0.74","6074768dc48e0753011d3d72","650c16f0f2faf8d7a0d14c09","651c1d6bb14b8bb77b234bd6","null","null","<p style=""font-size: 60px; font-family: BACS"">rvAJkbu</p>","","","","","","","","",""
"html-keyboard-response","83","257381","0.0-8.0-0.75","6074768dc48e0753011d3d72","650c16f0f2faf8d7a0d14c09","651c1d6bb14b8bb77b234bd6","null","null","<p style=""font-size: 60px; font-family: BACS"">tmYhkPM</p>","","","","","","","","",""
"html-keyboard-response","84","258387","0.0-8.0-0.76","6074768dc48e0753011d3d72","650c16f0f2faf8d7a0d14c09","651c1d6bb14b8bb77b234bd6","null","null","<p style=""font-size: 60px; font-family: BACS"">CRdBdbdtK</p>","","","","","","","","",""
"html-keyboard-response","85","259394","0.0-8.0-0.77","6074768dc48e0753011d3d72","650c16f0f2faf8d7a0d14c09","651c1d6bb14b8bb77b234bd6","null","null","<p style=""font-size: 60px; font-family: BACS"">rvAJcrdY</p>","","","","","","","","",""
"html-keyboard-response","86","260400","0.0-8.0-0.78","6074768dc48e0753011d3d72","650c16f0f2faf8d7a0d14c09","651c1d6bb14b8bb77b234bd6","null","null","<p style=""font-size: 60px; font-family: BACS"">DhMtbdtK</p>","","","","","","","","",""
"html-keyboard-response","87","261406","0.0-8.0-0.79","6074768dc48e0753011d3d72","650c16f0f2faf8d7a0d14c09","651c1d6bb14b8bb77b234bd6","null","null","<p style=""font-size: 60px; font-family: BACS"">vJabuOAO</p>","","","","","","","","",""
"html-keyboard-response","88","287920","0.0-9.0","6074768dc48e0753011d3d72","650c16f0f2faf8d7a0d14c09","651c1d6bb14b8bb77b234bd6","26514"," ","<p>Great, you've seen the first block of words. You may now take a short break.</p>
      <p>Press the spacebar when you're ready to continue.</p>","","","","","","","","",""
"html-keyboard-response","89","288920","0.0-10.0-0.0","6074768dc48e0753011d3d72","650c16f0f2faf8d7a0d14c09","651c1d6bb14b8bb77b234bd6","null","null","<p style=""font-size: 60px; font-family: BACS"">vQdOkbu</p>","","","","","","","","",""
"html-keyboard-response","90","289928","0.0-10.0-0.1","6074768dc48e0753011d3d72","650c16f0f2faf8d7a0d14c09","651c1d6bb14b8bb77b234bd6","null","null","<p style=""font-size: 60px; font-family: BACS"">NkUAGUa</p>","","","","","","","","",""
"html-keyboard-response","91","290934","0.0-10.0-0.2","6074768dc48e0753011d3d72","650c16f0f2faf8d7a0d14c09","651c1d6bb14b8bb77b234bd6","null","null","<p style=""font-size: 60px; font-family: BACS"">KdARcDR</p>","","","","","","","","",""
"html-keyboard-response","92","291940","0.0-10.0-0.3","6074768dc48e0753011d3d72","650c16f0f2faf8d7a0d14c09","651c1d6bb14b8bb77b234bd6","null","null","<p style=""font-size: 60px; font-family: BACS"">QLrOJuOAO</p>","","","","","","","","",""
"html-keyboard-response","93","292944","0.0-10.0-0.4","6074768dc48e0753011d3d72","650c16f0f2faf8d7a0d14c09","651c1d6bb14b8bb77b234bd6","null","null","<p style=""font-size: 60px; font-family: BACS"">OdYPkPM</p>","","","","","","","","",""
"html-keyboard-response","94","293952","0.0-10.0-0.5","6074768dc48e0753011d3d72","650c16f0f2faf8d7a0d14c09","651c1d6bb14b8bb77b234bd6","null","null","<p style=""font-size: 60px; font-family: BACS"">vQdOkmU</p>","","","","","","","","",""
"html-keyboard-response","95","294960","0.0-10.0-0.6","6074768dc48e0753011d3d72","650c16f0f2faf8d7a0d14c09","651c1d6bb14b8bb77b234bd6","null","null","<p style=""font-size: 60px; font-family: BACS"">ZdNmUuOAO</p>","","","","","","","","",""
"html-keyboard-response","96","295965","0.0-10.0-0.7","6074768dc48e0753011d3d72","650c16f0f2faf8d7a0d14c09","651c1d6bb14b8bb77b234bd6","null","null","<p style=""font-size: 60px; font-family: BACS"">mkmJNGUa</p>","","","","","","","","",""
"html-keyboard-response","97","296968","0.0-10.0-0.8","6074768dc48e0753011d3d72","650c16f0f2faf8d7a0d14c09","651c1d6bb14b8bb77b234bd6","null","null","<p style=""font-size: 60px; font-family: BACS"">CRdBdEcR</p>","","","","","","","","",""
"html-keyboard-response","98","297975","0.0-10.0-0.9","6074768dc48e0753011d3d72","650c16f0f2faf8d7a0d14c09","651c1d6bb14b8bb77b234bd6","null","null","<p style=""font-size: 60px; font-family: BACS"">ZdNmUGUa</p>","","","","","","","","",""
"html-keyboard-response","99","298990","0.0-10.0-0.10","6074768dc48e0753011d3d72","650c16f0f2faf8d7a0d14c09","651c1d6bb14b8bb77b234bd6","null","null","<p style=""font-size: 60px; font-family: BACS"">KElBkPM</p>","","","","","","","","",""
"html-keyboard-response","100","300008","0.0-10.0-0.11","6074768dc48e0753011d3d72","650c16f0f2faf8d7a0d14c09","651c1d6bb14b8bb77b234bd6","null","null","<p style=""font-size: 60px; font-family: BACS"">YObAKlkD</p>","","","","","","","","",""
"html-keyboard-response","101","301014","0.0-10.0-0.12","6074768dc48e0753011d3d72","650c16f0f2faf8d7a0d14c09","651c1d6bb14b8bb77b234bd6","null","null","<p style=""font-size: 60px; font-family: BACS"">tmYhcDR</p>","","","","","","","","",""
"html-keyboard-response","102","302017","0.0-10.0-0.13","6074768dc48e0753011d3d72","650c16f0f2faf8d7a0d14c09","651c1d6bb14b8bb77b234bd6","null","null","<p style=""font-size: 60px; font-family: BACS"">BEPOkPM</p>","","","","","","","","",""
"html-keyboard-response","103","303031","0.0-10.0-0.14","6074768dc48e0753011d3d72","650c16f0f2faf8d7a0d14c09","651c1d6bb14b8bb77b234bd6","null","null","<p style=""font-size: 60px; font-family: BACS"">KdAREcR</p>","","","","","","","","",""
"html-keyboard-response","104","304038","0.0-10.0-0.15","6074768dc48e0753011d3d72","650c16f0f2faf8d7a0d14c09","651c1d6bb14b8bb77b234bd6","null","null","<p style=""font-size: 60px; font-family: BACS"">QLrOJkbu</p>","","","","","","","","",""
"html-keyboard-response","105","305044","0.0-10.0-0.16","6074768dc48e0753011d3d72","650c16f0f2faf8d7a0d14c09","651c1d6bb14b8bb77b234bd6","null","null","<p style=""font-size: 60px; font-family: BACS"">EPERdcDR</p>","","","","","","","","",""
"html-keyboard-response","106","306048","0.0-10.0-0.17","6074768dc48e0753011d3d72","650c16f0f2faf8d7a0d14c09","651c1d6bb14b8bb77b234bd6","null","null","<p style=""font-size: 60px; font-family: BACS"">GAcYcrdY</p>","","","","","","","","",""
"html-keyboard-response","107","307056","0.0-10.0-0.18","6074768dc48e0753011d3d72","650c16f0f2faf8d7a0d14c09","651c1d6bb14b8bb77b234bd6","null","null","<p style=""font-size: 60px; font-family: BACS"">YObAEcR</p>","","","","","","","","",""
"html-keyboard-response","108","308065","0.0-10.0-0.19","6074768dc48e0753011d3d72","650c16f0f2faf8d7a0d14c09","651c1d6bb14b8bb77b234bd6","null","null","<p style=""font-size: 60px; font-family: BACS"">DhMtbdtK</p>","","","","","","","","",""
"html-keyboard-response","109","309071","0.0-10.0-0.20","6074768dc48e0753011d3d72","650c16f0f2faf8d7a0d14c09","651c1d6bb14b8bb77b234bd6","null","null","<p style=""font-size: 60px; font-family: BACS"">tmYhkPM</p>","","","","","","","","",""
"html-keyboard-response","110","310086","0.0-10.0-0.21","6074768dc48e0753011d3d72","650c16f0f2faf8d7a0d14c09","651c1d6bb14b8bb77b234bd6","null","null","<p style=""font-size: 60px; font-family: BACS"">YObAcDR</p>","","","","","","","","",""
"html-keyboard-response","111","311091","0.0-10.0-0.22","6074768dc48e0753011d3d72","650c16f0f2faf8d7a0d14c09","651c1d6bb14b8bb77b234bd6","null","null","<p style=""font-size: 60px; font-family: BACS"">rLkmkmU</p>","","","","","","","","",""
"html-keyboard-response","112","312096","0.0-10.0-0.23","6074768dc48e0753011d3d72","650c16f0f2faf8d7a0d14c09","651c1d6bb14b8bb77b234bd6","null","null","<p style=""font-size: 60px; font-family: BACS"">kRCkObdtK</p>","","","","","","","","",""
"html-keyboard-response","113","313104","0.0-10.0-0.24","6074768dc48e0753011d3d72","650c16f0f2faf8d7a0d14c09","651c1d6bb14b8bb77b234bd6","null","null","<p style=""font-size: 60px; font-family: BACS"">EPERdKlkD</p>","","","","","","","","",""
"html-keyboard-response","114","314110","0.0-10.0-0.25","6074768dc48e0753011d3d72","650c16f0f2faf8d7a0d14c09","651c1d6bb14b8bb77b234bd6","null","null","<p style=""font-size: 60px; font-family: BACS"">YJLcAkbu</p>","","","","","","","","",""
"html-keyboard-response","115","315119","0.0-10.0-0.26","6074768dc48e0753011d3d72","650c16f0f2faf8d7a0d14c09","651c1d6bb14b8bb77b234bd6","null","null","<p style=""font-size: 60px; font-family: BACS"">rLkmuOAO</p>","","","","","","","","",""
"html-keyboard-response","116","316124","0.0-10.0-0.27","6074768dc48e0753011d3d72","650c16f0f2faf8d7a0d14c09","651c1d6bb14b8bb77b234bd6","null","null","<p style=""font-size: 60px; font-family: BACS"">KElBcDR</p>","","","","","","","","",""
"html-keyboard-response","117","317128","0.0-10.0-0.28","6074768dc48e0753011d3d72","650c16f0f2faf8d7a0d14c09","651c1d6bb14b8bb77b234bd6","null","null","<p style=""font-size: 60px; font-family: BACS"">vJabkmU</p>","","","","","","","","",""
"html-keyboard-response","118","318135","0.0-10.0-0.29","6074768dc48e0753011d3d72","650c16f0f2faf8d7a0d14c09","651c1d6bb14b8bb77b234bd6","null","null","<p style=""font-size: 60px; font-family: BACS"">mkmJNuOAO</p>","","","","","","","","",""
"html-keyboard-response","119","319141","0.0-10.0-0.30","6074768dc48e0753011d3d72","650c16f0f2faf8d7a0d14c09","651c1d6bb14b8bb77b234bd6","null","null","<p style=""font-size: 60px; font-family: BACS"">YObAbdtK</p>","","","","","","","","",""
"html-keyboard-response","120","320147","0.0-10.0-0.31","6074768dc48e0753011d3d72","650c16f0f2faf8d7a0d14c09","651c1d6bb14b8bb77b234bd6","null","null","<p style=""font-size: 60px; font-family: BACS"">KdARkPM</p>","","","","","","","","",""
"html-keyboard-response","121","321155","0.0-10.0-0.32","6074768dc48e0753011d3d72","650c16f0f2faf8d7a0d14c09","651c1d6bb14b8bb77b234bd6","null","null","<p style=""font-size: 60px; font-family: BACS"">YJLcAGUa</p>","","","","","","","","",""
"html-keyboard-response","122","322160","0.0-10.0-0.33","6074768dc48e0753011d3d72","650c16f0f2faf8d7a0d14c09","651c1d6bb14b8bb77b234bd6","null","null","<p style=""font-size: 60px; font-family: BACS"">DhMtKlkD</p>","","","","","","","","",""
"html-keyboard-response","123","323166","0.0-10.0-0.34","6074768dc48e0753011d3d72","650c16f0f2faf8d7a0d14c09","651c1d6bb14b8bb77b234bd6","null","null","<p style=""font-size: 60px; font-family: BACS"">vJabkbu</p>","","","","","","","","",""
"html-keyboard-response","124","324170","0.0-10.0-0.35","6074768dc48e0753011d3d72","650c16f0f2faf8d7a0d14c09","651c1d6bb14b8bb77b234bd6","null","null","<p style=""font-size: 60px; font-family: BACS"">GAcYuOAO</p>","","","","","","","","",""
"html-keyboard-response","125","325176","0.0-10.0-0.36","6074768dc48e0753011d3d72","650c16f0f2faf8d7a0d14c09","651c1d6bb14b8bb77b234bd6","null","null","<p style=""font-size: 60px; font-family: BACS"">KElBEcR</p>","","","","","","","","",""
"html-keyboard-response","126","326183","0.0-10.0-0.37","6074768dc48e0753011d3d72","650c16f0f2faf8d7a0d14c09","651c1d6bb14b8bb77b234bd6","null","null","<p style=""font-size: 60px; font-family: BACS"">DhMtkPM</p>","","","","","","","","",""
"html-keyboard-response","127","327198","0.0-10.0-0.38","6074768dc48e0753011d3d72","650c16f0f2faf8d7a0d14c09","651c1d6bb14b8bb77b234bd6","null","null","<p style=""font-size: 60px; font-family: BACS"">ZdNmUcrdY</p>","","","","","","","","",""
"html-keyboard-response","128","328202","0.0-10.0-0.39","6074768dc48e0753011d3d72","650c16f0f2faf8d7a0d14c09","651c1d6bb14b8bb77b234bd6","null","null","<p style=""font-size: 60px; font-family: BACS"">tmYhKlkD</p>","","","","","","","","",""
"html-keyboard-response","129","329209","0.0-10.0-0.40","6074768dc48e0753011d3d72","650c16f0f2faf8d7a0d14c09","651c1d6bb14b8bb77b234bd6","null","null","<p style=""font-size: 60px; font-family: BACS"">QLrOJkmU</p>","","","","","","","","",""
"html-keyboard-response","130","330216","0.0-10.0-0.41","6074768dc48e0753011d3d72","650c16f0f2faf8d7a0d14c09","651c1d6bb14b8bb77b234bd6","null","null","<p style=""font-size: 60px; font-family: BACS"">mkmJNkbu</p>","","","","","","","","",""
"html-keyboard-response","131","331220","0.0-10.0-0.42","6074768dc48e0753011d3d72","650c16f0f2faf8d7a0d14c09","651c1d6bb14b8bb77b234bd6","null","null","<p style=""font-size: 60px; font-family: BACS"">BEPOcDR</p>","","","","","","","","",""
"html-keyboard-response","132","332222","0.0-10.0-0.43","6074768dc48e0753011d3d72","650c16f0f2faf8d7a0d14c09","651c1d6bb14b8bb77b234bd6","null","null","<p style=""font-size: 60px; font-family: BACS"">NkUAcrdY</p>","","","","","","","","",""
"html-keyboard-response","133","333225","0.0-10.0-0.44","6074768dc48e0753011d3d72","650c16f0f2faf8d7a0d14c09","651c1d6bb14b8bb77b234bd6","null","null","<p style=""font-size: 60px; font-family: BACS"">QLrOJGUa</p>","","","","","","","","",""
"html-keyboard-response","134","334231","0.0-10.0-0.45","6074768dc48e0753011d3d72","650c16f0f2faf8d7a0d14c09","651c1d6bb14b8bb77b234bd6","null","null","<p style=""font-size: 60px; font-family: BACS"">rvAJcrdY</p>","","","","","","","","",""
"html-keyboard-response","135","335245","0.0-10.0-0.46","6074768dc48e0753011d3d72","650c16f0f2faf8d7a0d14c09","651c1d6bb14b8bb77b234bd6","null","null","<p style=""font-size: 60px; font-family: BACS"">OdYPKlkD</p>","","","","","","","","",""
"html-keyboard-response","136","336252","0.0-10.0-0.47","6074768dc48e0753011d3d72","650c16f0f2faf8d7a0d14c09","651c1d6bb14b8bb77b234bd6","null","null","<p style=""font-size: 60px; font-family: BACS"">rvAJGUa</p>","","","","","","","","",""
"html-keyboard-response","137","337257","0.0-10.0-0.48","6074768dc48e0753011d3d72","650c16f0f2faf8d7a0d14c09","651c1d6bb14b8bb77b234bd6","null","null","<p style=""font-size: 60px; font-family: BACS"">GAcYkbu</p>","","","","","","","","",""
"html-keyboard-response","138","338261","0.0-10.0-0.49","6074768dc48e0753011d3d72","650c16f0f2faf8d7a0d14c09","651c1d6bb14b8bb77b234bd6","null","null","<p style=""font-size: 60px; font-family: BACS"">BEPObdtK</p>","","","","","","","","",""
"html-keyboard-response","139","339266","0.0-10.0-0.50","6074768dc48e0753011d3d72","650c16f0f2faf8d7a0d14c09","651c1d6bb14b8bb77b234bd6","null","null","<p style=""font-size: 60px; font-family: BACS"">DhMtcDR</p>","","","","","","","","",""
"html-keyboard-response","140","340271","0.0-10.0-0.51","6074768dc48e0753011d3d72","650c16f0f2faf8d7a0d14c09","651c1d6bb14b8bb77b234bd6","null","null","<p style=""font-size: 60px; font-family: BACS"">vQdOcrdY</p>","","","","","","","","",""
"html-keyboard-response","141","341276","0.0-10.0-0.52","6074768dc48e0753011d3d72","650c16f0f2faf8d7a0d14c09","651c1d6bb14b8bb77b234bd6","null","null","<p style=""font-size: 60px; font-family: BACS"">OdYPEcR</p>","","","","","","","","",""
"html-keyboard-response","142","342282","0.0-10.0-0.53","6074768dc48e0753011d3d72","650c16f0f2faf8d7a0d14c09","651c1d6bb14b8bb77b234bd6","null","null","<p style=""font-size: 60px; font-family: BACS"">rvAJkbu</p>","","","","","","","","",""
"html-keyboard-response","143","343284","0.0-10.0-0.54","6074768dc48e0753011d3d72","650c16f0f2faf8d7a0d14c09","651c1d6bb14b8bb77b234bd6","null","null","<p style=""font-size: 60px; font-family: BACS"">KdARKlkD</p>","","","","","","","","",""
"html-keyboard-response","144","344288","0.0-10.0-0.55","6074768dc48e0753011d3d72","650c16f0f2faf8d7a0d14c09","651c1d6bb14b8bb77b234bd6","null","null","<p style=""font-size: 60px; font-family: BACS"">YJLcAcrdY</p>","","","","","","","","",""
"html-keyboard-response","145","345293","0.0-10.0-0.56","6074768dc48e0753011d3d72","650c16f0f2faf8d7a0d14c09","651c1d6bb14b8bb77b234bd6","null","null","<p style=""font-size: 60px; font-family: BACS"">EPERdEcR</p>","","","","","","","","",""
"html-keyboard-response","146","346301","0.0-10.0-0.57","6074768dc48e0753011d3d72","650c16f0f2faf8d7a0d14c09","651c1d6bb14b8bb77b234bd6","null","null","<p style=""font-size: 60px; font-family: BACS"">rLkmkbu</p>","","","","","","","","",""
"html-keyboard-response","147","347304","0.0-10.0-0.58","6074768dc48e0753011d3d72","650c16f0f2faf8d7a0d14c09","651c1d6bb14b8bb77b234bd6","null","null","<p style=""font-size: 60px; font-family: BACS"">kRCkOkPM</p>","","","","","","","","",""
"html-keyboard-response","148","348313","0.0-10.0-0.59","6074768dc48e0753011d3d72","650c16f0f2faf8d7a0d14c09","651c1d6bb14b8bb77b234bd6","null","null","<p style=""font-size: 60px; font-family: BACS"">BEPOEcR</p>","","","","","","","","",""
"html-keyboard-response","149","349319","0.0-10.0-0.60","6074768dc48e0753011d3d72","650c16f0f2faf8d7a0d14c09","651c1d6bb14b8bb77b234bd6","null","null","<p style=""font-size: 60px; font-family: BACS"">OdYPbdtK</p>","","","","","","","","",""
"html-keyboard-response","150","350322","0.0-10.0-0.61","6074768dc48e0753011d3d72","650c16f0f2faf8d7a0d14c09","651c1d6bb14b8bb77b234bd6","null","null","<p style=""font-size: 60px; font-family: BACS"">rLkmGUa</p>","","","","","","","","",""
"html-keyboard-response","151","351328","0.0-10.0-0.62","6074768dc48e0753011d3d72","650c16f0f2faf8d7a0d14c09","651c1d6bb14b8bb77b234bd6","null","null","<p style=""font-size: 60px; font-family: BACS"">tmYhbdtK</p>","","","","","","","","",""
"html-keyboard-response","152","352333","0.0-10.0-0.63","6074768dc48e0753011d3d72","650c16f0f2faf8d7a0d14c09","651c1d6bb14b8bb77b234bd6","null","null","<p style=""font-size: 60px; font-family: BACS"">NkUAkmU</p>","","","","","","","","",""
"html-keyboard-response","153","353340","0.0-10.0-0.64","6074768dc48e0753011d3d72","650c16f0f2faf8d7a0d14c09","651c1d6bb14b8bb77b234bd6","null","null","<p style=""font-size: 60px; font-family: BACS"">YJLcAuOAO</p>","","","","","","","","",""
"html-keyboard-response","154","354340","0.0-10.0-0.65","6074768dc48e0753011d3d72","650c16f0f2faf8d7a0d14c09","651c1d6bb14b8bb77b234bd6","null","null","<p style=""font-size: 60px; font-family: BACS"">vJabcrdY</p>","","","","","","","","",""
"html-keyboard-response","155","355348","0.0-10.0-0.66","6074768dc48e0753011d3d72","650c16f0f2faf8d7a0d14c09","651c1d6bb14b8bb77b234bd6","null","null","<p style=""font-size: 60px; font-family: BACS"">NkUAuOAO</p>","","","","","","","","",""
"html-keyboard-response","156","356357","0.0-10.0-0.67","6074768dc48e0753011d3d72","650c16f0f2faf8d7a0d14c09","651c1d6bb14b8bb77b234bd6","null","null","<p style=""font-size: 60px; font-family: BACS"">rvAJkmU</p>","","","","","","","","",""
"html-keyboard-response","157","357372","0.0-10.0-0.68","6074768dc48e0753011d3d72","650c16f0f2faf8d7a0d14c09","651c1d6bb14b8bb77b234bd6","null","null","<p style=""font-size: 60px; font-family: BACS"">mkmJNcrdY</p>","","","","","","","","",""
"html-keyboard-response","158","358378","0.0-10.0-0.69","6074768dc48e0753011d3d72","650c16f0f2faf8d7a0d14c09","651c1d6bb14b8bb77b234bd6","null","null","<p style=""font-size: 60px; font-family: BACS"">ZdNmUkmU</p>","","","","","","","","",""
"html-keyboard-response","159","359382","0.0-10.0-0.70","6074768dc48e0753011d3d72","650c16f0f2faf8d7a0d14c09","651c1d6bb14b8bb77b234bd6","null","null","<p style=""font-size: 60px; font-family: BACS"">vJabuOAO</p>","","","","","","","","",""
"html-keyboard-response","160","360388","0.0-10.0-0.71","6074768dc48e0753011d3d72","650c16f0f2faf8d7a0d14c09","651c1d6bb14b8bb77b234bd6","null","null","<p style=""font-size: 60px; font-family: BACS"">KElBbdtK</p>","","","","","","","","",""
"html-keyboard-response","161","361394","0.0-10.0-0.72","6074768dc48e0753011d3d72","650c16f0f2faf8d7a0d14c09","651c1d6bb14b8bb77b234bd6","null","null","<p style=""font-size: 60px; font-family: BACS"">kRCkOEcR</p>","","","","","","","","",""
"html-keyboard-response","162","362399","0.0-10.0-0.73","6074768dc48e0753011d3d72","650c16f0f2faf8d7a0d14c09","651c1d6bb14b8bb77b234bd6","null","null","<p style=""font-size: 60px; font-family: BACS"">CRdBdKlkD</p>","","","","","","","","",""
"html-keyboard-response","163","363405","0.0-10.0-0.74","6074768dc48e0753011d3d72","650c16f0f2faf8d7a0d14c09","651c1d6bb14b8bb77b234bd6","null","null","<p style=""font-size: 60px; font-family: BACS"">EPERdkPM</p>","","","","","","","","",""
"html-keyboard-response","164","364411","0.0-10.0-0.75","6074768dc48e0753011d3d72","650c16f0f2faf8d7a0d14c09","651c1d6bb14b8bb77b234bd6","null","null","<p style=""font-size: 60px; font-family: BACS"">GAcYkmU</p>","","","","","","","","",""
"html-keyboard-response","165","365416","0.0-10.0-0.76","6074768dc48e0753011d3d72","650c16f0f2faf8d7a0d14c09","651c1d6bb14b8bb77b234bd6","null","null","<p style=""font-size: 60px; font-family: BACS"">CRdBdbdtK</p>","","","","","","","","",""
"html-keyboard-response","166","366420","0.0-10.0-0.77","6074768dc48e0753011d3d72","650c16f0f2faf8d7a0d14c09","651c1d6bb14b8bb77b234bd6","null","null","<p style=""font-size: 60px; font-family: BACS"">vQdOGUa</p>","","","","","","","","",""
"html-keyboard-response","167","367427","0.0-10.0-0.78","6074768dc48e0753011d3d72","650c16f0f2faf8d7a0d14c09","651c1d6bb14b8bb77b234bd6","null","null","<p style=""font-size: 60px; font-family: BACS"">CRdBdcDR</p>","","","","","","","","",""
"html-keyboard-response","168","368428","0.0-10.0-0.79","6074768dc48e0753011d3d72","650c16f0f2faf8d7a0d14c09","651c1d6bb14b8bb77b234bd6","null","null","<p style=""font-size: 60px; font-family: BACS"">kRCkOKlkD</p>","","","","","","","","",""
"html-keyboard-response","169","375561","0.0-11.0","6074768dc48e0753011d3d72","650c16f0f2faf8d7a0d14c09","651c1d6bb14b8bb77b234bd6","7132"," ","<p>Great, you've seen the second block of words. You may now take a short break.</p>
      <p>Press the spacebar when you're ready to continue.</p>","","","","","","","","",""
"html-keyboard-response","170","376565","0.0-12.0-0.0","6074768dc48e0753011d3d72","650c16f0f2faf8d7a0d14c09","651c1d6bb14b8bb77b234bd6","null","null","<p style=""font-size: 60px; font-family: BACS"">YObAcDR</p>","","","","","","","","",""
"html-keyboard-response","171","377567","0.0-12.0-0.1","6074768dc48e0753011d3d72","650c16f0f2faf8d7a0d14c09","651c1d6bb14b8bb77b234bd6","null","null","<p style=""font-size: 60px; font-family: BACS"">YJLcAuOAO</p>","","","","","","","","",""
"html-keyboard-response","172","378571","0.0-12.0-0.2","6074768dc48e0753011d3d72","650c16f0f2faf8d7a0d14c09","651c1d6bb14b8bb77b234bd6","null","null","<p style=""font-size: 60px; font-family: BACS"">CRdBdcDR</p>","","","","","","","","",""
"html-keyboard-response","173","379573","0.0-12.0-0.3","6074768dc48e0753011d3d72","650c16f0f2faf8d7a0d14c09","651c1d6bb14b8bb77b234bd6","null","null","<p style=""font-size: 60px; font-family: BACS"">NkUAcrdY</p>","","","","","","","","",""
"html-keyboard-response","174","380580","0.0-12.0-0.4","6074768dc48e0753011d3d72","650c16f0f2faf8d7a0d14c09","651c1d6bb14b8bb77b234bd6","null","null","<p style=""font-size: 60px; font-family: BACS"">tmYhbdtK</p>","","","","","","","","",""
"html-keyboard-response","175","381581","0.0-12.0-0.5","6074768dc48e0753011d3d72","650c16f0f2faf8d7a0d14c09","651c1d6bb14b8bb77b234bd6","null","null","<p style=""font-size: 60px; font-family: BACS"">OdYPkPM</p>","","","","","","","","",""
"html-keyboard-response","176","382584","0.0-12.0-0.6","6074768dc48e0753011d3d72","650c16f0f2faf8d7a0d14c09","651c1d6bb14b8bb77b234bd6","null","null","<p style=""font-size: 60px; font-family: BACS"">vJabkbu</p>","","","","","","","","",""
"html-keyboard-response","177","383590","0.0-12.0-0.7","6074768dc48e0753011d3d72","650c16f0f2faf8d7a0d14c09","651c1d6bb14b8bb77b234bd6","null","null","<p style=""font-size: 60px; font-family: BACS"">EPERdEcR</p>","","","","","","","","",""
"html-keyboard-response","178","384597","0.0-12.0-0.8","6074768dc48e0753011d3d72","650c16f0f2faf8d7a0d14c09","651c1d6bb14b8bb77b234bd6","null","null","<p style=""font-size: 60px; font-family: BACS"">BEPOcDR</p>","","","","","","","","",""
"html-keyboard-response","179","385602","0.0-12.0-0.9","6074768dc48e0753011d3d72","650c16f0f2faf8d7a0d14c09","651c1d6bb14b8bb77b234bd6","null","null","<p style=""font-size: 60px; font-family: BACS"">vJabuOAO</p>","","","","","","","","",""
"html-keyboard-response","180","386608","0.0-12.0-0.10","6074768dc48e0753011d3d72","650c16f0f2faf8d7a0d14c09","651c1d6bb14b8bb77b234bd6","null","null","<p style=""font-size: 60px; font-family: BACS"">QLrOJGUa</p>","","","","","","","","",""
"html-keyboard-response","181","387619","0.0-12.0-0.11","6074768dc48e0753011d3d72","650c16f0f2faf8d7a0d14c09","651c1d6bb14b8bb77b234bd6","null","null","<p style=""font-size: 60px; font-family: BACS"">EPERdcDR</p>","","","","","","","","",""
"html-keyboard-response","182","388631","0.0-12.0-0.12","6074768dc48e0753011d3d72","650c16f0f2faf8d7a0d14c09","651c1d6bb14b8bb77b234bd6","null","null","<p style=""font-size: 60px; font-family: BACS"">mkmJNcrdY</p>","","","","","","","","",""
"html-keyboard-response","183","389637","0.0-12.0-0.13","6074768dc48e0753011d3d72","650c16f0f2faf8d7a0d14c09","651c1d6bb14b8bb77b234bd6","null","null","<p style=""font-size: 60px; font-family: BACS"">QLrOJkmU</p>","","","","","","","","",""
"html-keyboard-response","184","390642","0.0-12.0-0.14","6074768dc48e0753011d3d72","650c16f0f2faf8d7a0d14c09","651c1d6bb14b8bb77b234bd6","null","null","<p style=""font-size: 60px; font-family: BACS"">rvAJcrdY</p>","","","","","","","","",""
"html-keyboard-response","185","391647","0.0-12.0-0.15","6074768dc48e0753011d3d72","650c16f0f2faf8d7a0d14c09","651c1d6bb14b8bb77b234bd6","null","null","<p style=""font-size: 60px; font-family: BACS"">DhMtkPM</p>","","","","","","","","",""
"html-keyboard-response","186","392649","0.0-12.0-0.16","6074768dc48e0753011d3d72","650c16f0f2faf8d7a0d14c09","651c1d6bb14b8bb77b234bd6","null","null","<p style=""font-size: 60px; font-family: BACS"">KdAREcR</p>","","","","","","","","",""
"html-keyboard-response","187","393681","0.0-12.0-0.17","6074768dc48e0753011d3d72","650c16f0f2faf8d7a0d14c09","651c1d6bb14b8bb77b234bd6","null","null","<p style=""font-size: 60px; font-family: BACS"">GAcYkmU</p>","","","","","","","","",""
"html-keyboard-response","188","394683","0.0-12.0-0.18","6074768dc48e0753011d3d72","650c16f0f2faf8d7a0d14c09","651c1d6bb14b8bb77b234bd6","null","null","<p style=""font-size: 60px; font-family: BACS"">KElBEcR</p>","","","","","","","","",""
"html-keyboard-response","189","395685","0.0-12.0-0.19","6074768dc48e0753011d3d72","650c16f0f2faf8d7a0d14c09","651c1d6bb14b8bb77b234bd6","null","null","<p style=""font-size: 60px; font-family: BACS"">rLkmkmU</p>","","","","","","","","",""
"html-keyboard-response","190","396691","0.0-12.0-0.20","6074768dc48e0753011d3d72","650c16f0f2faf8d7a0d14c09","651c1d6bb14b8bb77b234bd6","null","null","<p style=""font-size: 60px; font-family: BACS"">QLrOJkbu</p>","","","","","","","","",""
"html-keyboard-response","191","397706","0.0-12.0-0.21","6074768dc48e0753011d3d72","650c16f0f2faf8d7a0d14c09","651c1d6bb14b8bb77b234bd6","null","null","<p style=""font-size: 60px; font-family: BACS"">OdYPEcR</p>","","","","","","","","",""
"html-keyboard-response","192","398708","0.0-12.0-0.22","6074768dc48e0753011d3d72","650c16f0f2faf8d7a0d14c09","651c1d6bb14b8bb77b234bd6","null","null","<p style=""font-size: 60px; font-family: BACS"">BEPObdtK</p>","","","","","","","","",""
"html-keyboard-response","193","399721","0.0-12.0-0.23","6074768dc48e0753011d3d72","650c16f0f2faf8d7a0d14c09","651c1d6bb14b8bb77b234bd6","null","null","<p style=""font-size: 60px; font-family: BACS"">tmYhKlkD</p>","","","","","","","","",""
"html-keyboard-response","194","400726","0.0-12.0-0.24","6074768dc48e0753011d3d72","650c16f0f2faf8d7a0d14c09","651c1d6bb14b8bb77b234bd6","null","null","<p style=""font-size: 60px; font-family: BACS"">KdARcDR</p>","","","","","","","","",""
"html-keyboard-response","195","401732","0.0-12.0-0.25","6074768dc48e0753011d3d72","650c16f0f2faf8d7a0d14c09","651c1d6bb14b8bb77b234bd6","null","null","<p style=""font-size: 60px; font-family: BACS"">BEPOEcR</p>","","","","","","","","",""
"html-keyboard-response","196","402735","0.0-12.0-0.26","6074768dc48e0753011d3d72","650c16f0f2faf8d7a0d14c09","651c1d6bb14b8bb77b234bd6","null","null","<p style=""font-size: 60px; font-family: BACS"">ZdNmUkmU</p>","","","","","","","","",""
"html-keyboard-response","197","403738","0.0-12.0-0.27","6074768dc48e0753011d3d72","650c16f0f2faf8d7a0d14c09","651c1d6bb14b8bb77b234bd6","null","null","<p style=""font-size: 60px; font-family: BACS"">KElBbdtK</p>","","","","","","","","",""
"html-keyboard-response","198","404744","0.0-12.0-0.28","6074768dc48e0753011d3d72","650c16f0f2faf8d7a0d14c09","651c1d6bb14b8bb77b234bd6","null","null","<p style=""font-size: 60px; font-family: BACS"">YJLcAcrdY</p>","","","","","","","","",""
"html-keyboard-response","199","405752","0.0-12.0-0.29","6074768dc48e0753011d3d72","650c16f0f2faf8d7a0d14c09","651c1d6bb14b8bb77b234bd6","null","null","<p style=""font-size: 60px; font-family: BACS"">EPERdkPM</p>","","","","","","","","",""
"html-keyboard-response","200","406756","0.0-12.0-0.30","6074768dc48e0753011d3d72","650c16f0f2faf8d7a0d14c09","651c1d6bb14b8bb77b234bd6","null","null","<p style=""font-size: 60px; font-family: BACS"">CRdBdbdtK</p>","","","","","","","","",""
"html-keyboard-response","201","407761","0.0-12.0-0.31","6074768dc48e0753011d3d72","650c16f0f2faf8d7a0d14c09","651c1d6bb14b8bb77b234bd6","null","null","<p style=""font-size: 60px; font-family: BACS"">NkUAkmU</p>","","","","","","","","",""
"html-keyboard-response","202","408761","0.0-12.0-0.32","6074768dc48e0753011d3d72","650c16f0f2faf8d7a0d14c09","651c1d6bb14b8bb77b234bd6","null","null","<p style=""font-size: 60px; font-family: BACS"">OdYPbdtK</p>","","","","","","","","",""
"html-keyboard-response","203","409767","0.0-12.0-0.33","6074768dc48e0753011d3d72","650c16f0f2faf8d7a0d14c09","651c1d6bb14b8bb77b234bd6","null","null","<p style=""font-size: 60px; font-family: BACS"">rvAJGUa</p>","","","","","","","","",""
"html-keyboard-response","204","410767","0.0-12.0-0.34","6074768dc48e0753011d3d72","650c16f0f2faf8d7a0d14c09","651c1d6bb14b8bb77b234bd6","null","null","<p style=""font-size: 60px; font-family: BACS"">vJabcrdY</p>","","","","","","","","",""
"html-keyboard-response","205","411782","0.0-12.0-0.35","6074768dc48e0753011d3d72","650c16f0f2faf8d7a0d14c09","651c1d6bb14b8bb77b234bd6","null","null","<p style=""font-size: 60px; font-family: BACS"">kRCkOKlkD</p>","","","","","","","","",""
"html-keyboard-response","206","412786","0.0-12.0-0.36","6074768dc48e0753011d3d72","650c16f0f2faf8d7a0d14c09","651c1d6bb14b8bb77b234bd6","null","null","<p style=""font-size: 60px; font-family: BACS"">DhMtcDR</p>","","","","","","","","",""
"html-keyboard-response","207","413802","0.0-12.0-0.37","6074768dc48e0753011d3d72","650c16f0f2faf8d7a0d14c09","651c1d6bb14b8bb77b234bd6","null","null","<p style=""font-size: 60px; font-family: BACS"">GAcYkbu</p>","","","","","","","","",""
"html-keyboard-response","208","414804","0.0-12.0-0.38","6074768dc48e0753011d3d72","650c16f0f2faf8d7a0d14c09","651c1d6bb14b8bb77b234bd6","null","null","<p style=""font-size: 60px; font-family: BACS"">QLrOJuOAO</p>","","","","","","","","",""
"html-keyboard-response","209","415809","0.0-12.0-0.39","6074768dc48e0753011d3d72","650c16f0f2faf8d7a0d14c09","651c1d6bb14b8bb77b234bd6","null","null","<p style=""font-size: 60px; font-family: BACS"">vQdOkbu</p>","","","","","","","","",""
"html-keyboard-response","210","416809","0.0-12.0-0.40","6074768dc48e0753011d3d72","650c16f0f2faf8d7a0d14c09","651c1d6bb14b8bb77b234bd6","null","null","<p style=""font-size: 60px; font-family: BACS"">YObAEcR</p>","","","","","","","","",""
"html-keyboard-response","211","417812","0.0-12.0-0.41","6074768dc48e0753011d3d72","650c16f0f2faf8d7a0d14c09","651c1d6bb14b8bb77b234bd6","null","null","<p style=""font-size: 60px; font-family: BACS"">mkmJNkbu</p>","","","","","","","","",""
"html-keyboard-response","212","418819","0.0-12.0-0.42","6074768dc48e0753011d3d72","650c16f0f2faf8d7a0d14c09","651c1d6bb14b8bb77b234bd6","null","null","<p style=""font-size: 60px; font-family: BACS"">DhMtbdtK</p>","","","","","","","","",""
"html-keyboard-response","213","419822","0.0-12.0-0.43","6074768dc48e0753011d3d72","650c16f0f2faf8d7a0d14c09","651c1d6bb14b8bb77b234bd6","null","null","<p style=""font-size: 60px; font-family: BACS"">NkUAGUa</p>","","","","","","","","",""
"html-keyboard-response","214","420825","0.0-12.0-0.44","6074768dc48e0753011d3d72","650c16f0f2faf8d7a0d14c09","651c1d6bb14b8bb77b234bd6","null","null","<p style=""font-size: 60px; font-family: BACS"">KdARKlkD</p>","","","","","","","","",""
"html-keyboard-response","215","421829","0.0-12.0-0.45","6074768dc48e0753011d3d72","650c16f0f2faf8d7a0d14c09","651c1d6bb14b8bb77b234bd6","null","null","<p style=""font-size: 60px; font-family: BACS"">rLkmuOAO</p>","","","","","","","","",""
"html-keyboard-response","216","422835","0.0-12.0-0.46","6074768dc48e0753011d3d72","650c16f0f2faf8d7a0d14c09","651c1d6bb14b8bb77b234bd6","null","null","<p style=""font-size: 60px; font-family: BACS"">vQdOkmU</p>","","","","","","","","",""
"html-keyboard-response","217","423841","0.0-12.0-0.47","6074768dc48e0753011d3d72","650c16f0f2faf8d7a0d14c09","651c1d6bb14b8bb77b234bd6","null","null","<p style=""font-size: 60px; font-family: BACS"">OdYPKlkD</p>","","","","","","","","",""
"html-keyboard-response","218","424847","0.0-12.0-0.48","6074768dc48e0753011d3d72","650c16f0f2faf8d7a0d14c09","651c1d6bb14b8bb77b234bd6","null","null","<p style=""font-size: 60px; font-family: BACS"">YJLcAGUa</p>","","","","","","","","",""
"html-keyboard-response","219","425851","0.0-12.0-0.49","6074768dc48e0753011d3d72","650c16f0f2faf8d7a0d14c09","651c1d6bb14b8bb77b234bd6","null","null","<p style=""font-size: 60px; font-family: BACS"">rvAJkmU</p>","","","","","","","","",""
"html-keyboard-response","220","426856","0.0-12.0-0.50","6074768dc48e0753011d3d72","650c16f0f2faf8d7a0d14c09","651c1d6bb14b8bb77b234bd6","null","null","<p style=""font-size: 60px; font-family: BACS"">vQdOGUa</p>","","","","","","","","",""
"html-keyboard-response","221","427861","0.0-12.0-0.51","6074768dc48e0753011d3d72","650c16f0f2faf8d7a0d14c09","651c1d6bb14b8bb77b234bd6","null","null","<p style=""font-size: 60px; font-family: BACS"">kRCkOEcR</p>","","","","","","","","",""
"html-keyboard-response","222","428863","0.0-12.0-0.52","6074768dc48e0753011d3d72","650c16f0f2faf8d7a0d14c09","651c1d6bb14b8bb77b234bd6","null","null","<p style=""font-size: 60px; font-family: BACS"">GAcYcrdY</p>","","","","","","","","",""
"html-keyboard-response","223","429868","0.0-12.0-0.53","6074768dc48e0753011d3d72","650c16f0f2faf8d7a0d14c09","651c1d6bb14b8bb77b234bd6","null","null","<p style=""font-size: 60px; font-family: BACS"">rLkmGUa</p>","","","","","","","","",""
"html-keyboard-response","224","430873","0.0-12.0-0.54","6074768dc48e0753011d3d72","650c16f0f2faf8d7a0d14c09","651c1d6bb14b8bb77b234bd6","null","null","<p style=""font-size: 60px; font-family: BACS"">vJabkmU</p>","","","","","","","","",""
"html-keyboard-response","225","431879","0.0-12.0-0.55","6074768dc48e0753011d3d72","650c16f0f2faf8d7a0d14c09","651c1d6bb14b8bb77b234bd6","null","null","<p style=""font-size: 60px; font-family: BACS"">CRdBdEcR</p>","","","","","","","","",""
"html-keyboard-response","226","432881","0.0-12.0-0.56","6074768dc48e0753011d3d72","650c16f0f2faf8d7a0d14c09","651c1d6bb14b8bb77b234bd6","null","null","<p style=""font-size: 60px; font-family: BACS"">EPERdKlkD</p>","","","","","","","","",""
"html-keyboard-response","227","433894","0.0-12.0-0.57","6074768dc48e0753011d3d72","650c16f0f2faf8d7a0d14c09","651c1d6bb14b8bb77b234bd6","null","null","<p style=""font-size: 60px; font-family: BACS"">ZdNmUGUa</p>","","","","","","","","",""
"html-keyboard-response","228","434898","0.0-12.0-0.58","6074768dc48e0753011d3d72","650c16f0f2faf8d7a0d14c09","651c1d6bb14b8bb77b234bd6","null","null","<p style=""font-size: 60px; font-family: BACS"">rLkmkbu</p>","","","","","","","","",""
"html-keyboard-response","229","435905","0.0-12.0-0.59","6074768dc48e0753011d3d72","650c16f0f2faf8d7a0d14c09","651c1d6bb14b8bb77b234bd6","null","null","<p style=""font-size: 60px; font-family: BACS"">BEPOkPM</p>","","","","","","","","",""
"html-keyboard-response","230","436908","0.0-12.0-0.60","6074768dc48e0753011d3d72","650c16f0f2faf8d7a0d14c09","651c1d6bb14b8bb77b234bd6","null","null","<p style=""font-size: 60px; font-family: BACS"">DhMtKlkD</p>","","","","","","","","",""
"html-keyboard-response","231","437917","0.0-12.0-0.61","6074768dc48e0753011d3d72","650c16f0f2faf8d7a0d14c09","651c1d6bb14b8bb77b234bd6","null","null","<p style=""font-size: 60px; font-family: BACS"">KElBkPM</p>","","","","","","","","",""
"html-keyboard-response","232","438921","0.0-12.0-0.62","6074768dc48e0753011d3d72","650c16f0f2faf8d7a0d14c09","651c1d6bb14b8bb77b234bd6","null","null","<p style=""font-size: 60px; font-family: BACS"">YObAbdtK</p>","","","","","","","","",""
"html-keyboard-response","233","439927","0.0-12.0-0.63","6074768dc48e0753011d3d72","650c16f0f2faf8d7a0d14c09","651c1d6bb14b8bb77b234bd6","null","null","<p style=""font-size: 60px; font-family: BACS"">kRCkOkPM</p>","","","","","","","","",""
"html-keyboard-response","234","440930","0.0-12.0-0.64","6074768dc48e0753011d3d72","650c16f0f2faf8d7a0d14c09","651c1d6bb14b8bb77b234bd6","null","null","<p style=""font-size: 60px; font-family: BACS"">NkUAuOAO</p>","","","","","","","","",""
"html-keyboard-response","235","441936","0.0-12.0-0.65","6074768dc48e0753011d3d72","650c16f0f2faf8d7a0d14c09","651c1d6bb14b8bb77b234bd6","null","null","<p style=""font-size: 60px; font-family: BACS"">YObAKlkD</p>","","","","","","","","",""
"html-keyboard-response","236","442941","0.0-12.0-0.66","6074768dc48e0753011d3d72","650c16f0f2faf8d7a0d14c09","651c1d6bb14b8bb77b234bd6","null","null","<p style=""font-size: 60px; font-family: BACS"">tmYhcDR</p>","","","","","","","","",""
"html-keyboard-response","237","443948","0.0-12.0-0.67","6074768dc48e0753011d3d72","650c16f0f2faf8d7a0d14c09","651c1d6bb14b8bb77b234bd6","null","null","<p style=""font-size: 60px; font-family: BACS"">GAcYuOAO</p>","","","","","","","","",""
"html-keyboard-response","238","444953","0.0-12.0-0.68","6074768dc48e0753011d3d72","650c16f0f2faf8d7a0d14c09","651c1d6bb14b8bb77b234bd6","null","null","<p style=""font-size: 60px; font-family: BACS"">tmYhkPM</p>","","","","","","","","",""
"html-keyboard-response","239","445956","0.0-12.0-0.69","6074768dc48e0753011d3d72","650c16f0f2faf8d7a0d14c09","651c1d6bb14b8bb77b234bd6","null","null","<p style=""font-size: 60px; font-family: BACS"">ZdNmUcrdY</p>","","","","","","","","",""
"html-keyboard-response","240","446960","0.0-12.0-0.70","6074768dc48e0753011d3d72","650c16f0f2faf8d7a0d14c09","651c1d6bb14b8bb77b234bd6","null","null","<p style=""font-size: 60px; font-family: BACS"">YJLcAkbu</p>","","","","","","","","",""
"html-keyboard-response","241","447964","0.0-12.0-0.71","6074768dc48e0753011d3d72","650c16f0f2faf8d7a0d14c09","651c1d6bb14b8bb77b234bd6","null","null","<p style=""font-size: 60px; font-family: BACS"">mkmJNuOAO</p>","","","","","","","","",""
"html-keyboard-response","242","448968","0.0-12.0-0.72","6074768dc48e0753011d3d72","650c16f0f2faf8d7a0d14c09","651c1d6bb14b8bb77b234bd6","null","null","<p style=""font-size: 60px; font-family: BACS"">CRdBdKlkD</p>","","","","","","","","",""
"html-keyboard-response","243","449973","0.0-12.0-0.73","6074768dc48e0753011d3d72","650c16f0f2faf8d7a0d14c09","651c1d6bb14b8bb77b234bd6","null","null","<p style=""font-size: 60px; font-family: BACS"">kRCkObdtK</p>","","","","","","","","",""
"html-keyboard-response","244","450977","0.0-12.0-0.74","6074768dc48e0753011d3d72","650c16f0f2faf8d7a0d14c09","651c1d6bb14b8bb77b234bd6","null","null","<p style=""font-size: 60px; font-family: BACS"">ZdNmUuOAO</p>","","","","","","","","",""
"html-keyboard-response","245","451983","0.0-12.0-0.75","6074768dc48e0753011d3d72","650c16f0f2faf8d7a0d14c09","651c1d6bb14b8bb77b234bd6","null","null","<p style=""font-size: 60px; font-family: BACS"">vQdOcrdY</p>","","","","","","","","",""
"html-keyboard-response","246","452988","0.0-12.0-0.76","6074768dc48e0753011d3d72","650c16f0f2faf8d7a0d14c09","651c1d6bb14b8bb77b234bd6","null","null","<p style=""font-size: 60px; font-family: BACS"">rvAJkbu</p>","","","","","","","","",""
"html-keyboard-response","247","453994","0.0-12.0-0.77","6074768dc48e0753011d3d72","650c16f0f2faf8d7a0d14c09","651c1d6bb14b8bb77b234bd6","null","null","<p style=""font-size: 60px; font-family: BACS"">mkmJNGUa</p>","","","","","","","","",""
"html-keyboard-response","248","455001","0.0-12.0-0.78","6074768dc48e0753011d3d72","650c16f0f2faf8d7a0d14c09","651c1d6bb14b8bb77b234bd6","null","null","<p style=""font-size: 60px; font-family: BACS"">KdARkPM</p>","","","","","","","","",""
"html-keyboard-response","249","456010","0.0-12.0-0.79","6074768dc48e0753011d3d72","650c16f0f2faf8d7a0d14c09","651c1d6bb14b8bb77b234bd6","null","null","<p style=""font-size: 60px; font-family: BACS"">KElBcDR</p>","","","","","","","","",""
"html-keyboard-response","250","468497","0.0-13.0","6074768dc48e0753011d3d72","650c16f0f2faf8d7a0d14c09","651c1d6bb14b8bb77b234bd6","12486"," ","<p>Great, you've seen the third block of words. You may now take a short break.</p>
      <p>Press the spacebar when you're ready to continue.</p>","","","","","","","","",""
"html-keyboard-response","251","469497","0.0-14.0-0.0","6074768dc48e0753011d3d72","650c16f0f2faf8d7a0d14c09","651c1d6bb14b8bb77b234bd6","null","null","<p style=""font-size: 60px; font-family: BACS"">EPERdEcR</p>","","","","","","","","",""
"html-keyboard-response","252","470500","0.0-14.0-0.1","6074768dc48e0753011d3d72","650c16f0f2faf8d7a0d14c09","651c1d6bb14b8bb77b234bd6","null","null","<p style=""font-size: 60px; font-family: BACS"">YObAcDR</p>","","","","","","","","",""
"html-keyboard-response","253","471506","0.0-14.0-0.2","6074768dc48e0753011d3d72","650c16f0f2faf8d7a0d14c09","651c1d6bb14b8bb77b234bd6","null","null","<p style=""font-size: 60px; font-family: BACS"">kRCkOkPM</p>","","","","","","","","",""
"html-keyboard-response","254","472513","0.0-14.0-0.3","6074768dc48e0753011d3d72","650c16f0f2faf8d7a0d14c09","651c1d6bb14b8bb77b234bd6","null","null","<p style=""font-size: 60px; font-family: BACS"">GAcYuOAO</p>","","","","","","","","",""
"html-keyboard-response","255","473517","0.0-14.0-0.4","6074768dc48e0753011d3d72","650c16f0f2faf8d7a0d14c09","651c1d6bb14b8bb77b234bd6","null","null","<p style=""font-size: 60px; font-family: BACS"">OdYPbdtK</p>","","","","","","","","",""
"html-keyboard-response","256","474529","0.0-14.0-0.5","6074768dc48e0753011d3d72","650c16f0f2faf8d7a0d14c09","651c1d6bb14b8bb77b234bd6","null","null","<p style=""font-size: 60px; font-family: BACS"">KdARcDR</p>","","","","","","","","",""
"html-keyboard-response","257","475537","0.0-14.0-0.6","6074768dc48e0753011d3d72","650c16f0f2faf8d7a0d14c09","651c1d6bb14b8bb77b234bd6","null","null","<p style=""font-size: 60px; font-family: BACS"">rvAJkbu</p>","","","","","","","","",""
"html-keyboard-response","258","476541","0.0-14.0-0.7","6074768dc48e0753011d3d72","650c16f0f2faf8d7a0d14c09","651c1d6bb14b8bb77b234bd6","null","null","<p style=""font-size: 60px; font-family: BACS"">BEPOkPM</p>","","","","","","","","",""
"html-keyboard-response","259","477549","0.0-14.0-0.8","6074768dc48e0753011d3d72","650c16f0f2faf8d7a0d14c09","651c1d6bb14b8bb77b234bd6","null","null","<p style=""font-size: 60px; font-family: BACS"">ZdNmUuOAO</p>","","","","","","","","",""
"html-keyboard-response","260","478553","0.0-14.0-0.9","6074768dc48e0753011d3d72","650c16f0f2faf8d7a0d14c09","651c1d6bb14b8bb77b234bd6","null","null","<p style=""font-size: 60px; font-family: BACS"">YJLcAGUa</p>","","","","","","","","",""
"html-keyboard-response","261","479559","0.0-14.0-0.10","6074768dc48e0753011d3d72","650c16f0f2faf8d7a0d14c09","651c1d6bb14b8bb77b234bd6","null","null","<p style=""font-size: 60px; font-family: BACS"">KElBEcR</p>","","","","","","","","",""
"html-keyboard-response","262","480565","0.0-14.0-0.11","6074768dc48e0753011d3d72","650c16f0f2faf8d7a0d14c09","651c1d6bb14b8bb77b234bd6","null","null","<p style=""font-size: 60px; font-family: BACS"">tmYhKlkD</p>","","","","","","","","",""
"html-keyboard-response","263","481569","0.0-14.0-0.12","6074768dc48e0753011d3d72","650c16f0f2faf8d7a0d14c09","651c1d6bb14b8bb77b234bd6","null","null","<p style=""font-size: 60px; font-family: BACS"">KdARkPM</p>","","","","","","","","",""
"html-keyboard-response","264","482575","0.0-14.0-0.13","6074768dc48e0753011d3d72","650c16f0f2faf8d7a0d14c09","651c1d6bb14b8bb77b234bd6","null","null","<p style=""font-size: 60px; font-family: BACS"">YJLcAkbu</p>","","","","","","","","",""
"html-keyboard-response","265","483580","0.0-14.0-0.14","6074768dc48e0753011d3d72","650c16f0f2faf8d7a0d14c09","651c1d6bb14b8bb77b234bd6","null","null","<p style=""font-size: 60px; font-family: BACS"">OdYPkPM</p>","","","","","","","","",""
"html-keyboard-response","266","484587","0.0-14.0-0.15","6074768dc48e0753011d3d72","650c16f0f2faf8d7a0d14c09","651c1d6bb14b8bb77b234bd6","null","null","<p style=""font-size: 60px; font-family: BACS"">NkUAkmU</p>","","","","","","","","",""
"html-keyboard-response","267","485601","0.0-14.0-0.16","6074768dc48e0753011d3d72","650c16f0f2faf8d7a0d14c09","651c1d6bb14b8bb77b234bd6","null","null","<p style=""font-size: 60px; font-family: BACS"">QLrOJuOAO</p>","","","","","","","","",""
"html-keyboard-response","268","486603","0.0-14.0-0.17","6074768dc48e0753011d3d72","650c16f0f2faf8d7a0d14c09","651c1d6bb14b8bb77b234bd6","null","null","<p style=""font-size: 60px; font-family: BACS"">mkmJNcrdY</p>","","","","","","","","",""
"html-keyboard-response","269","487606","0.0-14.0-0.18","6074768dc48e0753011d3d72","650c16f0f2faf8d7a0d14c09","651c1d6bb14b8bb77b234bd6","null","null","<p style=""font-size: 60px; font-family: BACS"">rvAJkmU</p>","","","","","","","","",""
"html-keyboard-response","270","488611","0.0-14.0-0.19","6074768dc48e0753011d3d72","650c16f0f2faf8d7a0d14c09","651c1d6bb14b8bb77b234bd6","null","null","<p style=""font-size: 60px; font-family: BACS"">kRCkOKlkD</p>","","","","","","","","",""
"html-keyboard-response","271","489619","0.0-14.0-0.20","6074768dc48e0753011d3d72","650c16f0f2faf8d7a0d14c09","651c1d6bb14b8bb77b234bd6","null","null","<p style=""font-size: 60px; font-family: BACS"">BEPOcDR</p>","","","","","","","","",""
"html-keyboard-response","272","490622","0.0-14.0-0.21","6074768dc48e0753011d3d72","650c16f0f2faf8d7a0d14c09","651c1d6bb14b8bb77b234bd6","null","null","<p style=""font-size: 60px; font-family: BACS"">rLkmkbu</p>","","","","","","","","",""
"html-keyboard-response","273","491629","0.0-14.0-0.22","6074768dc48e0753011d3d72","650c16f0f2faf8d7a0d14c09","651c1d6bb14b8bb77b234bd6","null","null","<p style=""font-size: 60px; font-family: BACS"">mkmJNGUa</p>","","","","","","","","",""
"html-keyboard-response","274","492632","0.0-14.0-0.23","6074768dc48e0753011d3d72","650c16f0f2faf8d7a0d14c09","651c1d6bb14b8bb77b234bd6","null","null","<p style=""font-size: 60px; font-family: BACS"">kRCkObdtK</p>","","","","","","","","",""
"html-keyboard-response","275","493640","0.0-14.0-0.24","6074768dc48e0753011d3d72","650c16f0f2faf8d7a0d14c09","651c1d6bb14b8bb77b234bd6","null","null","<p style=""font-size: 60px; font-family: BACS"">vQdOkbu</p>","","","","","","","","",""
"html-keyboard-response","276","494645","0.0-14.0-0.25","6074768dc48e0753011d3d72","650c16f0f2faf8d7a0d14c09","651c1d6bb14b8bb77b234bd6","null","null","<p style=""font-size: 60px; font-family: BACS"">vJabkmU</p>","","","","","","","","",""
"html-keyboard-response","277","495651","0.0-14.0-0.26","6074768dc48e0753011d3d72","650c16f0f2faf8d7a0d14c09","651c1d6bb14b8bb77b234bd6","null","null","<p style=""font-size: 60px; font-family: BACS"">YObAKlkD</p>","","","","","","","","",""
"html-keyboard-response","278","496657","0.0-14.0-0.27","6074768dc48e0753011d3d72","650c16f0f2faf8d7a0d14c09","651c1d6bb14b8bb77b234bd6","null","null","<p style=""font-size: 60px; font-family: BACS"">QLrOJGUa</p>","","","","","","","","",""
"html-keyboard-response","279","497661","0.0-14.0-0.28","6074768dc48e0753011d3d72","650c16f0f2faf8d7a0d14c09","651c1d6bb14b8bb77b234bd6","null","null","<p style=""font-size: 60px; font-family: BACS"">kRCkOEcR</p>","","","","","","","","",""
"html-keyboard-response","280","498663","0.0-14.0-0.29","6074768dc48e0753011d3d72","650c16f0f2faf8d7a0d14c09","651c1d6bb14b8bb77b234bd6","null","null","<p style=""font-size: 60px; font-family: BACS"">mkmJNuOAO</p>","","","","","","","","",""
"html-keyboard-response","281","499667","0.0-14.0-0.30","6074768dc48e0753011d3d72","650c16f0f2faf8d7a0d14c09","651c1d6bb14b8bb77b234bd6","null","null","<p style=""font-size: 60px; font-family: BACS"">EPERdcDR</p>","","","","","","","","",""
"html-keyboard-response","282","500669","0.0-14.0-0.31","6074768dc48e0753011d3d72","650c16f0f2faf8d7a0d14c09","651c1d6bb14b8bb77b234bd6","null","null","<p style=""font-size: 60px; font-family: BACS"">DhMtbdtK</p>","","","","","","","","",""
"html-keyboard-response","283","501675","0.0-14.0-0.32","6074768dc48e0753011d3d72","650c16f0f2faf8d7a0d14c09","651c1d6bb14b8bb77b234bd6","null","null","<p style=""font-size: 60px; font-family: BACS"">vJabcrdY</p>","","","","","","","","",""
"html-keyboard-response","284","502683","0.0-14.0-0.33","6074768dc48e0753011d3d72","650c16f0f2faf8d7a0d14c09","651c1d6bb14b8bb77b234bd6","null","null","<p style=""font-size: 60px; font-family: BACS"">BEPOEcR</p>","","","","","","","","",""
"html-keyboard-response","285","503687","0.0-14.0-0.34","6074768dc48e0753011d3d72","650c16f0f2faf8d7a0d14c09","651c1d6bb14b8bb77b234bd6","null","null","<p style=""font-size: 60px; font-family: BACS"">ZdNmUGUa</p>","","","","","","","","",""
"html-keyboard-response","286","504691","0.0-14.0-0.35","6074768dc48e0753011d3d72","650c16f0f2faf8d7a0d14c09","651c1d6bb14b8bb77b234bd6","null","null","<p style=""font-size: 60px; font-family: BACS"">NkUAcrdY</p>","","","","","","","","",""
"html-keyboard-response","287","505699","0.0-14.0-0.36","6074768dc48e0753011d3d72","650c16f0f2faf8d7a0d14c09","651c1d6bb14b8bb77b234bd6","null","null","<p style=""font-size: 60px; font-family: BACS"">YObAEcR</p>","","","","","","","","",""
"html-keyboard-response","288","506711","0.0-14.0-0.37","6074768dc48e0753011d3d72","650c16f0f2faf8d7a0d14c09","651c1d6bb14b8bb77b234bd6","null","null","<p style=""font-size: 60px; font-family: BACS"">QLrOJkmU</p>","","","","","","","","",""
"html-keyboard-response","289","507719","0.0-14.0-0.38","6074768dc48e0753011d3d72","650c16f0f2faf8d7a0d14c09","651c1d6bb14b8bb77b234bd6","null","null","<p style=""font-size: 60px; font-family: BACS"">rLkmuOAO</p>","","","","","","","","",""
"html-keyboard-response","290","508725","0.0-14.0-0.39","6074768dc48e0753011d3d72","650c16f0f2faf8d7a0d14c09","651c1d6bb14b8bb77b234bd6","null","null","<p style=""font-size: 60px; font-family: BACS"">BEPObdtK</p>","","","","","","","","",""
"html-keyboard-response","291","509727","0.0-14.0-0.40","6074768dc48e0753011d3d72","650c16f0f2faf8d7a0d14c09","651c1d6bb14b8bb77b234bd6","null","null","<p style=""font-size: 60px; font-family: BACS"">rLkmGUa</p>","","","","","","","","",""
"html-keyboard-response","292","510728","0.0-14.0-0.41","6074768dc48e0753011d3d72","650c16f0f2faf8d7a0d14c09","651c1d6bb14b8bb77b234bd6","null","null","<p style=""font-size: 60px; font-family: BACS"">GAcYkbu</p>","","","","","","","","",""
"html-keyboard-response","293","511737","0.0-14.0-0.42","6074768dc48e0753011d3d72","650c16f0f2faf8d7a0d14c09","651c1d6bb14b8bb77b234bd6","null","null","<p style=""font-size: 60px; font-family: BACS"">ZdNmUkmU</p>","","","","","","","","",""
"html-keyboard-response","294","512739","0.0-14.0-0.43","6074768dc48e0753011d3d72","650c16f0f2faf8d7a0d14c09","651c1d6bb14b8bb77b234bd6","null","null","<p style=""font-size: 60px; font-family: BACS"">mkmJNkbu</p>","","","","","","","","",""
"html-keyboard-response","295","513746","0.0-14.0-0.44","6074768dc48e0753011d3d72","650c16f0f2faf8d7a0d14c09","651c1d6bb14b8bb77b234bd6","null","null","<p style=""font-size: 60px; font-family: BACS"">GAcYcrdY</p>","","","","","","","","",""
"html-keyboard-response","296","514751","0.0-14.0-0.45","6074768dc48e0753011d3d72","650c16f0f2faf8d7a0d14c09","651c1d6bb14b8bb77b234bd6","null","null","<p style=""font-size: 60px; font-family: BACS"">QLrOJkbu</p>","","","","","","","","",""
"html-keyboard-response","297","515757","0.0-14.0-0.46","6074768dc48e0753011d3d72","650c16f0f2faf8d7a0d14c09","651c1d6bb14b8bb77b234bd6","null","null","<p style=""font-size: 60px; font-family: BACS"">CRdBdbdtK</p>","","","","","","","","",""
"html-keyboard-response","298","516765","0.0-14.0-0.47","6074768dc48e0753011d3d72","650c16f0f2faf8d7a0d14c09","651c1d6bb14b8bb77b234bd6","null","null","<p style=""font-size: 60px; font-family: BACS"">KdAREcR</p>","","","","","","","","",""
"html-keyboard-response","299","517770","0.0-14.0-0.48","6074768dc48e0753011d3d72","650c16f0f2faf8d7a0d14c09","651c1d6bb14b8bb77b234bd6","null","null","<p style=""font-size: 60px; font-family: BACS"">KElBcDR</p>","","","","","","","","",""
"html-keyboard-response","300","518784","0.0-14.0-0.49","6074768dc48e0753011d3d72","650c16f0f2faf8d7a0d14c09","651c1d6bb14b8bb77b234bd6","null","null","<p style=""font-size: 60px; font-family: BACS"">OdYPKlkD</p>","","","","","","","","",""
"html-keyboard-response","301","519792","0.0-14.0-0.50","6074768dc48e0753011d3d72","650c16f0f2faf8d7a0d14c09","651c1d6bb14b8bb77b234bd6","null","null","<p style=""font-size: 60px; font-family: BACS"">YJLcAuOAO</p>","","","","","","","","",""
"html-keyboard-response","302","520805","0.0-14.0-0.51","6074768dc48e0753011d3d72","650c16f0f2faf8d7a0d14c09","651c1d6bb14b8bb77b234bd6","null","null","<p style=""font-size: 60px; font-family: BACS"">CRdBdcDR</p>","","","","","","","","",""
"html-keyboard-response","303","521813","0.0-14.0-0.52","6074768dc48e0753011d3d72","650c16f0f2faf8d7a0d14c09","651c1d6bb14b8bb77b234bd6","null","null","<p style=""font-size: 60px; font-family: BACS"">vJabuOAO</p>","","","","","","","","",""
"html-keyboard-response","304","522817","0.0-14.0-0.53","6074768dc48e0753011d3d72","650c16f0f2faf8d7a0d14c09","651c1d6bb14b8bb77b234bd6","null","null","<p style=""font-size: 60px; font-family: BACS"">KElBbdtK</p>","","","","","","","","",""
"html-keyboard-response","305","523820","0.0-14.0-0.54","6074768dc48e0753011d3d72","650c16f0f2faf8d7a0d14c09","651c1d6bb14b8bb77b234bd6","null","null","<p style=""font-size: 60px; font-family: BACS"">vQdOkmU</p>","","","","","","","","",""
"html-keyboard-response","306","524849","0.0-14.0-0.55","6074768dc48e0753011d3d72","650c16f0f2faf8d7a0d14c09","651c1d6bb14b8bb77b234bd6","null","null","<p style=""font-size: 60px; font-family: BACS"">tmYhcDR</p>","","","","","","","","",""
"html-keyboard-response","307","525857","0.0-14.0-0.56","6074768dc48e0753011d3d72","650c16f0f2faf8d7a0d14c09","651c1d6bb14b8bb77b234bd6","null","null","<p style=""font-size: 60px; font-family: BACS"">ZdNmUcrdY</p>","","","","","","","","",""
"html-keyboard-response","308","526865","0.0-14.0-0.57","6074768dc48e0753011d3d72","650c16f0f2faf8d7a0d14c09","651c1d6bb14b8bb77b234bd6","null","null","<p style=""font-size: 60px; font-family: BACS"">KdARKlkD</p>","","","","","","","","",""
"html-keyboard-response","309","527869","0.0-14.0-0.58","6074768dc48e0753011d3d72","650c16f0f2faf8d7a0d14c09","651c1d6bb14b8bb77b234bd6","null","null","<p style=""font-size: 60px; font-family: BACS"">KElBkPM</p>","","","","","","","","",""
"html-keyboard-response","310","528873","0.0-14.0-0.59","6074768dc48e0753011d3d72","650c16f0f2faf8d7a0d14c09","651c1d6bb14b8bb77b234bd6","null","null","<p style=""font-size: 60px; font-family: BACS"">rLkmkmU</p>","","","","","","","","",""
"html-keyboard-response","311","529881","0.0-14.0-0.60","6074768dc48e0753011d3d72","650c16f0f2faf8d7a0d14c09","651c1d6bb14b8bb77b234bd6","null","null","<p style=""font-size: 60px; font-family: BACS"">EPERdkPM</p>","","","","","","","","",""
"html-keyboard-response","312","530881","0.0-14.0-0.61","6074768dc48e0753011d3d72","650c16f0f2faf8d7a0d14c09","651c1d6bb14b8bb77b234bd6","null","null","<p style=""font-size: 60px; font-family: BACS"">tmYhbdtK</p>","","","","","","","","",""
"html-keyboard-response","313","531894","0.0-14.0-0.62","6074768dc48e0753011d3d72","650c16f0f2faf8d7a0d14c09","651c1d6bb14b8bb77b234bd6","null","null","<p style=""font-size: 60px; font-family: BACS"">YJLcAcrdY</p>","","","","","","","","",""
"html-keyboard-response","314","532911","0.0-14.0-0.63","6074768dc48e0753011d3d72","650c16f0f2faf8d7a0d14c09","651c1d6bb14b8bb77b234bd6","null","null","<p style=""font-size: 60px; font-family: BACS"">tmYhkPM</p>","","","","","","","","",""
"html-keyboard-response","315","533930","0.0-14.0-0.64","6074768dc48e0753011d3d72","650c16f0f2faf8d7a0d14c09","651c1d6bb14b8bb77b234bd6","null","null","<p style=""font-size: 60px; font-family: BACS"">OdYPEcR</p>","","","","","","","","",""
"html-keyboard-response","316","534945","0.0-14.0-0.65","6074768dc48e0753011d3d72","650c16f0f2faf8d7a0d14c09","651c1d6bb14b8bb77b234bd6","null","null","<p style=""font-size: 60px; font-family: BACS"">rvAJGUa</p>","","","","","","","","",""
"html-keyboard-response","317","535963","0.0-14.0-0.66","6074768dc48e0753011d3d72","650c16f0f2faf8d7a0d14c09","651c1d6bb14b8bb77b234bd6","null","null","<p style=""font-size: 60px; font-family: BACS"">NkUAuOAO</p>","","","","","","","","",""
"html-keyboard-response","318","536967","0.0-14.0-0.67","6074768dc48e0753011d3d72","650c16f0f2faf8d7a0d14c09","651c1d6bb14b8bb77b234bd6","null","null","<p style=""font-size: 60px; font-family: BACS"">YObAbdtK</p>","","","","","","","","",""
"html-keyboard-response","319","537973","0.0-14.0-0.68","6074768dc48e0753011d3d72","650c16f0f2faf8d7a0d14c09","651c1d6bb14b8bb77b234bd6","null","null","<p style=""font-size: 60px; font-family: BACS"">DhMtKlkD</p>","","","","","","","","",""
"html-keyboard-response","320","538975","0.0-14.0-0.69","6074768dc48e0753011d3d72","650c16f0f2faf8d7a0d14c09","651c1d6bb14b8bb77b234bd6","null","null","<p style=""font-size: 60px; font-family: BACS"">CRdBdEcR</p>","","","","","","","","",""
"html-keyboard-response","321","539979","0.0-14.0-0.70","6074768dc48e0753011d3d72","650c16f0f2faf8d7a0d14c09","651c1d6bb14b8bb77b234bd6","null","null","<p style=""font-size: 60px; font-family: BACS"">vQdOcrdY</p>","","","","","","","","",""
"html-keyboard-response","322","540983","0.0-14.0-0.71","6074768dc48e0753011d3d72","650c16f0f2faf8d7a0d14c09","651c1d6bb14b8bb77b234bd6","null","null","<p style=""font-size: 60px; font-family: BACS"">vJabkbu</p>","","","","","","","","",""
"html-keyboard-response","323","541997","0.0-14.0-0.72","6074768dc48e0753011d3d72","650c16f0f2faf8d7a0d14c09","651c1d6bb14b8bb77b234bd6","null","null","<p style=""font-size: 60px; font-family: BACS"">DhMtcDR</p>","","","","","","","","",""
"html-keyboard-response","324","543004","0.0-14.0-0.73","6074768dc48e0753011d3d72","650c16f0f2faf8d7a0d14c09","651c1d6bb14b8bb77b234bd6","null","null","<p style=""font-size: 60px; font-family: BACS"">CRdBdKlkD</p>","","","","","","","","",""
"html-keyboard-response","325","544010","0.0-14.0-0.74","6074768dc48e0753011d3d72","650c16f0f2faf8d7a0d14c09","651c1d6bb14b8bb77b234bd6","null","null","<p style=""font-size: 60px; font-family: BACS"">vQdOGUa</p>","","","","","","","","",""
"html-keyboard-response","326","545017","0.0-14.0-0.75","6074768dc48e0753011d3d72","650c16f0f2faf8d7a0d14c09","651c1d6bb14b8bb77b234bd6","null","null","<p style=""font-size: 60px; font-family: BACS"">EPERdKlkD</p>","","","","","","","","",""
"html-keyboard-response","327","546021","0.0-14.0-0.76","6074768dc48e0753011d3d72","650c16f0f2faf8d7a0d14c09","651c1d6bb14b8bb77b234bd6","null","null","<p style=""font-size: 60px; font-family: BACS"">rvAJcrdY</p>","","","","","","","","",""
"html-keyboard-response","328","547027","0.0-14.0-0.77","6074768dc48e0753011d3d72","650c16f0f2faf8d7a0d14c09","651c1d6bb14b8bb77b234bd6","null","null","<p style=""font-size: 60px; font-family: BACS"">GAcYkmU</p>","","","","","","","","",""
"html-keyboard-response","329","548031","0.0-14.0-0.78","6074768dc48e0753011d3d72","650c16f0f2faf8d7a0d14c09","651c1d6bb14b8bb77b234bd6","null","null","<p style=""font-size: 60px; font-family: BACS"">DhMtkPM</p>","","","","","","","","",""
"html-keyboard-response","330","549033","0.0-14.0-0.79","6074768dc48e0753011d3d72","650c16f0f2faf8d7a0d14c09","651c1d6bb14b8bb77b234bd6","null","null","<p style=""font-size: 60px; font-family: BACS"">NkUAGUa</p>","","","","","","","","",""
"html-keyboard-response","331","552785","0.0-15.0","6074768dc48e0753011d3d72","650c16f0f2faf8d7a0d14c09","651c1d6bb14b8bb77b234bd6","3751"," ","<p>Great, you've seen the fourth block of words. You may now take a short break.</p>
      <p>Press the spacebar when you're ready to continue.</p>","","","","","","","","",""
"html-keyboard-response","332","553799","0.0-16.0-0.0","6074768dc48e0753011d3d72","650c16f0f2faf8d7a0d14c09","651c1d6bb14b8bb77b234bd6","null","null","<p style=""font-size: 60px; font-family: BACS"">vJabuOAO</p>","","","","","","","","",""
"html-keyboard-response","333","554799","0.0-16.0-0.1","6074768dc48e0753011d3d72","650c16f0f2faf8d7a0d14c09","651c1d6bb14b8bb77b234bd6","null","null","<p style=""font-size: 60px; font-family: BACS"">vJabuOAO</p>","","","","","","","","",""
"html-keyboard-response","334","555805","0.0-16.0-0.2","6074768dc48e0753011d3d72","650c16f0f2faf8d7a0d14c09","651c1d6bb14b8bb77b234bd6","null","null","<p style=""font-size: 60px; font-family: BACS"">vJabuOAO</p>","","","","","","","","",""
"html-keyboard-response","335","556805","0.0-16.0-0.3","6074768dc48e0753011d3d72","650c16f0f2faf8d7a0d14c09","651c1d6bb14b8bb77b234bd6","null","null","<p style=""font-size: 60px; font-family: BACS"">vJabuOAO</p>","","","","","","","","",""
"html-keyboard-response","336","557809","0.0-16.0-0.4","6074768dc48e0753011d3d72","650c16f0f2faf8d7a0d14c09","651c1d6bb14b8bb77b234bd6","null","null","<p style=""font-size: 60px; font-family: BACS"">vJabuOAO</p>","","","","","","","","",""
"html-keyboard-response","337","558813","0.0-16.0-0.5","6074768dc48e0753011d3d72","650c16f0f2faf8d7a0d14c09","651c1d6bb14b8bb77b234bd6","null","null","<p style=""font-size: 60px; font-family: BACS"">vJabuOAO</p>","","","","","","","","",""
"html-keyboard-response","338","559819","0.0-16.0-0.6","6074768dc48e0753011d3d72","650c16f0f2faf8d7a0d14c09","651c1d6bb14b8bb77b234bd6","null","null","<p style=""font-size: 60px; font-family: BACS"">vJabuOAO</p>","","","","","","","","",""
"html-keyboard-response","339","560823","0.0-16.0-0.7","6074768dc48e0753011d3d72","650c16f0f2faf8d7a0d14c09","651c1d6bb14b8bb77b234bd6","null","null","<p style=""font-size: 60px; font-family: BACS"">vJabuOAO</p>","","","","","","","","",""
"html-keyboard-response","340","561824","0.0-16.0-0.8","6074768dc48e0753011d3d72","650c16f0f2faf8d7a0d14c09","651c1d6bb14b8bb77b234bd6","null","null","<p style=""font-size: 60px; font-family: BACS"">vJabuOAO</p>","","","","","","","","",""
"html-keyboard-response","341","562824","0.0-16.0-0.9","6074768dc48e0753011d3d72","650c16f0f2faf8d7a0d14c09","651c1d6bb14b8bb77b234bd6","null","null","<p style=""font-size: 60px; font-family: BACS"">vJabuOAO</p>","","","","","","","","",""
"html-keyboard-response","342","563824","0.0-16.0-0.10","6074768dc48e0753011d3d72","650c16f0f2faf8d7a0d14c09","651c1d6bb14b8bb77b234bd6","null","null","<p style=""font-size: 60px; font-family: BACS"">vJabuOAO</p>","","","","","","","","",""
"html-keyboard-response","343","564833","0.0-16.0-0.11","6074768dc48e0753011d3d72","650c16f0f2faf8d7a0d14c09","651c1d6bb14b8bb77b234bd6","null","null","<p style=""font-size: 60px; font-family: BACS"">vJabuOAO</p>","","","","","","","","",""
"html-keyboard-response","344","565841","0.0-16.0-0.12","6074768dc48e0753011d3d72","650c16f0f2faf8d7a0d14c09","651c1d6bb14b8bb77b234bd6","null","null","<p style=""font-size: 60px; font-family: BACS"">vJabuOAO</p>","","","","","","","","",""
"html-keyboard-response","345","566847","0.0-16.0-0.13","6074768dc48e0753011d3d72","650c16f0f2faf8d7a0d14c09","651c1d6bb14b8bb77b234bd6","null","null","<p style=""font-size: 60px; font-family: BACS"">vJabuOAO</p>","","","","","","","","",""
"html-keyboard-response","346","567849","0.0-16.0-0.14","6074768dc48e0753011d3d72","650c16f0f2faf8d7a0d14c09","651c1d6bb14b8bb77b234bd6","null","null","<p style=""font-size: 60px; font-family: BACS"">vJabuOAO</p>","","","","","","","","",""
"html-keyboard-response","347","568855","0.0-16.0-0.15","6074768dc48e0753011d3d72","650c16f0f2faf8d7a0d14c09","651c1d6bb14b8bb77b234bd6","null","null","<p style=""font-size: 60px; font-family: BACS"">vJabuOAO</p>","","","","","","","","",""
"html-keyboard-response","348","569863","0.0-16.0-0.16","6074768dc48e0753011d3d72","650c16f0f2faf8d7a0d14c09","651c1d6bb14b8bb77b234bd6","null","null","<p style=""font-size: 60px; font-family: BACS"">vJabuOAO</p>","","","","","","","","",""
"html-keyboard-response","349","570864","0.0-16.0-0.17","6074768dc48e0753011d3d72","650c16f0f2faf8d7a0d14c09","651c1d6bb14b8bb77b234bd6","null","null","<p style=""font-size: 60px; font-family: BACS"">vJabuOAO</p>","","","","","","","","",""
"html-keyboard-response","350","571869","0.0-16.0-0.18","6074768dc48e0753011d3d72","650c16f0f2faf8d7a0d14c09","651c1d6bb14b8bb77b234bd6","null","null","<p style=""font-size: 60px; font-family: BACS"">vJabuOAO</p>","","","","","","","","",""
"html-keyboard-response","351","572873","0.0-16.0-0.19","6074768dc48e0753011d3d72","650c16f0f2faf8d7a0d14c09","651c1d6bb14b8bb77b234bd6","null","null","<p style=""font-size: 60px; font-family: BACS"">vJabuOAO</p>","","","","","","","","",""
"html-keyboard-response","352","573881","0.0-16.0-0.20","6074768dc48e0753011d3d72","650c16f0f2faf8d7a0d14c09","651c1d6bb14b8bb77b234bd6","null","null","<p style=""font-size: 60px; font-family: BACS"">vJabuOAO</p>","","","","","","","","",""
"html-keyboard-response","353","574885","0.0-16.0-0.21","6074768dc48e0753011d3d72","650c16f0f2faf8d7a0d14c09","651c1d6bb14b8bb77b234bd6","null","null","<p style=""font-size: 60px; font-family: BACS"">vJabuOAO</p>","","","","","","","","",""
"html-keyboard-response","354","575889","0.0-16.0-0.22","6074768dc48e0753011d3d72","650c16f0f2faf8d7a0d14c09","651c1d6bb14b8bb77b234bd6","null","null","<p style=""font-size: 60px; font-family: BACS"">vJabuOAO</p>","","","","","","","","",""
"html-keyboard-response","355","576893","0.0-16.0-0.23","6074768dc48e0753011d3d72","650c16f0f2faf8d7a0d14c09","651c1d6bb14b8bb77b234bd6","null","null","<p style=""font-size: 60px; font-family: BACS"">vJabuOAO</p>","","","","","","","","",""
"html-keyboard-response","356","577899","0.0-16.0-0.24","6074768dc48e0753011d3d72","650c16f0f2faf8d7a0d14c09","651c1d6bb14b8bb77b234bd6","null","null","<p style=""font-size: 60px; font-family: BACS"">vJabuOAO</p>","","","","","","","","",""
"html-keyboard-response","357","578905","0.0-16.0-0.25","6074768dc48e0753011d3d72","650c16f0f2faf8d7a0d14c09","651c1d6bb14b8bb77b234bd6","null","null","<p style=""font-size: 60px; font-family: BACS"">vJabuOAO</p>","","","","","","","","",""
"html-keyboard-response","358","579908","0.0-16.0-0.26","6074768dc48e0753011d3d72","650c16f0f2faf8d7a0d14c09","651c1d6bb14b8bb77b234bd6","null","null","<p style=""font-size: 60px; font-family: BACS"">vJabuOAO</p>","","","","","","","","",""
"html-keyboard-response","359","580914","0.0-16.0-0.27","6074768dc48e0753011d3d72","650c16f0f2faf8d7a0d14c09","651c1d6bb14b8bb77b234bd6","null","null","<p style=""font-size: 60px; font-family: BACS"">vJabuOAO</p>","","","","","","","","",""
"html-keyboard-response","360","581920","0.0-16.0-0.28","6074768dc48e0753011d3d72","650c16f0f2faf8d7a0d14c09","651c1d6bb14b8bb77b234bd6","null","null","<p style=""font-size: 60px; font-family: BACS"">vJabuOAO</p>","","","","","","","","",""
"html-keyboard-response","361","582928","0.0-16.0-0.29","6074768dc48e0753011d3d72","650c16f0f2faf8d7a0d14c09","651c1d6bb14b8bb77b234bd6","null","null","<p style=""font-size: 60px; font-family: BACS"">vJabuOAO</p>","","","","","","","","",""
"html-keyboard-response","362","583936","0.0-16.0-0.30","6074768dc48e0753011d3d72","650c16f0f2faf8d7a0d14c09","651c1d6bb14b8bb77b234bd6","null","null","<p style=""font-size: 60px; font-family: BACS"">vJabuOAO</p>","","","","","","","","",""
"html-keyboard-response","363","584944","0.0-16.0-0.31","6074768dc48e0753011d3d72","650c16f0f2faf8d7a0d14c09","651c1d6bb14b8bb77b234bd6","null","null","<p style=""font-size: 60px; font-family: BACS"">vJabuOAO</p>","","","","","","","","",""
"html-keyboard-response","364","585952","0.0-16.0-0.32","6074768dc48e0753011d3d72","650c16f0f2faf8d7a0d14c09","651c1d6bb14b8bb77b234bd6","null","null","<p style=""font-size: 60px; font-family: BACS"">vJabuOAO</p>","","","","","","","","",""
"html-keyboard-response","365","586960","0.0-16.0-0.33","6074768dc48e0753011d3d72","650c16f0f2faf8d7a0d14c09","651c1d6bb14b8bb77b234bd6","null","null","<p style=""font-size: 60px; font-family: BACS"">vJabuOAO</p>","","","","","","","","",""
"html-keyboard-response","366","587968","0.0-16.0-0.34","6074768dc48e0753011d3d72","650c16f0f2faf8d7a0d14c09","651c1d6bb14b8bb77b234bd6","null","null","<p style=""font-size: 60px; font-family: BACS"">vJabuOAO</p>","","","","","","","","",""
"html-keyboard-response","367","588974","0.0-16.0-0.35","6074768dc48e0753011d3d72","650c16f0f2faf8d7a0d14c09","651c1d6bb14b8bb77b234bd6","null","null","<p style=""font-size: 60px; font-family: BACS"">vJabuOAO</p>","","","","","","","","",""
"html-keyboard-response","368","589980","0.0-16.0-0.36","6074768dc48e0753011d3d72","650c16f0f2faf8d7a0d14c09","651c1d6bb14b8bb77b234bd6","null","null","<p style=""font-size: 60px; font-family: BACS"">vJabuOAO</p>","","","","","","","","",""
"html-keyboard-response","369","590988","0.0-16.0-0.37","6074768dc48e0753011d3d72","650c16f0f2faf8d7a0d14c09","651c1d6bb14b8bb77b234bd6","null","null","<p style=""font-size: 60px; font-family: BACS"">vJabuOAO</p>","","","","","","","","",""
"html-keyboard-response","370","591996","0.0-16.0-0.38","6074768dc48e0753011d3d72","650c16f0f2faf8d7a0d14c09","651c1d6bb14b8bb77b234bd6","null","null","<p style=""font-size: 60px; font-family: BACS"">vJabuOAO</p>","","","","","","","","",""
"html-keyboard-response","371","593002","0.0-16.0-0.39","6074768dc48e0753011d3d72","650c16f0f2faf8d7a0d14c09","651c1d6bb14b8bb77b234bd6","null","null","<p style=""font-size: 60px; font-family: BACS"">vJabuOAO</p>","","","","","","","","",""
"html-keyboard-response","372","594008","0.0-16.0-0.40","6074768dc48e0753011d3d72","650c16f0f2faf8d7a0d14c09","651c1d6bb14b8bb77b234bd6","null","null","<p style=""font-size: 60px; font-family: BACS"">vJabuOAO</p>","","","","","","","","",""
"html-keyboard-response","373","595012","0.0-16.0-0.41","6074768dc48e0753011d3d72","650c16f0f2faf8d7a0d14c09","651c1d6bb14b8bb77b234bd6","null","null","<p style=""font-size: 60px; font-family: BACS"">vJabuOAO</p>","","","","","","","","",""
"html-keyboard-response","374","596016","0.0-16.0-0.42","6074768dc48e0753011d3d72","650c16f0f2faf8d7a0d14c09","651c1d6bb14b8bb77b234bd6","null","null","<p style=""font-size: 60px; font-family: BACS"">vJabuOAO</p>","","","","","","","","",""
"html-keyboard-response","375","597021","0.0-16.0-0.43","6074768dc48e0753011d3d72","650c16f0f2faf8d7a0d14c09","651c1d6bb14b8bb77b234bd6","null","null","<p style=""font-size: 60px; font-family: BACS"">vJabuOAO</p>","","","","","","","","",""
"html-keyboard-response","376","598026","0.0-16.0-0.44","6074768dc48e0753011d3d72","650c16f0f2faf8d7a0d14c09","651c1d6bb14b8bb77b234bd6","null","null","<p style=""font-size: 60px; font-family: BACS"">vJabuOAO</p>","","","","","","","","",""
"html-keyboard-response","377","599032","0.0-16.0-0.45","6074768dc48e0753011d3d72","650c16f0f2faf8d7a0d14c09","651c1d6bb14b8bb77b234bd6","null","null","<p style=""font-size: 60px; font-family: BACS"">vJabuOAO</p>","","","","","","","","",""
"html-keyboard-response","378","600035","0.0-16.0-0.46","6074768dc48e0753011d3d72","650c16f0f2faf8d7a0d14c09","651c1d6bb14b8bb77b234bd6","null","null","<p style=""font-size: 60px; font-family: BACS"">vJabuOAO</p>","","","","","","","","",""
"html-keyboard-response","379","601038","0.0-16.0-0.47","6074768dc48e0753011d3d72","650c16f0f2faf8d7a0d14c09","651c1d6bb14b8bb77b234bd6","null","null","<p style=""font-size: 60px; font-family: BACS"">vJabuOAO</p>","","","","","","","","",""
"html-keyboard-response","380","602046","0.0-16.0-0.48","6074768dc48e0753011d3d72","650c16f0f2faf8d7a0d14c09","651c1d6bb14b8bb77b234bd6","null","null","<p style=""font-size: 60px; font-family: BACS"">vJabuOAO</p>","","","","","","","","",""
"html-keyboard-response","381","603059","0.0-16.0-0.49","6074768dc48e0753011d3d72","650c16f0f2faf8d7a0d14c09","651c1d6bb14b8bb77b234bd6","null","null","<p style=""font-size: 60px; font-family: BACS"">vJabuOAO</p>","","","","","","","","",""
"html-keyboard-response","382","604065","0.0-16.0-0.50","6074768dc48e0753011d3d72","650c16f0f2faf8d7a0d14c09","651c1d6bb14b8bb77b234bd6","null","null","<p style=""font-size: 60px; font-family: BACS"">vJabuOAO</p>","","","","","","","","",""
"html-keyboard-response","383","605069","0.0-16.0-0.51","6074768dc48e0753011d3d72","650c16f0f2faf8d7a0d14c09","651c1d6bb14b8bb77b234bd6","null","null","<p style=""font-size: 60px; font-family: BACS"">vJabuOAO</p>","","","","","","","","",""
"html-keyboard-response","384","606075","0.0-16.0-0.52","6074768dc48e0753011d3d72","650c16f0f2faf8d7a0d14c09","651c1d6bb14b8bb77b234bd6","null","null","<p style=""font-size: 60px; font-family: BACS"">vJabuOAO</p>","","","","","","","","",""
"html-keyboard-response","385","607081","0.0-16.0-0.53","6074768dc48e0753011d3d72","650c16f0f2faf8d7a0d14c09","651c1d6bb14b8bb77b234bd6","null","null","<p style=""font-size: 60px; font-family: BACS"">vJabuOAO</p>","","","","","","","","",""
"html-keyboard-response","386","608089","0.0-16.0-0.54","6074768dc48e0753011d3d72","650c16f0f2faf8d7a0d14c09","651c1d6bb14b8bb77b234bd6","null","null","<p style=""font-size: 60px; font-family: BACS"">vJabuOAO</p>","","","","","","","","",""
"html-keyboard-response","387","609095","0.0-16.0-0.55","6074768dc48e0753011d3d72","650c16f0f2faf8d7a0d14c09","651c1d6bb14b8bb77b234bd6","null","null","<p style=""font-size: 60px; font-family: BACS"">vJabuOAO</p>","","","","","","","","",""
"html-keyboard-response","388","610100","0.0-16.0-0.56","6074768dc48e0753011d3d72","650c16f0f2faf8d7a0d14c09","651c1d6bb14b8bb77b234bd6","null","null","<p style=""font-size: 60px; font-family: BACS"">vJabuOAO</p>","","","","","","","","",""
"html-keyboard-response","389","611104","0.0-16.0-0.57","6074768dc48e0753011d3d72","650c16f0f2faf8d7a0d14c09","651c1d6bb14b8bb77b234bd6","null","null","<p style=""font-size: 60px; font-family: BACS"">vJabuOAO</p>","","","","","","","","",""
"html-keyboard-response","390","612109","0.0-16.0-0.58","6074768dc48e0753011d3d72","650c16f0f2faf8d7a0d14c09","651c1d6bb14b8bb77b234bd6","null","null","<p style=""font-size: 60px; font-family: BACS"">vJabuOAO</p>","","","","","","","","",""
"html-keyboard-response","391","613115","0.0-16.0-0.59","6074768dc48e0753011d3d72","650c16f0f2faf8d7a0d14c09","651c1d6bb14b8bb77b234bd6","null","null","<p style=""font-size: 60px; font-family: BACS"">vJabuOAO</p>","","","","","","","","",""
"html-keyboard-response","392","614121","0.0-16.0-0.60","6074768dc48e0753011d3d72","650c16f0f2faf8d7a0d14c09","651c1d6bb14b8bb77b234bd6","null","null","<p style=""font-size: 60px; font-family: BACS"">vJabuOAO</p>","","","","","","","","",""
"html-keyboard-response","393","615128","0.0-16.0-0.61","6074768dc48e0753011d3d72","650c16f0f2faf8d7a0d14c09","651c1d6bb14b8bb77b234bd6","null","null","<p style=""font-size: 60px; font-family: BACS"">vJabuOAO</p>","","","","","","","","",""
"html-keyboard-response","394","616131","0.0-16.0-0.62","6074768dc48e0753011d3d72","650c16f0f2faf8d7a0d14c09","651c1d6bb14b8bb77b234bd6","null","null","<p style=""font-size: 60px; font-family: BACS"">vJabuOAO</p>","","","","","","","","",""
"html-keyboard-response","395","617133","0.0-16.0-0.63","6074768dc48e0753011d3d72","650c16f0f2faf8d7a0d14c09","651c1d6bb14b8bb77b234bd6","null","null","<p style=""font-size: 60px; font-family: BACS"">vJabuOAO</p>","","","","","","","","",""
"html-keyboard-response","396","618137","0.0-16.0-0.64","6074768dc48e0753011d3d72","650c16f0f2faf8d7a0d14c09","651c1d6bb14b8bb77b234bd6","null","null","<p style=""font-size: 60px; font-family: BACS"">vJabuOAO</p>","","","","","","","","",""
"html-keyboard-response","397","619143","0.0-16.0-0.65","6074768dc48e0753011d3d72","650c16f0f2faf8d7a0d14c09","651c1d6bb14b8bb77b234bd6","null","null","<p style=""font-size: 60px; font-family: BACS"">vJabuOAO</p>","","","","","","","","",""
"html-keyboard-response","398","620144","0.0-16.0-0.66","6074768dc48e0753011d3d72","650c16f0f2faf8d7a0d14c09","651c1d6bb14b8bb77b234bd6","null","null","<p style=""font-size: 60px; font-family: BACS"">vJabuOAO</p>","","","","","","","","",""
"html-keyboard-response","399","621147","0.0-16.0-0.67","6074768dc48e0753011d3d72","650c16f0f2faf8d7a0d14c09","651c1d6bb14b8bb77b234bd6","null","null","<p style=""font-size: 60px; font-family: BACS"">vJabuOAO</p>","","","","","","","","",""
"html-keyboard-response","400","622149","0.0-16.0-0.68","6074768dc48e0753011d3d72","650c16f0f2faf8d7a0d14c09","651c1d6bb14b8bb77b234bd6","null","null","<p style=""font-size: 60px; font-family: BACS"">vJabuOAO</p>","","","","","","","","",""
