"trial_type","trial_index","time_elapsed","internal_node_id","subject_id","study_id","session_id","rt","response","stimulus","success","item","task","correct_response","testing_condition","correct","target","confound","name"
"pavlovia","0","918","0.0-0.0","60a68725b2b424dc0d7ce793","650c16f0f2faf8d7a0d14c09","651c1b2ca39dacc51175e1b7","","","","","","","","","","","",""
"survey-html-form","1","9343","0.0-1.0","60a68725b2b424dc0d7ce793","650c16f0f2faf8d7a0d14c09","651c1b2ca39dacc51175e1b7","8423","{""ID"":""60a68725b2b424dc0d7ce793""}","","","","","","","","","",""
"html-keyboard-response","2","19643","0.0-2.0","60a68725b2b424dc0d7ce793","650c16f0f2faf8d7a0d14c09","651c1b2ca39dacc51175e1b7","10299"," ","<p style=""font-size: 15px;"">Before beginning, we ask that you read the consent information and confirm your agreement to participate in the experiment.</p>
      <p style=""font-size: 15px;""> We ask that you remember that this is a research project and that your participation is entirely voluntary. You can stop your participation at any time, without needing to provide any explanation. The study we're asking you to participate in aims at examining how readers process written words. You will be engaged in a session of apprximately 20 minutes, followed by a brief questionnaire. You will have the opportunity to take a few breaks during the experiment. You will be paid £4 for your participation, corresponding to a rate of £8/hour. While this experiment looks at cognitive faculties, this experiment doesn't constitute clinical proof of eventual pathologies.</p>
      <p style=""font-size: 15px;"">All of the information collected thanks to yours and others' participation will be held in a secure password-protected server, and will not be shared with anyone not authorised to view it. Your personal information will be kept with an arbitrary participant ID. Thanks to this data anonymity process, any researcher analysing the data won't be able to track the information back to a specific participant. Therefore, this process will make identifying you impossibile, even when results from the study will be published in scientific reviews, presented at congresses, or at any other public forum. More generally, the collected data will be treated in accordance with the laws on privacy and conformity to the Legislative Degree n. 196 ""Code regarding the protection of personal data"" of the 30th of June 2003 and to the European Regulation 2016/670 (General Data Protection Regulation - GDPR). The Data Protection Officer is Avv. Valentina Carollo, who can be contacted at the following email addresses: <a href=""mailto:dpo@sissa.it"">dpo@sissa.it</a> or <a href=""mailto:rpd@sissa.it"">rpd@sissa.it</a> - PEC: <a href=""mailto:protocollo@pec.sissa.it"">protocollo@pec.sissa.it</a>.</p>
      <p style=""font-size: 15px;""> Before expressing your consent to participate, we would like to remind you again that in case you need explanations on any aspect of the experimental procedure, the researcher is at your disposition (<a href=""mailto:aliebelt@sissa.it"">aliebelt@sissa.it</a>, <a href=""mailto:davide.crepaldi@sissa.it"">davide.crepaldi@sissa.it</a>).</p>
      <p style=""font-size: 15px;"">If you would like to download the informed consent form, you can do so here: <a href=""BASL-Informed_Consent.pdf"" download>informed consent form</a>.</p>
      <p style=""font-size: 15px;"">We ask that you press the spacebar to proceed to the consent section.</p>","","","","","","","","",""
"survey-html-form","3","33602","0.0-3.0","60a68725b2b424dc0d7ce793","650c16f0f2faf8d7a0d14c09","651c1b2ca39dacc51175e1b7","13949","{""consent1"":""YES"",""consent2"":""YES"",""consent3"":""YES"",""consent4"":""YES"",""consent5"":""YES"",""consent6"":""YES""}","","","","","","","","","",""
"fullscreen","4","37095","0.0-4.0","60a68725b2b424dc0d7ce793","650c16f0f2faf8d7a0d14c09","651c1b2ca39dacc51175e1b7","","","","true","","","","","","","",""
"html-keyboard-response","5","59694","0.0-5.0","60a68725b2b424dc0d7ce793","650c16f0f2faf8d7a0d14c09","651c1b2ca39dacc51175e1b7","22597"," ","<p>Welcome, and thank you very much for your time!</p>
      <p>In this experiment, you'll be a language expert who's been asked to take a look at words that Earth has received in its first communication with aliens. Your task, in this first part of the experiment, is to pay close attention to the words you'll be shown; later, world leaders will ask you questions on what you saw. The words will be shown to you quite quickly; it seems that the aliens were in a hurry :-)</p>
      <p>Press the spacebar to continue.<p>","","","","","","","","",""
"html-keyboard-response","6","59748","0.0-6.0","60a68725b2b424dc0d7ce793","650c16f0f2faf8d7a0d14c09","651c1b2ca39dacc51175e1b7","null","null","<p style=""font-size: 120px; font-family: BACS""> </p>","","","","","","","","",""
"html-keyboard-response","7","71452","0.0-7.0","60a68725b2b424dc0d7ce793","650c16f0f2faf8d7a0d14c09","651c1b2ca39dacc51175e1b7","11703"," ","<p>Here is an example of the words you'll see:</p>
      <img src='esempio.png' height='400px'>
      <p>When you're ready to begin, press the spacebar.</p></div>","","","","","","","","",""
"html-keyboard-response","8","72462","0.0-8.0-0.0","60a68725b2b424dc0d7ce793","650c16f0f2faf8d7a0d14c09","651c1b2ca39dacc51175e1b7","null","null","<p style=""font-size: 60px; font-family: BACS"">UJkGYNu</p>","","","","","","","","",""
"html-keyboard-response","9","73477","0.0-8.0-0.1","60a68725b2b424dc0d7ce793","650c16f0f2faf8d7a0d14c09","651c1b2ca39dacc51175e1b7","null","null","<p style=""font-size: 60px; font-family: BACS"">lRckAEPBT</p>","","","","","","","","",""
"html-keyboard-response","10","74486","0.0-8.0-0.2","60a68725b2b424dc0d7ce793","650c16f0f2faf8d7a0d14c09","651c1b2ca39dacc51175e1b7","null","null","<p style=""font-size: 60px; font-family: BACS"">hTDdTmc</p>","","","","","","","","",""
"html-keyboard-response","11","75499","0.0-8.0-0.3","60a68725b2b424dc0d7ce793","650c16f0f2faf8d7a0d14c09","651c1b2ca39dacc51175e1b7","null","null","<p style=""font-size: 60px; font-family: BACS"">AmaclkYL</p>","","","","","","","","",""
"html-keyboard-response","12","76511","0.0-8.0-0.4","60a68725b2b424dc0d7ce793","650c16f0f2faf8d7a0d14c09","651c1b2ca39dacc51175e1b7","null","null","<p style=""font-size: 60px; font-family: BACS"">vYLUYkZ</p>","","","","","","","","",""
"html-keyboard-response","13","77522","0.0-8.0-0.5","60a68725b2b424dc0d7ce793","650c16f0f2faf8d7a0d14c09","651c1b2ca39dacc51175e1b7","null","null","<p style=""font-size: 60px; font-family: BACS"">rdLJaJUNa</p>","","","","","","","","",""
"html-keyboard-response","14","78534","0.0-8.0-0.6","60a68725b2b424dc0d7ce793","650c16f0f2faf8d7a0d14c09","651c1b2ca39dacc51175e1b7","null","null","<p style=""font-size: 60px; font-family: BACS"">bGuOYkZ</p>","","","","","","","","",""
"html-keyboard-response","15","79548","0.0-8.0-0.7","60a68725b2b424dc0d7ce793","650c16f0f2faf8d7a0d14c09","651c1b2ca39dacc51175e1b7","null","null","<p style=""font-size: 60px; font-family: BACS"">hlbtbCEM</p>","","","","","","","","",""
"html-keyboard-response","16","80557","0.0-8.0-0.8","60a68725b2b424dc0d7ce793","650c16f0f2faf8d7a0d14c09","651c1b2ca39dacc51175e1b7","null","null","<p style=""font-size: 60px; font-family: BACS"">UJkGkYL</p>","","","","","","","","",""
"html-keyboard-response","17","81572","0.0-8.0-0.9","60a68725b2b424dc0d7ce793","650c16f0f2faf8d7a0d14c09","651c1b2ca39dacc51175e1b7","null","null","<p style=""font-size: 60px; font-family: BACS"">hlbtbTmTm</p>","","","","","","","","",""
"html-keyboard-response","18","82582","0.0-8.0-0.10","60a68725b2b424dc0d7ce793","650c16f0f2faf8d7a0d14c09","651c1b2ca39dacc51175e1b7","null","null","<p style=""font-size: 60px; font-family: BACS"">kKEdMCEM</p>","","","","","","","","",""
"html-keyboard-response","19","83597","0.0-8.0-0.11","60a68725b2b424dc0d7ce793","650c16f0f2faf8d7a0d14c09","651c1b2ca39dacc51175e1b7","null","null","<p style=""font-size: 60px; font-family: BACS"">JNkaYNu</p>","","","","","","","","",""
"html-keyboard-response","20","84610","0.0-8.0-0.12","60a68725b2b424dc0d7ce793","650c16f0f2faf8d7a0d14c09","651c1b2ca39dacc51175e1b7","null","null","<p style=""font-size: 60px; font-family: BACS"">kKEdMTmTm</p>","","","","","","","","",""
"html-keyboard-response","21","85624","0.0-8.0-0.13","60a68725b2b424dc0d7ce793","650c16f0f2faf8d7a0d14c09","651c1b2ca39dacc51175e1b7","null","null","<p style=""font-size: 60px; font-family: BACS"">JNkaJUNa</p>","","","","","","","","",""
"html-keyboard-response","22","86638","0.0-8.0-0.14","60a68725b2b424dc0d7ce793","650c16f0f2faf8d7a0d14c09","651c1b2ca39dacc51175e1b7","null","null","<p style=""font-size: 60px; font-family: BACS"">ukYZYaOk</p>","","","","","","","","",""
"html-keyboard-response","23","87639","0.0-8.0-0.15","60a68725b2b424dc0d7ce793","650c16f0f2faf8d7a0d14c09","651c1b2ca39dacc51175e1b7","null","null","<p style=""font-size: 60px; font-family: BACS"">TObCOEPBT</p>","","","","","","","","",""
"html-keyboard-response","24","88650","0.0-8.0-0.16","60a68725b2b424dc0d7ce793","650c16f0f2faf8d7a0d14c09","651c1b2ca39dacc51175e1b7","null","null","<p style=""font-size: 60px; font-family: BACS"">YuaNdYkZ</p>","","","","","","","","",""
"html-keyboard-response","25","89662","0.0-8.0-0.17","60a68725b2b424dc0d7ce793","650c16f0f2faf8d7a0d14c09","651c1b2ca39dacc51175e1b7","null","null","<p style=""font-size: 60px; font-family: BACS"">mBmlAEPBT</p>","","","","","","","","",""
"html-keyboard-response","26","90674","0.0-8.0-0.18","60a68725b2b424dc0d7ce793","650c16f0f2faf8d7a0d14c09","651c1b2ca39dacc51175e1b7","null","null","<p style=""font-size: 60px; font-family: BACS"">UJkGYaOk</p>","","","","","","","","",""
"html-keyboard-response","27","91687","0.0-8.0-0.19","60a68725b2b424dc0d7ce793","650c16f0f2faf8d7a0d14c09","651c1b2ca39dacc51175e1b7","null","null","<p style=""font-size: 60px; font-family: BACS"">bGuOJUNa</p>","","","","","","","","",""
"html-keyboard-response","28","92696","0.0-8.0-0.20","60a68725b2b424dc0d7ce793","650c16f0f2faf8d7a0d14c09","651c1b2ca39dacc51175e1b7","null","null","<p style=""font-size: 60px; font-family: BACS"">hlbtbCKOb</p>","","","","","","","","",""
"html-keyboard-response","29","93709","0.0-8.0-0.21","60a68725b2b424dc0d7ce793","650c16f0f2faf8d7a0d14c09","651c1b2ca39dacc51175e1b7","null","null","<p style=""font-size: 60px; font-family: BACS"">MhKdTmTm</p>","","","","","","","","",""
"html-keyboard-response","30","94723","0.0-8.0-0.22","60a68725b2b424dc0d7ce793","650c16f0f2faf8d7a0d14c09","651c1b2ca39dacc51175e1b7","null","null","<p style=""font-size: 60px; font-family: BACS"">mBmlATmc</p>","","","","","","","","",""
"html-keyboard-response","31","95738","0.0-8.0-0.23","60a68725b2b424dc0d7ce793","650c16f0f2faf8d7a0d14c09","651c1b2ca39dacc51175e1b7","null","null","<p style=""font-size: 60px; font-family: BACS"">TObCOCKOb</p>","","","","","","","","",""
"html-keyboard-response","32","96749","0.0-8.0-0.24","60a68725b2b424dc0d7ce793","650c16f0f2faf8d7a0d14c09","651c1b2ca39dacc51175e1b7","null","null","<p style=""font-size: 60px; font-family: BACS"">kdEdYCEM</p>","","","","","","","","",""
"html-keyboard-response","33","97758","0.0-8.0-0.25","60a68725b2b424dc0d7ce793","650c16f0f2faf8d7a0d14c09","651c1b2ca39dacc51175e1b7","null","null","<p style=""font-size: 60px; font-family: BACS"">kKEdMTmc</p>","","","","","","","","",""
"html-keyboard-response","34","98773","0.0-8.0-0.26","60a68725b2b424dc0d7ce793","650c16f0f2faf8d7a0d14c09","651c1b2ca39dacc51175e1b7","null","null","<p style=""font-size: 60px; font-family: BACS"">rdLJaYNu</p>","","","","","","","","",""
"html-keyboard-response","35","99789","0.0-8.0-0.27","60a68725b2b424dc0d7ce793","650c16f0f2faf8d7a0d14c09","651c1b2ca39dacc51175e1b7","null","null","<p style=""font-size: 60px; font-family: BACS"">bGuOkYL</p>","","","","","","","","",""
"html-keyboard-response","36","100800","0.0-8.0-0.28","60a68725b2b424dc0d7ce793","650c16f0f2faf8d7a0d14c09","651c1b2ca39dacc51175e1b7","null","null","<p style=""font-size: 60px; font-family: BACS"">AmaclYNu</p>","","","","","","","","",""
"html-keyboard-response","37","101815","0.0-8.0-0.29","60a68725b2b424dc0d7ce793","650c16f0f2faf8d7a0d14c09","651c1b2ca39dacc51175e1b7","null","null","<p style=""font-size: 60px; font-family: BACS"">rdLJaYkZ</p>","","","","","","","","",""
"html-keyboard-response","38","102825","0.0-8.0-0.30","60a68725b2b424dc0d7ce793","650c16f0f2faf8d7a0d14c09","651c1b2ca39dacc51175e1b7","null","null","<p style=""font-size: 60px; font-family: BACS"">MhKdEPBT</p>","","","","","","","","",""
"html-keyboard-response","39","103831","0.0-8.0-0.31","60a68725b2b424dc0d7ce793","650c16f0f2faf8d7a0d14c09","651c1b2ca39dacc51175e1b7","null","null","<p style=""font-size: 60px; font-family: BACS"">vYLUYaOk</p>","","","","","","","","",""
"html-keyboard-response","40","104842","0.0-8.0-0.32","60a68725b2b424dc0d7ce793","650c16f0f2faf8d7a0d14c09","651c1b2ca39dacc51175e1b7","null","null","<p style=""font-size: 60px; font-family: BACS"">YuaNdkYL</p>","","","","","","","","",""
"html-keyboard-response","41","105853","0.0-8.0-0.33","60a68725b2b424dc0d7ce793","650c16f0f2faf8d7a0d14c09","651c1b2ca39dacc51175e1b7","null","null","<p style=""font-size: 60px; font-family: BACS"">mBmlACEM</p>","","","","","","","","",""
"html-keyboard-response","42","106865","0.0-8.0-0.34","60a68725b2b424dc0d7ce793","650c16f0f2faf8d7a0d14c09","651c1b2ca39dacc51175e1b7","null","null","<p style=""font-size: 60px; font-family: BACS"">lRckACKOb</p>","","","","","","","","",""
"html-keyboard-response","43","107876","0.0-8.0-0.35","60a68725b2b424dc0d7ce793","650c16f0f2faf8d7a0d14c09","651c1b2ca39dacc51175e1b7","null","null","<p style=""font-size: 60px; font-family: BACS"">cdKBYEPBT</p>","","","","","","","","",""
"html-keyboard-response","44","108885","0.0-8.0-0.36","60a68725b2b424dc0d7ce793","650c16f0f2faf8d7a0d14c09","651c1b2ca39dacc51175e1b7","null","null","<p style=""font-size: 60px; font-family: BACS"">bRABtTmTm</p>","","","","","","","","",""
"html-keyboard-response","45","109899","0.0-8.0-0.37","60a68725b2b424dc0d7ce793","650c16f0f2faf8d7a0d14c09","651c1b2ca39dacc51175e1b7","null","null","<p style=""font-size: 60px; font-family: BACS"">YuaNdYaOk</p>","","","","","","","","",""
"html-keyboard-response","46","110913","0.0-8.0-0.38","60a68725b2b424dc0d7ce793","650c16f0f2faf8d7a0d14c09","651c1b2ca39dacc51175e1b7","null","null","<p style=""font-size: 60px; font-family: BACS"">bRABtCKOb</p>","","","","","","","","",""
"html-keyboard-response","47","111928","0.0-8.0-0.39","60a68725b2b424dc0d7ce793","650c16f0f2faf8d7a0d14c09","651c1b2ca39dacc51175e1b7","null","null","<p style=""font-size: 60px; font-family: BACS"">hlbtbEPBT</p>","","","","","","","","",""
"html-keyboard-response","48","112938","0.0-8.0-0.40","60a68725b2b424dc0d7ce793","650c16f0f2faf8d7a0d14c09","651c1b2ca39dacc51175e1b7","null","null","<p style=""font-size: 60px; font-family: BACS"">hTDdTmTm</p>","","","","","","","","",""
"html-keyboard-response","49","113942","0.0-8.0-0.41","60a68725b2b424dc0d7ce793","650c16f0f2faf8d7a0d14c09","651c1b2ca39dacc51175e1b7","null","null","<p style=""font-size: 60px; font-family: BACS"">krGuYkZ</p>","","","","","","","","",""
"html-keyboard-response","50","114951","0.0-8.0-0.42","60a68725b2b424dc0d7ce793","650c16f0f2faf8d7a0d14c09","651c1b2ca39dacc51175e1b7","null","null","<p style=""font-size: 60px; font-family: BACS"">UJmrJUNa</p>","","","","","","","","",""
"html-keyboard-response","51","115966","0.0-8.0-0.43","60a68725b2b424dc0d7ce793","650c16f0f2faf8d7a0d14c09","651c1b2ca39dacc51175e1b7","null","null","<p style=""font-size: 60px; font-family: BACS"">bRABtEPBT</p>","","","","","","","","",""
"html-keyboard-response","52","116978","0.0-8.0-0.44","60a68725b2b424dc0d7ce793","650c16f0f2faf8d7a0d14c09","651c1b2ca39dacc51175e1b7","null","null","<p style=""font-size: 60px; font-family: BACS"">cdKBYTmc</p>","","","","","","","","",""
"html-keyboard-response","53","117993","0.0-8.0-0.45","60a68725b2b424dc0d7ce793","650c16f0f2faf8d7a0d14c09","651c1b2ca39dacc51175e1b7","null","null","<p style=""font-size: 60px; font-family: BACS"">ukYZJUNa</p>","","","","","","","","",""
"html-keyboard-response","54","119008","0.0-8.0-0.46","60a68725b2b424dc0d7ce793","650c16f0f2faf8d7a0d14c09","651c1b2ca39dacc51175e1b7","null","null","<p style=""font-size: 60px; font-family: BACS"">kdEdYTmTm</p>","","","","","","","","",""
"html-keyboard-response","55","120022","0.0-8.0-0.47","60a68725b2b424dc0d7ce793","650c16f0f2faf8d7a0d14c09","651c1b2ca39dacc51175e1b7","null","null","<p style=""font-size: 60px; font-family: BACS"">JNkaYaOk</p>","","","","","","","","",""
"html-keyboard-response","56","121035","0.0-8.0-0.48","60a68725b2b424dc0d7ce793","650c16f0f2faf8d7a0d14c09","651c1b2ca39dacc51175e1b7","null","null","<p style=""font-size: 60px; font-family: BACS"">krGuJUNa</p>","","","","","","","","",""
"html-keyboard-response","57","122051","0.0-8.0-0.49","60a68725b2b424dc0d7ce793","650c16f0f2faf8d7a0d14c09","651c1b2ca39dacc51175e1b7","null","null","<p style=""font-size: 60px; font-family: BACS"">MhKdCEM</p>","","","","","","","","",""
"html-keyboard-response","58","123061","0.0-8.0-0.50","60a68725b2b424dc0d7ce793","650c16f0f2faf8d7a0d14c09","651c1b2ca39dacc51175e1b7","null","null","<p style=""font-size: 60px; font-family: BACS"">UJmrYaOk</p>","","","","","","","","",""
"html-keyboard-response","59","124072","0.0-8.0-0.51","60a68725b2b424dc0d7ce793","650c16f0f2faf8d7a0d14c09","651c1b2ca39dacc51175e1b7","null","null","<p style=""font-size: 60px; font-family: BACS"">kKEdMCKOb</p>","","","","","","","","",""
"html-keyboard-response","60","125073","0.0-8.0-0.52","60a68725b2b424dc0d7ce793","650c16f0f2faf8d7a0d14c09","651c1b2ca39dacc51175e1b7","null","null","<p style=""font-size: 60px; font-family: BACS"">TObCOTmc</p>","","","","","","","","",""
"html-keyboard-response","61","126078","0.0-8.0-0.53","60a68725b2b424dc0d7ce793","650c16f0f2faf8d7a0d14c09","651c1b2ca39dacc51175e1b7","null","null","<p style=""font-size: 60px; font-family: BACS"">krGuYaOk</p>","","","","","","","","",""
"html-keyboard-response","62","127094","0.0-8.0-0.54","60a68725b2b424dc0d7ce793","650c16f0f2faf8d7a0d14c09","651c1b2ca39dacc51175e1b7","null","null","<p style=""font-size: 60px; font-family: BACS"">YuaNdYNu</p>","","","","","","","","",""
"html-keyboard-response","63","128108","0.0-8.0-0.55","60a68725b2b424dc0d7ce793","650c16f0f2faf8d7a0d14c09","651c1b2ca39dacc51175e1b7","null","null","<p style=""font-size: 60px; font-family: BACS"">lRckATmc</p>","","","","","","","","",""
"html-keyboard-response","64","129119","0.0-8.0-0.56","60a68725b2b424dc0d7ce793","650c16f0f2faf8d7a0d14c09","651c1b2ca39dacc51175e1b7","null","null","<p style=""font-size: 60px; font-family: BACS"">UJmrkYL</p>","","","","","","","","",""
"html-keyboard-response","65","130135","0.0-8.0-0.57","60a68725b2b424dc0d7ce793","650c16f0f2faf8d7a0d14c09","651c1b2ca39dacc51175e1b7","null","null","<p style=""font-size: 60px; font-family: BACS"">kdEdYTmc</p>","","","","","","","","",""
"html-keyboard-response","66","131138","0.0-8.0-0.58","60a68725b2b424dc0d7ce793","650c16f0f2faf8d7a0d14c09","651c1b2ca39dacc51175e1b7","null","null","<p style=""font-size: 60px; font-family: BACS"">mBmlATmTm</p>","","","","","","","","",""
"html-keyboard-response","67","132146","0.0-8.0-0.59","60a68725b2b424dc0d7ce793","650c16f0f2faf8d7a0d14c09","651c1b2ca39dacc51175e1b7","null","null","<p style=""font-size: 60px; font-family: BACS"">cdKBYCEM</p>","","","","","","","","",""
"html-keyboard-response","68","133159","0.0-8.0-0.60","60a68725b2b424dc0d7ce793","650c16f0f2faf8d7a0d14c09","651c1b2ca39dacc51175e1b7","null","null","<p style=""font-size: 60px; font-family: BACS"">ukYZYNu</p>","","","","","","","","",""
"html-keyboard-response","69","134173","0.0-8.0-0.61","60a68725b2b424dc0d7ce793","650c16f0f2faf8d7a0d14c09","651c1b2ca39dacc51175e1b7","null","null","<p style=""font-size: 60px; font-family: BACS"">rdLJakYL</p>","","","","","","","","",""
"html-keyboard-response","70","135184","0.0-8.0-0.62","60a68725b2b424dc0d7ce793","650c16f0f2faf8d7a0d14c09","651c1b2ca39dacc51175e1b7","null","null","<p style=""font-size: 60px; font-family: BACS"">cdKBYCKOb</p>","","","","","","","","",""
"html-keyboard-response","71","136197","0.0-8.0-0.63","60a68725b2b424dc0d7ce793","650c16f0f2faf8d7a0d14c09","651c1b2ca39dacc51175e1b7","null","null","<p style=""font-size: 60px; font-family: BACS"">hTDdEPBT</p>","","","","","","","","",""
"html-keyboard-response","72","137211","0.0-8.0-0.64","60a68725b2b424dc0d7ce793","650c16f0f2faf8d7a0d14c09","651c1b2ca39dacc51175e1b7","null","null","<p style=""font-size: 60px; font-family: BACS"">bRABtTmc</p>","","","","","","","","",""
"html-keyboard-response","73","138223","0.0-8.0-0.65","60a68725b2b424dc0d7ce793","650c16f0f2faf8d7a0d14c09","651c1b2ca39dacc51175e1b7","null","null","<p style=""font-size: 60px; font-family: BACS"">MhKdCKOb</p>","","","","","","","","",""
"html-keyboard-response","74","139230","0.0-8.0-0.66","60a68725b2b424dc0d7ce793","650c16f0f2faf8d7a0d14c09","651c1b2ca39dacc51175e1b7","null","null","<p style=""font-size: 60px; font-family: BACS"">JNkaYkZ</p>","","","","","","","","",""
"html-keyboard-response","75","140239","0.0-8.0-0.67","60a68725b2b424dc0d7ce793","650c16f0f2faf8d7a0d14c09","651c1b2ca39dacc51175e1b7","null","null","<p style=""font-size: 60px; font-family: BACS"">lRckACEM</p>","","","","","","","","",""
"html-keyboard-response","76","141252","0.0-8.0-0.68","60a68725b2b424dc0d7ce793","650c16f0f2faf8d7a0d14c09","651c1b2ca39dacc51175e1b7","null","null","<p style=""font-size: 60px; font-family: BACS"">UJkGYkZ</p>","","","","","","","","",""
"html-keyboard-response","77","142262","0.0-8.0-0.69","60a68725b2b424dc0d7ce793","650c16f0f2faf8d7a0d14c09","651c1b2ca39dacc51175e1b7","null","null","<p style=""font-size: 60px; font-family: BACS"">vYLUkYL</p>","","","","","","","","",""
"html-keyboard-response","78","143274","0.0-8.0-0.70","60a68725b2b424dc0d7ce793","650c16f0f2faf8d7a0d14c09","651c1b2ca39dacc51175e1b7","null","null","<p style=""font-size: 60px; font-family: BACS"">UJmrYNu</p>","","","","","","","","",""
"html-keyboard-response","79","144285","0.0-8.0-0.71","60a68725b2b424dc0d7ce793","650c16f0f2faf8d7a0d14c09","651c1b2ca39dacc51175e1b7","null","null","<p style=""font-size: 60px; font-family: BACS"">AmaclJUNa</p>","","","","","","","","",""
"html-keyboard-response","80","145300","0.0-8.0-0.72","60a68725b2b424dc0d7ce793","650c16f0f2faf8d7a0d14c09","651c1b2ca39dacc51175e1b7","null","null","<p style=""font-size: 60px; font-family: BACS"">TObCOTmTm</p>","","","","","","","","",""
"html-keyboard-response","81","146310","0.0-8.0-0.73","60a68725b2b424dc0d7ce793","650c16f0f2faf8d7a0d14c09","651c1b2ca39dacc51175e1b7","null","null","<p style=""font-size: 60px; font-family: BACS"">AmaclYkZ</p>","","","","","","","","",""
"html-keyboard-response","82","147322","0.0-8.0-0.74","60a68725b2b424dc0d7ce793","650c16f0f2faf8d7a0d14c09","651c1b2ca39dacc51175e1b7","null","null","<p style=""font-size: 60px; font-family: BACS"">hTDdCEM</p>","","","","","","","","",""
"html-keyboard-response","83","148337","0.0-8.0-0.75","60a68725b2b424dc0d7ce793","650c16f0f2faf8d7a0d14c09","651c1b2ca39dacc51175e1b7","null","null","<p style=""font-size: 60px; font-family: BACS"">bGuOYaOk</p>","","","","","","","","",""
"html-keyboard-response","84","149349","0.0-8.0-0.76","60a68725b2b424dc0d7ce793","650c16f0f2faf8d7a0d14c09","651c1b2ca39dacc51175e1b7","null","null","<p style=""font-size: 60px; font-family: BACS"">vYLUJUNa</p>","","","","","","","","",""
"html-keyboard-response","85","150359","0.0-8.0-0.77","60a68725b2b424dc0d7ce793","650c16f0f2faf8d7a0d14c09","651c1b2ca39dacc51175e1b7","null","null","<p style=""font-size: 60px; font-family: BACS"">krGuYNu</p>","","","","","","","","",""
"html-keyboard-response","86","151369","0.0-8.0-0.78","60a68725b2b424dc0d7ce793","650c16f0f2faf8d7a0d14c09","651c1b2ca39dacc51175e1b7","null","null","<p style=""font-size: 60px; font-family: BACS"">kdEdYCKOb</p>","","","","","","","","",""
"html-keyboard-response","87","152379","0.0-8.0-0.79","60a68725b2b424dc0d7ce793","650c16f0f2faf8d7a0d14c09","651c1b2ca39dacc51175e1b7","null","null","<p style=""font-size: 60px; font-family: BACS"">ukYZkYL</p>","","","","","","","","",""
"html-keyboard-response","88","164184","0.0-9.0","60a68725b2b424dc0d7ce793","650c16f0f2faf8d7a0d14c09","651c1b2ca39dacc51175e1b7","11803"," ","<p>Great, you've seen the first block of words. You may now take a short break.</p>
      <p>Press the spacebar when you're ready to continue.</p>","","","","","","","","",""
"html-keyboard-response","89","165197","0.0-10.0-0.0","60a68725b2b424dc0d7ce793","650c16f0f2faf8d7a0d14c09","651c1b2ca39dacc51175e1b7","null","null","<p style=""font-size: 60px; font-family: BACS"">krGuYaOk</p>","","","","","","","","",""
"html-keyboard-response","90","166212","0.0-10.0-0.1","60a68725b2b424dc0d7ce793","650c16f0f2faf8d7a0d14c09","651c1b2ca39dacc51175e1b7","null","null","<p style=""font-size: 60px; font-family: BACS"">mBmlACEM</p>","","","","","","","","",""
"html-keyboard-response","91","167225","0.0-10.0-0.2","60a68725b2b424dc0d7ce793","650c16f0f2faf8d7a0d14c09","651c1b2ca39dacc51175e1b7","null","null","<p style=""font-size: 60px; font-family: BACS"">kdEdYTmc</p>","","","","","","","","",""
"html-keyboard-response","92","168226","0.0-10.0-0.3","60a68725b2b424dc0d7ce793","650c16f0f2faf8d7a0d14c09","651c1b2ca39dacc51175e1b7","null","null","<p style=""font-size: 60px; font-family: BACS"">vYLUkYL</p>","","","","","","","","",""
"html-keyboard-response","93","169228","0.0-10.0-0.4","60a68725b2b424dc0d7ce793","650c16f0f2faf8d7a0d14c09","651c1b2ca39dacc51175e1b7","null","null","<p style=""font-size: 60px; font-family: BACS"">bGuOYkZ</p>","","","","","","","","",""
"html-keyboard-response","94","170242","0.0-10.0-0.5","60a68725b2b424dc0d7ce793","650c16f0f2faf8d7a0d14c09","651c1b2ca39dacc51175e1b7","null","null","<p style=""font-size: 60px; font-family: BACS"">cdKBYCEM</p>","","","","","","","","",""
"html-keyboard-response","95","171253","0.0-10.0-0.6","60a68725b2b424dc0d7ce793","650c16f0f2faf8d7a0d14c09","651c1b2ca39dacc51175e1b7","null","null","<p style=""font-size: 60px; font-family: BACS"">UJkGYkZ</p>","","","","","","","","",""
"html-keyboard-response","96","172266","0.0-10.0-0.7","60a68725b2b424dc0d7ce793","650c16f0f2faf8d7a0d14c09","651c1b2ca39dacc51175e1b7","null","null","<p style=""font-size: 60px; font-family: BACS"">hTDdCEM</p>","","","","","","","","",""
"html-keyboard-response","97","173279","0.0-10.0-0.8","60a68725b2b424dc0d7ce793","650c16f0f2faf8d7a0d14c09","651c1b2ca39dacc51175e1b7","null","null","<p style=""font-size: 60px; font-family: BACS"">kKEdMCKOb</p>","","","","","","","","",""
"html-keyboard-response","98","174295","0.0-10.0-0.9","60a68725b2b424dc0d7ce793","650c16f0f2faf8d7a0d14c09","651c1b2ca39dacc51175e1b7","null","null","<p style=""font-size: 60px; font-family: BACS"">lRckACEM</p>","","","","","","","","",""
"html-keyboard-response","99","175308","0.0-10.0-0.10","60a68725b2b424dc0d7ce793","650c16f0f2faf8d7a0d14c09","651c1b2ca39dacc51175e1b7","null","null","<p style=""font-size: 60px; font-family: BACS"">UJkGYNu</p>","","","","","","","","",""
"html-keyboard-response","100","176321","0.0-10.0-0.11","60a68725b2b424dc0d7ce793","650c16f0f2faf8d7a0d14c09","651c1b2ca39dacc51175e1b7","null","null","<p style=""font-size: 60px; font-family: BACS"">YuaNdYkZ</p>","","","","","","","","",""
"html-keyboard-response","101","177333","0.0-10.0-0.12","60a68725b2b424dc0d7ce793","650c16f0f2faf8d7a0d14c09","651c1b2ca39dacc51175e1b7","null","null","<p style=""font-size: 60px; font-family: BACS"">rdLJakYL</p>","","","","","","","","",""
"html-keyboard-response","102","178343","0.0-10.0-0.13","60a68725b2b424dc0d7ce793","650c16f0f2faf8d7a0d14c09","651c1b2ca39dacc51175e1b7","null","null","<p style=""font-size: 60px; font-family: BACS"">kKEdMCEM</p>","","","","","","","","",""
"html-keyboard-response","103","179356","0.0-10.0-0.14","60a68725b2b424dc0d7ce793","650c16f0f2faf8d7a0d14c09","651c1b2ca39dacc51175e1b7","null","null","<p style=""font-size: 60px; font-family: BACS"">hlbtbEPBT</p>","","","","","","","","",""
"html-keyboard-response","104","180367","0.0-10.0-0.15","60a68725b2b424dc0d7ce793","650c16f0f2faf8d7a0d14c09","651c1b2ca39dacc51175e1b7","null","null","<p style=""font-size: 60px; font-family: BACS"">JNkaYNu</p>","","","","","","","","",""
"html-keyboard-response","105","181383","0.0-10.0-0.16","60a68725b2b424dc0d7ce793","650c16f0f2faf8d7a0d14c09","651c1b2ca39dacc51175e1b7","null","null","<p style=""font-size: 60px; font-family: BACS"">hlbtbCEM</p>","","","","","","","","",""
"html-keyboard-response","106","182393","0.0-10.0-0.17","60a68725b2b424dc0d7ce793","650c16f0f2faf8d7a0d14c09","651c1b2ca39dacc51175e1b7","null","null","<p style=""font-size: 60px; font-family: BACS"">ukYZYNu</p>","","","","","","","","",""
"html-keyboard-response","107","183406","0.0-10.0-0.18","60a68725b2b424dc0d7ce793","650c16f0f2faf8d7a0d14c09","651c1b2ca39dacc51175e1b7","null","null","<p style=""font-size: 60px; font-family: BACS"">cdKBYEPBT</p>","","","","","","","","",""
"html-keyboard-response","108","184418","0.0-10.0-0.19","60a68725b2b424dc0d7ce793","650c16f0f2faf8d7a0d14c09","651c1b2ca39dacc51175e1b7","null","null","<p style=""font-size: 60px; font-family: BACS"">ukYZkYL</p>","","","","","","","","",""
"html-keyboard-response","109","185426","0.0-10.0-0.20","60a68725b2b424dc0d7ce793","650c16f0f2faf8d7a0d14c09","651c1b2ca39dacc51175e1b7","null","null","<p style=""font-size: 60px; font-family: BACS"">UJmrJUNa</p>","","","","","","","","",""
"html-keyboard-response","110","186437","0.0-10.0-0.21","60a68725b2b424dc0d7ce793","650c16f0f2faf8d7a0d14c09","651c1b2ca39dacc51175e1b7","null","null","<p style=""font-size: 60px; font-family: BACS"">vYLUYaOk</p>","","","","","","","","",""
"html-keyboard-response","111","187448","0.0-10.0-0.22","60a68725b2b424dc0d7ce793","650c16f0f2faf8d7a0d14c09","651c1b2ca39dacc51175e1b7","null","null","<p style=""font-size: 60px; font-family: BACS"">TObCOCKOb</p>","","","","","","","","",""
"html-keyboard-response","112","188460","0.0-10.0-0.23","60a68725b2b424dc0d7ce793","650c16f0f2faf8d7a0d14c09","651c1b2ca39dacc51175e1b7","null","null","<p style=""font-size: 60px; font-family: BACS"">rdLJaJUNa</p>","","","","","","","","",""
"html-keyboard-response","113","189468","0.0-10.0-0.24","60a68725b2b424dc0d7ce793","650c16f0f2faf8d7a0d14c09","651c1b2ca39dacc51175e1b7","null","null","<p style=""font-size: 60px; font-family: BACS"">hlbtbCKOb</p>","","","","","","","","",""
"html-keyboard-response","114","190482","0.0-10.0-0.25","60a68725b2b424dc0d7ce793","650c16f0f2faf8d7a0d14c09","651c1b2ca39dacc51175e1b7","null","null","<p style=""font-size: 60px; font-family: BACS"">TObCOTmTm</p>","","","","","","","","",""
"html-keyboard-response","115","191493","0.0-10.0-0.26","60a68725b2b424dc0d7ce793","650c16f0f2faf8d7a0d14c09","651c1b2ca39dacc51175e1b7","null","null","<p style=""font-size: 60px; font-family: BACS"">lRckACKOb</p>","","","","","","","","",""
"html-keyboard-response","116","192503","0.0-10.0-0.27","60a68725b2b424dc0d7ce793","650c16f0f2faf8d7a0d14c09","651c1b2ca39dacc51175e1b7","null","null","<p style=""font-size: 60px; font-family: BACS"">bGuOkYL</p>","","","","","","","","",""
"html-keyboard-response","117","193505","0.0-10.0-0.28","60a68725b2b424dc0d7ce793","650c16f0f2faf8d7a0d14c09","651c1b2ca39dacc51175e1b7","null","null","<p style=""font-size: 60px; font-family: BACS"">rdLJaYNu</p>","","","","","","","","",""
"html-keyboard-response","118","194519","0.0-10.0-0.29","60a68725b2b424dc0d7ce793","650c16f0f2faf8d7a0d14c09","651c1b2ca39dacc51175e1b7","null","null","<p style=""font-size: 60px; font-family: BACS"">kdEdYTmTm</p>","","","","","","","","",""
"html-keyboard-response","119","195534","0.0-10.0-0.30","60a68725b2b424dc0d7ce793","650c16f0f2faf8d7a0d14c09","651c1b2ca39dacc51175e1b7","null","null","<p style=""font-size: 60px; font-family: BACS"">rdLJaYkZ</p>","","","","","","","","",""
"html-keyboard-response","120","196547","0.0-10.0-0.31","60a68725b2b424dc0d7ce793","650c16f0f2faf8d7a0d14c09","651c1b2ca39dacc51175e1b7","null","null","<p style=""font-size: 60px; font-family: BACS"">bRABtCKOb</p>","","","","","","","","",""
"html-keyboard-response","121","197556","0.0-10.0-0.32","60a68725b2b424dc0d7ce793","650c16f0f2faf8d7a0d14c09","651c1b2ca39dacc51175e1b7","null","null","<p style=""font-size: 60px; font-family: BACS"">UJmrkYL</p>","","","","","","","","",""
"html-keyboard-response","122","198572","0.0-10.0-0.33","60a68725b2b424dc0d7ce793","650c16f0f2faf8d7a0d14c09","651c1b2ca39dacc51175e1b7","null","null","<p style=""font-size: 60px; font-family: BACS"">kdEdYCEM</p>","","","","","","","","",""
"html-keyboard-response","123","199584","0.0-10.0-0.34","60a68725b2b424dc0d7ce793","650c16f0f2faf8d7a0d14c09","651c1b2ca39dacc51175e1b7","null","null","<p style=""font-size: 60px; font-family: BACS"">YuaNdYNu</p>","","","","","","","","",""
"html-keyboard-response","124","200587","0.0-10.0-0.35","60a68725b2b424dc0d7ce793","650c16f0f2faf8d7a0d14c09","651c1b2ca39dacc51175e1b7","null","null","<p style=""font-size: 60px; font-family: BACS"">hTDdTmc</p>","","","","","","","","",""
"html-keyboard-response","125","201596","0.0-10.0-0.36","60a68725b2b424dc0d7ce793","650c16f0f2faf8d7a0d14c09","651c1b2ca39dacc51175e1b7","null","null","<p style=""font-size: 60px; font-family: BACS"">krGuYNu</p>","","","","","","","","",""
"html-keyboard-response","126","202607","0.0-10.0-0.37","60a68725b2b424dc0d7ce793","650c16f0f2faf8d7a0d14c09","651c1b2ca39dacc51175e1b7","null","null","<p style=""font-size: 60px; font-family: BACS"">mBmlATmTm</p>","","","","","","","","",""
"html-keyboard-response","127","203621","0.0-10.0-0.38","60a68725b2b424dc0d7ce793","650c16f0f2faf8d7a0d14c09","651c1b2ca39dacc51175e1b7","null","null","<p style=""font-size: 60px; font-family: BACS"">YuaNdYaOk</p>","","","","","","","","",""
"html-keyboard-response","128","204629","0.0-10.0-0.39","60a68725b2b424dc0d7ce793","650c16f0f2faf8d7a0d14c09","651c1b2ca39dacc51175e1b7","null","null","<p style=""font-size: 60px; font-family: BACS"">JNkaJUNa</p>","","","","","","","","",""
"html-keyboard-response","129","205642","0.0-10.0-0.40","60a68725b2b424dc0d7ce793","650c16f0f2faf8d7a0d14c09","651c1b2ca39dacc51175e1b7","null","null","<p style=""font-size: 60px; font-family: BACS"">ukYZYaOk</p>","","","","","","","","",""
"html-keyboard-response","130","206652","0.0-10.0-0.41","60a68725b2b424dc0d7ce793","650c16f0f2faf8d7a0d14c09","651c1b2ca39dacc51175e1b7","null","null","<p style=""font-size: 60px; font-family: BACS"">UJkGkYL</p>","","","","","","","","",""
"html-keyboard-response","131","207662","0.0-10.0-0.42","60a68725b2b424dc0d7ce793","650c16f0f2faf8d7a0d14c09","651c1b2ca39dacc51175e1b7","null","null","<p style=""font-size: 60px; font-family: BACS"">mBmlAEPBT</p>","","","","","","","","",""
"html-keyboard-response","132","208671","0.0-10.0-0.43","60a68725b2b424dc0d7ce793","650c16f0f2faf8d7a0d14c09","651c1b2ca39dacc51175e1b7","null","null","<p style=""font-size: 60px; font-family: BACS"">krGuJUNa</p>","","","","","","","","",""
"html-keyboard-response","133","209684","0.0-10.0-0.44","60a68725b2b424dc0d7ce793","650c16f0f2faf8d7a0d14c09","651c1b2ca39dacc51175e1b7","null","null","<p style=""font-size: 60px; font-family: BACS"">JNkaYaOk</p>","","","","","","","","",""
"html-keyboard-response","134","210698","0.0-10.0-0.45","60a68725b2b424dc0d7ce793","650c16f0f2faf8d7a0d14c09","651c1b2ca39dacc51175e1b7","null","null","<p style=""font-size: 60px; font-family: BACS"">hlbtbTmTm</p>","","","","","","","","",""
"html-keyboard-response","135","211701","0.0-10.0-0.46","60a68725b2b424dc0d7ce793","650c16f0f2faf8d7a0d14c09","651c1b2ca39dacc51175e1b7","null","null","<p style=""font-size: 60px; font-family: BACS"">bRABtTmc</p>","","","","","","","","",""
"html-keyboard-response","136","212715","0.0-10.0-0.47","60a68725b2b424dc0d7ce793","650c16f0f2faf8d7a0d14c09","651c1b2ca39dacc51175e1b7","null","null","<p style=""font-size: 60px; font-family: BACS"">UJmrYNu</p>","","","","","","","","",""
"html-keyboard-response","137","213725","0.0-10.0-0.48","60a68725b2b424dc0d7ce793","650c16f0f2faf8d7a0d14c09","651c1b2ca39dacc51175e1b7","null","null","<p style=""font-size: 60px; font-family: BACS"">MhKdTmTm</p>","","","","","","","","",""
"html-keyboard-response","138","214737","0.0-10.0-0.49","60a68725b2b424dc0d7ce793","650c16f0f2faf8d7a0d14c09","651c1b2ca39dacc51175e1b7","null","null","<p style=""font-size: 60px; font-family: BACS"">TObCOEPBT</p>","","","","","","","","",""
"html-keyboard-response","139","215747","0.0-10.0-0.50","60a68725b2b424dc0d7ce793","650c16f0f2faf8d7a0d14c09","651c1b2ca39dacc51175e1b7","null","null","<p style=""font-size: 60px; font-family: BACS"">lRckATmc</p>","","","","","","","","",""
"html-keyboard-response","140","216758","0.0-10.0-0.51","60a68725b2b424dc0d7ce793","650c16f0f2faf8d7a0d14c09","651c1b2ca39dacc51175e1b7","null","null","<p style=""font-size: 60px; font-family: BACS"">AmaclYkZ</p>","","","","","","","","",""
"html-keyboard-response","141","217763","0.0-10.0-0.52","60a68725b2b424dc0d7ce793","650c16f0f2faf8d7a0d14c09","651c1b2ca39dacc51175e1b7","null","null","<p style=""font-size: 60px; font-family: BACS"">lRckAEPBT</p>","","","","","","","","",""
"html-keyboard-response","142","218763","0.0-10.0-0.53","60a68725b2b424dc0d7ce793","650c16f0f2faf8d7a0d14c09","651c1b2ca39dacc51175e1b7","null","null","<p style=""font-size: 60px; font-family: BACS"">bGuOYaOk</p>","","","","","","","","",""
"html-keyboard-response","143","219774","0.0-10.0-0.54","60a68725b2b424dc0d7ce793","650c16f0f2faf8d7a0d14c09","651c1b2ca39dacc51175e1b7","null","null","<p style=""font-size: 60px; font-family: BACS"">JNkaYkZ</p>","","","","","","","","",""
"html-keyboard-response","144","220786","0.0-10.0-0.55","60a68725b2b424dc0d7ce793","650c16f0f2faf8d7a0d14c09","651c1b2ca39dacc51175e1b7","null","null","<p style=""font-size: 60px; font-family: BACS"">AmaclYNu</p>","","","","","","","","",""
"html-keyboard-response","145","221794","0.0-10.0-0.56","60a68725b2b424dc0d7ce793","650c16f0f2faf8d7a0d14c09","651c1b2ca39dacc51175e1b7","null","null","<p style=""font-size: 60px; font-family: BACS"">kdEdYCKOb</p>","","","","","","","","",""
"html-keyboard-response","146","222807","0.0-10.0-0.57","60a68725b2b424dc0d7ce793","650c16f0f2faf8d7a0d14c09","651c1b2ca39dacc51175e1b7","null","null","<p style=""font-size: 60px; font-family: BACS"">MhKdEPBT</p>","","","","","","","","",""
"html-keyboard-response","147","223822","0.0-10.0-0.58","60a68725b2b424dc0d7ce793","650c16f0f2faf8d7a0d14c09","651c1b2ca39dacc51175e1b7","null","null","<p style=""font-size: 60px; font-family: BACS"">hTDdTmTm</p>","","","","","","","","",""
"html-keyboard-response","148","224836","0.0-10.0-0.59","60a68725b2b424dc0d7ce793","650c16f0f2faf8d7a0d14c09","651c1b2ca39dacc51175e1b7","null","null","<p style=""font-size: 60px; font-family: BACS"">cdKBYCKOb</p>","","","","","","","","",""
"html-keyboard-response","149","225848","0.0-10.0-0.60","60a68725b2b424dc0d7ce793","650c16f0f2faf8d7a0d14c09","651c1b2ca39dacc51175e1b7","null","null","<p style=""font-size: 60px; font-family: BACS"">bRABtEPBT</p>","","","","","","","","",""
"html-keyboard-response","150","226859","0.0-10.0-0.61","60a68725b2b424dc0d7ce793","650c16f0f2faf8d7a0d14c09","651c1b2ca39dacc51175e1b7","null","null","<p style=""font-size: 60px; font-family: BACS"">MhKdCEM</p>","","","","","","","","",""
"html-keyboard-response","151","227873","0.0-10.0-0.62","60a68725b2b424dc0d7ce793","650c16f0f2faf8d7a0d14c09","651c1b2ca39dacc51175e1b7","null","null","<p style=""font-size: 60px; font-family: BACS"">YuaNdkYL</p>","","","","","","","","",""
"html-keyboard-response","152","228880","0.0-10.0-0.63","60a68725b2b424dc0d7ce793","650c16f0f2faf8d7a0d14c09","651c1b2ca39dacc51175e1b7","null","null","<p style=""font-size: 60px; font-family: BACS"">krGuYkZ</p>","","","","","","","","",""
"html-keyboard-response","153","229892","0.0-10.0-0.64","60a68725b2b424dc0d7ce793","650c16f0f2faf8d7a0d14c09","651c1b2ca39dacc51175e1b7","null","null","<p style=""font-size: 60px; font-family: BACS"">AmaclkYL</p>","","","","","","","","",""
"html-keyboard-response","154","230903","0.0-10.0-0.65","60a68725b2b424dc0d7ce793","650c16f0f2faf8d7a0d14c09","651c1b2ca39dacc51175e1b7","null","null","<p style=""font-size: 60px; font-family: BACS"">vYLUJUNa</p>","","","","","","","","",""
"html-keyboard-response","155","231915","0.0-10.0-0.66","60a68725b2b424dc0d7ce793","650c16f0f2faf8d7a0d14c09","651c1b2ca39dacc51175e1b7","null","null","<p style=""font-size: 60px; font-family: BACS"">UJmrYaOk</p>","","","","","","","","",""
"html-keyboard-response","156","232925","0.0-10.0-0.67","60a68725b2b424dc0d7ce793","650c16f0f2faf8d7a0d14c09","651c1b2ca39dacc51175e1b7","null","null","<p style=""font-size: 60px; font-family: BACS"">TObCOTmc</p>","","","","","","","","",""
"html-keyboard-response","157","233937","0.0-10.0-0.68","60a68725b2b424dc0d7ce793","650c16f0f2faf8d7a0d14c09","651c1b2ca39dacc51175e1b7","null","null","<p style=""font-size: 60px; font-family: BACS"">kKEdMTmTm</p>","","","","","","","","",""
"html-keyboard-response","158","234951","0.0-10.0-0.69","60a68725b2b424dc0d7ce793","650c16f0f2faf8d7a0d14c09","651c1b2ca39dacc51175e1b7","null","null","<p style=""font-size: 60px; font-family: BACS"">AmaclJUNa</p>","","","","","","","","",""
"html-keyboard-response","159","235959","0.0-10.0-0.70","60a68725b2b424dc0d7ce793","650c16f0f2faf8d7a0d14c09","651c1b2ca39dacc51175e1b7","null","null","<p style=""font-size: 60px; font-family: BACS"">cdKBYTmc</p>","","","","","","","","",""
"html-keyboard-response","160","236974","0.0-10.0-0.71","60a68725b2b424dc0d7ce793","650c16f0f2faf8d7a0d14c09","651c1b2ca39dacc51175e1b7","null","null","<p style=""font-size: 60px; font-family: BACS"">bRABtTmTm</p>","","","","","","","","",""
"html-keyboard-response","161","237985","0.0-10.0-0.72","60a68725b2b424dc0d7ce793","650c16f0f2faf8d7a0d14c09","651c1b2ca39dacc51175e1b7","null","null","<p style=""font-size: 60px; font-family: BACS"">MhKdCKOb</p>","","","","","","","","",""
"html-keyboard-response","162","239000","0.0-10.0-0.73","60a68725b2b424dc0d7ce793","650c16f0f2faf8d7a0d14c09","651c1b2ca39dacc51175e1b7","null","null","<p style=""font-size: 60px; font-family: BACS"">bGuOJUNa</p>","","","","","","","","",""
"html-keyboard-response","163","240016","0.0-10.0-0.74","60a68725b2b424dc0d7ce793","650c16f0f2faf8d7a0d14c09","651c1b2ca39dacc51175e1b7","null","null","<p style=""font-size: 60px; font-family: BACS"">UJkGYaOk</p>","","","","","","","","",""
"html-keyboard-response","164","241028","0.0-10.0-0.75","60a68725b2b424dc0d7ce793","650c16f0f2faf8d7a0d14c09","651c1b2ca39dacc51175e1b7","null","null","<p style=""font-size: 60px; font-family: BACS"">vYLUYkZ</p>","","","","","","","","",""
"html-keyboard-response","165","242040","0.0-10.0-0.76","60a68725b2b424dc0d7ce793","650c16f0f2faf8d7a0d14c09","651c1b2ca39dacc51175e1b7","null","null","<p style=""font-size: 60px; font-family: BACS"">kKEdMTmc</p>","","","","","","","","",""
"html-keyboard-response","166","243047","0.0-10.0-0.77","60a68725b2b424dc0d7ce793","650c16f0f2faf8d7a0d14c09","651c1b2ca39dacc51175e1b7","null","null","<p style=""font-size: 60px; font-family: BACS"">ukYZJUNa</p>","","","","","","","","",""
"html-keyboard-response","167","244062","0.0-10.0-0.78","60a68725b2b424dc0d7ce793","650c16f0f2faf8d7a0d14c09","651c1b2ca39dacc51175e1b7","null","null","<p style=""font-size: 60px; font-family: BACS"">hTDdEPBT</p>","","","","","","","","",""
"html-keyboard-response","168","245079","0.0-10.0-0.79","60a68725b2b424dc0d7ce793","650c16f0f2faf8d7a0d14c09","651c1b2ca39dacc51175e1b7","null","null","<p style=""font-size: 60px; font-family: BACS"">mBmlATmc</p>","","","","","","","","",""
"html-keyboard-response","169","249393","0.0-11.0","60a68725b2b424dc0d7ce793","650c16f0f2faf8d7a0d14c09","651c1b2ca39dacc51175e1b7","4313"," ","<p>Great, you've seen the second block of words. You may now take a short break.</p>
      <p>Press the spacebar when you're ready to continue.</p>","","","","","","","","",""
"html-keyboard-response","170","250406","0.0-12.0-0.0","60a68725b2b424dc0d7ce793","650c16f0f2faf8d7a0d14c09","651c1b2ca39dacc51175e1b7","null","null","<p style=""font-size: 60px; font-family: BACS"">ukYZYNu</p>","","","","","","","","",""
"html-keyboard-response","171","251417","0.0-12.0-0.1","60a68725b2b424dc0d7ce793","650c16f0f2faf8d7a0d14c09","651c1b2ca39dacc51175e1b7","null","null","<p style=""font-size: 60px; font-family: BACS"">cdKBYCEM</p>","","","","","","","","",""
"html-keyboard-response","172","252431","0.0-12.0-0.2","60a68725b2b424dc0d7ce793","650c16f0f2faf8d7a0d14c09","651c1b2ca39dacc51175e1b7","null","null","<p style=""font-size: 60px; font-family: BACS"">hlbtbEPBT</p>","","","","","","","","",""
"html-keyboard-response","173","253441","0.0-12.0-0.3","60a68725b2b424dc0d7ce793","650c16f0f2faf8d7a0d14c09","651c1b2ca39dacc51175e1b7","null","null","<p style=""font-size: 60px; font-family: BACS"">kdEdYTmc</p>","","","","","","","","",""
"html-keyboard-response","174","254455","0.0-12.0-0.4","60a68725b2b424dc0d7ce793","650c16f0f2faf8d7a0d14c09","651c1b2ca39dacc51175e1b7","null","null","<p style=""font-size: 60px; font-family: BACS"">ukYZYaOk</p>","","","","","","","","",""
"html-keyboard-response","175","255465","0.0-12.0-0.5","60a68725b2b424dc0d7ce793","650c16f0f2faf8d7a0d14c09","651c1b2ca39dacc51175e1b7","null","null","<p style=""font-size: 60px; font-family: BACS"">JNkaJUNa</p>","","","","","","","","",""
"html-keyboard-response","176","256477","0.0-12.0-0.6","60a68725b2b424dc0d7ce793","650c16f0f2faf8d7a0d14c09","651c1b2ca39dacc51175e1b7","null","null","<p style=""font-size: 60px; font-family: BACS"">rdLJakYL</p>","","","","","","","","",""
"html-keyboard-response","177","257490","0.0-12.0-0.7","60a68725b2b424dc0d7ce793","650c16f0f2faf8d7a0d14c09","651c1b2ca39dacc51175e1b7","null","null","<p style=""font-size: 60px; font-family: BACS"">mBmlACEM</p>","","","","","","","","",""
"html-keyboard-response","178","258506","0.0-12.0-0.8","60a68725b2b424dc0d7ce793","650c16f0f2faf8d7a0d14c09","651c1b2ca39dacc51175e1b7","null","null","<p style=""font-size: 60px; font-family: BACS"">cdKBYCKOb</p>","","","","","","","","",""
"html-keyboard-response","179","259515","0.0-12.0-0.9","60a68725b2b424dc0d7ce793","650c16f0f2faf8d7a0d14c09","651c1b2ca39dacc51175e1b7","null","null","<p style=""font-size: 60px; font-family: BACS"">lRckAEPBT</p>","","","","","","","","",""
"html-keyboard-response","180","260530","0.0-12.0-0.10","60a68725b2b424dc0d7ce793","650c16f0f2faf8d7a0d14c09","651c1b2ca39dacc51175e1b7","null","null","<p style=""font-size: 60px; font-family: BACS"">kdEdYTmTm</p>","","","","","","","","",""
"html-keyboard-response","181","261541","0.0-12.0-0.11","60a68725b2b424dc0d7ce793","650c16f0f2faf8d7a0d14c09","651c1b2ca39dacc51175e1b7","null","null","<p style=""font-size: 60px; font-family: BACS"">YuaNdYaOk</p>","","","","","","","","",""
"html-keyboard-response","182","262551","0.0-12.0-0.12","60a68725b2b424dc0d7ce793","650c16f0f2faf8d7a0d14c09","651c1b2ca39dacc51175e1b7","null","null","<p style=""font-size: 60px; font-family: BACS"">MhKdCKOb</p>","","","","","","","","",""
"html-keyboard-response","183","263564","0.0-12.0-0.13","60a68725b2b424dc0d7ce793","650c16f0f2faf8d7a0d14c09","651c1b2ca39dacc51175e1b7","null","null","<p style=""font-size: 60px; font-family: BACS"">YuaNdkYL</p>","","","","","","","","",""
"html-keyboard-response","184","264566","0.0-12.0-0.14","60a68725b2b424dc0d7ce793","650c16f0f2faf8d7a0d14c09","651c1b2ca39dacc51175e1b7","null","null","<p style=""font-size: 60px; font-family: BACS"">AmaclJUNa</p>","","","","","","","","",""
"html-keyboard-response","185","265578","0.0-12.0-0.15","60a68725b2b424dc0d7ce793","650c16f0f2faf8d7a0d14c09","651c1b2ca39dacc51175e1b7","null","null","<p style=""font-size: 60px; font-family: BACS"">hTDdTmc</p>","","","","","","","","",""
"html-keyboard-response","186","266588","0.0-12.0-0.16","60a68725b2b424dc0d7ce793","650c16f0f2faf8d7a0d14c09","651c1b2ca39dacc51175e1b7","null","null","<p style=""font-size: 60px; font-family: BACS"">krGuYNu</p>","","","","","","","","",""
"html-keyboard-response","187","267599","0.0-12.0-0.17","60a68725b2b424dc0d7ce793","650c16f0f2faf8d7a0d14c09","651c1b2ca39dacc51175e1b7","null","null","<p style=""font-size: 60px; font-family: BACS"">cdKBYTmc</p>","","","","","","","","",""
"html-keyboard-response","188","268607","0.0-12.0-0.18","60a68725b2b424dc0d7ce793","650c16f0f2faf8d7a0d14c09","651c1b2ca39dacc51175e1b7","null","null","<p style=""font-size: 60px; font-family: BACS"">hTDdEPBT</p>","","","","","","","","",""
"html-keyboard-response","189","269622","0.0-12.0-0.19","60a68725b2b424dc0d7ce793","650c16f0f2faf8d7a0d14c09","651c1b2ca39dacc51175e1b7","null","null","<p style=""font-size: 60px; font-family: BACS"">MhKdTmTm</p>","","","","","","","","",""
"html-keyboard-response","190","270633","0.0-12.0-0.20","60a68725b2b424dc0d7ce793","650c16f0f2faf8d7a0d14c09","651c1b2ca39dacc51175e1b7","null","null","<p style=""font-size: 60px; font-family: BACS"">bGuOYaOk</p>","","","","","","","","",""
"html-keyboard-response","191","271646","0.0-12.0-0.21","60a68725b2b424dc0d7ce793","650c16f0f2faf8d7a0d14c09","651c1b2ca39dacc51175e1b7","null","null","<p style=""font-size: 60px; font-family: BACS"">TObCOEPBT</p>","","","","","","","","",""
"html-keyboard-response","192","272655","0.0-12.0-0.22","60a68725b2b424dc0d7ce793","650c16f0f2faf8d7a0d14c09","651c1b2ca39dacc51175e1b7","null","null","<p style=""font-size: 60px; font-family: BACS"">UJmrYaOk</p>","","","","","","","","",""
"html-keyboard-response","193","273669","0.0-12.0-0.23","60a68725b2b424dc0d7ce793","650c16f0f2faf8d7a0d14c09","651c1b2ca39dacc51175e1b7","null","null","<p style=""font-size: 60px; font-family: BACS"">AmaclYkZ</p>","","","","","","","","",""
"html-keyboard-response","194","274671","0.0-12.0-0.24","60a68725b2b424dc0d7ce793","650c16f0f2faf8d7a0d14c09","651c1b2ca39dacc51175e1b7","null","null","<p style=""font-size: 60px; font-family: BACS"">UJkGYaOk</p>","","","","","","","","",""
"html-keyboard-response","195","275687","0.0-12.0-0.25","60a68725b2b424dc0d7ce793","650c16f0f2faf8d7a0d14c09","651c1b2ca39dacc51175e1b7","null","null","<p style=""font-size: 60px; font-family: BACS"">bRABtEPBT</p>","","","","","","","","",""
"html-keyboard-response","196","276699","0.0-12.0-0.26","60a68725b2b424dc0d7ce793","650c16f0f2faf8d7a0d14c09","651c1b2ca39dacc51175e1b7","null","null","<p style=""font-size: 60px; font-family: BACS"">lRckACKOb</p>","","","","","","","","",""
"html-keyboard-response","197","277709","0.0-12.0-0.27","60a68725b2b424dc0d7ce793","650c16f0f2faf8d7a0d14c09","651c1b2ca39dacc51175e1b7","null","null","<p style=""font-size: 60px; font-family: BACS"">kKEdMCEM</p>","","","","","","","","",""
"html-keyboard-response","198","278722","0.0-12.0-0.28","60a68725b2b424dc0d7ce793","650c16f0f2faf8d7a0d14c09","651c1b2ca39dacc51175e1b7","null","null","<p style=""font-size: 60px; font-family: BACS"">bRABtCKOb</p>","","","","","","","","",""
"html-keyboard-response","199","279729","0.0-12.0-0.29","60a68725b2b424dc0d7ce793","650c16f0f2faf8d7a0d14c09","651c1b2ca39dacc51175e1b7","null","null","<p style=""font-size: 60px; font-family: BACS"">kKEdMTmc</p>","","","","","","","","",""
"html-keyboard-response","200","280737","0.0-12.0-0.30","60a68725b2b424dc0d7ce793","650c16f0f2faf8d7a0d14c09","651c1b2ca39dacc51175e1b7","null","null","<p style=""font-size: 60px; font-family: BACS"">AmaclYNu</p>","","","","","","","","",""
"html-keyboard-response","201","281752","0.0-12.0-0.31","60a68725b2b424dc0d7ce793","650c16f0f2faf8d7a0d14c09","651c1b2ca39dacc51175e1b7","null","null","<p style=""font-size: 60px; font-family: BACS"">kdEdYCEM</p>","","","","","","","","",""
"html-keyboard-response","202","282764","0.0-12.0-0.32","60a68725b2b424dc0d7ce793","650c16f0f2faf8d7a0d14c09","651c1b2ca39dacc51175e1b7","null","null","<p style=""font-size: 60px; font-family: BACS"">cdKBYEPBT</p>","","","","","","","","",""
"html-keyboard-response","203","283766","0.0-12.0-0.33","60a68725b2b424dc0d7ce793","650c16f0f2faf8d7a0d14c09","651c1b2ca39dacc51175e1b7","null","null","<p style=""font-size: 60px; font-family: BACS"">rdLJaYkZ</p>","","","","","","","","",""
"html-keyboard-response","204","284779","0.0-12.0-0.34","60a68725b2b424dc0d7ce793","650c16f0f2faf8d7a0d14c09","651c1b2ca39dacc51175e1b7","null","null","<p style=""font-size: 60px; font-family: BACS"">ukYZkYL</p>","","","","","","","","",""
"html-keyboard-response","205","285794","0.0-12.0-0.35","60a68725b2b424dc0d7ce793","650c16f0f2faf8d7a0d14c09","651c1b2ca39dacc51175e1b7","null","null","<p style=""font-size: 60px; font-family: BACS"">TObCOCKOb</p>","","","","","","","","",""
"html-keyboard-response","206","286805","0.0-12.0-0.36","60a68725b2b424dc0d7ce793","650c16f0f2faf8d7a0d14c09","651c1b2ca39dacc51175e1b7","null","null","<p style=""font-size: 60px; font-family: BACS"">mBmlATmTm</p>","","","","","","","","",""
"html-keyboard-response","207","287819","0.0-12.0-0.37","60a68725b2b424dc0d7ce793","650c16f0f2faf8d7a0d14c09","651c1b2ca39dacc51175e1b7","null","null","<p style=""font-size: 60px; font-family: BACS"">krGuJUNa</p>","","","","","","","","",""
"html-keyboard-response","208","288833","0.0-12.0-0.38","60a68725b2b424dc0d7ce793","650c16f0f2faf8d7a0d14c09","651c1b2ca39dacc51175e1b7","null","null","<p style=""font-size: 60px; font-family: BACS"">vYLUYkZ</p>","","","","","","","","",""
"html-keyboard-response","209","289848","0.0-12.0-0.39","60a68725b2b424dc0d7ce793","650c16f0f2faf8d7a0d14c09","651c1b2ca39dacc51175e1b7","null","null","<p style=""font-size: 60px; font-family: BACS"">MhKdEPBT</p>","","","","","","","","",""
"html-keyboard-response","210","290858","0.0-12.0-0.40","60a68725b2b424dc0d7ce793","650c16f0f2faf8d7a0d14c09","651c1b2ca39dacc51175e1b7","null","null","<p style=""font-size: 60px; font-family: BACS"">TObCOTmTm</p>","","","","","","","","",""
"html-keyboard-response","211","291863","0.0-12.0-0.41","60a68725b2b424dc0d7ce793","650c16f0f2faf8d7a0d14c09","651c1b2ca39dacc51175e1b7","null","null","<p style=""font-size: 60px; font-family: BACS"">bRABtTmc</p>","","","","","","","","",""
"html-keyboard-response","212","292876","0.0-12.0-0.42","60a68725b2b424dc0d7ce793","650c16f0f2faf8d7a0d14c09","651c1b2ca39dacc51175e1b7","null","null","<p style=""font-size: 60px; font-family: BACS"">UJmrJUNa</p>","","","","","","","","",""
"html-keyboard-response","213","293887","0.0-12.0-0.43","60a68725b2b424dc0d7ce793","650c16f0f2faf8d7a0d14c09","651c1b2ca39dacc51175e1b7","null","null","<p style=""font-size: 60px; font-family: BACS"">hTDdTmTm</p>","","","","","","","","",""
"html-keyboard-response","214","294904","0.0-12.0-0.44","60a68725b2b424dc0d7ce793","650c16f0f2faf8d7a0d14c09","651c1b2ca39dacc51175e1b7","null","null","<p style=""font-size: 60px; font-family: BACS"">kdEdYCKOb</p>","","","","","","","","",""
"html-keyboard-response","215","295909","0.0-12.0-0.45","60a68725b2b424dc0d7ce793","650c16f0f2faf8d7a0d14c09","651c1b2ca39dacc51175e1b7","null","null","<p style=""font-size: 60px; font-family: BACS"">rdLJaYNu</p>","","","","","","","","",""
"html-keyboard-response","216","296918","0.0-12.0-0.46","60a68725b2b424dc0d7ce793","650c16f0f2faf8d7a0d14c09","651c1b2ca39dacc51175e1b7","null","null","<p style=""font-size: 60px; font-family: BACS"">AmaclkYL</p>","","","","","","","","",""
"html-keyboard-response","217","297929","0.0-12.0-0.47","60a68725b2b424dc0d7ce793","650c16f0f2faf8d7a0d14c09","651c1b2ca39dacc51175e1b7","null","null","<p style=""font-size: 60px; font-family: BACS"">lRckACEM</p>","","","","","","","","",""
"html-keyboard-response","218","298943","0.0-12.0-0.48","60a68725b2b424dc0d7ce793","650c16f0f2faf8d7a0d14c09","651c1b2ca39dacc51175e1b7","null","null","<p style=""font-size: 60px; font-family: BACS"">JNkaYaOk</p>","","","","","","","","",""
"html-keyboard-response","219","299955","0.0-12.0-0.49","60a68725b2b424dc0d7ce793","650c16f0f2faf8d7a0d14c09","651c1b2ca39dacc51175e1b7","null","null","<p style=""font-size: 60px; font-family: BACS"">kKEdMTmTm</p>","","","","","","","","",""
"html-keyboard-response","220","300965","0.0-12.0-0.50","60a68725b2b424dc0d7ce793","650c16f0f2faf8d7a0d14c09","651c1b2ca39dacc51175e1b7","null","null","<p style=""font-size: 60px; font-family: BACS"">UJkGYkZ</p>","","","","","","","","",""
"html-keyboard-response","221","301975","0.0-12.0-0.51","60a68725b2b424dc0d7ce793","650c16f0f2faf8d7a0d14c09","651c1b2ca39dacc51175e1b7","null","null","<p style=""font-size: 60px; font-family: BACS"">hlbtbCEM</p>","","","","","","","","",""
"html-keyboard-response","222","302988","0.0-12.0-0.52","60a68725b2b424dc0d7ce793","650c16f0f2faf8d7a0d14c09","651c1b2ca39dacc51175e1b7","null","null","<p style=""font-size: 60px; font-family: BACS"">lRckATmc</p>","","","","","","","","",""
"html-keyboard-response","223","304002","0.0-12.0-0.53","60a68725b2b424dc0d7ce793","650c16f0f2faf8d7a0d14c09","651c1b2ca39dacc51175e1b7","null","null","<p style=""font-size: 60px; font-family: BACS"">vYLUkYL</p>","","","","","","","","",""
"html-keyboard-response","224","305018","0.0-12.0-0.54","60a68725b2b424dc0d7ce793","650c16f0f2faf8d7a0d14c09","651c1b2ca39dacc51175e1b7","null","null","<p style=""font-size: 60px; font-family: BACS"">hlbtbTmTm</p>","","","","","","","","",""
"html-keyboard-response","225","306033","0.0-12.0-0.55","60a68725b2b424dc0d7ce793","650c16f0f2faf8d7a0d14c09","651c1b2ca39dacc51175e1b7","null","null","<p style=""font-size: 60px; font-family: BACS"">hTDdCEM</p>","","","","","","","","",""
"html-keyboard-response","226","307047","0.0-12.0-0.56","60a68725b2b424dc0d7ce793","650c16f0f2faf8d7a0d14c09","651c1b2ca39dacc51175e1b7","null","null","<p style=""font-size: 60px; font-family: BACS"">vYLUYaOk</p>","","","","","","","","",""
"html-keyboard-response","227","308059","0.0-12.0-0.57","60a68725b2b424dc0d7ce793","650c16f0f2faf8d7a0d14c09","651c1b2ca39dacc51175e1b7","null","null","<p style=""font-size: 60px; font-family: BACS"">UJmrkYL</p>","","","","","","","","",""
"html-keyboard-response","228","309061","0.0-12.0-0.58","60a68725b2b424dc0d7ce793","650c16f0f2faf8d7a0d14c09","651c1b2ca39dacc51175e1b7","null","null","<p style=""font-size: 60px; font-family: BACS"">krGuYkZ</p>","","","","","","","","",""
"html-keyboard-response","229","310072","0.0-12.0-0.59","60a68725b2b424dc0d7ce793","650c16f0f2faf8d7a0d14c09","651c1b2ca39dacc51175e1b7","null","null","<p style=""font-size: 60px; font-family: BACS"">UJkGYNu</p>","","","","","","","","",""
"html-keyboard-response","230","311079","0.0-12.0-0.60","60a68725b2b424dc0d7ce793","650c16f0f2faf8d7a0d14c09","651c1b2ca39dacc51175e1b7","null","null","<p style=""font-size: 60px; font-family: BACS"">mBmlATmc</p>","","","","","","","","",""
"html-keyboard-response","231","312095","0.0-12.0-0.61","60a68725b2b424dc0d7ce793","650c16f0f2faf8d7a0d14c09","651c1b2ca39dacc51175e1b7","null","null","<p style=""font-size: 60px; font-family: BACS"">kKEdMCKOb</p>","","","","","","","","",""
"html-keyboard-response","232","313105","0.0-12.0-0.62","60a68725b2b424dc0d7ce793","650c16f0f2faf8d7a0d14c09","651c1b2ca39dacc51175e1b7","null","null","<p style=""font-size: 60px; font-family: BACS"">vYLUJUNa</p>","","","","","","","","",""
"html-keyboard-response","233","314116","0.0-12.0-0.63","60a68725b2b424dc0d7ce793","650c16f0f2faf8d7a0d14c09","651c1b2ca39dacc51175e1b7","null","null","<p style=""font-size: 60px; font-family: BACS"">UJkGkYL</p>","","","","","","","","",""
"html-keyboard-response","234","315130","0.0-12.0-0.64","60a68725b2b424dc0d7ce793","650c16f0f2faf8d7a0d14c09","651c1b2ca39dacc51175e1b7","null","null","<p style=""font-size: 60px; font-family: BACS"">ukYZJUNa</p>","","","","","","","","",""
"html-keyboard-response","235","316143","0.0-12.0-0.65","60a68725b2b424dc0d7ce793","650c16f0f2faf8d7a0d14c09","651c1b2ca39dacc51175e1b7","null","null","<p style=""font-size: 60px; font-family: BACS"">MhKdCEM</p>","","","","","","","","",""
"html-keyboard-response","236","317156","0.0-12.0-0.66","60a68725b2b424dc0d7ce793","650c16f0f2faf8d7a0d14c09","651c1b2ca39dacc51175e1b7","null","null","<p style=""font-size: 60px; font-family: BACS"">bGuOkYL</p>","","","","","","","","",""
"html-keyboard-response","237","318169","0.0-12.0-0.67","60a68725b2b424dc0d7ce793","650c16f0f2faf8d7a0d14c09","651c1b2ca39dacc51175e1b7","null","null","<p style=""font-size: 60px; font-family: BACS"">YuaNdYkZ</p>","","","","","","","","",""
"html-keyboard-response","238","319177","0.0-12.0-0.68","60a68725b2b424dc0d7ce793","650c16f0f2faf8d7a0d14c09","651c1b2ca39dacc51175e1b7","null","null","<p style=""font-size: 60px; font-family: BACS"">bGuOJUNa</p>","","","","","","","","",""
"html-keyboard-response","239","320179","0.0-12.0-0.69","60a68725b2b424dc0d7ce793","650c16f0f2faf8d7a0d14c09","651c1b2ca39dacc51175e1b7","null","null","<p style=""font-size: 60px; font-family: BACS"">hlbtbCKOb</p>","","","","","","","","",""
"html-keyboard-response","240","321187","0.0-12.0-0.70","60a68725b2b424dc0d7ce793","650c16f0f2faf8d7a0d14c09","651c1b2ca39dacc51175e1b7","null","null","<p style=""font-size: 60px; font-family: BACS"">UJmrYNu</p>","","","","","","","","",""
"html-keyboard-response","241","322198","0.0-12.0-0.71","60a68725b2b424dc0d7ce793","650c16f0f2faf8d7a0d14c09","651c1b2ca39dacc51175e1b7","null","null","<p style=""font-size: 60px; font-family: BACS"">rdLJaJUNa</p>","","","","","","","","",""
"html-keyboard-response","242","323212","0.0-12.0-0.72","60a68725b2b424dc0d7ce793","650c16f0f2faf8d7a0d14c09","651c1b2ca39dacc51175e1b7","null","null","<p style=""font-size: 60px; font-family: BACS"">JNkaYNu</p>","","","","","","","","",""
"html-keyboard-response","243","324213","0.0-12.0-0.73","60a68725b2b424dc0d7ce793","650c16f0f2faf8d7a0d14c09","651c1b2ca39dacc51175e1b7","null","null","<p style=""font-size: 60px; font-family: BACS"">TObCOTmc</p>","","","","","","","","",""
"html-keyboard-response","244","325228","0.0-12.0-0.74","60a68725b2b424dc0d7ce793","650c16f0f2faf8d7a0d14c09","651c1b2ca39dacc51175e1b7","null","null","<p style=""font-size: 60px; font-family: BACS"">mBmlAEPBT</p>","","","","","","","","",""
"html-keyboard-response","245","326242","0.0-12.0-0.75","60a68725b2b424dc0d7ce793","650c16f0f2faf8d7a0d14c09","651c1b2ca39dacc51175e1b7","null","null","<p style=""font-size: 60px; font-family: BACS"">YuaNdYNu</p>","","","","","","","","",""
"html-keyboard-response","246","327247","0.0-12.0-0.76","60a68725b2b424dc0d7ce793","650c16f0f2faf8d7a0d14c09","651c1b2ca39dacc51175e1b7","null","null","<p style=""font-size: 60px; font-family: BACS"">bGuOYkZ</p>","","","","","","","","",""
"html-keyboard-response","247","328258","0.0-12.0-0.77","60a68725b2b424dc0d7ce793","650c16f0f2faf8d7a0d14c09","651c1b2ca39dacc51175e1b7","null","null","<p style=""font-size: 60px; font-family: BACS"">bRABtTmTm</p>","","","","","","","","",""
"html-keyboard-response","248","329269","0.0-12.0-0.78","60a68725b2b424dc0d7ce793","650c16f0f2faf8d7a0d14c09","651c1b2ca39dacc51175e1b7","null","null","<p style=""font-size: 60px; font-family: BACS"">JNkaYkZ</p>","","","","","","","","",""
"html-keyboard-response","249","330283","0.0-12.0-0.79","60a68725b2b424dc0d7ce793","650c16f0f2faf8d7a0d14c09","651c1b2ca39dacc51175e1b7","null","null","<p style=""font-size: 60px; font-family: BACS"">krGuYaOk</p>","","","","","","","","",""
"html-keyboard-response","250","334792","0.0-13.0","60a68725b2b424dc0d7ce793","650c16f0f2faf8d7a0d14c09","651c1b2ca39dacc51175e1b7","4508"," ","<p>Great, you've seen the third block of words. You may now take a short break.</p>
      <p>Press the spacebar when you're ready to continue.</p>","","","","","","","","",""
"html-keyboard-response","251","335797","0.0-14.0-0.0","60a68725b2b424dc0d7ce793","650c16f0f2faf8d7a0d14c09","651c1b2ca39dacc51175e1b7","null","null","<p style=""font-size: 60px; font-family: BACS"">AmaclkYL</p>","","","","","","","","",""
"html-keyboard-response","252","336808","0.0-14.0-0.1","60a68725b2b424dc0d7ce793","650c16f0f2faf8d7a0d14c09","651c1b2ca39dacc51175e1b7","null","null","<p style=""font-size: 60px; font-family: BACS"">mBmlAEPBT</p>","","","","","","","","",""
"html-keyboard-response","253","337822","0.0-14.0-0.2","60a68725b2b424dc0d7ce793","650c16f0f2faf8d7a0d14c09","651c1b2ca39dacc51175e1b7","null","null","<p style=""font-size: 60px; font-family: BACS"">TObCOCKOb</p>","","","","","","","","",""
"html-keyboard-response","254","338836","0.0-14.0-0.3","60a68725b2b424dc0d7ce793","650c16f0f2faf8d7a0d14c09","651c1b2ca39dacc51175e1b7","null","null","<p style=""font-size: 60px; font-family: BACS"">ukYZJUNa</p>","","","","","","","","",""
"html-keyboard-response","255","339853","0.0-14.0-0.4","60a68725b2b424dc0d7ce793","650c16f0f2faf8d7a0d14c09","651c1b2ca39dacc51175e1b7","null","null","<p style=""font-size: 60px; font-family: BACS"">hlbtbEPBT</p>","","","","","","","","",""
"html-keyboard-response","256","340866","0.0-14.0-0.5","60a68725b2b424dc0d7ce793","650c16f0f2faf8d7a0d14c09","651c1b2ca39dacc51175e1b7","null","null","<p style=""font-size: 60px; font-family: BACS"">bGuOkYL</p>","","","","","","","","",""
"html-keyboard-response","257","341878","0.0-14.0-0.6","60a68725b2b424dc0d7ce793","650c16f0f2faf8d7a0d14c09","651c1b2ca39dacc51175e1b7","null","null","<p style=""font-size: 60px; font-family: BACS"">ukYZYNu</p>","","","","","","","","",""
"html-keyboard-response","258","342893","0.0-14.0-0.7","60a68725b2b424dc0d7ce793","650c16f0f2faf8d7a0d14c09","651c1b2ca39dacc51175e1b7","null","null","<p style=""font-size: 60px; font-family: BACS"">JNkaYkZ</p>","","","","","","","","",""
"html-keyboard-response","259","343907","0.0-14.0-0.8","60a68725b2b424dc0d7ce793","650c16f0f2faf8d7a0d14c09","651c1b2ca39dacc51175e1b7","null","null","<p style=""font-size: 60px; font-family: BACS"">MhKdCKOb</p>","","","","","","","","",""
"html-keyboard-response","260","344922","0.0-14.0-0.9","60a68725b2b424dc0d7ce793","650c16f0f2faf8d7a0d14c09","651c1b2ca39dacc51175e1b7","null","null","<p style=""font-size: 60px; font-family: BACS"">bGuOYaOk</p>","","","","","","","","",""
"html-keyboard-response","261","345935","0.0-14.0-0.10","60a68725b2b424dc0d7ce793","650c16f0f2faf8d7a0d14c09","651c1b2ca39dacc51175e1b7","null","null","<p style=""font-size: 60px; font-family: BACS"">vYLUYkZ</p>","","","","","","","","",""
"html-keyboard-response","262","346946","0.0-14.0-0.11","60a68725b2b424dc0d7ce793","650c16f0f2faf8d7a0d14c09","651c1b2ca39dacc51175e1b7","null","null","<p style=""font-size: 60px; font-family: BACS"">bRABtCKOb</p>","","","","","","","","",""
"html-keyboard-response","263","347961","0.0-14.0-0.12","60a68725b2b424dc0d7ce793","650c16f0f2faf8d7a0d14c09","651c1b2ca39dacc51175e1b7","null","null","<p style=""font-size: 60px; font-family: BACS"">UJmrYNu</p>","","","","","","","","",""
"html-keyboard-response","264","348972","0.0-14.0-0.13","60a68725b2b424dc0d7ce793","650c16f0f2faf8d7a0d14c09","651c1b2ca39dacc51175e1b7","null","null","<p style=""font-size: 60px; font-family: BACS"">ukYZYaOk</p>","","","","","","","","",""
"html-keyboard-response","265","349984","0.0-14.0-0.14","60a68725b2b424dc0d7ce793","650c16f0f2faf8d7a0d14c09","651c1b2ca39dacc51175e1b7","null","null","<p style=""font-size: 60px; font-family: BACS"">cdKBYEPBT</p>","","","","","","","","",""
"html-keyboard-response","266","350987","0.0-14.0-0.15","60a68725b2b424dc0d7ce793","650c16f0f2faf8d7a0d14c09","651c1b2ca39dacc51175e1b7","null","null","<p style=""font-size: 60px; font-family: BACS"">UJmrkYL</p>","","","","","","","","",""
"html-keyboard-response","267","351998","0.0-14.0-0.16","60a68725b2b424dc0d7ce793","650c16f0f2faf8d7a0d14c09","651c1b2ca39dacc51175e1b7","null","null","<p style=""font-size: 60px; font-family: BACS"">TObCOTmc</p>","","","","","","","","",""
"html-keyboard-response","268","353013","0.0-14.0-0.17","60a68725b2b424dc0d7ce793","650c16f0f2faf8d7a0d14c09","651c1b2ca39dacc51175e1b7","null","null","<p style=""font-size: 60px; font-family: BACS"">kKEdMTmTm</p>","","","","","","","","",""
"html-keyboard-response","269","354021","0.0-14.0-0.18","60a68725b2b424dc0d7ce793","650c16f0f2faf8d7a0d14c09","651c1b2ca39dacc51175e1b7","null","null","<p style=""font-size: 60px; font-family: BACS"">MhKdCEM</p>","","","","","","","","",""
"html-keyboard-response","270","355030","0.0-14.0-0.19","60a68725b2b424dc0d7ce793","650c16f0f2faf8d7a0d14c09","651c1b2ca39dacc51175e1b7","null","null","<p style=""font-size: 60px; font-family: BACS"">UJkGYNu</p>","","","","","","","","",""
"html-keyboard-response","271","356042","0.0-14.0-0.20","60a68725b2b424dc0d7ce793","650c16f0f2faf8d7a0d14c09","651c1b2ca39dacc51175e1b7","null","null","<p style=""font-size: 60px; font-family: BACS"">bRABtTmc</p>","","","","","","","","",""
"html-keyboard-response","272","357055","0.0-14.0-0.21","60a68725b2b424dc0d7ce793","650c16f0f2faf8d7a0d14c09","651c1b2ca39dacc51175e1b7","null","null","<p style=""font-size: 60px; font-family: BACS"">kdEdYCKOb</p>","","","","","","","","",""
"html-keyboard-response","273","358068","0.0-14.0-0.22","60a68725b2b424dc0d7ce793","650c16f0f2faf8d7a0d14c09","651c1b2ca39dacc51175e1b7","null","null","<p style=""font-size: 60px; font-family: BACS"">lRckATmc</p>","","","","","","","","",""
"html-keyboard-response","274","359069","0.0-14.0-0.23","60a68725b2b424dc0d7ce793","650c16f0f2faf8d7a0d14c09","651c1b2ca39dacc51175e1b7","null","null","<p style=""font-size: 60px; font-family: BACS"">mBmlACEM</p>","","","","","","","","",""
"html-keyboard-response","275","360084","0.0-14.0-0.24","60a68725b2b424dc0d7ce793","650c16f0f2faf8d7a0d14c09","651c1b2ca39dacc51175e1b7","null","null","<p style=""font-size: 60px; font-family: BACS"">UJmrJUNa</p>","","","","","","","","",""
"html-keyboard-response","276","361087","0.0-14.0-0.25","60a68725b2b424dc0d7ce793","650c16f0f2faf8d7a0d14c09","651c1b2ca39dacc51175e1b7","null","null","<p style=""font-size: 60px; font-family: BACS"">YuaNdkYL</p>","","","","","","","","",""
"html-keyboard-response","277","362096","0.0-14.0-0.26","60a68725b2b424dc0d7ce793","650c16f0f2faf8d7a0d14c09","651c1b2ca39dacc51175e1b7","null","null","<p style=""font-size: 60px; font-family: BACS"">hTDdEPBT</p>","","","","","","","","",""
"html-keyboard-response","278","363110","0.0-14.0-0.27","60a68725b2b424dc0d7ce793","650c16f0f2faf8d7a0d14c09","651c1b2ca39dacc51175e1b7","null","null","<p style=""font-size: 60px; font-family: BACS"">YuaNdYaOk</p>","","","","","","","","",""
"html-keyboard-response","279","364120","0.0-14.0-0.28","60a68725b2b424dc0d7ce793","650c16f0f2faf8d7a0d14c09","651c1b2ca39dacc51175e1b7","null","null","<p style=""font-size: 60px; font-family: BACS"">krGuYNu</p>","","","","","","","","",""
"html-keyboard-response","280","365134","0.0-14.0-0.29","60a68725b2b424dc0d7ce793","650c16f0f2faf8d7a0d14c09","651c1b2ca39dacc51175e1b7","null","null","<p style=""font-size: 60px; font-family: BACS"">hTDdTmc</p>","","","","","","","","",""
"html-keyboard-response","281","366147","0.0-14.0-0.30","60a68725b2b424dc0d7ce793","650c16f0f2faf8d7a0d14c09","651c1b2ca39dacc51175e1b7","null","null","<p style=""font-size: 60px; font-family: BACS"">rdLJaYkZ</p>","","","","","","","","",""
"html-keyboard-response","282","367148","0.0-14.0-0.31","60a68725b2b424dc0d7ce793","650c16f0f2faf8d7a0d14c09","651c1b2ca39dacc51175e1b7","null","null","<p style=""font-size: 60px; font-family: BACS"">kdEdYTmc</p>","","","","","","","","",""
"html-keyboard-response","283","368161","0.0-14.0-0.32","60a68725b2b424dc0d7ce793","650c16f0f2faf8d7a0d14c09","651c1b2ca39dacc51175e1b7","null","null","<p style=""font-size: 60px; font-family: BACS"">AmaclYkZ</p>","","","","","","","","",""
"html-keyboard-response","284","369173","0.0-14.0-0.33","60a68725b2b424dc0d7ce793","650c16f0f2faf8d7a0d14c09","651c1b2ca39dacc51175e1b7","null","null","<p style=""font-size: 60px; font-family: BACS"">kKEdMCKOb</p>","","","","","","","","",""
"html-keyboard-response","285","370184","0.0-14.0-0.34","60a68725b2b424dc0d7ce793","650c16f0f2faf8d7a0d14c09","651c1b2ca39dacc51175e1b7","null","null","<p style=""font-size: 60px; font-family: BACS"">hTDdCEM</p>","","","","","","","","",""
"html-keyboard-response","286","371196","0.0-14.0-0.35","60a68725b2b424dc0d7ce793","650c16f0f2faf8d7a0d14c09","651c1b2ca39dacc51175e1b7","null","null","<p style=""font-size: 60px; font-family: BACS"">UJkGkYL</p>","","","","","","","","",""
"html-keyboard-response","287","372210","0.0-14.0-0.36","60a68725b2b424dc0d7ce793","650c16f0f2faf8d7a0d14c09","651c1b2ca39dacc51175e1b7","null","null","<p style=""font-size: 60px; font-family: BACS"">YuaNdYkZ</p>","","","","","","","","",""
"html-keyboard-response","288","373221","0.0-14.0-0.37","60a68725b2b424dc0d7ce793","650c16f0f2faf8d7a0d14c09","651c1b2ca39dacc51175e1b7","null","null","<p style=""font-size: 60px; font-family: BACS"">hTDdTmTm</p>","","","","","","","","",""
"html-keyboard-response","289","374235","0.0-14.0-0.38","60a68725b2b424dc0d7ce793","650c16f0f2faf8d7a0d14c09","651c1b2ca39dacc51175e1b7","null","null","<p style=""font-size: 60px; font-family: BACS"">UJmrYaOk</p>","","","","","","","","",""
"html-keyboard-response","290","375247","0.0-14.0-0.39","60a68725b2b424dc0d7ce793","650c16f0f2faf8d7a0d14c09","651c1b2ca39dacc51175e1b7","null","null","<p style=""font-size: 60px; font-family: BACS"">AmaclJUNa</p>","","","","","","","","",""
"html-keyboard-response","291","376258","0.0-14.0-0.40","60a68725b2b424dc0d7ce793","650c16f0f2faf8d7a0d14c09","651c1b2ca39dacc51175e1b7","null","null","<p style=""font-size: 60px; font-family: BACS"">hlbtbCEM</p>","","","","","","","","",""
"html-keyboard-response","292","377268","0.0-14.0-0.41","60a68725b2b424dc0d7ce793","650c16f0f2faf8d7a0d14c09","651c1b2ca39dacc51175e1b7","null","null","<p style=""font-size: 60px; font-family: BACS"">vYLUYaOk</p>","","","","","","","","",""
"html-keyboard-response","293","378282","0.0-14.0-0.42","60a68725b2b424dc0d7ce793","650c16f0f2faf8d7a0d14c09","651c1b2ca39dacc51175e1b7","null","null","<p style=""font-size: 60px; font-family: BACS"">bGuOJUNa</p>","","","","","","","","",""
"html-keyboard-response","294","379295","0.0-14.0-0.43","60a68725b2b424dc0d7ce793","650c16f0f2faf8d7a0d14c09","651c1b2ca39dacc51175e1b7","null","null","<p style=""font-size: 60px; font-family: BACS"">kdEdYCEM</p>","","","","","","","","",""
"html-keyboard-response","295","380307","0.0-14.0-0.44","60a68725b2b424dc0d7ce793","650c16f0f2faf8d7a0d14c09","651c1b2ca39dacc51175e1b7","null","null","<p style=""font-size: 60px; font-family: BACS"">UJkGYkZ</p>","","","","","","","","",""
"html-keyboard-response","296","381310","0.0-14.0-0.45","60a68725b2b424dc0d7ce793","650c16f0f2faf8d7a0d14c09","651c1b2ca39dacc51175e1b7","null","null","<p style=""font-size: 60px; font-family: BACS"">lRckACKOb</p>","","","","","","","","",""
"html-keyboard-response","297","382314","0.0-14.0-0.46","60a68725b2b424dc0d7ce793","650c16f0f2faf8d7a0d14c09","651c1b2ca39dacc51175e1b7","null","null","<p style=""font-size: 60px; font-family: BACS"">hlbtbTmTm</p>","","","","","","","","",""
"html-keyboard-response","298","383325","0.0-14.0-0.47","60a68725b2b424dc0d7ce793","650c16f0f2faf8d7a0d14c09","651c1b2ca39dacc51175e1b7","null","null","<p style=""font-size: 60px; font-family: BACS"">MhKdEPBT</p>","","","","","","","","",""
"html-keyboard-response","299","384337","0.0-14.0-0.48","60a68725b2b424dc0d7ce793","650c16f0f2faf8d7a0d14c09","651c1b2ca39dacc51175e1b7","null","null","<p style=""font-size: 60px; font-family: BACS"">cdKBYCKOb</p>","","","","","","","","",""
"html-keyboard-response","300","385353","0.0-14.0-0.49","60a68725b2b424dc0d7ce793","650c16f0f2faf8d7a0d14c09","651c1b2ca39dacc51175e1b7","null","null","<p style=""font-size: 60px; font-family: BACS"">mBmlATmTm</p>","","","","","","","","",""
"html-keyboard-response","301","386367","0.0-14.0-0.50","60a68725b2b424dc0d7ce793","650c16f0f2faf8d7a0d14c09","651c1b2ca39dacc51175e1b7","null","null","<p style=""font-size: 60px; font-family: BACS"">rdLJakYL</p>","","","","","","","","",""
"html-keyboard-response","302","387378","0.0-14.0-0.51","60a68725b2b424dc0d7ce793","650c16f0f2faf8d7a0d14c09","651c1b2ca39dacc51175e1b7","null","null","<p style=""font-size: 60px; font-family: BACS"">lRckACEM</p>","","","","","","","","",""
"html-keyboard-response","303","388389","0.0-14.0-0.52","60a68725b2b424dc0d7ce793","650c16f0f2faf8d7a0d14c09","651c1b2ca39dacc51175e1b7","null","null","<p style=""font-size: 60px; font-family: BACS"">rdLJaYNu</p>","","","","","","","","",""
"html-keyboard-response","304","389401","0.0-14.0-0.53","60a68725b2b424dc0d7ce793","650c16f0f2faf8d7a0d14c09","651c1b2ca39dacc51175e1b7","null","null","<p style=""font-size: 60px; font-family: BACS"">TObCOEPBT</p>","","","","","","","","",""
"html-keyboard-response","305","390415","0.0-14.0-0.54","60a68725b2b424dc0d7ce793","650c16f0f2faf8d7a0d14c09","651c1b2ca39dacc51175e1b7","null","null","<p style=""font-size: 60px; font-family: BACS"">JNkaYNu</p>","","","","","","","","",""
"html-keyboard-response","306","391430","0.0-14.0-0.55","60a68725b2b424dc0d7ce793","650c16f0f2faf8d7a0d14c09","651c1b2ca39dacc51175e1b7","null","null","<p style=""font-size: 60px; font-family: BACS"">vYLUJUNa</p>","","","","","","","","",""
"html-keyboard-response","307","392441","0.0-14.0-0.56","60a68725b2b424dc0d7ce793","650c16f0f2faf8d7a0d14c09","651c1b2ca39dacc51175e1b7","null","null","<p style=""font-size: 60px; font-family: BACS"">kdEdYTmTm</p>","","","","","","","","",""
"html-keyboard-response","308","393442","0.0-14.0-0.57","60a68725b2b424dc0d7ce793","650c16f0f2faf8d7a0d14c09","651c1b2ca39dacc51175e1b7","null","null","<p style=""font-size: 60px; font-family: BACS"">lRckAEPBT</p>","","","","","","","","",""
"html-keyboard-response","309","394450","0.0-14.0-0.58","60a68725b2b424dc0d7ce793","650c16f0f2faf8d7a0d14c09","651c1b2ca39dacc51175e1b7","null","null","<p style=""font-size: 60px; font-family: BACS"">krGuYaOk</p>","","","","","","","","",""
"html-keyboard-response","310","395465","0.0-14.0-0.59","60a68725b2b424dc0d7ce793","650c16f0f2faf8d7a0d14c09","651c1b2ca39dacc51175e1b7","null","null","<p style=""font-size: 60px; font-family: BACS"">rdLJaJUNa</p>","","","","","","","","",""
"html-keyboard-response","311","396467","0.0-14.0-0.60","60a68725b2b424dc0d7ce793","650c16f0f2faf8d7a0d14c09","651c1b2ca39dacc51175e1b7","null","null","<p style=""font-size: 60px; font-family: BACS"">vYLUkYL</p>","","","","","","","","",""
"html-keyboard-response","312","397481","0.0-14.0-0.61","60a68725b2b424dc0d7ce793","650c16f0f2faf8d7a0d14c09","651c1b2ca39dacc51175e1b7","null","null","<p style=""font-size: 60px; font-family: BACS"">bRABtEPBT</p>","","","","","","","","",""
"html-keyboard-response","313","398492","0.0-14.0-0.62","60a68725b2b424dc0d7ce793","650c16f0f2faf8d7a0d14c09","651c1b2ca39dacc51175e1b7","null","null","<p style=""font-size: 60px; font-family: BACS"">mBmlATmc</p>","","","","","","","","",""
"html-keyboard-response","314","399504","0.0-14.0-0.63","60a68725b2b424dc0d7ce793","650c16f0f2faf8d7a0d14c09","651c1b2ca39dacc51175e1b7","null","null","<p style=""font-size: 60px; font-family: BACS"">krGuYkZ</p>","","","","","","","","",""
"html-keyboard-response","315","400516","0.0-14.0-0.64","60a68725b2b424dc0d7ce793","650c16f0f2faf8d7a0d14c09","651c1b2ca39dacc51175e1b7","null","null","<p style=""font-size: 60px; font-family: BACS"">JNkaYaOk</p>","","","","","","","","",""
"html-keyboard-response","316","401528","0.0-14.0-0.65","60a68725b2b424dc0d7ce793","650c16f0f2faf8d7a0d14c09","651c1b2ca39dacc51175e1b7","null","null","<p style=""font-size: 60px; font-family: BACS"">YuaNdYNu</p>","","","","","","","","",""
"html-keyboard-response","317","402542","0.0-14.0-0.66","60a68725b2b424dc0d7ce793","650c16f0f2faf8d7a0d14c09","651c1b2ca39dacc51175e1b7","null","null","<p style=""font-size: 60px; font-family: BACS"">kKEdMCEM</p>","","","","","","","","",""
"html-keyboard-response","318","403543","0.0-14.0-0.67","60a68725b2b424dc0d7ce793","650c16f0f2faf8d7a0d14c09","651c1b2ca39dacc51175e1b7","null","null","<p style=""font-size: 60px; font-family: BACS"">AmaclYNu</p>","","","","","","","","",""
"html-keyboard-response","319","404559","0.0-14.0-0.68","60a68725b2b424dc0d7ce793","650c16f0f2faf8d7a0d14c09","651c1b2ca39dacc51175e1b7","null","null","<p style=""font-size: 60px; font-family: BACS"">MhKdTmTm</p>","","","","","","","","",""
"html-keyboard-response","320","405569","0.0-14.0-0.69","60a68725b2b424dc0d7ce793","650c16f0f2faf8d7a0d14c09","651c1b2ca39dacc51175e1b7","null","null","<p style=""font-size: 60px; font-family: BACS"">cdKBYCEM</p>","","","","","","","","",""
"html-keyboard-response","321","406582","0.0-14.0-0.70","60a68725b2b424dc0d7ce793","650c16f0f2faf8d7a0d14c09","651c1b2ca39dacc51175e1b7","null","null","<p style=""font-size: 60px; font-family: BACS"">bRABtTmTm</p>","","","","","","","","",""
"html-keyboard-response","322","407597","0.0-14.0-0.71","60a68725b2b424dc0d7ce793","650c16f0f2faf8d7a0d14c09","651c1b2ca39dacc51175e1b7","null","null","<p style=""font-size: 60px; font-family: BACS"">JNkaJUNa</p>","","","","","","","","",""
"html-keyboard-response","323","408607","0.0-14.0-0.72","60a68725b2b424dc0d7ce793","650c16f0f2faf8d7a0d14c09","651c1b2ca39dacc51175e1b7","null","null","<p style=""font-size: 60px; font-family: BACS"">cdKBYTmc</p>","","","","","","","","",""
"html-keyboard-response","324","409619","0.0-14.0-0.73","60a68725b2b424dc0d7ce793","650c16f0f2faf8d7a0d14c09","651c1b2ca39dacc51175e1b7","null","null","<p style=""font-size: 60px; font-family: BACS"">UJkGYaOk</p>","","","","","","","","",""
"html-keyboard-response","325","410628","0.0-14.0-0.74","60a68725b2b424dc0d7ce793","650c16f0f2faf8d7a0d14c09","651c1b2ca39dacc51175e1b7","null","null","<p style=""font-size: 60px; font-family: BACS"">hlbtbCKOb</p>","","","","","","","","",""
"html-keyboard-response","326","411643","0.0-14.0-0.75","60a68725b2b424dc0d7ce793","650c16f0f2faf8d7a0d14c09","651c1b2ca39dacc51175e1b7","null","null","<p style=""font-size: 60px; font-family: BACS"">bGuOYkZ</p>","","","","","","","","",""
"html-keyboard-response","327","412648","0.0-14.0-0.76","60a68725b2b424dc0d7ce793","650c16f0f2faf8d7a0d14c09","651c1b2ca39dacc51175e1b7","null","null","<p style=""font-size: 60px; font-family: BACS"">krGuJUNa</p>","","","","","","","","",""
"html-keyboard-response","328","413658","0.0-14.0-0.77","60a68725b2b424dc0d7ce793","650c16f0f2faf8d7a0d14c09","651c1b2ca39dacc51175e1b7","null","null","<p style=""font-size: 60px; font-family: BACS"">ukYZkYL</p>","","","","","","","","",""
"html-keyboard-response","329","414671","0.0-14.0-0.78","60a68725b2b424dc0d7ce793","650c16f0f2faf8d7a0d14c09","651c1b2ca39dacc51175e1b7","null","null","<p style=""font-size: 60px; font-family: BACS"">TObCOTmTm</p>","","","","","","","","",""
"html-keyboard-response","330","415685","0.0-14.0-0.79","60a68725b2b424dc0d7ce793","650c16f0f2faf8d7a0d14c09","651c1b2ca39dacc51175e1b7","null","null","<p style=""font-size: 60px; font-family: BACS"">kKEdMTmc</p>","","","","","","","","",""
"html-keyboard-response","331","421701","0.0-15.0","60a68725b2b424dc0d7ce793","650c16f0f2faf8d7a0d14c09","651c1b2ca39dacc51175e1b7","6016"," ","<p>Great, you've seen the fourth block of words. You may now take a short break.</p>
      <p>Press the spacebar when you're ready to continue.</p>","","","","","","","","",""
"html-keyboard-response","332","422710","0.0-16.0-0.0","60a68725b2b424dc0d7ce793","650c16f0f2faf8d7a0d14c09","651c1b2ca39dacc51175e1b7","null","null","<p style=""font-size: 60px; font-family: BACS"">ukYZkYL</p>","","","","","","","","",""
"html-keyboard-response","333","423723","0.0-16.0-0.1","60a68725b2b424dc0d7ce793","650c16f0f2faf8d7a0d14c09","651c1b2ca39dacc51175e1b7","null","null","<p style=""font-size: 60px; font-family: BACS"">ukYZkYL</p>","","","","","","","","",""
"html-keyboard-response","334","424731","0.0-16.0-0.2","60a68725b2b424dc0d7ce793","650c16f0f2faf8d7a0d14c09","651c1b2ca39dacc51175e1b7","null","null","<p style=""font-size: 60px; font-family: BACS"">ukYZkYL</p>","","","","","","","","",""
"html-keyboard-response","335","425743","0.0-16.0-0.3","60a68725b2b424dc0d7ce793","650c16f0f2faf8d7a0d14c09","651c1b2ca39dacc51175e1b7","null","null","<p style=""font-size: 60px; font-family: BACS"">ukYZkYL</p>","","","","","","","","",""
"html-keyboard-response","336","426756","0.0-16.0-0.4","60a68725b2b424dc0d7ce793","650c16f0f2faf8d7a0d14c09","651c1b2ca39dacc51175e1b7","null","null","<p style=""font-size: 60px; font-family: BACS"">ukYZkYL</p>","","","","","","","","",""
"html-keyboard-response","337","427766","0.0-16.0-0.5","60a68725b2b424dc0d7ce793","650c16f0f2faf8d7a0d14c09","651c1b2ca39dacc51175e1b7","null","null","<p style=""font-size: 60px; font-family: BACS"">ukYZkYL</p>","","","","","","","","",""
"html-keyboard-response","338","428774","0.0-16.0-0.6","60a68725b2b424dc0d7ce793","650c16f0f2faf8d7a0d14c09","651c1b2ca39dacc51175e1b7","null","null","<p style=""font-size: 60px; font-family: BACS"">ukYZkYL</p>","","","","","","","","",""
"html-keyboard-response","339","429786","0.0-16.0-0.7","60a68725b2b424dc0d7ce793","650c16f0f2faf8d7a0d14c09","651c1b2ca39dacc51175e1b7","null","null","<p style=""font-size: 60px; font-family: BACS"">ukYZkYL</p>","","","","","","","","",""
"html-keyboard-response","340","430800","0.0-16.0-0.8","60a68725b2b424dc0d7ce793","650c16f0f2faf8d7a0d14c09","651c1b2ca39dacc51175e1b7","null","null","<p style=""font-size: 60px; font-family: BACS"">ukYZkYL</p>","","","","","","","","",""
"html-keyboard-response","341","431807","0.0-16.0-0.9","60a68725b2b424dc0d7ce793","650c16f0f2faf8d7a0d14c09","651c1b2ca39dacc51175e1b7","null","null","<p style=""font-size: 60px; font-family: BACS"">ukYZkYL</p>","","","","","","","","",""
"html-keyboard-response","342","432822","0.0-16.0-0.10","60a68725b2b424dc0d7ce793","650c16f0f2faf8d7a0d14c09","651c1b2ca39dacc51175e1b7","null","null","<p style=""font-size: 60px; font-family: BACS"">ukYZkYL</p>","","","","","","","","",""
"html-keyboard-response","343","433824","0.0-16.0-0.11","60a68725b2b424dc0d7ce793","650c16f0f2faf8d7a0d14c09","651c1b2ca39dacc51175e1b7","null","null","<p style=""font-size: 60px; font-family: BACS"">ukYZkYL</p>","","","","","","","","",""
"html-keyboard-response","344","434827","0.0-16.0-0.12","60a68725b2b424dc0d7ce793","650c16f0f2faf8d7a0d14c09","651c1b2ca39dacc51175e1b7","null","null","<p style=""font-size: 60px; font-family: BACS"">ukYZkYL</p>","","","","","","","","",""
"html-keyboard-response","345","435843","0.0-16.0-0.13","60a68725b2b424dc0d7ce793","650c16f0f2faf8d7a0d14c09","651c1b2ca39dacc51175e1b7","null","null","<p style=""font-size: 60px; font-family: BACS"">ukYZkYL</p>","","","","","","","","",""
"html-keyboard-response","346","436852","0.0-16.0-0.14","60a68725b2b424dc0d7ce793","650c16f0f2faf8d7a0d14c09","651c1b2ca39dacc51175e1b7","null","null","<p style=""font-size: 60px; font-family: BACS"">ukYZkYL</p>","","","","","","","","",""
"html-keyboard-response","347","437868","0.0-16.0-0.15","60a68725b2b424dc0d7ce793","650c16f0f2faf8d7a0d14c09","651c1b2ca39dacc51175e1b7","null","null","<p style=""font-size: 60px; font-family: BACS"">ukYZkYL</p>","","","","","","","","",""
"html-keyboard-response","348","438876","0.0-16.0-0.16","60a68725b2b424dc0d7ce793","650c16f0f2faf8d7a0d14c09","651c1b2ca39dacc51175e1b7","null","null","<p style=""font-size: 60px; font-family: BACS"">ukYZkYL</p>","","","","","","","","",""
"html-keyboard-response","349","439888","0.0-16.0-0.17","60a68725b2b424dc0d7ce793","650c16f0f2faf8d7a0d14c09","651c1b2ca39dacc51175e1b7","null","null","<p style=""font-size: 60px; font-family: BACS"">ukYZkYL</p>","","","","","","","","",""
"html-keyboard-response","350","440900","0.0-16.0-0.18","60a68725b2b424dc0d7ce793","650c16f0f2faf8d7a0d14c09","651c1b2ca39dacc51175e1b7","null","null","<p style=""font-size: 60px; font-family: BACS"">ukYZkYL</p>","","","","","","","","",""
"html-keyboard-response","351","441912","0.0-16.0-0.19","60a68725b2b424dc0d7ce793","650c16f0f2faf8d7a0d14c09","651c1b2ca39dacc51175e1b7","null","null","<p style=""font-size: 60px; font-family: BACS"">ukYZkYL</p>","","","","","","","","",""
"html-keyboard-response","352","442923","0.0-16.0-0.20","60a68725b2b424dc0d7ce793","650c16f0f2faf8d7a0d14c09","651c1b2ca39dacc51175e1b7","null","null","<p style=""font-size: 60px; font-family: BACS"">ukYZkYL</p>","","","","","","","","",""
"html-keyboard-response","353","443934","0.0-16.0-0.21","60a68725b2b424dc0d7ce793","650c16f0f2faf8d7a0d14c09","651c1b2ca39dacc51175e1b7","null","null","<p style=""font-size: 60px; font-family: BACS"">ukYZkYL</p>","","","","","","","","",""
"html-keyboard-response","354","444947","0.0-16.0-0.22","60a68725b2b424dc0d7ce793","650c16f0f2faf8d7a0d14c09","651c1b2ca39dacc51175e1b7","null","null","<p style=""font-size: 60px; font-family: BACS"">ukYZkYL</p>","","","","","","","","",""
"html-keyboard-response","355","445958","0.0-16.0-0.23","60a68725b2b424dc0d7ce793","650c16f0f2faf8d7a0d14c09","651c1b2ca39dacc51175e1b7","null","null","<p style=""font-size: 60px; font-family: BACS"">ukYZkYL</p>","","","","","","","","",""
"html-keyboard-response","356","446967","0.0-16.0-0.24","60a68725b2b424dc0d7ce793","650c16f0f2faf8d7a0d14c09","651c1b2ca39dacc51175e1b7","null","null","<p style=""font-size: 60px; font-family: BACS"">ukYZkYL</p>","","","","","","","","",""
"html-keyboard-response","357","447977","0.0-16.0-0.25","60a68725b2b424dc0d7ce793","650c16f0f2faf8d7a0d14c09","651c1b2ca39dacc51175e1b7","null","null","<p style=""font-size: 60px; font-family: BACS"">ukYZkYL</p>","","","","","","","","",""
"html-keyboard-response","358","448986","0.0-16.0-0.26","60a68725b2b424dc0d7ce793","650c16f0f2faf8d7a0d14c09","651c1b2ca39dacc51175e1b7","null","null","<p style=""font-size: 60px; font-family: BACS"">ukYZkYL</p>","","","","","","","","",""
"html-keyboard-response","359","449996","0.0-16.0-0.27","60a68725b2b424dc0d7ce793","650c16f0f2faf8d7a0d14c09","651c1b2ca39dacc51175e1b7","null","null","<p style=""font-size: 60px; font-family: BACS"">ukYZkYL</p>","","","","","","","","",""
"html-keyboard-response","360","451009","0.0-16.0-0.28","60a68725b2b424dc0d7ce793","650c16f0f2faf8d7a0d14c09","651c1b2ca39dacc51175e1b7","null","null","<p style=""font-size: 60px; font-family: BACS"">ukYZkYL</p>","","","","","","","","",""
"html-keyboard-response","361","452021","0.0-16.0-0.29","60a68725b2b424dc0d7ce793","650c16f0f2faf8d7a0d14c09","651c1b2ca39dacc51175e1b7","null","null","<p style=""font-size: 60px; font-family: BACS"">ukYZkYL</p>","","","","","","","","",""
"html-keyboard-response","362","453031","0.0-16.0-0.30","60a68725b2b424dc0d7ce793","650c16f0f2faf8d7a0d14c09","651c1b2ca39dacc51175e1b7","null","null","<p style=""font-size: 60px; font-family: BACS"">ukYZkYL</p>","","","","","","","","",""
"html-keyboard-response","363","454046","0.0-16.0-0.31","60a68725b2b424dc0d7ce793","650c16f0f2faf8d7a0d14c09","651c1b2ca39dacc51175e1b7","null","null","<p style=""font-size: 60px; font-family: BACS"">ukYZkYL</p>","","","","","","","","",""
"html-keyboard-response","364","455057","0.0-16.0-0.32","60a68725b2b424dc0d7ce793","650c16f0f2faf8d7a0d14c09","651c1b2ca39dacc51175e1b7","null","null","<p style=""font-size: 60px; font-family: BACS"">ukYZkYL</p>","","","","","","","","",""
"html-keyboard-response","365","456067","0.0-16.0-0.33","60a68725b2b424dc0d7ce793","650c16f0f2faf8d7a0d14c09","651c1b2ca39dacc51175e1b7","null","null","<p style=""font-size: 60px; font-family: BACS"">ukYZkYL</p>","","","","","","","","",""
"html-keyboard-response","366","457069","0.0-16.0-0.34","60a68725b2b424dc0d7ce793","650c16f0f2faf8d7a0d14c09","651c1b2ca39dacc51175e1b7","null","null","<p style=""font-size: 60px; font-family: BACS"">ukYZkYL</p>","","","","","","","","",""
"html-keyboard-response","367","458079","0.0-16.0-0.35","60a68725b2b424dc0d7ce793","650c16f0f2faf8d7a0d14c09","651c1b2ca39dacc51175e1b7","null","null","<p style=""font-size: 60px; font-family: BACS"">ukYZkYL</p>","","","","","","","","",""
"html-keyboard-response","368","459093","0.0-16.0-0.36","60a68725b2b424dc0d7ce793","650c16f0f2faf8d7a0d14c09","651c1b2ca39dacc51175e1b7","null","null","<p style=""font-size: 60px; font-family: BACS"">ukYZkYL</p>","","","","","","","","",""
"html-keyboard-response","369","460104","0.0-16.0-0.37","60a68725b2b424dc0d7ce793","650c16f0f2faf8d7a0d14c09","651c1b2ca39dacc51175e1b7","null","null","<p style=""font-size: 60px; font-family: BACS"">ukYZkYL</p>","","","","","","","","",""
"html-keyboard-response","370","461117","0.0-16.0-0.38","60a68725b2b424dc0d7ce793","650c16f0f2faf8d7a0d14c09","651c1b2ca39dacc51175e1b7","null","null","<p style=""font-size: 60px; font-family: BACS"">ukYZkYL</p>","","","","","","","","",""
"html-keyboard-response","371","462131","0.0-16.0-0.39","60a68725b2b424dc0d7ce793","650c16f0f2faf8d7a0d14c09","651c1b2ca39dacc51175e1b7","null","null","<p style=""font-size: 60px; font-family: BACS"">ukYZkYL</p>","","","","","","","","",""
"html-keyboard-response","372","463144","0.0-16.0-0.40","60a68725b2b424dc0d7ce793","650c16f0f2faf8d7a0d14c09","651c1b2ca39dacc51175e1b7","null","null","<p style=""font-size: 60px; font-family: BACS"">ukYZkYL</p>","","","","","","","","",""
"html-keyboard-response","373","464154","0.0-16.0-0.41","60a68725b2b424dc0d7ce793","650c16f0f2faf8d7a0d14c09","651c1b2ca39dacc51175e1b7","null","null","<p style=""font-size: 60px; font-family: BACS"">ukYZkYL</p>","","","","","","","","",""
"html-keyboard-response","374","465162","0.0-16.0-0.42","60a68725b2b424dc0d7ce793","650c16f0f2faf8d7a0d14c09","651c1b2ca39dacc51175e1b7","null","null","<p style=""font-size: 60px; font-family: BACS"">ukYZkYL</p>","","","","","","","","",""
"html-keyboard-response","375","466178","0.0-16.0-0.43","60a68725b2b424dc0d7ce793","650c16f0f2faf8d7a0d14c09","651c1b2ca39dacc51175e1b7","null","null","<p style=""font-size: 60px; font-family: BACS"">ukYZkYL</p>","","","","","","","","",""
"html-keyboard-response","376","467191","0.0-16.0-0.44","60a68725b2b424dc0d7ce793","650c16f0f2faf8d7a0d14c09","651c1b2ca39dacc51175e1b7","null","null","<p style=""font-size: 60px; font-family: BACS"">ukYZkYL</p>","","","","","","","","",""
"html-keyboard-response","377","468202","0.0-16.0-0.45","60a68725b2b424dc0d7ce793","650c16f0f2faf8d7a0d14c09","651c1b2ca39dacc51175e1b7","null","null","<p style=""font-size: 60px; font-family: BACS"">ukYZkYL</p>","","","","","","","","",""
"html-keyboard-response","378","469215","0.0-16.0-0.46","60a68725b2b424dc0d7ce793","650c16f0f2faf8d7a0d14c09","651c1b2ca39dacc51175e1b7","null","null","<p style=""font-size: 60px; font-family: BACS"">ukYZkYL</p>","","","","","","","","",""
"html-keyboard-response","379","470228","0.0-16.0-0.47","60a68725b2b424dc0d7ce793","650c16f0f2faf8d7a0d14c09","651c1b2ca39dacc51175e1b7","null","null","<p style=""font-size: 60px; font-family: BACS"">ukYZkYL</p>","","","","","","","","",""
"html-keyboard-response","380","471243","0.0-16.0-0.48","60a68725b2b424dc0d7ce793","650c16f0f2faf8d7a0d14c09","651c1b2ca39dacc51175e1b7","null","null","<p style=""font-size: 60px; font-family: BACS"">ukYZkYL</p>","","","","","","","","",""
"html-keyboard-response","381","472258","0.0-16.0-0.49","60a68725b2b424dc0d7ce793","650c16f0f2faf8d7a0d14c09","651c1b2ca39dacc51175e1b7","null","null","<p style=""font-size: 60px; font-family: BACS"">ukYZkYL</p>","","","","","","","","",""
"html-keyboard-response","382","473271","0.0-16.0-0.50","60a68725b2b424dc0d7ce793","650c16f0f2faf8d7a0d14c09","651c1b2ca39dacc51175e1b7","null","null","<p style=""font-size: 60px; font-family: BACS"">ukYZkYL</p>","","","","","","","","",""
"html-keyboard-response","383","474278","0.0-16.0-0.51","60a68725b2b424dc0d7ce793","650c16f0f2faf8d7a0d14c09","651c1b2ca39dacc51175e1b7","null","null","<p style=""font-size: 60px; font-family: BACS"">ukYZkYL</p>","","","","","","","","",""
"html-keyboard-response","384","475290","0.0-16.0-0.52","60a68725b2b424dc0d7ce793","650c16f0f2faf8d7a0d14c09","651c1b2ca39dacc51175e1b7","null","null","<p style=""font-size: 60px; font-family: BACS"">ukYZkYL</p>","","","","","","","","",""
"html-keyboard-response","385","476303","0.0-16.0-0.53","60a68725b2b424dc0d7ce793","650c16f0f2faf8d7a0d14c09","651c1b2ca39dacc51175e1b7","null","null","<p style=""font-size: 60px; font-family: BACS"">ukYZkYL</p>","","","","","","","","",""
"html-keyboard-response","386","477316","0.0-16.0-0.54","60a68725b2b424dc0d7ce793","650c16f0f2faf8d7a0d14c09","651c1b2ca39dacc51175e1b7","null","null","<p style=""font-size: 60px; font-family: BACS"">ukYZkYL</p>","","","","","","","","",""
"html-keyboard-response","387","478331","0.0-16.0-0.55","60a68725b2b424dc0d7ce793","650c16f0f2faf8d7a0d14c09","651c1b2ca39dacc51175e1b7","null","null","<p style=""font-size: 60px; font-family: BACS"">ukYZkYL</p>","","","","","","","","",""
"html-keyboard-response","388","479340","0.0-16.0-0.56","60a68725b2b424dc0d7ce793","650c16f0f2faf8d7a0d14c09","651c1b2ca39dacc51175e1b7","null","null","<p style=""font-size: 60px; font-family: BACS"">ukYZkYL</p>","","","","","","","","",""
"html-keyboard-response","389","480353","0.0-16.0-0.57","60a68725b2b424dc0d7ce793","650c16f0f2faf8d7a0d14c09","651c1b2ca39dacc51175e1b7","null","null","<p style=""font-size: 60px; font-family: BACS"">ukYZkYL</p>","","","","","","","","",""
"html-keyboard-response","390","481365","0.0-16.0-0.58","60a68725b2b424dc0d7ce793","650c16f0f2faf8d7a0d14c09","651c1b2ca39dacc51175e1b7","null","null","<p style=""font-size: 60px; font-family: BACS"">ukYZkYL</p>","","","","","","","","",""
"html-keyboard-response","391","482380","0.0-16.0-0.59","60a68725b2b424dc0d7ce793","650c16f0f2faf8d7a0d14c09","651c1b2ca39dacc51175e1b7","null","null","<p style=""font-size: 60px; font-family: BACS"">ukYZkYL</p>","","","","","","","","",""
"html-keyboard-response","392","483391","0.0-16.0-0.60","60a68725b2b424dc0d7ce793","650c16f0f2faf8d7a0d14c09","651c1b2ca39dacc51175e1b7","null","null","<p style=""font-size: 60px; font-family: BACS"">ukYZkYL</p>","","","","","","","","",""
"html-keyboard-response","393","484405","0.0-16.0-0.61","60a68725b2b424dc0d7ce793","650c16f0f2faf8d7a0d14c09","651c1b2ca39dacc51175e1b7","null","null","<p style=""font-size: 60px; font-family: BACS"">ukYZkYL</p>","","","","","","","","",""
"html-keyboard-response","394","485412","0.0-16.0-0.62","60a68725b2b424dc0d7ce793","650c16f0f2faf8d7a0d14c09","651c1b2ca39dacc51175e1b7","null","null","<p style=""font-size: 60px; font-family: BACS"">ukYZkYL</p>","","","","","","","","",""
"html-keyboard-response","395","486424","0.0-16.0-0.63","60a68725b2b424dc0d7ce793","650c16f0f2faf8d7a0d14c09","651c1b2ca39dacc51175e1b7","null","null","<p style=""font-size: 60px; font-family: BACS"">ukYZkYL</p>","","","","","","","","",""
"html-keyboard-response","396","487437","0.0-16.0-0.64","60a68725b2b424dc0d7ce793","650c16f0f2faf8d7a0d14c09","651c1b2ca39dacc51175e1b7","null","null","<p style=""font-size: 60px; font-family: BACS"">ukYZkYL</p>","","","","","","","","",""
"html-keyboard-response","397","488449","0.0-16.0-0.65","60a68725b2b424dc0d7ce793","650c16f0f2faf8d7a0d14c09","651c1b2ca39dacc51175e1b7","null","null","<p style=""font-size: 60px; font-family: BACS"">ukYZkYL</p>","","","","","","","","",""
"html-keyboard-response","398","489463","0.0-16.0-0.66","60a68725b2b424dc0d7ce793","650c16f0f2faf8d7a0d14c09","651c1b2ca39dacc51175e1b7","null","null","<p style=""font-size: 60px; font-family: BACS"">ukYZkYL</p>","","","","","","","","",""
"html-keyboard-response","399","490476","0.0-16.0-0.67","60a68725b2b424dc0d7ce793","650c16f0f2faf8d7a0d14c09","651c1b2ca39dacc51175e1b7","null","null","<p style=""font-size: 60px; font-family: BACS"">ukYZkYL</p>","","","","","","","","",""
"html-keyboard-response","400","491489","0.0-16.0-0.68","60a68725b2b424dc0d7ce793","650c16f0f2faf8d7a0d14c09","651c1b2ca39dacc51175e1b7","null","null","<p style=""font-size: 60px; font-family: BACS"">ukYZkYL</p>","","","","","","","","",""
