"trial_type","trial_index","time_elapsed","internal_node_id","subject_id","study_id","session_id","rt","response","stimulus","success","item","task","correct_response","testing_condition","correct","target","confound","name"
"pavlovia","0","693","0.0-0.0","5fc781689771f106330abf6a","650c16f0f2faf8d7a0d14c09","651c1c7c6531011b4724a5c0","","","","","","","","","","","",""
"survey-html-form","1","25309","0.0-1.0","5fc781689771f106330abf6a","650c16f0f2faf8d7a0d14c09","651c1c7c6531011b4724a5c0","24615","{""ID"":""5fc781689771f106330abf6a""}","","","","","","","","","",""
"html-keyboard-response","2","39408","0.0-2.0","5fc781689771f106330abf6a","650c16f0f2faf8d7a0d14c09","651c1c7c6531011b4724a5c0","14098"," ","<p style=""font-size: 15px;"">Before beginning, we ask that you read the consent information and confirm your agreement to participate in the experiment.</p>
      <p style=""font-size: 15px;""> We ask that you remember that this is a research project and that your participation is entirely voluntary. You can stop your participation at any time, without needing to provide any explanation. The study we're asking you to participate in aims at examining how readers process written words. You will be engaged in a session of apprximately 20 minutes, followed by a brief questionnaire. You will have the opportunity to take a few breaks during the experiment. You will be paid £4 for your participation, corresponding to a rate of £8/hour. While this experiment looks at cognitive faculties, this experiment doesn't constitute clinical proof of eventual pathologies.</p>
      <p style=""font-size: 15px;"">All of the information collected thanks to yours and others' participation will be held in a secure password-protected server, and will not be shared with anyone not authorised to view it. Your personal information will be kept with an arbitrary participant ID. Thanks to this data anonymity process, any researcher analysing the data won't be able to track the information back to a specific participant. Therefore, this process will make identifying you impossibile, even when results from the study will be published in scientific reviews, presented at congresses, or at any other public forum. More generally, the collected data will be treated in accordance with the laws on privacy and conformity to the Legislative Degree n. 196 ""Code regarding the protection of personal data"" of the 30th of June 2003 and to the European Regulation 2016/670 (General Data Protection Regulation - GDPR). The Data Protection Officer is Avv. Valentina Carollo, who can be contacted at the following email addresses: <a href=""mailto:dpo@sissa.it"">dpo@sissa.it</a> or <a href=""mailto:rpd@sissa.it"">rpd@sissa.it</a> - PEC: <a href=""mailto:protocollo@pec.sissa.it"">protocollo@pec.sissa.it</a>.</p>
      <p style=""font-size: 15px;""> Before expressing your consent to participate, we would like to remind you again that in case you need explanations on any aspect of the experimental procedure, the researcher is at your disposition (<a href=""mailto:aliebelt@sissa.it"">aliebelt@sissa.it</a>, <a href=""mailto:davide.crepaldi@sissa.it"">davide.crepaldi@sissa.it</a>).</p>
      <p style=""font-size: 15px;"">If you would like to download the informed consent form, you can do so here: <a href=""BASL-Informed_Consent.pdf"" download>informed consent form</a>.</p>
      <p style=""font-size: 15px;"">We ask that you press the spacebar to proceed to the consent section.</p>","","","","","","","","",""
"survey-html-form","3","53105","0.0-3.0","5fc781689771f106330abf6a","650c16f0f2faf8d7a0d14c09","651c1c7c6531011b4724a5c0","13697","{""consent1"":""YES"",""consent2"":""YES"",""consent3"":""YES"",""consent4"":""YES"",""consent5"":""YES"",""consent6"":""YES""}","","","","","","","","","",""
"fullscreen","4","56315","0.0-4.0","5fc781689771f106330abf6a","650c16f0f2faf8d7a0d14c09","651c1c7c6531011b4724a5c0","","","","true","","","","","","","",""
"html-keyboard-response","5","81514","0.0-5.0","5fc781689771f106330abf6a","650c16f0f2faf8d7a0d14c09","651c1c7c6531011b4724a5c0","25198"," ","<p>Welcome, and thank you very much for your time!</p>
      <p>In this experiment, you'll be a language expert who's been asked to take a look at words that Earth has received in its first communication with aliens. Your task, in this first part of the experiment, is to pay close attention to the words you'll be shown; later, world leaders will ask you questions on what you saw. The words will be shown to you quite quickly; it seems that the aliens were in a hurry :-)</p>
      <p>Press the spacebar to continue.<p>","","","","","","","","",""
"html-keyboard-response","6","81581","0.0-6.0","5fc781689771f106330abf6a","650c16f0f2faf8d7a0d14c09","651c1c7c6531011b4724a5c0","null","null","<p style=""font-size: 120px; font-family: BACS""> </p>","","","","","","","","",""
"html-keyboard-response","7","91165","0.0-7.0","5fc781689771f106330abf6a","650c16f0f2faf8d7a0d14c09","651c1c7c6531011b4724a5c0","9582"," ","<p>Here is an example of the words you'll see:</p>
      <img src='esempio.png' height='400px'>
      <p>When you're ready to begin, press the spacebar.</p></div>","","","","","","","","",""
"html-keyboard-response","8","92179","0.0-8.0-0.0","5fc781689771f106330abf6a","650c16f0f2faf8d7a0d14c09","651c1c7c6531011b4724a5c0","null","null","<p style=""font-size: 60px; font-family: BACS"">YdudrZYd</p>","","","","","","","","",""
"html-keyboard-response","9","93185","0.0-8.0-0.1","5fc781689771f106330abf6a","650c16f0f2faf8d7a0d14c09","651c1c7c6531011b4724a5c0","null","null","<p style=""font-size: 60px; font-family: BACS"">RKYkhRKm</p>","","","","","","","","",""
"html-keyboard-response","10","94188","0.0-8.0-0.2","5fc781689771f106330abf6a","650c16f0f2faf8d7a0d14c09","651c1c7c6531011b4724a5c0","null","null","<p style=""font-size: 60px; font-family: BACS"">cuOJbukbY</p>","","","","","","","","",""
"html-keyboard-response","11","95194","0.0-8.0-0.3","5fc781689771f106330abf6a","650c16f0f2faf8d7a0d14c09","651c1c7c6531011b4724a5c0","null","null","<p style=""font-size: 60px; font-family: BACS"">BECkBbM</p>","","","","","","","","",""
"html-keyboard-response","12","96199","0.0-8.0-0.4","5fc781689771f106330abf6a","650c16f0f2faf8d7a0d14c09","651c1c7c6531011b4724a5c0","null","null","<p style=""font-size: 60px; font-family: BACS"">lmbYrZYd</p>","","","","","","","","",""
"html-keyboard-response","13","97205","0.0-8.0-0.5","5fc781689771f106330abf6a","650c16f0f2faf8d7a0d14c09","651c1c7c6531011b4724a5c0","null","null","<p style=""font-size: 60px; font-family: BACS"">kabJbukbY</p>","","","","","","","","",""
"html-keyboard-response","14","98211","0.0-8.0-0.6","5fc781689771f106330abf6a","650c16f0f2faf8d7a0d14c09","651c1c7c6531011b4724a5c0","null","null","<p style=""font-size: 60px; font-family: BACS"">BEPObRC</p>","","","","","","","","",""
"html-keyboard-response","15","99228","0.0-8.0-0.7","5fc781689771f106330abf6a","650c16f0f2faf8d7a0d14c09","651c1c7c6531011b4724a5c0","null","null","<p style=""font-size: 60px; font-family: BACS"">AmQOYukbY</p>","","","","","","","","",""
"html-keyboard-response","16","100232","0.0-8.0-0.8","5fc781689771f106330abf6a","650c16f0f2faf8d7a0d14c09","651c1c7c6531011b4724a5c0","null","null","<p style=""font-size: 60px; font-family: BACS"">UdYUQrULv</p>","","","","","","","","",""
"html-keyboard-response","17","101239","0.0-8.0-0.9","5fc781689771f106330abf6a","650c16f0f2faf8d7a0d14c09","651c1c7c6531011b4724a5c0","null","null","<p style=""font-size: 60px; font-family: BACS"">ubALmLaA</p>","","","","","","","","",""
"html-keyboard-response","18","102246","0.0-8.0-0.10","5fc781689771f106330abf6a","650c16f0f2faf8d7a0d14c09","651c1c7c6531011b4724a5c0","null","null","<p style=""font-size: 60px; font-family: BACS"">GAcYuda</p>","","","","","","","","",""
"html-keyboard-response","19","103264","0.0-8.0-0.11","5fc781689771f106330abf6a","650c16f0f2faf8d7a0d14c09","651c1c7c6531011b4724a5c0","null","null","<p style=""font-size: 60px; font-family: BACS"">BECkhRKm</p>","","","","","","","","",""
"html-keyboard-response","20","104270","0.0-8.0-0.12","5fc781689771f106330abf6a","650c16f0f2faf8d7a0d14c09","651c1c7c6531011b4724a5c0","null","null","<p style=""font-size: 60px; font-family: BACS"">YdudrULv</p>","","","","","","","","",""
"html-keyboard-response","21","105276","0.0-8.0-0.13","5fc781689771f106330abf6a","650c16f0f2faf8d7a0d14c09","651c1c7c6531011b4724a5c0","null","null","<p style=""font-size: 60px; font-family: BACS"">kabJbLaA</p>","","","","","","","","",""
"html-keyboard-response","22","106290","0.0-8.0-0.14","5fc781689771f106330abf6a","650c16f0f2faf8d7a0d14c09","651c1c7c6531011b4724a5c0","null","null","<p style=""font-size: 60px; font-family: BACS"">JdOAYukbY</p>","","","","","","","","",""
"html-keyboard-response","23","107295","0.0-8.0-0.15","5fc781689771f106330abf6a","650c16f0f2faf8d7a0d14c09","651c1c7c6531011b4724a5c0","null","null","<p style=""font-size: 60px; font-family: BACS"">OkGYrZYd</p>","","","","","","","","",""
"html-keyboard-response","24","108298","0.0-8.0-0.16","5fc781689771f106330abf6a","650c16f0f2faf8d7a0d14c09","651c1c7c6531011b4724a5c0","null","null","<p style=""font-size: 60px; font-family: BACS"">hBmMCYcM</p>","","","","","","","","",""
"html-keyboard-response","25","109304","0.0-8.0-0.17","5fc781689771f106330abf6a","650c16f0f2faf8d7a0d14c09","651c1c7c6531011b4724a5c0","null","null","<p style=""font-size: 60px; font-family: BACS"">GAcYLaA</p>","","","","","","","","",""
"html-keyboard-response","26","110307","0.0-8.0-0.18","5fc781689771f106330abf6a","650c16f0f2faf8d7a0d14c09","651c1c7c6531011b4724a5c0","null","null","<p style=""font-size: 60px; font-family: BACS"">cuOJbuda</p>","","","","","","","","",""
"html-keyboard-response","27","111311","0.0-8.0-0.19","5fc781689771f106330abf6a","650c16f0f2faf8d7a0d14c09","651c1c7c6531011b4724a5c0","null","null","<p style=""font-size: 60px; font-family: BACS"">MBmEYcM</p>","","","","","","","","",""
"html-keyboard-response","28","112326","0.0-8.0-0.20","5fc781689771f106330abf6a","650c16f0f2faf8d7a0d14c09","651c1c7c6531011b4724a5c0","null","null","<p style=""font-size: 60px; font-family: BACS"">hTDdbRC</p>","","","","","","","","",""
"html-keyboard-response","29","113342","0.0-8.0-0.21","5fc781689771f106330abf6a","650c16f0f2faf8d7a0d14c09","651c1c7c6531011b4724a5c0","null","null","<p style=""font-size: 60px; font-family: BACS"">AmQOYrULv</p>","","","","","","","","",""
"html-keyboard-response","30","114357","0.0-8.0-0.22","5fc781689771f106330abf6a","650c16f0f2faf8d7a0d14c09","651c1c7c6531011b4724a5c0","null","null","<p style=""font-size: 60px; font-family: BACS"">BEPOBbM</p>","","","","","","","","",""
"html-keyboard-response","31","115363","0.0-8.0-0.23","5fc781689771f106330abf6a","650c16f0f2faf8d7a0d14c09","651c1c7c6531011b4724a5c0","null","null","<p style=""font-size: 60px; font-family: BACS"">AmQOYuda</p>","","","","","","","","",""
"html-keyboard-response","32","116380","0.0-8.0-0.24","5fc781689771f106330abf6a","650c16f0f2faf8d7a0d14c09","651c1c7c6531011b4724a5c0","null","null","<p style=""font-size: 60px; font-family: BACS"">PctRClRE</p>","","","","","","","","",""
"html-keyboard-response","33","117387","0.0-8.0-0.25","5fc781689771f106330abf6a","650c16f0f2faf8d7a0d14c09","651c1c7c6531011b4724a5c0","null","null","<p style=""font-size: 60px; font-family: BACS"">RKYkbRC</p>","","","","","","","","",""
"html-keyboard-response","34","118389","0.0-8.0-0.26","5fc781689771f106330abf6a","650c16f0f2faf8d7a0d14c09","651c1c7c6531011b4724a5c0","null","null","<p style=""font-size: 60px; font-family: BACS"">bRABtlRE</p>","","","","","","","","",""
"html-keyboard-response","35","119392","0.0-8.0-0.27","5fc781689771f106330abf6a","650c16f0f2faf8d7a0d14c09","651c1c7c6531011b4724a5c0","null","null","<p style=""font-size: 60px; font-family: BACS"">YdudLaA</p>","","","","","","","","",""
"html-keyboard-response","36","120394","0.0-8.0-0.28","5fc781689771f106330abf6a","650c16f0f2faf8d7a0d14c09","651c1c7c6531011b4724a5c0","null","null","<p style=""font-size: 60px; font-family: BACS"">cuOJbrULv</p>","","","","","","","","",""
"html-keyboard-response","37","121398","0.0-8.0-0.29","5fc781689771f106330abf6a","650c16f0f2faf8d7a0d14c09","651c1c7c6531011b4724a5c0","null","null","<p style=""font-size: 60px; font-family: BACS"">kDRKchRKm</p>","","","","","","","","",""
"html-keyboard-response","38","122402","0.0-8.0-0.30","5fc781689771f106330abf6a","650c16f0f2faf8d7a0d14c09","651c1c7c6531011b4724a5c0","null","null","<p style=""font-size: 60px; font-family: BACS"">AmQOYLaA</p>","","","","","","","","",""
"html-keyboard-response","39","123404","0.0-8.0-0.31","5fc781689771f106330abf6a","650c16f0f2faf8d7a0d14c09","651c1c7c6531011b4724a5c0","null","null","<p style=""font-size: 60px; font-family: BACS"">RKYkBbM</p>","","","","","","","","",""
"html-keyboard-response","40","124417","0.0-8.0-0.32","5fc781689771f106330abf6a","650c16f0f2faf8d7a0d14c09","651c1c7c6531011b4724a5c0","null","null","<p style=""font-size: 60px; font-family: BACS"">kabJbrULv</p>","","","","","","","","",""
"html-keyboard-response","41","125434","0.0-8.0-0.33","5fc781689771f106330abf6a","650c16f0f2faf8d7a0d14c09","651c1c7c6531011b4724a5c0","null","null","<p style=""font-size: 60px; font-family: BACS"">MBmEhRKm</p>","","","","","","","","",""
"html-keyboard-response","42","126436","0.0-8.0-0.34","5fc781689771f106330abf6a","650c16f0f2faf8d7a0d14c09","651c1c7c6531011b4724a5c0","null","null","<p style=""font-size: 60px; font-family: BACS"">YdudukbY</p>","","","","","","","","",""
"html-keyboard-response","43","127450","0.0-8.0-0.35","5fc781689771f106330abf6a","650c16f0f2faf8d7a0d14c09","651c1c7c6531011b4724a5c0","null","null","<p style=""font-size: 60px; font-family: BACS"">kDRKclRE</p>","","","","","","","","",""
"html-keyboard-response","44","128467","0.0-8.0-0.36","5fc781689771f106330abf6a","650c16f0f2faf8d7a0d14c09","651c1c7c6531011b4724a5c0","null","null","<p style=""font-size: 60px; font-family: BACS"">ubALmukbY</p>","","","","","","","","",""
"html-keyboard-response","45","129472","0.0-8.0-0.37","5fc781689771f106330abf6a","650c16f0f2faf8d7a0d14c09","651c1c7c6531011b4724a5c0","null","null","<p style=""font-size: 60px; font-family: BACS"">hBmMCbRC</p>","","","","","","","","",""
"html-keyboard-response","46","130475","0.0-8.0-0.38","5fc781689771f106330abf6a","650c16f0f2faf8d7a0d14c09","651c1c7c6531011b4724a5c0","null","null","<p style=""font-size: 60px; font-family: BACS"">GAcYukbY</p>","","","","","","","","",""
"html-keyboard-response","47","131482","0.0-8.0-0.39","5fc781689771f106330abf6a","650c16f0f2faf8d7a0d14c09","651c1c7c6531011b4724a5c0","null","null","<p style=""font-size: 60px; font-family: BACS"">hBmMCBbM</p>","","","","","","","","",""
"html-keyboard-response","48","132498","0.0-8.0-0.40","5fc781689771f106330abf6a","650c16f0f2faf8d7a0d14c09","651c1c7c6531011b4724a5c0","null","null","<p style=""font-size: 60px; font-family: BACS"">MBmEbRC</p>","","","","","","","","",""
"html-keyboard-response","49","133504","0.0-8.0-0.41","5fc781689771f106330abf6a","650c16f0f2faf8d7a0d14c09","651c1c7c6531011b4724a5c0","null","null","<p style=""font-size: 60px; font-family: BACS"">OkGYuda</p>","","","","","","","","",""
"html-keyboard-response","50","134507","0.0-8.0-0.42","5fc781689771f106330abf6a","650c16f0f2faf8d7a0d14c09","651c1c7c6531011b4724a5c0","null","null","<p style=""font-size: 60px; font-family: BACS"">hBmMClRE</p>","","","","","","","","",""
"html-keyboard-response","51","135510","0.0-8.0-0.43","5fc781689771f106330abf6a","650c16f0f2faf8d7a0d14c09","651c1c7c6531011b4724a5c0","null","null","<p style=""font-size: 60px; font-family: BACS"">OkGYrULv</p>","","","","","","","","",""
"html-keyboard-response","52","136521","0.0-8.0-0.44","5fc781689771f106330abf6a","650c16f0f2faf8d7a0d14c09","651c1c7c6531011b4724a5c0","null","null","<p style=""font-size: 60px; font-family: BACS"">ubALmuda</p>","","","","","","","","",""
"html-keyboard-response","53","137538","0.0-8.0-0.45","5fc781689771f106330abf6a","650c16f0f2faf8d7a0d14c09","651c1c7c6531011b4724a5c0","null","null","<p style=""font-size: 60px; font-family: BACS"">GAcYrZYd</p>","","","","","","","","",""
"html-keyboard-response","54","138543","0.0-8.0-0.46","5fc781689771f106330abf6a","650c16f0f2faf8d7a0d14c09","651c1c7c6531011b4724a5c0","null","null","<p style=""font-size: 60px; font-family: BACS"">PctRChRKm</p>","","","","","","","","",""
"html-keyboard-response","55","139548","0.0-8.0-0.47","5fc781689771f106330abf6a","650c16f0f2faf8d7a0d14c09","651c1c7c6531011b4724a5c0","null","null","<p style=""font-size: 60px; font-family: BACS"">MBmElRE</p>","","","","","","","","",""
"html-keyboard-response","56","140553","0.0-8.0-0.48","5fc781689771f106330abf6a","650c16f0f2faf8d7a0d14c09","651c1c7c6531011b4724a5c0","null","null","<p style=""font-size: 60px; font-family: BACS"">BEPOYcM</p>","","","","","","","","",""
"html-keyboard-response","57","141558","0.0-8.0-0.49","5fc781689771f106330abf6a","650c16f0f2faf8d7a0d14c09","651c1c7c6531011b4724a5c0","null","null","<p style=""font-size: 60px; font-family: BACS"">kDRKcbRC</p>","","","","","","","","",""
"html-keyboard-response","58","142563","0.0-8.0-0.50","5fc781689771f106330abf6a","650c16f0f2faf8d7a0d14c09","651c1c7c6531011b4724a5c0","null","null","<p style=""font-size: 60px; font-family: BACS"">CchtdhRKm</p>","","","","","","","","",""
"html-keyboard-response","59","143564","0.0-8.0-0.51","5fc781689771f106330abf6a","650c16f0f2faf8d7a0d14c09","651c1c7c6531011b4724a5c0","null","null","<p style=""font-size: 60px; font-family: BACS"">cuOJbLaA</p>","","","","","","","","",""
"html-keyboard-response","60","144581","0.0-8.0-0.52","5fc781689771f106330abf6a","650c16f0f2faf8d7a0d14c09","651c1c7c6531011b4724a5c0","null","null","<p style=""font-size: 60px; font-family: BACS"">JdOAYuda</p>","","","","","","","","",""
"html-keyboard-response","61","145598","0.0-8.0-0.53","5fc781689771f106330abf6a","650c16f0f2faf8d7a0d14c09","651c1c7c6531011b4724a5c0","null","null","<p style=""font-size: 60px; font-family: BACS"">hTDdhRKm</p>","","","","","","","","",""
"html-keyboard-response","62","146614","0.0-8.0-0.54","5fc781689771f106330abf6a","650c16f0f2faf8d7a0d14c09","651c1c7c6531011b4724a5c0","null","null","<p style=""font-size: 60px; font-family: BACS"">UdYUQrZYd</p>","","","","","","","","",""
"html-keyboard-response","63","147631","0.0-8.0-0.55","5fc781689771f106330abf6a","650c16f0f2faf8d7a0d14c09","651c1c7c6531011b4724a5c0","null","null","<p style=""font-size: 60px; font-family: BACS"">CchtdlRE</p>","","","","","","","","",""
"html-keyboard-response","64","148635","0.0-8.0-0.56","5fc781689771f106330abf6a","650c16f0f2faf8d7a0d14c09","651c1c7c6531011b4724a5c0","null","null","<p style=""font-size: 60px; font-family: BACS"">bRABtBbM</p>","","","","","","","","",""
"html-keyboard-response","65","149639","0.0-8.0-0.57","5fc781689771f106330abf6a","650c16f0f2faf8d7a0d14c09","651c1c7c6531011b4724a5c0","null","null","<p style=""font-size: 60px; font-family: BACS"">JdOAYrULv</p>","","","","","","","","",""
"html-keyboard-response","66","150643","0.0-8.0-0.58","5fc781689771f106330abf6a","650c16f0f2faf8d7a0d14c09","651c1c7c6531011b4724a5c0","null","null","<p style=""font-size: 60px; font-family: BACS"">PctRCYcM</p>","","","","","","","","",""
"html-keyboard-response","67","151647","0.0-8.0-0.59","5fc781689771f106330abf6a","650c16f0f2faf8d7a0d14c09","651c1c7c6531011b4724a5c0","null","null","<p style=""font-size: 60px; font-family: BACS"">hTDdlRE</p>","","","","","","","","",""
"html-keyboard-response","68","152650","0.0-8.0-0.60","5fc781689771f106330abf6a","650c16f0f2faf8d7a0d14c09","651c1c7c6531011b4724a5c0","null","null","<p style=""font-size: 60px; font-family: BACS"">PctRCBbM</p>","","","","","","","","",""
"html-keyboard-response","69","153653","0.0-8.0-0.61","5fc781689771f106330abf6a","650c16f0f2faf8d7a0d14c09","651c1c7c6531011b4724a5c0","null","null","<p style=""font-size: 60px; font-family: BACS"">bRABtbRC</p>","","","","","","","","",""
"html-keyboard-response","70","154657","0.0-8.0-0.62","5fc781689771f106330abf6a","650c16f0f2faf8d7a0d14c09","651c1c7c6531011b4724a5c0","null","null","<p style=""font-size: 60px; font-family: BACS"">UdYUQukbY</p>","","","","","","","","",""
"html-keyboard-response","71","155673","0.0-8.0-0.63","5fc781689771f106330abf6a","650c16f0f2faf8d7a0d14c09","651c1c7c6531011b4724a5c0","null","null","<p style=""font-size: 60px; font-family: BACS"">kabJbrZYd</p>","","","","","","","","",""
"html-keyboard-response","72","156688","0.0-8.0-0.64","5fc781689771f106330abf6a","650c16f0f2faf8d7a0d14c09","651c1c7c6531011b4724a5c0","null","null","<p style=""font-size: 60px; font-family: BACS"">CchtdYcM</p>","","","","","","","","",""
"html-keyboard-response","73","157694","0.0-8.0-0.65","5fc781689771f106330abf6a","650c16f0f2faf8d7a0d14c09","651c1c7c6531011b4724a5c0","null","null","<p style=""font-size: 60px; font-family: BACS"">BEPOlRE</p>","","","","","","","","",""
"html-keyboard-response","74","158696","0.0-8.0-0.66","5fc781689771f106330abf6a","650c16f0f2faf8d7a0d14c09","651c1c7c6531011b4724a5c0","null","null","<p style=""font-size: 60px; font-family: BACS"">kDRKcBbM</p>","","","","","","","","",""
"html-keyboard-response","75","159714","0.0-8.0-0.67","5fc781689771f106330abf6a","650c16f0f2faf8d7a0d14c09","651c1c7c6531011b4724a5c0","null","null","<p style=""font-size: 60px; font-family: BACS"">OkGYLaA</p>","","","","","","","","",""
"html-keyboard-response","76","160722","0.0-8.0-0.68","5fc781689771f106330abf6a","650c16f0f2faf8d7a0d14c09","651c1c7c6531011b4724a5c0","null","null","<p style=""font-size: 60px; font-family: BACS"">hTDdYcM</p>","","","","","","","","",""
"html-keyboard-response","77","161725","0.0-8.0-0.69","5fc781689771f106330abf6a","650c16f0f2faf8d7a0d14c09","651c1c7c6531011b4724a5c0","null","null","<p style=""font-size: 60px; font-family: BACS"">lmbYrULv</p>","","","","","","","","",""
"html-keyboard-response","78","162733","0.0-8.0-0.70","5fc781689771f106330abf6a","650c16f0f2faf8d7a0d14c09","651c1c7c6531011b4724a5c0","null","null","<p style=""font-size: 60px; font-family: BACS"">BECkYcM</p>","","","","","","","","",""
"html-keyboard-response","79","163739","0.0-8.0-0.71","5fc781689771f106330abf6a","650c16f0f2faf8d7a0d14c09","651c1c7c6531011b4724a5c0","null","null","<p style=""font-size: 60px; font-family: BACS"">lmbYLaA</p>","","","","","","","","",""
"html-keyboard-response","80","164744","0.0-8.0-0.72","5fc781689771f106330abf6a","650c16f0f2faf8d7a0d14c09","651c1c7c6531011b4724a5c0","null","null","<p style=""font-size: 60px; font-family: BACS"">ubALmrZYd</p>","","","","","","","","",""
"html-keyboard-response","81","165747","0.0-8.0-0.73","5fc781689771f106330abf6a","650c16f0f2faf8d7a0d14c09","651c1c7c6531011b4724a5c0","null","null","<p style=""font-size: 60px; font-family: BACS"">BECkbRC</p>","","","","","","","","",""
"html-keyboard-response","82","166764","0.0-8.0-0.74","5fc781689771f106330abf6a","650c16f0f2faf8d7a0d14c09","651c1c7c6531011b4724a5c0","null","null","<p style=""font-size: 60px; font-family: BACS"">CchtdBbM</p>","","","","","","","","",""
"html-keyboard-response","83","167767","0.0-8.0-0.75","5fc781689771f106330abf6a","650c16f0f2faf8d7a0d14c09","651c1c7c6531011b4724a5c0","null","null","<p style=""font-size: 60px; font-family: BACS"">RKYkYcM</p>","","","","","","","","",""
"html-keyboard-response","84","168775","0.0-8.0-0.76","5fc781689771f106330abf6a","650c16f0f2faf8d7a0d14c09","651c1c7c6531011b4724a5c0","null","null","<p style=""font-size: 60px; font-family: BACS"">UdYUQuda</p>","","","","","","","","",""
"html-keyboard-response","85","169779","0.0-8.0-0.77","5fc781689771f106330abf6a","650c16f0f2faf8d7a0d14c09","651c1c7c6531011b4724a5c0","null","null","<p style=""font-size: 60px; font-family: BACS"">bRABthRKm</p>","","","","","","","","",""
"html-keyboard-response","86","170783","0.0-8.0-0.78","5fc781689771f106330abf6a","650c16f0f2faf8d7a0d14c09","651c1c7c6531011b4724a5c0","null","null","<p style=""font-size: 60px; font-family: BACS"">lmbYuda</p>","","","","","","","","",""
"html-keyboard-response","87","171787","0.0-8.0-0.79","5fc781689771f106330abf6a","650c16f0f2faf8d7a0d14c09","651c1c7c6531011b4724a5c0","null","null","<p style=""font-size: 60px; font-family: BACS"">JdOAYrZYd</p>","","","","","","","","",""
"html-keyboard-response","88","178269","0.0-9.0","5fc781689771f106330abf6a","650c16f0f2faf8d7a0d14c09","651c1c7c6531011b4724a5c0","6480"," ","<p>Great, you've seen the first block of words. You may now take a short break.</p>
      <p>Press the spacebar when you're ready to continue.</p>","","","","","","","","",""
"html-keyboard-response","89","179283","0.0-10.0-0.0","5fc781689771f106330abf6a","650c16f0f2faf8d7a0d14c09","651c1c7c6531011b4724a5c0","null","null","<p style=""font-size: 60px; font-family: BACS"">kabJbLaA</p>","","","","","","","","",""
"html-keyboard-response","90","180289","0.0-10.0-0.1","5fc781689771f106330abf6a","650c16f0f2faf8d7a0d14c09","651c1c7c6531011b4724a5c0","null","null","<p style=""font-size: 60px; font-family: BACS"">hTDdhRKm</p>","","","","","","","","",""
"html-keyboard-response","91","181302","0.0-10.0-0.2","5fc781689771f106330abf6a","650c16f0f2faf8d7a0d14c09","651c1c7c6531011b4724a5c0","null","null","<p style=""font-size: 60px; font-family: BACS"">AmQOYuda</p>","","","","","","","","",""
"html-keyboard-response","92","182309","0.0-10.0-0.3","5fc781689771f106330abf6a","650c16f0f2faf8d7a0d14c09","651c1c7c6531011b4724a5c0","null","null","<p style=""font-size: 60px; font-family: BACS"">YdudrULv</p>","","","","","","","","",""
"html-keyboard-response","93","183317","0.0-10.0-0.4","5fc781689771f106330abf6a","650c16f0f2faf8d7a0d14c09","651c1c7c6531011b4724a5c0","null","null","<p style=""font-size: 60px; font-family: BACS"">PctRClRE</p>","","","","","","","","",""
"html-keyboard-response","94","184324","0.0-10.0-0.5","5fc781689771f106330abf6a","650c16f0f2faf8d7a0d14c09","651c1c7c6531011b4724a5c0","null","null","<p style=""font-size: 60px; font-family: BACS"">MBmEYcM</p>","","","","","","","","",""
"html-keyboard-response","95","185332","0.0-10.0-0.6","5fc781689771f106330abf6a","650c16f0f2faf8d7a0d14c09","651c1c7c6531011b4724a5c0","null","null","<p style=""font-size: 60px; font-family: BACS"">JdOAYrZYd</p>","","","","","","","","",""
"html-keyboard-response","96","186338","0.0-10.0-0.7","5fc781689771f106330abf6a","650c16f0f2faf8d7a0d14c09","651c1c7c6531011b4724a5c0","null","null","<p style=""font-size: 60px; font-family: BACS"">BECkYcM</p>","","","","","","","","",""
"html-keyboard-response","97","187344","0.0-10.0-0.8","5fc781689771f106330abf6a","650c16f0f2faf8d7a0d14c09","651c1c7c6531011b4724a5c0","null","null","<p style=""font-size: 60px; font-family: BACS"">hBmMCbRC</p>","","","","","","","","",""
"html-keyboard-response","98","188348","0.0-10.0-0.9","5fc781689771f106330abf6a","650c16f0f2faf8d7a0d14c09","651c1c7c6531011b4724a5c0","null","null","<p style=""font-size: 60px; font-family: BACS"">JdOAYuda</p>","","","","","","","","",""
"html-keyboard-response","99","189353","0.0-10.0-0.10","5fc781689771f106330abf6a","650c16f0f2faf8d7a0d14c09","651c1c7c6531011b4724a5c0","null","null","<p style=""font-size: 60px; font-family: BACS"">UdYUQrULv</p>","","","","","","","","",""
"html-keyboard-response","100","190360","0.0-10.0-0.11","5fc781689771f106330abf6a","650c16f0f2faf8d7a0d14c09","651c1c7c6531011b4724a5c0","null","null","<p style=""font-size: 60px; font-family: BACS"">kabJbukbY</p>","","","","","","","","",""
"html-keyboard-response","101","191367","0.0-10.0-0.12","5fc781689771f106330abf6a","650c16f0f2faf8d7a0d14c09","651c1c7c6531011b4724a5c0","null","null","<p style=""font-size: 60px; font-family: BACS"">PctRCYcM</p>","","","","","","","","",""
"html-keyboard-response","102","192371","0.0-10.0-0.13","5fc781689771f106330abf6a","650c16f0f2faf8d7a0d14c09","651c1c7c6531011b4724a5c0","null","null","<p style=""font-size: 60px; font-family: BACS"">cuOJbuda</p>","","","","","","","","",""
"html-keyboard-response","103","193373","0.0-10.0-0.14","5fc781689771f106330abf6a","650c16f0f2faf8d7a0d14c09","651c1c7c6531011b4724a5c0","null","null","<p style=""font-size: 60px; font-family: BACS"">RKYkBbM</p>","","","","","","","","",""
"html-keyboard-response","104","194390","0.0-10.0-0.15","5fc781689771f106330abf6a","650c16f0f2faf8d7a0d14c09","651c1c7c6531011b4724a5c0","null","null","<p style=""font-size: 60px; font-family: BACS"">UdYUQrZYd</p>","","","","","","","","",""
"html-keyboard-response","105","195393","0.0-10.0-0.16","5fc781689771f106330abf6a","650c16f0f2faf8d7a0d14c09","651c1c7c6531011b4724a5c0","null","null","<p style=""font-size: 60px; font-family: BACS"">BECkhRKm</p>","","","","","","","","",""
"html-keyboard-response","106","196399","0.0-10.0-0.17","5fc781689771f106330abf6a","650c16f0f2faf8d7a0d14c09","651c1c7c6531011b4724a5c0","null","null","<p style=""font-size: 60px; font-family: BACS"">GAcYLaA</p>","","","","","","","","",""
"html-keyboard-response","107","197404","0.0-10.0-0.18","5fc781689771f106330abf6a","650c16f0f2faf8d7a0d14c09","651c1c7c6531011b4724a5c0","null","null","<p style=""font-size: 60px; font-family: BACS"">PctRChRKm</p>","","","","","","","","",""
"html-keyboard-response","108","198406","0.0-10.0-0.19","5fc781689771f106330abf6a","650c16f0f2faf8d7a0d14c09","651c1c7c6531011b4724a5c0","null","null","<p style=""font-size: 60px; font-family: BACS"">BEPOYcM</p>","","","","","","","","",""
"html-keyboard-response","109","199410","0.0-10.0-0.20","5fc781689771f106330abf6a","650c16f0f2faf8d7a0d14c09","651c1c7c6531011b4724a5c0","null","null","<p style=""font-size: 60px; font-family: BACS"">hBmMCBbM</p>","","","","","","","","",""
"html-keyboard-response","110","200427","0.0-10.0-0.21","5fc781689771f106330abf6a","650c16f0f2faf8d7a0d14c09","651c1c7c6531011b4724a5c0","null","null","<p style=""font-size: 60px; font-family: BACS"">cuOJbLaA</p>","","","","","","","","",""
"html-keyboard-response","111","201435","0.0-10.0-0.22","5fc781689771f106330abf6a","650c16f0f2faf8d7a0d14c09","651c1c7c6531011b4724a5c0","null","null","<p style=""font-size: 60px; font-family: BACS"">ubALmuda</p>","","","","","","","","",""
"html-keyboard-response","112","202436","0.0-10.0-0.23","5fc781689771f106330abf6a","650c16f0f2faf8d7a0d14c09","651c1c7c6531011b4724a5c0","null","null","<p style=""font-size: 60px; font-family: BACS"">cuOJbrULv</p>","","","","","","","","",""
"html-keyboard-response","113","203439","0.0-10.0-0.24","5fc781689771f106330abf6a","650c16f0f2faf8d7a0d14c09","651c1c7c6531011b4724a5c0","null","null","<p style=""font-size: 60px; font-family: BACS"">bRABtlRE</p>","","","","","","","","",""
"html-keyboard-response","114","204455","0.0-10.0-0.25","5fc781689771f106330abf6a","650c16f0f2faf8d7a0d14c09","651c1c7c6531011b4724a5c0","null","null","<p style=""font-size: 60px; font-family: BACS"">GAcYuda</p>","","","","","","","","",""
"html-keyboard-response","115","205461","0.0-10.0-0.26","5fc781689771f106330abf6a","650c16f0f2faf8d7a0d14c09","651c1c7c6531011b4724a5c0","null","null","<p style=""font-size: 60px; font-family: BACS"">AmQOYrULv</p>","","","","","","","","",""
"html-keyboard-response","116","206476","0.0-10.0-0.27","5fc781689771f106330abf6a","650c16f0f2faf8d7a0d14c09","651c1c7c6531011b4724a5c0","null","null","<p style=""font-size: 60px; font-family: BACS"">UdYUQukbY</p>","","","","","","","","",""
"html-keyboard-response","117","207483","0.0-10.0-0.28","5fc781689771f106330abf6a","650c16f0f2faf8d7a0d14c09","651c1c7c6531011b4724a5c0","null","null","<p style=""font-size: 60px; font-family: BACS"">CchtdhRKm</p>","","","","","","","","",""
"html-keyboard-response","118","208486","0.0-10.0-0.29","5fc781689771f106330abf6a","650c16f0f2faf8d7a0d14c09","651c1c7c6531011b4724a5c0","null","null","<p style=""font-size: 60px; font-family: BACS"">RKYkbRC</p>","","","","","","","","",""
"html-keyboard-response","119","209488","0.0-10.0-0.30","5fc781689771f106330abf6a","650c16f0f2faf8d7a0d14c09","651c1c7c6531011b4724a5c0","null","null","<p style=""font-size: 60px; font-family: BACS"">kabJbrULv</p>","","","","","","","","",""
"html-keyboard-response","120","210492","0.0-10.0-0.31","5fc781689771f106330abf6a","650c16f0f2faf8d7a0d14c09","651c1c7c6531011b4724a5c0","null","null","<p style=""font-size: 60px; font-family: BACS"">AmQOYukbY</p>","","","","","","","","",""
"html-keyboard-response","121","211496","0.0-10.0-0.32","5fc781689771f106330abf6a","650c16f0f2faf8d7a0d14c09","651c1c7c6531011b4724a5c0","null","null","<p style=""font-size: 60px; font-family: BACS"">lmbYuda</p>","","","","","","","","",""
"html-keyboard-response","122","212502","0.0-10.0-0.33","5fc781689771f106330abf6a","650c16f0f2faf8d7a0d14c09","651c1c7c6531011b4724a5c0","null","null","<p style=""font-size: 60px; font-family: BACS"">CchtdBbM</p>","","","","","","","","",""
"html-keyboard-response","123","213508","0.0-10.0-0.34","5fc781689771f106330abf6a","650c16f0f2faf8d7a0d14c09","651c1c7c6531011b4724a5c0","null","null","<p style=""font-size: 60px; font-family: BACS"">kDRKchRKm</p>","","","","","","","","",""
"html-keyboard-response","124","214512","0.0-10.0-0.35","5fc781689771f106330abf6a","650c16f0f2faf8d7a0d14c09","651c1c7c6531011b4724a5c0","null","null","<p style=""font-size: 60px; font-family: BACS"">BECkbRC</p>","","","","","","","","",""
"html-keyboard-response","125","215515","0.0-10.0-0.36","5fc781689771f106330abf6a","650c16f0f2faf8d7a0d14c09","651c1c7c6531011b4724a5c0","null","null","<p style=""font-size: 60px; font-family: BACS"">ubALmukbY</p>","","","","","","","","",""
"html-keyboard-response","126","216519","0.0-10.0-0.37","5fc781689771f106330abf6a","650c16f0f2faf8d7a0d14c09","651c1c7c6531011b4724a5c0","null","null","<p style=""font-size: 60px; font-family: BACS"">AmQOYLaA</p>","","","","","","","","",""
"html-keyboard-response","127","217523","0.0-10.0-0.38","5fc781689771f106330abf6a","650c16f0f2faf8d7a0d14c09","651c1c7c6531011b4724a5c0","null","null","<p style=""font-size: 60px; font-family: BACS"">kDRKcbRC</p>","","","","","","","","",""
"html-keyboard-response","128","218525","0.0-10.0-0.39","5fc781689771f106330abf6a","650c16f0f2faf8d7a0d14c09","651c1c7c6531011b4724a5c0","null","null","<p style=""font-size: 60px; font-family: BACS"">hBmMClRE</p>","","","","","","","","",""
"html-keyboard-response","129","219540","0.0-10.0-0.40","5fc781689771f106330abf6a","650c16f0f2faf8d7a0d14c09","651c1c7c6531011b4724a5c0","null","null","<p style=""font-size: 60px; font-family: BACS"">CchtdYcM</p>","","","","","","","","",""
"html-keyboard-response","130","220545","0.0-10.0-0.41","5fc781689771f106330abf6a","650c16f0f2faf8d7a0d14c09","651c1c7c6531011b4724a5c0","null","null","<p style=""font-size: 60px; font-family: BACS"">OkGYuda</p>","","","","","","","","",""
"html-keyboard-response","131","221553","0.0-10.0-0.42","5fc781689771f106330abf6a","650c16f0f2faf8d7a0d14c09","651c1c7c6531011b4724a5c0","null","null","<p style=""font-size: 60px; font-family: BACS"">kDRKclRE</p>","","","","","","","","",""
"html-keyboard-response","132","222559","0.0-10.0-0.43","5fc781689771f106330abf6a","650c16f0f2faf8d7a0d14c09","651c1c7c6531011b4724a5c0","null","null","<p style=""font-size: 60px; font-family: BACS"">OkGYLaA</p>","","","","","","","","",""
"html-keyboard-response","133","223565","0.0-10.0-0.44","5fc781689771f106330abf6a","650c16f0f2faf8d7a0d14c09","651c1c7c6531011b4724a5c0","null","null","<p style=""font-size: 60px; font-family: BACS"">JdOAYrULv</p>","","","","","","","","",""
"html-keyboard-response","134","224570","0.0-10.0-0.45","5fc781689771f106330abf6a","650c16f0f2faf8d7a0d14c09","651c1c7c6531011b4724a5c0","null","null","<p style=""font-size: 60px; font-family: BACS"">BEPOBbM</p>","","","","","","","","",""
"html-keyboard-response","135","225572","0.0-10.0-0.46","5fc781689771f106330abf6a","650c16f0f2faf8d7a0d14c09","651c1c7c6531011b4724a5c0","null","null","<p style=""font-size: 60px; font-family: BACS"">OkGYrZYd</p>","","","","","","","","",""
"html-keyboard-response","136","226587","0.0-10.0-0.47","5fc781689771f106330abf6a","650c16f0f2faf8d7a0d14c09","651c1c7c6531011b4724a5c0","null","null","<p style=""font-size: 60px; font-family: BACS"">hBmMCYcM</p>","","","","","","","","",""
"html-keyboard-response","137","227590","0.0-10.0-0.48","5fc781689771f106330abf6a","650c16f0f2faf8d7a0d14c09","651c1c7c6531011b4724a5c0","null","null","<p style=""font-size: 60px; font-family: BACS"">BECkBbM</p>","","","","","","","","",""
"html-keyboard-response","138","228595","0.0-10.0-0.49","5fc781689771f106330abf6a","650c16f0f2faf8d7a0d14c09","651c1c7c6531011b4724a5c0","null","null","<p style=""font-size: 60px; font-family: BACS"">lmbYrULv</p>","","","","","","","","",""
"html-keyboard-response","139","229599","0.0-10.0-0.50","5fc781689771f106330abf6a","650c16f0f2faf8d7a0d14c09","651c1c7c6531011b4724a5c0","null","null","<p style=""font-size: 60px; font-family: BACS"">GAcYukbY</p>","","","","","","","","",""
"html-keyboard-response","140","230604","0.0-10.0-0.51","5fc781689771f106330abf6a","650c16f0f2faf8d7a0d14c09","651c1c7c6531011b4724a5c0","null","null","<p style=""font-size: 60px; font-family: BACS"">hTDdYcM</p>","","","","","","","","",""
"html-keyboard-response","141","231608","0.0-10.0-0.52","5fc781689771f106330abf6a","650c16f0f2faf8d7a0d14c09","651c1c7c6531011b4724a5c0","null","null","<p style=""font-size: 60px; font-family: BACS"">MBmElRE</p>","","","","","","","","",""
"html-keyboard-response","142","232609","0.0-10.0-0.53","5fc781689771f106330abf6a","650c16f0f2faf8d7a0d14c09","651c1c7c6531011b4724a5c0","null","null","<p style=""font-size: 60px; font-family: BACS"">RKYkhRKm</p>","","","","","","","","",""
"html-keyboard-response","143","233611","0.0-10.0-0.54","5fc781689771f106330abf6a","650c16f0f2faf8d7a0d14c09","651c1c7c6531011b4724a5c0","null","null","<p style=""font-size: 60px; font-family: BACS"">YdudukbY</p>","","","","","","","","",""
"html-keyboard-response","144","234614","0.0-10.0-0.55","5fc781689771f106330abf6a","650c16f0f2faf8d7a0d14c09","651c1c7c6531011b4724a5c0","null","null","<p style=""font-size: 60px; font-family: BACS"">hTDdlRE</p>","","","","","","","","",""
"html-keyboard-response","145","235616","0.0-10.0-0.56","5fc781689771f106330abf6a","650c16f0f2faf8d7a0d14c09","651c1c7c6531011b4724a5c0","null","null","<p style=""font-size: 60px; font-family: BACS"">ubALmrZYd</p>","","","","","","","","",""
"html-keyboard-response","146","236619","0.0-10.0-0.57","5fc781689771f106330abf6a","650c16f0f2faf8d7a0d14c09","651c1c7c6531011b4724a5c0","null","null","<p style=""font-size: 60px; font-family: BACS"">CchtdlRE</p>","","","","","","","","",""
"html-keyboard-response","147","237623","0.0-10.0-0.58","5fc781689771f106330abf6a","650c16f0f2faf8d7a0d14c09","651c1c7c6531011b4724a5c0","null","null","<p style=""font-size: 60px; font-family: BACS"">OkGYrULv</p>","","","","","","","","",""
"html-keyboard-response","148","238629","0.0-10.0-0.59","5fc781689771f106330abf6a","650c16f0f2faf8d7a0d14c09","651c1c7c6531011b4724a5c0","null","null","<p style=""font-size: 60px; font-family: BACS"">bRABthRKm</p>","","","","","","","","",""
"html-keyboard-response","149","239642","0.0-10.0-0.60","5fc781689771f106330abf6a","650c16f0f2faf8d7a0d14c09","651c1c7c6531011b4724a5c0","null","null","<p style=""font-size: 60px; font-family: BACS"">lmbYLaA</p>","","","","","","","","",""
"html-keyboard-response","150","240658","0.0-10.0-0.61","5fc781689771f106330abf6a","650c16f0f2faf8d7a0d14c09","651c1c7c6531011b4724a5c0","null","null","<p style=""font-size: 60px; font-family: BACS"">kabJbrZYd</p>","","","","","","","","",""
"html-keyboard-response","151","241674","0.0-10.0-0.62","5fc781689771f106330abf6a","650c16f0f2faf8d7a0d14c09","651c1c7c6531011b4724a5c0","null","null","<p style=""font-size: 60px; font-family: BACS"">UdYUQuda</p>","","","","","","","","",""
"html-keyboard-response","152","242679","0.0-10.0-0.63","5fc781689771f106330abf6a","650c16f0f2faf8d7a0d14c09","651c1c7c6531011b4724a5c0","null","null","<p style=""font-size: 60px; font-family: BACS"">hTDdbRC</p>","","","","","","","","",""
"html-keyboard-response","153","243683","0.0-10.0-0.64","5fc781689771f106330abf6a","650c16f0f2faf8d7a0d14c09","651c1c7c6531011b4724a5c0","null","null","<p style=""font-size: 60px; font-family: BACS"">bRABtBbM</p>","","","","","","","","",""
"html-keyboard-response","154","244699","0.0-10.0-0.65","5fc781689771f106330abf6a","650c16f0f2faf8d7a0d14c09","651c1c7c6531011b4724a5c0","null","null","<p style=""font-size: 60px; font-family: BACS"">cuOJbukbY</p>","","","","","","","","",""
"html-keyboard-response","155","245704","0.0-10.0-0.66","5fc781689771f106330abf6a","650c16f0f2faf8d7a0d14c09","651c1c7c6531011b4724a5c0","null","null","<p style=""font-size: 60px; font-family: BACS"">PctRCBbM</p>","","","","","","","","",""
"html-keyboard-response","156","246706","0.0-10.0-0.67","5fc781689771f106330abf6a","650c16f0f2faf8d7a0d14c09","651c1c7c6531011b4724a5c0","null","null","<p style=""font-size: 60px; font-family: BACS"">GAcYrZYd</p>","","","","","","","","",""
"html-keyboard-response","157","247709","0.0-10.0-0.68","5fc781689771f106330abf6a","650c16f0f2faf8d7a0d14c09","651c1c7c6531011b4724a5c0","null","null","<p style=""font-size: 60px; font-family: BACS"">kDRKcBbM</p>","","","","","","","","",""
"html-keyboard-response","158","248712","0.0-10.0-0.69","5fc781689771f106330abf6a","650c16f0f2faf8d7a0d14c09","651c1c7c6531011b4724a5c0","null","null","<p style=""font-size: 60px; font-family: BACS"">RKYkYcM</p>","","","","","","","","",""
"html-keyboard-response","159","249719","0.0-10.0-0.70","5fc781689771f106330abf6a","650c16f0f2faf8d7a0d14c09","651c1c7c6531011b4724a5c0","null","null","<p style=""font-size: 60px; font-family: BACS"">BEPObRC</p>","","","","","","","","",""
"html-keyboard-response","160","250722","0.0-10.0-0.71","5fc781689771f106330abf6a","650c16f0f2faf8d7a0d14c09","651c1c7c6531011b4724a5c0","null","null","<p style=""font-size: 60px; font-family: BACS"">MBmEhRKm</p>","","","","","","","","",""
"html-keyboard-response","161","251725","0.0-10.0-0.72","5fc781689771f106330abf6a","650c16f0f2faf8d7a0d14c09","651c1c7c6531011b4724a5c0","null","null","<p style=""font-size: 60px; font-family: BACS"">BEPOlRE</p>","","","","","","","","",""
"html-keyboard-response","162","252730","0.0-10.0-0.73","5fc781689771f106330abf6a","650c16f0f2faf8d7a0d14c09","651c1c7c6531011b4724a5c0","null","null","<p style=""font-size: 60px; font-family: BACS"">bRABtbRC</p>","","","","","","","","",""
"html-keyboard-response","163","253740","0.0-10.0-0.74","5fc781689771f106330abf6a","650c16f0f2faf8d7a0d14c09","651c1c7c6531011b4724a5c0","null","null","<p style=""font-size: 60px; font-family: BACS"">JdOAYukbY</p>","","","","","","","","",""
"html-keyboard-response","164","254746","0.0-10.0-0.75","5fc781689771f106330abf6a","650c16f0f2faf8d7a0d14c09","651c1c7c6531011b4724a5c0","null","null","<p style=""font-size: 60px; font-family: BACS"">lmbYrZYd</p>","","","","","","","","",""
"html-keyboard-response","165","255753","0.0-10.0-0.76","5fc781689771f106330abf6a","650c16f0f2faf8d7a0d14c09","651c1c7c6531011b4724a5c0","null","null","<p style=""font-size: 60px; font-family: BACS"">YdudLaA</p>","","","","","","","","",""
"html-keyboard-response","166","256757","0.0-10.0-0.77","5fc781689771f106330abf6a","650c16f0f2faf8d7a0d14c09","651c1c7c6531011b4724a5c0","null","null","<p style=""font-size: 60px; font-family: BACS"">MBmEbRC</p>","","","","","","","","",""
"html-keyboard-response","167","257761","0.0-10.0-0.78","5fc781689771f106330abf6a","650c16f0f2faf8d7a0d14c09","651c1c7c6531011b4724a5c0","null","null","<p style=""font-size: 60px; font-family: BACS"">YdudrZYd</p>","","","","","","","","",""
"html-keyboard-response","168","258774","0.0-10.0-0.79","5fc781689771f106330abf6a","650c16f0f2faf8d7a0d14c09","651c1c7c6531011b4724a5c0","null","null","<p style=""font-size: 60px; font-family: BACS"">ubALmLaA</p>","","","","","","","","",""
"html-keyboard-response","169","275667","0.0-11.0","5fc781689771f106330abf6a","650c16f0f2faf8d7a0d14c09","651c1c7c6531011b4724a5c0","16892"," ","<p>Great, you've seen the second block of words. You may now take a short break.</p>
      <p>Press the spacebar when you're ready to continue.</p>","","","","","","","","",""
"html-keyboard-response","170","276672","0.0-12.0-0.0","5fc781689771f106330abf6a","650c16f0f2faf8d7a0d14c09","651c1c7c6531011b4724a5c0","null","null","<p style=""font-size: 60px; font-family: BACS"">GAcYuda</p>","","","","","","","","",""
"html-keyboard-response","171","277677","0.0-12.0-0.1","5fc781689771f106330abf6a","650c16f0f2faf8d7a0d14c09","651c1c7c6531011b4724a5c0","null","null","<p style=""font-size: 60px; font-family: BACS"">kabJbrULv</p>","","","","","","","","",""
"html-keyboard-response","172","278680","0.0-12.0-0.2","5fc781689771f106330abf6a","650c16f0f2faf8d7a0d14c09","651c1c7c6531011b4724a5c0","null","null","<p style=""font-size: 60px; font-family: BACS"">lmbYrZYd</p>","","","","","","","","",""
"html-keyboard-response","173","279686","0.0-12.0-0.3","5fc781689771f106330abf6a","650c16f0f2faf8d7a0d14c09","651c1c7c6531011b4724a5c0","null","null","<p style=""font-size: 60px; font-family: BACS"">RKYkhRKm</p>","","","","","","","","",""
"html-keyboard-response","174","280692","0.0-12.0-0.4","5fc781689771f106330abf6a","650c16f0f2faf8d7a0d14c09","651c1c7c6531011b4724a5c0","null","null","<p style=""font-size: 60px; font-family: BACS"">ubALmuda</p>","","","","","","","","",""
"html-keyboard-response","175","281697","0.0-12.0-0.5","5fc781689771f106330abf6a","650c16f0f2faf8d7a0d14c09","651c1c7c6531011b4724a5c0","null","null","<p style=""font-size: 60px; font-family: BACS"">BECkYcM</p>","","","","","","","","",""
"html-keyboard-response","176","282701","0.0-12.0-0.6","5fc781689771f106330abf6a","650c16f0f2faf8d7a0d14c09","651c1c7c6531011b4724a5c0","null","null","<p style=""font-size: 60px; font-family: BACS"">hTDdbRC</p>","","","","","","","","",""
"html-keyboard-response","177","283708","0.0-12.0-0.7","5fc781689771f106330abf6a","650c16f0f2faf8d7a0d14c09","651c1c7c6531011b4724a5c0","null","null","<p style=""font-size: 60px; font-family: BACS"">kabJbrZYd</p>","","","","","","","","",""
"html-keyboard-response","178","284714","0.0-12.0-0.8","5fc781689771f106330abf6a","650c16f0f2faf8d7a0d14c09","651c1c7c6531011b4724a5c0","null","null","<p style=""font-size: 60px; font-family: BACS"">ubALmukbY</p>","","","","","","","","",""
"html-keyboard-response","179","285723","0.0-12.0-0.9","5fc781689771f106330abf6a","650c16f0f2faf8d7a0d14c09","651c1c7c6531011b4724a5c0","null","null","<p style=""font-size: 60px; font-family: BACS"">hBmMClRE</p>","","","","","","","","",""
"html-keyboard-response","180","286725","0.0-12.0-0.10","5fc781689771f106330abf6a","650c16f0f2faf8d7a0d14c09","651c1c7c6531011b4724a5c0","null","null","<p style=""font-size: 60px; font-family: BACS"">kabJbukbY</p>","","","","","","","","",""
"html-keyboard-response","181","287730","0.0-12.0-0.11","5fc781689771f106330abf6a","650c16f0f2faf8d7a0d14c09","651c1c7c6531011b4724a5c0","null","null","<p style=""font-size: 60px; font-family: BACS"">bRABtlRE</p>","","","","","","","","",""
"html-keyboard-response","182","288738","0.0-12.0-0.12","5fc781689771f106330abf6a","650c16f0f2faf8d7a0d14c09","651c1c7c6531011b4724a5c0","null","null","<p style=""font-size: 60px; font-family: BACS"">UdYUQukbY</p>","","","","","","","","",""
"html-keyboard-response","183","289744","0.0-12.0-0.13","5fc781689771f106330abf6a","650c16f0f2faf8d7a0d14c09","651c1c7c6531011b4724a5c0","null","null","<p style=""font-size: 60px; font-family: BACS"">kDRKclRE</p>","","","","","","","","",""
"html-keyboard-response","184","290761","0.0-12.0-0.14","5fc781689771f106330abf6a","650c16f0f2faf8d7a0d14c09","651c1c7c6531011b4724a5c0","null","null","<p style=""font-size: 60px; font-family: BACS"">PctRChRKm</p>","","","","","","","","",""
"html-keyboard-response","185","291769","0.0-12.0-0.15","5fc781689771f106330abf6a","650c16f0f2faf8d7a0d14c09","651c1c7c6531011b4724a5c0","null","null","<p style=""font-size: 60px; font-family: BACS"">BEPOBbM</p>","","","","","","","","",""
"html-keyboard-response","186","292774","0.0-12.0-0.16","5fc781689771f106330abf6a","650c16f0f2faf8d7a0d14c09","651c1c7c6531011b4724a5c0","null","null","<p style=""font-size: 60px; font-family: BACS"">MBmEhRKm</p>","","","","","","","","",""
"html-keyboard-response","187","293778","0.0-12.0-0.17","5fc781689771f106330abf6a","650c16f0f2faf8d7a0d14c09","651c1c7c6531011b4724a5c0","null","null","<p style=""font-size: 60px; font-family: BACS"">kDRKcBbM</p>","","","","","","","","",""
"html-keyboard-response","188","294783","0.0-12.0-0.18","5fc781689771f106330abf6a","650c16f0f2faf8d7a0d14c09","651c1c7c6531011b4724a5c0","null","null","<p style=""font-size: 60px; font-family: BACS"">MBmEbRC</p>","","","","","","","","",""
"html-keyboard-response","189","295786","0.0-12.0-0.19","5fc781689771f106330abf6a","650c16f0f2faf8d7a0d14c09","651c1c7c6531011b4724a5c0","null","null","<p style=""font-size: 60px; font-family: BACS"">JdOAYukbY</p>","","","","","","","","",""
"html-keyboard-response","190","296791","0.0-12.0-0.20","5fc781689771f106330abf6a","650c16f0f2faf8d7a0d14c09","651c1c7c6531011b4724a5c0","null","null","<p style=""font-size: 60px; font-family: BACS"">kDRKchRKm</p>","","","","","","","","",""
"html-keyboard-response","191","297795","0.0-12.0-0.21","5fc781689771f106330abf6a","650c16f0f2faf8d7a0d14c09","651c1c7c6531011b4724a5c0","null","null","<p style=""font-size: 60px; font-family: BACS"">YdudukbY</p>","","","","","","","","",""
"html-keyboard-response","192","298811","0.0-12.0-0.22","5fc781689771f106330abf6a","650c16f0f2faf8d7a0d14c09","651c1c7c6531011b4724a5c0","null","null","<p style=""font-size: 60px; font-family: BACS"">JdOAYrULv</p>","","","","","","","","",""
"html-keyboard-response","193","299816","0.0-12.0-0.23","5fc781689771f106330abf6a","650c16f0f2faf8d7a0d14c09","651c1c7c6531011b4724a5c0","null","null","<p style=""font-size: 60px; font-family: BACS"">AmQOYLaA</p>","","","","","","","","",""
"html-keyboard-response","194","300830","0.0-12.0-0.24","5fc781689771f106330abf6a","650c16f0f2faf8d7a0d14c09","651c1c7c6531011b4724a5c0","null","null","<p style=""font-size: 60px; font-family: BACS"">RKYkbRC</p>","","","","","","","","",""
"html-keyboard-response","195","301836","0.0-12.0-0.25","5fc781689771f106330abf6a","650c16f0f2faf8d7a0d14c09","651c1c7c6531011b4724a5c0","null","null","<p style=""font-size: 60px; font-family: BACS"">JdOAYrZYd</p>","","","","","","","","",""
"html-keyboard-response","196","302843","0.0-12.0-0.26","5fc781689771f106330abf6a","650c16f0f2faf8d7a0d14c09","651c1c7c6531011b4724a5c0","null","null","<p style=""font-size: 60px; font-family: BACS"">cuOJbLaA</p>","","","","","","","","",""
"html-keyboard-response","197","303846","0.0-12.0-0.27","5fc781689771f106330abf6a","650c16f0f2faf8d7a0d14c09","651c1c7c6531011b4724a5c0","null","null","<p style=""font-size: 60px; font-family: BACS"">AmQOYrULv</p>","","","","","","","","",""
"html-keyboard-response","198","304851","0.0-12.0-0.28","5fc781689771f106330abf6a","650c16f0f2faf8d7a0d14c09","651c1c7c6531011b4724a5c0","null","null","<p style=""font-size: 60px; font-family: BACS"">BECkBbM</p>","","","","","","","","",""
"html-keyboard-response","199","305854","0.0-12.0-0.29","5fc781689771f106330abf6a","650c16f0f2faf8d7a0d14c09","651c1c7c6531011b4724a5c0","null","null","<p style=""font-size: 60px; font-family: BACS"">RKYkYcM</p>","","","","","","","","",""
"html-keyboard-response","200","306870","0.0-12.0-0.30","5fc781689771f106330abf6a","650c16f0f2faf8d7a0d14c09","651c1c7c6531011b4724a5c0","null","null","<p style=""font-size: 60px; font-family: BACS"">BEPOlRE</p>","","","","","","","","",""
"html-keyboard-response","201","307886","0.0-12.0-0.31","5fc781689771f106330abf6a","650c16f0f2faf8d7a0d14c09","651c1c7c6531011b4724a5c0","null","null","<p style=""font-size: 60px; font-family: BACS"">YdudrULv</p>","","","","","","","","",""
"html-keyboard-response","202","308888","0.0-12.0-0.32","5fc781689771f106330abf6a","650c16f0f2faf8d7a0d14c09","651c1c7c6531011b4724a5c0","null","null","<p style=""font-size: 60px; font-family: BACS"">cuOJbukbY</p>","","","","","","","","",""
"html-keyboard-response","203","309907","0.0-12.0-0.33","5fc781689771f106330abf6a","650c16f0f2faf8d7a0d14c09","651c1c7c6531011b4724a5c0","null","null","<p style=""font-size: 60px; font-family: BACS"">MBmEYcM</p>","","","","","","","","",""
"html-keyboard-response","204","310912","0.0-12.0-0.34","5fc781689771f106330abf6a","650c16f0f2faf8d7a0d14c09","651c1c7c6531011b4724a5c0","null","null","<p style=""font-size: 60px; font-family: BACS"">RKYkBbM</p>","","","","","","","","",""
"html-keyboard-response","205","311917","0.0-12.0-0.35","5fc781689771f106330abf6a","650c16f0f2faf8d7a0d14c09","651c1c7c6531011b4724a5c0","null","null","<p style=""font-size: 60px; font-family: BACS"">bRABtbRC</p>","","","","","","","","",""
"html-keyboard-response","206","312918","0.0-12.0-0.36","5fc781689771f106330abf6a","650c16f0f2faf8d7a0d14c09","651c1c7c6531011b4724a5c0","null","null","<p style=""font-size: 60px; font-family: BACS"">lmbYLaA</p>","","","","","","","","",""
"html-keyboard-response","207","313924","0.0-12.0-0.37","5fc781689771f106330abf6a","650c16f0f2faf8d7a0d14c09","651c1c7c6531011b4724a5c0","null","null","<p style=""font-size: 60px; font-family: BACS"">AmQOYukbY</p>","","","","","","","","",""
"html-keyboard-response","208","314928","0.0-12.0-0.38","5fc781689771f106330abf6a","650c16f0f2faf8d7a0d14c09","651c1c7c6531011b4724a5c0","null","null","<p style=""font-size: 60px; font-family: BACS"">lmbYuda</p>","","","","","","","","",""
"html-keyboard-response","209","315945","0.0-12.0-0.39","5fc781689771f106330abf6a","650c16f0f2faf8d7a0d14c09","651c1c7c6531011b4724a5c0","null","null","<p style=""font-size: 60px; font-family: BACS"">MBmElRE</p>","","","","","","","","",""
"html-keyboard-response","210","316959","0.0-12.0-0.40","5fc781689771f106330abf6a","650c16f0f2faf8d7a0d14c09","651c1c7c6531011b4724a5c0","null","null","<p style=""font-size: 60px; font-family: BACS"">ubALmrZYd</p>","","","","","","","","",""
"html-keyboard-response","211","317961","0.0-12.0-0.41","5fc781689771f106330abf6a","650c16f0f2faf8d7a0d14c09","651c1c7c6531011b4724a5c0","null","null","<p style=""font-size: 60px; font-family: BACS"">OkGYLaA</p>","","","","","","","","",""
"html-keyboard-response","212","318970","0.0-12.0-0.42","5fc781689771f106330abf6a","650c16f0f2faf8d7a0d14c09","651c1c7c6531011b4724a5c0","null","null","<p style=""font-size: 60px; font-family: BACS"">cuOJbuda</p>","","","","","","","","",""
"html-keyboard-response","213","319972","0.0-12.0-0.43","5fc781689771f106330abf6a","650c16f0f2faf8d7a0d14c09","651c1c7c6531011b4724a5c0","null","null","<p style=""font-size: 60px; font-family: BACS"">YdudLaA</p>","","","","","","","","",""
"html-keyboard-response","214","320987","0.0-12.0-0.44","5fc781689771f106330abf6a","650c16f0f2faf8d7a0d14c09","651c1c7c6531011b4724a5c0","null","null","<p style=""font-size: 60px; font-family: BACS"">hTDdYcM</p>","","","","","","","","",""
"html-keyboard-response","215","322003","0.0-12.0-0.45","5fc781689771f106330abf6a","650c16f0f2faf8d7a0d14c09","651c1c7c6531011b4724a5c0","null","null","<p style=""font-size: 60px; font-family: BACS"">GAcYrZYd</p>","","","","","","","","",""
"html-keyboard-response","216","323007","0.0-12.0-0.46","5fc781689771f106330abf6a","650c16f0f2faf8d7a0d14c09","651c1c7c6531011b4724a5c0","null","null","<p style=""font-size: 60px; font-family: BACS"">OkGYrULv</p>","","","","","","","","",""
"html-keyboard-response","217","324015","0.0-12.0-0.47","5fc781689771f106330abf6a","650c16f0f2faf8d7a0d14c09","651c1c7c6531011b4724a5c0","null","null","<p style=""font-size: 60px; font-family: BACS"">BEPOYcM</p>","","","","","","","","",""
"html-keyboard-response","218","325021","0.0-12.0-0.48","5fc781689771f106330abf6a","650c16f0f2faf8d7a0d14c09","651c1c7c6531011b4724a5c0","null","null","<p style=""font-size: 60px; font-family: BACS"">CchtdlRE</p>","","","","","","","","",""
"html-keyboard-response","219","326027","0.0-12.0-0.49","5fc781689771f106330abf6a","650c16f0f2faf8d7a0d14c09","651c1c7c6531011b4724a5c0","null","null","<p style=""font-size: 60px; font-family: BACS"">PctRCYcM</p>","","","","","","","","",""
"html-keyboard-response","220","327043","0.0-12.0-0.50","5fc781689771f106330abf6a","650c16f0f2faf8d7a0d14c09","651c1c7c6531011b4724a5c0","null","null","<p style=""font-size: 60px; font-family: BACS"">hBmMCBbM</p>","","","","","","","","",""
"html-keyboard-response","221","328045","0.0-12.0-0.51","5fc781689771f106330abf6a","650c16f0f2faf8d7a0d14c09","651c1c7c6531011b4724a5c0","null","null","<p style=""font-size: 60px; font-family: BACS"">OkGYuda</p>","","","","","","","","",""
"html-keyboard-response","222","329047","0.0-12.0-0.52","5fc781689771f106330abf6a","650c16f0f2faf8d7a0d14c09","651c1c7c6531011b4724a5c0","null","null","<p style=""font-size: 60px; font-family: BACS"">PctRClRE</p>","","","","","","","","",""
"html-keyboard-response","223","330049","0.0-12.0-0.53","5fc781689771f106330abf6a","650c16f0f2faf8d7a0d14c09","651c1c7c6531011b4724a5c0","null","null","<p style=""font-size: 60px; font-family: BACS"">BECkhRKm</p>","","","","","","","","",""
"html-keyboard-response","224","331053","0.0-12.0-0.54","5fc781689771f106330abf6a","650c16f0f2faf8d7a0d14c09","651c1c7c6531011b4724a5c0","null","null","<p style=""font-size: 60px; font-family: BACS"">kabJbLaA</p>","","","","","","","","",""
"html-keyboard-response","225","332059","0.0-12.0-0.55","5fc781689771f106330abf6a","650c16f0f2faf8d7a0d14c09","651c1c7c6531011b4724a5c0","null","null","<p style=""font-size: 60px; font-family: BACS"">CchtdBbM</p>","","","","","","","","",""
"html-keyboard-response","226","333061","0.0-12.0-0.56","5fc781689771f106330abf6a","650c16f0f2faf8d7a0d14c09","651c1c7c6531011b4724a5c0","null","null","<p style=""font-size: 60px; font-family: BACS"">GAcYLaA</p>","","","","","","","","",""
"html-keyboard-response","227","334064","0.0-12.0-0.57","5fc781689771f106330abf6a","650c16f0f2faf8d7a0d14c09","651c1c7c6531011b4724a5c0","null","null","<p style=""font-size: 60px; font-family: BACS"">hBmMCbRC</p>","","","","","","","","",""
"html-keyboard-response","228","335068","0.0-12.0-0.58","5fc781689771f106330abf6a","650c16f0f2faf8d7a0d14c09","651c1c7c6531011b4724a5c0","null","null","<p style=""font-size: 60px; font-family: BACS"">lmbYrULv</p>","","","","","","","","",""
"html-keyboard-response","229","336077","0.0-12.0-0.59","5fc781689771f106330abf6a","650c16f0f2faf8d7a0d14c09","651c1c7c6531011b4724a5c0","null","null","<p style=""font-size: 60px; font-family: BACS"">kDRKcbRC</p>","","","","","","","","",""
"html-keyboard-response","230","337094","0.0-12.0-0.60","5fc781689771f106330abf6a","650c16f0f2faf8d7a0d14c09","651c1c7c6531011b4724a5c0","null","null","<p style=""font-size: 60px; font-family: BACS"">OkGYrZYd</p>","","","","","","","","",""
"html-keyboard-response","231","338108","0.0-12.0-0.61","5fc781689771f106330abf6a","650c16f0f2faf8d7a0d14c09","651c1c7c6531011b4724a5c0","null","null","<p style=""font-size: 60px; font-family: BACS"">UdYUQuda</p>","","","","","","","","",""
"html-keyboard-response","232","339112","0.0-12.0-0.62","5fc781689771f106330abf6a","650c16f0f2faf8d7a0d14c09","651c1c7c6531011b4724a5c0","null","null","<p style=""font-size: 60px; font-family: BACS"">ubALmLaA</p>","","","","","","","","",""
"html-keyboard-response","233","340119","0.0-12.0-0.63","5fc781689771f106330abf6a","650c16f0f2faf8d7a0d14c09","651c1c7c6531011b4724a5c0","null","null","<p style=""font-size: 60px; font-family: BACS"">YdudrZYd</p>","","","","","","","","",""
"html-keyboard-response","234","341135","0.0-12.0-0.64","5fc781689771f106330abf6a","650c16f0f2faf8d7a0d14c09","651c1c7c6531011b4724a5c0","null","null","<p style=""font-size: 60px; font-family: BACS"">cuOJbrULv</p>","","","","","","","","",""
"html-keyboard-response","235","342142","0.0-12.0-0.65","5fc781689771f106330abf6a","650c16f0f2faf8d7a0d14c09","651c1c7c6531011b4724a5c0","null","null","<p style=""font-size: 60px; font-family: BACS"">bRABthRKm</p>","","","","","","","","",""
"html-keyboard-response","236","343149","0.0-12.0-0.66","5fc781689771f106330abf6a","650c16f0f2faf8d7a0d14c09","651c1c7c6531011b4724a5c0","null","null","<p style=""font-size: 60px; font-family: BACS"">UdYUQrULv</p>","","","","","","","","",""
"html-keyboard-response","237","344152","0.0-12.0-0.67","5fc781689771f106330abf6a","650c16f0f2faf8d7a0d14c09","651c1c7c6531011b4724a5c0","null","null","<p style=""font-size: 60px; font-family: BACS"">BEPObRC</p>","","","","","","","","",""
"html-keyboard-response","238","345156","0.0-12.0-0.68","5fc781689771f106330abf6a","650c16f0f2faf8d7a0d14c09","651c1c7c6531011b4724a5c0","null","null","<p style=""font-size: 60px; font-family: BACS"">bRABtBbM</p>","","","","","","","","",""
"html-keyboard-response","239","346159","0.0-12.0-0.69","5fc781689771f106330abf6a","650c16f0f2faf8d7a0d14c09","651c1c7c6531011b4724a5c0","null","null","<p style=""font-size: 60px; font-family: BACS"">hBmMCYcM</p>","","","","","","","","",""
"html-keyboard-response","240","347176","0.0-12.0-0.70","5fc781689771f106330abf6a","650c16f0f2faf8d7a0d14c09","651c1c7c6531011b4724a5c0","null","null","<p style=""font-size: 60px; font-family: BACS"">CchtdhRKm</p>","","","","","","","","",""
"html-keyboard-response","241","348179","0.0-12.0-0.71","5fc781689771f106330abf6a","650c16f0f2faf8d7a0d14c09","651c1c7c6531011b4724a5c0","null","null","<p style=""font-size: 60px; font-family: BACS"">GAcYukbY</p>","","","","","","","","",""
"html-keyboard-response","242","349185","0.0-12.0-0.72","5fc781689771f106330abf6a","650c16f0f2faf8d7a0d14c09","651c1c7c6531011b4724a5c0","null","null","<p style=""font-size: 60px; font-family: BACS"">JdOAYuda</p>","","","","","","","","",""
"html-keyboard-response","243","350193","0.0-12.0-0.73","5fc781689771f106330abf6a","650c16f0f2faf8d7a0d14c09","651c1c7c6531011b4724a5c0","null","null","<p style=""font-size: 60px; font-family: BACS"">UdYUQrZYd</p>","","","","","","","","",""
"html-keyboard-response","244","351195","0.0-12.0-0.74","5fc781689771f106330abf6a","650c16f0f2faf8d7a0d14c09","651c1c7c6531011b4724a5c0","null","null","<p style=""font-size: 60px; font-family: BACS"">hTDdlRE</p>","","","","","","","","",""
"html-keyboard-response","245","352211","0.0-12.0-0.75","5fc781689771f106330abf6a","650c16f0f2faf8d7a0d14c09","651c1c7c6531011b4724a5c0","null","null","<p style=""font-size: 60px; font-family: BACS"">CchtdYcM</p>","","","","","","","","",""
"html-keyboard-response","246","353215","0.0-12.0-0.76","5fc781689771f106330abf6a","650c16f0f2faf8d7a0d14c09","651c1c7c6531011b4724a5c0","null","null","<p style=""font-size: 60px; font-family: BACS"">hTDdhRKm</p>","","","","","","","","",""
"html-keyboard-response","247","354217","0.0-12.0-0.77","5fc781689771f106330abf6a","650c16f0f2faf8d7a0d14c09","651c1c7c6531011b4724a5c0","null","null","<p style=""font-size: 60px; font-family: BACS"">AmQOYuda</p>","","","","","","","","",""
"html-keyboard-response","248","355223","0.0-12.0-0.78","5fc781689771f106330abf6a","650c16f0f2faf8d7a0d14c09","651c1c7c6531011b4724a5c0","null","null","<p style=""font-size: 60px; font-family: BACS"">PctRCBbM</p>","","","","","","","","",""
"html-keyboard-response","249","356227","0.0-12.0-0.79","5fc781689771f106330abf6a","650c16f0f2faf8d7a0d14c09","651c1c7c6531011b4724a5c0","null","null","<p style=""font-size: 60px; font-family: BACS"">BECkbRC</p>","","","","","","","","",""
"html-keyboard-response","250","363861","0.0-13.0","5fc781689771f106330abf6a","650c16f0f2faf8d7a0d14c09","651c1c7c6531011b4724a5c0","7633"," ","<p>Great, you've seen the third block of words. You may now take a short break.</p>
      <p>Press the spacebar when you're ready to continue.</p>","","","","","","","","",""
"html-keyboard-response","251","364869","0.0-14.0-0.0","5fc781689771f106330abf6a","650c16f0f2faf8d7a0d14c09","651c1c7c6531011b4724a5c0","null","null","<p style=""font-size: 60px; font-family: BACS"">ubALmukbY</p>","","","","","","","","",""
"html-keyboard-response","252","365872","0.0-14.0-0.1","5fc781689771f106330abf6a","650c16f0f2faf8d7a0d14c09","651c1c7c6531011b4724a5c0","null","null","<p style=""font-size: 60px; font-family: BACS"">PctRCYcM</p>","","","","","","","","",""
"html-keyboard-response","253","366876","0.0-14.0-0.2","5fc781689771f106330abf6a","650c16f0f2faf8d7a0d14c09","651c1c7c6531011b4724a5c0","null","null","<p style=""font-size: 60px; font-family: BACS"">RKYkbRC</p>","","","","","","","","",""
"html-keyboard-response","254","367892","0.0-14.0-0.3","5fc781689771f106330abf6a","650c16f0f2faf8d7a0d14c09","651c1c7c6531011b4724a5c0","null","null","<p style=""font-size: 60px; font-family: BACS"">lmbYrULv</p>","","","","","","","","",""
"html-keyboard-response","255","368894","0.0-14.0-0.4","5fc781689771f106330abf6a","650c16f0f2faf8d7a0d14c09","651c1c7c6531011b4724a5c0","null","null","<p style=""font-size: 60px; font-family: BACS"">kabJbukbY</p>","","","","","","","","",""
"html-keyboard-response","256","369896","0.0-14.0-0.5","5fc781689771f106330abf6a","650c16f0f2faf8d7a0d14c09","651c1c7c6531011b4724a5c0","null","null","<p style=""font-size: 60px; font-family: BACS"">OkGYrZYd</p>","","","","","","","","",""
"html-keyboard-response","257","370901","0.0-14.0-0.6","5fc781689771f106330abf6a","650c16f0f2faf8d7a0d14c09","651c1c7c6531011b4724a5c0","null","null","<p style=""font-size: 60px; font-family: BACS"">kabJbrULv</p>","","","","","","","","",""
"html-keyboard-response","258","371904","0.0-14.0-0.7","5fc781689771f106330abf6a","650c16f0f2faf8d7a0d14c09","651c1c7c6531011b4724a5c0","null","null","<p style=""font-size: 60px; font-family: BACS"">BEPOBbM</p>","","","","","","","","",""
"html-keyboard-response","259","372909","0.0-14.0-0.8","5fc781689771f106330abf6a","650c16f0f2faf8d7a0d14c09","651c1c7c6531011b4724a5c0","null","null","<p style=""font-size: 60px; font-family: BACS"">JdOAYrULv</p>","","","","","","","","",""
"html-keyboard-response","260","373925","0.0-14.0-0.9","5fc781689771f106330abf6a","650c16f0f2faf8d7a0d14c09","651c1c7c6531011b4724a5c0","null","null","<p style=""font-size: 60px; font-family: BACS"">BECkYcM</p>","","","","","","","","",""
"html-keyboard-response","261","374941","0.0-14.0-0.10","5fc781689771f106330abf6a","650c16f0f2faf8d7a0d14c09","651c1c7c6531011b4724a5c0","null","null","<p style=""font-size: 60px; font-family: BACS"">PctRClRE</p>","","","","","","","","",""
"html-keyboard-response","262","375949","0.0-14.0-0.11","5fc781689771f106330abf6a","650c16f0f2faf8d7a0d14c09","651c1c7c6531011b4724a5c0","null","null","<p style=""font-size: 60px; font-family: BACS"">AmQOYrULv</p>","","","","","","","","",""
"html-keyboard-response","263","376957","0.0-14.0-0.12","5fc781689771f106330abf6a","650c16f0f2faf8d7a0d14c09","651c1c7c6531011b4724a5c0","null","null","<p style=""font-size: 60px; font-family: BACS"">lmbYuda</p>","","","","","","","","",""
"html-keyboard-response","264","377961","0.0-14.0-0.13","5fc781689771f106330abf6a","650c16f0f2faf8d7a0d14c09","651c1c7c6531011b4724a5c0","null","null","<p style=""font-size: 60px; font-family: BACS"">kabJbLaA</p>","","","","","","","","",""
"html-keyboard-response","265","378976","0.0-14.0-0.14","5fc781689771f106330abf6a","650c16f0f2faf8d7a0d14c09","651c1c7c6531011b4724a5c0","null","null","<p style=""font-size: 60px; font-family: BACS"">hBmMCbRC</p>","","","","","","","","",""
"html-keyboard-response","266","379979","0.0-14.0-0.15","5fc781689771f106330abf6a","650c16f0f2faf8d7a0d14c09","651c1c7c6531011b4724a5c0","null","null","<p style=""font-size: 60px; font-family: BACS"">MBmEYcM</p>","","","","","","","","",""
"html-keyboard-response","267","380983","0.0-14.0-0.16","5fc781689771f106330abf6a","650c16f0f2faf8d7a0d14c09","651c1c7c6531011b4724a5c0","null","null","<p style=""font-size: 60px; font-family: BACS"">CchtdlRE</p>","","","","","","","","",""
"html-keyboard-response","268","381987","0.0-14.0-0.17","5fc781689771f106330abf6a","650c16f0f2faf8d7a0d14c09","651c1c7c6531011b4724a5c0","null","null","<p style=""font-size: 60px; font-family: BACS"">GAcYukbY</p>","","","","","","","","",""
"html-keyboard-response","269","382993","0.0-14.0-0.18","5fc781689771f106330abf6a","650c16f0f2faf8d7a0d14c09","651c1c7c6531011b4724a5c0","null","null","<p style=""font-size: 60px; font-family: BACS"">CchtdYcM</p>","","","","","","","","",""
"html-keyboard-response","270","383999","0.0-14.0-0.19","5fc781689771f106330abf6a","650c16f0f2faf8d7a0d14c09","651c1c7c6531011b4724a5c0","null","null","<p style=""font-size: 60px; font-family: BACS"">hBmMClRE</p>","","","","","","","","",""
"html-keyboard-response","271","385006","0.0-14.0-0.20","5fc781689771f106330abf6a","650c16f0f2faf8d7a0d14c09","651c1c7c6531011b4724a5c0","null","null","<p style=""font-size: 60px; font-family: BACS"">kDRKcBbM</p>","","","","","","","","",""
"html-keyboard-response","272","386012","0.0-14.0-0.21","5fc781689771f106330abf6a","650c16f0f2faf8d7a0d14c09","651c1c7c6531011b4724a5c0","null","null","<p style=""font-size: 60px; font-family: BACS"">bRABthRKm</p>","","","","","","","","",""
"html-keyboard-response","273","387019","0.0-14.0-0.22","5fc781689771f106330abf6a","650c16f0f2faf8d7a0d14c09","651c1c7c6531011b4724a5c0","null","null","<p style=""font-size: 60px; font-family: BACS"">YdudrULv</p>","","","","","","","","",""
"html-keyboard-response","274","388036","0.0-14.0-0.23","5fc781689771f106330abf6a","650c16f0f2faf8d7a0d14c09","651c1c7c6531011b4724a5c0","null","null","<p style=""font-size: 60px; font-family: BACS"">AmQOYukbY</p>","","","","","","","","",""
"html-keyboard-response","275","389039","0.0-14.0-0.24","5fc781689771f106330abf6a","650c16f0f2faf8d7a0d14c09","651c1c7c6531011b4724a5c0","null","null","<p style=""font-size: 60px; font-family: BACS"">hBmMCBbM</p>","","","","","","","","",""
"html-keyboard-response","276","390041","0.0-14.0-0.25","5fc781689771f106330abf6a","650c16f0f2faf8d7a0d14c09","651c1c7c6531011b4724a5c0","null","null","<p style=""font-size: 60px; font-family: BACS"">GAcYLaA</p>","","","","","","","","",""
"html-keyboard-response","277","391057","0.0-14.0-0.26","5fc781689771f106330abf6a","650c16f0f2faf8d7a0d14c09","651c1c7c6531011b4724a5c0","null","null","<p style=""font-size: 60px; font-family: BACS"">cuOJbuda</p>","","","","","","","","",""
"html-keyboard-response","278","392061","0.0-14.0-0.27","5fc781689771f106330abf6a","650c16f0f2faf8d7a0d14c09","651c1c7c6531011b4724a5c0","null","null","<p style=""font-size: 60px; font-family: BACS"">hTDdYcM</p>","","","","","","","","",""
"html-keyboard-response","279","393062","0.0-14.0-0.28","5fc781689771f106330abf6a","650c16f0f2faf8d7a0d14c09","651c1c7c6531011b4724a5c0","null","null","<p style=""font-size: 60px; font-family: BACS"">MBmElRE</p>","","","","","","","","",""
"html-keyboard-response","280","394066","0.0-14.0-0.29","5fc781689771f106330abf6a","650c16f0f2faf8d7a0d14c09","651c1c7c6531011b4724a5c0","null","null","<p style=""font-size: 60px; font-family: BACS"">ubALmLaA</p>","","","","","","","","",""
"html-keyboard-response","281","395075","0.0-14.0-0.30","5fc781689771f106330abf6a","650c16f0f2faf8d7a0d14c09","651c1c7c6531011b4724a5c0","null","null","<p style=""font-size: 60px; font-family: BACS"">bRABtlRE</p>","","","","","","","","",""
"html-keyboard-response","282","396080","0.0-14.0-0.31","5fc781689771f106330abf6a","650c16f0f2faf8d7a0d14c09","651c1c7c6531011b4724a5c0","null","null","<p style=""font-size: 60px; font-family: BACS"">MBmEhRKm</p>","","","","","","","","",""
"html-keyboard-response","283","397085","0.0-14.0-0.32","5fc781689771f106330abf6a","650c16f0f2faf8d7a0d14c09","651c1c7c6531011b4724a5c0","null","null","<p style=""font-size: 60px; font-family: BACS"">OkGYuda</p>","","","","","","","","",""
"html-keyboard-response","284","398103","0.0-14.0-0.33","5fc781689771f106330abf6a","650c16f0f2faf8d7a0d14c09","651c1c7c6531011b4724a5c0","null","null","<p style=""font-size: 60px; font-family: BACS"">bRABtbRC</p>","","","","","","","","",""
"html-keyboard-response","285","399104","0.0-14.0-0.34","5fc781689771f106330abf6a","650c16f0f2faf8d7a0d14c09","651c1c7c6531011b4724a5c0","null","null","<p style=""font-size: 60px; font-family: BACS"">BEPOlRE</p>","","","","","","","","",""
"html-keyboard-response","286","400108","0.0-14.0-0.35","5fc781689771f106330abf6a","650c16f0f2faf8d7a0d14c09","651c1c7c6531011b4724a5c0","null","null","<p style=""font-size: 60px; font-family: BACS"">AmQOYuda</p>","","","","","","","","",""
"html-keyboard-response","287","401114","0.0-14.0-0.36","5fc781689771f106330abf6a","650c16f0f2faf8d7a0d14c09","651c1c7c6531011b4724a5c0","null","null","<p style=""font-size: 60px; font-family: BACS"">PctRChRKm</p>","","","","","","","","",""
"html-keyboard-response","288","402121","0.0-14.0-0.37","5fc781689771f106330abf6a","650c16f0f2faf8d7a0d14c09","651c1c7c6531011b4724a5c0","null","null","<p style=""font-size: 60px; font-family: BACS"">lmbYLaA</p>","","","","","","","","",""
"html-keyboard-response","289","403127","0.0-14.0-0.38","5fc781689771f106330abf6a","650c16f0f2faf8d7a0d14c09","651c1c7c6531011b4724a5c0","null","null","<p style=""font-size: 60px; font-family: BACS"">kDRKcbRC</p>","","","","","","","","",""
"html-keyboard-response","290","404134","0.0-14.0-0.39","5fc781689771f106330abf6a","650c16f0f2faf8d7a0d14c09","651c1c7c6531011b4724a5c0","null","null","<p style=""font-size: 60px; font-family: BACS"">RKYkYcM</p>","","","","","","","","",""
"html-keyboard-response","291","405138","0.0-14.0-0.40","5fc781689771f106330abf6a","650c16f0f2faf8d7a0d14c09","651c1c7c6531011b4724a5c0","null","null","<p style=""font-size: 60px; font-family: BACS"">BECkhRKm</p>","","","","","","","","",""
"html-keyboard-response","292","406146","0.0-14.0-0.41","5fc781689771f106330abf6a","650c16f0f2faf8d7a0d14c09","651c1c7c6531011b4724a5c0","null","null","<p style=""font-size: 60px; font-family: BACS"">ubALmrZYd</p>","","","","","","","","",""
"html-keyboard-response","293","407151","0.0-14.0-0.42","5fc781689771f106330abf6a","650c16f0f2faf8d7a0d14c09","651c1c7c6531011b4724a5c0","null","null","<p style=""font-size: 60px; font-family: BACS"">UdYUQrULv</p>","","","","","","","","",""
"html-keyboard-response","294","408167","0.0-14.0-0.43","5fc781689771f106330abf6a","650c16f0f2faf8d7a0d14c09","651c1c7c6531011b4724a5c0","null","null","<p style=""font-size: 60px; font-family: BACS"">GAcYuda</p>","","","","","","","","",""
"html-keyboard-response","295","409183","0.0-14.0-0.44","5fc781689771f106330abf6a","650c16f0f2faf8d7a0d14c09","651c1c7c6531011b4724a5c0","null","null","<p style=""font-size: 60px; font-family: BACS"">CchtdhRKm</p>","","","","","","","","",""
"html-keyboard-response","296","410186","0.0-14.0-0.45","5fc781689771f106330abf6a","650c16f0f2faf8d7a0d14c09","651c1c7c6531011b4724a5c0","null","null","<p style=""font-size: 60px; font-family: BACS"">BEPOYcM</p>","","","","","","","","",""
"html-keyboard-response","297","411188","0.0-14.0-0.46","5fc781689771f106330abf6a","650c16f0f2faf8d7a0d14c09","651c1c7c6531011b4724a5c0","null","null","<p style=""font-size: 60px; font-family: BACS"">YdudLaA</p>","","","","","","","","",""
"html-keyboard-response","298","412192","0.0-14.0-0.47","5fc781689771f106330abf6a","650c16f0f2faf8d7a0d14c09","651c1c7c6531011b4724a5c0","null","null","<p style=""font-size: 60px; font-family: BACS"">cuOJbukbY</p>","","","","","","","","",""
"html-keyboard-response","299","413194","0.0-14.0-0.48","5fc781689771f106330abf6a","650c16f0f2faf8d7a0d14c09","651c1c7c6531011b4724a5c0","null","null","<p style=""font-size: 60px; font-family: BACS"">ubALmuda</p>","","","","","","","","",""
"html-keyboard-response","300","414200","0.0-14.0-0.49","5fc781689771f106330abf6a","650c16f0f2faf8d7a0d14c09","651c1c7c6531011b4724a5c0","null","null","<p style=""font-size: 60px; font-family: BACS"">RKYkhRKm</p>","","","","","","","","",""
"html-keyboard-response","301","415216","0.0-14.0-0.50","5fc781689771f106330abf6a","650c16f0f2faf8d7a0d14c09","651c1c7c6531011b4724a5c0","null","null","<p style=""font-size: 60px; font-family: BACS"">lmbYrZYd</p>","","","","","","","","",""
"html-keyboard-response","302","416220","0.0-14.0-0.51","5fc781689771f106330abf6a","650c16f0f2faf8d7a0d14c09","651c1c7c6531011b4724a5c0","null","null","<p style=""font-size: 60px; font-family: BACS"">UdYUQuda</p>","","","","","","","","",""
"html-keyboard-response","303","417226","0.0-14.0-0.52","5fc781689771f106330abf6a","650c16f0f2faf8d7a0d14c09","651c1c7c6531011b4724a5c0","null","null","<p style=""font-size: 60px; font-family: BACS"">kDRKchRKm</p>","","","","","","","","",""
"html-keyboard-response","304","418232","0.0-14.0-0.53","5fc781689771f106330abf6a","650c16f0f2faf8d7a0d14c09","651c1c7c6531011b4724a5c0","null","null","<p style=""font-size: 60px; font-family: BACS"">hTDdbRC</p>","","","","","","","","",""
"html-keyboard-response","305","419236","0.0-14.0-0.54","5fc781689771f106330abf6a","650c16f0f2faf8d7a0d14c09","651c1c7c6531011b4724a5c0","null","null","<p style=""font-size: 60px; font-family: BACS"">OkGYrULv</p>","","","","","","","","",""
"html-keyboard-response","306","420240","0.0-14.0-0.55","5fc781689771f106330abf6a","650c16f0f2faf8d7a0d14c09","651c1c7c6531011b4724a5c0","null","null","<p style=""font-size: 60px; font-family: BACS"">BEPObRC</p>","","","","","","","","",""
"html-keyboard-response","307","421244","0.0-14.0-0.56","5fc781689771f106330abf6a","650c16f0f2faf8d7a0d14c09","651c1c7c6531011b4724a5c0","null","null","<p style=""font-size: 60px; font-family: BACS"">AmQOYLaA</p>","","","","","","","","",""
"html-keyboard-response","308","422249","0.0-14.0-0.57","5fc781689771f106330abf6a","650c16f0f2faf8d7a0d14c09","651c1c7c6531011b4724a5c0","null","null","<p style=""font-size: 60px; font-family: BACS"">GAcYrZYd</p>","","","","","","","","",""
"html-keyboard-response","309","423255","0.0-14.0-0.58","5fc781689771f106330abf6a","650c16f0f2faf8d7a0d14c09","651c1c7c6531011b4724a5c0","null","null","<p style=""font-size: 60px; font-family: BACS"">JdOAYukbY</p>","","","","","","","","",""
"html-keyboard-response","310","424260","0.0-14.0-0.59","5fc781689771f106330abf6a","650c16f0f2faf8d7a0d14c09","651c1c7c6531011b4724a5c0","null","null","<p style=""font-size: 60px; font-family: BACS"">bRABtBbM</p>","","","","","","","","",""
"html-keyboard-response","311","425266","0.0-14.0-0.60","5fc781689771f106330abf6a","650c16f0f2faf8d7a0d14c09","651c1c7c6531011b4724a5c0","null","null","<p style=""font-size: 60px; font-family: BACS"">OkGYLaA</p>","","","","","","","","",""
"html-keyboard-response","312","426270","0.0-14.0-0.61","5fc781689771f106330abf6a","650c16f0f2faf8d7a0d14c09","651c1c7c6531011b4724a5c0","null","null","<p style=""font-size: 60px; font-family: BACS"">UdYUQrZYd</p>","","","","","","","","",""
"html-keyboard-response","313","427276","0.0-14.0-0.62","5fc781689771f106330abf6a","650c16f0f2faf8d7a0d14c09","651c1c7c6531011b4724a5c0","null","null","<p style=""font-size: 60px; font-family: BACS"">cuOJbLaA</p>","","","","","","","","",""
"html-keyboard-response","314","428280","0.0-14.0-0.63","5fc781689771f106330abf6a","650c16f0f2faf8d7a0d14c09","651c1c7c6531011b4724a5c0","null","null","<p style=""font-size: 60px; font-family: BACS"">PctRCBbM</p>","","","","","","","","",""
"html-keyboard-response","315","429284","0.0-14.0-0.64","5fc781689771f106330abf6a","650c16f0f2faf8d7a0d14c09","651c1c7c6531011b4724a5c0","null","null","<p style=""font-size: 60px; font-family: BACS"">hTDdlRE</p>","","","","","","","","",""
"html-keyboard-response","316","430288","0.0-14.0-0.65","5fc781689771f106330abf6a","650c16f0f2faf8d7a0d14c09","651c1c7c6531011b4724a5c0","null","null","<p style=""font-size: 60px; font-family: BACS"">kabJbrZYd</p>","","","","","","","","",""
"html-keyboard-response","317","431290","0.0-14.0-0.66","5fc781689771f106330abf6a","650c16f0f2faf8d7a0d14c09","651c1c7c6531011b4724a5c0","null","null","<p style=""font-size: 60px; font-family: BACS"">JdOAYuda</p>","","","","","","","","",""
"html-keyboard-response","318","432297","0.0-14.0-0.67","5fc781689771f106330abf6a","650c16f0f2faf8d7a0d14c09","651c1c7c6531011b4724a5c0","null","null","<p style=""font-size: 60px; font-family: BACS"">UdYUQukbY</p>","","","","","","","","",""
"html-keyboard-response","319","433314","0.0-14.0-0.68","5fc781689771f106330abf6a","650c16f0f2faf8d7a0d14c09","651c1c7c6531011b4724a5c0","null","null","<p style=""font-size: 60px; font-family: BACS"">BECkbRC</p>","","","","","","","","",""
"html-keyboard-response","320","434319","0.0-14.0-0.69","5fc781689771f106330abf6a","650c16f0f2faf8d7a0d14c09","651c1c7c6531011b4724a5c0","null","null","<p style=""font-size: 60px; font-family: BACS"">hBmMCYcM</p>","","","","","","","","",""
"html-keyboard-response","321","435324","0.0-14.0-0.70","5fc781689771f106330abf6a","650c16f0f2faf8d7a0d14c09","651c1c7c6531011b4724a5c0","null","null","<p style=""font-size: 60px; font-family: BACS"">RKYkBbM</p>","","","","","","","","",""
"html-keyboard-response","322","436328","0.0-14.0-0.71","5fc781689771f106330abf6a","650c16f0f2faf8d7a0d14c09","651c1c7c6531011b4724a5c0","null","null","<p style=""font-size: 60px; font-family: BACS"">kDRKclRE</p>","","","","","","","","",""
"html-keyboard-response","323","437344","0.0-14.0-0.72","5fc781689771f106330abf6a","650c16f0f2faf8d7a0d14c09","651c1c7c6531011b4724a5c0","null","null","<p style=""font-size: 60px; font-family: BACS"">YdudukbY</p>","","","","","","","","",""
"html-keyboard-response","324","438348","0.0-14.0-0.73","5fc781689771f106330abf6a","650c16f0f2faf8d7a0d14c09","651c1c7c6531011b4724a5c0","null","null","<p style=""font-size: 60px; font-family: BACS"">BECkBbM</p>","","","","","","","","",""
"html-keyboard-response","325","439364","0.0-14.0-0.74","5fc781689771f106330abf6a","650c16f0f2faf8d7a0d14c09","651c1c7c6531011b4724a5c0","null","null","<p style=""font-size: 60px; font-family: BACS"">cuOJbrULv</p>","","","","","","","","",""
"html-keyboard-response","326","440369","0.0-14.0-0.75","5fc781689771f106330abf6a","650c16f0f2faf8d7a0d14c09","651c1c7c6531011b4724a5c0","null","null","<p style=""font-size: 60px; font-family: BACS"">JdOAYrZYd</p>","","","","","","","","",""
"html-keyboard-response","327","441375","0.0-14.0-0.76","5fc781689771f106330abf6a","650c16f0f2faf8d7a0d14c09","651c1c7c6531011b4724a5c0","null","null","<p style=""font-size: 60px; font-family: BACS"">CchtdBbM</p>","","","","","","","","",""
"html-keyboard-response","328","442378","0.0-14.0-0.77","5fc781689771f106330abf6a","650c16f0f2faf8d7a0d14c09","651c1c7c6531011b4724a5c0","null","null","<p style=""font-size: 60px; font-family: BACS"">MBmEbRC</p>","","","","","","","","",""
"html-keyboard-response","329","443381","0.0-14.0-0.78","5fc781689771f106330abf6a","650c16f0f2faf8d7a0d14c09","651c1c7c6531011b4724a5c0","null","null","<p style=""font-size: 60px; font-family: BACS"">hTDdhRKm</p>","","","","","","","","",""
"html-keyboard-response","330","444383","0.0-14.0-0.79","5fc781689771f106330abf6a","650c16f0f2faf8d7a0d14c09","651c1c7c6531011b4724a5c0","null","null","<p style=""font-size: 60px; font-family: BACS"">YdudrZYd</p>","","","","","","","","",""
"html-keyboard-response","331","449390","0.0-15.0","5fc781689771f106330abf6a","650c16f0f2faf8d7a0d14c09","651c1c7c6531011b4724a5c0","5006"," ","<p>Great, you've seen the fourth block of words. You may now take a short break.</p>
      <p>Press the spacebar when you're ready to continue.</p>","","","","","","","","",""
"html-keyboard-response","332","450393","0.0-16.0-0.0","5fc781689771f106330abf6a","650c16f0f2faf8d7a0d14c09","651c1c7c6531011b4724a5c0","null","null","<p style=""font-size: 60px; font-family: BACS"">JdOAYrZYd</p>","","","","","","","","",""
"html-keyboard-response","333","451395","0.0-16.0-0.1","5fc781689771f106330abf6a","650c16f0f2faf8d7a0d14c09","651c1c7c6531011b4724a5c0","null","null","<p style=""font-size: 60px; font-family: BACS"">JdOAYrZYd</p>","","","","","","","","",""
"html-keyboard-response","334","452412","0.0-16.0-0.2","5fc781689771f106330abf6a","650c16f0f2faf8d7a0d14c09","651c1c7c6531011b4724a5c0","null","null","<p style=""font-size: 60px; font-family: BACS"">JdOAYrZYd</p>","","","","","","","","",""
"html-keyboard-response","335","453417","0.0-16.0-0.3","5fc781689771f106330abf6a","650c16f0f2faf8d7a0d14c09","651c1c7c6531011b4724a5c0","null","null","<p style=""font-size: 60px; font-family: BACS"">JdOAYrZYd</p>","","","","","","","","",""
"html-keyboard-response","336","454422","0.0-16.0-0.4","5fc781689771f106330abf6a","650c16f0f2faf8d7a0d14c09","651c1c7c6531011b4724a5c0","null","null","<p style=""font-size: 60px; font-family: BACS"">JdOAYrZYd</p>","","","","","","","","",""
"html-keyboard-response","337","455424","0.0-16.0-0.5","5fc781689771f106330abf6a","650c16f0f2faf8d7a0d14c09","651c1c7c6531011b4724a5c0","null","null","<p style=""font-size: 60px; font-family: BACS"">JdOAYrZYd</p>","","","","","","","","",""
"html-keyboard-response","338","456441","0.0-16.0-0.6","5fc781689771f106330abf6a","650c16f0f2faf8d7a0d14c09","651c1c7c6531011b4724a5c0","null","null","<p style=""font-size: 60px; font-family: BACS"">JdOAYrZYd</p>","","","","","","","","",""
"html-keyboard-response","339","457445","0.0-16.0-0.7","5fc781689771f106330abf6a","650c16f0f2faf8d7a0d14c09","651c1c7c6531011b4724a5c0","null","null","<p style=""font-size: 60px; font-family: BACS"">JdOAYrZYd</p>","","","","","","","","",""
"html-keyboard-response","340","458452","0.0-16.0-0.8","5fc781689771f106330abf6a","650c16f0f2faf8d7a0d14c09","651c1c7c6531011b4724a5c0","null","null","<p style=""font-size: 60px; font-family: BACS"">JdOAYrZYd</p>","","","","","","","","",""
"html-keyboard-response","341","459455","0.0-16.0-0.9","5fc781689771f106330abf6a","650c16f0f2faf8d7a0d14c09","651c1c7c6531011b4724a5c0","null","null","<p style=""font-size: 60px; font-family: BACS"">JdOAYrZYd</p>","","","","","","","","",""
"html-keyboard-response","342","460460","0.0-16.0-0.10","5fc781689771f106330abf6a","650c16f0f2faf8d7a0d14c09","651c1c7c6531011b4724a5c0","null","null","<p style=""font-size: 60px; font-family: BACS"">JdOAYrZYd</p>","","","","","","","","",""
"html-keyboard-response","343","461476","0.0-16.0-0.11","5fc781689771f106330abf6a","650c16f0f2faf8d7a0d14c09","651c1c7c6531011b4724a5c0","null","null","<p style=""font-size: 60px; font-family: BACS"">JdOAYrZYd</p>","","","","","","","","",""
"html-keyboard-response","344","462480","0.0-16.0-0.12","5fc781689771f106330abf6a","650c16f0f2faf8d7a0d14c09","651c1c7c6531011b4724a5c0","null","null","<p style=""font-size: 60px; font-family: BACS"">JdOAYrZYd</p>","","","","","","","","",""
"html-keyboard-response","345","463494","0.0-16.0-0.13","5fc781689771f106330abf6a","650c16f0f2faf8d7a0d14c09","651c1c7c6531011b4724a5c0","null","null","<p style=""font-size: 60px; font-family: BACS"">JdOAYrZYd</p>","","","","","","","","",""
"html-keyboard-response","346","464499","0.0-16.0-0.14","5fc781689771f106330abf6a","650c16f0f2faf8d7a0d14c09","651c1c7c6531011b4724a5c0","null","null","<p style=""font-size: 60px; font-family: BACS"">JdOAYrZYd</p>","","","","","","","","",""
"html-keyboard-response","347","465505","0.0-16.0-0.15","5fc781689771f106330abf6a","650c16f0f2faf8d7a0d14c09","651c1c7c6531011b4724a5c0","null","null","<p style=""font-size: 60px; font-family: BACS"">JdOAYrZYd</p>","","","","","","","","",""
"html-keyboard-response","348","466508","0.0-16.0-0.16","5fc781689771f106330abf6a","650c16f0f2faf8d7a0d14c09","651c1c7c6531011b4724a5c0","null","null","<p style=""font-size: 60px; font-family: BACS"">JdOAYrZYd</p>","","","","","","","","",""
"html-keyboard-response","349","467511","0.0-16.0-0.17","5fc781689771f106330abf6a","650c16f0f2faf8d7a0d14c09","651c1c7c6531011b4724a5c0","null","null","<p style=""font-size: 60px; font-family: BACS"">JdOAYrZYd</p>","","","","","","","","",""
"html-keyboard-response","350","468514","0.0-16.0-0.18","5fc781689771f106330abf6a","650c16f0f2faf8d7a0d14c09","651c1c7c6531011b4724a5c0","null","null","<p style=""font-size: 60px; font-family: BACS"">JdOAYrZYd</p>","","","","","","","","",""
"html-keyboard-response","351","469532","0.0-16.0-0.19","5fc781689771f106330abf6a","650c16f0f2faf8d7a0d14c09","651c1c7c6531011b4724a5c0","null","null","<p style=""font-size: 60px; font-family: BACS"">JdOAYrZYd</p>","","","","","","","","",""
"html-keyboard-response","352","470547","0.0-16.0-0.20","5fc781689771f106330abf6a","650c16f0f2faf8d7a0d14c09","651c1c7c6531011b4724a5c0","null","null","<p style=""font-size: 60px; font-family: BACS"">JdOAYrZYd</p>","","","","","","","","",""
"html-keyboard-response","353","471552","0.0-16.0-0.21","5fc781689771f106330abf6a","650c16f0f2faf8d7a0d14c09","651c1c7c6531011b4724a5c0","null","null","<p style=""font-size: 60px; font-family: BACS"">JdOAYrZYd</p>","","","","","","","","",""
"html-keyboard-response","354","472568","0.0-16.0-0.22","5fc781689771f106330abf6a","650c16f0f2faf8d7a0d14c09","651c1c7c6531011b4724a5c0","null","null","<p style=""font-size: 60px; font-family: BACS"">JdOAYrZYd</p>","","","","","","","","",""
"html-keyboard-response","355","473576","0.0-16.0-0.23","5fc781689771f106330abf6a","650c16f0f2faf8d7a0d14c09","651c1c7c6531011b4724a5c0","null","null","<p style=""font-size: 60px; font-family: BACS"">JdOAYrZYd</p>","","","","","","","","",""
"html-keyboard-response","356","474581","0.0-16.0-0.24","5fc781689771f106330abf6a","650c16f0f2faf8d7a0d14c09","651c1c7c6531011b4724a5c0","null","null","<p style=""font-size: 60px; font-family: BACS"">JdOAYrZYd</p>","","","","","","","","",""
"html-keyboard-response","357","475585","0.0-16.0-0.25","5fc781689771f106330abf6a","650c16f0f2faf8d7a0d14c09","651c1c7c6531011b4724a5c0","null","null","<p style=""font-size: 60px; font-family: BACS"">JdOAYrZYd</p>","","","","","","","","",""
"html-keyboard-response","358","476591","0.0-16.0-0.26","5fc781689771f106330abf6a","650c16f0f2faf8d7a0d14c09","651c1c7c6531011b4724a5c0","null","null","<p style=""font-size: 60px; font-family: BACS"">JdOAYrZYd</p>","","","","","","","","",""
"html-keyboard-response","359","477599","0.0-16.0-0.27","5fc781689771f106330abf6a","650c16f0f2faf8d7a0d14c09","651c1c7c6531011b4724a5c0","null","null","<p style=""font-size: 60px; font-family: BACS"">JdOAYrZYd</p>","","","","","","","","",""
"html-keyboard-response","360","478603","0.0-16.0-0.28","5fc781689771f106330abf6a","650c16f0f2faf8d7a0d14c09","651c1c7c6531011b4724a5c0","null","null","<p style=""font-size: 60px; font-family: BACS"">JdOAYrZYd</p>","","","","","","","","",""
"html-keyboard-response","361","479606","0.0-16.0-0.29","5fc781689771f106330abf6a","650c16f0f2faf8d7a0d14c09","651c1c7c6531011b4724a5c0","null","null","<p style=""font-size: 60px; font-family: BACS"">JdOAYrZYd</p>","","","","","","","","",""
"html-keyboard-response","362","480622","0.0-16.0-0.30","5fc781689771f106330abf6a","650c16f0f2faf8d7a0d14c09","651c1c7c6531011b4724a5c0","null","null","<p style=""font-size: 60px; font-family: BACS"">JdOAYrZYd</p>","","","","","","","","",""
"html-keyboard-response","363","481626","0.0-16.0-0.31","5fc781689771f106330abf6a","650c16f0f2faf8d7a0d14c09","651c1c7c6531011b4724a5c0","null","null","<p style=""font-size: 60px; font-family: BACS"">JdOAYrZYd</p>","","","","","","","","",""
"html-keyboard-response","364","482628","0.0-16.0-0.32","5fc781689771f106330abf6a","650c16f0f2faf8d7a0d14c09","651c1c7c6531011b4724a5c0","null","null","<p style=""font-size: 60px; font-family: BACS"">JdOAYrZYd</p>","","","","","","","","",""
"html-keyboard-response","365","483630","0.0-16.0-0.33","5fc781689771f106330abf6a","650c16f0f2faf8d7a0d14c09","651c1c7c6531011b4724a5c0","null","null","<p style=""font-size: 60px; font-family: BACS"">JdOAYrZYd</p>","","","","","","","","",""
"html-keyboard-response","366","484635","0.0-16.0-0.34","5fc781689771f106330abf6a","650c16f0f2faf8d7a0d14c09","651c1c7c6531011b4724a5c0","null","null","<p style=""font-size: 60px; font-family: BACS"">JdOAYrZYd</p>","","","","","","","","",""
"html-keyboard-response","367","485638","0.0-16.0-0.35","5fc781689771f106330abf6a","650c16f0f2faf8d7a0d14c09","651c1c7c6531011b4724a5c0","null","null","<p style=""font-size: 60px; font-family: BACS"">JdOAYrZYd</p>","","","","","","","","",""
"html-keyboard-response","368","486644","0.0-16.0-0.36","5fc781689771f106330abf6a","650c16f0f2faf8d7a0d14c09","651c1c7c6531011b4724a5c0","null","null","<p style=""font-size: 60px; font-family: BACS"">JdOAYrZYd</p>","","","","","","","","",""
"html-keyboard-response","369","487647","0.0-16.0-0.37","5fc781689771f106330abf6a","650c16f0f2faf8d7a0d14c09","651c1c7c6531011b4724a5c0","null","null","<p style=""font-size: 60px; font-family: BACS"">JdOAYrZYd</p>","","","","","","","","",""
"html-keyboard-response","370","488651","0.0-16.0-0.38","5fc781689771f106330abf6a","650c16f0f2faf8d7a0d14c09","651c1c7c6531011b4724a5c0","null","null","<p style=""font-size: 60px; font-family: BACS"">JdOAYrZYd</p>","","","","","","","","",""
"html-keyboard-response","371","489667","0.0-16.0-0.39","5fc781689771f106330abf6a","650c16f0f2faf8d7a0d14c09","651c1c7c6531011b4724a5c0","null","null","<p style=""font-size: 60px; font-family: BACS"">JdOAYrZYd</p>","","","","","","","","",""
"html-keyboard-response","372","490684","0.0-16.0-0.40","5fc781689771f106330abf6a","650c16f0f2faf8d7a0d14c09","651c1c7c6531011b4724a5c0","null","null","<p style=""font-size: 60px; font-family: BACS"">JdOAYrZYd</p>","","","","","","","","",""
"html-keyboard-response","373","491700","0.0-16.0-0.41","5fc781689771f106330abf6a","650c16f0f2faf8d7a0d14c09","651c1c7c6531011b4724a5c0","null","null","<p style=""font-size: 60px; font-family: BACS"">JdOAYrZYd</p>","","","","","","","","",""
"html-keyboard-response","374","492715","0.0-16.0-0.42","5fc781689771f106330abf6a","650c16f0f2faf8d7a0d14c09","651c1c7c6531011b4724a5c0","null","null","<p style=""font-size: 60px; font-family: BACS"">JdOAYrZYd</p>","","","","","","","","",""
"html-keyboard-response","375","493719","0.0-16.0-0.43","5fc781689771f106330abf6a","650c16f0f2faf8d7a0d14c09","651c1c7c6531011b4724a5c0","null","null","<p style=""font-size: 60px; font-family: BACS"">JdOAYrZYd</p>","","","","","","","","",""
"html-keyboard-response","376","494725","0.0-16.0-0.44","5fc781689771f106330abf6a","650c16f0f2faf8d7a0d14c09","651c1c7c6531011b4724a5c0","null","null","<p style=""font-size: 60px; font-family: BACS"">JdOAYrZYd</p>","","","","","","","","",""
"html-keyboard-response","377","495729","0.0-16.0-0.45","5fc781689771f106330abf6a","650c16f0f2faf8d7a0d14c09","651c1c7c6531011b4724a5c0","null","null","<p style=""font-size: 60px; font-family: BACS"">JdOAYrZYd</p>","","","","","","","","",""
"html-keyboard-response","378","496732","0.0-16.0-0.46","5fc781689771f106330abf6a","650c16f0f2faf8d7a0d14c09","651c1c7c6531011b4724a5c0","null","null","<p style=""font-size: 60px; font-family: BACS"">JdOAYrZYd</p>","","","","","","","","",""
"html-keyboard-response","379","497736","0.0-16.0-0.47","5fc781689771f106330abf6a","650c16f0f2faf8d7a0d14c09","651c1c7c6531011b4724a5c0","null","null","<p style=""font-size: 60px; font-family: BACS"">JdOAYrZYd</p>","","","","","","","","",""
"html-keyboard-response","380","498754","0.0-16.0-0.48","5fc781689771f106330abf6a","650c16f0f2faf8d7a0d14c09","651c1c7c6531011b4724a5c0","null","null","<p style=""font-size: 60px; font-family: BACS"">JdOAYrZYd</p>","","","","","","","","",""
"html-keyboard-response","381","499758","0.0-16.0-0.49","5fc781689771f106330abf6a","650c16f0f2faf8d7a0d14c09","651c1c7c6531011b4724a5c0","null","null","<p style=""font-size: 60px; font-family: BACS"">JdOAYrZYd</p>","","","","","","","","",""
"html-keyboard-response","382","500773","0.0-16.0-0.50","5fc781689771f106330abf6a","650c16f0f2faf8d7a0d14c09","651c1c7c6531011b4724a5c0","null","null","<p style=""font-size: 60px; font-family: BACS"">JdOAYrZYd</p>","","","","","","","","",""
"html-keyboard-response","383","501777","0.0-16.0-0.51","5fc781689771f106330abf6a","650c16f0f2faf8d7a0d14c09","651c1c7c6531011b4724a5c0","null","null","<p style=""font-size: 60px; font-family: BACS"">JdOAYrZYd</p>","","","","","","","","",""
"html-keyboard-response","384","502781","0.0-16.0-0.52","5fc781689771f106330abf6a","650c16f0f2faf8d7a0d14c09","651c1c7c6531011b4724a5c0","null","null","<p style=""font-size: 60px; font-family: BACS"">JdOAYrZYd</p>","","","","","","","","",""
"html-keyboard-response","385","503786","0.0-16.0-0.53","5fc781689771f106330abf6a","650c16f0f2faf8d7a0d14c09","651c1c7c6531011b4724a5c0","null","null","<p style=""font-size: 60px; font-family: BACS"">JdOAYrZYd</p>","","","","","","","","",""
"html-keyboard-response","386","504788","0.0-16.0-0.54","5fc781689771f106330abf6a","650c16f0f2faf8d7a0d14c09","651c1c7c6531011b4724a5c0","null","null","<p style=""font-size: 60px; font-family: BACS"">JdOAYrZYd</p>","","","","","","","","",""
"html-keyboard-response","387","505794","0.0-16.0-0.55","5fc781689771f106330abf6a","650c16f0f2faf8d7a0d14c09","651c1c7c6531011b4724a5c0","null","null","<p style=""font-size: 60px; font-family: BACS"">JdOAYrZYd</p>","","","","","","","","",""
"html-keyboard-response","388","506801","0.0-16.0-0.56","5fc781689771f106330abf6a","650c16f0f2faf8d7a0d14c09","651c1c7c6531011b4724a5c0","null","null","<p style=""font-size: 60px; font-family: BACS"">JdOAYrZYd</p>","","","","","","","","",""
"html-keyboard-response","389","507806","0.0-16.0-0.57","5fc781689771f106330abf6a","650c16f0f2faf8d7a0d14c09","651c1c7c6531011b4724a5c0","null","null","<p style=""font-size: 60px; font-family: BACS"">JdOAYrZYd</p>","","","","","","","","",""
"html-keyboard-response","390","508812","0.0-16.0-0.58","5fc781689771f106330abf6a","650c16f0f2faf8d7a0d14c09","651c1c7c6531011b4724a5c0","null","null","<p style=""font-size: 60px; font-family: BACS"">JdOAYrZYd</p>","","","","","","","","",""
"html-keyboard-response","391","509815","0.0-16.0-0.59","5fc781689771f106330abf6a","650c16f0f2faf8d7a0d14c09","651c1c7c6531011b4724a5c0","null","null","<p style=""font-size: 60px; font-family: BACS"">JdOAYrZYd</p>","","","","","","","","",""
"html-keyboard-response","392","510819","0.0-16.0-0.60","5fc781689771f106330abf6a","650c16f0f2faf8d7a0d14c09","651c1c7c6531011b4724a5c0","null","null","<p style=""font-size: 60px; font-family: BACS"">JdOAYrZYd</p>","","","","","","","","",""
"html-keyboard-response","393","511823","0.0-16.0-0.61","5fc781689771f106330abf6a","650c16f0f2faf8d7a0d14c09","651c1c7c6531011b4724a5c0","null","null","<p style=""font-size: 60px; font-family: BACS"">JdOAYrZYd</p>","","","","","","","","",""
"html-keyboard-response","394","512828","0.0-16.0-0.62","5fc781689771f106330abf6a","650c16f0f2faf8d7a0d14c09","651c1c7c6531011b4724a5c0","null","null","<p style=""font-size: 60px; font-family: BACS"">JdOAYrZYd</p>","","","","","","","","",""
"html-keyboard-response","395","513831","0.0-16.0-0.63","5fc781689771f106330abf6a","650c16f0f2faf8d7a0d14c09","651c1c7c6531011b4724a5c0","null","null","<p style=""font-size: 60px; font-family: BACS"">JdOAYrZYd</p>","","","","","","","","",""
"html-keyboard-response","396","514839","0.0-16.0-0.64","5fc781689771f106330abf6a","650c16f0f2faf8d7a0d14c09","651c1c7c6531011b4724a5c0","null","null","<p style=""font-size: 60px; font-family: BACS"">JdOAYrZYd</p>","","","","","","","","",""
"html-keyboard-response","397","515845","0.0-16.0-0.65","5fc781689771f106330abf6a","650c16f0f2faf8d7a0d14c09","651c1c7c6531011b4724a5c0","null","null","<p style=""font-size: 60px; font-family: BACS"">JdOAYrZYd</p>","","","","","","","","",""
"html-keyboard-response","398","516862","0.0-16.0-0.66","5fc781689771f106330abf6a","650c16f0f2faf8d7a0d14c09","651c1c7c6531011b4724a5c0","null","null","<p style=""font-size: 60px; font-family: BACS"">JdOAYrZYd</p>","","","","","","","","",""
"html-keyboard-response","399","517864","0.0-16.0-0.67","5fc781689771f106330abf6a","650c16f0f2faf8d7a0d14c09","651c1c7c6531011b4724a5c0","null","null","<p style=""font-size: 60px; font-family: BACS"">JdOAYrZYd</p>","","","","","","","","",""
