"trial_type","trial_index","time_elapsed","internal_node_id","subject_id","study_id","session_id","rt","response","stimulus","success","item","task","correct_response","testing_condition","correct","target","confound","name"
"pavlovia","0","1778","0.0-0.0","60536ffae4f98513b671f482","650c16f0f2faf8d7a0d14c09","651c1eadc3ad235b03d3c7b6","","","","","","","","","","","",""
"survey-html-form","1","14286","0.0-1.0","60536ffae4f98513b671f482","650c16f0f2faf8d7a0d14c09","651c1eadc3ad235b03d3c7b6","12505","{""ID"":""60536ffae4f98513b671f482""}","","","","","","","","","",""
"html-keyboard-response","2","16384","0.0-2.0","60536ffae4f98513b671f482","650c16f0f2faf8d7a0d14c09","651c1eadc3ad235b03d3c7b6","2096"," ","<p style=""font-size: 15px;"">Before beginning, we ask that you read the consent information and confirm your agreement to participate in the experiment.</p>
      <p style=""font-size: 15px;""> We ask that you remember that this is a research project and that your participation is entirely voluntary. You can stop your participation at any time, without needing to provide any explanation. The study we're asking you to participate in aims at examining how readers process written words. You will be engaged in a session of apprximately 20 minutes, followed by a brief questionnaire. You will have the opportunity to take a few breaks during the experiment. You will be paid £4 for your participation, corresponding to a rate of £8/hour. While this experiment looks at cognitive faculties, this experiment doesn't constitute clinical proof of eventual pathologies.</p>
      <p style=""font-size: 15px;"">All of the information collected thanks to yours and others' participation will be held in a secure password-protected server, and will not be shared with anyone not authorised to view it. Your personal information will be kept with an arbitrary participant ID. Thanks to this data anonymity process, any researcher analysing the data won't be able to track the information back to a specific participant. Therefore, this process will make identifying you impossibile, even when results from the study will be published in scientific reviews, presented at congresses, or at any other public forum. More generally, the collected data will be treated in accordance with the laws on privacy and conformity to the Legislative Degree n. 196 ""Code regarding the protection of personal data"" of the 30th of June 2003 and to the European Regulation 2016/670 (General Data Protection Regulation - GDPR). The Data Protection Officer is Avv. Valentina Carollo, who can be contacted at the following email addresses: <a href=""mailto:dpo@sissa.it"">dpo@sissa.it</a> or <a href=""mailto:rpd@sissa.it"">rpd@sissa.it</a> - PEC: <a href=""mailto:protocollo@pec.sissa.it"">protocollo@pec.sissa.it</a>.</p>
      <p style=""font-size: 15px;""> Before expressing your consent to participate, we would like to remind you again that in case you need explanations on any aspect of the experimental procedure, the researcher is at your disposition (<a href=""mailto:aliebelt@sissa.it"">aliebelt@sissa.it</a>, <a href=""mailto:davide.crepaldi@sissa.it"">davide.crepaldi@sissa.it</a>).</p>
      <p style=""font-size: 15px;"">If you would like to download the informed consent form, you can do so here: <a href=""BASL-Informed_Consent.pdf"" download>informed consent form</a>.</p>
      <p style=""font-size: 15px;"">We ask that you press the spacebar to proceed to the consent section.</p>","","","","","","","","",""
"survey-html-form","3","22316","0.0-3.0","60536ffae4f98513b671f482","650c16f0f2faf8d7a0d14c09","651c1eadc3ad235b03d3c7b6","5930","{""consent1"":""YES"",""consent2"":""YES"",""consent3"":""YES"",""consent4"":""YES"",""consent5"":""YES"",""consent6"":""YES""}","","","","","","","","","",""
"fullscreen","4","24755","0.0-4.0","60536ffae4f98513b671f482","650c16f0f2faf8d7a0d14c09","651c1eadc3ad235b03d3c7b6","","","","true","","","","","","","",""
"html-keyboard-response","5","25558","0.0-5.0","60536ffae4f98513b671f482","650c16f0f2faf8d7a0d14c09","651c1eadc3ad235b03d3c7b6","801"," ","<p>Welcome, and thank you very much for your time!</p>
      <p>In this experiment, you'll be a language expert who's been asked to take a look at words that Earth has received in its first communication with aliens. Your task, in this first part of the experiment, is to pay close attention to the words you'll be shown; later, world leaders will ask you questions on what you saw. The words will be shown to you quite quickly; it seems that the aliens were in a hurry :-)</p>
      <p>Press the spacebar to continue.<p>","","","","","","","","",""
"html-keyboard-response","6","25623","0.0-6.0","60536ffae4f98513b671f482","650c16f0f2faf8d7a0d14c09","651c1eadc3ad235b03d3c7b6","null","null","<p style=""font-size: 120px; font-family: BACS""> </p>","","","","","","","","",""
"html-keyboard-response","7","27140","0.0-7.0","60536ffae4f98513b671f482","650c16f0f2faf8d7a0d14c09","651c1eadc3ad235b03d3c7b6","1514"," ","<p>Here is an example of the words you'll see:</p>
      <img src='esempio.png' height='400px'>
      <p>When you're ready to begin, press the spacebar.</p></div>","","","","","","","","",""
"html-keyboard-response","8","28154","0.0-8.0-0.0","60536ffae4f98513b671f482","650c16f0f2faf8d7a0d14c09","651c1eadc3ad235b03d3c7b6","null","null","<p style=""font-size: 60px; font-family: BACS"">MlthdBC</p>","","","","","","","","",""
"html-keyboard-response","9","29176","0.0-8.0-0.1","60536ffae4f98513b671f482","650c16f0f2faf8d7a0d14c09","651c1eadc3ad235b03d3c7b6","null","null","<p style=""font-size: 60px; font-family: BACS"">dMThkmKcD</p>","","","","","","","","",""
"html-keyboard-response","10","30194","0.0-8.0-0.2","60536ffae4f98513b671f482","650c16f0f2faf8d7a0d14c09","651c1eadc3ad235b03d3c7b6","null","null","<p style=""font-size: 60px; font-family: BACS"">cAZumZb</p>","","","","","","","","",""
"html-keyboard-response","11","31199","0.0-8.0-0.3","60536ffae4f98513b671f482","650c16f0f2faf8d7a0d14c09","651c1eadc3ad235b03d3c7b6","null","null","<p style=""font-size: 60px; font-family: BACS"">kKRCYDE</p>","","","","","","","","",""
"html-keyboard-response","12","32203","0.0-8.0-0.4","60536ffae4f98513b671f482","650c16f0f2faf8d7a0d14c09","651c1eadc3ad235b03d3c7b6","null","null","<p style=""font-size: 60px; font-family: BACS"">mdlaYLU</p>","","","","","","","","",""
"html-keyboard-response","13","33205","0.0-8.0-0.5","60536ffae4f98513b671f482","650c16f0f2faf8d7a0d14c09","651c1eadc3ad235b03d3c7b6","null","null","<p style=""font-size: 60px; font-family: BACS"">TdmAdTAh</p>","","","","","","","","",""
"html-keyboard-response","14","34211","0.0-8.0-0.6","60536ffae4f98513b671f482","650c16f0f2faf8d7a0d14c09","651c1eadc3ad235b03d3c7b6","null","null","<p style=""font-size: 60px; font-family: BACS"">lBlEmKcD</p>","","","","","","","","",""
"html-keyboard-response","15","35214","0.0-8.0-0.7","60536ffae4f98513b671f482","650c16f0f2faf8d7a0d14c09","651c1eadc3ad235b03d3c7b6","null","null","<p style=""font-size: 60px; font-family: BACS"">dRhtdBC</p>","","","","","","","","",""
"html-keyboard-response","16","36217","0.0-8.0-0.8","60536ffae4f98513b671f482","650c16f0f2faf8d7a0d14c09","651c1eadc3ad235b03d3c7b6","null","null","<p style=""font-size: 60px; font-family: BACS"">rvOvUYbN</p>","","","","","","","","",""
"html-keyboard-response","17","37232","0.0-8.0-0.9","60536ffae4f98513b671f482","650c16f0f2faf8d7a0d14c09","651c1eadc3ad235b03d3c7b6","null","null","<p style=""font-size: 60px; font-family: BACS"">YLQmGmZb</p>","","","","","","","","",""
"html-keyboard-response","18","38244","0.0-8.0-0.10","60536ffae4f98513b671f482","650c16f0f2faf8d7a0d14c09","651c1eadc3ad235b03d3c7b6","null","null","<p style=""font-size: 60px; font-family: BACS"">TdmADOAK</p>","","","","","","","","",""
"html-keyboard-response","19","39253","0.0-8.0-0.11","60536ffae4f98513b671f482","650c16f0f2faf8d7a0d14c09","651c1eadc3ad235b03d3c7b6","null","null","<p style=""font-size: 60px; font-family: BACS"">RtRhdBC</p>","","","","","","","","",""
"html-keyboard-response","20","40257","0.0-8.0-0.12","60536ffae4f98513b671f482","650c16f0f2faf8d7a0d14c09","651c1eadc3ad235b03d3c7b6","null","null","<p style=""font-size: 60px; font-family: BACS"">DBlhYDE</p>","","","","","","","","",""
"html-keyboard-response","21","41280","0.0-8.0-0.13","60536ffae4f98513b671f482","650c16f0f2faf8d7a0d14c09","651c1eadc3ad235b03d3c7b6","null","null","<p style=""font-size: 60px; font-family: BACS"">rvOvUkYL</p>","","","","","","","","",""
"html-keyboard-response","22","42284","0.0-8.0-0.14","60536ffae4f98513b671f482","650c16f0f2faf8d7a0d14c09","651c1eadc3ad235b03d3c7b6","null","null","<p style=""font-size: 60px; font-family: BACS"">dMThkdTAh</p>","","","","","","","","",""
"html-keyboard-response","23","43289","0.0-8.0-0.15","60536ffae4f98513b671f482","650c16f0f2faf8d7a0d14c09","651c1eadc3ad235b03d3c7b6","null","null","<p style=""font-size: 60px; font-family: BACS"">UdYUQrkra</p>","","","","","","","","",""
"html-keyboard-response","24","44305","0.0-8.0-0.16","60536ffae4f98513b671f482","650c16f0f2faf8d7a0d14c09","651c1eadc3ad235b03d3c7b6","null","null","<p style=""font-size: 60px; font-family: BACS"">DBlhmKcD</p>","","","","","","","","",""
"html-keyboard-response","25","45311","0.0-8.0-0.17","60536ffae4f98513b671f482","650c16f0f2faf8d7a0d14c09","651c1eadc3ad235b03d3c7b6","null","null","<p style=""font-size: 60px; font-family: BACS"">MlthDOAK</p>","","","","","","","","",""
"html-keyboard-response","26","46330","0.0-8.0-0.18","60536ffae4f98513b671f482","650c16f0f2faf8d7a0d14c09","651c1eadc3ad235b03d3c7b6","null","null","<p style=""font-size: 60px; font-family: BACS"">dRhtmKcD</p>","","","","","","","","",""
"html-keyboard-response","27","47339","0.0-8.0-0.19","60536ffae4f98513b671f482","650c16f0f2faf8d7a0d14c09","651c1eadc3ad235b03d3c7b6","null","null","<p style=""font-size: 60px; font-family: BACS"">vkYGlmZb</p>","","","","","","","","",""
"html-keyboard-response","28","48342","0.0-8.0-0.20","60536ffae4f98513b671f482","650c16f0f2faf8d7a0d14c09","651c1eadc3ad235b03d3c7b6","null","null","<p style=""font-size: 60px; font-family: BACS"">UdYUQYbN</p>","","","","","","","","",""
"html-keyboard-response","29","49351","0.0-8.0-0.21","60536ffae4f98513b671f482","650c16f0f2faf8d7a0d14c09","651c1eadc3ad235b03d3c7b6","null","null","<p style=""font-size: 60px; font-family: BACS"">OLJblrkra</p>","","","","","","","","",""
"html-keyboard-response","30","50369","0.0-8.0-0.22","60536ffae4f98513b671f482","650c16f0f2faf8d7a0d14c09","651c1eadc3ad235b03d3c7b6","null","null","<p style=""font-size: 60px; font-family: BACS"">RtRhdTAh</p>","","","","","","","","",""
"html-keyboard-response","31","51374","0.0-8.0-0.23","60536ffae4f98513b671f482","650c16f0f2faf8d7a0d14c09","651c1eadc3ad235b03d3c7b6","null","null","<p style=""font-size: 60px; font-family: BACS"">kPOtYDE</p>","","","","","","","","",""
"html-keyboard-response","32","52393","0.0-8.0-0.24","60536ffae4f98513b671f482","650c16f0f2faf8d7a0d14c09","651c1eadc3ad235b03d3c7b6","null","null","<p style=""font-size: 60px; font-family: BACS"">ldAaYbN</p>","","","","","","","","",""
"html-keyboard-response","33","53403","0.0-8.0-0.25","60536ffae4f98513b671f482","650c16f0f2faf8d7a0d14c09","651c1eadc3ad235b03d3c7b6","null","null","<p style=""font-size: 60px; font-family: BACS"">dMThkdBC</p>","","","","","","","","",""
"html-keyboard-response","34","54406","0.0-8.0-0.26","60536ffae4f98513b671f482","650c16f0f2faf8d7a0d14c09","651c1eadc3ad235b03d3c7b6","null","null","<p style=""font-size: 60px; font-family: BACS"">EMbDPYDE</p>","","","","","","","","",""
"html-keyboard-response","35","55425","0.0-8.0-0.27","60536ffae4f98513b671f482","650c16f0f2faf8d7a0d14c09","651c1eadc3ad235b03d3c7b6","null","null","<p style=""font-size: 60px; font-family: BACS"">bdUNuYLU</p>","","","","","","","","",""
"html-keyboard-response","36","56444","0.0-8.0-0.28","60536ffae4f98513b671f482","650c16f0f2faf8d7a0d14c09","651c1eadc3ad235b03d3c7b6","null","null","<p style=""font-size: 60px; font-family: BACS"">mdlarkra</p>","","","","","","","","",""
"html-keyboard-response","37","57448","0.0-8.0-0.29","60536ffae4f98513b671f482","650c16f0f2faf8d7a0d14c09","651c1eadc3ad235b03d3c7b6","null","null","<p style=""font-size: 60px; font-family: BACS"">cAZuYbN</p>","","","","","","","","",""
"html-keyboard-response","38","58474","0.0-8.0-0.30","60536ffae4f98513b671f482","650c16f0f2faf8d7a0d14c09","651c1eadc3ad235b03d3c7b6","null","null","<p style=""font-size: 60px; font-family: BACS"">lBlEYDE</p>","","","","","","","","",""
"html-keyboard-response","39","59481","0.0-8.0-0.31","60536ffae4f98513b671f482","650c16f0f2faf8d7a0d14c09","651c1eadc3ad235b03d3c7b6","null","null","<p style=""font-size: 60px; font-family: BACS"">aUZAmZb</p>","","","","","","","","",""
"html-keyboard-response","40","60484","0.0-8.0-0.32","60536ffae4f98513b671f482","650c16f0f2faf8d7a0d14c09","651c1eadc3ad235b03d3c7b6","null","null","<p style=""font-size: 60px; font-family: BACS"">kKRCdTAh</p>","","","","","","","","",""
"html-keyboard-response","41","61490","0.0-8.0-0.33","60536ffae4f98513b671f482","650c16f0f2faf8d7a0d14c09","651c1eadc3ad235b03d3c7b6","null","null","<p style=""font-size: 60px; font-family: BACS"">ldAaYLU</p>","","","","","","","","",""
"html-keyboard-response","42","62500","0.0-8.0-0.34","60536ffae4f98513b671f482","650c16f0f2faf8d7a0d14c09","651c1eadc3ad235b03d3c7b6","null","null","<p style=""font-size: 60px; font-family: BACS"">bdUNurkra</p>","","","","","","","","",""
"html-keyboard-response","43","63516","0.0-8.0-0.35","60536ffae4f98513b671f482","650c16f0f2faf8d7a0d14c09","651c1eadc3ad235b03d3c7b6","null","null","<p style=""font-size: 60px; font-family: BACS"">kPOtdBC</p>","","","","","","","","",""
"html-keyboard-response","44","64523","0.0-8.0-0.36","60536ffae4f98513b671f482","650c16f0f2faf8d7a0d14c09","651c1eadc3ad235b03d3c7b6","null","null","<p style=""font-size: 60px; font-family: BACS"">OLJblYLU</p>","","","","","","","","",""
"html-keyboard-response","45","65549","0.0-8.0-0.37","60536ffae4f98513b671f482","650c16f0f2faf8d7a0d14c09","651c1eadc3ad235b03d3c7b6","null","null","<p style=""font-size: 60px; font-family: BACS"">kPOtDOAK</p>","","","","","","","","",""
"html-keyboard-response","46","66573","0.0-8.0-0.38","60536ffae4f98513b671f482","650c16f0f2faf8d7a0d14c09","651c1eadc3ad235b03d3c7b6","null","null","<p style=""font-size: 60px; font-family: BACS"">dRhtdTAh</p>","","","","","","","","",""
"html-keyboard-response","47","67591","0.0-8.0-0.39","60536ffae4f98513b671f482","650c16f0f2faf8d7a0d14c09","651c1eadc3ad235b03d3c7b6","null","null","<p style=""font-size: 60px; font-family: BACS"">aUZArkra</p>","","","","","","","","",""
"html-keyboard-response","48","68597","0.0-8.0-0.40","60536ffae4f98513b671f482","650c16f0f2faf8d7a0d14c09","651c1eadc3ad235b03d3c7b6","null","null","<p style=""font-size: 60px; font-family: BACS"">DBlhdBC</p>","","","","","","","","",""
"html-keyboard-response","49","69599","0.0-8.0-0.41","60536ffae4f98513b671f482","650c16f0f2faf8d7a0d14c09","651c1eadc3ad235b03d3c7b6","null","null","<p style=""font-size: 60px; font-family: BACS"">YLQmGkYL</p>","","","","","","","","",""
"html-keyboard-response","50","70605","0.0-8.0-0.42","60536ffae4f98513b671f482","650c16f0f2faf8d7a0d14c09","651c1eadc3ad235b03d3c7b6","null","null","<p style=""font-size: 60px; font-family: BACS"">EMbDPmKcD</p>","","","","","","","","",""
"html-keyboard-response","51","71621","0.0-8.0-0.43","60536ffae4f98513b671f482","650c16f0f2faf8d7a0d14c09","651c1eadc3ad235b03d3c7b6","null","null","<p style=""font-size: 60px; font-family: BACS"">aUZAYbN</p>","","","","","","","","",""
"html-keyboard-response","52","72641","0.0-8.0-0.44","60536ffae4f98513b671f482","650c16f0f2faf8d7a0d14c09","651c1eadc3ad235b03d3c7b6","null","null","<p style=""font-size: 60px; font-family: BACS"">rvOvUYLU</p>","","","","","","","","",""
"html-keyboard-response","53","73651","0.0-8.0-0.45","60536ffae4f98513b671f482","650c16f0f2faf8d7a0d14c09","651c1eadc3ad235b03d3c7b6","null","null","<p style=""font-size: 60px; font-family: BACS"">mdlaYbN</p>","","","","","","","","",""
"html-keyboard-response","54","74654","0.0-8.0-0.46","60536ffae4f98513b671f482","650c16f0f2faf8d7a0d14c09","651c1eadc3ad235b03d3c7b6","null","null","<p style=""font-size: 60px; font-family: BACS"">cAZurkra</p>","","","","","","","","",""
"html-keyboard-response","55","75660","0.0-8.0-0.47","60536ffae4f98513b671f482","650c16f0f2faf8d7a0d14c09","651c1eadc3ad235b03d3c7b6","null","null","<p style=""font-size: 60px; font-family: BACS"">aUZAkYL</p>","","","","","","","","",""
"html-keyboard-response","56","76677","0.0-8.0-0.48","60536ffae4f98513b671f482","650c16f0f2faf8d7a0d14c09","651c1eadc3ad235b03d3c7b6","null","null","<p style=""font-size: 60px; font-family: BACS"">YLQmGYbN</p>","","","","","","","","",""
"html-keyboard-response","57","77685","0.0-8.0-0.49","60536ffae4f98513b671f482","650c16f0f2faf8d7a0d14c09","651c1eadc3ad235b03d3c7b6","null","null","<p style=""font-size: 60px; font-family: BACS"">ldAakYL</p>","","","","","","","","",""
"html-keyboard-response","58","78691","0.0-8.0-0.50","60536ffae4f98513b671f482","650c16f0f2faf8d7a0d14c09","651c1eadc3ad235b03d3c7b6","null","null","<p style=""font-size: 60px; font-family: BACS"">vkYGlrkra</p>","","","","","","","","",""
"html-keyboard-response","59","79709","0.0-8.0-0.51","60536ffae4f98513b671f482","650c16f0f2faf8d7a0d14c09","651c1eadc3ad235b03d3c7b6","null","null","<p style=""font-size: 60px; font-family: BACS"">cAZukYL</p>","","","","","","","","",""
"html-keyboard-response","60","80731","0.0-8.0-0.52","60536ffae4f98513b671f482","650c16f0f2faf8d7a0d14c09","651c1eadc3ad235b03d3c7b6","null","null","<p style=""font-size: 60px; font-family: BACS"">YLQmGYLU</p>","","","","","","","","",""
"html-keyboard-response","61","81735","0.0-8.0-0.53","60536ffae4f98513b671f482","650c16f0f2faf8d7a0d14c09","651c1eadc3ad235b03d3c7b6","null","null","<p style=""font-size: 60px; font-family: BACS"">ldAamZb</p>","","","","","","","","",""
"html-keyboard-response","62","82739","0.0-8.0-0.54","60536ffae4f98513b671f482","650c16f0f2faf8d7a0d14c09","651c1eadc3ad235b03d3c7b6","null","null","<p style=""font-size: 60px; font-family: BACS"">kKRCmKcD</p>","","","","","","","","",""
"html-keyboard-response","63","83742","0.0-8.0-0.55","60536ffae4f98513b671f482","650c16f0f2faf8d7a0d14c09","651c1eadc3ad235b03d3c7b6","null","null","<p style=""font-size: 60px; font-family: BACS"">bdUNukYL</p>","","","","","","","","",""
"html-keyboard-response","64","84755","0.0-8.0-0.56","60536ffae4f98513b671f482","650c16f0f2faf8d7a0d14c09","651c1eadc3ad235b03d3c7b6","null","null","<p style=""font-size: 60px; font-family: BACS"">TdmAYDE</p>","","","","","","","","",""
"html-keyboard-response","65","85757","0.0-8.0-0.57","60536ffae4f98513b671f482","650c16f0f2faf8d7a0d14c09","651c1eadc3ad235b03d3c7b6","null","null","<p style=""font-size: 60px; font-family: BACS"">EMbDPdBC</p>","","","","","","","","",""
"html-keyboard-response","66","86760","0.0-8.0-0.58","60536ffae4f98513b671f482","650c16f0f2faf8d7a0d14c09","651c1eadc3ad235b03d3c7b6","null","null","<p style=""font-size: 60px; font-family: BACS"">lBlEDOAK</p>","","","","","","","","",""
"html-keyboard-response","67","87765","0.0-8.0-0.59","60536ffae4f98513b671f482","650c16f0f2faf8d7a0d14c09","651c1eadc3ad235b03d3c7b6","null","null","<p style=""font-size: 60px; font-family: BACS"">kPOtmKcD</p>","","","","","","","","",""
"html-keyboard-response","68","88769","0.0-8.0-0.60","60536ffae4f98513b671f482","650c16f0f2faf8d7a0d14c09","651c1eadc3ad235b03d3c7b6","null","null","<p style=""font-size: 60px; font-family: BACS"">RtRhDOAK</p>","","","","","","","","",""
"html-keyboard-response","69","89772","0.0-8.0-0.61","60536ffae4f98513b671f482","650c16f0f2faf8d7a0d14c09","651c1eadc3ad235b03d3c7b6","null","null","<p style=""font-size: 60px; font-family: BACS"">TdmAdBC</p>","","","","","","","","",""
"html-keyboard-response","70","90778","0.0-8.0-0.62","60536ffae4f98513b671f482","650c16f0f2faf8d7a0d14c09","651c1eadc3ad235b03d3c7b6","null","null","<p style=""font-size: 60px; font-family: BACS"">DBlhdTAh</p>","","","","","","","","",""
"html-keyboard-response","71","91793","0.0-8.0-0.63","60536ffae4f98513b671f482","650c16f0f2faf8d7a0d14c09","651c1eadc3ad235b03d3c7b6","null","null","<p style=""font-size: 60px; font-family: BACS"">UdYUQmZb</p>","","","","","","","","",""
"html-keyboard-response","72","92802","0.0-8.0-0.64","60536ffae4f98513b671f482","650c16f0f2faf8d7a0d14c09","651c1eadc3ad235b03d3c7b6","null","null","<p style=""font-size: 60px; font-family: BACS"">MlthmKcD</p>","","","","","","","","",""
"html-keyboard-response","73","93809","0.0-8.0-0.65","60536ffae4f98513b671f482","650c16f0f2faf8d7a0d14c09","651c1eadc3ad235b03d3c7b6","null","null","<p style=""font-size: 60px; font-family: BACS"">UdYUQYLU</p>","","","","","","","","",""
"html-keyboard-response","74","94825","0.0-8.0-0.66","60536ffae4f98513b671f482","650c16f0f2faf8d7a0d14c09","651c1eadc3ad235b03d3c7b6","null","null","<p style=""font-size: 60px; font-family: BACS"">lBlEdTAh</p>","","","","","","","","",""
"html-keyboard-response","75","95832","0.0-8.0-0.67","60536ffae4f98513b671f482","650c16f0f2faf8d7a0d14c09","651c1eadc3ad235b03d3c7b6","null","null","<p style=""font-size: 60px; font-family: BACS"">vkYGlYLU</p>","","","","","","","","",""
"html-keyboard-response","76","96839","0.0-8.0-0.68","60536ffae4f98513b671f482","650c16f0f2faf8d7a0d14c09","651c1eadc3ad235b03d3c7b6","null","null","<p style=""font-size: 60px; font-family: BACS"">EMbDPDOAK</p>","","","","","","","","",""
"html-keyboard-response","77","97849","0.0-8.0-0.69","60536ffae4f98513b671f482","650c16f0f2faf8d7a0d14c09","651c1eadc3ad235b03d3c7b6","null","null","<p style=""font-size: 60px; font-family: BACS"">RtRhYDE</p>","","","","","","","","",""
"html-keyboard-response","78","98857","0.0-8.0-0.70","60536ffae4f98513b671f482","650c16f0f2faf8d7a0d14c09","651c1eadc3ad235b03d3c7b6","null","null","<p style=""font-size: 60px; font-family: BACS"">mdlamZb</p>","","","","","","","","",""
"html-keyboard-response","79","99861","0.0-8.0-0.71","60536ffae4f98513b671f482","650c16f0f2faf8d7a0d14c09","651c1eadc3ad235b03d3c7b6","null","null","<p style=""font-size: 60px; font-family: BACS"">dRhtYDE</p>","","","","","","","","",""
"html-keyboard-response","80","100868","0.0-8.0-0.72","60536ffae4f98513b671f482","650c16f0f2faf8d7a0d14c09","651c1eadc3ad235b03d3c7b6","null","null","<p style=""font-size: 60px; font-family: BACS"">kKRCDOAK</p>","","","","","","","","",""
"html-keyboard-response","81","101882","0.0-8.0-0.73","60536ffae4f98513b671f482","650c16f0f2faf8d7a0d14c09","651c1eadc3ad235b03d3c7b6","null","null","<p style=""font-size: 60px; font-family: BACS"">bdUNumZb</p>","","","","","","","","",""
"html-keyboard-response","82","102886","0.0-8.0-0.74","60536ffae4f98513b671f482","650c16f0f2faf8d7a0d14c09","651c1eadc3ad235b03d3c7b6","null","null","<p style=""font-size: 60px; font-family: BACS"">rvOvUrkra</p>","","","","","","","","",""
"html-keyboard-response","83","103894","0.0-8.0-0.75","60536ffae4f98513b671f482","650c16f0f2faf8d7a0d14c09","651c1eadc3ad235b03d3c7b6","null","null","<p style=""font-size: 60px; font-family: BACS"">vkYGlkYL</p>","","","","","","","","",""
"html-keyboard-response","84","104898","0.0-8.0-0.76","60536ffae4f98513b671f482","650c16f0f2faf8d7a0d14c09","651c1eadc3ad235b03d3c7b6","null","null","<p style=""font-size: 60px; font-family: BACS"">dMThkDOAK</p>","","","","","","","","",""
"html-keyboard-response","85","105901","0.0-8.0-0.77","60536ffae4f98513b671f482","650c16f0f2faf8d7a0d14c09","651c1eadc3ad235b03d3c7b6","null","null","<p style=""font-size: 60px; font-family: BACS"">OLJblYbN</p>","","","","","","","","",""
"html-keyboard-response","86","106908","0.0-8.0-0.78","60536ffae4f98513b671f482","650c16f0f2faf8d7a0d14c09","651c1eadc3ad235b03d3c7b6","null","null","<p style=""font-size: 60px; font-family: BACS"">MlthdTAh</p>","","","","","","","","",""
"html-keyboard-response","87","107913","0.0-8.0-0.79","60536ffae4f98513b671f482","650c16f0f2faf8d7a0d14c09","651c1eadc3ad235b03d3c7b6","null","null","<p style=""font-size: 60px; font-family: BACS"">OLJblkYL</p>","","","","","","","","",""
"html-keyboard-response","88","118356","0.0-9.0","60536ffae4f98513b671f482","650c16f0f2faf8d7a0d14c09","651c1eadc3ad235b03d3c7b6","10440"," ","<p>Great, you've seen the first block of words. You may now take a short break.</p>
      <p>Press the spacebar when you're ready to continue.</p>","","","","","","","","",""
"html-keyboard-response","89","119364","0.0-10.0-0.0","60536ffae4f98513b671f482","650c16f0f2faf8d7a0d14c09","651c1eadc3ad235b03d3c7b6","null","null","<p style=""font-size: 60px; font-family: BACS"">lBlEDOAK</p>","","","","","","","","",""
"html-keyboard-response","90","120372","0.0-10.0-0.1","60536ffae4f98513b671f482","650c16f0f2faf8d7a0d14c09","651c1eadc3ad235b03d3c7b6","null","null","<p style=""font-size: 60px; font-family: BACS"">kKRCmKcD</p>","","","","","","","","",""
"html-keyboard-response","91","121375","0.0-10.0-0.2","60536ffae4f98513b671f482","650c16f0f2faf8d7a0d14c09","651c1eadc3ad235b03d3c7b6","null","null","<p style=""font-size: 60px; font-family: BACS"">OLJblYLU</p>","","","","","","","","",""
"html-keyboard-response","92","122396","0.0-10.0-0.3","60536ffae4f98513b671f482","650c16f0f2faf8d7a0d14c09","651c1eadc3ad235b03d3c7b6","null","null","<p style=""font-size: 60px; font-family: BACS"">aUZAmZb</p>","","","","","","","","",""
"html-keyboard-response","93","123400","0.0-10.0-0.4","60536ffae4f98513b671f482","650c16f0f2faf8d7a0d14c09","651c1eadc3ad235b03d3c7b6","null","null","<p style=""font-size: 60px; font-family: BACS"">vkYGlYLU</p>","","","","","","","","",""
"html-keyboard-response","94","124404","0.0-10.0-0.5","60536ffae4f98513b671f482","650c16f0f2faf8d7a0d14c09","651c1eadc3ad235b03d3c7b6","null","null","<p style=""font-size: 60px; font-family: BACS"">kPOtDOAK</p>","","","","","","","","",""
"html-keyboard-response","95","125406","0.0-10.0-0.6","60536ffae4f98513b671f482","650c16f0f2faf8d7a0d14c09","651c1eadc3ad235b03d3c7b6","null","null","<p style=""font-size: 60px; font-family: BACS"">mdlaYLU</p>","","","","","","","","",""
"html-keyboard-response","96","126410","0.0-10.0-0.7","60536ffae4f98513b671f482","650c16f0f2faf8d7a0d14c09","651c1eadc3ad235b03d3c7b6","null","null","<p style=""font-size: 60px; font-family: BACS"">MlthdTAh</p>","","","","","","","","",""
"html-keyboard-response","97","127413","0.0-10.0-0.8","60536ffae4f98513b671f482","650c16f0f2faf8d7a0d14c09","651c1eadc3ad235b03d3c7b6","null","null","<p style=""font-size: 60px; font-family: BACS"">kKRCYDE</p>","","","","","","","","",""
"html-keyboard-response","98","128427","0.0-10.0-0.9","60536ffae4f98513b671f482","650c16f0f2faf8d7a0d14c09","651c1eadc3ad235b03d3c7b6","null","null","<p style=""font-size: 60px; font-family: BACS"">YLQmGYbN</p>","","","","","","","","",""
"html-keyboard-response","99","129432","0.0-10.0-0.10","60536ffae4f98513b671f482","650c16f0f2faf8d7a0d14c09","651c1eadc3ad235b03d3c7b6","null","null","<p style=""font-size: 60px; font-family: BACS"">dMThkDOAK</p>","","","","","","","","",""
"html-keyboard-response","100","130436","0.0-10.0-0.11","60536ffae4f98513b671f482","650c16f0f2faf8d7a0d14c09","651c1eadc3ad235b03d3c7b6","null","null","<p style=""font-size: 60px; font-family: BACS"">RtRhdBC</p>","","","","","","","","",""
"html-keyboard-response","101","131439","0.0-10.0-0.12","60536ffae4f98513b671f482","650c16f0f2faf8d7a0d14c09","651c1eadc3ad235b03d3c7b6","null","null","<p style=""font-size: 60px; font-family: BACS"">TdmAYDE</p>","","","","","","","","",""
"html-keyboard-response","102","132456","0.0-10.0-0.13","60536ffae4f98513b671f482","650c16f0f2faf8d7a0d14c09","651c1eadc3ad235b03d3c7b6","null","null","<p style=""font-size: 60px; font-family: BACS"">rvOvUrkra</p>","","","","","","","","",""
"html-keyboard-response","103","133460","0.0-10.0-0.14","60536ffae4f98513b671f482","650c16f0f2faf8d7a0d14c09","651c1eadc3ad235b03d3c7b6","null","null","<p style=""font-size: 60px; font-family: BACS"">lBlEdTAh</p>","","","","","","","","",""
"html-keyboard-response","104","134473","0.0-10.0-0.15","60536ffae4f98513b671f482","650c16f0f2faf8d7a0d14c09","651c1eadc3ad235b03d3c7b6","null","null","<p style=""font-size: 60px; font-family: BACS"">EMbDPdBC</p>","","","","","","","","",""
"html-keyboard-response","105","135484","0.0-10.0-0.16","60536ffae4f98513b671f482","650c16f0f2faf8d7a0d14c09","651c1eadc3ad235b03d3c7b6","null","null","<p style=""font-size: 60px; font-family: BACS"">cAZurkra</p>","","","","","","","","",""
"html-keyboard-response","106","136498","0.0-10.0-0.17","60536ffae4f98513b671f482","650c16f0f2faf8d7a0d14c09","651c1eadc3ad235b03d3c7b6","null","null","<p style=""font-size: 60px; font-family: BACS"">bdUNuYLU</p>","","","","","","","","",""
"html-keyboard-response","107","137504","0.0-10.0-0.18","60536ffae4f98513b671f482","650c16f0f2faf8d7a0d14c09","651c1eadc3ad235b03d3c7b6","null","null","<p style=""font-size: 60px; font-family: BACS"">dRhtdBC</p>","","","","","","","","",""
"html-keyboard-response","108","138510","0.0-10.0-0.19","60536ffae4f98513b671f482","650c16f0f2faf8d7a0d14c09","651c1eadc3ad235b03d3c7b6","null","null","<p style=""font-size: 60px; font-family: BACS"">DBlhYDE</p>","","","","","","","","",""
"html-keyboard-response","109","139527","0.0-10.0-0.20","60536ffae4f98513b671f482","650c16f0f2faf8d7a0d14c09","651c1eadc3ad235b03d3c7b6","null","null","<p style=""font-size: 60px; font-family: BACS"">aUZAkYL</p>","","","","","","","","",""
"html-keyboard-response","110","140529","0.0-10.0-0.21","60536ffae4f98513b671f482","650c16f0f2faf8d7a0d14c09","651c1eadc3ad235b03d3c7b6","null","null","<p style=""font-size: 60px; font-family: BACS"">MlthmKcD</p>","","","","","","","","",""
"html-keyboard-response","111","141535","0.0-10.0-0.22","60536ffae4f98513b671f482","650c16f0f2faf8d7a0d14c09","651c1eadc3ad235b03d3c7b6","null","null","<p style=""font-size: 60px; font-family: BACS"">UdYUQYLU</p>","","","","","","","","",""
"html-keyboard-response","112","142541","0.0-10.0-0.23","60536ffae4f98513b671f482","650c16f0f2faf8d7a0d14c09","651c1eadc3ad235b03d3c7b6","null","null","<p style=""font-size: 60px; font-family: BACS"">MlthdBC</p>","","","","","","","","",""
"html-keyboard-response","113","143557","0.0-10.0-0.24","60536ffae4f98513b671f482","650c16f0f2faf8d7a0d14c09","651c1eadc3ad235b03d3c7b6","null","null","<p style=""font-size: 60px; font-family: BACS"">bdUNumZb</p>","","","","","","","","",""
"html-keyboard-response","114","144571","0.0-10.0-0.25","60536ffae4f98513b671f482","650c16f0f2faf8d7a0d14c09","651c1eadc3ad235b03d3c7b6","null","null","<p style=""font-size: 60px; font-family: BACS"">TdmAdTAh</p>","","","","","","","","",""
"html-keyboard-response","115","145589","0.0-10.0-0.26","60536ffae4f98513b671f482","650c16f0f2faf8d7a0d14c09","651c1eadc3ad235b03d3c7b6","null","null","<p style=""font-size: 60px; font-family: BACS"">mdlamZb</p>","","","","","","","","",""
"html-keyboard-response","116","146592","0.0-10.0-0.27","60536ffae4f98513b671f482","650c16f0f2faf8d7a0d14c09","651c1eadc3ad235b03d3c7b6","null","null","<p style=""font-size: 60px; font-family: BACS"">OLJblkYL</p>","","","","","","","","",""
"html-keyboard-response","117","147596","0.0-10.0-0.28","60536ffae4f98513b671f482","650c16f0f2faf8d7a0d14c09","651c1eadc3ad235b03d3c7b6","null","null","<p style=""font-size: 60px; font-family: BACS"">vkYGlrkra</p>","","","","","","","","",""
"html-keyboard-response","118","148600","0.0-10.0-0.29","60536ffae4f98513b671f482","650c16f0f2faf8d7a0d14c09","651c1eadc3ad235b03d3c7b6","null","null","<p style=""font-size: 60px; font-family: BACS"">lBlEmKcD</p>","","","","","","","","",""
"html-keyboard-response","119","149604","0.0-10.0-0.30","60536ffae4f98513b671f482","650c16f0f2faf8d7a0d14c09","651c1eadc3ad235b03d3c7b6","null","null","<p style=""font-size: 60px; font-family: BACS"">bdUNukYL</p>","","","","","","","","",""
"html-keyboard-response","120","150608","0.0-10.0-0.31","60536ffae4f98513b671f482","650c16f0f2faf8d7a0d14c09","651c1eadc3ad235b03d3c7b6","null","null","<p style=""font-size: 60px; font-family: BACS"">UdYUQYbN</p>","","","","","","","","",""
"html-keyboard-response","121","151613","0.0-10.0-0.32","60536ffae4f98513b671f482","650c16f0f2faf8d7a0d14c09","651c1eadc3ad235b03d3c7b6","null","null","<p style=""font-size: 60px; font-family: BACS"">bdUNurkra</p>","","","","","","","","",""
"html-keyboard-response","122","152616","0.0-10.0-0.33","60536ffae4f98513b671f482","650c16f0f2faf8d7a0d14c09","651c1eadc3ad235b03d3c7b6","null","null","<p style=""font-size: 60px; font-family: BACS"">RtRhDOAK</p>","","","","","","","","",""
"html-keyboard-response","123","153621","0.0-10.0-0.34","60536ffae4f98513b671f482","650c16f0f2faf8d7a0d14c09","651c1eadc3ad235b03d3c7b6","null","null","<p style=""font-size: 60px; font-family: BACS"">DBlhdBC</p>","","","","","","","","",""
"html-keyboard-response","124","154635","0.0-10.0-0.35","60536ffae4f98513b671f482","650c16f0f2faf8d7a0d14c09","651c1eadc3ad235b03d3c7b6","null","null","<p style=""font-size: 60px; font-family: BACS"">OLJblYbN</p>","","","","","","","","",""
"html-keyboard-response","125","155638","0.0-10.0-0.36","60536ffae4f98513b671f482","650c16f0f2faf8d7a0d14c09","651c1eadc3ad235b03d3c7b6","null","null","<p style=""font-size: 60px; font-family: BACS"">DBlhmKcD</p>","","","","","","","","",""
"html-keyboard-response","126","156641","0.0-10.0-0.37","60536ffae4f98513b671f482","650c16f0f2faf8d7a0d14c09","651c1eadc3ad235b03d3c7b6","null","null","<p style=""font-size: 60px; font-family: BACS"">RtRhYDE</p>","","","","","","","","",""
"html-keyboard-response","127","157643","0.0-10.0-0.38","60536ffae4f98513b671f482","650c16f0f2faf8d7a0d14c09","651c1eadc3ad235b03d3c7b6","null","null","<p style=""font-size: 60px; font-family: BACS"">rvOvUkYL</p>","","","","","","","","",""
"html-keyboard-response","128","158647","0.0-10.0-0.39","60536ffae4f98513b671f482","650c16f0f2faf8d7a0d14c09","651c1eadc3ad235b03d3c7b6","null","null","<p style=""font-size: 60px; font-family: BACS"">kPOtYDE</p>","","","","","","","","",""
"html-keyboard-response","129","159650","0.0-10.0-0.40","60536ffae4f98513b671f482","650c16f0f2faf8d7a0d14c09","651c1eadc3ad235b03d3c7b6","null","null","<p style=""font-size: 60px; font-family: BACS"">MlthDOAK</p>","","","","","","","","",""
"html-keyboard-response","130","160654","0.0-10.0-0.41","60536ffae4f98513b671f482","650c16f0f2faf8d7a0d14c09","651c1eadc3ad235b03d3c7b6","null","null","<p style=""font-size: 60px; font-family: BACS"">ldAaYbN</p>","","","","","","","","",""
"html-keyboard-response","131","161658","0.0-10.0-0.42","60536ffae4f98513b671f482","650c16f0f2faf8d7a0d14c09","651c1eadc3ad235b03d3c7b6","null","null","<p style=""font-size: 60px; font-family: BACS"">OLJblrkra</p>","","","","","","","","",""
"html-keyboard-response","132","162660","0.0-10.0-0.43","60536ffae4f98513b671f482","650c16f0f2faf8d7a0d14c09","651c1eadc3ad235b03d3c7b6","null","null","<p style=""font-size: 60px; font-family: BACS"">dMThkdBC</p>","","","","","","","","",""
"html-keyboard-response","133","163665","0.0-10.0-0.44","60536ffae4f98513b671f482","650c16f0f2faf8d7a0d14c09","651c1eadc3ad235b03d3c7b6","null","null","<p style=""font-size: 60px; font-family: BACS"">ldAakYL</p>","","","","","","","","",""
"html-keyboard-response","134","164668","0.0-10.0-0.45","60536ffae4f98513b671f482","650c16f0f2faf8d7a0d14c09","651c1eadc3ad235b03d3c7b6","null","null","<p style=""font-size: 60px; font-family: BACS"">TdmADOAK</p>","","","","","","","","",""
"html-keyboard-response","135","165672","0.0-10.0-0.46","60536ffae4f98513b671f482","650c16f0f2faf8d7a0d14c09","651c1eadc3ad235b03d3c7b6","null","null","<p style=""font-size: 60px; font-family: BACS"">aUZArkra</p>","","","","","","","","",""
"html-keyboard-response","136","166674","0.0-10.0-0.47","60536ffae4f98513b671f482","650c16f0f2faf8d7a0d14c09","651c1eadc3ad235b03d3c7b6","null","null","<p style=""font-size: 60px; font-family: BACS"">EMbDPmKcD</p>","","","","","","","","",""
"html-keyboard-response","137","167688","0.0-10.0-0.48","60536ffae4f98513b671f482","650c16f0f2faf8d7a0d14c09","651c1eadc3ad235b03d3c7b6","null","null","<p style=""font-size: 60px; font-family: BACS"">mdlarkra</p>","","","","","","","","",""
"html-keyboard-response","138","168692","0.0-10.0-0.49","60536ffae4f98513b671f482","650c16f0f2faf8d7a0d14c09","651c1eadc3ad235b03d3c7b6","null","null","<p style=""font-size: 60px; font-family: BACS"">YLQmGmZb</p>","","","","","","","","",""
"html-keyboard-response","139","169696","0.0-10.0-0.50","60536ffae4f98513b671f482","650c16f0f2faf8d7a0d14c09","651c1eadc3ad235b03d3c7b6","null","null","<p style=""font-size: 60px; font-family: BACS"">TdmAdBC</p>","","","","","","","","",""
"html-keyboard-response","140","170700","0.0-10.0-0.51","60536ffae4f98513b671f482","650c16f0f2faf8d7a0d14c09","651c1eadc3ad235b03d3c7b6","null","null","<p style=""font-size: 60px; font-family: BACS"">EMbDPYDE</p>","","","","","","","","",""
"html-keyboard-response","141","171705","0.0-10.0-0.52","60536ffae4f98513b671f482","650c16f0f2faf8d7a0d14c09","651c1eadc3ad235b03d3c7b6","null","null","<p style=""font-size: 60px; font-family: BACS"">YLQmGkYL</p>","","","","","","","","",""
"html-keyboard-response","142","172712","0.0-10.0-0.53","60536ffae4f98513b671f482","650c16f0f2faf8d7a0d14c09","651c1eadc3ad235b03d3c7b6","null","null","<p style=""font-size: 60px; font-family: BACS"">DBlhdTAh</p>","","","","","","","","",""
"html-keyboard-response","143","173729","0.0-10.0-0.54","60536ffae4f98513b671f482","650c16f0f2faf8d7a0d14c09","651c1eadc3ad235b03d3c7b6","null","null","<p style=""font-size: 60px; font-family: BACS"">mdlaYbN</p>","","","","","","","","",""
"html-keyboard-response","144","174746","0.0-10.0-0.55","60536ffae4f98513b671f482","650c16f0f2faf8d7a0d14c09","651c1eadc3ad235b03d3c7b6","null","null","<p style=""font-size: 60px; font-family: BACS"">dRhtYDE</p>","","","","","","","","",""
"html-keyboard-response","145","175758","0.0-10.0-0.56","60536ffae4f98513b671f482","650c16f0f2faf8d7a0d14c09","651c1eadc3ad235b03d3c7b6","null","null","<p style=""font-size: 60px; font-family: BACS"">EMbDPDOAK</p>","","","","","","","","",""
"html-keyboard-response","146","176760","0.0-10.0-0.57","60536ffae4f98513b671f482","650c16f0f2faf8d7a0d14c09","651c1eadc3ad235b03d3c7b6","null","null","<p style=""font-size: 60px; font-family: BACS"">aUZAYbN</p>","","","","","","","","",""
"html-keyboard-response","147","177779","0.0-10.0-0.58","60536ffae4f98513b671f482","650c16f0f2faf8d7a0d14c09","651c1eadc3ad235b03d3c7b6","null","null","<p style=""font-size: 60px; font-family: BACS"">YLQmGYLU</p>","","","","","","","","",""
"html-keyboard-response","148","178796","0.0-10.0-0.59","60536ffae4f98513b671f482","650c16f0f2faf8d7a0d14c09","651c1eadc3ad235b03d3c7b6","null","null","<p style=""font-size: 60px; font-family: BACS"">RtRhdTAh</p>","","","","","","","","",""
"html-keyboard-response","149","179805","0.0-10.0-0.60","60536ffae4f98513b671f482","650c16f0f2faf8d7a0d14c09","651c1eadc3ad235b03d3c7b6","null","null","<p style=""font-size: 60px; font-family: BACS"">vkYGlkYL</p>","","","","","","","","",""
"html-keyboard-response","150","180808","0.0-10.0-0.61","60536ffae4f98513b671f482","650c16f0f2faf8d7a0d14c09","651c1eadc3ad235b03d3c7b6","null","null","<p style=""font-size: 60px; font-family: BACS"">kKRCDOAK</p>","","","","","","","","",""
"html-keyboard-response","151","181816","0.0-10.0-0.62","60536ffae4f98513b671f482","650c16f0f2faf8d7a0d14c09","651c1eadc3ad235b03d3c7b6","null","null","<p style=""font-size: 60px; font-family: BACS"">UdYUQrkra</p>","","","","","","","","",""
"html-keyboard-response","152","182833","0.0-10.0-0.63","60536ffae4f98513b671f482","650c16f0f2faf8d7a0d14c09","651c1eadc3ad235b03d3c7b6","null","null","<p style=""font-size: 60px; font-family: BACS"">dRhtdTAh</p>","","","","","","","","",""
"html-keyboard-response","153","183841","0.0-10.0-0.64","60536ffae4f98513b671f482","650c16f0f2faf8d7a0d14c09","651c1eadc3ad235b03d3c7b6","null","null","<p style=""font-size: 60px; font-family: BACS"">cAZukYL</p>","","","","","","","","",""
"html-keyboard-response","154","184845","0.0-10.0-0.65","60536ffae4f98513b671f482","650c16f0f2faf8d7a0d14c09","651c1eadc3ad235b03d3c7b6","null","null","<p style=""font-size: 60px; font-family: BACS"">kKRCdTAh</p>","","","","","","","","",""
"html-keyboard-response","155","185867","0.0-10.0-0.66","60536ffae4f98513b671f482","650c16f0f2faf8d7a0d14c09","651c1eadc3ad235b03d3c7b6","null","null","<p style=""font-size: 60px; font-family: BACS"">rvOvUYLU</p>","","","","","","","","",""
"html-keyboard-response","156","186871","0.0-10.0-0.67","60536ffae4f98513b671f482","650c16f0f2faf8d7a0d14c09","651c1eadc3ad235b03d3c7b6","null","null","<p style=""font-size: 60px; font-family: BACS"">vkYGlmZb</p>","","","","","","","","",""
"html-keyboard-response","157","187874","0.0-10.0-0.68","60536ffae4f98513b671f482","650c16f0f2faf8d7a0d14c09","651c1eadc3ad235b03d3c7b6","null","null","<p style=""font-size: 60px; font-family: BACS"">dMThkmKcD</p>","","","","","","","","",""
"html-keyboard-response","158","188877","0.0-10.0-0.69","60536ffae4f98513b671f482","650c16f0f2faf8d7a0d14c09","651c1eadc3ad235b03d3c7b6","null","null","<p style=""font-size: 60px; font-family: BACS"">UdYUQmZb</p>","","","","","","","","",""
"html-keyboard-response","159","189880","0.0-10.0-0.70","60536ffae4f98513b671f482","650c16f0f2faf8d7a0d14c09","651c1eadc3ad235b03d3c7b6","null","null","<p style=""font-size: 60px; font-family: BACS"">kPOtdBC</p>","","","","","","","","",""
"html-keyboard-response","160","190883","0.0-10.0-0.71","60536ffae4f98513b671f482","650c16f0f2faf8d7a0d14c09","651c1eadc3ad235b03d3c7b6","null","null","<p style=""font-size: 60px; font-family: BACS"">cAZumZb</p>","","","","","","","","",""
"html-keyboard-response","161","191887","0.0-10.0-0.72","60536ffae4f98513b671f482","650c16f0f2faf8d7a0d14c09","651c1eadc3ad235b03d3c7b6","null","null","<p style=""font-size: 60px; font-family: BACS"">kPOtmKcD</p>","","","","","","","","",""
"html-keyboard-response","162","192889","0.0-10.0-0.73","60536ffae4f98513b671f482","650c16f0f2faf8d7a0d14c09","651c1eadc3ad235b03d3c7b6","null","null","<p style=""font-size: 60px; font-family: BACS"">ldAamZb</p>","","","","","","","","",""
"html-keyboard-response","163","193893","0.0-10.0-0.74","60536ffae4f98513b671f482","650c16f0f2faf8d7a0d14c09","651c1eadc3ad235b03d3c7b6","null","null","<p style=""font-size: 60px; font-family: BACS"">rvOvUYbN</p>","","","","","","","","",""
"html-keyboard-response","164","194896","0.0-10.0-0.75","60536ffae4f98513b671f482","650c16f0f2faf8d7a0d14c09","651c1eadc3ad235b03d3c7b6","null","null","<p style=""font-size: 60px; font-family: BACS"">lBlEYDE</p>","","","","","","","","",""
"html-keyboard-response","165","195900","0.0-10.0-0.76","60536ffae4f98513b671f482","650c16f0f2faf8d7a0d14c09","651c1eadc3ad235b03d3c7b6","null","null","<p style=""font-size: 60px; font-family: BACS"">dRhtmKcD</p>","","","","","","","","",""
"html-keyboard-response","166","196905","0.0-10.0-0.77","60536ffae4f98513b671f482","650c16f0f2faf8d7a0d14c09","651c1eadc3ad235b03d3c7b6","null","null","<p style=""font-size: 60px; font-family: BACS"">cAZuYbN</p>","","","","","","","","",""
"html-keyboard-response","167","197909","0.0-10.0-0.78","60536ffae4f98513b671f482","650c16f0f2faf8d7a0d14c09","651c1eadc3ad235b03d3c7b6","null","null","<p style=""font-size: 60px; font-family: BACS"">ldAaYLU</p>","","","","","","","","",""
"html-keyboard-response","168","198913","0.0-10.0-0.79","60536ffae4f98513b671f482","650c16f0f2faf8d7a0d14c09","651c1eadc3ad235b03d3c7b6","null","null","<p style=""font-size: 60px; font-family: BACS"">dMThkdTAh</p>","","","","","","","","",""
"html-keyboard-response","169","201565","0.0-11.0","60536ffae4f98513b671f482","650c16f0f2faf8d7a0d14c09","651c1eadc3ad235b03d3c7b6","2650"," ","<p>Great, you've seen the second block of words. You may now take a short break.</p>
      <p>Press the spacebar when you're ready to continue.</p>","","","","","","","","",""
"html-keyboard-response","170","202567","0.0-12.0-0.0","60536ffae4f98513b671f482","650c16f0f2faf8d7a0d14c09","651c1eadc3ad235b03d3c7b6","null","null","<p style=""font-size: 60px; font-family: BACS"">rvOvUYbN</p>","","","","","","","","",""
"html-keyboard-response","171","203577","0.0-12.0-0.1","60536ffae4f98513b671f482","650c16f0f2faf8d7a0d14c09","651c1eadc3ad235b03d3c7b6","null","null","<p style=""font-size: 60px; font-family: BACS"">cAZukYL</p>","","","","","","","","",""
"html-keyboard-response","172","204591","0.0-12.0-0.2","60536ffae4f98513b671f482","650c16f0f2faf8d7a0d14c09","651c1eadc3ad235b03d3c7b6","null","null","<p style=""font-size: 60px; font-family: BACS"">DBlhdBC</p>","","","","","","","","",""
"html-keyboard-response","173","205606","0.0-12.0-0.3","60536ffae4f98513b671f482","650c16f0f2faf8d7a0d14c09","651c1eadc3ad235b03d3c7b6","null","null","<p style=""font-size: 60px; font-family: BACS"">MlthDOAK</p>","","","","","","","","",""
"html-keyboard-response","174","206610","0.0-12.0-0.4","60536ffae4f98513b671f482","650c16f0f2faf8d7a0d14c09","651c1eadc3ad235b03d3c7b6","null","null","<p style=""font-size: 60px; font-family: BACS"">aUZArkra</p>","","","","","","","","",""
"html-keyboard-response","175","207625","0.0-12.0-0.5","60536ffae4f98513b671f482","650c16f0f2faf8d7a0d14c09","651c1eadc3ad235b03d3c7b6","null","null","<p style=""font-size: 60px; font-family: BACS"">DBlhdTAh</p>","","","","","","","","",""
"html-keyboard-response","176","208627","0.0-12.0-0.6","60536ffae4f98513b671f482","650c16f0f2faf8d7a0d14c09","651c1eadc3ad235b03d3c7b6","null","null","<p style=""font-size: 60px; font-family: BACS"">OLJblkYL</p>","","","","","","","","",""
"html-keyboard-response","177","209642","0.0-12.0-0.7","60536ffae4f98513b671f482","650c16f0f2faf8d7a0d14c09","651c1eadc3ad235b03d3c7b6","null","null","<p style=""font-size: 60px; font-family: BACS"">dRhtYDE</p>","","","","","","","","",""
"html-keyboard-response","178","210651","0.0-12.0-0.8","60536ffae4f98513b671f482","650c16f0f2faf8d7a0d14c09","651c1eadc3ad235b03d3c7b6","null","null","<p style=""font-size: 60px; font-family: BACS"">YLQmGmZb</p>","","","","","","","","",""
"html-keyboard-response","179","211673","0.0-12.0-0.9","60536ffae4f98513b671f482","650c16f0f2faf8d7a0d14c09","651c1eadc3ad235b03d3c7b6","null","null","<p style=""font-size: 60px; font-family: BACS"">DBlhYDE</p>","","","","","","","","",""
"html-keyboard-response","180","212693","0.0-12.0-0.10","60536ffae4f98513b671f482","650c16f0f2faf8d7a0d14c09","651c1eadc3ad235b03d3c7b6","null","null","<p style=""font-size: 60px; font-family: BACS"">UdYUQmZb</p>","","","","","","","","",""
"html-keyboard-response","181","213701","0.0-12.0-0.11","60536ffae4f98513b671f482","650c16f0f2faf8d7a0d14c09","651c1eadc3ad235b03d3c7b6","null","null","<p style=""font-size: 60px; font-family: BACS"">dRhtmKcD</p>","","","","","","","","",""
"html-keyboard-response","182","214716","0.0-12.0-0.12","60536ffae4f98513b671f482","650c16f0f2faf8d7a0d14c09","651c1eadc3ad235b03d3c7b6","null","null","<p style=""font-size: 60px; font-family: BACS"">aUZAYbN</p>","","","","","","","","",""
"html-keyboard-response","183","215737","0.0-12.0-0.13","60536ffae4f98513b671f482","650c16f0f2faf8d7a0d14c09","651c1eadc3ad235b03d3c7b6","null","null","<p style=""font-size: 60px; font-family: BACS"">rvOvUYLU</p>","","","","","","","","",""
"html-keyboard-response","184","216751","0.0-12.0-0.14","60536ffae4f98513b671f482","650c16f0f2faf8d7a0d14c09","651c1eadc3ad235b03d3c7b6","null","null","<p style=""font-size: 60px; font-family: BACS"">dMThkmKcD</p>","","","","","","","","",""
"html-keyboard-response","185","217756","0.0-12.0-0.15","60536ffae4f98513b671f482","650c16f0f2faf8d7a0d14c09","651c1eadc3ad235b03d3c7b6","null","null","<p style=""font-size: 60px; font-family: BACS"">mdlaYbN</p>","","","","","","","","",""
"html-keyboard-response","186","218766","0.0-12.0-0.16","60536ffae4f98513b671f482","650c16f0f2faf8d7a0d14c09","651c1eadc3ad235b03d3c7b6","null","null","<p style=""font-size: 60px; font-family: BACS"">vkYGlYLU</p>","","","","","","","","",""
"html-keyboard-response","187","219771","0.0-12.0-0.17","60536ffae4f98513b671f482","650c16f0f2faf8d7a0d14c09","651c1eadc3ad235b03d3c7b6","null","null","<p style=""font-size: 60px; font-family: BACS"">YLQmGkYL</p>","","","","","","","","",""
"html-keyboard-response","188","220786","0.0-12.0-0.18","60536ffae4f98513b671f482","650c16f0f2faf8d7a0d14c09","651c1eadc3ad235b03d3c7b6","null","null","<p style=""font-size: 60px; font-family: BACS"">kPOtdBC</p>","","","","","","","","",""
"html-keyboard-response","189","221796","0.0-12.0-0.19","60536ffae4f98513b671f482","650c16f0f2faf8d7a0d14c09","651c1eadc3ad235b03d3c7b6","null","null","<p style=""font-size: 60px; font-family: BACS"">lBlEdTAh</p>","","","","","","","","",""
"html-keyboard-response","190","222821","0.0-12.0-0.20","60536ffae4f98513b671f482","650c16f0f2faf8d7a0d14c09","651c1eadc3ad235b03d3c7b6","null","null","<p style=""font-size: 60px; font-family: BACS"">ldAaYLU</p>","","","","","","","","",""
"html-keyboard-response","191","223835","0.0-12.0-0.21","60536ffae4f98513b671f482","650c16f0f2faf8d7a0d14c09","651c1eadc3ad235b03d3c7b6","null","null","<p style=""font-size: 60px; font-family: BACS"">mdlarkra</p>","","","","","","","","",""
"html-keyboard-response","192","224842","0.0-12.0-0.22","60536ffae4f98513b671f482","650c16f0f2faf8d7a0d14c09","651c1eadc3ad235b03d3c7b6","null","null","<p style=""font-size: 60px; font-family: BACS"">TdmAdBC</p>","","","","","","","","",""
"html-keyboard-response","193","225846","0.0-12.0-0.23","60536ffae4f98513b671f482","650c16f0f2faf8d7a0d14c09","651c1eadc3ad235b03d3c7b6","null","null","<p style=""font-size: 60px; font-family: BACS"">UdYUQYbN</p>","","","","","","","","",""
"html-keyboard-response","194","226851","0.0-12.0-0.24","60536ffae4f98513b671f482","650c16f0f2faf8d7a0d14c09","651c1eadc3ad235b03d3c7b6","null","null","<p style=""font-size: 60px; font-family: BACS"">TdmADOAK</p>","","","","","","","","",""
"html-keyboard-response","195","227855","0.0-12.0-0.25","60536ffae4f98513b671f482","650c16f0f2faf8d7a0d14c09","651c1eadc3ad235b03d3c7b6","null","null","<p style=""font-size: 60px; font-family: BACS"">vkYGlrkra</p>","","","","","","","","",""
"html-keyboard-response","196","228872","0.0-12.0-0.26","60536ffae4f98513b671f482","650c16f0f2faf8d7a0d14c09","651c1eadc3ad235b03d3c7b6","null","null","<p style=""font-size: 60px; font-family: BACS"">TdmAYDE</p>","","","","","","","","",""
"html-keyboard-response","197","229884","0.0-12.0-0.27","60536ffae4f98513b671f482","650c16f0f2faf8d7a0d14c09","651c1eadc3ad235b03d3c7b6","null","null","<p style=""font-size: 60px; font-family: BACS"">UdYUQrkra</p>","","","","","","","","",""
"html-keyboard-response","198","230890","0.0-12.0-0.28","60536ffae4f98513b671f482","650c16f0f2faf8d7a0d14c09","651c1eadc3ad235b03d3c7b6","null","null","<p style=""font-size: 60px; font-family: BACS"">kKRCDOAK</p>","","","","","","","","",""
"html-keyboard-response","199","231899","0.0-12.0-0.29","60536ffae4f98513b671f482","650c16f0f2faf8d7a0d14c09","651c1eadc3ad235b03d3c7b6","null","null","<p style=""font-size: 60px; font-family: BACS"">cAZumZb</p>","","","","","","","","",""
"html-keyboard-response","200","232905","0.0-12.0-0.30","60536ffae4f98513b671f482","650c16f0f2faf8d7a0d14c09","651c1eadc3ad235b03d3c7b6","null","null","<p style=""font-size: 60px; font-family: BACS"">dRhtdTAh</p>","","","","","","","","",""
"html-keyboard-response","201","233908","0.0-12.0-0.31","60536ffae4f98513b671f482","650c16f0f2faf8d7a0d14c09","651c1eadc3ad235b03d3c7b6","null","null","<p style=""font-size: 60px; font-family: BACS"">EMbDPdBC</p>","","","","","","","","",""
"html-keyboard-response","202","234913","0.0-12.0-0.32","60536ffae4f98513b671f482","650c16f0f2faf8d7a0d14c09","651c1eadc3ad235b03d3c7b6","null","null","<p style=""font-size: 60px; font-family: BACS"">OLJblrkra</p>","","","","","","","","",""
"html-keyboard-response","203","235915","0.0-12.0-0.33","60536ffae4f98513b671f482","650c16f0f2faf8d7a0d14c09","651c1eadc3ad235b03d3c7b6","null","null","<p style=""font-size: 60px; font-family: BACS"">bdUNuYLU</p>","","","","","","","","",""
"html-keyboard-response","204","236931","0.0-12.0-0.34","60536ffae4f98513b671f482","650c16f0f2faf8d7a0d14c09","651c1eadc3ad235b03d3c7b6","null","null","<p style=""font-size: 60px; font-family: BACS"">mdlamZb</p>","","","","","","","","",""
"html-keyboard-response","205","237948","0.0-12.0-0.35","60536ffae4f98513b671f482","650c16f0f2faf8d7a0d14c09","651c1eadc3ad235b03d3c7b6","null","null","<p style=""font-size: 60px; font-family: BACS"">rvOvUrkra</p>","","","","","","","","",""
"html-keyboard-response","206","238955","0.0-12.0-0.36","60536ffae4f98513b671f482","650c16f0f2faf8d7a0d14c09","651c1eadc3ad235b03d3c7b6","null","null","<p style=""font-size: 60px; font-family: BACS"">ldAakYL</p>","","","","","","","","",""
"html-keyboard-response","207","239959","0.0-12.0-0.37","60536ffae4f98513b671f482","650c16f0f2faf8d7a0d14c09","651c1eadc3ad235b03d3c7b6","null","null","<p style=""font-size: 60px; font-family: BACS"">RtRhDOAK</p>","","","","","","","","",""
"html-keyboard-response","208","240963","0.0-12.0-0.38","60536ffae4f98513b671f482","650c16f0f2faf8d7a0d14c09","651c1eadc3ad235b03d3c7b6","null","null","<p style=""font-size: 60px; font-family: BACS"">kPOtYDE</p>","","","","","","","","",""
"html-keyboard-response","209","241967","0.0-12.0-0.39","60536ffae4f98513b671f482","650c16f0f2faf8d7a0d14c09","651c1eadc3ad235b03d3c7b6","null","null","<p style=""font-size: 60px; font-family: BACS"">DBlhmKcD</p>","","","","","","","","",""
"html-keyboard-response","210","242971","0.0-12.0-0.40","60536ffae4f98513b671f482","650c16f0f2faf8d7a0d14c09","651c1eadc3ad235b03d3c7b6","null","null","<p style=""font-size: 60px; font-family: BACS"">MlthdBC</p>","","","","","","","","",""
"html-keyboard-response","211","243974","0.0-12.0-0.41","60536ffae4f98513b671f482","650c16f0f2faf8d7a0d14c09","651c1eadc3ad235b03d3c7b6","null","null","<p style=""font-size: 60px; font-family: BACS"">lBlEYDE</p>","","","","","","","","",""
"html-keyboard-response","212","244976","0.0-12.0-0.42","60536ffae4f98513b671f482","650c16f0f2faf8d7a0d14c09","651c1eadc3ad235b03d3c7b6","null","null","<p style=""font-size: 60px; font-family: BACS"">bdUNurkra</p>","","","","","","","","",""
"html-keyboard-response","213","245980","0.0-12.0-0.43","60536ffae4f98513b671f482","650c16f0f2faf8d7a0d14c09","651c1eadc3ad235b03d3c7b6","null","null","<p style=""font-size: 60px; font-family: BACS"">YLQmGYLU</p>","","","","","","","","",""
"html-keyboard-response","214","246983","0.0-12.0-0.44","60536ffae4f98513b671f482","650c16f0f2faf8d7a0d14c09","651c1eadc3ad235b03d3c7b6","null","null","<p style=""font-size: 60px; font-family: BACS"">EMbDPmKcD</p>","","","","","","","","",""
"html-keyboard-response","215","247986","0.0-12.0-0.45","60536ffae4f98513b671f482","650c16f0f2faf8d7a0d14c09","651c1eadc3ad235b03d3c7b6","null","null","<p style=""font-size: 60px; font-family: BACS"">ldAamZb</p>","","","","","","","","",""
"html-keyboard-response","216","248991","0.0-12.0-0.46","60536ffae4f98513b671f482","650c16f0f2faf8d7a0d14c09","651c1eadc3ad235b03d3c7b6","null","null","<p style=""font-size: 60px; font-family: BACS"">MlthdTAh</p>","","","","","","","","",""
"html-keyboard-response","217","250001","0.0-12.0-0.47","60536ffae4f98513b671f482","650c16f0f2faf8d7a0d14c09","651c1eadc3ad235b03d3c7b6","null","null","<p style=""font-size: 60px; font-family: BACS"">aUZAkYL</p>","","","","","","","","",""
"html-keyboard-response","218","251004","0.0-12.0-0.48","60536ffae4f98513b671f482","650c16f0f2faf8d7a0d14c09","651c1eadc3ad235b03d3c7b6","null","null","<p style=""font-size: 60px; font-family: BACS"">dMThkdTAh</p>","","","","","","","","",""
"html-keyboard-response","219","252007","0.0-12.0-0.49","60536ffae4f98513b671f482","650c16f0f2faf8d7a0d14c09","651c1eadc3ad235b03d3c7b6","null","null","<p style=""font-size: 60px; font-family: BACS"">lBlEmKcD</p>","","","","","","","","",""
"html-keyboard-response","220","253011","0.0-12.0-0.50","60536ffae4f98513b671f482","650c16f0f2faf8d7a0d14c09","651c1eadc3ad235b03d3c7b6","null","null","<p style=""font-size: 60px; font-family: BACS"">RtRhYDE</p>","","","","","","","","",""
"html-keyboard-response","221","254017","0.0-12.0-0.51","60536ffae4f98513b671f482","650c16f0f2faf8d7a0d14c09","651c1eadc3ad235b03d3c7b6","null","null","<p style=""font-size: 60px; font-family: BACS"">rvOvUkYL</p>","","","","","","","","",""
"html-keyboard-response","222","255035","0.0-12.0-0.52","60536ffae4f98513b671f482","650c16f0f2faf8d7a0d14c09","651c1eadc3ad235b03d3c7b6","null","null","<p style=""font-size: 60px; font-family: BACS"">EMbDPYDE</p>","","","","","","","","",""
"html-keyboard-response","223","256038","0.0-12.0-0.53","60536ffae4f98513b671f482","650c16f0f2faf8d7a0d14c09","651c1eadc3ad235b03d3c7b6","null","null","<p style=""font-size: 60px; font-family: BACS"">OLJblYbN</p>","","","","","","","","",""
"html-keyboard-response","224","257057","0.0-12.0-0.54","60536ffae4f98513b671f482","650c16f0f2faf8d7a0d14c09","651c1eadc3ad235b03d3c7b6","null","null","<p style=""font-size: 60px; font-family: BACS"">UdYUQYLU</p>","","","","","","","","",""
"html-keyboard-response","225","258063","0.0-12.0-0.55","60536ffae4f98513b671f482","650c16f0f2faf8d7a0d14c09","651c1eadc3ad235b03d3c7b6","null","null","<p style=""font-size: 60px; font-family: BACS"">ldAaYbN</p>","","","","","","","","",""
"html-keyboard-response","226","259079","0.0-12.0-0.56","60536ffae4f98513b671f482","650c16f0f2faf8d7a0d14c09","651c1eadc3ad235b03d3c7b6","null","null","<p style=""font-size: 60px; font-family: BACS"">aUZAmZb</p>","","","","","","","","",""
"html-keyboard-response","227","260083","0.0-12.0-0.57","60536ffae4f98513b671f482","650c16f0f2faf8d7a0d14c09","651c1eadc3ad235b03d3c7b6","null","null","<p style=""font-size: 60px; font-family: BACS"">kPOtDOAK</p>","","","","","","","","",""
"html-keyboard-response","228","261090","0.0-12.0-0.58","60536ffae4f98513b671f482","650c16f0f2faf8d7a0d14c09","651c1eadc3ad235b03d3c7b6","null","null","<p style=""font-size: 60px; font-family: BACS"">OLJblYLU</p>","","","","","","","","",""
"html-keyboard-response","229","262104","0.0-12.0-0.59","60536ffae4f98513b671f482","650c16f0f2faf8d7a0d14c09","651c1eadc3ad235b03d3c7b6","null","null","<p style=""font-size: 60px; font-family: BACS"">cAZuYbN</p>","","","","","","","","",""
"html-keyboard-response","230","263112","0.0-12.0-0.60","60536ffae4f98513b671f482","650c16f0f2faf8d7a0d14c09","651c1eadc3ad235b03d3c7b6","null","null","<p style=""font-size: 60px; font-family: BACS"">EMbDPDOAK</p>","","","","","","","","",""
"html-keyboard-response","231","264124","0.0-12.0-0.61","60536ffae4f98513b671f482","650c16f0f2faf8d7a0d14c09","651c1eadc3ad235b03d3c7b6","null","null","<p style=""font-size: 60px; font-family: BACS"">bdUNukYL</p>","","","","","","","","",""
"html-keyboard-response","232","265135","0.0-12.0-0.62","60536ffae4f98513b671f482","650c16f0f2faf8d7a0d14c09","651c1eadc3ad235b03d3c7b6","null","null","<p style=""font-size: 60px; font-family: BACS"">RtRhdTAh</p>","","","","","","","","",""
"html-keyboard-response","233","266147","0.0-12.0-0.63","60536ffae4f98513b671f482","650c16f0f2faf8d7a0d14c09","651c1eadc3ad235b03d3c7b6","null","null","<p style=""font-size: 60px; font-family: BACS"">YLQmGYbN</p>","","","","","","","","",""
"html-keyboard-response","234","267151","0.0-12.0-0.64","60536ffae4f98513b671f482","650c16f0f2faf8d7a0d14c09","651c1eadc3ad235b03d3c7b6","null","null","<p style=""font-size: 60px; font-family: BACS"">MlthmKcD</p>","","","","","","","","",""
"html-keyboard-response","235","268178","0.0-12.0-0.65","60536ffae4f98513b671f482","650c16f0f2faf8d7a0d14c09","651c1eadc3ad235b03d3c7b6","null","null","<p style=""font-size: 60px; font-family: BACS"">kKRCdTAh</p>","","","","","","","","",""
"html-keyboard-response","236","269194","0.0-12.0-0.66","60536ffae4f98513b671f482","650c16f0f2faf8d7a0d14c09","651c1eadc3ad235b03d3c7b6","null","null","<p style=""font-size: 60px; font-family: BACS"">mdlaYLU</p>","","","","","","","","",""
"html-keyboard-response","237","270199","0.0-12.0-0.67","60536ffae4f98513b671f482","650c16f0f2faf8d7a0d14c09","651c1eadc3ad235b03d3c7b6","null","null","<p style=""font-size: 60px; font-family: BACS"">lBlEDOAK</p>","","","","","","","","",""
"html-keyboard-response","238","271209","0.0-12.0-0.68","60536ffae4f98513b671f482","650c16f0f2faf8d7a0d14c09","651c1eadc3ad235b03d3c7b6","null","null","<p style=""font-size: 60px; font-family: BACS"">bdUNumZb</p>","","","","","","","","",""
"html-keyboard-response","239","272221","0.0-12.0-0.69","60536ffae4f98513b671f482","650c16f0f2faf8d7a0d14c09","651c1eadc3ad235b03d3c7b6","null","null","<p style=""font-size: 60px; font-family: BACS"">dRhtdBC</p>","","","","","","","","",""
"html-keyboard-response","240","273225","0.0-12.0-0.70","60536ffae4f98513b671f482","650c16f0f2faf8d7a0d14c09","651c1eadc3ad235b03d3c7b6","null","null","<p style=""font-size: 60px; font-family: BACS"">dMThkDOAK</p>","","","","","","","","",""
"html-keyboard-response","241","274228","0.0-12.0-0.71","60536ffae4f98513b671f482","650c16f0f2faf8d7a0d14c09","651c1eadc3ad235b03d3c7b6","null","null","<p style=""font-size: 60px; font-family: BACS"">RtRhdBC</p>","","","","","","","","",""
"html-keyboard-response","242","275236","0.0-12.0-0.72","60536ffae4f98513b671f482","650c16f0f2faf8d7a0d14c09","651c1eadc3ad235b03d3c7b6","null","null","<p style=""font-size: 60px; font-family: BACS"">vkYGlkYL</p>","","","","","","","","",""
"html-keyboard-response","243","276247","0.0-12.0-0.73","60536ffae4f98513b671f482","650c16f0f2faf8d7a0d14c09","651c1eadc3ad235b03d3c7b6","null","null","<p style=""font-size: 60px; font-family: BACS"">cAZurkra</p>","","","","","","","","",""
"html-keyboard-response","244","277250","0.0-12.0-0.74","60536ffae4f98513b671f482","650c16f0f2faf8d7a0d14c09","651c1eadc3ad235b03d3c7b6","null","null","<p style=""font-size: 60px; font-family: BACS"">dMThkdBC</p>","","","","","","","","",""
"html-keyboard-response","245","278257","0.0-12.0-0.75","60536ffae4f98513b671f482","650c16f0f2faf8d7a0d14c09","651c1eadc3ad235b03d3c7b6","null","null","<p style=""font-size: 60px; font-family: BACS"">kKRCmKcD</p>","","","","","","","","",""
"html-keyboard-response","246","279273","0.0-12.0-0.76","60536ffae4f98513b671f482","650c16f0f2faf8d7a0d14c09","651c1eadc3ad235b03d3c7b6","null","null","<p style=""font-size: 60px; font-family: BACS"">TdmAdTAh</p>","","","","","","","","",""
"html-keyboard-response","247","280278","0.0-12.0-0.77","60536ffae4f98513b671f482","650c16f0f2faf8d7a0d14c09","651c1eadc3ad235b03d3c7b6","null","null","<p style=""font-size: 60px; font-family: BACS"">kPOtmKcD</p>","","","","","","","","",""
"html-keyboard-response","248","281283","0.0-12.0-0.78","60536ffae4f98513b671f482","650c16f0f2faf8d7a0d14c09","651c1eadc3ad235b03d3c7b6","null","null","<p style=""font-size: 60px; font-family: BACS"">vkYGlmZb</p>","","","","","","","","",""
"html-keyboard-response","249","282292","0.0-12.0-0.79","60536ffae4f98513b671f482","650c16f0f2faf8d7a0d14c09","651c1eadc3ad235b03d3c7b6","null","null","<p style=""font-size: 60px; font-family: BACS"">kKRCYDE</p>","","","","","","","","",""
"html-keyboard-response","250","284431","0.0-13.0","60536ffae4f98513b671f482","650c16f0f2faf8d7a0d14c09","651c1eadc3ad235b03d3c7b6","2137"," ","<p>Great, you've seen the third block of words. You may now take a short break.</p>
      <p>Press the spacebar when you're ready to continue.</p>","","","","","","","","",""
"html-keyboard-response","251","285449","0.0-14.0-0.0","60536ffae4f98513b671f482","650c16f0f2faf8d7a0d14c09","651c1eadc3ad235b03d3c7b6","null","null","<p style=""font-size: 60px; font-family: BACS"">ldAaYLU</p>","","","","","","","","",""
"html-keyboard-response","252","286452","0.0-14.0-0.1","60536ffae4f98513b671f482","650c16f0f2faf8d7a0d14c09","651c1eadc3ad235b03d3c7b6","null","null","<p style=""font-size: 60px; font-family: BACS"">lBlEDOAK</p>","","","","","","","","",""
"html-keyboard-response","253","287478","0.0-14.0-0.2","60536ffae4f98513b671f482","650c16f0f2faf8d7a0d14c09","651c1eadc3ad235b03d3c7b6","null","null","<p style=""font-size: 60px; font-family: BACS"">dRhtmKcD</p>","","","","","","","","",""
"html-keyboard-response","254","288483","0.0-14.0-0.3","60536ffae4f98513b671f482","650c16f0f2faf8d7a0d14c09","651c1eadc3ad235b03d3c7b6","null","null","<p style=""font-size: 60px; font-family: BACS"">kPOtdBC</p>","","","","","","","","",""
"html-keyboard-response","255","289487","0.0-14.0-0.4","60536ffae4f98513b671f482","650c16f0f2faf8d7a0d14c09","651c1eadc3ad235b03d3c7b6","null","null","<p style=""font-size: 60px; font-family: BACS"">bdUNuYLU</p>","","","","","","","","",""
"html-keyboard-response","256","290503","0.0-14.0-0.5","60536ffae4f98513b671f482","650c16f0f2faf8d7a0d14c09","651c1eadc3ad235b03d3c7b6","null","null","<p style=""font-size: 60px; font-family: BACS"">aUZArkra</p>","","","","","","","","",""
"html-keyboard-response","257","291519","0.0-14.0-0.6","60536ffae4f98513b671f482","650c16f0f2faf8d7a0d14c09","651c1eadc3ad235b03d3c7b6","null","null","<p style=""font-size: 60px; font-family: BACS"">mdlamZb</p>","","","","","","","","",""
"html-keyboard-response","258","292536","0.0-14.0-0.7","60536ffae4f98513b671f482","650c16f0f2faf8d7a0d14c09","651c1eadc3ad235b03d3c7b6","null","null","<p style=""font-size: 60px; font-family: BACS"">cAZurkra</p>","","","","","","","","",""
"html-keyboard-response","259","293543","0.0-14.0-0.8","60536ffae4f98513b671f482","650c16f0f2faf8d7a0d14c09","651c1eadc3ad235b03d3c7b6","null","null","<p style=""font-size: 60px; font-family: BACS"">EMbDPmKcD</p>","","","","","","","","",""
"html-keyboard-response","260","294548","0.0-14.0-0.9","60536ffae4f98513b671f482","650c16f0f2faf8d7a0d14c09","651c1eadc3ad235b03d3c7b6","null","null","<p style=""font-size: 60px; font-family: BACS"">vkYGlYLU</p>","","","","","","","","",""
"html-keyboard-response","261","295558","0.0-14.0-0.10","60536ffae4f98513b671f482","650c16f0f2faf8d7a0d14c09","651c1eadc3ad235b03d3c7b6","null","null","<p style=""font-size: 60px; font-family: BACS"">EMbDPDOAK</p>","","","","","","","","",""
"html-keyboard-response","262","296567","0.0-14.0-0.11","60536ffae4f98513b671f482","650c16f0f2faf8d7a0d14c09","651c1eadc3ad235b03d3c7b6","null","null","<p style=""font-size: 60px; font-family: BACS"">cAZumZb</p>","","","","","","","","",""
"html-keyboard-response","263","297571","0.0-14.0-0.12","60536ffae4f98513b671f482","650c16f0f2faf8d7a0d14c09","651c1eadc3ad235b03d3c7b6","null","null","<p style=""font-size: 60px; font-family: BACS"">kKRCmKcD</p>","","","","","","","","",""
"html-keyboard-response","264","298587","0.0-14.0-0.13","60536ffae4f98513b671f482","650c16f0f2faf8d7a0d14c09","651c1eadc3ad235b03d3c7b6","null","null","<p style=""font-size: 60px; font-family: BACS"">kPOtDOAK</p>","","","","","","","","",""
"html-keyboard-response","265","299589","0.0-14.0-0.14","60536ffae4f98513b671f482","650c16f0f2faf8d7a0d14c09","651c1eadc3ad235b03d3c7b6","null","null","<p style=""font-size: 60px; font-family: BACS"">RtRhYDE</p>","","","","","","","","",""
"html-keyboard-response","266","300596","0.0-14.0-0.15","60536ffae4f98513b671f482","650c16f0f2faf8d7a0d14c09","651c1eadc3ad235b03d3c7b6","null","null","<p style=""font-size: 60px; font-family: BACS"">YLQmGkYL</p>","","","","","","","","",""
"html-keyboard-response","267","301609","0.0-14.0-0.16","60536ffae4f98513b671f482","650c16f0f2faf8d7a0d14c09","651c1eadc3ad235b03d3c7b6","null","null","<p style=""font-size: 60px; font-family: BACS"">rvOvUrkra</p>","","","","","","","","",""
"html-keyboard-response","268","302630","0.0-14.0-0.17","60536ffae4f98513b671f482","650c16f0f2faf8d7a0d14c09","651c1eadc3ad235b03d3c7b6","null","null","<p style=""font-size: 60px; font-family: BACS"">DBlhdBC</p>","","","","","","","","",""
"html-keyboard-response","269","303634","0.0-14.0-0.18","60536ffae4f98513b671f482","650c16f0f2faf8d7a0d14c09","651c1eadc3ad235b03d3c7b6","null","null","<p style=""font-size: 60px; font-family: BACS"">rvOvUYLU</p>","","","","","","","","",""
"html-keyboard-response","270","304649","0.0-14.0-0.19","60536ffae4f98513b671f482","650c16f0f2faf8d7a0d14c09","651c1eadc3ad235b03d3c7b6","null","null","<p style=""font-size: 60px; font-family: BACS"">bdUNumZb</p>","","","","","","","","",""
"html-keyboard-response","271","305653","0.0-14.0-0.20","60536ffae4f98513b671f482","650c16f0f2faf8d7a0d14c09","651c1eadc3ad235b03d3c7b6","null","null","<p style=""font-size: 60px; font-family: BACS"">mdlaYLU</p>","","","","","","","","",""
"html-keyboard-response","272","306657","0.0-14.0-0.21","60536ffae4f98513b671f482","650c16f0f2faf8d7a0d14c09","651c1eadc3ad235b03d3c7b6","null","null","<p style=""font-size: 60px; font-family: BACS"">kPOtmKcD</p>","","","","","","","","",""
"html-keyboard-response","273","307664","0.0-14.0-0.22","60536ffae4f98513b671f482","650c16f0f2faf8d7a0d14c09","651c1eadc3ad235b03d3c7b6","null","null","<p style=""font-size: 60px; font-family: BACS"">OLJblYLU</p>","","","","","","","","",""
"html-keyboard-response","274","308679","0.0-14.0-0.23","60536ffae4f98513b671f482","650c16f0f2faf8d7a0d14c09","651c1eadc3ad235b03d3c7b6","null","null","<p style=""font-size: 60px; font-family: BACS"">lBlEYDE</p>","","","","","","","","",""
"html-keyboard-response","275","309684","0.0-14.0-0.24","60536ffae4f98513b671f482","650c16f0f2faf8d7a0d14c09","651c1eadc3ad235b03d3c7b6","null","null","<p style=""font-size: 60px; font-family: BACS"">kKRCDOAK</p>","","","","","","","","",""
"html-keyboard-response","276","310687","0.0-14.0-0.25","60536ffae4f98513b671f482","650c16f0f2faf8d7a0d14c09","651c1eadc3ad235b03d3c7b6","null","null","<p style=""font-size: 60px; font-family: BACS"">rvOvUYbN</p>","","","","","","","","",""
"html-keyboard-response","277","311699","0.0-14.0-0.26","60536ffae4f98513b671f482","650c16f0f2faf8d7a0d14c09","651c1eadc3ad235b03d3c7b6","null","null","<p style=""font-size: 60px; font-family: BACS"">vkYGlrkra</p>","","","","","","","","",""
"html-keyboard-response","278","312711","0.0-14.0-0.27","60536ffae4f98513b671f482","650c16f0f2faf8d7a0d14c09","651c1eadc3ad235b03d3c7b6","null","null","<p style=""font-size: 60px; font-family: BACS"">MlthdTAh</p>","","","","","","","","",""
"html-keyboard-response","279","313719","0.0-14.0-0.28","60536ffae4f98513b671f482","650c16f0f2faf8d7a0d14c09","651c1eadc3ad235b03d3c7b6","null","null","<p style=""font-size: 60px; font-family: BACS"">mdlarkra</p>","","","","","","","","",""
"html-keyboard-response","280","314723","0.0-14.0-0.29","60536ffae4f98513b671f482","650c16f0f2faf8d7a0d14c09","651c1eadc3ad235b03d3c7b6","null","null","<p style=""font-size: 60px; font-family: BACS"">ldAaYbN</p>","","","","","","","","",""
"html-keyboard-response","281","315735","0.0-14.0-0.30","60536ffae4f98513b671f482","650c16f0f2faf8d7a0d14c09","651c1eadc3ad235b03d3c7b6","null","null","<p style=""font-size: 60px; font-family: BACS"">dMThkDOAK</p>","","","","","","","","",""
"html-keyboard-response","282","316741","0.0-14.0-0.31","60536ffae4f98513b671f482","650c16f0f2faf8d7a0d14c09","651c1eadc3ad235b03d3c7b6","null","null","<p style=""font-size: 60px; font-family: BACS"">RtRhdTAh</p>","","","","","","","","",""
"html-keyboard-response","283","317743","0.0-14.0-0.32","60536ffae4f98513b671f482","650c16f0f2faf8d7a0d14c09","651c1eadc3ad235b03d3c7b6","null","null","<p style=""font-size: 60px; font-family: BACS"">OLJblrkra</p>","","","","","","","","",""
"html-keyboard-response","284","318745","0.0-14.0-0.33","60536ffae4f98513b671f482","650c16f0f2faf8d7a0d14c09","651c1eadc3ad235b03d3c7b6","null","null","<p style=""font-size: 60px; font-family: BACS"">TdmAdTAh</p>","","","","","","","","",""
"html-keyboard-response","285","319753","0.0-14.0-0.34","60536ffae4f98513b671f482","650c16f0f2faf8d7a0d14c09","651c1eadc3ad235b03d3c7b6","null","null","<p style=""font-size: 60px; font-family: BACS"">bdUNukYL</p>","","","","","","","","",""
"html-keyboard-response","286","320774","0.0-14.0-0.35","60536ffae4f98513b671f482","650c16f0f2faf8d7a0d14c09","651c1eadc3ad235b03d3c7b6","null","null","<p style=""font-size: 60px; font-family: BACS"">dRhtdBC</p>","","","","","","","","",""
"html-keyboard-response","287","321777","0.0-14.0-0.36","60536ffae4f98513b671f482","650c16f0f2faf8d7a0d14c09","651c1eadc3ad235b03d3c7b6","null","null","<p style=""font-size: 60px; font-family: BACS"">aUZAkYL</p>","","","","","","","","",""
"html-keyboard-response","288","322783","0.0-14.0-0.37","60536ffae4f98513b671f482","650c16f0f2faf8d7a0d14c09","651c1eadc3ad235b03d3c7b6","null","null","<p style=""font-size: 60px; font-family: BACS"">mdlaYbN</p>","","","","","","","","",""
"html-keyboard-response","289","323800","0.0-14.0-0.38","60536ffae4f98513b671f482","650c16f0f2faf8d7a0d14c09","651c1eadc3ad235b03d3c7b6","null","null","<p style=""font-size: 60px; font-family: BACS"">kPOtYDE</p>","","","","","","","","",""
"html-keyboard-response","290","324806","0.0-14.0-0.39","60536ffae4f98513b671f482","650c16f0f2faf8d7a0d14c09","651c1eadc3ad235b03d3c7b6","null","null","<p style=""font-size: 60px; font-family: BACS"">OLJblkYL</p>","","","","","","","","",""
"html-keyboard-response","291","325811","0.0-14.0-0.40","60536ffae4f98513b671f482","650c16f0f2faf8d7a0d14c09","651c1eadc3ad235b03d3c7b6","null","null","<p style=""font-size: 60px; font-family: BACS"">DBlhmKcD</p>","","","","","","","","",""
"html-keyboard-response","292","326815","0.0-14.0-0.41","60536ffae4f98513b671f482","650c16f0f2faf8d7a0d14c09","651c1eadc3ad235b03d3c7b6","null","null","<p style=""font-size: 60px; font-family: BACS"">dRhtYDE</p>","","","","","","","","",""
"html-keyboard-response","293","327820","0.0-14.0-0.42","60536ffae4f98513b671f482","650c16f0f2faf8d7a0d14c09","651c1eadc3ad235b03d3c7b6","null","null","<p style=""font-size: 60px; font-family: BACS"">TdmADOAK</p>","","","","","","","","",""
"html-keyboard-response","294","328842","0.0-14.0-0.43","60536ffae4f98513b671f482","650c16f0f2faf8d7a0d14c09","651c1eadc3ad235b03d3c7b6","null","null","<p style=""font-size: 60px; font-family: BACS"">ldAamZb</p>","","","","","","","","",""
"html-keyboard-response","295","329844","0.0-14.0-0.44","60536ffae4f98513b671f482","650c16f0f2faf8d7a0d14c09","651c1eadc3ad235b03d3c7b6","null","null","<p style=""font-size: 60px; font-family: BACS"">DBlhdTAh</p>","","","","","","","","",""
"html-keyboard-response","296","330848","0.0-14.0-0.45","60536ffae4f98513b671f482","650c16f0f2faf8d7a0d14c09","651c1eadc3ad235b03d3c7b6","null","null","<p style=""font-size: 60px; font-family: BACS"">UdYUQmZb</p>","","","","","","","","",""
"html-keyboard-response","297","331852","0.0-14.0-0.46","60536ffae4f98513b671f482","650c16f0f2faf8d7a0d14c09","651c1eadc3ad235b03d3c7b6","null","null","<p style=""font-size: 60px; font-family: BACS"">MlthDOAK</p>","","","","","","","","",""
"html-keyboard-response","298","332857","0.0-14.0-0.47","60536ffae4f98513b671f482","650c16f0f2faf8d7a0d14c09","651c1eadc3ad235b03d3c7b6","null","null","<p style=""font-size: 60px; font-family: BACS"">dMThkdBC</p>","","","","","","","","",""
"html-keyboard-response","299","333861","0.0-14.0-0.48","60536ffae4f98513b671f482","650c16f0f2faf8d7a0d14c09","651c1eadc3ad235b03d3c7b6","null","null","<p style=""font-size: 60px; font-family: BACS"">kKRCdTAh</p>","","","","","","","","",""
"html-keyboard-response","300","334865","0.0-14.0-0.49","60536ffae4f98513b671f482","650c16f0f2faf8d7a0d14c09","651c1eadc3ad235b03d3c7b6","null","null","<p style=""font-size: 60px; font-family: BACS"">cAZuYbN</p>","","","","","","","","",""
"html-keyboard-response","301","335868","0.0-14.0-0.50","60536ffae4f98513b671f482","650c16f0f2faf8d7a0d14c09","651c1eadc3ad235b03d3c7b6","null","null","<p style=""font-size: 60px; font-family: BACS"">lBlEdTAh</p>","","","","","","","","",""
"html-keyboard-response","302","336872","0.0-14.0-0.51","60536ffae4f98513b671f482","650c16f0f2faf8d7a0d14c09","651c1eadc3ad235b03d3c7b6","null","null","<p style=""font-size: 60px; font-family: BACS"">MlthdBC</p>","","","","","","","","",""
"html-keyboard-response","303","337886","0.0-14.0-0.52","60536ffae4f98513b671f482","650c16f0f2faf8d7a0d14c09","651c1eadc3ad235b03d3c7b6","null","null","<p style=""font-size: 60px; font-family: BACS"">OLJblYbN</p>","","","","","","","","",""
"html-keyboard-response","304","338890","0.0-14.0-0.53","60536ffae4f98513b671f482","650c16f0f2faf8d7a0d14c09","651c1eadc3ad235b03d3c7b6","null","null","<p style=""font-size: 60px; font-family: BACS"">rvOvUkYL</p>","","","","","","","","",""
"html-keyboard-response","305","339894","0.0-14.0-0.54","60536ffae4f98513b671f482","650c16f0f2faf8d7a0d14c09","651c1eadc3ad235b03d3c7b6","null","null","<p style=""font-size: 60px; font-family: BACS"">dRhtdTAh</p>","","","","","","","","",""
"html-keyboard-response","306","340897","0.0-14.0-0.55","60536ffae4f98513b671f482","650c16f0f2faf8d7a0d14c09","651c1eadc3ad235b03d3c7b6","null","null","<p style=""font-size: 60px; font-family: BACS"">EMbDPdBC</p>","","","","","","","","",""
"html-keyboard-response","307","341900","0.0-14.0-0.56","60536ffae4f98513b671f482","650c16f0f2faf8d7a0d14c09","651c1eadc3ad235b03d3c7b6","null","null","<p style=""font-size: 60px; font-family: BACS"">vkYGlkYL</p>","","","","","","","","",""
"html-keyboard-response","308","342902","0.0-14.0-0.57","60536ffae4f98513b671f482","650c16f0f2faf8d7a0d14c09","651c1eadc3ad235b03d3c7b6","null","null","<p style=""font-size: 60px; font-family: BACS"">RtRhdBC</p>","","","","","","","","",""
"html-keyboard-response","309","343913","0.0-14.0-0.58","60536ffae4f98513b671f482","650c16f0f2faf8d7a0d14c09","651c1eadc3ad235b03d3c7b6","null","null","<p style=""font-size: 60px; font-family: BACS"">YLQmGmZb</p>","","","","","","","","",""
"html-keyboard-response","310","344934","0.0-14.0-0.59","60536ffae4f98513b671f482","650c16f0f2faf8d7a0d14c09","651c1eadc3ad235b03d3c7b6","null","null","<p style=""font-size: 60px; font-family: BACS"">cAZukYL</p>","","","","","","","","",""
"html-keyboard-response","311","345951","0.0-14.0-0.60","60536ffae4f98513b671f482","650c16f0f2faf8d7a0d14c09","651c1eadc3ad235b03d3c7b6","null","null","<p style=""font-size: 60px; font-family: BACS"">YLQmGYLU</p>","","","","","","","","",""
"html-keyboard-response","312","346955","0.0-14.0-0.61","60536ffae4f98513b671f482","650c16f0f2faf8d7a0d14c09","651c1eadc3ad235b03d3c7b6","null","null","<p style=""font-size: 60px; font-family: BACS"">UdYUQYbN</p>","","","","","","","","",""
"html-keyboard-response","313","347959","0.0-14.0-0.62","60536ffae4f98513b671f482","650c16f0f2faf8d7a0d14c09","651c1eadc3ad235b03d3c7b6","null","null","<p style=""font-size: 60px; font-family: BACS"">bdUNurkra</p>","","","","","","","","",""
"html-keyboard-response","314","348975","0.0-14.0-0.63","60536ffae4f98513b671f482","650c16f0f2faf8d7a0d14c09","651c1eadc3ad235b03d3c7b6","null","null","<p style=""font-size: 60px; font-family: BACS"">aUZAYbN</p>","","","","","","","","",""
"html-keyboard-response","315","349977","0.0-14.0-0.64","60536ffae4f98513b671f482","650c16f0f2faf8d7a0d14c09","651c1eadc3ad235b03d3c7b6","null","null","<p style=""font-size: 60px; font-family: BACS"">EMbDPYDE</p>","","","","","","","","",""
"html-keyboard-response","316","350981","0.0-14.0-0.65","60536ffae4f98513b671f482","650c16f0f2faf8d7a0d14c09","651c1eadc3ad235b03d3c7b6","null","null","<p style=""font-size: 60px; font-family: BACS"">UdYUQYLU</p>","","","","","","","","",""
"html-keyboard-response","317","351985","0.0-14.0-0.66","60536ffae4f98513b671f482","650c16f0f2faf8d7a0d14c09","651c1eadc3ad235b03d3c7b6","null","null","<p style=""font-size: 60px; font-family: BACS"">YLQmGYbN</p>","","","","","","","","",""
"html-keyboard-response","318","352989","0.0-14.0-0.67","60536ffae4f98513b671f482","650c16f0f2faf8d7a0d14c09","651c1eadc3ad235b03d3c7b6","null","null","<p style=""font-size: 60px; font-family: BACS"">dMThkdTAh</p>","","","","","","","","",""
"html-keyboard-response","319","353992","0.0-14.0-0.68","60536ffae4f98513b671f482","650c16f0f2faf8d7a0d14c09","651c1eadc3ad235b03d3c7b6","null","null","<p style=""font-size: 60px; font-family: BACS"">ldAakYL</p>","","","","","","","","",""
"html-keyboard-response","320","355008","0.0-14.0-0.69","60536ffae4f98513b671f482","650c16f0f2faf8d7a0d14c09","651c1eadc3ad235b03d3c7b6","null","null","<p style=""font-size: 60px; font-family: BACS"">TdmAdBC</p>","","","","","","","","",""
"html-keyboard-response","321","356014","0.0-14.0-0.70","60536ffae4f98513b671f482","650c16f0f2faf8d7a0d14c09","651c1eadc3ad235b03d3c7b6","null","null","<p style=""font-size: 60px; font-family: BACS"">vkYGlmZb</p>","","","","","","","","",""
"html-keyboard-response","322","357031","0.0-14.0-0.71","60536ffae4f98513b671f482","650c16f0f2faf8d7a0d14c09","651c1eadc3ad235b03d3c7b6","null","null","<p style=""font-size: 60px; font-family: BACS"">kKRCYDE</p>","","","","","","","","",""
"html-keyboard-response","323","358034","0.0-14.0-0.72","60536ffae4f98513b671f482","650c16f0f2faf8d7a0d14c09","651c1eadc3ad235b03d3c7b6","null","null","<p style=""font-size: 60px; font-family: BACS"">aUZAmZb</p>","","","","","","","","",""
"html-keyboard-response","324","359042","0.0-14.0-0.73","60536ffae4f98513b671f482","650c16f0f2faf8d7a0d14c09","651c1eadc3ad235b03d3c7b6","null","null","<p style=""font-size: 60px; font-family: BACS"">TdmAYDE</p>","","","","","","","","",""
"html-keyboard-response","325","360059","0.0-14.0-0.74","60536ffae4f98513b671f482","650c16f0f2faf8d7a0d14c09","651c1eadc3ad235b03d3c7b6","null","null","<p style=""font-size: 60px; font-family: BACS"">dMThkmKcD</p>","","","","","","","","",""
"html-keyboard-response","326","361061","0.0-14.0-0.75","60536ffae4f98513b671f482","650c16f0f2faf8d7a0d14c09","651c1eadc3ad235b03d3c7b6","null","null","<p style=""font-size: 60px; font-family: BACS"">RtRhDOAK</p>","","","","","","","","",""
"html-keyboard-response","327","362072","0.0-14.0-0.76","60536ffae4f98513b671f482","650c16f0f2faf8d7a0d14c09","651c1eadc3ad235b03d3c7b6","null","null","<p style=""font-size: 60px; font-family: BACS"">DBlhYDE</p>","","","","","","","","",""
"html-keyboard-response","328","363079","0.0-14.0-0.77","60536ffae4f98513b671f482","650c16f0f2faf8d7a0d14c09","651c1eadc3ad235b03d3c7b6","null","null","<p style=""font-size: 60px; font-family: BACS"">MlthmKcD</p>","","","","","","","","",""
"html-keyboard-response","329","364095","0.0-14.0-0.78","60536ffae4f98513b671f482","650c16f0f2faf8d7a0d14c09","651c1eadc3ad235b03d3c7b6","null","null","<p style=""font-size: 60px; font-family: BACS"">UdYUQrkra</p>","","","","","","","","",""
"html-keyboard-response","330","365101","0.0-14.0-0.79","60536ffae4f98513b671f482","650c16f0f2faf8d7a0d14c09","651c1eadc3ad235b03d3c7b6","null","null","<p style=""font-size: 60px; font-family: BACS"">lBlEmKcD</p>","","","","","","","","",""
"html-keyboard-response","331","366672","0.0-15.0","60536ffae4f98513b671f482","650c16f0f2faf8d7a0d14c09","651c1eadc3ad235b03d3c7b6","1570"," ","<p>Great, you've seen the fourth block of words. You may now take a short break.</p>
      <p>Press the spacebar when you're ready to continue.</p>","","","","","","","","",""
"html-keyboard-response","332","367675","0.0-16.0-0.0","60536ffae4f98513b671f482","650c16f0f2faf8d7a0d14c09","651c1eadc3ad235b03d3c7b6","null","null","<p style=""font-size: 60px; font-family: BACS"">OLJblkYL</p>","","","","","","","","",""
"html-keyboard-response","333","368678","0.0-16.0-0.1","60536ffae4f98513b671f482","650c16f0f2faf8d7a0d14c09","651c1eadc3ad235b03d3c7b6","null","null","<p style=""font-size: 60px; font-family: BACS"">OLJblkYL</p>","","","","","","","","",""
"html-keyboard-response","334","369682","0.0-16.0-0.2","60536ffae4f98513b671f482","650c16f0f2faf8d7a0d14c09","651c1eadc3ad235b03d3c7b6","null","null","<p style=""font-size: 60px; font-family: BACS"">OLJblkYL</p>","","","","","","","","",""
"html-keyboard-response","335","370698","0.0-16.0-0.3","60536ffae4f98513b671f482","650c16f0f2faf8d7a0d14c09","651c1eadc3ad235b03d3c7b6","null","null","<p style=""font-size: 60px; font-family: BACS"">OLJblkYL</p>","","","","","","","","",""
"html-keyboard-response","336","371701","0.0-16.0-0.4","60536ffae4f98513b671f482","650c16f0f2faf8d7a0d14c09","651c1eadc3ad235b03d3c7b6","null","null","<p style=""font-size: 60px; font-family: BACS"">OLJblkYL</p>","","","","","","","","",""
"html-keyboard-response","337","372704","0.0-16.0-0.5","60536ffae4f98513b671f482","650c16f0f2faf8d7a0d14c09","651c1eadc3ad235b03d3c7b6","null","null","<p style=""font-size: 60px; font-family: BACS"">OLJblkYL</p>","","","","","","","","",""
"html-keyboard-response","338","373713","0.0-16.0-0.6","60536ffae4f98513b671f482","650c16f0f2faf8d7a0d14c09","651c1eadc3ad235b03d3c7b6","null","null","<p style=""font-size: 60px; font-family: BACS"">OLJblkYL</p>","","","","","","","","",""
"html-keyboard-response","339","374716","0.0-16.0-0.7","60536ffae4f98513b671f482","650c16f0f2faf8d7a0d14c09","651c1eadc3ad235b03d3c7b6","null","null","<p style=""font-size: 60px; font-family: BACS"">OLJblkYL</p>","","","","","","","","",""
"html-keyboard-response","340","375719","0.0-16.0-0.8","60536ffae4f98513b671f482","650c16f0f2faf8d7a0d14c09","651c1eadc3ad235b03d3c7b6","null","null","<p style=""font-size: 60px; font-family: BACS"">OLJblkYL</p>","","","","","","","","",""
"html-keyboard-response","341","376723","0.0-16.0-0.9","60536ffae4f98513b671f482","650c16f0f2faf8d7a0d14c09","651c1eadc3ad235b03d3c7b6","null","null","<p style=""font-size: 60px; font-family: BACS"">OLJblkYL</p>","","","","","","","","",""
"html-keyboard-response","342","377736","0.0-16.0-0.10","60536ffae4f98513b671f482","650c16f0f2faf8d7a0d14c09","651c1eadc3ad235b03d3c7b6","null","null","<p style=""font-size: 60px; font-family: BACS"">OLJblkYL</p>","","","","","","","","",""
"html-keyboard-response","343","378741","0.0-16.0-0.11","60536ffae4f98513b671f482","650c16f0f2faf8d7a0d14c09","651c1eadc3ad235b03d3c7b6","null","null","<p style=""font-size: 60px; font-family: BACS"">OLJblkYL</p>","","","","","","","","",""
"html-keyboard-response","344","379745","0.0-16.0-0.12","60536ffae4f98513b671f482","650c16f0f2faf8d7a0d14c09","651c1eadc3ad235b03d3c7b6","null","null","<p style=""font-size: 60px; font-family: BACS"">OLJblkYL</p>","","","","","","","","",""
"html-keyboard-response","345","380758","0.0-16.0-0.13","60536ffae4f98513b671f482","650c16f0f2faf8d7a0d14c09","651c1eadc3ad235b03d3c7b6","null","null","<p style=""font-size: 60px; font-family: BACS"">OLJblkYL</p>","","","","","","","","",""
"html-keyboard-response","346","381761","0.0-16.0-0.14","60536ffae4f98513b671f482","650c16f0f2faf8d7a0d14c09","651c1eadc3ad235b03d3c7b6","null","null","<p style=""font-size: 60px; font-family: BACS"">OLJblkYL</p>","","","","","","","","",""
"html-keyboard-response","347","382763","0.0-16.0-0.15","60536ffae4f98513b671f482","650c16f0f2faf8d7a0d14c09","651c1eadc3ad235b03d3c7b6","null","null","<p style=""font-size: 60px; font-family: BACS"">OLJblkYL</p>","","","","","","","","",""
"html-keyboard-response","348","383767","0.0-16.0-0.16","60536ffae4f98513b671f482","650c16f0f2faf8d7a0d14c09","651c1eadc3ad235b03d3c7b6","null","null","<p style=""font-size: 60px; font-family: BACS"">OLJblkYL</p>","","","","","","","","",""
"html-keyboard-response","349","384771","0.0-16.0-0.17","60536ffae4f98513b671f482","650c16f0f2faf8d7a0d14c09","651c1eadc3ad235b03d3c7b6","null","null","<p style=""font-size: 60px; font-family: BACS"">OLJblkYL</p>","","","","","","","","",""
"html-keyboard-response","350","385777","0.0-16.0-0.18","60536ffae4f98513b671f482","650c16f0f2faf8d7a0d14c09","651c1eadc3ad235b03d3c7b6","null","null","<p style=""font-size: 60px; font-family: BACS"">OLJblkYL</p>","","","","","","","","",""
"html-keyboard-response","351","386794","0.0-16.0-0.19","60536ffae4f98513b671f482","650c16f0f2faf8d7a0d14c09","651c1eadc3ad235b03d3c7b6","null","null","<p style=""font-size: 60px; font-family: BACS"">OLJblkYL</p>","","","","","","","","",""
"html-keyboard-response","352","387798","0.0-16.0-0.20","60536ffae4f98513b671f482","650c16f0f2faf8d7a0d14c09","651c1eadc3ad235b03d3c7b6","null","null","<p style=""font-size: 60px; font-family: BACS"">OLJblkYL</p>","","","","","","","","",""
"html-keyboard-response","353","388801","0.0-16.0-0.21","60536ffae4f98513b671f482","650c16f0f2faf8d7a0d14c09","651c1eadc3ad235b03d3c7b6","null","null","<p style=""font-size: 60px; font-family: BACS"">OLJblkYL</p>","","","","","","","","",""
"html-keyboard-response","354","389804","0.0-16.0-0.22","60536ffae4f98513b671f482","650c16f0f2faf8d7a0d14c09","651c1eadc3ad235b03d3c7b6","null","null","<p style=""font-size: 60px; font-family: BACS"">OLJblkYL</p>","","","","","","","","",""
"html-keyboard-response","355","390812","0.0-16.0-0.23","60536ffae4f98513b671f482","650c16f0f2faf8d7a0d14c09","651c1eadc3ad235b03d3c7b6","null","null","<p style=""font-size: 60px; font-family: BACS"">OLJblkYL</p>","","","","","","","","",""
"html-keyboard-response","356","391827","0.0-16.0-0.24","60536ffae4f98513b671f482","650c16f0f2faf8d7a0d14c09","651c1eadc3ad235b03d3c7b6","null","null","<p style=""font-size: 60px; font-family: BACS"">OLJblkYL</p>","","","","","","","","",""
"html-keyboard-response","357","392830","0.0-16.0-0.25","60536ffae4f98513b671f482","650c16f0f2faf8d7a0d14c09","651c1eadc3ad235b03d3c7b6","null","null","<p style=""font-size: 60px; font-family: BACS"">OLJblkYL</p>","","","","","","","","",""
"html-keyboard-response","358","393840","0.0-16.0-0.26","60536ffae4f98513b671f482","650c16f0f2faf8d7a0d14c09","651c1eadc3ad235b03d3c7b6","null","null","<p style=""font-size: 60px; font-family: BACS"">OLJblkYL</p>","","","","","","","","",""
"html-keyboard-response","359","394852","0.0-16.0-0.27","60536ffae4f98513b671f482","650c16f0f2faf8d7a0d14c09","651c1eadc3ad235b03d3c7b6","null","null","<p style=""font-size: 60px; font-family: BACS"">OLJblkYL</p>","","","","","","","","",""
"html-keyboard-response","360","395863","0.0-16.0-0.28","60536ffae4f98513b671f482","650c16f0f2faf8d7a0d14c09","651c1eadc3ad235b03d3c7b6","null","null","<p style=""font-size: 60px; font-family: BACS"">OLJblkYL</p>","","","","","","","","",""
"html-keyboard-response","361","396880","0.0-16.0-0.29","60536ffae4f98513b671f482","650c16f0f2faf8d7a0d14c09","651c1eadc3ad235b03d3c7b6","null","null","<p style=""font-size: 60px; font-family: BACS"">OLJblkYL</p>","","","","","","","","",""
"html-keyboard-response","362","397889","0.0-16.0-0.30","60536ffae4f98513b671f482","650c16f0f2faf8d7a0d14c09","651c1eadc3ad235b03d3c7b6","null","null","<p style=""font-size: 60px; font-family: BACS"">OLJblkYL</p>","","","","","","","","",""
"html-keyboard-response","363","398893","0.0-16.0-0.31","60536ffae4f98513b671f482","650c16f0f2faf8d7a0d14c09","651c1eadc3ad235b03d3c7b6","null","null","<p style=""font-size: 60px; font-family: BACS"">OLJblkYL</p>","","","","","","","","",""
"html-keyboard-response","364","399897","0.0-16.0-0.32","60536ffae4f98513b671f482","650c16f0f2faf8d7a0d14c09","651c1eadc3ad235b03d3c7b6","null","null","<p style=""font-size: 60px; font-family: BACS"">OLJblkYL</p>","","","","","","","","",""
"html-keyboard-response","365","400901","0.0-16.0-0.33","60536ffae4f98513b671f482","650c16f0f2faf8d7a0d14c09","651c1eadc3ad235b03d3c7b6","null","null","<p style=""font-size: 60px; font-family: BACS"">OLJblkYL</p>","","","","","","","","",""
"html-keyboard-response","366","401904","0.0-16.0-0.34","60536ffae4f98513b671f482","650c16f0f2faf8d7a0d14c09","651c1eadc3ad235b03d3c7b6","null","null","<p style=""font-size: 60px; font-family: BACS"">OLJblkYL</p>","","","","","","","","",""
"html-keyboard-response","367","402907","0.0-16.0-0.35","60536ffae4f98513b671f482","650c16f0f2faf8d7a0d14c09","651c1eadc3ad235b03d3c7b6","null","null","<p style=""font-size: 60px; font-family: BACS"">OLJblkYL</p>","","","","","","","","",""
"html-keyboard-response","368","403913","0.0-16.0-0.36","60536ffae4f98513b671f482","650c16f0f2faf8d7a0d14c09","651c1eadc3ad235b03d3c7b6","null","null","<p style=""font-size: 60px; font-family: BACS"">OLJblkYL</p>","","","","","","","","",""
"html-keyboard-response","369","404918","0.0-16.0-0.37","60536ffae4f98513b671f482","650c16f0f2faf8d7a0d14c09","651c1eadc3ad235b03d3c7b6","null","null","<p style=""font-size: 60px; font-family: BACS"">OLJblkYL</p>","","","","","","","","",""
"html-keyboard-response","370","405933","0.0-16.0-0.38","60536ffae4f98513b671f482","650c16f0f2faf8d7a0d14c09","651c1eadc3ad235b03d3c7b6","null","null","<p style=""font-size: 60px; font-family: BACS"">OLJblkYL</p>","","","","","","","","",""
"html-keyboard-response","371","406945","0.0-16.0-0.39","60536ffae4f98513b671f482","650c16f0f2faf8d7a0d14c09","651c1eadc3ad235b03d3c7b6","null","null","<p style=""font-size: 60px; font-family: BACS"">OLJblkYL</p>","","","","","","","","",""
"html-keyboard-response","372","407950","0.0-16.0-0.40","60536ffae4f98513b671f482","650c16f0f2faf8d7a0d14c09","651c1eadc3ad235b03d3c7b6","null","null","<p style=""font-size: 60px; font-family: BACS"">OLJblkYL</p>","","","","","","","","",""
"html-keyboard-response","373","408965","0.0-16.0-0.41","60536ffae4f98513b671f482","650c16f0f2faf8d7a0d14c09","651c1eadc3ad235b03d3c7b6","null","null","<p style=""font-size: 60px; font-family: BACS"">OLJblkYL</p>","","","","","","","","",""
"html-keyboard-response","374","409976","0.0-16.0-0.42","60536ffae4f98513b671f482","650c16f0f2faf8d7a0d14c09","651c1eadc3ad235b03d3c7b6","null","null","<p style=""font-size: 60px; font-family: BACS"">OLJblkYL</p>","","","","","","","","",""
"html-keyboard-response","375","410982","0.0-16.0-0.43","60536ffae4f98513b671f482","650c16f0f2faf8d7a0d14c09","651c1eadc3ad235b03d3c7b6","null","null","<p style=""font-size: 60px; font-family: BACS"">OLJblkYL</p>","","","","","","","","",""
"html-keyboard-response","376","411986","0.0-16.0-0.44","60536ffae4f98513b671f482","650c16f0f2faf8d7a0d14c09","651c1eadc3ad235b03d3c7b6","null","null","<p style=""font-size: 60px; font-family: BACS"">OLJblkYL</p>","","","","","","","","",""
"html-keyboard-response","377","412995","0.0-16.0-0.45","60536ffae4f98513b671f482","650c16f0f2faf8d7a0d14c09","651c1eadc3ad235b03d3c7b6","null","null","<p style=""font-size: 60px; font-family: BACS"">OLJblkYL</p>","","","","","","","","",""
"html-keyboard-response","378","414009","0.0-16.0-0.46","60536ffae4f98513b671f482","650c16f0f2faf8d7a0d14c09","651c1eadc3ad235b03d3c7b6","null","null","<p style=""font-size: 60px; font-family: BACS"">OLJblkYL</p>","","","","","","","","",""
"html-keyboard-response","379","415013","0.0-16.0-0.47","60536ffae4f98513b671f482","650c16f0f2faf8d7a0d14c09","651c1eadc3ad235b03d3c7b6","null","null","<p style=""font-size: 60px; font-family: BACS"">OLJblkYL</p>","","","","","","","","",""
"html-keyboard-response","380","416016","0.0-16.0-0.48","60536ffae4f98513b671f482","650c16f0f2faf8d7a0d14c09","651c1eadc3ad235b03d3c7b6","null","null","<p style=""font-size: 60px; font-family: BACS"">OLJblkYL</p>","","","","","","","","",""
"html-keyboard-response","381","417019","0.0-16.0-0.49","60536ffae4f98513b671f482","650c16f0f2faf8d7a0d14c09","651c1eadc3ad235b03d3c7b6","null","null","<p style=""font-size: 60px; font-family: BACS"">OLJblkYL</p>","","","","","","","","",""
"html-keyboard-response","382","418025","0.0-16.0-0.50","60536ffae4f98513b671f482","650c16f0f2faf8d7a0d14c09","651c1eadc3ad235b03d3c7b6","null","null","<p style=""font-size: 60px; font-family: BACS"">OLJblkYL</p>","","","","","","","","",""
"html-keyboard-response","383","419029","0.0-16.0-0.51","60536ffae4f98513b671f482","650c16f0f2faf8d7a0d14c09","651c1eadc3ad235b03d3c7b6","null","null","<p style=""font-size: 60px; font-family: BACS"">OLJblkYL</p>","","","","","","","","",""
"html-keyboard-response","384","420043","0.0-16.0-0.52","60536ffae4f98513b671f482","650c16f0f2faf8d7a0d14c09","651c1eadc3ad235b03d3c7b6","null","null","<p style=""font-size: 60px; font-family: BACS"">OLJblkYL</p>","","","","","","","","",""
"html-keyboard-response","385","421056","0.0-16.0-0.53","60536ffae4f98513b671f482","650c16f0f2faf8d7a0d14c09","651c1eadc3ad235b03d3c7b6","null","null","<p style=""font-size: 60px; font-family: BACS"">OLJblkYL</p>","","","","","","","","",""
"html-keyboard-response","386","422070","0.0-16.0-0.54","60536ffae4f98513b671f482","650c16f0f2faf8d7a0d14c09","651c1eadc3ad235b03d3c7b6","null","null","<p style=""font-size: 60px; font-family: BACS"">OLJblkYL</p>","","","","","","","","",""
"html-keyboard-response","387","423077","0.0-16.0-0.55","60536ffae4f98513b671f482","650c16f0f2faf8d7a0d14c09","651c1eadc3ad235b03d3c7b6","null","null","<p style=""font-size: 60px; font-family: BACS"">OLJblkYL</p>","","","","","","","","",""
"html-keyboard-response","388","424080","0.0-16.0-0.56","60536ffae4f98513b671f482","650c16f0f2faf8d7a0d14c09","651c1eadc3ad235b03d3c7b6","null","null","<p style=""font-size: 60px; font-family: BACS"">OLJblkYL</p>","","","","","","","","",""
"html-keyboard-response","389","425087","0.0-16.0-0.57","60536ffae4f98513b671f482","650c16f0f2faf8d7a0d14c09","651c1eadc3ad235b03d3c7b6","null","null","<p style=""font-size: 60px; font-family: BACS"">OLJblkYL</p>","","","","","","","","",""
"html-keyboard-response","390","426107","0.0-16.0-0.58","60536ffae4f98513b671f482","650c16f0f2faf8d7a0d14c09","651c1eadc3ad235b03d3c7b6","null","null","<p style=""font-size: 60px; font-family: BACS"">OLJblkYL</p>","","","","","","","","",""
"html-keyboard-response","391","427119","0.0-16.0-0.59","60536ffae4f98513b671f482","650c16f0f2faf8d7a0d14c09","651c1eadc3ad235b03d3c7b6","null","null","<p style=""font-size: 60px; font-family: BACS"">OLJblkYL</p>","","","","","","","","",""
"html-keyboard-response","392","428123","0.0-16.0-0.60","60536ffae4f98513b671f482","650c16f0f2faf8d7a0d14c09","651c1eadc3ad235b03d3c7b6","null","null","<p style=""font-size: 60px; font-family: BACS"">OLJblkYL</p>","","","","","","","","",""
"html-keyboard-response","393","429138","0.0-16.0-0.61","60536ffae4f98513b671f482","650c16f0f2faf8d7a0d14c09","651c1eadc3ad235b03d3c7b6","null","null","<p style=""font-size: 60px; font-family: BACS"">OLJblkYL</p>","","","","","","","","",""
"html-keyboard-response","394","430141","0.0-16.0-0.62","60536ffae4f98513b671f482","650c16f0f2faf8d7a0d14c09","651c1eadc3ad235b03d3c7b6","null","null","<p style=""font-size: 60px; font-family: BACS"">OLJblkYL</p>","","","","","","","","",""
"html-keyboard-response","395","431156","0.0-16.0-0.63","60536ffae4f98513b671f482","650c16f0f2faf8d7a0d14c09","651c1eadc3ad235b03d3c7b6","null","null","<p style=""font-size: 60px; font-family: BACS"">OLJblkYL</p>","","","","","","","","",""
"html-keyboard-response","396","432159","0.0-16.0-0.64","60536ffae4f98513b671f482","650c16f0f2faf8d7a0d14c09","651c1eadc3ad235b03d3c7b6","null","null","<p style=""font-size: 60px; font-family: BACS"">OLJblkYL</p>","","","","","","","","",""
"html-keyboard-response","397","433162","0.0-16.0-0.65","60536ffae4f98513b671f482","650c16f0f2faf8d7a0d14c09","651c1eadc3ad235b03d3c7b6","null","null","<p style=""font-size: 60px; font-family: BACS"">OLJblkYL</p>","","","","","","","","",""
"html-keyboard-response","398","434165","0.0-16.0-0.66","60536ffae4f98513b671f482","650c16f0f2faf8d7a0d14c09","651c1eadc3ad235b03d3c7b6","null","null","<p style=""font-size: 60px; font-family: BACS"">OLJblkYL</p>","","","","","","","","",""
"html-keyboard-response","399","435169","0.0-16.0-0.67","60536ffae4f98513b671f482","650c16f0f2faf8d7a0d14c09","651c1eadc3ad235b03d3c7b6","null","null","<p style=""font-size: 60px; font-family: BACS"">OLJblkYL</p>","","","","","","","","",""
"html-keyboard-response","400","436172","0.0-16.0-0.68","60536ffae4f98513b671f482","650c16f0f2faf8d7a0d14c09","651c1eadc3ad235b03d3c7b6","null","null","<p style=""font-size: 60px; font-family: BACS"">OLJblkYL</p>","","","","","","","","",""
