"trial_type","trial_index","time_elapsed","internal_node_id","subject_id","study_id","session_id","rt","response","stimulus","success","item","task","correct_response","correct","target","confound","name"
"pavlovia","0","3187","0.0-0.0","61158a5c1d8390415ff117a8","64afc2c9a8732ea92db0087d","64aff828885b0281b5daa9b7","","","","","","","","","","",""
"survey-html-form","1","7145","0.0-1.0","61158a5c1d8390415ff117a8","64afc2c9a8732ea92db0087d","64aff828885b0281b5daa9b7","3956","{""ID"":""61158a5c1d8390415ff117a8""}","","","","","","","","",""
"html-keyboard-response","2","12840","0.0-2.0","61158a5c1d8390415ff117a8","64afc2c9a8732ea92db0087d","64aff828885b0281b5daa9b7","5693"," ","<p style=""font-size: 15px;"">Prima di cominciare, le chiediamo di leggere il modulo di consenso informato e confermare la sua volontà di partecipare all'esperimento.</p>
      <p style=""font-size: 15px;""> La preghiamo di ricordare che questo è un progetto di ricerca e che la sua partecipazione è completamente volontaria. Lei si potra' ritirare in qualunque momento, senza necessariamente dover dare alcuna spiegazione. Lo studio al quale Le si chiede di partecipare ha lo scopo di esaminare come i lettori elaborano le parole scritte. La somministrazione delle prove è individuale. Lei sarà impegnato in una sessione di lavoro della durata media di 10 minuti, e un questionario di 10 minuti. L’ordine delle prove ed il loro svolgimento sono stabiliti in modo tale da evitare un eventuale affaticamento. Tutte le prove saranno precedute da un breve addestramento in modo tale che abbia la possibilità di familiarizzare con il compito. Sono previste alcune pause nel corso dello svolgimento dell’esperimento. Una ricompensa di £4 (£8 per ora) Le verrà consegnata al termine della sessione di testing. Nonostante il testing preveda delle prove cognitive, il presente esperimento non costituisce una prova clinica che permetta la diagnosi di eventuali patologie.</p>
      <p style=""font-size: 15px;"">Tutti i dati raccolti grazie alla partecipazione Sua e di altre persone volontarie saranno custoditi in server sicuri e protetti da password, e non sarà consentito ad alcuna persona non autorizzata di accedervi. Le Sue informazioni personali saranno conservate separatamente dai risultati della presente ricerca, cui saranno associati soltanto attraverso un ID arbitrario. Grazie a questo processo di anonimizzazione dei dati, a nessun ricercatore sarà possibile analizzare i risultati sapendo da quale specifico partecipante essi provengono. Inoltre, questa procedura renderà impossibile la Sua identificazione anche nel momento in cui i risultati della ricerca fossero pubblicati su riviste scientifiche, o presentati a congressi o in qualsiasi altro pubblico consesso. Più in generale, i dati raccolti saranno trattati in accordo con le leggi sulla privacy e in conformità al Decreto Legislativo 30 giugno 2003 n. 196 “Codice in materia di protezione dei dati personali” e al Regolamento Europeo 2016/679 (General Data Protection Regulation - GDPR). Il Responsabile della protezione dei dati (RPD) è l’Avv. Valentina Carollo che può essere contattato ai seguenti indirizzi email: <a href=""mailto:dpo@sissa.it"">dpo@sissa.it</a> oppure <a href=""mailto:rpd@sissa.it"">rpd@sissa.it</a> - PEC: <a href=""mailto:protocollo@pec.sissa.it"">protocollo@pec.sissa.it</a>.</p>
      <p style=""font-size: 15px;""> Prima di esprimere il suo consenso alla partecipazione, Le ricordiamo ancora che in caso Lei abbia bisogno di delucidazioni su qualunque aspetto della procedura sperimentale, il ricercatore è a Sua completa disposizione (<a href=""mailto:aliebelt@sissa.it"">aliebelt@sissa.it</a>, <a href=""mailto:davide.crepaldi@sissa.it"">davide.crepaldi@sissa.it</a>).</p>
      <p style=""font-size: 15px;"">Se vuole scaricare il modulo di consenso informato, clicca qui: <a href=""BASL_modulo_consenso.pdf"" download>modulo di consenso</a>.</p>
      <p style=""font-size: 15px;""> Le chiediamo di premere la barra per continuare al consenso.</p>","","","","","","","",""
"survey-html-form","3","31256","0.0-3.0","61158a5c1d8390415ff117a8","64afc2c9a8732ea92db0087d","64aff828885b0281b5daa9b7","18414","{""consent1"":""YES"",""consent2"":""YES"",""consent3"":""YES"",""consent4"":""YES"",""consent5"":""YES"",""consent6"":""YES""}","","","","","","","","",""
"fullscreen","4","34403","0.0-4.0","61158a5c1d8390415ff117a8","64afc2c9a8732ea92db0087d","64aff828885b0281b5daa9b7","","","","true","","","","","","",""
"html-keyboard-response","5","52872","0.0-5.0","61158a5c1d8390415ff117a8","64afc2c9a8732ea92db0087d","64aff828885b0281b5daa9b7","18468"," ","<p>Benvenuta/o, e grazie mille del tuo tempo!</p>
      <p>In questo esperimento sarai un esperto/un'esperta di linguaggio cui è stato chiesto di dare un'occhiata ad alcuni messaggi che la Terra ha ricevuto dallo spazio. Il tuo compito, in questa prima parte dell'esperimento, sarà di fare molta attenzione alle parole che ti verranno mostrate; più tardi, i leader del mondo ti chiederanno qualche informazione su quello che hai visto. Le parole si susseguiranno abbastanza velocemente; sembra che questi alieni abbiano una certa fretta :-) </p>
      <p>Per favore, chiama lo sperimentatore se ha qualche domanda.</p><p>Premi la barra per continuare.</p>","","","","","","","",""
"html-keyboard-response","6","59342","0.0-6.0","61158a5c1d8390415ff117a8","64afc2c9a8732ea92db0087d","64aff828885b0281b5daa9b7","6468"," ","<p>Ecco un esempio delle parole che vedrai:</p>
      <img src='esempio.png' height='400px'>
      <p>Quando sei pronti per iniziare, premi la barra.</p></div>","","","","","","","",""
"html-keyboard-response","7","60365","0.0-7.0-0.0","61158a5c1d8390415ff117a8","64afc2c9a8732ea92db0087d","64aff828885b0281b5daa9b7","null","null","<p style=""font-size: 60px; font-family: BACS"">YJLcAuvJ</p>","","","","","","","",""
"html-keyboard-response","8","61382","0.0-7.0-0.1","61158a5c1d8390415ff117a8","64afc2c9a8732ea92db0087d","64aff828885b0281b5daa9b7","null","null","<p style=""font-size: 60px; font-family: BACS"">KdAROtM</p>","","","","","","","",""
"html-keyboard-response","9","62388","0.0-7.0-0.2","61158a5c1d8390415ff117a8","64afc2c9a8732ea92db0087d","64aff828885b0281b5daa9b7","null","null","<p style=""font-size: 60px; font-family: BACS"">EYtYROBT</p>","","","","","","","",""
"html-keyboard-response","10","63389","0.0-7.0-0.3","61158a5c1d8390415ff117a8","64afc2c9a8732ea92db0087d","64aff828885b0281b5daa9b7","null","null","<p style=""font-size: 60px; font-family: BACS"">YJLcAcUN</p>","","","","","","","",""
"html-keyboard-response","11","64413","0.0-7.0-0.4","61158a5c1d8390415ff117a8","64afc2c9a8732ea92db0087d","64aff828885b0281b5daa9b7","null","null","<p style=""font-size: 60px; font-family: BACS"">amJmLcO</p>","","","","","","","",""
"html-keyboard-response","12","65428","0.0-7.0-0.5","61158a5c1d8390415ff117a8","64afc2c9a8732ea92db0087d","64aff828885b0281b5daa9b7","null","null","<p style=""font-size: 60px; font-family: BACS"">uQkrdYmb</p>","","","","","","","",""
"html-keyboard-response","13","66450","0.0-7.0-0.6","61158a5c1d8390415ff117a8","64afc2c9a8732ea92db0087d","64aff828885b0281b5daa9b7","null","null","<p style=""font-size: 60px; font-family: BACS"">BECkdTAh</p>","","","","","","","",""
"html-keyboard-response","14","67466","0.0-7.0-0.7","61158a5c1d8390415ff117a8","64afc2c9a8732ea92db0087d","64aff828885b0281b5daa9b7","null","null","<p style=""font-size: 60px; font-family: BACS"">hYDmtmhc</p>","","","","","","","",""
"html-keyboard-response","15","68489","0.0-7.0-0.8","61158a5c1d8390415ff117a8","64afc2c9a8732ea92db0087d","64aff828885b0281b5daa9b7","null","null","<p style=""font-size: 60px; font-family: BACS"">udkmYmb</p>","","","","","","","",""
"html-keyboard-response","16","69515","0.0-7.0-0.9","61158a5c1d8390415ff117a8","64afc2c9a8732ea92db0087d","64aff828885b0281b5daa9b7","null","null","<p style=""font-size: 60px; font-family: BACS"">EYtYRdTAh</p>","","","","","","","",""
"html-keyboard-response","17","70539","0.0-7.0-0.10","61158a5c1d8390415ff117a8","64afc2c9a8732ea92db0087d","64aff828885b0281b5daa9b7","null","null","<p style=""font-size: 60px; font-family: BACS"">AlQaQLcO</p>","","","","","","","",""
"html-keyboard-response","18","71556","0.0-7.0-0.11","61158a5c1d8390415ff117a8","64afc2c9a8732ea92db0087d","64aff828885b0281b5daa9b7","null","null","<p style=""font-size: 60px; font-family: BACS"">YJLcAbadk</p>","","","","","","","",""
"html-keyboard-response","19","72579","0.0-7.0-0.12","61158a5c1d8390415ff117a8","64afc2c9a8732ea92db0087d","64aff828885b0281b5daa9b7","null","null","<p style=""font-size: 60px; font-family: BACS"">btlckmhc</p>","","","","","","","",""
"html-keyboard-response","20","73598","0.0-7.0-0.13","61158a5c1d8390415ff117a8","64afc2c9a8732ea92db0087d","64aff828885b0281b5daa9b7","null","null","<p style=""font-size: 60px; font-family: BACS"">uQkrdcUN</p>","","","","","","","",""
"html-keyboard-response","21","74606","0.0-7.0-0.14","61158a5c1d8390415ff117a8","64afc2c9a8732ea92db0087d","64aff828885b0281b5daa9b7","null","null","<p style=""font-size: 60px; font-family: BACS"">vblruvJ</p>","","","","","","","",""
"html-keyboard-response","22","75638","0.0-7.0-0.15","61158a5c1d8390415ff117a8","64afc2c9a8732ea92db0087d","64aff828885b0281b5daa9b7","null","null","<p style=""font-size: 60px; font-family: BACS"">PDPhlhEct</p>","","","","","","","",""
"html-keyboard-response","23","76644","0.0-7.0-0.16","61158a5c1d8390415ff117a8","64afc2c9a8732ea92db0087d","64aff828885b0281b5daa9b7","null","null","<p style=""font-size: 60px; font-family: BACS"">dNZAuvJ</p>","","","","","","","",""
"html-keyboard-response","24","77675","0.0-7.0-0.17","61158a5c1d8390415ff117a8","64afc2c9a8732ea92db0087d","64aff828885b0281b5daa9b7","null","null","<p style=""font-size: 60px; font-family: BACS"">ObZbALcO</p>","","","","","","","",""
"html-keyboard-response","25","78698","0.0-7.0-0.18","61158a5c1d8390415ff117a8","64afc2c9a8732ea92db0087d","64aff828885b0281b5daa9b7","null","null","<p style=""font-size: 60px; font-family: BACS"">LuNZuvJ</p>","","","","","","","",""
"html-keyboard-response","26","79714","0.0-7.0-0.19","61158a5c1d8390415ff117a8","64afc2c9a8732ea92db0087d","64aff828885b0281b5daa9b7","null","null","<p style=""font-size: 60px; font-family: BACS"">btlckOtM</p>","","","","","","","",""
"html-keyboard-response","27","80736","0.0-7.0-0.20","61158a5c1d8390415ff117a8","64afc2c9a8732ea92db0087d","64aff828885b0281b5daa9b7","null","null","<p style=""font-size: 60px; font-family: BACS"">AlQaQYmb</p>","","","","","","","",""
"html-keyboard-response","28","81754","0.0-7.0-0.21","61158a5c1d8390415ff117a8","64afc2c9a8732ea92db0087d","64aff828885b0281b5daa9b7","null","null","<p style=""font-size: 60px; font-family: BACS"">ObZbAuvJ</p>","","","","","","","",""
"html-keyboard-response","29","82768","0.0-7.0-0.22","61158a5c1d8390415ff117a8","64afc2c9a8732ea92db0087d","64aff828885b0281b5daa9b7","null","null","<p style=""font-size: 60px; font-family: BACS"">amJmcUN</p>","","","","","","","",""
"html-keyboard-response","30","83798","0.0-7.0-0.23","61158a5c1d8390415ff117a8","64afc2c9a8732ea92db0087d","64aff828885b0281b5daa9b7","null","null","<p style=""font-size: 60px; font-family: BACS"">dOYmlhEct</p>","","","","","","","",""
"html-keyboard-response","31","84804","0.0-7.0-0.24","61158a5c1d8390415ff117a8","64afc2c9a8732ea92db0087d","64aff828885b0281b5daa9b7","null","null","<p style=""font-size: 60px; font-family: BACS"">ObZbAYmb</p>","","","","","","","",""
"html-keyboard-response","32","85835","0.0-7.0-0.25","61158a5c1d8390415ff117a8","64afc2c9a8732ea92db0087d","64aff828885b0281b5daa9b7","null","null","<p style=""font-size: 60px; font-family: BACS"">EMYKdTAh</p>","","","","","","","",""
"html-keyboard-response","33","86856","0.0-7.0-0.26","61158a5c1d8390415ff117a8","64afc2c9a8732ea92db0087d","64aff828885b0281b5daa9b7","null","null","<p style=""font-size: 60px; font-family: BACS"">lBlEhEct</p>","","","","","","","",""
"html-keyboard-response","34","87864","0.0-7.0-0.27","61158a5c1d8390415ff117a8","64afc2c9a8732ea92db0087d","64aff828885b0281b5daa9b7","null","null","<p style=""font-size: 60px; font-family: BACS"">udkmLcO</p>","","","","","","","",""
"html-keyboard-response","35","88888","0.0-7.0-0.28","61158a5c1d8390415ff117a8","64afc2c9a8732ea92db0087d","64aff828885b0281b5daa9b7","null","null","<p style=""font-size: 60px; font-family: BACS"">EMYKhEct</p>","","","","","","","",""
"html-keyboard-response","36","89907","0.0-7.0-0.29","61158a5c1d8390415ff117a8","64afc2c9a8732ea92db0087d","64aff828885b0281b5daa9b7","null","null","<p style=""font-size: 60px; font-family: BACS"">PDPhlOBT</p>","","","","","","","",""
"html-keyboard-response","37","90927","0.0-7.0-0.30","61158a5c1d8390415ff117a8","64afc2c9a8732ea92db0087d","64aff828885b0281b5daa9b7","null","null","<p style=""font-size: 60px; font-family: BACS"">LuNZbadk</p>","","","","","","","",""
"html-keyboard-response","38","91958","0.0-7.0-0.31","61158a5c1d8390415ff117a8","64afc2c9a8732ea92db0087d","64aff828885b0281b5daa9b7","null","null","<p style=""font-size: 60px; font-family: BACS"">lRCBOtM</p>","","","","","","","",""
"html-keyboard-response","39","92965","0.0-7.0-0.32","61158a5c1d8390415ff117a8","64afc2c9a8732ea92db0087d","64aff828885b0281b5daa9b7","null","null","<p style=""font-size: 60px; font-family: BACS"">KdAROBT</p>","","","","","","","",""
"html-keyboard-response","40","93998","0.0-7.0-0.33","61158a5c1d8390415ff117a8","64afc2c9a8732ea92db0087d","64aff828885b0281b5daa9b7","null","null","<p style=""font-size: 60px; font-family: BACS"">btlckdTAh</p>","","","","","","","",""
"html-keyboard-response","41","95410","0.0-7.0-0.34","61158a5c1d8390415ff117a8","64afc2c9a8732ea92db0087d","64aff828885b0281b5daa9b7","null","null","<p style=""font-size: 60px; font-family: BACS"">PDPhlOtM</p>","","","","","","","",""
"html-keyboard-response","42","97396","0.0-7.0-0.35","61158a5c1d8390415ff117a8","64afc2c9a8732ea92db0087d","64aff828885b0281b5daa9b7","null","null","<p style=""font-size: 60px; font-family: BACS"">ukYZcUN</p>","","","","","","","",""
"html-keyboard-response","43","98403","0.0-7.0-0.36","61158a5c1d8390415ff117a8","64afc2c9a8732ea92db0087d","64aff828885b0281b5daa9b7","null","null","<p style=""font-size: 60px; font-family: BACS"">lBlEdTAh</p>","","","","","","","",""
"html-keyboard-response","44","100407","0.0-7.0-0.37","61158a5c1d8390415ff117a8","64afc2c9a8732ea92db0087d","64aff828885b0281b5daa9b7","null","null","<p style=""font-size: 60px; font-family: BACS"">ukYZYmb</p>","","","","","","","",""
"html-keyboard-response","45","102399","0.0-7.0-0.38","61158a5c1d8390415ff117a8","64afc2c9a8732ea92db0087d","64aff828885b0281b5daa9b7","null","null","<p style=""font-size: 60px; font-family: BACS"">EYtYRhEct</p>","","","","","","","",""
"html-keyboard-response","46","104404","0.0-7.0-0.39","61158a5c1d8390415ff117a8","64afc2c9a8732ea92db0087d","64aff828885b0281b5daa9b7","null","null","<p style=""font-size: 60px; font-family: BACS"">lBlEOtM</p>","","","","","","","",""
"html-keyboard-response","47","106399","0.0-7.0-0.40","61158a5c1d8390415ff117a8","64afc2c9a8732ea92db0087d","64aff828885b0281b5daa9b7","null","null","<p style=""font-size: 60px; font-family: BACS"">vblrcUN</p>","","","","","","","",""
"html-keyboard-response","48","108407","0.0-7.0-0.41","61158a5c1d8390415ff117a8","64afc2c9a8732ea92db0087d","64aff828885b0281b5daa9b7","null","null","<p style=""font-size: 60px; font-family: BACS"">dOYmldTAh</p>","","","","","","","",""
"html-keyboard-response","49","110396","0.0-7.0-0.42","61158a5c1d8390415ff117a8","64afc2c9a8732ea92db0087d","64aff828885b0281b5daa9b7","null","null","<p style=""font-size: 60px; font-family: BACS"">PDPhlmhc</p>","","","","","","","",""
"html-keyboard-response","50","112401","0.0-7.0-0.43","61158a5c1d8390415ff117a8","64afc2c9a8732ea92db0087d","64aff828885b0281b5daa9b7","null","null","<p style=""font-size: 60px; font-family: BACS"">dOYmlOBT</p>","","","","","","","",""
"html-keyboard-response","51","114407","0.0-7.0-0.44","61158a5c1d8390415ff117a8","64afc2c9a8732ea92db0087d","64aff828885b0281b5daa9b7","null","null","<p style=""font-size: 60px; font-family: BACS"">lRCBhEct</p>","","","","","","","",""
"html-keyboard-response","52","116395","0.0-7.0-0.45","61158a5c1d8390415ff117a8","64afc2c9a8732ea92db0087d","64aff828885b0281b5daa9b7","null","null","<p style=""font-size: 60px; font-family: BACS"">AlQaQuvJ</p>","","","","","","","",""
"html-keyboard-response","53","117401","0.0-7.0-0.46","61158a5c1d8390415ff117a8","64afc2c9a8732ea92db0087d","64aff828885b0281b5daa9b7","null","null","<p style=""font-size: 60px; font-family: BACS"">hYDmtOBT</p>","","","","","","","",""
"html-keyboard-response","54","118409","0.0-7.0-0.47","61158a5c1d8390415ff117a8","64afc2c9a8732ea92db0087d","64aff828885b0281b5daa9b7","null","null","<p style=""font-size: 60px; font-family: BACS"">EYtYRmhc</p>","","","","","","","",""
"html-keyboard-response","55","120396","0.0-7.0-0.48","61158a5c1d8390415ff117a8","64afc2c9a8732ea92db0087d","64aff828885b0281b5daa9b7","null","null","<p style=""font-size: 60px; font-family: BACS"">LuNZcUN</p>","","","","","","","",""
"html-keyboard-response","56","122402","0.0-7.0-0.49","61158a5c1d8390415ff117a8","64afc2c9a8732ea92db0087d","64aff828885b0281b5daa9b7","null","null","<p style=""font-size: 60px; font-family: BACS"">dNZAbadk</p>","","","","","","","",""
"html-keyboard-response","57","124407","0.0-7.0-0.50","61158a5c1d8390415ff117a8","64afc2c9a8732ea92db0087d","64aff828885b0281b5daa9b7","null","null","<p style=""font-size: 60px; font-family: BACS"">KdARhEct</p>","","","","","","","",""
"html-keyboard-response","58","126400","0.0-7.0-0.51","61158a5c1d8390415ff117a8","64afc2c9a8732ea92db0087d","64aff828885b0281b5daa9b7","null","null","<p style=""font-size: 60px; font-family: BACS"">dNZAYmb</p>","","","","","","","",""
"html-keyboard-response","59","128404","0.0-7.0-0.52","61158a5c1d8390415ff117a8","64afc2c9a8732ea92db0087d","64aff828885b0281b5daa9b7","null","null","<p style=""font-size: 60px; font-family: BACS"">uQkrdbadk</p>","","","","","","","",""
"html-keyboard-response","60","130399","0.0-7.0-0.53","61158a5c1d8390415ff117a8","64afc2c9a8732ea92db0087d","64aff828885b0281b5daa9b7","null","null","<p style=""font-size: 60px; font-family: BACS"">lBlEOBT</p>","","","","","","","",""
"html-keyboard-response","61","131407","0.0-7.0-0.54","61158a5c1d8390415ff117a8","64afc2c9a8732ea92db0087d","64aff828885b0281b5daa9b7","null","null","<p style=""font-size: 60px; font-family: BACS"">AlQaQbadk</p>","","","","","","","",""
"html-keyboard-response","62","133394","0.0-7.0-0.55","61158a5c1d8390415ff117a8","64afc2c9a8732ea92db0087d","64aff828885b0281b5daa9b7","null","null","<p style=""font-size: 60px; font-family: BACS"">vblrYmb</p>","","","","","","","",""
"html-keyboard-response","63","134408","0.0-7.0-0.56","61158a5c1d8390415ff117a8","64afc2c9a8732ea92db0087d","64aff828885b0281b5daa9b7","null","null","<p style=""font-size: 60px; font-family: BACS"">btlckOBT</p>","","","","","","","",""
"html-keyboard-response","64","136402","0.0-7.0-0.57","61158a5c1d8390415ff117a8","64afc2c9a8732ea92db0087d","64aff828885b0281b5daa9b7","null","null","<p style=""font-size: 60px; font-family: BACS"">hYDmtOtM</p>","","","","","","","",""
"html-keyboard-response","65","138397","0.0-7.0-0.58","61158a5c1d8390415ff117a8","64afc2c9a8732ea92db0087d","64aff828885b0281b5daa9b7","null","null","<p style=""font-size: 60px; font-family: BACS"">LuNZLcO</p>","","","","","","","",""
"html-keyboard-response","66","140408","0.0-7.0-0.59","61158a5c1d8390415ff117a8","64afc2c9a8732ea92db0087d","64aff828885b0281b5daa9b7","null","null","<p style=""font-size: 60px; font-family: BACS"">KdARmhc</p>","","","","","","","",""
"html-keyboard-response","67","142404","0.0-7.0-0.60","61158a5c1d8390415ff117a8","64afc2c9a8732ea92db0087d","64aff828885b0281b5daa9b7","null","null","<p style=""font-size: 60px; font-family: BACS"">amJmYmb</p>","","","","","","","",""
"html-keyboard-response","68","144408","0.0-7.0-0.61","61158a5c1d8390415ff117a8","64afc2c9a8732ea92db0087d","64aff828885b0281b5daa9b7","null","null","<p style=""font-size: 60px; font-family: BACS"">udkmcUN</p>","","","","","","","",""
"html-keyboard-response","69","146401","0.0-7.0-0.62","61158a5c1d8390415ff117a8","64afc2c9a8732ea92db0087d","64aff828885b0281b5daa9b7","null","null","<p style=""font-size: 60px; font-family: BACS"">EMYKmhc</p>","","","","","","","",""
"html-keyboard-response","70","147411","0.0-7.0-0.63","61158a5c1d8390415ff117a8","64afc2c9a8732ea92db0087d","64aff828885b0281b5daa9b7","null","null","<p style=""font-size: 60px; font-family: BACS"">BECkOtM</p>","","","","","","","",""
"html-keyboard-response","71","149400","0.0-7.0-0.64","61158a5c1d8390415ff117a8","64afc2c9a8732ea92db0087d","64aff828885b0281b5daa9b7","null","null","<p style=""font-size: 60px; font-family: BACS"">dNZAcUN</p>","","","","","","","",""
"html-keyboard-response","72","150409","0.0-7.0-0.65","61158a5c1d8390415ff117a8","64afc2c9a8732ea92db0087d","64aff828885b0281b5daa9b7","null","null","<p style=""font-size: 60px; font-family: BACS"">hYDmtdTAh</p>","","","","","","","",""
"html-keyboard-response","73","152398","0.0-7.0-0.66","61158a5c1d8390415ff117a8","64afc2c9a8732ea92db0087d","64aff828885b0281b5daa9b7","null","null","<p style=""font-size: 60px; font-family: BACS"">EMYKOBT</p>","","","","","","","",""
"html-keyboard-response","74","154402","0.0-7.0-0.67","61158a5c1d8390415ff117a8","64afc2c9a8732ea92db0087d","64aff828885b0281b5daa9b7","null","null","<p style=""font-size: 60px; font-family: BACS"">dOYmlOtM</p>","","","","","","","",""
"html-keyboard-response","75","156409","0.0-7.0-0.68","61158a5c1d8390415ff117a8","64afc2c9a8732ea92db0087d","64aff828885b0281b5daa9b7","null","null","<p style=""font-size: 60px; font-family: BACS"">YJLcALcO</p>","","","","","","","",""
"html-keyboard-response","76","158402","0.0-7.0-0.69","61158a5c1d8390415ff117a8","64afc2c9a8732ea92db0087d","64aff828885b0281b5daa9b7","null","null","<p style=""font-size: 60px; font-family: BACS"">ObZbAbadk</p>","","","","","","","",""
"html-keyboard-response","77","159411","0.0-7.0-0.70","61158a5c1d8390415ff117a8","64afc2c9a8732ea92db0087d","64aff828885b0281b5daa9b7","null","null","<p style=""font-size: 60px; font-family: BACS"">BECkhEct</p>","","","","","","","",""
"html-keyboard-response","78","161400","0.0-7.0-0.71","61158a5c1d8390415ff117a8","64afc2c9a8732ea92db0087d","64aff828885b0281b5daa9b7","null","null","<p style=""font-size: 60px; font-family: BACS"">amJmuvJ</p>","","","","","","","",""
"html-keyboard-response","79","162408","0.0-7.0-0.72","61158a5c1d8390415ff117a8","64afc2c9a8732ea92db0087d","64aff828885b0281b5daa9b7","null","null","<p style=""font-size: 60px; font-family: BACS"">lRCBmhc</p>","","","","","","","",""
"html-keyboard-response","80","164397","0.0-7.0-0.73","61158a5c1d8390415ff117a8","64afc2c9a8732ea92db0087d","64aff828885b0281b5daa9b7","null","null","<p style=""font-size: 60px; font-family: BACS"">ukYZbadk</p>","","","","","","","",""
"html-keyboard-response","81","166404","0.0-7.0-0.74","61158a5c1d8390415ff117a8","64afc2c9a8732ea92db0087d","64aff828885b0281b5daa9b7","null","null","<p style=""font-size: 60px; font-family: BACS"">BECkmhc</p>","","","","","","","",""
"html-keyboard-response","82","168394","0.0-7.0-0.75","61158a5c1d8390415ff117a8","64afc2c9a8732ea92db0087d","64aff828885b0281b5daa9b7","null","null","<p style=""font-size: 60px; font-family: BACS"">ukYZLcO</p>","","","","","","","",""
"html-keyboard-response","83","169410","0.0-7.0-0.76","61158a5c1d8390415ff117a8","64afc2c9a8732ea92db0087d","64aff828885b0281b5daa9b7","null","null","<p style=""font-size: 60px; font-family: BACS"">udkmbadk</p>","","","","","","","",""
"html-keyboard-response","84","171398","0.0-7.0-0.77","61158a5c1d8390415ff117a8","64afc2c9a8732ea92db0087d","64aff828885b0281b5daa9b7","null","null","<p style=""font-size: 60px; font-family: BACS"">vblrLcO</p>","","","","","","","",""
"html-keyboard-response","85","172408","0.0-7.0-0.78","61158a5c1d8390415ff117a8","64afc2c9a8732ea92db0087d","64aff828885b0281b5daa9b7","null","null","<p style=""font-size: 60px; font-family: BACS"">lRCBdTAh</p>","","","","","","","",""
"html-keyboard-response","86","174396","0.0-7.0-0.79","61158a5c1d8390415ff117a8","64afc2c9a8732ea92db0087d","64aff828885b0281b5daa9b7","null","null","<p style=""font-size: 60px; font-family: BACS"">uQkrduvJ</p>","","","","","","","",""
"html-keyboard-response","87","178583","0.0-8.0","61158a5c1d8390415ff117a8","64afc2c9a8732ea92db0087d","64aff828885b0281b5daa9b7","4185"," ","<p>Ottimo, hai visto il primo blocco di parole. Ora puoi prenderti una piccola pausa.</p>
      <p>Premi la barra quando sei pronta/o per riprendere.</p>","","","","","","","",""
"html-keyboard-response","88","179598","0.0-9.0-0.0","61158a5c1d8390415ff117a8","64afc2c9a8732ea92db0087d","64aff828885b0281b5daa9b7","null","null","<p style=""font-size: 60px; font-family: BACS"">PDPhlOtM</p>","","","","","","","",""
"html-keyboard-response","89","180601","0.0-9.0-0.1","61158a5c1d8390415ff117a8","64afc2c9a8732ea92db0087d","64aff828885b0281b5daa9b7","null","null","<p style=""font-size: 60px; font-family: BACS"">EYtYRdTAh</p>","","","","","","","",""
"html-keyboard-response","90","181617","0.0-9.0-0.2","61158a5c1d8390415ff117a8","64afc2c9a8732ea92db0087d","64aff828885b0281b5daa9b7","null","null","<p style=""font-size: 60px; font-family: BACS"">ukYZbadk</p>","","","","","","","",""
"html-keyboard-response","91","182624","0.0-9.0-0.3","61158a5c1d8390415ff117a8","64afc2c9a8732ea92db0087d","64aff828885b0281b5daa9b7","null","null","<p style=""font-size: 60px; font-family: BACS"">uQkrduvJ</p>","","","","","","","",""
"html-keyboard-response","92","183656","0.0-9.0-0.4","61158a5c1d8390415ff117a8","64afc2c9a8732ea92db0087d","64aff828885b0281b5daa9b7","null","null","<p style=""font-size: 60px; font-family: BACS"">dOYmldTAh</p>","","","","","","","",""
"html-keyboard-response","93","184678","0.0-9.0-0.5","61158a5c1d8390415ff117a8","64afc2c9a8732ea92db0087d","64aff828885b0281b5daa9b7","null","null","<p style=""font-size: 60px; font-family: BACS"">BECkmhc</p>","","","","","","","",""
"html-keyboard-response","94","185694","0.0-9.0-0.6","61158a5c1d8390415ff117a8","64afc2c9a8732ea92db0087d","64aff828885b0281b5daa9b7","null","null","<p style=""font-size: 60px; font-family: BACS"">ukYZYmb</p>","","","","","","","",""
"html-keyboard-response","95","186716","0.0-9.0-0.7","61158a5c1d8390415ff117a8","64afc2c9a8732ea92db0087d","64aff828885b0281b5daa9b7","null","null","<p style=""font-size: 60px; font-family: BACS"">hYDmtOtM</p>","","","","","","","",""
"html-keyboard-response","96","187731","0.0-9.0-0.8","61158a5c1d8390415ff117a8","64afc2c9a8732ea92db0087d","64aff828885b0281b5daa9b7","null","null","<p style=""font-size: 60px; font-family: BACS"">amJmcUN</p>","","","","","","","",""
"html-keyboard-response","97","188763","0.0-9.0-0.9","61158a5c1d8390415ff117a8","64afc2c9a8732ea92db0087d","64aff828885b0281b5daa9b7","null","null","<p style=""font-size: 60px; font-family: BACS"">ObZbALcO</p>","","","","","","","",""
"html-keyboard-response","98","189779","0.0-9.0-0.10","61158a5c1d8390415ff117a8","64afc2c9a8732ea92db0087d","64aff828885b0281b5daa9b7","null","null","<p style=""font-size: 60px; font-family: BACS"">vblrcUN</p>","","","","","","","",""
"html-keyboard-response","99","190803","0.0-9.0-0.11","61158a5c1d8390415ff117a8","64afc2c9a8732ea92db0087d","64aff828885b0281b5daa9b7","null","null","<p style=""font-size: 60px; font-family: BACS"">ukYZLcO</p>","","","","","","","",""
"html-keyboard-response","100","191818","0.0-9.0-0.12","61158a5c1d8390415ff117a8","64afc2c9a8732ea92db0087d","64aff828885b0281b5daa9b7","null","null","<p style=""font-size: 60px; font-family: BACS"">btlckdTAh</p>","","","","","","","",""
"html-keyboard-response","101","192843","0.0-9.0-0.13","61158a5c1d8390415ff117a8","64afc2c9a8732ea92db0087d","64aff828885b0281b5daa9b7","null","null","<p style=""font-size: 60px; font-family: BACS"">AlQaQLcO</p>","","","","","","","",""
"html-keyboard-response","102","193860","0.0-9.0-0.14","61158a5c1d8390415ff117a8","64afc2c9a8732ea92db0087d","64aff828885b0281b5daa9b7","null","null","<p style=""font-size: 60px; font-family: BACS"">lRCBmhc</p>","","","","","","","",""
"html-keyboard-response","103","194885","0.0-9.0-0.15","61158a5c1d8390415ff117a8","64afc2c9a8732ea92db0087d","64aff828885b0281b5daa9b7","null","null","<p style=""font-size: 60px; font-family: BACS"">LuNZcUN</p>","","","","","","","",""
"html-keyboard-response","104","195901","0.0-9.0-0.16","61158a5c1d8390415ff117a8","64afc2c9a8732ea92db0087d","64aff828885b0281b5daa9b7","null","null","<p style=""font-size: 60px; font-family: BACS"">btlckmhc</p>","","","","","","","",""
"html-keyboard-response","105","196925","0.0-9.0-0.17","61158a5c1d8390415ff117a8","64afc2c9a8732ea92db0087d","64aff828885b0281b5daa9b7","null","null","<p style=""font-size: 60px; font-family: BACS"">ukYZcUN</p>","","","","","","","",""
"html-keyboard-response","106","197940","0.0-9.0-0.18","61158a5c1d8390415ff117a8","64afc2c9a8732ea92db0087d","64aff828885b0281b5daa9b7","null","null","<p style=""font-size: 60px; font-family: BACS"">EMYKhEct</p>","","","","","","","",""
"html-keyboard-response","107","198963","0.0-9.0-0.19","61158a5c1d8390415ff117a8","64afc2c9a8732ea92db0087d","64aff828885b0281b5daa9b7","null","null","<p style=""font-size: 60px; font-family: BACS"">KdAROtM</p>","","","","","","","",""
"html-keyboard-response","108","199978","0.0-9.0-0.20","61158a5c1d8390415ff117a8","64afc2c9a8732ea92db0087d","64aff828885b0281b5daa9b7","null","null","<p style=""font-size: 60px; font-family: BACS"">vblruvJ</p>","","","","","","","",""
"html-keyboard-response","109","201002","0.0-9.0-0.21","61158a5c1d8390415ff117a8","64afc2c9a8732ea92db0087d","64aff828885b0281b5daa9b7","null","null","<p style=""font-size: 60px; font-family: BACS"">dOYmlOBT</p>","","","","","","","",""
"html-keyboard-response","110","202018","0.0-9.0-0.22","61158a5c1d8390415ff117a8","64afc2c9a8732ea92db0087d","64aff828885b0281b5daa9b7","null","null","<p style=""font-size: 60px; font-family: BACS"">amJmYmb</p>","","","","","","","",""
"html-keyboard-response","111","203041","0.0-9.0-0.23","61158a5c1d8390415ff117a8","64afc2c9a8732ea92db0087d","64aff828885b0281b5daa9b7","null","null","<p style=""font-size: 60px; font-family: BACS"">lRCBhEct</p>","","","","","","","",""
"html-keyboard-response","112","204053","0.0-9.0-0.24","61158a5c1d8390415ff117a8","64afc2c9a8732ea92db0087d","64aff828885b0281b5daa9b7","null","null","<p style=""font-size: 60px; font-family: BACS"">lBlEOBT</p>","","","","","","","",""
"html-keyboard-response","113","205074","0.0-9.0-0.25","61158a5c1d8390415ff117a8","64afc2c9a8732ea92db0087d","64aff828885b0281b5daa9b7","null","null","<p style=""font-size: 60px; font-family: BACS"">PDPhlhEct</p>","","","","","","","",""
"html-keyboard-response","114","206106","0.0-9.0-0.26","61158a5c1d8390415ff117a8","64afc2c9a8732ea92db0087d","64aff828885b0281b5daa9b7","null","null","<p style=""font-size: 60px; font-family: BACS"">hYDmtmhc</p>","","","","","","","",""
"html-keyboard-response","115","207122","0.0-9.0-0.27","61158a5c1d8390415ff117a8","64afc2c9a8732ea92db0087d","64aff828885b0281b5daa9b7","null","null","<p style=""font-size: 60px; font-family: BACS"">LuNZuvJ</p>","","","","","","","",""
"html-keyboard-response","116","208140","0.0-9.0-0.28","61158a5c1d8390415ff117a8","64afc2c9a8732ea92db0087d","64aff828885b0281b5daa9b7","null","null","<p style=""font-size: 60px; font-family: BACS"">KdARhEct</p>","","","","","","","",""
"html-keyboard-response","117","209163","0.0-9.0-0.29","61158a5c1d8390415ff117a8","64afc2c9a8732ea92db0087d","64aff828885b0281b5daa9b7","null","null","<p style=""font-size: 60px; font-family: BACS"">uQkrdbadk</p>","","","","","","","",""
"html-keyboard-response","118","210178","0.0-9.0-0.30","61158a5c1d8390415ff117a8","64afc2c9a8732ea92db0087d","64aff828885b0281b5daa9b7","null","null","<p style=""font-size: 60px; font-family: BACS"">AlQaQYmb</p>","","","","","","","",""
"html-keyboard-response","119","211200","0.0-9.0-0.31","61158a5c1d8390415ff117a8","64afc2c9a8732ea92db0087d","64aff828885b0281b5daa9b7","null","null","<p style=""font-size: 60px; font-family: BACS"">udkmcUN</p>","","","","","","","",""
"html-keyboard-response","120","212215","0.0-9.0-0.32","61158a5c1d8390415ff117a8","64afc2c9a8732ea92db0087d","64aff828885b0281b5daa9b7","null","null","<p style=""font-size: 60px; font-family: BACS"">dNZAuvJ</p>","","","","","","","",""
"html-keyboard-response","121","213238","0.0-9.0-0.33","61158a5c1d8390415ff117a8","64afc2c9a8732ea92db0087d","64aff828885b0281b5daa9b7","null","null","<p style=""font-size: 60px; font-family: BACS"">udkmYmb</p>","","","","","","","",""
"html-keyboard-response","122","214397","0.0-9.0-0.34","61158a5c1d8390415ff117a8","64afc2c9a8732ea92db0087d","64aff828885b0281b5daa9b7","null","null","<p style=""font-size: 60px; font-family: BACS"">BECkOtM</p>","","","","","","","",""
"html-keyboard-response","123","216399","0.0-9.0-0.35","61158a5c1d8390415ff117a8","64afc2c9a8732ea92db0087d","64aff828885b0281b5daa9b7","null","null","<p style=""font-size: 60px; font-family: BACS"">btlckOBT</p>","","","","","","","",""
"html-keyboard-response","124","218391","0.0-9.0-0.36","61158a5c1d8390415ff117a8","64afc2c9a8732ea92db0087d","64aff828885b0281b5daa9b7","null","null","<p style=""font-size: 60px; font-family: BACS"">hYDmtdTAh</p>","","","","","","","",""
"html-keyboard-response","125","219404","0.0-9.0-0.37","61158a5c1d8390415ff117a8","64afc2c9a8732ea92db0087d","64aff828885b0281b5daa9b7","null","null","<p style=""font-size: 60px; font-family: BACS"">YJLcAcUN</p>","","","","","","","",""
"html-keyboard-response","126","220409","0.0-9.0-0.38","61158a5c1d8390415ff117a8","64afc2c9a8732ea92db0087d","64aff828885b0281b5daa9b7","null","null","<p style=""font-size: 60px; font-family: BACS"">BECkdTAh</p>","","","","","","","",""
"html-keyboard-response","127","222397","0.0-9.0-0.39","61158a5c1d8390415ff117a8","64afc2c9a8732ea92db0087d","64aff828885b0281b5daa9b7","null","null","<p style=""font-size: 60px; font-family: BACS"">lRCBOtM</p>","","","","","","","",""
"html-keyboard-response","128","224405","0.0-9.0-0.40","61158a5c1d8390415ff117a8","64afc2c9a8732ea92db0087d","64aff828885b0281b5daa9b7","null","null","<p style=""font-size: 60px; font-family: BACS"">PDPhlOBT</p>","","","","","","","",""
"html-keyboard-response","129","226395","0.0-9.0-0.41","61158a5c1d8390415ff117a8","64afc2c9a8732ea92db0087d","64aff828885b0281b5daa9b7","null","null","<p style=""font-size: 60px; font-family: BACS"">AlQaQbadk</p>","","","","","","","",""
"html-keyboard-response","130","228400","0.0-9.0-0.42","61158a5c1d8390415ff117a8","64afc2c9a8732ea92db0087d","64aff828885b0281b5daa9b7","null","null","<p style=""font-size: 60px; font-family: BACS"">ObZbAYmb</p>","","","","","","","",""
"html-keyboard-response","131","230391","0.0-9.0-0.43","61158a5c1d8390415ff117a8","64afc2c9a8732ea92db0087d","64aff828885b0281b5daa9b7","null","null","<p style=""font-size: 60px; font-family: BACS"">YJLcAbadk</p>","","","","","","","",""
"html-keyboard-response","132","231406","0.0-9.0-0.44","61158a5c1d8390415ff117a8","64afc2c9a8732ea92db0087d","64aff828885b0281b5daa9b7","null","null","<p style=""font-size: 60px; font-family: BACS"">vblrYmb</p>","","","","","","","",""
"html-keyboard-response","133","233400","0.0-9.0-0.45","61158a5c1d8390415ff117a8","64afc2c9a8732ea92db0087d","64aff828885b0281b5daa9b7","null","null","<p style=""font-size: 60px; font-family: BACS"">amJmLcO</p>","","","","","","","",""
"html-keyboard-response","134","235394","0.0-9.0-0.46","61158a5c1d8390415ff117a8","64afc2c9a8732ea92db0087d","64aff828885b0281b5daa9b7","null","null","<p style=""font-size: 60px; font-family: BACS"">dOYmlhEct</p>","","","","","","","",""
"html-keyboard-response","135","236405","0.0-9.0-0.47","61158a5c1d8390415ff117a8","64afc2c9a8732ea92db0087d","64aff828885b0281b5daa9b7","null","null","<p style=""font-size: 60px; font-family: BACS"">dNZAcUN</p>","","","","","","","",""
"html-keyboard-response","136","238401","0.0-9.0-0.48","61158a5c1d8390415ff117a8","64afc2c9a8732ea92db0087d","64aff828885b0281b5daa9b7","null","null","<p style=""font-size: 60px; font-family: BACS"">uQkrdYmb</p>","","","","","","","",""
"html-keyboard-response","137","240392","0.0-9.0-0.49","61158a5c1d8390415ff117a8","64afc2c9a8732ea92db0087d","64aff828885b0281b5daa9b7","null","null","<p style=""font-size: 60px; font-family: BACS"">BECkhEct</p>","","","","","","","",""
"html-keyboard-response","138","242404","0.0-9.0-0.50","61158a5c1d8390415ff117a8","64afc2c9a8732ea92db0087d","64aff828885b0281b5daa9b7","null","null","<p style=""font-size: 60px; font-family: BACS"">lRCBdTAh</p>","","","","","","","",""
"html-keyboard-response","139","244409","0.0-9.0-0.51","61158a5c1d8390415ff117a8","64afc2c9a8732ea92db0087d","64aff828885b0281b5daa9b7","null","null","<p style=""font-size: 60px; font-family: BACS"">amJmuvJ</p>","","","","","","","",""
"html-keyboard-response","140","246398","0.0-9.0-0.52","61158a5c1d8390415ff117a8","64afc2c9a8732ea92db0087d","64aff828885b0281b5daa9b7","null","null","<p style=""font-size: 60px; font-family: BACS"">vblrLcO</p>","","","","","","","",""
"html-keyboard-response","141","248405","0.0-9.0-0.53","61158a5c1d8390415ff117a8","64afc2c9a8732ea92db0087d","64aff828885b0281b5daa9b7","null","null","<p style=""font-size: 60px; font-family: BACS"">lBlEdTAh</p>","","","","","","","",""
"html-keyboard-response","142","250398","0.0-9.0-0.54","61158a5c1d8390415ff117a8","64afc2c9a8732ea92db0087d","64aff828885b0281b5daa9b7","null","null","<p style=""font-size: 60px; font-family: BACS"">udkmLcO</p>","","","","","","","",""
"html-keyboard-response","143","251405","0.0-9.0-0.55","61158a5c1d8390415ff117a8","64afc2c9a8732ea92db0087d","64aff828885b0281b5daa9b7","null","null","<p style=""font-size: 60px; font-family: BACS"">AlQaQuvJ</p>","","","","","","","",""
"html-keyboard-response","144","253400","0.0-9.0-0.56","61158a5c1d8390415ff117a8","64afc2c9a8732ea92db0087d","64aff828885b0281b5daa9b7","null","null","<p style=""font-size: 60px; font-family: BACS"">dNZAbadk</p>","","","","","","","",""
"html-keyboard-response","145","254409","0.0-9.0-0.57","61158a5c1d8390415ff117a8","64afc2c9a8732ea92db0087d","64aff828885b0281b5daa9b7","null","null","<p style=""font-size: 60px; font-family: BACS"">EMYKOBT</p>","","","","","","","",""
"html-keyboard-response","146","255410","0.0-9.0-0.58","61158a5c1d8390415ff117a8","64afc2c9a8732ea92db0087d","64aff828885b0281b5daa9b7","null","null","<p style=""font-size: 60px; font-family: BACS"">PDPhlmhc</p>","","","","","","","",""
"html-keyboard-response","147","257404","0.0-9.0-0.59","61158a5c1d8390415ff117a8","64afc2c9a8732ea92db0087d","64aff828885b0281b5daa9b7","null","null","<p style=""font-size: 60px; font-family: BACS"">uQkrdcUN</p>","","","","","","","",""
"html-keyboard-response","148","259398","0.0-9.0-0.60","61158a5c1d8390415ff117a8","64afc2c9a8732ea92db0087d","64aff828885b0281b5daa9b7","null","null","<p style=""font-size: 60px; font-family: BACS"">dNZAYmb</p>","","","","","","","",""
"html-keyboard-response","149","260409","0.0-9.0-0.61","61158a5c1d8390415ff117a8","64afc2c9a8732ea92db0087d","64aff828885b0281b5daa9b7","null","null","<p style=""font-size: 60px; font-family: BACS"">udkmbadk</p>","","","","","","","",""
"html-keyboard-response","150","262407","0.0-9.0-0.62","61158a5c1d8390415ff117a8","64afc2c9a8732ea92db0087d","64aff828885b0281b5daa9b7","null","null","<p style=""font-size: 60px; font-family: BACS"">LuNZLcO</p>","","","","","","","",""
"html-keyboard-response","151","264412","0.0-9.0-0.63","61158a5c1d8390415ff117a8","64afc2c9a8732ea92db0087d","64aff828885b0281b5daa9b7","null","null","<p style=""font-size: 60px; font-family: BACS"">EYtYRmhc</p>","","","","","","","",""
"html-keyboard-response","152","266399","0.0-9.0-0.64","61158a5c1d8390415ff117a8","64afc2c9a8732ea92db0087d","64aff828885b0281b5daa9b7","null","null","<p style=""font-size: 60px; font-family: BACS"">KdAROBT</p>","","","","","","","",""
"html-keyboard-response","153","267405","0.0-9.0-0.65","61158a5c1d8390415ff117a8","64afc2c9a8732ea92db0087d","64aff828885b0281b5daa9b7","null","null","<p style=""font-size: 60px; font-family: BACS"">lBlEOtM</p>","","","","","","","",""
"html-keyboard-response","154","269397","0.0-9.0-0.66","61158a5c1d8390415ff117a8","64afc2c9a8732ea92db0087d","64aff828885b0281b5daa9b7","null","null","<p style=""font-size: 60px; font-family: BACS"">hYDmtOBT</p>","","","","","","","",""
"html-keyboard-response","155","270407","0.0-9.0-0.67","61158a5c1d8390415ff117a8","64afc2c9a8732ea92db0087d","64aff828885b0281b5daa9b7","null","null","<p style=""font-size: 60px; font-family: BACS"">lBlEhEct</p>","","","","","","","",""
"html-keyboard-response","156","272395","0.0-9.0-0.68","61158a5c1d8390415ff117a8","64afc2c9a8732ea92db0087d","64aff828885b0281b5daa9b7","null","null","<p style=""font-size: 60px; font-family: BACS"">ObZbAbadk</p>","","","","","","","",""
"html-keyboard-response","157","274400","0.0-9.0-0.69","61158a5c1d8390415ff117a8","64afc2c9a8732ea92db0087d","64aff828885b0281b5daa9b7","null","null","<p style=""font-size: 60px; font-family: BACS"">btlckOtM</p>","","","","","","","",""
"html-keyboard-response","158","276407","0.0-9.0-0.70","61158a5c1d8390415ff117a8","64afc2c9a8732ea92db0087d","64aff828885b0281b5daa9b7","null","null","<p style=""font-size: 60px; font-family: BACS"">EYtYROBT</p>","","","","","","","",""
"html-keyboard-response","159","278398","0.0-9.0-0.71","61158a5c1d8390415ff117a8","64afc2c9a8732ea92db0087d","64aff828885b0281b5daa9b7","null","null","<p style=""font-size: 60px; font-family: BACS"">EMYKmhc</p>","","","","","","","",""
"html-keyboard-response","160","279409","0.0-9.0-0.72","61158a5c1d8390415ff117a8","64afc2c9a8732ea92db0087d","64aff828885b0281b5daa9b7","null","null","<p style=""font-size: 60px; font-family: BACS"">ObZbAuvJ</p>","","","","","","","",""
"html-keyboard-response","161","281396","0.0-9.0-0.73","61158a5c1d8390415ff117a8","64afc2c9a8732ea92db0087d","64aff828885b0281b5daa9b7","null","null","<p style=""font-size: 60px; font-family: BACS"">LuNZbadk</p>","","","","","","","",""
"html-keyboard-response","162","282404","0.0-9.0-0.74","61158a5c1d8390415ff117a8","64afc2c9a8732ea92db0087d","64aff828885b0281b5daa9b7","null","null","<p style=""font-size: 60px; font-family: BACS"">YJLcALcO</p>","","","","","","","",""
"html-keyboard-response","163","284405","0.0-9.0-0.75","61158a5c1d8390415ff117a8","64afc2c9a8732ea92db0087d","64aff828885b0281b5daa9b7","null","null","<p style=""font-size: 60px; font-family: BACS"">EMYKdTAh</p>","","","","","","","",""
"html-keyboard-response","164","286409","0.0-9.0-0.76","61158a5c1d8390415ff117a8","64afc2c9a8732ea92db0087d","64aff828885b0281b5daa9b7","null","null","<p style=""font-size: 60px; font-family: BACS"">dOYmlOtM</p>","","","","","","","",""
"html-keyboard-response","165","288401","0.0-9.0-0.77","61158a5c1d8390415ff117a8","64afc2c9a8732ea92db0087d","64aff828885b0281b5daa9b7","null","null","<p style=""font-size: 60px; font-family: BACS"">EYtYRhEct</p>","","","","","","","",""
"html-keyboard-response","166","290407","0.0-9.0-0.78","61158a5c1d8390415ff117a8","64afc2c9a8732ea92db0087d","64aff828885b0281b5daa9b7","null","null","<p style=""font-size: 60px; font-family: BACS"">YJLcAuvJ</p>","","","","","","","",""
"html-keyboard-response","167","292397","0.0-9.0-0.79","61158a5c1d8390415ff117a8","64afc2c9a8732ea92db0087d","64aff828885b0281b5daa9b7","null","null","<p style=""font-size: 60px; font-family: BACS"">KdARmhc</p>","","","","","","","",""
"html-keyboard-response","168","296634","0.0-10.0","61158a5c1d8390415ff117a8","64afc2c9a8732ea92db0087d","64aff828885b0281b5daa9b7","4237"," ","<p>Ottimo, hai visto il secondo blocco di parole. Ora puoi prenderti una piccola pausa.</p>
      <p>Premi la barra quando sei pronta/o per riprendere.</p>","","","","","","","",""
"html-keyboard-response","169","297644","0.0-11.0-0.0","61158a5c1d8390415ff117a8","64afc2c9a8732ea92db0087d","64aff828885b0281b5daa9b7","null","null","<p style=""font-size: 60px; font-family: BACS"">KdARhEct</p>","","","","","","","",""
"html-keyboard-response","170","298653","0.0-11.0-0.1","61158a5c1d8390415ff117a8","64afc2c9a8732ea92db0087d","64aff828885b0281b5daa9b7","null","null","<p style=""font-size: 60px; font-family: BACS"">ukYZcUN</p>","","","","","","","",""
"html-keyboard-response","171","299669","0.0-11.0-0.2","61158a5c1d8390415ff117a8","64afc2c9a8732ea92db0087d","64aff828885b0281b5daa9b7","null","null","<p style=""font-size: 60px; font-family: BACS"">amJmYmb</p>","","","","","","","",""
"html-keyboard-response","172","300673","0.0-11.0-0.3","61158a5c1d8390415ff117a8","64afc2c9a8732ea92db0087d","64aff828885b0281b5daa9b7","null","null","<p style=""font-size: 60px; font-family: BACS"">btlckOBT</p>","","","","","","","",""
"html-keyboard-response","173","301703","0.0-11.0-0.4","61158a5c1d8390415ff117a8","64afc2c9a8732ea92db0087d","64aff828885b0281b5daa9b7","null","null","<p style=""font-size: 60px; font-family: BACS"">lRCBhEct</p>","","","","","","","",""
"html-keyboard-response","174","302726","0.0-11.0-0.5","61158a5c1d8390415ff117a8","64afc2c9a8732ea92db0087d","64aff828885b0281b5daa9b7","null","null","<p style=""font-size: 60px; font-family: BACS"">LuNZbadk</p>","","","","","","","",""
"html-keyboard-response","175","303757","0.0-11.0-0.6","61158a5c1d8390415ff117a8","64afc2c9a8732ea92db0087d","64aff828885b0281b5daa9b7","null","null","<p style=""font-size: 60px; font-family: BACS"">uQkrduvJ</p>","","","","","","","",""
"html-keyboard-response","176","304765","0.0-11.0-0.7","61158a5c1d8390415ff117a8","64afc2c9a8732ea92db0087d","64aff828885b0281b5daa9b7","null","null","<p style=""font-size: 60px; font-family: BACS"">YJLcAcUN</p>","","","","","","","",""
"html-keyboard-response","177","305798","0.0-11.0-0.8","61158a5c1d8390415ff117a8","64afc2c9a8732ea92db0087d","64aff828885b0281b5daa9b7","null","null","<p style=""font-size: 60px; font-family: BACS"">btlckdTAh</p>","","","","","","","",""
"html-keyboard-response","178","306805","0.0-11.0-0.9","61158a5c1d8390415ff117a8","64afc2c9a8732ea92db0087d","64aff828885b0281b5daa9b7","null","null","<p style=""font-size: 60px; font-family: BACS"">lBlEOBT</p>","","","","","","","",""
"html-keyboard-response","179","307834","0.0-11.0-0.10","61158a5c1d8390415ff117a8","64afc2c9a8732ea92db0087d","64aff828885b0281b5daa9b7","null","null","<p style=""font-size: 60px; font-family: BACS"">BECkhEct</p>","","","","","","","",""
"html-keyboard-response","180","308852","0.0-11.0-0.11","61158a5c1d8390415ff117a8","64afc2c9a8732ea92db0087d","64aff828885b0281b5daa9b7","null","null","<p style=""font-size: 60px; font-family: BACS"">vblrcUN</p>","","","","","","","",""
"html-keyboard-response","181","309873","0.0-11.0-0.12","61158a5c1d8390415ff117a8","64afc2c9a8732ea92db0087d","64aff828885b0281b5daa9b7","null","null","<p style=""font-size: 60px; font-family: BACS"">EYtYRdTAh</p>","","","","","","","",""
"html-keyboard-response","182","310896","0.0-11.0-0.13","61158a5c1d8390415ff117a8","64afc2c9a8732ea92db0087d","64aff828885b0281b5daa9b7","null","null","<p style=""font-size: 60px; font-family: BACS"">udkmLcO</p>","","","","","","","",""
"html-keyboard-response","183","311916","0.0-11.0-0.14","61158a5c1d8390415ff117a8","64afc2c9a8732ea92db0087d","64aff828885b0281b5daa9b7","null","null","<p style=""font-size: 60px; font-family: BACS"">btlckOtM</p>","","","","","","","",""
"html-keyboard-response","184","312933","0.0-11.0-0.15","61158a5c1d8390415ff117a8","64afc2c9a8732ea92db0087d","64aff828885b0281b5daa9b7","null","null","<p style=""font-size: 60px; font-family: BACS"">LuNZLcO</p>","","","","","","","",""
"html-keyboard-response","185","313955","0.0-11.0-0.16","61158a5c1d8390415ff117a8","64afc2c9a8732ea92db0087d","64aff828885b0281b5daa9b7","null","null","<p style=""font-size: 60px; font-family: BACS"">EYtYROBT</p>","","","","","","","",""
"html-keyboard-response","186","314964","0.0-11.0-0.17","61158a5c1d8390415ff117a8","64afc2c9a8732ea92db0087d","64aff828885b0281b5daa9b7","null","null","<p style=""font-size: 60px; font-family: BACS"">PDPhlmhc</p>","","","","","","","",""
"html-keyboard-response","187","315996","0.0-11.0-0.18","61158a5c1d8390415ff117a8","64afc2c9a8732ea92db0087d","64aff828885b0281b5daa9b7","null","null","<p style=""font-size: 60px; font-family: BACS"">dOYmlhEct</p>","","","","","","","",""
"html-keyboard-response","188","317017","0.0-11.0-0.19","61158a5c1d8390415ff117a8","64afc2c9a8732ea92db0087d","64aff828885b0281b5daa9b7","null","null","<p style=""font-size: 60px; font-family: BACS"">uQkrdYmb</p>","","","","","","","",""
"html-keyboard-response","189","318031","0.0-11.0-0.20","61158a5c1d8390415ff117a8","64afc2c9a8732ea92db0087d","64aff828885b0281b5daa9b7","null","null","<p style=""font-size: 60px; font-family: BACS"">lRCBdTAh</p>","","","","","","","",""
"html-keyboard-response","190","319053","0.0-11.0-0.21","61158a5c1d8390415ff117a8","64afc2c9a8732ea92db0087d","64aff828885b0281b5daa9b7","null","null","<p style=""font-size: 60px; font-family: BACS"">amJmuvJ</p>","","","","","","","",""
"html-keyboard-response","191","320069","0.0-11.0-0.22","61158a5c1d8390415ff117a8","64afc2c9a8732ea92db0087d","64aff828885b0281b5daa9b7","null","null","<p style=""font-size: 60px; font-family: BACS"">AlQaQYmb</p>","","","","","","","",""
"html-keyboard-response","192","321093","0.0-11.0-0.23","61158a5c1d8390415ff117a8","64afc2c9a8732ea92db0087d","64aff828885b0281b5daa9b7","null","null","<p style=""font-size: 60px; font-family: BACS"">BECkOtM</p>","","","","","","","",""
"html-keyboard-response","193","322110","0.0-11.0-0.24","61158a5c1d8390415ff117a8","64afc2c9a8732ea92db0087d","64aff828885b0281b5daa9b7","null","null","<p style=""font-size: 60px; font-family: BACS"">EYtYRhEct</p>","","","","","","","",""
"html-keyboard-response","194","323133","0.0-11.0-0.25","61158a5c1d8390415ff117a8","64afc2c9a8732ea92db0087d","64aff828885b0281b5daa9b7","null","null","<p style=""font-size: 60px; font-family: BACS"">lRCBmhc</p>","","","","","","","",""
"html-keyboard-response","195","324147","0.0-11.0-0.26","61158a5c1d8390415ff117a8","64afc2c9a8732ea92db0087d","64aff828885b0281b5daa9b7","null","null","<p style=""font-size: 60px; font-family: BACS"">ObZbAbadk</p>","","","","","","","",""
"html-keyboard-response","196","325172","0.0-11.0-0.27","61158a5c1d8390415ff117a8","64afc2c9a8732ea92db0087d","64aff828885b0281b5daa9b7","null","null","<p style=""font-size: 60px; font-family: BACS"">BECkdTAh</p>","","","","","","","",""
"html-keyboard-response","197","326186","0.0-11.0-0.28","61158a5c1d8390415ff117a8","64afc2c9a8732ea92db0087d","64aff828885b0281b5daa9b7","null","null","<p style=""font-size: 60px; font-family: BACS"">lRCBOtM</p>","","","","","","","",""
"html-keyboard-response","198","327218","0.0-11.0-0.29","61158a5c1d8390415ff117a8","64afc2c9a8732ea92db0087d","64aff828885b0281b5daa9b7","null","null","<p style=""font-size: 60px; font-family: BACS"">vblrLcO</p>","","","","","","","",""
"html-keyboard-response","199","328235","0.0-11.0-0.30","61158a5c1d8390415ff117a8","64afc2c9a8732ea92db0087d","64aff828885b0281b5daa9b7","null","null","<p style=""font-size: 60px; font-family: BACS"">dNZAuvJ</p>","","","","","","","",""
"html-keyboard-response","200","329256","0.0-11.0-0.31","61158a5c1d8390415ff117a8","64afc2c9a8732ea92db0087d","64aff828885b0281b5daa9b7","null","null","<p style=""font-size: 60px; font-family: BACS"">EMYKdTAh</p>","","","","","","","",""
"html-keyboard-response","201","330275","0.0-11.0-0.32","61158a5c1d8390415ff117a8","64afc2c9a8732ea92db0087d","64aff828885b0281b5daa9b7","null","null","<p style=""font-size: 60px; font-family: BACS"">udkmbadk</p>","","","","","","","",""
"html-keyboard-response","202","331299","0.0-11.0-0.33","61158a5c1d8390415ff117a8","64afc2c9a8732ea92db0087d","64aff828885b0281b5daa9b7","null","null","<p style=""font-size: 60px; font-family: BACS"">ukYZLcO</p>","","","","","","","",""
"html-keyboard-response","203","332410","0.0-11.0-0.34","61158a5c1d8390415ff117a8","64afc2c9a8732ea92db0087d","64aff828885b0281b5daa9b7","null","null","<p style=""font-size: 60px; font-family: BACS"">vblrYmb</p>","","","","","","","",""
"html-keyboard-response","204","334398","0.0-11.0-0.35","61158a5c1d8390415ff117a8","64afc2c9a8732ea92db0087d","64aff828885b0281b5daa9b7","null","null","<p style=""font-size: 60px; font-family: BACS"">YJLcALcO</p>","","","","","","","",""
"html-keyboard-response","205","336404","0.0-11.0-0.36","61158a5c1d8390415ff117a8","64afc2c9a8732ea92db0087d","64aff828885b0281b5daa9b7","null","null","<p style=""font-size: 60px; font-family: BACS"">BECkmhc</p>","","","","","","","",""
"html-keyboard-response","206","338394","0.0-11.0-0.37","61158a5c1d8390415ff117a8","64afc2c9a8732ea92db0087d","64aff828885b0281b5daa9b7","null","null","<p style=""font-size: 60px; font-family: BACS"">dNZAYmb</p>","","","","","","","",""
"html-keyboard-response","207","339405","0.0-11.0-0.38","61158a5c1d8390415ff117a8","64afc2c9a8732ea92db0087d","64aff828885b0281b5daa9b7","null","null","<p style=""font-size: 60px; font-family: BACS"">lBlEhEct</p>","","","","","","","",""
"html-keyboard-response","208","340410","0.0-11.0-0.39","61158a5c1d8390415ff117a8","64afc2c9a8732ea92db0087d","64aff828885b0281b5daa9b7","null","null","<p style=""font-size: 60px; font-family: BACS"">ObZbALcO</p>","","","","","","","",""
"html-keyboard-response","209","342401","0.0-11.0-0.40","61158a5c1d8390415ff117a8","64afc2c9a8732ea92db0087d","64aff828885b0281b5daa9b7","null","null","<p style=""font-size: 60px; font-family: BACS"">hYDmtOBT</p>","","","","","","","",""
"html-keyboard-response","210","344405","0.0-11.0-0.41","61158a5c1d8390415ff117a8","64afc2c9a8732ea92db0087d","64aff828885b0281b5daa9b7","null","null","<p style=""font-size: 60px; font-family: BACS"">vblruvJ</p>","","","","","","","",""
"html-keyboard-response","211","346395","0.0-11.0-0.42","61158a5c1d8390415ff117a8","64afc2c9a8732ea92db0087d","64aff828885b0281b5daa9b7","null","null","<p style=""font-size: 60px; font-family: BACS"">udkmcUN</p>","","","","","","","",""
"html-keyboard-response","212","347412","0.0-11.0-0.43","61158a5c1d8390415ff117a8","64afc2c9a8732ea92db0087d","64aff828885b0281b5daa9b7","null","null","<p style=""font-size: 60px; font-family: BACS"">PDPhlOtM</p>","","","","","","","",""
"html-keyboard-response","213","349399","0.0-11.0-0.44","61158a5c1d8390415ff117a8","64afc2c9a8732ea92db0087d","64aff828885b0281b5daa9b7","null","null","<p style=""font-size: 60px; font-family: BACS"">ObZbAuvJ</p>","","","","","","","",""
"html-keyboard-response","214","350409","0.0-11.0-0.45","61158a5c1d8390415ff117a8","64afc2c9a8732ea92db0087d","64aff828885b0281b5daa9b7","null","null","<p style=""font-size: 60px; font-family: BACS"">KdAROtM</p>","","","","","","","",""
"html-keyboard-response","215","352396","0.0-11.0-0.46","61158a5c1d8390415ff117a8","64afc2c9a8732ea92db0087d","64aff828885b0281b5daa9b7","null","null","<p style=""font-size: 60px; font-family: BACS"">YJLcAuvJ</p>","","","","","","","",""
"html-keyboard-response","216","354402","0.0-11.0-0.47","61158a5c1d8390415ff117a8","64afc2c9a8732ea92db0087d","64aff828885b0281b5daa9b7","null","null","<p style=""font-size: 60px; font-family: BACS"">EMYKOBT</p>","","","","","","","",""
"html-keyboard-response","217","356392","0.0-11.0-0.48","61158a5c1d8390415ff117a8","64afc2c9a8732ea92db0087d","64aff828885b0281b5daa9b7","null","null","<p style=""font-size: 60px; font-family: BACS"">hYDmtdTAh</p>","","","","","","","",""
"html-keyboard-response","218","357412","0.0-11.0-0.49","61158a5c1d8390415ff117a8","64afc2c9a8732ea92db0087d","64aff828885b0281b5daa9b7","null","null","<p style=""font-size: 60px; font-family: BACS"">KdAROBT</p>","","","","","","","",""
"html-keyboard-response","219","359400","0.0-11.0-0.50","61158a5c1d8390415ff117a8","64afc2c9a8732ea92db0087d","64aff828885b0281b5daa9b7","null","null","<p style=""font-size: 60px; font-family: BACS"">LuNZcUN</p>","","","","","","","",""
"html-keyboard-response","220","360410","0.0-11.0-0.51","61158a5c1d8390415ff117a8","64afc2c9a8732ea92db0087d","64aff828885b0281b5daa9b7","null","null","<p style=""font-size: 60px; font-family: BACS"">EMYKhEct</p>","","","","","","","",""
"html-keyboard-response","221","362395","0.0-11.0-0.52","61158a5c1d8390415ff117a8","64afc2c9a8732ea92db0087d","64aff828885b0281b5daa9b7","null","null","<p style=""font-size: 60px; font-family: BACS"">EYtYRmhc</p>","","","","","","","",""
"html-keyboard-response","222","364402","0.0-11.0-0.53","61158a5c1d8390415ff117a8","64afc2c9a8732ea92db0087d","64aff828885b0281b5daa9b7","null","null","<p style=""font-size: 60px; font-family: BACS"">YJLcAbadk</p>","","","","","","","",""
"html-keyboard-response","223","366393","0.0-11.0-0.54","61158a5c1d8390415ff117a8","64afc2c9a8732ea92db0087d","64aff828885b0281b5daa9b7","null","null","<p style=""font-size: 60px; font-family: BACS"">amJmLcO</p>","","","","","","","",""
"html-keyboard-response","224","368396","0.0-11.0-0.55","61158a5c1d8390415ff117a8","64afc2c9a8732ea92db0087d","64aff828885b0281b5daa9b7","null","null","<p style=""font-size: 60px; font-family: BACS"">hYDmtOtM</p>","","","","","","","",""
"html-keyboard-response","225","370399","0.0-11.0-0.56","61158a5c1d8390415ff117a8","64afc2c9a8732ea92db0087d","64aff828885b0281b5daa9b7","null","null","<p style=""font-size: 60px; font-family: BACS"">uQkrdcUN</p>","","","","","","","",""
"html-keyboard-response","226","372391","0.0-11.0-0.57","61158a5c1d8390415ff117a8","64afc2c9a8732ea92db0087d","64aff828885b0281b5daa9b7","null","null","<p style=""font-size: 60px; font-family: BACS"">btlckmhc</p>","","","","","","","",""
"html-keyboard-response","227","373397","0.0-11.0-0.58","61158a5c1d8390415ff117a8","64afc2c9a8732ea92db0087d","64aff828885b0281b5daa9b7","null","null","<p style=""font-size: 60px; font-family: BACS"">AlQaQuvJ</p>","","","","","","","",""
"html-keyboard-response","228","374403","0.0-11.0-0.59","61158a5c1d8390415ff117a8","64afc2c9a8732ea92db0087d","64aff828885b0281b5daa9b7","null","null","<p style=""font-size: 60px; font-family: BACS"">dNZAcUN</p>","","","","","","","",""
"html-keyboard-response","229","376392","0.0-11.0-0.60","61158a5c1d8390415ff117a8","64afc2c9a8732ea92db0087d","64aff828885b0281b5daa9b7","null","null","<p style=""font-size: 60px; font-family: BACS"">udkmYmb</p>","","","","","","","",""
"html-keyboard-response","230","378398","0.0-11.0-0.61","61158a5c1d8390415ff117a8","64afc2c9a8732ea92db0087d","64aff828885b0281b5daa9b7","null","null","<p style=""font-size: 60px; font-family: BACS"">AlQaQLcO</p>","","","","","","","",""
"html-keyboard-response","231","380406","0.0-11.0-0.62","61158a5c1d8390415ff117a8","64afc2c9a8732ea92db0087d","64aff828885b0281b5daa9b7","null","null","<p style=""font-size: 60px; font-family: BACS"">dOYmlOtM</p>","","","","","","","",""
"html-keyboard-response","232","382395","0.0-11.0-0.63","61158a5c1d8390415ff117a8","64afc2c9a8732ea92db0087d","64aff828885b0281b5daa9b7","null","null","<p style=""font-size: 60px; font-family: BACS"">KdARmhc</p>","","","","","","","",""
"html-keyboard-response","233","384404","0.0-11.0-0.64","61158a5c1d8390415ff117a8","64afc2c9a8732ea92db0087d","64aff828885b0281b5daa9b7","null","null","<p style=""font-size: 60px; font-family: BACS"">dNZAbadk</p>","","","","","","","",""
"html-keyboard-response","234","386395","0.0-11.0-0.65","61158a5c1d8390415ff117a8","64afc2c9a8732ea92db0087d","64aff828885b0281b5daa9b7","null","null","<p style=""font-size: 60px; font-family: BACS"">PDPhlOBT</p>","","","","","","","",""
"html-keyboard-response","235","387405","0.0-11.0-0.66","61158a5c1d8390415ff117a8","64afc2c9a8732ea92db0087d","64aff828885b0281b5daa9b7","null","null","<p style=""font-size: 60px; font-family: BACS"">LuNZuvJ</p>","","","","","","","",""
"html-keyboard-response","236","389407","0.0-11.0-0.67","61158a5c1d8390415ff117a8","64afc2c9a8732ea92db0087d","64aff828885b0281b5daa9b7","null","null","<p style=""font-size: 60px; font-family: BACS"">lBlEdTAh</p>","","","","","","","",""
"html-keyboard-response","237","391398","0.0-11.0-0.68","61158a5c1d8390415ff117a8","64afc2c9a8732ea92db0087d","64aff828885b0281b5daa9b7","null","null","<p style=""font-size: 60px; font-family: BACS"">ukYZbadk</p>","","","","","","","",""
"html-keyboard-response","238","392407","0.0-11.0-0.69","61158a5c1d8390415ff117a8","64afc2c9a8732ea92db0087d","64aff828885b0281b5daa9b7","null","null","<p style=""font-size: 60px; font-family: BACS"">lBlEOtM</p>","","","","","","","",""
"html-keyboard-response","239","394394","0.0-11.0-0.70","61158a5c1d8390415ff117a8","64afc2c9a8732ea92db0087d","64aff828885b0281b5daa9b7","null","null","<p style=""font-size: 60px; font-family: BACS"">uQkrdbadk</p>","","","","","","","",""
"html-keyboard-response","240","396400","0.0-11.0-0.71","61158a5c1d8390415ff117a8","64afc2c9a8732ea92db0087d","64aff828885b0281b5daa9b7","null","null","<p style=""font-size: 60px; font-family: BACS"">amJmcUN</p>","","","","","","","",""
"html-keyboard-response","241","398393","0.0-11.0-0.72","61158a5c1d8390415ff117a8","64afc2c9a8732ea92db0087d","64aff828885b0281b5daa9b7","null","null","<p style=""font-size: 60px; font-family: BACS"">ukYZYmb</p>","","","","","","","",""
"html-keyboard-response","242","399406","0.0-11.0-0.73","61158a5c1d8390415ff117a8","64afc2c9a8732ea92db0087d","64aff828885b0281b5daa9b7","null","null","<p style=""font-size: 60px; font-family: BACS"">hYDmtmhc</p>","","","","","","","",""
"html-keyboard-response","243","401394","0.0-11.0-0.74","61158a5c1d8390415ff117a8","64afc2c9a8732ea92db0087d","64aff828885b0281b5daa9b7","null","null","<p style=""font-size: 60px; font-family: BACS"">dOYmldTAh</p>","","","","","","","",""
"html-keyboard-response","244","402406","0.0-11.0-0.75","61158a5c1d8390415ff117a8","64afc2c9a8732ea92db0087d","64aff828885b0281b5daa9b7","null","null","<p style=""font-size: 60px; font-family: BACS"">AlQaQbadk</p>","","","","","","","",""
"html-keyboard-response","245","404407","0.0-11.0-0.76","61158a5c1d8390415ff117a8","64afc2c9a8732ea92db0087d","64aff828885b0281b5daa9b7","null","null","<p style=""font-size: 60px; font-family: BACS"">dOYmlOBT</p>","","","","","","","",""
"html-keyboard-response","246","406396","0.0-11.0-0.77","61158a5c1d8390415ff117a8","64afc2c9a8732ea92db0087d","64aff828885b0281b5daa9b7","null","null","<p style=""font-size: 60px; font-family: BACS"">PDPhlhEct</p>","","","","","","","",""
"html-keyboard-response","247","408402","0.0-11.0-0.78","61158a5c1d8390415ff117a8","64afc2c9a8732ea92db0087d","64aff828885b0281b5daa9b7","null","null","<p style=""font-size: 60px; font-family: BACS"">ObZbAYmb</p>","","","","","","","",""
"html-keyboard-response","248","410394","0.0-11.0-0.79","61158a5c1d8390415ff117a8","64afc2c9a8732ea92db0087d","64aff828885b0281b5daa9b7","null","null","<p style=""font-size: 60px; font-family: BACS"">EMYKmhc</p>","","","","","","","",""
"html-keyboard-response","249","413670","0.0-12.0","61158a5c1d8390415ff117a8","64afc2c9a8732ea92db0087d","64aff828885b0281b5daa9b7","3275"," ","<p>Ottimo, hai visto il terzo blocco di parole. Ora puoi prenderti una piccola pausa.</p>
      <p>Premi la barra quando sei pronta/o per riprendere.</p>","","","","","","","",""
"html-keyboard-response","250","414672","0.0-13.0-0.0","61158a5c1d8390415ff117a8","64afc2c9a8732ea92db0087d","64aff828885b0281b5daa9b7","null","null","<p style=""font-size: 60px; font-family: BACS"">lRCBdTAh</p>","","","","","","","",""
"html-keyboard-response","251","415689","0.0-13.0-0.1","61158a5c1d8390415ff117a8","64afc2c9a8732ea92db0087d","64aff828885b0281b5daa9b7","null","null","<p style=""font-size: 60px; font-family: BACS"">ObZbAuvJ</p>","","","","","","","",""
"html-keyboard-response","252","416694","0.0-13.0-0.2","61158a5c1d8390415ff117a8","64afc2c9a8732ea92db0087d","64aff828885b0281b5daa9b7","null","null","<p style=""font-size: 60px; font-family: BACS"">EYtYRmhc</p>","","","","","","","",""
"html-keyboard-response","253","417711","0.0-13.0-0.3","61158a5c1d8390415ff117a8","64afc2c9a8732ea92db0087d","64aff828885b0281b5daa9b7","null","null","<p style=""font-size: 60px; font-family: BACS"">dOYmldTAh</p>","","","","","","","",""
"html-keyboard-response","254","418734","0.0-13.0-0.4","61158a5c1d8390415ff117a8","64afc2c9a8732ea92db0087d","64aff828885b0281b5daa9b7","null","null","<p style=""font-size: 60px; font-family: BACS"">vblruvJ</p>","","","","","","","",""
"html-keyboard-response","255","419764","0.0-13.0-0.5","61158a5c1d8390415ff117a8","64afc2c9a8732ea92db0087d","64aff828885b0281b5daa9b7","null","null","<p style=""font-size: 60px; font-family: BACS"">PDPhlhEct</p>","","","","","","","",""
"html-keyboard-response","256","420786","0.0-13.0-0.6","61158a5c1d8390415ff117a8","64afc2c9a8732ea92db0087d","64aff828885b0281b5daa9b7","null","null","<p style=""font-size: 60px; font-family: BACS"">KdAROtM</p>","","","","","","","",""
"html-keyboard-response","257","421806","0.0-13.0-0.7","61158a5c1d8390415ff117a8","64afc2c9a8732ea92db0087d","64aff828885b0281b5daa9b7","null","null","<p style=""font-size: 60px; font-family: BACS"">ObZbAYmb</p>","","","","","","","",""
"html-keyboard-response","258","422816","0.0-13.0-0.8","61158a5c1d8390415ff117a8","64afc2c9a8732ea92db0087d","64aff828885b0281b5daa9b7","null","null","<p style=""font-size: 60px; font-family: BACS"">uQkrdbadk</p>","","","","","","","",""
"html-keyboard-response","259","423845","0.0-13.0-0.9","61158a5c1d8390415ff117a8","64afc2c9a8732ea92db0087d","64aff828885b0281b5daa9b7","null","null","<p style=""font-size: 60px; font-family: BACS"">hYDmtmhc</p>","","","","","","","",""
"html-keyboard-response","260","424868","0.0-13.0-0.10","61158a5c1d8390415ff117a8","64afc2c9a8732ea92db0087d","64aff828885b0281b5daa9b7","null","null","<p style=""font-size: 60px; font-family: BACS"">uQkrdcUN</p>","","","","","","","",""
"html-keyboard-response","261","425884","0.0-13.0-0.11","61158a5c1d8390415ff117a8","64afc2c9a8732ea92db0087d","64aff828885b0281b5daa9b7","null","null","<p style=""font-size: 60px; font-family: BACS"">LuNZbadk</p>","","","","","","","",""
"html-keyboard-response","262","426906","0.0-13.0-0.12","61158a5c1d8390415ff117a8","64afc2c9a8732ea92db0087d","64aff828885b0281b5daa9b7","null","null","<p style=""font-size: 60px; font-family: BACS"">BECkhEct</p>","","","","","","","",""
"html-keyboard-response","263","427921","0.0-13.0-0.13","61158a5c1d8390415ff117a8","64afc2c9a8732ea92db0087d","64aff828885b0281b5daa9b7","null","null","<p style=""font-size: 60px; font-family: BACS"">ukYZLcO</p>","","","","","","","",""
"html-keyboard-response","264","428938","0.0-13.0-0.14","61158a5c1d8390415ff117a8","64afc2c9a8732ea92db0087d","64aff828885b0281b5daa9b7","null","null","<p style=""font-size: 60px; font-family: BACS"">udkmcUN</p>","","","","","","","",""
"html-keyboard-response","265","429957","0.0-13.0-0.15","61158a5c1d8390415ff117a8","64afc2c9a8732ea92db0087d","64aff828885b0281b5daa9b7","null","null","<p style=""font-size: 60px; font-family: BACS"">EYtYROBT</p>","","","","","","","",""
"html-keyboard-response","266","430980","0.0-13.0-0.16","61158a5c1d8390415ff117a8","64afc2c9a8732ea92db0087d","64aff828885b0281b5daa9b7","null","null","<p style=""font-size: 60px; font-family: BACS"">uQkrdYmb</p>","","","","","","","",""
"html-keyboard-response","267","431993","0.0-13.0-0.17","61158a5c1d8390415ff117a8","64afc2c9a8732ea92db0087d","64aff828885b0281b5daa9b7","null","null","<p style=""font-size: 60px; font-family: BACS"">hYDmtOtM</p>","","","","","","","",""
"html-keyboard-response","268","433015","0.0-13.0-0.18","61158a5c1d8390415ff117a8","64afc2c9a8732ea92db0087d","64aff828885b0281b5daa9b7","null","null","<p style=""font-size: 60px; font-family: BACS"">KdARmhc</p>","","","","","","","",""
"html-keyboard-response","269","434034","0.0-13.0-0.19","61158a5c1d8390415ff117a8","64afc2c9a8732ea92db0087d","64aff828885b0281b5daa9b7","null","null","<p style=""font-size: 60px; font-family: BACS"">udkmLcO</p>","","","","","","","",""
"html-keyboard-response","270","435056","0.0-13.0-0.20","61158a5c1d8390415ff117a8","64afc2c9a8732ea92db0087d","64aff828885b0281b5daa9b7","null","null","<p style=""font-size: 60px; font-family: BACS"">AlQaQYmb</p>","","","","","","","",""
"html-keyboard-response","271","436088","0.0-13.0-0.21","61158a5c1d8390415ff117a8","64afc2c9a8732ea92db0087d","64aff828885b0281b5daa9b7","null","null","<p style=""font-size: 60px; font-family: BACS"">hYDmtdTAh</p>","","","","","","","",""
"html-keyboard-response","272","437095","0.0-13.0-0.22","61158a5c1d8390415ff117a8","64afc2c9a8732ea92db0087d","64aff828885b0281b5daa9b7","null","null","<p style=""font-size: 60px; font-family: BACS"">YJLcAbadk</p>","","","","","","","",""
"html-keyboard-response","273","438126","0.0-13.0-0.23","61158a5c1d8390415ff117a8","64afc2c9a8732ea92db0087d","64aff828885b0281b5daa9b7","null","null","<p style=""font-size: 60px; font-family: BACS"">btlckOtM</p>","","","","","","","",""
"html-keyboard-response","274","439132","0.0-13.0-0.24","61158a5c1d8390415ff117a8","64afc2c9a8732ea92db0087d","64aff828885b0281b5daa9b7","null","null","<p style=""font-size: 60px; font-family: BACS"">LuNZcUN</p>","","","","","","","",""
"html-keyboard-response","275","440163","0.0-13.0-0.25","61158a5c1d8390415ff117a8","64afc2c9a8732ea92db0087d","64aff828885b0281b5daa9b7","null","null","<p style=""font-size: 60px; font-family: BACS"">hYDmtOBT</p>","","","","","","","",""
"html-keyboard-response","276","441186","0.0-13.0-0.26","61158a5c1d8390415ff117a8","64afc2c9a8732ea92db0087d","64aff828885b0281b5daa9b7","null","null","<p style=""font-size: 60px; font-family: BACS"">amJmuvJ</p>","","","","","","","",""
"html-keyboard-response","277","442203","0.0-13.0-0.27","61158a5c1d8390415ff117a8","64afc2c9a8732ea92db0087d","64aff828885b0281b5daa9b7","null","null","<p style=""font-size: 60px; font-family: BACS"">YJLcALcO</p>","","","","","","","",""
"html-keyboard-response","278","443226","0.0-13.0-0.28","61158a5c1d8390415ff117a8","64afc2c9a8732ea92db0087d","64aff828885b0281b5daa9b7","null","null","<p style=""font-size: 60px; font-family: BACS"">LuNZuvJ</p>","","","","","","","",""
"html-keyboard-response","279","444241","0.0-13.0-0.29","61158a5c1d8390415ff117a8","64afc2c9a8732ea92db0087d","64aff828885b0281b5daa9b7","null","null","<p style=""font-size: 60px; font-family: BACS"">ObZbALcO</p>","","","","","","","",""
"html-keyboard-response","280","445265","0.0-13.0-0.30","61158a5c1d8390415ff117a8","64afc2c9a8732ea92db0087d","64aff828885b0281b5daa9b7","null","null","<p style=""font-size: 60px; font-family: BACS"">btlckOBT</p>","","","","","","","",""
"html-keyboard-response","281","446280","0.0-13.0-0.31","61158a5c1d8390415ff117a8","64afc2c9a8732ea92db0087d","64aff828885b0281b5daa9b7","null","null","<p style=""font-size: 60px; font-family: BACS"">lBlEOtM</p>","","","","","","","",""
"html-keyboard-response","282","447296","0.0-13.0-0.32","61158a5c1d8390415ff117a8","64afc2c9a8732ea92db0087d","64aff828885b0281b5daa9b7","null","null","<p style=""font-size: 60px; font-family: BACS"">ukYZYmb</p>","","","","","","","",""
"html-keyboard-response","283","448328","0.0-13.0-0.33","61158a5c1d8390415ff117a8","64afc2c9a8732ea92db0087d","64aff828885b0281b5daa9b7","null","null","<p style=""font-size: 60px; font-family: BACS"">YJLcAuvJ</p>","","","","","","","",""
"html-keyboard-response","284","449409","0.0-13.0-0.34","61158a5c1d8390415ff117a8","64afc2c9a8732ea92db0087d","64aff828885b0281b5daa9b7","null","null","<p style=""font-size: 60px; font-family: BACS"">btlckdTAh</p>","","","","","","","",""
"html-keyboard-response","285","451395","0.0-13.0-0.35","61158a5c1d8390415ff117a8","64afc2c9a8732ea92db0087d","64aff828885b0281b5daa9b7","null","null","<p style=""font-size: 60px; font-family: BACS"">EMYKhEct</p>","","","","","","","",""
"html-keyboard-response","286","452403","0.0-13.0-0.36","61158a5c1d8390415ff117a8","64afc2c9a8732ea92db0087d","64aff828885b0281b5daa9b7","null","null","<p style=""font-size: 60px; font-family: BACS"">udkmYmb</p>","","","","","","","",""
"html-keyboard-response","287","454407","0.0-13.0-0.37","61158a5c1d8390415ff117a8","64afc2c9a8732ea92db0087d","64aff828885b0281b5daa9b7","null","null","<p style=""font-size: 60px; font-family: BACS"">lRCBmhc</p>","","","","","","","",""
"html-keyboard-response","288","456397","0.0-13.0-0.38","61158a5c1d8390415ff117a8","64afc2c9a8732ea92db0087d","64aff828885b0281b5daa9b7","null","null","<p style=""font-size: 60px; font-family: BACS"">dNZAcUN</p>","","","","","","","",""
"html-keyboard-response","289","458404","0.0-13.0-0.39","61158a5c1d8390415ff117a8","64afc2c9a8732ea92db0087d","64aff828885b0281b5daa9b7","null","null","<p style=""font-size: 60px; font-family: BACS"">KdARhEct</p>","","","","","","","",""
"html-keyboard-response","290","459409","0.0-13.0-0.40","61158a5c1d8390415ff117a8","64afc2c9a8732ea92db0087d","64aff828885b0281b5daa9b7","null","null","<p style=""font-size: 60px; font-family: BACS"">ukYZcUN</p>","","","","","","","",""
"html-keyboard-response","291","461397","0.0-13.0-0.41","61158a5c1d8390415ff117a8","64afc2c9a8732ea92db0087d","64aff828885b0281b5daa9b7","null","null","<p style=""font-size: 60px; font-family: BACS"">dNZAuvJ</p>","","","","","","","",""
"html-keyboard-response","292","462405","0.0-13.0-0.42","61158a5c1d8390415ff117a8","64afc2c9a8732ea92db0087d","64aff828885b0281b5daa9b7","null","null","<p style=""font-size: 60px; font-family: BACS"">dOYmlOtM</p>","","","","","","","",""
"html-keyboard-response","293","464395","0.0-13.0-0.43","61158a5c1d8390415ff117a8","64afc2c9a8732ea92db0087d","64aff828885b0281b5daa9b7","null","null","<p style=""font-size: 60px; font-family: BACS"">KdAROBT</p>","","","","","","","",""
"html-keyboard-response","294","466399","0.0-13.0-0.44","61158a5c1d8390415ff117a8","64afc2c9a8732ea92db0087d","64aff828885b0281b5daa9b7","null","null","<p style=""font-size: 60px; font-family: BACS"">lBlEhEct</p>","","","","","","","",""
"html-keyboard-response","295","468405","0.0-13.0-0.45","61158a5c1d8390415ff117a8","64afc2c9a8732ea92db0087d","64aff828885b0281b5daa9b7","null","null","<p style=""font-size: 60px; font-family: BACS"">uQkrduvJ</p>","","","","","","","",""
"html-keyboard-response","296","470396","0.0-13.0-0.46","61158a5c1d8390415ff117a8","64afc2c9a8732ea92db0087d","64aff828885b0281b5daa9b7","null","null","<p style=""font-size: 60px; font-family: BACS"">BECkOtM</p>","","","","","","","",""
"html-keyboard-response","297","472401","0.0-13.0-0.47","61158a5c1d8390415ff117a8","64afc2c9a8732ea92db0087d","64aff828885b0281b5daa9b7","null","null","<p style=""font-size: 60px; font-family: BACS"">EYtYRdTAh</p>","","","","","","","",""
"html-keyboard-response","298","474406","0.0-13.0-0.48","61158a5c1d8390415ff117a8","64afc2c9a8732ea92db0087d","64aff828885b0281b5daa9b7","null","null","<p style=""font-size: 60px; font-family: BACS"">PDPhlOBT</p>","","","","","","","",""
"html-keyboard-response","299","475408","0.0-13.0-0.49","61158a5c1d8390415ff117a8","64afc2c9a8732ea92db0087d","64aff828885b0281b5daa9b7","null","null","<p style=""font-size: 60px; font-family: BACS"">LuNZLcO</p>","","","","","","","",""
"html-keyboard-response","300","477401","0.0-13.0-0.50","61158a5c1d8390415ff117a8","64afc2c9a8732ea92db0087d","64aff828885b0281b5daa9b7","null","null","<p style=""font-size: 60px; font-family: BACS"">ObZbAbadk</p>","","","","","","","",""
"html-keyboard-response","301","478409","0.0-13.0-0.51","61158a5c1d8390415ff117a8","64afc2c9a8732ea92db0087d","64aff828885b0281b5daa9b7","null","null","<p style=""font-size: 60px; font-family: BACS"">amJmYmb</p>","","","","","","","",""
"html-keyboard-response","302","480396","0.0-13.0-0.52","61158a5c1d8390415ff117a8","64afc2c9a8732ea92db0087d","64aff828885b0281b5daa9b7","null","null","<p style=""font-size: 60px; font-family: BACS"">dOYmlOBT</p>","","","","","","","",""
"html-keyboard-response","303","482402","0.0-13.0-0.53","61158a5c1d8390415ff117a8","64afc2c9a8732ea92db0087d","64aff828885b0281b5daa9b7","null","null","<p style=""font-size: 60px; font-family: BACS"">AlQaQuvJ</p>","","","","","","","",""
"html-keyboard-response","304","484408","0.0-13.0-0.54","61158a5c1d8390415ff117a8","64afc2c9a8732ea92db0087d","64aff828885b0281b5daa9b7","null","null","<p style=""font-size: 60px; font-family: BACS"">btlckmhc</p>","","","","","","","",""
"html-keyboard-response","305","486398","0.0-13.0-0.55","61158a5c1d8390415ff117a8","64afc2c9a8732ea92db0087d","64aff828885b0281b5daa9b7","null","null","<p style=""font-size: 60px; font-family: BACS"">lBlEOBT</p>","","","","","","","",""
"html-keyboard-response","306","488405","0.0-13.0-0.56","61158a5c1d8390415ff117a8","64afc2c9a8732ea92db0087d","64aff828885b0281b5daa9b7","null","null","<p style=""font-size: 60px; font-family: BACS"">vblrcUN</p>","","","","","","","",""
"html-keyboard-response","307","490404","0.0-13.0-0.57","61158a5c1d8390415ff117a8","64afc2c9a8732ea92db0087d","64aff828885b0281b5daa9b7","null","null","<p style=""font-size: 60px; font-family: BACS"">EMYKdTAh</p>","","","","","","","",""
"html-keyboard-response","308","492393","0.0-13.0-0.58","61158a5c1d8390415ff117a8","64afc2c9a8732ea92db0087d","64aff828885b0281b5daa9b7","null","null","<p style=""font-size: 60px; font-family: BACS"">amJmcUN</p>","","","","","","","",""
"html-keyboard-response","309","493403","0.0-13.0-0.59","61158a5c1d8390415ff117a8","64afc2c9a8732ea92db0087d","64aff828885b0281b5daa9b7","null","null","<p style=""font-size: 60px; font-family: BACS"">BECkdTAh</p>","","","","","","","",""
"html-keyboard-response","310","494410","0.0-13.0-0.60","61158a5c1d8390415ff117a8","64afc2c9a8732ea92db0087d","64aff828885b0281b5daa9b7","null","null","<p style=""font-size: 60px; font-family: BACS"">ukYZbadk</p>","","","","","","","",""
"html-keyboard-response","311","496396","0.0-13.0-0.61","61158a5c1d8390415ff117a8","64afc2c9a8732ea92db0087d","64aff828885b0281b5daa9b7","null","null","<p style=""font-size: 60px; font-family: BACS"">YJLcAcUN</p>","","","","","","","",""
"html-keyboard-response","312","497400","0.0-13.0-0.62","61158a5c1d8390415ff117a8","64afc2c9a8732ea92db0087d","64aff828885b0281b5daa9b7","null","null","<p style=""font-size: 60px; font-family: BACS"">lBlEdTAh</p>","","","","","","","",""
"html-keyboard-response","313","498410","0.0-13.0-0.63","61158a5c1d8390415ff117a8","64afc2c9a8732ea92db0087d","64aff828885b0281b5daa9b7","null","null","<p style=""font-size: 60px; font-family: BACS"">dOYmlhEct</p>","","","","","","","",""
"html-keyboard-response","314","500396","0.0-13.0-0.64","61158a5c1d8390415ff117a8","64afc2c9a8732ea92db0087d","64aff828885b0281b5daa9b7","null","null","<p style=""font-size: 60px; font-family: BACS"">dNZAbadk</p>","","","","","","","",""
"html-keyboard-response","315","502403","0.0-13.0-0.65","61158a5c1d8390415ff117a8","64afc2c9a8732ea92db0087d","64aff828885b0281b5daa9b7","null","null","<p style=""font-size: 60px; font-family: BACS"">PDPhlmhc</p>","","","","","","","",""
"html-keyboard-response","316","504396","0.0-13.0-0.66","61158a5c1d8390415ff117a8","64afc2c9a8732ea92db0087d","64aff828885b0281b5daa9b7","null","null","<p style=""font-size: 60px; font-family: BACS"">udkmbadk</p>","","","","","","","",""
"html-keyboard-response","317","505400","0.0-13.0-0.67","61158a5c1d8390415ff117a8","64afc2c9a8732ea92db0087d","64aff828885b0281b5daa9b7","null","null","<p style=""font-size: 60px; font-family: BACS"">EYtYRhEct</p>","","","","","","","",""
"html-keyboard-response","318","506410","0.0-13.0-0.68","61158a5c1d8390415ff117a8","64afc2c9a8732ea92db0087d","64aff828885b0281b5daa9b7","null","null","<p style=""font-size: 60px; font-family: BACS"">amJmLcO</p>","","","","","","","",""
"html-keyboard-response","319","508405","0.0-13.0-0.69","61158a5c1d8390415ff117a8","64afc2c9a8732ea92db0087d","64aff828885b0281b5daa9b7","null","null","<p style=""font-size: 60px; font-family: BACS"">EMYKOBT</p>","","","","","","","",""
"html-keyboard-response","320","510394","0.0-13.0-0.70","61158a5c1d8390415ff117a8","64afc2c9a8732ea92db0087d","64aff828885b0281b5daa9b7","null","null","<p style=""font-size: 60px; font-family: BACS"">BECkmhc</p>","","","","","","","",""
"html-keyboard-response","321","512402","0.0-13.0-0.71","61158a5c1d8390415ff117a8","64afc2c9a8732ea92db0087d","64aff828885b0281b5daa9b7","null","null","<p style=""font-size: 60px; font-family: BACS"">vblrLcO</p>","","","","","","","",""
"html-keyboard-response","322","514409","0.0-13.0-0.72","61158a5c1d8390415ff117a8","64afc2c9a8732ea92db0087d","64aff828885b0281b5daa9b7","null","null","<p style=""font-size: 60px; font-family: BACS"">AlQaQbadk</p>","","","","","","","",""
"html-keyboard-response","323","516399","0.0-13.0-0.73","61158a5c1d8390415ff117a8","64afc2c9a8732ea92db0087d","64aff828885b0281b5daa9b7","null","null","<p style=""font-size: 60px; font-family: BACS"">dNZAYmb</p>","","","","","","","",""
"html-keyboard-response","324","518403","0.0-13.0-0.74","61158a5c1d8390415ff117a8","64afc2c9a8732ea92db0087d","64aff828885b0281b5daa9b7","null","null","<p style=""font-size: 60px; font-family: BACS"">EMYKmhc</p>","","","","","","","",""
"html-keyboard-response","325","520410","0.0-13.0-0.75","61158a5c1d8390415ff117a8","64afc2c9a8732ea92db0087d","64aff828885b0281b5daa9b7","null","null","<p style=""font-size: 60px; font-family: BACS"">PDPhlOtM</p>","","","","","","","",""
"html-keyboard-response","326","522399","0.0-13.0-0.76","61158a5c1d8390415ff117a8","64afc2c9a8732ea92db0087d","64aff828885b0281b5daa9b7","null","null","<p style=""font-size: 60px; font-family: BACS"">lRCBhEct</p>","","","","","","","",""
"html-keyboard-response","327","524406","0.0-13.0-0.77","61158a5c1d8390415ff117a8","64afc2c9a8732ea92db0087d","64aff828885b0281b5daa9b7","null","null","<p style=""font-size: 60px; font-family: BACS"">vblrYmb</p>","","","","","","","",""
"html-keyboard-response","328","526405","0.0-13.0-0.78","61158a5c1d8390415ff117a8","64afc2c9a8732ea92db0087d","64aff828885b0281b5daa9b7","null","null","<p style=""font-size: 60px; font-family: BACS"">AlQaQLcO</p>","","","","","","","",""
"html-keyboard-response","329","528394","0.0-13.0-0.79","61158a5c1d8390415ff117a8","64afc2c9a8732ea92db0087d","64aff828885b0281b5daa9b7","null","null","<p style=""font-size: 60px; font-family: BACS"">lRCBOtM</p>","","","","","","","",""
"html-keyboard-response","330","531357","0.0-14.0","61158a5c1d8390415ff117a8","64afc2c9a8732ea92db0087d","64aff828885b0281b5daa9b7","2961"," ","<p>Ottimo! Hai visto tutte le parole che abbiamo ricevuto dallo spazio.</p>
      <p>Premi la barra quando sei pronta/o per continuare.</p>","","","","","","","",""
"html-keyboard-response","331","569325","0.0-15.0","61158a5c1d8390415ff117a8","64afc2c9a8732ea92db0087d","64aff828885b0281b5daa9b7","37967"," ","<p>In questa seconda parte, vedrai delle nuove parole che abbiamo ricevuto dallo stesso gruppo di alieni, e altre che invece provengono da un'altra comunicazione, con un altro gruppo di alieni. Purtroppo le due comunicazioni non arrivano a noi separatamente, per cui le parole sono mescolate tra loro. Il tuo compito sarà quello di individuare le parole che provengono dal gruppo che hai studiato nella prima parte dell'esperimento.</p>
      <p>Questo compito non è per nulla facile; le due comunicazioni infatti usano gli stessi caratteri. Il tuo meeting con i leader mondiali inizia tra poco, per cui non avrai molto tempo per prendere la tua decisione; dovrai essere veloce. Cerca di fare del tuo meglio usando la tua intuizione; non hai tempo di stare a pensare a lungo su ogni singola parola.</p>
      <p>Premi <strong>k</strong> quando pensi che la parola che stai vedendo sia degli stessi alieni che hai studiato prima, e <strong>d</strong> quando invece pensi che la parola che stai vedendo venga dall'altra comunicazione, con il nuovo gruppo di alieni.</p><p>Premi la barra quando sei pronta/o per iniziare.</p>","","","","","","","",""
"html-keyboard-response","332","572645","0.0-16.0-0.0","61158a5c1d8390415ff117a8","64afc2c9a8732ea92db0087d","64aff828885b0281b5daa9b7","3319","d","<p style=""font-size: 30px;"">La parola viene del gruppo di alieni che hai studiato prima?</p><br><p style=""font-size: 60px; font-family: BACS"">udkmhEct<p style=""font-size: 15px"">Premi <strong>k</strong> per sì, <strong>d</strong> per no.</p>","","udkmhEct","testing","d","true","","",""
"html-keyboard-response","333","574313","0.0-16.0-1.0-0.0","61158a5c1d8390415ff117a8","64afc2c9a8732ea92db0087d","64aff828885b0281b5daa9b7","1664"," ","<p style=""font-size: 30px; color: red"">Attenzione! Sei stato troppo lento con questa parola.</p>
      <p style=""font-size: 30px; color: red"">Cerca di essere più veloce.</p><p></p><p>Premi la barra per continuare.</p>","","","","","","","",""
"html-keyboard-response","334","575137","0.0-16.0-0.1","61158a5c1d8390415ff117a8","64afc2c9a8732ea92db0087d","64aff828885b0281b5daa9b7","822","k","<p style=""font-size: 30px;"">La parola viene del gruppo di alieni che hai studiato prima?</p><br><p style=""font-size: 60px; font-family: BACS"">lBlELcO<p style=""font-size: 15px"">Premi <strong>k</strong> per sì, <strong>d</strong> per no.</p>","","lBlELcO","testing","d","false","","",""
"html-keyboard-response","335","576076","0.0-16.0-0.2","61158a5c1d8390415ff117a8","64afc2c9a8732ea92db0087d","64aff828885b0281b5daa9b7","936","k","<p style=""font-size: 30px;"">La parola viene del gruppo di alieni che hai studiato prima?</p><br><p style=""font-size: 60px; font-family: BACS"">hYDmthEct<p style=""font-size: 15px"">Premi <strong>k</strong> per sì, <strong>d</strong> per no.</p>","","hYDmthEct","testing","k","true","","",""
"html-keyboard-response","336","577083","0.0-16.0-0.3","61158a5c1d8390415ff117a8","64afc2c9a8732ea92db0087d","64aff828885b0281b5daa9b7","1006","k","<p style=""font-size: 30px"">&emsp;</p><br><p style=""font-size: 60px; font-family: BACS"">PDPhldTAh<p style=""font-size: 15px"">Premi <strong>k</strong> per sì, <strong>d</strong> per no.</p>","","PDPhldTAh","testing","k","true","","",""
"html-keyboard-response","337","578058","0.0-16.0-0.4","61158a5c1d8390415ff117a8","64afc2c9a8732ea92db0087d","64aff828885b0281b5daa9b7","974","d","<p style=""font-size: 30px"">&emsp;</p><br><p style=""font-size: 60px; font-family: BACS"">BECkOBT<p style=""font-size: 15px"">Premi <strong>k</strong> per sì, <strong>d</strong> per no.</p>","","BECkOBT","testing","k","false","","",""
"html-keyboard-response","338","579294","0.0-16.0-0.5","61158a5c1d8390415ff117a8","64afc2c9a8732ea92db0087d","64aff828885b0281b5daa9b7","1234","k","<p style=""font-size: 30px"">&emsp;</p><br><p style=""font-size: 60px; font-family: BACS"">PDPhlcUN<p style=""font-size: 15px"">Premi <strong>k</strong> per sì, <strong>d</strong> per no.</p>","","PDPhlcUN","testing","d","false","","",""
"html-keyboard-response","339","580079","0.0-16.0-0.6","61158a5c1d8390415ff117a8","64afc2c9a8732ea92db0087d","64aff828885b0281b5daa9b7","783","d","<p style=""font-size: 30px"">&emsp;</p><br><p style=""font-size: 60px; font-family: BACS"">uQkrdmhc<p style=""font-size: 15px"">Premi <strong>k</strong> per sì, <strong>d</strong> per no.</p>","","uQkrdmhc","testing","d","true","","",""
"html-keyboard-response","340","581129","0.0-16.0-0.7","61158a5c1d8390415ff117a8","64afc2c9a8732ea92db0087d","64aff828885b0281b5daa9b7","1049","k","<p style=""font-size: 30px"">&emsp;</p><br><p style=""font-size: 60px; font-family: BACS"">AlQaQcUN<p style=""font-size: 15px"">Premi <strong>k</strong> per sì, <strong>d</strong> per no.</p>","","AlQaQcUN","testing","k","true","","",""
"html-keyboard-response","341","582154","0.0-16.0-0.8","61158a5c1d8390415ff117a8","64afc2c9a8732ea92db0087d","64aff828885b0281b5daa9b7","1023","d","<p style=""font-size: 30px"">&emsp;</p><br><p style=""font-size: 60px; font-family: BACS"">btlckuvJ<p style=""font-size: 15px"">Premi <strong>k</strong> per sì, <strong>d</strong> per no.</p>","","btlckuvJ","testing","d","true","","",""
"html-keyboard-response","342","583764","0.0-16.0-0.9","61158a5c1d8390415ff117a8","64afc2c9a8732ea92db0087d","64aff828885b0281b5daa9b7","1607","k","<p style=""font-size: 30px"">&emsp;</p><br><p style=""font-size: 60px; font-family: BACS"">ObZbAcUN<p style=""font-size: 15px"">Premi <strong>k</strong> per sì, <strong>d</strong> per no.</p>","","ObZbAcUN","testing","k","true","","",""
"html-keyboard-response","343","584761","0.0-16.0-0.10","61158a5c1d8390415ff117a8","64afc2c9a8732ea92db0087d","64aff828885b0281b5daa9b7","996","k","<p style=""font-size: 30px"">&emsp;</p><br><p style=""font-size: 60px; font-family: BACS"">lRCBOBT<p style=""font-size: 15px"">Premi <strong>k</strong> per sì, <strong>d</strong> per no.</p>","","lRCBOBT","testing","k","true","","",""
"html-keyboard-response","344","585650","0.0-16.0-0.11","61158a5c1d8390415ff117a8","64afc2c9a8732ea92db0087d","64aff828885b0281b5daa9b7","888","k","<p style=""font-size: 30px"">&emsp;</p><br><p style=""font-size: 60px; font-family: BACS"">EYtYRYmb<p style=""font-size: 15px"">Premi <strong>k</strong> per sì, <strong>d</strong> per no.</p>","","EYtYRYmb","testing","d","false","","",""
"html-keyboard-response","345","586452","0.0-16.0-0.12","61158a5c1d8390415ff117a8","64afc2c9a8732ea92db0087d","64aff828885b0281b5daa9b7","801","k","<p style=""font-size: 30px"">&emsp;</p><br><p style=""font-size: 60px; font-family: BACS"">lBlEmhc<p style=""font-size: 15px"">Premi <strong>k</strong> per sì, <strong>d</strong> per no.</p>","","lBlEmhc","testing","k","true","","",""
"html-keyboard-response","346","587587","0.0-16.0-0.13","61158a5c1d8390415ff117a8","64afc2c9a8732ea92db0087d","64aff828885b0281b5daa9b7","1133","d","<p style=""font-size: 30px"">&emsp;</p><br><p style=""font-size: 60px; font-family: BACS"">YJLcAOtM<p style=""font-size: 15px"">Premi <strong>k</strong> per sì, <strong>d</strong> per no.</p>","","YJLcAOtM","testing","d","true","","",""
"html-keyboard-response","347","588819","0.0-16.0-0.14","61158a5c1d8390415ff117a8","64afc2c9a8732ea92db0087d","64aff828885b0281b5daa9b7","1231","d","<p style=""font-size: 30px"">&emsp;</p><br><p style=""font-size: 60px; font-family: BACS"">dNZAmhc<p style=""font-size: 15px"">Premi <strong>k</strong> per sì, <strong>d</strong> per no.</p>","","dNZAmhc","testing","d","true","","",""
"html-keyboard-response","348","589520","0.0-16.0-0.15","61158a5c1d8390415ff117a8","64afc2c9a8732ea92db0087d","64aff828885b0281b5daa9b7","699","k","<p style=""font-size: 30px"">&emsp;</p><br><p style=""font-size: 60px; font-family: BACS"">hYDmtuvJ<p style=""font-size: 15px"">Premi <strong>k</strong> per sì, <strong>d</strong> per no.</p>","","hYDmtuvJ","testing","d","false","","",""
"html-keyboard-response","349","590358","0.0-16.0-0.16","61158a5c1d8390415ff117a8","64afc2c9a8732ea92db0087d","64aff828885b0281b5daa9b7","836","k","<p style=""font-size: 30px"">&emsp;</p><br><p style=""font-size: 60px; font-family: BACS"">AlQaQdTAh<p style=""font-size: 15px"">Premi <strong>k</strong> per sì, <strong>d</strong> per no.</p>","","AlQaQdTAh","testing","d","false","","",""
"html-keyboard-response","350","591472","0.0-16.0-0.17","61158a5c1d8390415ff117a8","64afc2c9a8732ea92db0087d","64aff828885b0281b5daa9b7","1113","d","<p style=""font-size: 30px"">&emsp;</p><br><p style=""font-size: 60px; font-family: BACS"">EMYKYmb<p style=""font-size: 15px"">Premi <strong>k</strong> per sì, <strong>d</strong> per no.</p>","","EMYKYmb","testing","d","true","","",""
"html-keyboard-response","351","592596","0.0-16.0-0.18","61158a5c1d8390415ff117a8","64afc2c9a8732ea92db0087d","64aff828885b0281b5daa9b7","1122","d","<p style=""font-size: 30px"">&emsp;</p><br><p style=""font-size: 60px; font-family: BACS"">dOYmlmhc<p style=""font-size: 15px"">Premi <strong>k</strong> per sì, <strong>d</strong> per no.</p>","","dOYmlmhc","testing","k","false","","",""
"html-keyboard-response","352","593612","0.0-16.0-0.19","61158a5c1d8390415ff117a8","64afc2c9a8732ea92db0087d","64aff828885b0281b5daa9b7","1014","d","<p style=""font-size: 30px"">&emsp;</p><br><p style=""font-size: 60px; font-family: BACS"">YJLcAYmb<p style=""font-size: 15px"">Premi <strong>k</strong> per sì, <strong>d</strong> per no.</p>","","YJLcAYmb","testing","k","false","","",""
"html-keyboard-response","353","594940","0.0-16.0-0.20","61158a5c1d8390415ff117a8","64afc2c9a8732ea92db0087d","64aff828885b0281b5daa9b7","1326","d","<p style=""font-size: 30px"">&emsp;</p><br><p style=""font-size: 60px; font-family: BACS"">vblrbadk<p style=""font-size: 15px"">Premi <strong>k</strong> per sì, <strong>d</strong> per no.</p>","","vblrbadk","testing","k","false","","",""
"html-keyboard-response","354","595798","0.0-16.0-0.21","61158a5c1d8390415ff117a8","64afc2c9a8732ea92db0087d","64aff828885b0281b5daa9b7","857","k","<p style=""font-size: 30px"">&emsp;</p><br><p style=""font-size: 60px; font-family: BACS"">udkmuvJ<p style=""font-size: 15px"">Premi <strong>k</strong> per sì, <strong>d</strong> per no.</p>","","udkmuvJ","testing","k","true","","",""
"html-keyboard-response","355","597094","0.0-16.0-0.22","61158a5c1d8390415ff117a8","64afc2c9a8732ea92db0087d","64aff828885b0281b5daa9b7","1295","k","<p style=""font-size: 30px"">&emsp;</p><br><p style=""font-size: 60px; font-family: BACS"">lRCBbadk<p style=""font-size: 15px"">Premi <strong>k</strong> per sì, <strong>d</strong> per no.</p>","","lRCBbadk","testing","d","false","","",""
"html-keyboard-response","356","597785","0.0-16.0-0.23","61158a5c1d8390415ff117a8","64afc2c9a8732ea92db0087d","64aff828885b0281b5daa9b7","689","k","<p style=""font-size: 30px"">&emsp;</p><br><p style=""font-size: 60px; font-family: BACS"">EYtYROtM<p style=""font-size: 15px"">Premi <strong>k</strong> per sì, <strong>d</strong> per no.</p>","","EYtYROtM","testing","k","true","","",""
"html-keyboard-response","357","598916","0.0-16.0-0.24","61158a5c1d8390415ff117a8","64afc2c9a8732ea92db0087d","64aff828885b0281b5daa9b7","1129","k","<p style=""font-size: 30px"">&emsp;</p><br><p style=""font-size: 60px; font-family: BACS"">ukYZuvJ<p style=""font-size: 15px"">Premi <strong>k</strong> per sì, <strong>d</strong> per no.</p>","","ukYZuvJ","testing","k","true","","",""
"html-keyboard-response","358","600310","0.0-16.0-0.25","61158a5c1d8390415ff117a8","64afc2c9a8732ea92db0087d","64aff828885b0281b5daa9b7","1392","k","<p style=""font-size: 30px"">&emsp;</p><br><p style=""font-size: 60px; font-family: BACS"">LuNZOtM<p style=""font-size: 15px"">Premi <strong>k</strong> per sì, <strong>d</strong> per no.</p>","","LuNZOtM","testing","d","false","","",""
"html-keyboard-response","359","601329","0.0-16.0-0.26","61158a5c1d8390415ff117a8","64afc2c9a8732ea92db0087d","64aff828885b0281b5daa9b7","1018","k","<p style=""font-size: 30px"">&emsp;</p><br><p style=""font-size: 60px; font-family: BACS"">ukYZhEct<p style=""font-size: 15px"">Premi <strong>k</strong> per sì, <strong>d</strong> per no.</p>","","ukYZhEct","testing","d","false","","",""
"html-keyboard-response","360","602040","0.0-16.0-0.27","61158a5c1d8390415ff117a8","64afc2c9a8732ea92db0087d","64aff828885b0281b5daa9b7","710","d","<p style=""font-size: 30px"">&emsp;</p><br><p style=""font-size: 60px; font-family: BACS"">vblrOBT<p style=""font-size: 15px"">Premi <strong>k</strong> per sì, <strong>d</strong> per no.</p>","","vblrOBT","testing","d","true","","",""
"html-keyboard-response","361","603615","0.0-16.0-0.28","61158a5c1d8390415ff117a8","64afc2c9a8732ea92db0087d","64aff828885b0281b5daa9b7","1573","d","<p style=""font-size: 30px"">&emsp;</p><br><p style=""font-size: 60px; font-family: BACS"">uQkrdLcO<p style=""font-size: 15px"">Premi <strong>k</strong> per sì, <strong>d</strong> per no.</p>","","uQkrdLcO","testing","k","false","","",""
"html-keyboard-response","362","604967","0.0-16.0-0.29","61158a5c1d8390415ff117a8","64afc2c9a8732ea92db0087d","64aff828885b0281b5daa9b7","1352","k","<p style=""font-size: 30px"">&emsp;</p><br><p style=""font-size: 60px; font-family: BACS"">BECkbadk<p style=""font-size: 15px"">Premi <strong>k</strong> per sì, <strong>d</strong> per no.</p>","","BECkbadk","testing","d","false","","",""
"html-keyboard-response","363","606127","0.0-16.0-0.30","61158a5c1d8390415ff117a8","64afc2c9a8732ea92db0087d","64aff828885b0281b5daa9b7","1158","k","<p style=""font-size: 30px"">&emsp;</p><br><p style=""font-size: 60px; font-family: BACS"">dNZALcO<p style=""font-size: 15px"">Premi <strong>k</strong> per sì, <strong>d</strong> per no.</p>","","dNZALcO","testing","k","true","","",""
"html-keyboard-response","364","607136","0.0-16.0-0.31","61158a5c1d8390415ff117a8","64afc2c9a8732ea92db0087d","64aff828885b0281b5daa9b7","1007","k","<p style=""font-size: 30px"">&emsp;</p><br><p style=""font-size: 60px; font-family: BACS"">LuNZYmb<p style=""font-size: 15px"">Premi <strong>k</strong> per sì, <strong>d</strong> per no.</p>","","LuNZYmb","testing","k","true","","",""
"html-keyboard-response","365","608655","0.0-16.0-0.32","61158a5c1d8390415ff117a8","64afc2c9a8732ea92db0087d","64aff828885b0281b5daa9b7","1518","k","<p style=""font-size: 30px"">&emsp;</p><br><p style=""font-size: 60px; font-family: BACS"">amJmbadk<p style=""font-size: 15px"">Premi <strong>k</strong> per sì, <strong>d</strong> per no.</p>","","amJmbadk","testing","k","true","","",""
"html-keyboard-response","366","609846","0.0-16.0-0.33","61158a5c1d8390415ff117a8","64afc2c9a8732ea92db0087d","64aff828885b0281b5daa9b7","1190","k","<p style=""font-size: 30px"">&emsp;</p><br><p style=""font-size: 60px; font-family: BACS"">dOYmlLcO<p style=""font-size: 15px"">Premi <strong>k</strong> per sì, <strong>d</strong> per no.</p>","","dOYmlLcO","testing","d","false","","",""
"html-keyboard-response","367","611105","0.0-16.0-0.34","61158a5c1d8390415ff117a8","64afc2c9a8732ea92db0087d","64aff828885b0281b5daa9b7","1258","k","<p style=""font-size: 30px"">&emsp;</p><br><p style=""font-size: 60px; font-family: BACS"">EMYKOtM<p style=""font-size: 15px"">Premi <strong>k</strong> per sì, <strong>d</strong> per no.</p>","","EMYKOtM","testing","k","true","","",""
"html-keyboard-response","368","612846","0.0-16.0-0.35","61158a5c1d8390415ff117a8","64afc2c9a8732ea92db0087d","64aff828885b0281b5daa9b7","1740","k","<p style=""font-size: 30px"">&emsp;</p><br><p style=""font-size: 60px; font-family: BACS"">KdARcUN<p style=""font-size: 15px"">Premi <strong>k</strong> per sì, <strong>d</strong> per no.</p>","","KdARcUN","testing","d","false","","",""
"html-keyboard-response","369","614111","0.0-16.0-0.36","61158a5c1d8390415ff117a8","64afc2c9a8732ea92db0087d","64aff828885b0281b5daa9b7","1263","k","<p style=""font-size: 30px"">&emsp;</p><br><p style=""font-size: 60px; font-family: BACS"">btlckhEct<p style=""font-size: 15px"">Premi <strong>k</strong> per sì, <strong>d</strong> per no.</p>","","btlckhEct","testing","k","true","","",""
"html-keyboard-response","370","615362","0.0-16.0-0.37","61158a5c1d8390415ff117a8","64afc2c9a8732ea92db0087d","64aff828885b0281b5daa9b7","1250","k","<p style=""font-size: 30px"">&emsp;</p><br><p style=""font-size: 60px; font-family: BACS"">KdARdTAh<p style=""font-size: 15px"">Premi <strong>k</strong> per sì, <strong>d</strong> per no.</p>","","KdARdTAh","testing","k","true","","",""
"html-keyboard-response","371","615964","0.0-16.0-0.38","61158a5c1d8390415ff117a8","64afc2c9a8732ea92db0087d","64aff828885b0281b5daa9b7","601","d","<p style=""font-size: 30px"">&emsp;</p><br><p style=""font-size: 60px; font-family: BACS"">amJmOBT<p style=""font-size: 15px"">Premi <strong>k</strong> per sì, <strong>d</strong> per no.</p>","","amJmOBT","testing","d","true","","",""
"html-keyboard-response","372","617733","0.0-16.0-0.39","61158a5c1d8390415ff117a8","64afc2c9a8732ea92db0087d","64aff828885b0281b5daa9b7","1768","k","<p style=""font-size: 30px"">&emsp;</p><br><p style=""font-size: 60px; font-family: BACS"">ObZbAdTAh<p style=""font-size: 15px"">Premi <strong>k</strong> per sì, <strong>d</strong> per no.</p>","","ObZbAdTAh","testing","d","false","","",""
