trial_type,trial_index,time_elapsed,internal_node_id,subject_id,study_id,session_id,rt,response,stimulus,success,item,task,correct_response,testing_condition,correct,target,confound,name,view_history
pavlovia,0,755,0.0-0.0,60d7605d7af8d66774061717,650c16f0f2faf8d7a0d14c09,651c1e4451e108b4dc8ac10c,,,,,,,,,,,,,
survey-html-form,1,11767,0.0-1.0,60d7605d7af8d66774061717,650c16f0f2faf8d7a0d14c09,651c1e4451e108b4dc8ac10c,11009,"{""ID"":""60d7605d7af8d66774061717""}",,,,,,,,,,,
html-keyboard-response,2,16442,0.0-2.0,60d7605d7af8d66774061717,650c16f0f2faf8d7a0d14c09,651c1e4451e108b4dc8ac10c,4673, ,"<p style=""font-size: 15px;"">Before beginning, we ask that you read the consent information and confirm your agreement to participate in the experiment.</p>
      <p style=""font-size: 15px;""> We ask that you remember that this is a research project and that your participation is entirely voluntary. You can stop your participation at any time, without needing to provide any explanation. The study we're asking you to participate in aims at examining how readers process written words. You will be engaged in a session of apprximately 20 minutes, followed by a brief questionnaire. You will have the opportunity to take a few breaks during the experiment. You will be paid £4 for your participation, corresponding to a rate of £8/hour. While this experiment looks at cognitive faculties, this experiment doesn't constitute clinical proof of eventual pathologies.</p>
      <p style=""font-size: 15px;"">All of the information collected thanks to yours and others' participation will be held in a secure password-protected server, and will not be shared with anyone not authorised to view it. Your personal information will be kept with an arbitrary participant ID. Thanks to this data anonymity process, any researcher analysing the data won't be able to track the information back to a specific participant. Therefore, this process will make identifying you impossibile, even when results from the study will be published in scientific reviews, presented at congresses, or at any other public forum. More generally, the collected data will be treated in accordance with the laws on privacy and conformity to the Legislative Degree n. 196 ""Code regarding the protection of personal data"" of the 30th of June 2003 and to the European Regulation 2016/670 (General Data Protection Regulation - GDPR). The Data Protection Officer is Avv. Valentina Carollo, who can be contacted at the following email addresses: <a href=""mailto:dpo@sissa.it"">dpo@sissa.it</a> or <a href=""mailto:rpd@sissa.it"">rpd@sissa.it</a> - PEC: <a href=""mailto:protocollo@pec.sissa.it"">protocollo@pec.sissa.it</a>.</p>
      <p style=""font-size: 15px;""> Before expressing your consent to participate, we would like to remind you again that in case you need explanations on any aspect of the experimental procedure, the researcher is at your disposition (<a href=""mailto:aliebelt@sissa.it"">aliebelt@sissa.it</a>, <a href=""mailto:davide.crepaldi@sissa.it"">davide.crepaldi@sissa.it</a>).</p>
      <p style=""font-size: 15px;"">If you would like to download the informed consent form, you can do so here: <a href=""BASL-Informed_Consent.pdf"" download>informed consent form</a>.</p>
      <p style=""font-size: 15px;"">We ask that you press the spacebar to proceed to the consent section.</p>",,,,,,,,,,
survey-html-form,3,28743,0.0-3.0,60d7605d7af8d66774061717,650c16f0f2faf8d7a0d14c09,651c1e4451e108b4dc8ac10c,12300,"{""consent1"":""YES"",""consent2"":""YES"",""consent3"":""YES"",""consent4"":""YES"",""consent5"":""YES"",""consent6"":""YES""}",,,,,,,,,,,
fullscreen,4,38356,0.0-4.0,60d7605d7af8d66774061717,650c16f0f2faf8d7a0d14c09,651c1e4451e108b4dc8ac10c,,,,TRUE,,,,,,,,,
html-keyboard-response,5,54659,0.0-5.0,60d7605d7af8d66774061717,650c16f0f2faf8d7a0d14c09,651c1e4451e108b4dc8ac10c,16302, ,"<p>Welcome, and thank you very much for your time!</p>
      <p>In this experiment, you'll be a language expert who's been asked to take a look at words that Earth has received in its first communication with aliens. Your task, in this first part of the experiment, is to pay close attention to the words you'll be shown; later, world leaders will ask you questions on what you saw. The words will be shown to you quite quickly; it seems that the aliens were in a hurry :-)</p>
      <p>Press the spacebar to continue.<p>",,,,,,,,,,
html-keyboard-response,6,54711,0.0-6.0,60d7605d7af8d66774061717,650c16f0f2faf8d7a0d14c09,651c1e4451e108b4dc8ac10c,null,null,"<p style=""font-size: 120px; font-family: BACS""> </p>",,,,,,,,,,
html-keyboard-response,7,59535,0.0-7.0,60d7605d7af8d66774061717,650c16f0f2faf8d7a0d14c09,651c1e4451e108b4dc8ac10c,4823, ,"<p>Here is an example of the words you'll see:</p>
      <img src='esempio.png' height='400px'>
      <p>When you're ready to begin, press the spacebar.</p></div>",,,,,,,,,,
html-keyboard-response,8,60543,0.0-8.0-0.0,60d7605d7af8d66774061717,650c16f0f2faf8d7a0d14c09,651c1e4451e108b4dc8ac10c,null,null,"<p style=""font-size: 60px; font-family: BACS"">DkTCPTmTm</p>",,,,,,,,,,
html-keyboard-response,9,61553,0.0-8.0-0.1,60d7605d7af8d66774061717,650c16f0f2faf8d7a0d14c09,651c1e4451e108b4dc8ac10c,null,null,"<p style=""font-size: 60px; font-family: BACS"">AJLrLkNc</p>",,,,,,,,,,
html-keyboard-response,10,62566,0.0-8.0-0.2,60d7605d7af8d66774061717,650c16f0f2faf8d7a0d14c09,651c1e4451e108b4dc8ac10c,null,null,"<p style=""font-size: 60px; font-family: BACS"">kKRCYcM</p>",,,,,,,,,,
html-keyboard-response,11,63579,0.0-8.0-0.3,60d7605d7af8d66774061717,650c16f0f2faf8d7a0d14c09,651c1e4451e108b4dc8ac10c,null,null,"<p style=""font-size: 60px; font-family: BACS"">CYPcTRkY</p>",,,,,,,,,,
html-keyboard-response,12,64587,0.0-8.0-0.4,60d7605d7af8d66774061717,650c16f0f2faf8d7a0d14c09,651c1e4451e108b4dc8ac10c,null,null,"<p style=""font-size: 60px; font-family: BACS"">hbmATmc</p>",,,,,,,,,,
html-keyboard-response,13,65596,0.0-8.0-0.5,60d7605d7af8d66774061717,650c16f0f2faf8d7a0d14c09,651c1e4451e108b4dc8ac10c,null,null,"<p style=""font-size: 60px; font-family: BACS"">uQuZcQvlZ</p>",,,,,,,,,,
html-keyboard-response,14,66607,0.0-8.0-0.6,60d7605d7af8d66774061717,650c16f0f2faf8d7a0d14c09,651c1e4451e108b4dc8ac10c,null,null,"<p style=""font-size: 60px; font-family: BACS"">rkJuYNu</p>",,,,,,,,,,
html-keyboard-response,15,67621,0.0-8.0-0.7,60d7605d7af8d66774061717,650c16f0f2faf8d7a0d14c09,651c1e4451e108b4dc8ac10c,null,null,"<p style=""font-size: 60px; font-family: BACS"">auYAkUbG</p>",,,,,,,,,,
html-keyboard-response,16,68637,0.0-8.0-0.8,60d7605d7af8d66774061717,650c16f0f2faf8d7a0d14c09,651c1e4451e108b4dc8ac10c,null,null,"<p style=""font-size: 60px; font-family: BACS"">DhMtTmTm</p>",,,,,,,,,,
html-keyboard-response,17,69642,0.0-8.0-0.9,60d7605d7af8d66774061717,650c16f0f2faf8d7a0d14c09,651c1e4451e108b4dc8ac10c,null,null,"<p style=""font-size: 60px; font-family: BACS"">OdlNmLkNc</p>",,,,,,,,,,
html-keyboard-response,18,70645,0.0-8.0-0.10,60d7605d7af8d66774061717,650c16f0f2faf8d7a0d14c09,651c1e4451e108b4dc8ac10c,null,null,"<p style=""font-size: 60px; font-family: BACS"">DkTCPdCKc</p>",,,,,,,,,,
html-keyboard-response,19,71647,0.0-8.0-0.11,60d7605d7af8d66774061717,650c16f0f2faf8d7a0d14c09,651c1e4451e108b4dc8ac10c,null,null,"<p style=""font-size: 60px; font-family: BACS"">OdlNmUbG</p>",,,,,,,,,,
html-keyboard-response,20,72652,0.0-8.0-0.12,60d7605d7af8d66774061717,650c16f0f2faf8d7a0d14c09,651c1e4451e108b4dc8ac10c,null,null,"<p style=""font-size: 60px; font-family: BACS"">mUOcOYZJO</p>",,,,,,,,,,
html-keyboard-response,21,73659,0.0-8.0-0.13,60d7605d7af8d66774061717,650c16f0f2faf8d7a0d14c09,651c1e4451e108b4dc8ac10c,null,null,"<p style=""font-size: 60px; font-family: BACS"">TbKMETmTm</p>",,,,,,,,,,
html-keyboard-response,22,74663,0.0-8.0-0.14,60d7605d7af8d66774061717,650c16f0f2faf8d7a0d14c09,651c1e4451e108b4dc8ac10c,null,null,"<p style=""font-size: 60px; font-family: BACS"">auYAkQvlZ</p>",,,,,,,,,,
html-keyboard-response,23,75668,0.0-8.0-0.15,60d7605d7af8d66774061717,650c16f0f2faf8d7a0d14c09,651c1e4451e108b4dc8ac10c,null,null,"<p style=""font-size: 60px; font-family: BACS"">CYPcTmTm</p>",,,,,,,,,,
html-keyboard-response,24,76672,0.0-8.0-0.16,60d7605d7af8d66774061717,650c16f0f2faf8d7a0d14c09,651c1e4451e108b4dc8ac10c,null,null,"<p style=""font-size: 60px; font-family: BACS"">TbKMEdCKc</p>",,,,,,,,,,
html-keyboard-response,25,77688,0.0-8.0-0.17,60d7605d7af8d66774061717,650c16f0f2faf8d7a0d14c09,651c1e4451e108b4dc8ac10c,null,null,"<p style=""font-size: 60px; font-family: BACS"">CkBOPYcM</p>",,,,,,,,,,
html-keyboard-response,26,78702,0.0-8.0-0.18,60d7605d7af8d66774061717,650c16f0f2faf8d7a0d14c09,651c1e4451e108b4dc8ac10c,null,null,"<p style=""font-size: 60px; font-family: BACS"">ZNLOvYZJO</p>",,,,,,,,,,
html-keyboard-response,27,79718,0.0-8.0-0.19,60d7605d7af8d66774061717,650c16f0f2faf8d7a0d14c09,651c1e4451e108b4dc8ac10c,null,null,"<p style=""font-size: 60px; font-family: BACS"">YLQmGUbG</p>",,,,,,,,,,
html-keyboard-response,28,80726,0.0-8.0-0.20,60d7605d7af8d66774061717,650c16f0f2faf8d7a0d14c09,651c1e4451e108b4dc8ac10c,null,null,"<p style=""font-size: 60px; font-family: BACS"">rkJuYZJO</p>",,,,,,,,,,
html-keyboard-response,29,81741,0.0-8.0-0.21,60d7605d7af8d66774061717,650c16f0f2faf8d7a0d14c09,651c1e4451e108b4dc8ac10c,null,null,"<p style=""font-size: 60px; font-family: BACS"">mBbKTmTm</p>",,,,,,,,,,
html-keyboard-response,30,82749,0.0-8.0-0.22,60d7605d7af8d66774061717,650c16f0f2faf8d7a0d14c09,651c1e4451e108b4dc8ac10c,null,null,"<p style=""font-size: 60px; font-family: BACS"">dGLAlYZJO</p>",,,,,,,,,,
html-keyboard-response,31,83760,0.0-8.0-0.23,60d7605d7af8d66774061717,650c16f0f2faf8d7a0d14c09,651c1e4451e108b4dc8ac10c,null,null,"<p style=""font-size: 60px; font-family: BACS"">DcPTcTRkY</p>",,,,,,,,,,
html-keyboard-response,32,84774,0.0-8.0-0.24,60d7605d7af8d66774061717,650c16f0f2faf8d7a0d14c09,651c1e4451e108b4dc8ac10c,null,null,"<p style=""font-size: 60px; font-family: BACS"">DkTCPYcM</p>",,,,,,,,,,
html-keyboard-response,33,85785,0.0-8.0-0.25,60d7605d7af8d66774061717,650c16f0f2faf8d7a0d14c09,651c1e4451e108b4dc8ac10c,null,null,"<p style=""font-size: 60px; font-family: BACS"">AJLrUbG</p>",,,,,,,,,,
html-keyboard-response,34,86792,0.0-8.0-0.26,60d7605d7af8d66774061717,650c16f0f2faf8d7a0d14c09,651c1e4451e108b4dc8ac10c,null,null,"<p style=""font-size: 60px; font-family: BACS"">dGLAlLkNc</p>",,,,,,,,,,
html-keyboard-response,35,87808,0.0-8.0-0.27,60d7605d7af8d66774061717,650c16f0f2faf8d7a0d14c09,651c1e4451e108b4dc8ac10c,null,null,"<p style=""font-size: 60px; font-family: BACS"">DhMtYcM</p>",,,,,,,,,,
html-keyboard-response,36,88824,0.0-8.0-0.28,60d7605d7af8d66774061717,650c16f0f2faf8d7a0d14c09,651c1e4451e108b4dc8ac10c,null,null,"<p style=""font-size: 60px; font-family: BACS"">CYPcTmc</p>",,,,,,,,,,
html-keyboard-response,37,89838,0.0-8.0-0.29,60d7605d7af8d66774061717,650c16f0f2faf8d7a0d14c09,651c1e4451e108b4dc8ac10c,null,null,"<p style=""font-size: 60px; font-family: BACS"">TbKMEYcM</p>",,,,,,,,,,
html-keyboard-response,38,90847,0.0-8.0-0.30,60d7605d7af8d66774061717,650c16f0f2faf8d7a0d14c09,651c1e4451e108b4dc8ac10c,null,null,"<p style=""font-size: 60px; font-family: BACS"">uQuZcLkNc</p>",,,,,,,,,,
html-keyboard-response,39,91862,0.0-8.0-0.31,60d7605d7af8d66774061717,650c16f0f2faf8d7a0d14c09,651c1e4451e108b4dc8ac10c,null,null,"<p style=""font-size: 60px; font-family: BACS"">mBbKTRkY</p>",,,,,,,,,,
html-keyboard-response,40,92871,0.0-8.0-0.32,60d7605d7af8d66774061717,650c16f0f2faf8d7a0d14c09,651c1e4451e108b4dc8ac10c,null,null,"<p style=""font-size: 60px; font-family: BACS"">kKRCTmTm</p>",,,,,,,,,,
html-keyboard-response,41,93887,0.0-8.0-0.33,60d7605d7af8d66774061717,650c16f0f2faf8d7a0d14c09,651c1e4451e108b4dc8ac10c,null,null,"<p style=""font-size: 60px; font-family: BACS"">CkBOPTRkY</p>",,,,,,,,,,
html-keyboard-response,42,94899,0.0-8.0-0.34,60d7605d7af8d66774061717,650c16f0f2faf8d7a0d14c09,651c1e4451e108b4dc8ac10c,null,null,"<p style=""font-size: 60px; font-family: BACS"">YLQmGQvlZ</p>",,,,,,,,,,
html-keyboard-response,43,95909,0.0-8.0-0.35,60d7605d7af8d66774061717,650c16f0f2faf8d7a0d14c09,651c1e4451e108b4dc8ac10c,null,null,"<p style=""font-size: 60px; font-family: BACS"">mBbKdCKc</p>",,,,,,,,,,
html-keyboard-response,44,96921,0.0-8.0-0.36,60d7605d7af8d66774061717,650c16f0f2faf8d7a0d14c09,651c1e4451e108b4dc8ac10c,null,null,"<p style=""font-size: 60px; font-family: BACS"">rkJuQvlZ</p>",,,,,,,,,,
html-keyboard-response,45,97933,0.0-8.0-0.37,60d7605d7af8d66774061717,650c16f0f2faf8d7a0d14c09,651c1e4451e108b4dc8ac10c,null,null,"<p style=""font-size: 60px; font-family: BACS"">dGLAlUbG</p>",,,,,,,,,,
html-keyboard-response,46,98947,0.0-8.0-0.38,60d7605d7af8d66774061717,650c16f0f2faf8d7a0d14c09,651c1e4451e108b4dc8ac10c,null,null,"<p style=""font-size: 60px; font-family: BACS"">kKRCTRkY</p>",,,,,,,,,,
html-keyboard-response,47,99957,0.0-8.0-0.39,60d7605d7af8d66774061717,650c16f0f2faf8d7a0d14c09,651c1e4451e108b4dc8ac10c,null,null,"<p style=""font-size: 60px; font-family: BACS"">AJLrYNu</p>",,,,,,,,,,
html-keyboard-response,48,100970,0.0-8.0-0.40,60d7605d7af8d66774061717,650c16f0f2faf8d7a0d14c09,651c1e4451e108b4dc8ac10c,null,null,"<p style=""font-size: 60px; font-family: BACS"">DcPTcYcM</p>",,,,,,,,,,
html-keyboard-response,49,101983,0.0-8.0-0.41,60d7605d7af8d66774061717,650c16f0f2faf8d7a0d14c09,651c1e4451e108b4dc8ac10c,null,null,"<p style=""font-size: 60px; font-family: BACS"">OtlRTmTm</p>",,,,,,,,,,
html-keyboard-response,50,102984,0.0-8.0-0.42,60d7605d7af8d66774061717,650c16f0f2faf8d7a0d14c09,651c1e4451e108b4dc8ac10c,null,null,"<p style=""font-size: 60px; font-family: BACS"">YLQmGYNu</p>",,,,,,,,,,
html-keyboard-response,51,103986,0.0-8.0-0.43,60d7605d7af8d66774061717,650c16f0f2faf8d7a0d14c09,651c1e4451e108b4dc8ac10c,null,null,"<p style=""font-size: 60px; font-family: BACS"">AJLrYZJO</p>",,,,,,,,,,
html-keyboard-response,52,104988,0.0-8.0-0.44,60d7605d7af8d66774061717,650c16f0f2faf8d7a0d14c09,651c1e4451e108b4dc8ac10c,null,null,"<p style=""font-size: 60px; font-family: BACS"">DhMtdCKc</p>",,,,,,,,,,
html-keyboard-response,53,106000,0.0-8.0-0.45,60d7605d7af8d66774061717,650c16f0f2faf8d7a0d14c09,651c1e4451e108b4dc8ac10c,null,null,"<p style=""font-size: 60px; font-family: BACS"">mBbKTmc</p>",,,,,,,,,,
html-keyboard-response,54,107012,0.0-8.0-0.46,60d7605d7af8d66774061717,650c16f0f2faf8d7a0d14c09,651c1e4451e108b4dc8ac10c,null,null,"<p style=""font-size: 60px; font-family: BACS"">hbmATRkY</p>",,,,,,,,,,
html-keyboard-response,55,108021,0.0-8.0-0.47,60d7605d7af8d66774061717,650c16f0f2faf8d7a0d14c09,651c1e4451e108b4dc8ac10c,null,null,"<p style=""font-size: 60px; font-family: BACS"">CYPcdCKc</p>",,,,,,,,,,
html-keyboard-response,56,109034,0.0-8.0-0.48,60d7605d7af8d66774061717,650c16f0f2faf8d7a0d14c09,651c1e4451e108b4dc8ac10c,null,null,"<p style=""font-size: 60px; font-family: BACS"">OtlRTmc</p>",,,,,,,,,,
html-keyboard-response,57,110049,0.0-8.0-0.49,60d7605d7af8d66774061717,650c16f0f2faf8d7a0d14c09,651c1e4451e108b4dc8ac10c,null,null,"<p style=""font-size: 60px; font-family: BACS"">dvNvAQvlZ</p>",,,,,,,,,,
html-keyboard-response,58,111059,0.0-8.0-0.50,60d7605d7af8d66774061717,650c16f0f2faf8d7a0d14c09,651c1e4451e108b4dc8ac10c,null,null,"<p style=""font-size: 60px; font-family: BACS"">TbKMETmc</p>",,,,,,,,,,
html-keyboard-response,59,112068,0.0-8.0-0.51,60d7605d7af8d66774061717,650c16f0f2faf8d7a0d14c09,651c1e4451e108b4dc8ac10c,null,null,"<p style=""font-size: 60px; font-family: BACS"">OdlNmQvlZ</p>",,,,,,,,,,
html-keyboard-response,60,113081,0.0-8.0-0.52,60d7605d7af8d66774061717,650c16f0f2faf8d7a0d14c09,651c1e4451e108b4dc8ac10c,null,null,"<p style=""font-size: 60px; font-family: BACS"">dvNvALkNc</p>",,,,,,,,,,
html-keyboard-response,61,114094,0.0-8.0-0.53,60d7605d7af8d66774061717,650c16f0f2faf8d7a0d14c09,651c1e4451e108b4dc8ac10c,null,null,"<p style=""font-size: 60px; font-family: BACS"">mUOcOUbG</p>",,,,,,,,,,
html-keyboard-response,62,115104,0.0-8.0-0.54,60d7605d7af8d66774061717,650c16f0f2faf8d7a0d14c09,651c1e4451e108b4dc8ac10c,null,null,"<p style=""font-size: 60px; font-family: BACS"">auYAkYZJO</p>",,,,,,,,,,
html-keyboard-response,63,116116,0.0-8.0-0.55,60d7605d7af8d66774061717,650c16f0f2faf8d7a0d14c09,651c1e4451e108b4dc8ac10c,null,null,"<p style=""font-size: 60px; font-family: BACS"">DhMtTmc</p>",,,,,,,,,,
html-keyboard-response,64,117122,0.0-8.0-0.56,60d7605d7af8d66774061717,650c16f0f2faf8d7a0d14c09,651c1e4451e108b4dc8ac10c,null,null,"<p style=""font-size: 60px; font-family: BACS"">auYAkYNu</p>",,,,,,,,,,
html-keyboard-response,65,118136,0.0-8.0-0.57,60d7605d7af8d66774061717,650c16f0f2faf8d7a0d14c09,651c1e4451e108b4dc8ac10c,null,null,"<p style=""font-size: 60px; font-family: BACS"">ZNLOvQvlZ</p>",,,,,,,,,,
html-keyboard-response,66,119150,0.0-8.0-0.58,60d7605d7af8d66774061717,650c16f0f2faf8d7a0d14c09,651c1e4451e108b4dc8ac10c,null,null,"<p style=""font-size: 60px; font-family: BACS"">uQuZcYNu</p>",,,,,,,,,,
html-keyboard-response,67,120156,0.0-8.0-0.59,60d7605d7af8d66774061717,650c16f0f2faf8d7a0d14c09,651c1e4451e108b4dc8ac10c,null,null,"<p style=""font-size: 60px; font-family: BACS"">CkBOPTmTm</p>",,,,,,,,,,
html-keyboard-response,68,121167,0.0-8.0-0.60,60d7605d7af8d66774061717,650c16f0f2faf8d7a0d14c09,651c1e4451e108b4dc8ac10c,null,null,"<p style=""font-size: 60px; font-family: BACS"">DkTCPTRkY</p>",,,,,,,,,,
html-keyboard-response,69,122177,0.0-8.0-0.61,60d7605d7af8d66774061717,650c16f0f2faf8d7a0d14c09,651c1e4451e108b4dc8ac10c,null,null,"<p style=""font-size: 60px; font-family: BACS"">mUOcOLkNc</p>",,,,,,,,,,
html-keyboard-response,70,123186,0.0-8.0-0.62,60d7605d7af8d66774061717,650c16f0f2faf8d7a0d14c09,651c1e4451e108b4dc8ac10c,null,null,"<p style=""font-size: 60px; font-family: BACS"">dvNvAUbG</p>",,,,,,,,,,
html-keyboard-response,71,124195,0.0-8.0-0.63,60d7605d7af8d66774061717,650c16f0f2faf8d7a0d14c09,651c1e4451e108b4dc8ac10c,null,null,"<p style=""font-size: 60px; font-family: BACS"">CkBOPTmc</p>",,,,,,,,,,
html-keyboard-response,72,125200,0.0-8.0-0.64,60d7605d7af8d66774061717,650c16f0f2faf8d7a0d14c09,651c1e4451e108b4dc8ac10c,null,null,"<p style=""font-size: 60px; font-family: BACS"">ZNLOvUbG</p>",,,,,,,,,,
html-keyboard-response,73,126213,0.0-8.0-0.65,60d7605d7af8d66774061717,650c16f0f2faf8d7a0d14c09,651c1e4451e108b4dc8ac10c,null,null,"<p style=""font-size: 60px; font-family: BACS"">uQuZcYZJO</p>",,,,,,,,,,
html-keyboard-response,74,127220,0.0-8.0-0.66,60d7605d7af8d66774061717,650c16f0f2faf8d7a0d14c09,651c1e4451e108b4dc8ac10c,null,null,"<p style=""font-size: 60px; font-family: BACS"">mUOcOQvlZ</p>",,,,,,,,,,
html-keyboard-response,75,128231,0.0-8.0-0.67,60d7605d7af8d66774061717,650c16f0f2faf8d7a0d14c09,651c1e4451e108b4dc8ac10c,null,null,"<p style=""font-size: 60px; font-family: BACS"">hbmAdCKc</p>",,,,,,,,,,
html-keyboard-response,76,129246,0.0-8.0-0.68,60d7605d7af8d66774061717,650c16f0f2faf8d7a0d14c09,651c1e4451e108b4dc8ac10c,null,null,"<p style=""font-size: 60px; font-family: BACS"">OtlRTRkY</p>",,,,,,,,,,
html-keyboard-response,77,130252,0.0-8.0-0.69,60d7605d7af8d66774061717,650c16f0f2faf8d7a0d14c09,651c1e4451e108b4dc8ac10c,null,null,"<p style=""font-size: 60px; font-family: BACS"">hbmAYcM</p>",,,,,,,,,,
html-keyboard-response,78,131268,0.0-8.0-0.70,60d7605d7af8d66774061717,650c16f0f2faf8d7a0d14c09,651c1e4451e108b4dc8ac10c,null,null,"<p style=""font-size: 60px; font-family: BACS"">OdlNmYNu</p>",,,,,,,,,,
html-keyboard-response,79,132280,0.0-8.0-0.71,60d7605d7af8d66774061717,650c16f0f2faf8d7a0d14c09,651c1e4451e108b4dc8ac10c,null,null,"<p style=""font-size: 60px; font-family: BACS"">kKRCdCKc</p>",,,,,,,,,,
html-keyboard-response,80,133296,0.0-8.0-0.72,60d7605d7af8d66774061717,650c16f0f2faf8d7a0d14c09,651c1e4451e108b4dc8ac10c,null,null,"<p style=""font-size: 60px; font-family: BACS"">ZNLOvYNu</p>",,,,,,,,,,
html-keyboard-response,81,134312,0.0-8.0-0.73,60d7605d7af8d66774061717,650c16f0f2faf8d7a0d14c09,651c1e4451e108b4dc8ac10c,null,null,"<p style=""font-size: 60px; font-family: BACS"">dvNvAYZJO</p>",,,,,,,,,,
html-keyboard-response,82,135325,0.0-8.0-0.74,60d7605d7af8d66774061717,650c16f0f2faf8d7a0d14c09,651c1e4451e108b4dc8ac10c,null,null,"<p style=""font-size: 60px; font-family: BACS"">DcPTcdCKc</p>",,,,,,,,,,
html-keyboard-response,83,136342,0.0-8.0-0.75,60d7605d7af8d66774061717,650c16f0f2faf8d7a0d14c09,651c1e4451e108b4dc8ac10c,null,null,"<p style=""font-size: 60px; font-family: BACS"">OtlRYcM</p>",,,,,,,,,,
html-keyboard-response,84,137345,0.0-8.0-0.76,60d7605d7af8d66774061717,650c16f0f2faf8d7a0d14c09,651c1e4451e108b4dc8ac10c,null,null,"<p style=""font-size: 60px; font-family: BACS"">YLQmGLkNc</p>",,,,,,,,,,
html-keyboard-response,85,138354,0.0-8.0-0.77,60d7605d7af8d66774061717,650c16f0f2faf8d7a0d14c09,651c1e4451e108b4dc8ac10c,null,null,"<p style=""font-size: 60px; font-family: BACS"">DcPTcTmc</p>",,,,,,,,,,
html-keyboard-response,86,139364,0.0-8.0-0.78,60d7605d7af8d66774061717,650c16f0f2faf8d7a0d14c09,651c1e4451e108b4dc8ac10c,null,null,"<p style=""font-size: 60px; font-family: BACS"">dGLAlYNu</p>",,,,,,,,,,
html-keyboard-response,87,140373,0.0-8.0-0.79,60d7605d7af8d66774061717,650c16f0f2faf8d7a0d14c09,651c1e4451e108b4dc8ac10c,null,null,"<p style=""font-size: 60px; font-family: BACS"">rkJuLkNc</p>",,,,,,,,,,
html-keyboard-response,88,144432,0.0-9.0,60d7605d7af8d66774061717,650c16f0f2faf8d7a0d14c09,651c1e4451e108b4dc8ac10c,4059, ,"<p>Great, you've seen the first block of words. You may now take a short break.</p>
      <p>Press the spacebar when you're ready to continue.</p>",,,,,,,,,,
html-keyboard-response,89,145449,0.0-10.0-0.0,60d7605d7af8d66774061717,650c16f0f2faf8d7a0d14c09,651c1e4451e108b4dc8ac10c,null,null,"<p style=""font-size: 60px; font-family: BACS"">auYAkYZJO</p>",,,,,,,,,,
html-keyboard-response,90,146457,0.0-10.0-0.1,60d7605d7af8d66774061717,650c16f0f2faf8d7a0d14c09,651c1e4451e108b4dc8ac10c,null,null,"<p style=""font-size: 60px; font-family: BACS"">TbKMEYcM</p>",,,,,,,,,,
html-keyboard-response,91,147473,0.0-10.0-0.2,60d7605d7af8d66774061717,650c16f0f2faf8d7a0d14c09,651c1e4451e108b4dc8ac10c,null,null,"<p style=""font-size: 60px; font-family: BACS"">rkJuLkNc</p>",,,,,,,,,,
html-keyboard-response,92,148487,0.0-10.0-0.3,60d7605d7af8d66774061717,650c16f0f2faf8d7a0d14c09,651c1e4451e108b4dc8ac10c,null,null,"<p style=""font-size: 60px; font-family: BACS"">dGLAlYZJO</p>",,,,,,,,,,
html-keyboard-response,93,149497,0.0-10.0-0.4,60d7605d7af8d66774061717,650c16f0f2faf8d7a0d14c09,651c1e4451e108b4dc8ac10c,null,null,"<p style=""font-size: 60px; font-family: BACS"">mBbKdCKc</p>",,,,,,,,,,
html-keyboard-response,94,150507,0.0-10.0-0.5,60d7605d7af8d66774061717,650c16f0f2faf8d7a0d14c09,651c1e4451e108b4dc8ac10c,null,null,"<p style=""font-size: 60px; font-family: BACS"">CkBOPYcM</p>",,,,,,,,,,
html-keyboard-response,95,151515,0.0-10.0-0.6,60d7605d7af8d66774061717,650c16f0f2faf8d7a0d14c09,651c1e4451e108b4dc8ac10c,null,null,"<p style=""font-size: 60px; font-family: BACS"">ZNLOvQvlZ</p>",,,,,,,,,,
html-keyboard-response,96,152527,0.0-10.0-0.7,60d7605d7af8d66774061717,650c16f0f2faf8d7a0d14c09,651c1e4451e108b4dc8ac10c,null,null,"<p style=""font-size: 60px; font-family: BACS"">hbmAYcM</p>",,,,,,,,,,
html-keyboard-response,97,153536,0.0-10.0-0.8,60d7605d7af8d66774061717,650c16f0f2faf8d7a0d14c09,651c1e4451e108b4dc8ac10c,null,null,"<p style=""font-size: 60px; font-family: BACS"">OdlNmYNu</p>",,,,,,,,,,
html-keyboard-response,98,154547,0.0-10.0-0.9,60d7605d7af8d66774061717,650c16f0f2faf8d7a0d14c09,651c1e4451e108b4dc8ac10c,null,null,"<p style=""font-size: 60px; font-family: BACS"">DhMtTmTm</p>",,,,,,,,,,
html-keyboard-response,99,155561,0.0-10.0-0.10,60d7605d7af8d66774061717,650c16f0f2faf8d7a0d14c09,651c1e4451e108b4dc8ac10c,null,null,"<p style=""font-size: 60px; font-family: BACS"">dGLAlYNu</p>",,,,,,,,,,
html-keyboard-response,100,156569,0.0-10.0-0.11,60d7605d7af8d66774061717,650c16f0f2faf8d7a0d14c09,651c1e4451e108b4dc8ac10c,null,null,"<p style=""font-size: 60px; font-family: BACS"">kKRCTmTm</p>",,,,,,,,,,
html-keyboard-response,101,157584,0.0-10.0-0.12,60d7605d7af8d66774061717,650c16f0f2faf8d7a0d14c09,651c1e4451e108b4dc8ac10c,null,null,"<p style=""font-size: 60px; font-family: BACS"">rkJuYNu</p>",,,,,,,,,,
html-keyboard-response,102,158597,0.0-10.0-0.13,60d7605d7af8d66774061717,650c16f0f2faf8d7a0d14c09,651c1e4451e108b4dc8ac10c,null,null,"<p style=""font-size: 60px; font-family: BACS"">OtlRYcM</p>",,,,,,,,,,
html-keyboard-response,103,159608,0.0-10.0-0.14,60d7605d7af8d66774061717,650c16f0f2faf8d7a0d14c09,651c1e4451e108b4dc8ac10c,null,null,"<p style=""font-size: 60px; font-family: BACS"">OdlNmLkNc</p>",,,,,,,,,,
html-keyboard-response,104,160622,0.0-10.0-0.15,60d7605d7af8d66774061717,650c16f0f2faf8d7a0d14c09,651c1e4451e108b4dc8ac10c,null,null,"<p style=""font-size: 60px; font-family: BACS"">hbmATRkY</p>",,,,,,,,,,
html-keyboard-response,105,161625,0.0-10.0-0.16,60d7605d7af8d66774061717,650c16f0f2faf8d7a0d14c09,651c1e4451e108b4dc8ac10c,null,null,"<p style=""font-size: 60px; font-family: BACS"">dvNvAYZJO</p>",,,,,,,,,,
html-keyboard-response,106,162637,0.0-10.0-0.17,60d7605d7af8d66774061717,650c16f0f2faf8d7a0d14c09,651c1e4451e108b4dc8ac10c,null,null,"<p style=""font-size: 60px; font-family: BACS"">AJLrLkNc</p>",,,,,,,,,,
html-keyboard-response,107,163649,0.0-10.0-0.18,60d7605d7af8d66774061717,650c16f0f2faf8d7a0d14c09,651c1e4451e108b4dc8ac10c,null,null,"<p style=""font-size: 60px; font-family: BACS"">DcPTcTmc</p>",,,,,,,,,,
html-keyboard-response,108,164661,0.0-10.0-0.19,60d7605d7af8d66774061717,650c16f0f2faf8d7a0d14c09,651c1e4451e108b4dc8ac10c,null,null,"<p style=""font-size: 60px; font-family: BACS"">auYAkQvlZ</p>",,,,,,,,,,
html-keyboard-response,109,165673,0.0-10.0-0.20,60d7605d7af8d66774061717,650c16f0f2faf8d7a0d14c09,651c1e4451e108b4dc8ac10c,null,null,"<p style=""font-size: 60px; font-family: BACS"">ZNLOvYNu</p>",,,,,,,,,,
html-keyboard-response,110,166687,0.0-10.0-0.21,60d7605d7af8d66774061717,650c16f0f2faf8d7a0d14c09,651c1e4451e108b4dc8ac10c,null,null,"<p style=""font-size: 60px; font-family: BACS"">OdlNmUbG</p>",,,,,,,,,,
html-keyboard-response,111,167700,0.0-10.0-0.22,60d7605d7af8d66774061717,650c16f0f2faf8d7a0d14c09,651c1e4451e108b4dc8ac10c,null,null,"<p style=""font-size: 60px; font-family: BACS"">CYPcTmc</p>",,,,,,,,,,
html-keyboard-response,112,168712,0.0-10.0-0.23,60d7605d7af8d66774061717,650c16f0f2faf8d7a0d14c09,651c1e4451e108b4dc8ac10c,null,null,"<p style=""font-size: 60px; font-family: BACS"">CkBOPTRkY</p>",,,,,,,,,,
html-keyboard-response,113,169728,0.0-10.0-0.24,60d7605d7af8d66774061717,650c16f0f2faf8d7a0d14c09,651c1e4451e108b4dc8ac10c,null,null,"<p style=""font-size: 60px; font-family: BACS"">CYPcdCKc</p>",,,,,,,,,,
html-keyboard-response,114,170742,0.0-10.0-0.25,60d7605d7af8d66774061717,650c16f0f2faf8d7a0d14c09,651c1e4451e108b4dc8ac10c,null,null,"<p style=""font-size: 60px; font-family: BACS"">kKRCYcM</p>",,,,,,,,,,
html-keyboard-response,115,171747,0.0-10.0-0.26,60d7605d7af8d66774061717,650c16f0f2faf8d7a0d14c09,651c1e4451e108b4dc8ac10c,null,null,"<p style=""font-size: 60px; font-family: BACS"">DkTCPTmTm</p>",,,,,,,,,,
html-keyboard-response,116,172761,0.0-10.0-0.27,60d7605d7af8d66774061717,650c16f0f2faf8d7a0d14c09,651c1e4451e108b4dc8ac10c,null,null,"<p style=""font-size: 60px; font-family: BACS"">rkJuYZJO</p>",,,,,,,,,,
html-keyboard-response,117,173769,0.0-10.0-0.28,60d7605d7af8d66774061717,650c16f0f2faf8d7a0d14c09,651c1e4451e108b4dc8ac10c,null,null,"<p style=""font-size: 60px; font-family: BACS"">kKRCdCKc</p>",,,,,,,,,,
html-keyboard-response,118,174782,0.0-10.0-0.29,60d7605d7af8d66774061717,650c16f0f2faf8d7a0d14c09,651c1e4451e108b4dc8ac10c,null,null,"<p style=""font-size: 60px; font-family: BACS"">ZNLOvUbG</p>",,,,,,,,,,
html-keyboard-response,119,175798,0.0-10.0-0.30,60d7605d7af8d66774061717,650c16f0f2faf8d7a0d14c09,651c1e4451e108b4dc8ac10c,null,null,"<p style=""font-size: 60px; font-family: BACS"">DhMtTmc</p>",,,,,,,,,,
html-keyboard-response,120,176810,0.0-10.0-0.31,60d7605d7af8d66774061717,650c16f0f2faf8d7a0d14c09,651c1e4451e108b4dc8ac10c,null,null,"<p style=""font-size: 60px; font-family: BACS"">CYPcTRkY</p>",,,,,,,,,,
html-keyboard-response,121,177821,0.0-10.0-0.32,60d7605d7af8d66774061717,650c16f0f2faf8d7a0d14c09,651c1e4451e108b4dc8ac10c,null,null,"<p style=""font-size: 60px; font-family: BACS"">mUOcOLkNc</p>",,,,,,,,,,
html-keyboard-response,122,178835,0.0-10.0-0.33,60d7605d7af8d66774061717,650c16f0f2faf8d7a0d14c09,651c1e4451e108b4dc8ac10c,null,null,"<p style=""font-size: 60px; font-family: BACS"">ZNLOvYZJO</p>",,,,,,,,,,
html-keyboard-response,123,179844,0.0-10.0-0.34,60d7605d7af8d66774061717,650c16f0f2faf8d7a0d14c09,651c1e4451e108b4dc8ac10c,null,null,"<p style=""font-size: 60px; font-family: BACS"">mBbKTmTm</p>",,,,,,,,,,
html-keyboard-response,124,180857,0.0-10.0-0.35,60d7605d7af8d66774061717,650c16f0f2faf8d7a0d14c09,651c1e4451e108b4dc8ac10c,null,null,"<p style=""font-size: 60px; font-family: BACS"">uQuZcLkNc</p>",,,,,,,,,,
html-keyboard-response,125,181867,0.0-10.0-0.36,60d7605d7af8d66774061717,650c16f0f2faf8d7a0d14c09,651c1e4451e108b4dc8ac10c,null,null,"<p style=""font-size: 60px; font-family: BACS"">DcPTcYcM</p>",,,,,,,,,,
html-keyboard-response,126,182880,0.0-10.0-0.37,60d7605d7af8d66774061717,650c16f0f2faf8d7a0d14c09,651c1e4451e108b4dc8ac10c,null,null,"<p style=""font-size: 60px; font-family: BACS"">OtlRTmc</p>",,,,,,,,,,
html-keyboard-response,127,183890,0.0-10.0-0.38,60d7605d7af8d66774061717,650c16f0f2faf8d7a0d14c09,651c1e4451e108b4dc8ac10c,null,null,"<p style=""font-size: 60px; font-family: BACS"">TbKMETmTm</p>",,,,,,,,,,
html-keyboard-response,128,184902,0.0-10.0-0.39,60d7605d7af8d66774061717,650c16f0f2faf8d7a0d14c09,651c1e4451e108b4dc8ac10c,null,null,"<p style=""font-size: 60px; font-family: BACS"">CkBOPTmc</p>",,,,,,,,,,
html-keyboard-response,129,185915,0.0-10.0-0.40,60d7605d7af8d66774061717,650c16f0f2faf8d7a0d14c09,651c1e4451e108b4dc8ac10c,null,null,"<p style=""font-size: 60px; font-family: BACS"">uQuZcQvlZ</p>",,,,,,,,,,
html-keyboard-response,130,186921,0.0-10.0-0.41,60d7605d7af8d66774061717,650c16f0f2faf8d7a0d14c09,651c1e4451e108b4dc8ac10c,null,null,"<p style=""font-size: 60px; font-family: BACS"">DhMtYcM</p>",,,,,,,,,,
html-keyboard-response,131,187935,0.0-10.0-0.42,60d7605d7af8d66774061717,650c16f0f2faf8d7a0d14c09,651c1e4451e108b4dc8ac10c,null,null,"<p style=""font-size: 60px; font-family: BACS"">dvNvAUbG</p>",,,,,,,,,,
html-keyboard-response,132,188941,0.0-10.0-0.43,60d7605d7af8d66774061717,650c16f0f2faf8d7a0d14c09,651c1e4451e108b4dc8ac10c,null,null,"<p style=""font-size: 60px; font-family: BACS"">mBbKTmc</p>",,,,,,,,,,
html-keyboard-response,133,189947,0.0-10.0-0.44,60d7605d7af8d66774061717,650c16f0f2faf8d7a0d14c09,651c1e4451e108b4dc8ac10c,null,null,"<p style=""font-size: 60px; font-family: BACS"">mUOcOQvlZ</p>",,,,,,,,,,
html-keyboard-response,134,190950,0.0-10.0-0.45,60d7605d7af8d66774061717,650c16f0f2faf8d7a0d14c09,651c1e4451e108b4dc8ac10c,null,null,"<p style=""font-size: 60px; font-family: BACS"">CYPcTmTm</p>",,,,,,,,,,
html-keyboard-response,135,191952,0.0-10.0-0.46,60d7605d7af8d66774061717,650c16f0f2faf8d7a0d14c09,651c1e4451e108b4dc8ac10c,null,null,"<p style=""font-size: 60px; font-family: BACS"">dGLAlLkNc</p>",,,,,,,,,,
html-keyboard-response,136,192959,0.0-10.0-0.47,60d7605d7af8d66774061717,650c16f0f2faf8d7a0d14c09,651c1e4451e108b4dc8ac10c,null,null,"<p style=""font-size: 60px; font-family: BACS"">AJLrYZJO</p>",,,,,,,,,,
html-keyboard-response,137,193964,0.0-10.0-0.48,60d7605d7af8d66774061717,650c16f0f2faf8d7a0d14c09,651c1e4451e108b4dc8ac10c,null,null,"<p style=""font-size: 60px; font-family: BACS"">YLQmGLkNc</p>",,,,,,,,,,
html-keyboard-response,138,194976,0.0-10.0-0.49,60d7605d7af8d66774061717,650c16f0f2faf8d7a0d14c09,651c1e4451e108b4dc8ac10c,null,null,"<p style=""font-size: 60px; font-family: BACS"">DhMtdCKc</p>",,,,,,,,,,
html-keyboard-response,139,195983,0.0-10.0-0.50,60d7605d7af8d66774061717,650c16f0f2faf8d7a0d14c09,651c1e4451e108b4dc8ac10c,null,null,"<p style=""font-size: 60px; font-family: BACS"">OdlNmQvlZ</p>",,,,,,,,,,
html-keyboard-response,140,196989,0.0-10.0-0.51,60d7605d7af8d66774061717,650c16f0f2faf8d7a0d14c09,651c1e4451e108b4dc8ac10c,null,null,"<p style=""font-size: 60px; font-family: BACS"">DcPTcdCKc</p>",,,,,,,,,,
html-keyboard-response,141,197993,0.0-10.0-0.52,60d7605d7af8d66774061717,650c16f0f2faf8d7a0d14c09,651c1e4451e108b4dc8ac10c,null,null,"<p style=""font-size: 60px; font-family: BACS"">TbKMETmc</p>",,,,,,,,,,
html-keyboard-response,142,199004,0.0-10.0-0.53,60d7605d7af8d66774061717,650c16f0f2faf8d7a0d14c09,651c1e4451e108b4dc8ac10c,null,null,"<p style=""font-size: 60px; font-family: BACS"">dGLAlUbG</p>",,,,,,,,,,
html-keyboard-response,143,200013,0.0-10.0-0.54,60d7605d7af8d66774061717,650c16f0f2faf8d7a0d14c09,651c1e4451e108b4dc8ac10c,null,null,"<p style=""font-size: 60px; font-family: BACS"">mUOcOYZJO</p>",,,,,,,,,,
html-keyboard-response,144,201022,0.0-10.0-0.55,60d7605d7af8d66774061717,650c16f0f2faf8d7a0d14c09,651c1e4451e108b4dc8ac10c,null,null,"<p style=""font-size: 60px; font-family: BACS"">kKRCTRkY</p>",,,,,,,,,,
html-keyboard-response,145,202035,0.0-10.0-0.56,60d7605d7af8d66774061717,650c16f0f2faf8d7a0d14c09,651c1e4451e108b4dc8ac10c,null,null,"<p style=""font-size: 60px; font-family: BACS"">TbKMEdCKc</p>",,,,,,,,,,
html-keyboard-response,146,203047,0.0-10.0-0.57,60d7605d7af8d66774061717,650c16f0f2faf8d7a0d14c09,651c1e4451e108b4dc8ac10c,null,null,"<p style=""font-size: 60px; font-family: BACS"">dvNvALkNc</p>",,,,,,,,,,
html-keyboard-response,147,204049,0.0-10.0-0.58,60d7605d7af8d66774061717,650c16f0f2faf8d7a0d14c09,651c1e4451e108b4dc8ac10c,null,null,"<p style=""font-size: 60px; font-family: BACS"">YLQmGYNu</p>",,,,,,,,,,
html-keyboard-response,148,205062,0.0-10.0-0.59,60d7605d7af8d66774061717,650c16f0f2faf8d7a0d14c09,651c1e4451e108b4dc8ac10c,null,null,"<p style=""font-size: 60px; font-family: BACS"">hbmATmc</p>",,,,,,,,,,
html-keyboard-response,149,206074,0.0-10.0-0.60,60d7605d7af8d66774061717,650c16f0f2faf8d7a0d14c09,651c1e4451e108b4dc8ac10c,null,null,"<p style=""font-size: 60px; font-family: BACS"">OtlRTmTm</p>",,,,,,,,,,
html-keyboard-response,150,207081,0.0-10.0-0.61,60d7605d7af8d66774061717,650c16f0f2faf8d7a0d14c09,651c1e4451e108b4dc8ac10c,null,null,"<p style=""font-size: 60px; font-family: BACS"">DkTCPdCKc</p>",,,,,,,,,,
html-keyboard-response,151,208092,0.0-10.0-0.62,60d7605d7af8d66774061717,650c16f0f2faf8d7a0d14c09,651c1e4451e108b4dc8ac10c,null,null,"<p style=""font-size: 60px; font-family: BACS"">YLQmGQvlZ</p>",,,,,,,,,,
html-keyboard-response,152,209102,0.0-10.0-0.63,60d7605d7af8d66774061717,650c16f0f2faf8d7a0d14c09,651c1e4451e108b4dc8ac10c,null,null,"<p style=""font-size: 60px; font-family: BACS"">uQuZcYZJO</p>",,,,,,,,,,
html-keyboard-response,153,210106,0.0-10.0-0.64,60d7605d7af8d66774061717,650c16f0f2faf8d7a0d14c09,651c1e4451e108b4dc8ac10c,null,null,"<p style=""font-size: 60px; font-family: BACS"">dvNvAQvlZ</p>",,,,,,,,,,
html-keyboard-response,154,211121,0.0-10.0-0.65,60d7605d7af8d66774061717,650c16f0f2faf8d7a0d14c09,651c1e4451e108b4dc8ac10c,null,null,"<p style=""font-size: 60px; font-family: BACS"">YLQmGUbG</p>",,,,,,,,,,
html-keyboard-response,155,212129,0.0-10.0-0.66,60d7605d7af8d66774061717,650c16f0f2faf8d7a0d14c09,651c1e4451e108b4dc8ac10c,null,null,"<p style=""font-size: 60px; font-family: BACS"">DkTCPYcM</p>",,,,,,,,,,
html-keyboard-response,156,213143,0.0-10.0-0.67,60d7605d7af8d66774061717,650c16f0f2faf8d7a0d14c09,651c1e4451e108b4dc8ac10c,null,null,"<p style=""font-size: 60px; font-family: BACS"">AJLrYNu</p>",,,,,,,,,,
html-keyboard-response,157,214151,0.0-10.0-0.68,60d7605d7af8d66774061717,650c16f0f2faf8d7a0d14c09,651c1e4451e108b4dc8ac10c,null,null,"<p style=""font-size: 60px; font-family: BACS"">auYAkUbG</p>",,,,,,,,,,
html-keyboard-response,158,215158,0.0-10.0-0.69,60d7605d7af8d66774061717,650c16f0f2faf8d7a0d14c09,651c1e4451e108b4dc8ac10c,null,null,"<p style=""font-size: 60px; font-family: BACS"">rkJuQvlZ</p>",,,,,,,,,,
html-keyboard-response,159,216169,0.0-10.0-0.70,60d7605d7af8d66774061717,650c16f0f2faf8d7a0d14c09,651c1e4451e108b4dc8ac10c,null,null,"<p style=""font-size: 60px; font-family: BACS"">DcPTcTRkY</p>",,,,,,,,,,
html-keyboard-response,160,217180,0.0-10.0-0.71,60d7605d7af8d66774061717,650c16f0f2faf8d7a0d14c09,651c1e4451e108b4dc8ac10c,null,null,"<p style=""font-size: 60px; font-family: BACS"">AJLrUbG</p>",,,,,,,,,,
html-keyboard-response,161,218189,0.0-10.0-0.72,60d7605d7af8d66774061717,650c16f0f2faf8d7a0d14c09,651c1e4451e108b4dc8ac10c,null,null,"<p style=""font-size: 60px; font-family: BACS"">mBbKTRkY</p>",,,,,,,,,,
html-keyboard-response,162,219197,0.0-10.0-0.73,60d7605d7af8d66774061717,650c16f0f2faf8d7a0d14c09,651c1e4451e108b4dc8ac10c,null,null,"<p style=""font-size: 60px; font-family: BACS"">CkBOPTmTm</p>",,,,,,,,,,
html-keyboard-response,163,220207,0.0-10.0-0.74,60d7605d7af8d66774061717,650c16f0f2faf8d7a0d14c09,651c1e4451e108b4dc8ac10c,null,null,"<p style=""font-size: 60px; font-family: BACS"">DkTCPTRkY</p>",,,,,,,,,,
html-keyboard-response,164,221220,0.0-10.0-0.75,60d7605d7af8d66774061717,650c16f0f2faf8d7a0d14c09,651c1e4451e108b4dc8ac10c,null,null,"<p style=""font-size: 60px; font-family: BACS"">hbmAdCKc</p>",,,,,,,,,,
html-keyboard-response,165,222236,0.0-10.0-0.76,60d7605d7af8d66774061717,650c16f0f2faf8d7a0d14c09,651c1e4451e108b4dc8ac10c,null,null,"<p style=""font-size: 60px; font-family: BACS"">auYAkYNu</p>",,,,,,,,,,
html-keyboard-response,166,223246,0.0-10.0-0.77,60d7605d7af8d66774061717,650c16f0f2faf8d7a0d14c09,651c1e4451e108b4dc8ac10c,null,null,"<p style=""font-size: 60px; font-family: BACS"">OtlRTRkY</p>",,,,,,,,,,
html-keyboard-response,167,224256,0.0-10.0-0.78,60d7605d7af8d66774061717,650c16f0f2faf8d7a0d14c09,651c1e4451e108b4dc8ac10c,null,null,"<p style=""font-size: 60px; font-family: BACS"">mUOcOUbG</p>",,,,,,,,,,
html-keyboard-response,168,225265,0.0-10.0-0.79,60d7605d7af8d66774061717,650c16f0f2faf8d7a0d14c09,651c1e4451e108b4dc8ac10c,null,null,"<p style=""font-size: 60px; font-family: BACS"">uQuZcYNu</p>",,,,,,,,,,
html-keyboard-response,169,248528,0.0-11.0,60d7605d7af8d66774061717,650c16f0f2faf8d7a0d14c09,651c1e4451e108b4dc8ac10c,23262, ,"<p>Great, you've seen the second block of words. You may now take a short break.</p>
      <p>Press the spacebar when you're ready to continue.</p>",,,,,,,,,,
html-keyboard-response,170,249542,0.0-12.0-0.0,60d7605d7af8d66774061717,650c16f0f2faf8d7a0d14c09,651c1e4451e108b4dc8ac10c,null,null,"<p style=""font-size: 60px; font-family: BACS"">dvNvAQvlZ</p>",,,,,,,,,,
html-keyboard-response,171,250552,0.0-12.0-0.1,60d7605d7af8d66774061717,650c16f0f2faf8d7a0d14c09,651c1e4451e108b4dc8ac10c,null,null,"<p style=""font-size: 60px; font-family: BACS"">OtlRTmTm</p>",,,,,,,,,,
html-keyboard-response,172,251563,0.0-12.0-0.2,60d7605d7af8d66774061717,650c16f0f2faf8d7a0d14c09,651c1e4451e108b4dc8ac10c,null,null,"<p style=""font-size: 60px; font-family: BACS"">DhMtdCKc</p>",,,,,,,,,,
html-keyboard-response,173,252569,0.0-12.0-0.3,60d7605d7af8d66774061717,650c16f0f2faf8d7a0d14c09,651c1e4451e108b4dc8ac10c,null,null,"<p style=""font-size: 60px; font-family: BACS"">YLQmGYNu</p>",,,,,,,,,,
html-keyboard-response,174,253577,0.0-12.0-0.4,60d7605d7af8d66774061717,650c16f0f2faf8d7a0d14c09,651c1e4451e108b4dc8ac10c,null,null,"<p style=""font-size: 60px; font-family: BACS"">rkJuQvlZ</p>",,,,,,,,,,
html-keyboard-response,175,254585,0.0-12.0-0.5,60d7605d7af8d66774061717,650c16f0f2faf8d7a0d14c09,651c1e4451e108b4dc8ac10c,null,null,"<p style=""font-size: 60px; font-family: BACS"">OdlNmYNu</p>",,,,,,,,,,
html-keyboard-response,176,255601,0.0-12.0-0.6,60d7605d7af8d66774061717,650c16f0f2faf8d7a0d14c09,651c1e4451e108b4dc8ac10c,null,null,"<p style=""font-size: 60px; font-family: BACS"">DhMtYcM</p>",,,,,,,,,,
html-keyboard-response,177,256608,0.0-12.0-0.7,60d7605d7af8d66774061717,650c16f0f2faf8d7a0d14c09,651c1e4451e108b4dc8ac10c,null,null,"<p style=""font-size: 60px; font-family: BACS"">mBbKdCKc</p>",,,,,,,,,,
html-keyboard-response,178,257620,0.0-12.0-0.8,60d7605d7af8d66774061717,650c16f0f2faf8d7a0d14c09,651c1e4451e108b4dc8ac10c,null,null,"<p style=""font-size: 60px; font-family: BACS"">DhMtTmTm</p>",,,,,,,,,,
html-keyboard-response,179,258621,0.0-12.0-0.9,60d7605d7af8d66774061717,650c16f0f2faf8d7a0d14c09,651c1e4451e108b4dc8ac10c,null,null,"<p style=""font-size: 60px; font-family: BACS"">DcPTcdCKc</p>",,,,,,,,,,
html-keyboard-response,180,259635,0.0-12.0-0.10,60d7605d7af8d66774061717,650c16f0f2faf8d7a0d14c09,651c1e4451e108b4dc8ac10c,null,null,"<p style=""font-size: 60px; font-family: BACS"">mUOcOUbG</p>",,,,,,,,,,
html-keyboard-response,181,260646,0.0-12.0-0.11,60d7605d7af8d66774061717,650c16f0f2faf8d7a0d14c09,651c1e4451e108b4dc8ac10c,null,null,"<p style=""font-size: 60px; font-family: BACS"">dvNvAYZJO</p>",,,,,,,,,,
html-keyboard-response,182,261659,0.0-12.0-0.12,60d7605d7af8d66774061717,650c16f0f2faf8d7a0d14c09,651c1e4451e108b4dc8ac10c,null,null,"<p style=""font-size: 60px; font-family: BACS"">DhMtTmc</p>",,,,,,,,,,
html-keyboard-response,183,262672,0.0-12.0-0.13,60d7605d7af8d66774061717,650c16f0f2faf8d7a0d14c09,651c1e4451e108b4dc8ac10c,null,null,"<p style=""font-size: 60px; font-family: BACS"">hbmAYcM</p>",,,,,,,,,,
html-keyboard-response,184,263683,0.0-12.0-0.14,60d7605d7af8d66774061717,650c16f0f2faf8d7a0d14c09,651c1e4451e108b4dc8ac10c,null,null,"<p style=""font-size: 60px; font-family: BACS"">DcPTcTRkY</p>",,,,,,,,,,
html-keyboard-response,185,264690,0.0-12.0-0.15,60d7605d7af8d66774061717,650c16f0f2faf8d7a0d14c09,651c1e4451e108b4dc8ac10c,null,null,"<p style=""font-size: 60px; font-family: BACS"">OdlNmLkNc</p>",,,,,,,,,,
html-keyboard-response,186,265704,0.0-12.0-0.16,60d7605d7af8d66774061717,650c16f0f2faf8d7a0d14c09,651c1e4451e108b4dc8ac10c,null,null,"<p style=""font-size: 60px; font-family: BACS"">CkBOPTmc</p>",,,,,,,,,,
html-keyboard-response,187,266713,0.0-12.0-0.17,60d7605d7af8d66774061717,650c16f0f2faf8d7a0d14c09,651c1e4451e108b4dc8ac10c,null,null,"<p style=""font-size: 60px; font-family: BACS"">DkTCPTRkY</p>",,,,,,,,,,
html-keyboard-response,188,267725,0.0-12.0-0.18,60d7605d7af8d66774061717,650c16f0f2faf8d7a0d14c09,651c1e4451e108b4dc8ac10c,null,null,"<p style=""font-size: 60px; font-family: BACS"">CYPcdCKc</p>",,,,,,,,,,
html-keyboard-response,189,268740,0.0-12.0-0.19,60d7605d7af8d66774061717,650c16f0f2faf8d7a0d14c09,651c1e4451e108b4dc8ac10c,null,null,"<p style=""font-size: 60px; font-family: BACS"">hbmATmc</p>",,,,,,,,,,
html-keyboard-response,190,269754,0.0-12.0-0.20,60d7605d7af8d66774061717,650c16f0f2faf8d7a0d14c09,651c1e4451e108b4dc8ac10c,null,null,"<p style=""font-size: 60px; font-family: BACS"">OtlRTRkY</p>",,,,,,,,,,
html-keyboard-response,191,270767,0.0-12.0-0.21,60d7605d7af8d66774061717,650c16f0f2faf8d7a0d14c09,651c1e4451e108b4dc8ac10c,null,null,"<p style=""font-size: 60px; font-family: BACS"">rkJuLkNc</p>",,,,,,,,,,
html-keyboard-response,192,271777,0.0-12.0-0.22,60d7605d7af8d66774061717,650c16f0f2faf8d7a0d14c09,651c1e4451e108b4dc8ac10c,null,null,"<p style=""font-size: 60px; font-family: BACS"">dGLAlUbG</p>",,,,,,,,,,
html-keyboard-response,193,272790,0.0-12.0-0.23,60d7605d7af8d66774061717,650c16f0f2faf8d7a0d14c09,651c1e4451e108b4dc8ac10c,null,null,"<p style=""font-size: 60px; font-family: BACS"">DcPTcYcM</p>",,,,,,,,,,
html-keyboard-response,194,273804,0.0-12.0-0.24,60d7605d7af8d66774061717,650c16f0f2faf8d7a0d14c09,651c1e4451e108b4dc8ac10c,null,null,"<p style=""font-size: 60px; font-family: BACS"">CYPcTRkY</p>",,,,,,,,,,
html-keyboard-response,195,274817,0.0-12.0-0.25,60d7605d7af8d66774061717,650c16f0f2faf8d7a0d14c09,651c1e4451e108b4dc8ac10c,null,null,"<p style=""font-size: 60px; font-family: BACS"">auYAkYNu</p>",,,,,,,,,,
html-keyboard-response,196,275826,0.0-12.0-0.26,60d7605d7af8d66774061717,650c16f0f2faf8d7a0d14c09,651c1e4451e108b4dc8ac10c,null,null,"<p style=""font-size: 60px; font-family: BACS"">uQuZcYZJO</p>",,,,,,,,,,
html-keyboard-response,197,276837,0.0-12.0-0.27,60d7605d7af8d66774061717,650c16f0f2faf8d7a0d14c09,651c1e4451e108b4dc8ac10c,null,null,"<p style=""font-size: 60px; font-family: BACS"">dvNvALkNc</p>",,,,,,,,,,
html-keyboard-response,198,277852,0.0-12.0-0.28,60d7605d7af8d66774061717,650c16f0f2faf8d7a0d14c09,651c1e4451e108b4dc8ac10c,null,null,"<p style=""font-size: 60px; font-family: BACS"">kKRCdCKc</p>",,,,,,,,,,
html-keyboard-response,199,278865,0.0-12.0-0.29,60d7605d7af8d66774061717,650c16f0f2faf8d7a0d14c09,651c1e4451e108b4dc8ac10c,null,null,"<p style=""font-size: 60px; font-family: BACS"">uQuZcQvlZ</p>",,,,,,,,,,
html-keyboard-response,200,279877,0.0-12.0-0.30,60d7605d7af8d66774061717,650c16f0f2faf8d7a0d14c09,651c1e4451e108b4dc8ac10c,null,null,"<p style=""font-size: 60px; font-family: BACS"">dGLAlLkNc</p>",,,,,,,,,,
html-keyboard-response,201,280894,0.0-12.0-0.31,60d7605d7af8d66774061717,650c16f0f2faf8d7a0d14c09,651c1e4451e108b4dc8ac10c,null,null,"<p style=""font-size: 60px; font-family: BACS"">hbmATRkY</p>",,,,,,,,,,
html-keyboard-response,202,281906,0.0-12.0-0.32,60d7605d7af8d66774061717,650c16f0f2faf8d7a0d14c09,651c1e4451e108b4dc8ac10c,null,null,"<p style=""font-size: 60px; font-family: BACS"">kKRCYcM</p>",,,,,,,,,,
html-keyboard-response,203,282922,0.0-12.0-0.33,60d7605d7af8d66774061717,650c16f0f2faf8d7a0d14c09,651c1e4451e108b4dc8ac10c,null,null,"<p style=""font-size: 60px; font-family: BACS"">uQuZcYNu</p>",,,,,,,,,,
html-keyboard-response,204,283929,0.0-12.0-0.34,60d7605d7af8d66774061717,650c16f0f2faf8d7a0d14c09,651c1e4451e108b4dc8ac10c,null,null,"<p style=""font-size: 60px; font-family: BACS"">ZNLOvQvlZ</p>",,,,,,,,,,
html-keyboard-response,205,284937,0.0-12.0-0.35,60d7605d7af8d66774061717,650c16f0f2faf8d7a0d14c09,651c1e4451e108b4dc8ac10c,null,null,"<p style=""font-size: 60px; font-family: BACS"">kKRCTmTm</p>",,,,,,,,,,
html-keyboard-response,206,285953,0.0-12.0-0.36,60d7605d7af8d66774061717,650c16f0f2faf8d7a0d14c09,651c1e4451e108b4dc8ac10c,null,null,"<p style=""font-size: 60px; font-family: BACS"">hbmAdCKc</p>",,,,,,,,,,
html-keyboard-response,207,286967,0.0-12.0-0.37,60d7605d7af8d66774061717,650c16f0f2faf8d7a0d14c09,651c1e4451e108b4dc8ac10c,null,null,"<p style=""font-size: 60px; font-family: BACS"">mUOcOQvlZ</p>",,,,,,,,,,
html-keyboard-response,208,287974,0.0-12.0-0.38,60d7605d7af8d66774061717,650c16f0f2faf8d7a0d14c09,651c1e4451e108b4dc8ac10c,null,null,"<p style=""font-size: 60px; font-family: BACS"">AJLrYZJO</p>",,,,,,,,,,
html-keyboard-response,209,288983,0.0-12.0-0.39,60d7605d7af8d66774061717,650c16f0f2faf8d7a0d14c09,651c1e4451e108b4dc8ac10c,null,null,"<p style=""font-size: 60px; font-family: BACS"">TbKMEdCKc</p>",,,,,,,,,,
html-keyboard-response,210,289995,0.0-12.0-0.40,60d7605d7af8d66774061717,650c16f0f2faf8d7a0d14c09,651c1e4451e108b4dc8ac10c,null,null,"<p style=""font-size: 60px; font-family: BACS"">AJLrUbG</p>",,,,,,,,,,
html-keyboard-response,211,291007,0.0-12.0-0.41,60d7605d7af8d66774061717,650c16f0f2faf8d7a0d14c09,651c1e4451e108b4dc8ac10c,null,null,"<p style=""font-size: 60px; font-family: BACS"">CkBOPTRkY</p>",,,,,,,,,,
html-keyboard-response,212,292018,0.0-12.0-0.42,60d7605d7af8d66774061717,650c16f0f2faf8d7a0d14c09,651c1e4451e108b4dc8ac10c,null,null,"<p style=""font-size: 60px; font-family: BACS"">DkTCPYcM</p>",,,,,,,,,,
html-keyboard-response,213,293029,0.0-12.0-0.43,60d7605d7af8d66774061717,650c16f0f2faf8d7a0d14c09,651c1e4451e108b4dc8ac10c,null,null,"<p style=""font-size: 60px; font-family: BACS"">dvNvAUbG</p>",,,,,,,,,,
html-keyboard-response,214,294042,0.0-12.0-0.44,60d7605d7af8d66774061717,650c16f0f2faf8d7a0d14c09,651c1e4451e108b4dc8ac10c,null,null,"<p style=""font-size: 60px; font-family: BACS"">CkBOPTmTm</p>",,,,,,,,,,
html-keyboard-response,215,295052,0.0-12.0-0.45,60d7605d7af8d66774061717,650c16f0f2faf8d7a0d14c09,651c1e4451e108b4dc8ac10c,null,null,"<p style=""font-size: 60px; font-family: BACS"">TbKMEYcM</p>",,,,,,,,,,
html-keyboard-response,216,296063,0.0-12.0-0.46,60d7605d7af8d66774061717,650c16f0f2faf8d7a0d14c09,651c1e4451e108b4dc8ac10c,null,null,"<p style=""font-size: 60px; font-family: BACS"">OdlNmQvlZ</p>",,,,,,,,,,
html-keyboard-response,217,297076,0.0-12.0-0.47,60d7605d7af8d66774061717,650c16f0f2faf8d7a0d14c09,651c1e4451e108b4dc8ac10c,null,null,"<p style=""font-size: 60px; font-family: BACS"">OtlRYcM</p>",,,,,,,,,,
html-keyboard-response,218,298085,0.0-12.0-0.48,60d7605d7af8d66774061717,650c16f0f2faf8d7a0d14c09,651c1e4451e108b4dc8ac10c,null,null,"<p style=""font-size: 60px; font-family: BACS"">AJLrLkNc</p>",,,,,,,,,,
html-keyboard-response,219,299097,0.0-12.0-0.49,60d7605d7af8d66774061717,650c16f0f2faf8d7a0d14c09,651c1e4451e108b4dc8ac10c,null,null,"<p style=""font-size: 60px; font-family: BACS"">mBbKTmTm</p>",,,,,,,,,,
html-keyboard-response,220,300103,0.0-12.0-0.50,60d7605d7af8d66774061717,650c16f0f2faf8d7a0d14c09,651c1e4451e108b4dc8ac10c,null,null,"<p style=""font-size: 60px; font-family: BACS"">ZNLOvYNu</p>",,,,,,,,,,
html-keyboard-response,221,301112,0.0-12.0-0.51,60d7605d7af8d66774061717,650c16f0f2faf8d7a0d14c09,651c1e4451e108b4dc8ac10c,null,null,"<p style=""font-size: 60px; font-family: BACS"">CYPcTmTm</p>",,,,,,,,,,
html-keyboard-response,222,302120,0.0-12.0-0.52,60d7605d7af8d66774061717,650c16f0f2faf8d7a0d14c09,651c1e4451e108b4dc8ac10c,null,null,"<p style=""font-size: 60px; font-family: BACS"">OtlRTmc</p>",,,,,,,,,,
html-keyboard-response,223,303130,0.0-12.0-0.53,60d7605d7af8d66774061717,650c16f0f2faf8d7a0d14c09,651c1e4451e108b4dc8ac10c,null,null,"<p style=""font-size: 60px; font-family: BACS"">YLQmGLkNc</p>",,,,,,,,,,
html-keyboard-response,224,304139,0.0-12.0-0.54,60d7605d7af8d66774061717,650c16f0f2faf8d7a0d14c09,651c1e4451e108b4dc8ac10c,null,null,"<p style=""font-size: 60px; font-family: BACS"">CkBOPYcM</p>",,,,,,,,,,
html-keyboard-response,225,305146,0.0-12.0-0.55,60d7605d7af8d66774061717,650c16f0f2faf8d7a0d14c09,651c1e4451e108b4dc8ac10c,null,null,"<p style=""font-size: 60px; font-family: BACS"">ZNLOvUbG</p>",,,,,,,,,,
html-keyboard-response,226,306157,0.0-12.0-0.56,60d7605d7af8d66774061717,650c16f0f2faf8d7a0d14c09,651c1e4451e108b4dc8ac10c,null,null,"<p style=""font-size: 60px; font-family: BACS"">DcPTcTmc</p>",,,,,,,,,,
html-keyboard-response,227,307165,0.0-12.0-0.57,60d7605d7af8d66774061717,650c16f0f2faf8d7a0d14c09,651c1e4451e108b4dc8ac10c,null,null,"<p style=""font-size: 60px; font-family: BACS"">DkTCPdCKc</p>",,,,,,,,,,
html-keyboard-response,228,308168,0.0-12.0-0.58,60d7605d7af8d66774061717,650c16f0f2faf8d7a0d14c09,651c1e4451e108b4dc8ac10c,null,null,"<p style=""font-size: 60px; font-family: BACS"">auYAkUbG</p>",,,,,,,,,,
html-keyboard-response,229,309177,0.0-12.0-0.59,60d7605d7af8d66774061717,650c16f0f2faf8d7a0d14c09,651c1e4451e108b4dc8ac10c,null,null,"<p style=""font-size: 60px; font-family: BACS"">DkTCPTmTm</p>",,,,,,,,,,
html-keyboard-response,230,310191,0.0-12.0-0.60,60d7605d7af8d66774061717,650c16f0f2faf8d7a0d14c09,651c1e4451e108b4dc8ac10c,null,null,"<p style=""font-size: 60px; font-family: BACS"">mUOcOLkNc</p>",,,,,,,,,,
html-keyboard-response,231,311194,0.0-12.0-0.61,60d7605d7af8d66774061717,650c16f0f2faf8d7a0d14c09,651c1e4451e108b4dc8ac10c,null,null,"<p style=""font-size: 60px; font-family: BACS"">AJLrYNu</p>",,,,,,,,,,
html-keyboard-response,232,312205,0.0-12.0-0.62,60d7605d7af8d66774061717,650c16f0f2faf8d7a0d14c09,651c1e4451e108b4dc8ac10c,null,null,"<p style=""font-size: 60px; font-family: BACS"">ZNLOvYZJO</p>",,,,,,,,,,
html-keyboard-response,233,313211,0.0-12.0-0.63,60d7605d7af8d66774061717,650c16f0f2faf8d7a0d14c09,651c1e4451e108b4dc8ac10c,null,null,"<p style=""font-size: 60px; font-family: BACS"">mBbKTRkY</p>",,,,,,,,,,
html-keyboard-response,234,314214,0.0-12.0-0.64,60d7605d7af8d66774061717,650c16f0f2faf8d7a0d14c09,651c1e4451e108b4dc8ac10c,null,null,"<p style=""font-size: 60px; font-family: BACS"">uQuZcLkNc</p>",,,,,,,,,,
html-keyboard-response,235,315228,0.0-12.0-0.65,60d7605d7af8d66774061717,650c16f0f2faf8d7a0d14c09,651c1e4451e108b4dc8ac10c,null,null,"<p style=""font-size: 60px; font-family: BACS"">OdlNmUbG</p>",,,,,,,,,,
html-keyboard-response,236,316241,0.0-12.0-0.66,60d7605d7af8d66774061717,650c16f0f2faf8d7a0d14c09,651c1e4451e108b4dc8ac10c,null,null,"<p style=""font-size: 60px; font-family: BACS"">TbKMETmc</p>",,,,,,,,,,
html-keyboard-response,237,317256,0.0-12.0-0.67,60d7605d7af8d66774061717,650c16f0f2faf8d7a0d14c09,651c1e4451e108b4dc8ac10c,null,null,"<p style=""font-size: 60px; font-family: BACS"">mUOcOYZJO</p>",,,,,,,,,,
html-keyboard-response,238,318265,0.0-12.0-0.68,60d7605d7af8d66774061717,650c16f0f2faf8d7a0d14c09,651c1e4451e108b4dc8ac10c,null,null,"<p style=""font-size: 60px; font-family: BACS"">dGLAlYNu</p>",,,,,,,,,,
html-keyboard-response,239,319276,0.0-12.0-0.69,60d7605d7af8d66774061717,650c16f0f2faf8d7a0d14c09,651c1e4451e108b4dc8ac10c,null,null,"<p style=""font-size: 60px; font-family: BACS"">YLQmGQvlZ</p>",,,,,,,,,,
html-keyboard-response,240,320288,0.0-12.0-0.70,60d7605d7af8d66774061717,650c16f0f2faf8d7a0d14c09,651c1e4451e108b4dc8ac10c,null,null,"<p style=""font-size: 60px; font-family: BACS"">mBbKTmc</p>",,,,,,,,,,
html-keyboard-response,241,321301,0.0-12.0-0.71,60d7605d7af8d66774061717,650c16f0f2faf8d7a0d14c09,651c1e4451e108b4dc8ac10c,null,null,"<p style=""font-size: 60px; font-family: BACS"">auYAkQvlZ</p>",,,,,,,,,,
html-keyboard-response,242,322312,0.0-12.0-0.72,60d7605d7af8d66774061717,650c16f0f2faf8d7a0d14c09,651c1e4451e108b4dc8ac10c,null,null,"<p style=""font-size: 60px; font-family: BACS"">kKRCTRkY</p>",,,,,,,,,,
html-keyboard-response,243,323328,0.0-12.0-0.73,60d7605d7af8d66774061717,650c16f0f2faf8d7a0d14c09,651c1e4451e108b4dc8ac10c,null,null,"<p style=""font-size: 60px; font-family: BACS"">rkJuYNu</p>",,,,,,,,,,
html-keyboard-response,244,324341,0.0-12.0-0.74,60d7605d7af8d66774061717,650c16f0f2faf8d7a0d14c09,651c1e4451e108b4dc8ac10c,null,null,"<p style=""font-size: 60px; font-family: BACS"">TbKMETmTm</p>",,,,,,,,,,
html-keyboard-response,245,325348,0.0-12.0-0.75,60d7605d7af8d66774061717,650c16f0f2faf8d7a0d14c09,651c1e4451e108b4dc8ac10c,null,null,"<p style=""font-size: 60px; font-family: BACS"">auYAkYZJO</p>",,,,,,,,,,
html-keyboard-response,246,326357,0.0-12.0-0.76,60d7605d7af8d66774061717,650c16f0f2faf8d7a0d14c09,651c1e4451e108b4dc8ac10c,null,null,"<p style=""font-size: 60px; font-family: BACS"">YLQmGUbG</p>",,,,,,,,,,
html-keyboard-response,247,327373,0.0-12.0-0.77,60d7605d7af8d66774061717,650c16f0f2faf8d7a0d14c09,651c1e4451e108b4dc8ac10c,null,null,"<p style=""font-size: 60px; font-family: BACS"">rkJuYZJO</p>",,,,,,,,,,
html-keyboard-response,248,328383,0.0-12.0-0.78,60d7605d7af8d66774061717,650c16f0f2faf8d7a0d14c09,651c1e4451e108b4dc8ac10c,null,null,"<p style=""font-size: 60px; font-family: BACS"">CYPcTmc</p>",,,,,,,,,,
html-keyboard-response,249,329391,0.0-12.0-0.79,60d7605d7af8d66774061717,650c16f0f2faf8d7a0d14c09,651c1e4451e108b4dc8ac10c,null,null,"<p style=""font-size: 60px; font-family: BACS"">dGLAlYZJO</p>",,,,,,,,,,
html-keyboard-response,250,360506,0.0-13.0,60d7605d7af8d66774061717,650c16f0f2faf8d7a0d14c09,651c1e4451e108b4dc8ac10c,31114, ,"<p>Great, you've seen the third block of words. You may now take a short break.</p>
      <p>Press the spacebar when you're ready to continue.</p>",,,,,,,,,,
html-keyboard-response,251,361512,0.0-14.0-0.0,60d7605d7af8d66774061717,650c16f0f2faf8d7a0d14c09,651c1e4451e108b4dc8ac10c,null,null,"<p style=""font-size: 60px; font-family: BACS"">rkJuQvlZ</p>",,,,,,,,,,
html-keyboard-response,252,362521,0.0-14.0-0.1,60d7605d7af8d66774061717,650c16f0f2faf8d7a0d14c09,651c1e4451e108b4dc8ac10c,null,null,"<p style=""font-size: 60px; font-family: BACS"">ZNLOvYZJO</p>",,,,,,,,,,
html-keyboard-response,253,363531,0.0-14.0-0.2,60d7605d7af8d66774061717,650c16f0f2faf8d7a0d14c09,651c1e4451e108b4dc8ac10c,null,null,"<p style=""font-size: 60px; font-family: BACS"">auYAkUbG</p>",,,,,,,,,,
html-keyboard-response,254,364539,0.0-14.0-0.3,60d7605d7af8d66774061717,650c16f0f2faf8d7a0d14c09,651c1e4451e108b4dc8ac10c,null,null,"<p style=""font-size: 60px; font-family: BACS"">OtlRTmc</p>",,,,,,,,,,
html-keyboard-response,255,365554,0.0-14.0-0.4,60d7605d7af8d66774061717,650c16f0f2faf8d7a0d14c09,651c1e4451e108b4dc8ac10c,null,null,"<p style=""font-size: 60px; font-family: BACS"">kKRCdCKc</p>",,,,,,,,,,
html-keyboard-response,256,366566,0.0-14.0-0.5,60d7605d7af8d66774061717,650c16f0f2faf8d7a0d14c09,651c1e4451e108b4dc8ac10c,null,null,"<p style=""font-size: 60px; font-family: BACS"">ZNLOvYNu</p>",,,,,,,,,,
html-keyboard-response,257,367572,0.0-14.0-0.6,60d7605d7af8d66774061717,650c16f0f2faf8d7a0d14c09,651c1e4451e108b4dc8ac10c,null,null,"<p style=""font-size: 60px; font-family: BACS"">DhMtTmTm</p>",,,,,,,,,,
html-keyboard-response,258,368580,0.0-14.0-0.7,60d7605d7af8d66774061717,650c16f0f2faf8d7a0d14c09,651c1e4451e108b4dc8ac10c,null,null,"<p style=""font-size: 60px; font-family: BACS"">uQuZcQvlZ</p>",,,,,,,,,,
html-keyboard-response,259,369586,0.0-14.0-0.8,60d7605d7af8d66774061717,650c16f0f2faf8d7a0d14c09,651c1e4451e108b4dc8ac10c,null,null,"<p style=""font-size: 60px; font-family: BACS"">DhMtTmc</p>",,,,,,,,,,
html-keyboard-response,260,370594,0.0-14.0-0.9,60d7605d7af8d66774061717,650c16f0f2faf8d7a0d14c09,651c1e4451e108b4dc8ac10c,null,null,"<p style=""font-size: 60px; font-family: BACS"">hbmAYcM</p>",,,,,,,,,,
html-keyboard-response,261,371603,0.0-14.0-0.10,60d7605d7af8d66774061717,650c16f0f2faf8d7a0d14c09,651c1e4451e108b4dc8ac10c,null,null,"<p style=""font-size: 60px; font-family: BACS"">DkTCPTmTm</p>",,,,,,,,,,
html-keyboard-response,262,372615,0.0-14.0-0.11,60d7605d7af8d66774061717,650c16f0f2faf8d7a0d14c09,651c1e4451e108b4dc8ac10c,null,null,"<p style=""font-size: 60px; font-family: BACS"">YLQmGUbG</p>",,,,,,,,,,
html-keyboard-response,263,373626,0.0-14.0-0.12,60d7605d7af8d66774061717,650c16f0f2faf8d7a0d14c09,651c1e4451e108b4dc8ac10c,null,null,"<p style=""font-size: 60px; font-family: BACS"">mBbKTmTm</p>",,,,,,,,,,
html-keyboard-response,264,374637,0.0-14.0-0.13,60d7605d7af8d66774061717,650c16f0f2faf8d7a0d14c09,651c1e4451e108b4dc8ac10c,null,null,"<p style=""font-size: 60px; font-family: BACS"">rkJuYNu</p>",,,,,,,,,,
html-keyboard-response,265,375644,0.0-14.0-0.14,60d7605d7af8d66774061717,650c16f0f2faf8d7a0d14c09,651c1e4451e108b4dc8ac10c,null,null,"<p style=""font-size: 60px; font-family: BACS"">DhMtdCKc</p>",,,,,,,,,,
html-keyboard-response,266,376657,0.0-14.0-0.15,60d7605d7af8d66774061717,650c16f0f2faf8d7a0d14c09,651c1e4451e108b4dc8ac10c,null,null,"<p style=""font-size: 60px; font-family: BACS"">kKRCTmTm</p>",,,,,,,,,,
html-keyboard-response,267,377667,0.0-14.0-0.16,60d7605d7af8d66774061717,650c16f0f2faf8d7a0d14c09,651c1e4451e108b4dc8ac10c,null,null,"<p style=""font-size: 60px; font-family: BACS"">AJLrYNu</p>",,,,,,,,,,
html-keyboard-response,268,378681,0.0-14.0-0.17,60d7605d7af8d66774061717,650c16f0f2faf8d7a0d14c09,651c1e4451e108b4dc8ac10c,null,null,"<p style=""font-size: 60px; font-family: BACS"">hbmATmc</p>",,,,,,,,,,
html-keyboard-response,269,379690,0.0-14.0-0.18,60d7605d7af8d66774061717,650c16f0f2faf8d7a0d14c09,651c1e4451e108b4dc8ac10c,null,null,"<p style=""font-size: 60px; font-family: BACS"">OdlNmUbG</p>",,,,,,,,,,
html-keyboard-response,270,380703,0.0-14.0-0.19,60d7605d7af8d66774061717,650c16f0f2faf8d7a0d14c09,651c1e4451e108b4dc8ac10c,null,null,"<p style=""font-size: 60px; font-family: BACS"">YLQmGQvlZ</p>",,,,,,,,,,
html-keyboard-response,271,381715,0.0-14.0-0.20,60d7605d7af8d66774061717,650c16f0f2faf8d7a0d14c09,651c1e4451e108b4dc8ac10c,null,null,"<p style=""font-size: 60px; font-family: BACS"">auYAkYNu</p>",,,,,,,,,,
html-keyboard-response,272,382723,0.0-14.0-0.21,60d7605d7af8d66774061717,650c16f0f2faf8d7a0d14c09,651c1e4451e108b4dc8ac10c,null,null,"<p style=""font-size: 60px; font-family: BACS"">DcPTcTRkY</p>",,,,,,,,,,
html-keyboard-response,273,383730,0.0-14.0-0.22,60d7605d7af8d66774061717,650c16f0f2faf8d7a0d14c09,651c1e4451e108b4dc8ac10c,null,null,"<p style=""font-size: 60px; font-family: BACS"">mUOcOUbG</p>",,,,,,,,,,
html-keyboard-response,274,384745,0.0-14.0-0.23,60d7605d7af8d66774061717,650c16f0f2faf8d7a0d14c09,651c1e4451e108b4dc8ac10c,null,null,"<p style=""font-size: 60px; font-family: BACS"">DhMtYcM</p>",,,,,,,,,,
html-keyboard-response,275,385754,0.0-14.0-0.24,60d7605d7af8d66774061717,650c16f0f2faf8d7a0d14c09,651c1e4451e108b4dc8ac10c,null,null,"<p style=""font-size: 60px; font-family: BACS"">hbmAdCKc</p>",,,,,,,,,,
html-keyboard-response,276,386766,0.0-14.0-0.25,60d7605d7af8d66774061717,650c16f0f2faf8d7a0d14c09,651c1e4451e108b4dc8ac10c,null,null,"<p style=""font-size: 60px; font-family: BACS"">OtlRYcM</p>",,,,,,,,,,
html-keyboard-response,277,387776,0.0-14.0-0.26,60d7605d7af8d66774061717,650c16f0f2faf8d7a0d14c09,651c1e4451e108b4dc8ac10c,null,null,"<p style=""font-size: 60px; font-family: BACS"">TbKMEdCKc</p>",,,,,,,,,,
html-keyboard-response,278,388788,0.0-14.0-0.27,60d7605d7af8d66774061717,650c16f0f2faf8d7a0d14c09,651c1e4451e108b4dc8ac10c,null,null,"<p style=""font-size: 60px; font-family: BACS"">kKRCTRkY</p>",,,,,,,,,,
html-keyboard-response,279,389803,0.0-14.0-0.28,60d7605d7af8d66774061717,650c16f0f2faf8d7a0d14c09,651c1e4451e108b4dc8ac10c,null,null,"<p style=""font-size: 60px; font-family: BACS"">YLQmGYNu</p>",,,,,,,,,,
html-keyboard-response,280,390816,0.0-14.0-0.29,60d7605d7af8d66774061717,650c16f0f2faf8d7a0d14c09,651c1e4451e108b4dc8ac10c,null,null,"<p style=""font-size: 60px; font-family: BACS"">dvNvAYZJO</p>",,,,,,,,,,
html-keyboard-response,281,391818,0.0-14.0-0.30,60d7605d7af8d66774061717,650c16f0f2faf8d7a0d14c09,651c1e4451e108b4dc8ac10c,null,null,"<p style=""font-size: 60px; font-family: BACS"">mUOcOLkNc</p>",,,,,,,,,,
html-keyboard-response,282,392830,0.0-14.0-0.31,60d7605d7af8d66774061717,650c16f0f2faf8d7a0d14c09,651c1e4451e108b4dc8ac10c,null,null,"<p style=""font-size: 60px; font-family: BACS"">auYAkQvlZ</p>",,,,,,,,,,
html-keyboard-response,283,393837,0.0-14.0-0.32,60d7605d7af8d66774061717,650c16f0f2faf8d7a0d14c09,651c1e4451e108b4dc8ac10c,null,null,"<p style=""font-size: 60px; font-family: BACS"">CkBOPTmTm</p>",,,,,,,,,,
html-keyboard-response,284,394850,0.0-14.0-0.33,60d7605d7af8d66774061717,650c16f0f2faf8d7a0d14c09,651c1e4451e108b4dc8ac10c,null,null,"<p style=""font-size: 60px; font-family: BACS"">mBbKTRkY</p>",,,,,,,,,,
html-keyboard-response,285,395857,0.0-14.0-0.34,60d7605d7af8d66774061717,650c16f0f2faf8d7a0d14c09,651c1e4451e108b4dc8ac10c,null,null,"<p style=""font-size: 60px; font-family: BACS"">dvNvAQvlZ</p>",,,,,,,,,,
html-keyboard-response,286,396869,0.0-14.0-0.35,60d7605d7af8d66774061717,650c16f0f2faf8d7a0d14c09,651c1e4451e108b4dc8ac10c,null,null,"<p style=""font-size: 60px; font-family: BACS"">auYAkYZJO</p>",,,,,,,,,,
html-keyboard-response,287,397879,0.0-14.0-0.36,60d7605d7af8d66774061717,650c16f0f2faf8d7a0d14c09,651c1e4451e108b4dc8ac10c,null,null,"<p style=""font-size: 60px; font-family: BACS"">AJLrLkNc</p>",,,,,,,,,,
html-keyboard-response,288,398897,0.0-14.0-0.37,60d7605d7af8d66774061717,650c16f0f2faf8d7a0d14c09,651c1e4451e108b4dc8ac10c,null,null,"<p style=""font-size: 60px; font-family: BACS"">kKRCYcM</p>",,,,,,,,,,
html-keyboard-response,289,399907,0.0-14.0-0.38,60d7605d7af8d66774061717,650c16f0f2faf8d7a0d14c09,651c1e4451e108b4dc8ac10c,null,null,"<p style=""font-size: 60px; font-family: BACS"">CYPcTmc</p>",,,,,,,,,,
html-keyboard-response,290,400920,0.0-14.0-0.39,60d7605d7af8d66774061717,650c16f0f2faf8d7a0d14c09,651c1e4451e108b4dc8ac10c,null,null,"<p style=""font-size: 60px; font-family: BACS"">DcPTcYcM</p>",,,,,,,,,,
html-keyboard-response,291,401930,0.0-14.0-0.40,60d7605d7af8d66774061717,650c16f0f2faf8d7a0d14c09,651c1e4451e108b4dc8ac10c,null,null,"<p style=""font-size: 60px; font-family: BACS"">dvNvALkNc</p>",,,,,,,,,,
html-keyboard-response,292,402940,0.0-14.0-0.41,60d7605d7af8d66774061717,650c16f0f2faf8d7a0d14c09,651c1e4451e108b4dc8ac10c,null,null,"<p style=""font-size: 60px; font-family: BACS"">dGLAlYZJO</p>",,,,,,,,,,
html-keyboard-response,293,403956,0.0-14.0-0.42,60d7605d7af8d66774061717,650c16f0f2faf8d7a0d14c09,651c1e4451e108b4dc8ac10c,null,null,"<p style=""font-size: 60px; font-family: BACS"">YLQmGLkNc</p>",,,,,,,,,,
html-keyboard-response,294,404973,0.0-14.0-0.43,60d7605d7af8d66774061717,650c16f0f2faf8d7a0d14c09,651c1e4451e108b4dc8ac10c,null,null,"<p style=""font-size: 60px; font-family: BACS"">CkBOPTRkY</p>",,,,,,,,,,
html-keyboard-response,295,405974,0.0-14.0-0.44,60d7605d7af8d66774061717,650c16f0f2faf8d7a0d14c09,651c1e4451e108b4dc8ac10c,null,null,"<p style=""font-size: 60px; font-family: BACS"">OdlNmQvlZ</p>",,,,,,,,,,
html-keyboard-response,296,406988,0.0-14.0-0.45,60d7605d7af8d66774061717,650c16f0f2faf8d7a0d14c09,651c1e4451e108b4dc8ac10c,null,null,"<p style=""font-size: 60px; font-family: BACS"">ZNLOvUbG</p>",,,,,,,,,,
html-keyboard-response,297,407995,0.0-14.0-0.46,60d7605d7af8d66774061717,650c16f0f2faf8d7a0d14c09,651c1e4451e108b4dc8ac10c,null,null,"<p style=""font-size: 60px; font-family: BACS"">dGLAlYNu</p>",,,,,,,,,,
html-keyboard-response,298,409008,0.0-14.0-0.47,60d7605d7af8d66774061717,650c16f0f2faf8d7a0d14c09,651c1e4451e108b4dc8ac10c,null,null,"<p style=""font-size: 60px; font-family: BACS"">DkTCPTRkY</p>",,,,,,,,,,
html-keyboard-response,299,410013,0.0-14.0-0.48,60d7605d7af8d66774061717,650c16f0f2faf8d7a0d14c09,651c1e4451e108b4dc8ac10c,null,null,"<p style=""font-size: 60px; font-family: BACS"">ZNLOvQvlZ</p>",,,,,,,,,,
html-keyboard-response,300,411015,0.0-14.0-0.49,60d7605d7af8d66774061717,650c16f0f2faf8d7a0d14c09,651c1e4451e108b4dc8ac10c,null,null,"<p style=""font-size: 60px; font-family: BACS"">CkBOPTmc</p>",,,,,,,,,,
html-keyboard-response,301,412031,0.0-14.0-0.50,60d7605d7af8d66774061717,650c16f0f2faf8d7a0d14c09,651c1e4451e108b4dc8ac10c,null,null,"<p style=""font-size: 60px; font-family: BACS"">dvNvAUbG</p>",,,,,,,,,,
html-keyboard-response,302,413044,0.0-14.0-0.51,60d7605d7af8d66774061717,650c16f0f2faf8d7a0d14c09,651c1e4451e108b4dc8ac10c,null,null,"<p style=""font-size: 60px; font-family: BACS"">mUOcOQvlZ</p>",,,,,,,,,,
html-keyboard-response,303,414052,0.0-14.0-0.52,60d7605d7af8d66774061717,650c16f0f2faf8d7a0d14c09,651c1e4451e108b4dc8ac10c,null,null,"<p style=""font-size: 60px; font-family: BACS"">CYPcTmTm</p>",,,,,,,,,,
html-keyboard-response,304,415070,0.0-14.0-0.53,60d7605d7af8d66774061717,650c16f0f2faf8d7a0d14c09,651c1e4451e108b4dc8ac10c,null,null,"<p style=""font-size: 60px; font-family: BACS"">AJLrUbG</p>",,,,,,,,,,
html-keyboard-response,305,416083,0.0-14.0-0.54,60d7605d7af8d66774061717,650c16f0f2faf8d7a0d14c09,651c1e4451e108b4dc8ac10c,null,null,"<p style=""font-size: 60px; font-family: BACS"">uQuZcYZJO</p>",,,,,,,,,,
html-keyboard-response,306,417097,0.0-14.0-0.55,60d7605d7af8d66774061717,650c16f0f2faf8d7a0d14c09,651c1e4451e108b4dc8ac10c,null,null,"<p style=""font-size: 60px; font-family: BACS"">mBbKdCKc</p>",,,,,,,,,,
html-keyboard-response,307,418112,0.0-14.0-0.56,60d7605d7af8d66774061717,650c16f0f2faf8d7a0d14c09,651c1e4451e108b4dc8ac10c,null,null,"<p style=""font-size: 60px; font-family: BACS"">TbKMETmc</p>",,,,,,,,,,
html-keyboard-response,308,419123,0.0-14.0-0.57,60d7605d7af8d66774061717,650c16f0f2faf8d7a0d14c09,651c1e4451e108b4dc8ac10c,null,null,"<p style=""font-size: 60px; font-family: BACS"">DcPTcdCKc</p>",,,,,,,,,,
html-keyboard-response,309,420126,0.0-14.0-0.58,60d7605d7af8d66774061717,650c16f0f2faf8d7a0d14c09,651c1e4451e108b4dc8ac10c,null,null,"<p style=""font-size: 60px; font-family: BACS"">TbKMETmTm</p>",,,,,,,,,,
html-keyboard-response,310,421142,0.0-14.0-0.59,60d7605d7af8d66774061717,650c16f0f2faf8d7a0d14c09,651c1e4451e108b4dc8ac10c,null,null,"<p style=""font-size: 60px; font-family: BACS"">OdlNmLkNc</p>",,,,,,,,,,
html-keyboard-response,311,422151,0.0-14.0-0.60,60d7605d7af8d66774061717,650c16f0f2faf8d7a0d14c09,651c1e4451e108b4dc8ac10c,null,null,"<p style=""font-size: 60px; font-family: BACS"">DkTCPYcM</p>",,,,,,,,,,
html-keyboard-response,312,423166,0.0-14.0-0.61,60d7605d7af8d66774061717,650c16f0f2faf8d7a0d14c09,651c1e4451e108b4dc8ac10c,null,null,"<p style=""font-size: 60px; font-family: BACS"">CYPcTRkY</p>",,,,,,,,,,
html-keyboard-response,313,424175,0.0-14.0-0.62,60d7605d7af8d66774061717,650c16f0f2faf8d7a0d14c09,651c1e4451e108b4dc8ac10c,null,null,"<p style=""font-size: 60px; font-family: BACS"">uQuZcYNu</p>",,,,,,,,,,
html-keyboard-response,314,425186,0.0-14.0-0.63,60d7605d7af8d66774061717,650c16f0f2faf8d7a0d14c09,651c1e4451e108b4dc8ac10c,null,null,"<p style=""font-size: 60px; font-family: BACS"">OtlRTmTm</p>",,,,,,,,,,
html-keyboard-response,315,426194,0.0-14.0-0.64,60d7605d7af8d66774061717,650c16f0f2faf8d7a0d14c09,651c1e4451e108b4dc8ac10c,null,null,"<p style=""font-size: 60px; font-family: BACS"">dGLAlUbG</p>",,,,,,,,,,
html-keyboard-response,316,427207,0.0-14.0-0.65,60d7605d7af8d66774061717,650c16f0f2faf8d7a0d14c09,651c1e4451e108b4dc8ac10c,null,null,"<p style=""font-size: 60px; font-family: BACS"">CYPcdCKc</p>",,,,,,,,,,
html-keyboard-response,317,428218,0.0-14.0-0.66,60d7605d7af8d66774061717,650c16f0f2faf8d7a0d14c09,651c1e4451e108b4dc8ac10c,null,null,"<p style=""font-size: 60px; font-family: BACS"">hbmATRkY</p>",,,,,,,,,,
html-keyboard-response,318,429227,0.0-14.0-0.67,60d7605d7af8d66774061717,650c16f0f2faf8d7a0d14c09,651c1e4451e108b4dc8ac10c,null,null,"<p style=""font-size: 60px; font-family: BACS"">OdlNmYNu</p>",,,,,,,,,,
html-keyboard-response,319,430239,0.0-14.0-0.68,60d7605d7af8d66774061717,650c16f0f2faf8d7a0d14c09,651c1e4451e108b4dc8ac10c,null,null,"<p style=""font-size: 60px; font-family: BACS"">DkTCPdCKc</p>",,,,,,,,,,
html-keyboard-response,320,431252,0.0-14.0-0.69,60d7605d7af8d66774061717,650c16f0f2faf8d7a0d14c09,651c1e4451e108b4dc8ac10c,null,null,"<p style=""font-size: 60px; font-family: BACS"">uQuZcLkNc</p>",,,,,,,,,,
html-keyboard-response,321,432262,0.0-14.0-0.70,60d7605d7af8d66774061717,650c16f0f2faf8d7a0d14c09,651c1e4451e108b4dc8ac10c,null,null,"<p style=""font-size: 60px; font-family: BACS"">DcPTcTmc</p>",,,,,,,,,,
html-keyboard-response,322,433279,0.0-14.0-0.71,60d7605d7af8d66774061717,650c16f0f2faf8d7a0d14c09,651c1e4451e108b4dc8ac10c,null,null,"<p style=""font-size: 60px; font-family: BACS"">mUOcOYZJO</p>",,,,,,,,,,
html-keyboard-response,323,434291,0.0-14.0-0.72,60d7605d7af8d66774061717,650c16f0f2faf8d7a0d14c09,651c1e4451e108b4dc8ac10c,null,null,"<p style=""font-size: 60px; font-family: BACS"">mBbKTmc</p>",,,,,,,,,,
html-keyboard-response,324,435298,0.0-14.0-0.73,60d7605d7af8d66774061717,650c16f0f2faf8d7a0d14c09,651c1e4451e108b4dc8ac10c,null,null,"<p style=""font-size: 60px; font-family: BACS"">CkBOPYcM</p>",,,,,,,,,,
html-keyboard-response,325,436313,0.0-14.0-0.74,60d7605d7af8d66774061717,650c16f0f2faf8d7a0d14c09,651c1e4451e108b4dc8ac10c,null,null,"<p style=""font-size: 60px; font-family: BACS"">rkJuYZJO</p>",,,,,,,,,,
html-keyboard-response,326,437323,0.0-14.0-0.75,60d7605d7af8d66774061717,650c16f0f2faf8d7a0d14c09,651c1e4451e108b4dc8ac10c,null,null,"<p style=""font-size: 60px; font-family: BACS"">OtlRTRkY</p>",,,,,,,,,,
html-keyboard-response,327,438337,0.0-14.0-0.76,60d7605d7af8d66774061717,650c16f0f2faf8d7a0d14c09,651c1e4451e108b4dc8ac10c,null,null,"<p style=""font-size: 60px; font-family: BACS"">rkJuLkNc</p>",,,,,,,,,,
html-keyboard-response,328,439348,0.0-14.0-0.77,60d7605d7af8d66774061717,650c16f0f2faf8d7a0d14c09,651c1e4451e108b4dc8ac10c,null,null,"<p style=""font-size: 60px; font-family: BACS"">AJLrYZJO</p>",,,,,,,,,,
html-keyboard-response,329,440359,0.0-14.0-0.78,60d7605d7af8d66774061717,650c16f0f2faf8d7a0d14c09,651c1e4451e108b4dc8ac10c,null,null,"<p style=""font-size: 60px; font-family: BACS"">dGLAlLkNc</p>",,,,,,,,,,
html-keyboard-response,330,441371,0.0-14.0-0.79,60d7605d7af8d66774061717,650c16f0f2faf8d7a0d14c09,651c1e4451e108b4dc8ac10c,null,null,"<p style=""font-size: 60px; font-family: BACS"">TbKMEYcM</p>",,,,,,,,,,
html-keyboard-response,331,497601,0.0-15.0,60d7605d7af8d66774061717,650c16f0f2faf8d7a0d14c09,651c1e4451e108b4dc8ac10c,56229, ,"<p>Great, you've seen the fourth block of words. You may now take a short break.</p>
      <p>Press the spacebar when you're ready to continue.</p>",,,,,,,,,,
html-keyboard-response,332,498618,0.0-16.0-0.0,60d7605d7af8d66774061717,650c16f0f2faf8d7a0d14c09,651c1e4451e108b4dc8ac10c,null,null,"<p style=""font-size: 60px; font-family: BACS"">rkJuLkNc</p>",,,,,,,,,,
html-keyboard-response,333,499630,0.0-16.0-0.1,60d7605d7af8d66774061717,650c16f0f2faf8d7a0d14c09,651c1e4451e108b4dc8ac10c,null,null,"<p style=""font-size: 60px; font-family: BACS"">rkJuLkNc</p>",,,,,,,,,,
html-keyboard-response,334,500641,0.0-16.0-0.2,60d7605d7af8d66774061717,650c16f0f2faf8d7a0d14c09,651c1e4451e108b4dc8ac10c,null,null,"<p style=""font-size: 60px; font-family: BACS"">rkJuLkNc</p>",,,,,,,,,,
html-keyboard-response,335,501657,0.0-16.0-0.3,60d7605d7af8d66774061717,650c16f0f2faf8d7a0d14c09,651c1e4451e108b4dc8ac10c,null,null,"<p style=""font-size: 60px; font-family: BACS"">rkJuLkNc</p>",,,,,,,,,,
html-keyboard-response,336,502670,0.0-16.0-0.4,60d7605d7af8d66774061717,650c16f0f2faf8d7a0d14c09,651c1e4451e108b4dc8ac10c,null,null,"<p style=""font-size: 60px; font-family: BACS"">rkJuLkNc</p>",,,,,,,,,,
html-keyboard-response,337,503678,0.0-16.0-0.5,60d7605d7af8d66774061717,650c16f0f2faf8d7a0d14c09,651c1e4451e108b4dc8ac10c,null,null,"<p style=""font-size: 60px; font-family: BACS"">rkJuLkNc</p>",,,,,,,,,,
html-keyboard-response,338,504686,0.0-16.0-0.6,60d7605d7af8d66774061717,650c16f0f2faf8d7a0d14c09,651c1e4451e108b4dc8ac10c,null,null,"<p style=""font-size: 60px; font-family: BACS"">rkJuLkNc</p>",,,,,,,,,,
html-keyboard-response,339,505703,0.0-16.0-0.7,60d7605d7af8d66774061717,650c16f0f2faf8d7a0d14c09,651c1e4451e108b4dc8ac10c,null,null,"<p style=""font-size: 60px; font-family: BACS"">rkJuLkNc</p>",,,,,,,,,,
html-keyboard-response,340,506716,0.0-16.0-0.8,60d7605d7af8d66774061717,650c16f0f2faf8d7a0d14c09,651c1e4451e108b4dc8ac10c,null,null,"<p style=""font-size: 60px; font-family: BACS"">rkJuLkNc</p>",,,,,,,,,,
html-keyboard-response,341,507726,0.0-16.0-0.9,60d7605d7af8d66774061717,650c16f0f2faf8d7a0d14c09,651c1e4451e108b4dc8ac10c,null,null,"<p style=""font-size: 60px; font-family: BACS"">rkJuLkNc</p>",,,,,,,,,,
html-keyboard-response,342,508735,0.0-16.0-0.10,60d7605d7af8d66774061717,650c16f0f2faf8d7a0d14c09,651c1e4451e108b4dc8ac10c,null,null,"<p style=""font-size: 60px; font-family: BACS"">rkJuLkNc</p>",,,,,,,,,,
html-keyboard-response,343,509750,0.0-16.0-0.11,60d7605d7af8d66774061717,650c16f0f2faf8d7a0d14c09,651c1e4451e108b4dc8ac10c,null,null,"<p style=""font-size: 60px; font-family: BACS"">rkJuLkNc</p>",,,,,,,,,,
html-keyboard-response,344,510756,0.0-16.0-0.12,60d7605d7af8d66774061717,650c16f0f2faf8d7a0d14c09,651c1e4451e108b4dc8ac10c,null,null,"<p style=""font-size: 60px; font-family: BACS"">rkJuLkNc</p>",,,,,,,,,,
html-keyboard-response,345,511769,0.0-16.0-0.13,60d7605d7af8d66774061717,650c16f0f2faf8d7a0d14c09,651c1e4451e108b4dc8ac10c,null,null,"<p style=""font-size: 60px; font-family: BACS"">rkJuLkNc</p>",,,,,,,,,,
html-keyboard-response,346,512778,0.0-16.0-0.14,60d7605d7af8d66774061717,650c16f0f2faf8d7a0d14c09,651c1e4451e108b4dc8ac10c,null,null,"<p style=""font-size: 60px; font-family: BACS"">rkJuLkNc</p>",,,,,,,,,,
html-keyboard-response,347,513788,0.0-16.0-0.15,60d7605d7af8d66774061717,650c16f0f2faf8d7a0d14c09,651c1e4451e108b4dc8ac10c,null,null,"<p style=""font-size: 60px; font-family: BACS"">rkJuLkNc</p>",,,,,,,,,,
html-keyboard-response,348,514794,0.0-16.0-0.16,60d7605d7af8d66774061717,650c16f0f2faf8d7a0d14c09,651c1e4451e108b4dc8ac10c,null,null,"<p style=""font-size: 60px; font-family: BACS"">rkJuLkNc</p>",,,,,,,,,,
html-keyboard-response,349,515804,0.0-16.0-0.17,60d7605d7af8d66774061717,650c16f0f2faf8d7a0d14c09,651c1e4451e108b4dc8ac10c,null,null,"<p style=""font-size: 60px; font-family: BACS"">rkJuLkNc</p>",,,,,,,,,,
html-keyboard-response,350,516806,0.0-16.0-0.18,60d7605d7af8d66774061717,650c16f0f2faf8d7a0d14c09,651c1e4451e108b4dc8ac10c,null,null,"<p style=""font-size: 60px; font-family: BACS"">rkJuLkNc</p>",,,,,,,,,,
html-keyboard-response,351,517813,0.0-16.0-0.19,60d7605d7af8d66774061717,650c16f0f2faf8d7a0d14c09,651c1e4451e108b4dc8ac10c,null,null,"<p style=""font-size: 60px; font-family: BACS"">rkJuLkNc</p>",,,,,,,,,,
html-keyboard-response,352,518826,0.0-16.0-0.20,60d7605d7af8d66774061717,650c16f0f2faf8d7a0d14c09,651c1e4451e108b4dc8ac10c,null,null,"<p style=""font-size: 60px; font-family: BACS"">rkJuLkNc</p>",,,,,,,,,,
html-keyboard-response,353,519843,0.0-16.0-0.21,60d7605d7af8d66774061717,650c16f0f2faf8d7a0d14c09,651c1e4451e108b4dc8ac10c,null,null,"<p style=""font-size: 60px; font-family: BACS"">rkJuLkNc</p>",,,,,,,,,,
html-keyboard-response,354,520854,0.0-16.0-0.22,60d7605d7af8d66774061717,650c16f0f2faf8d7a0d14c09,651c1e4451e108b4dc8ac10c,null,null,"<p style=""font-size: 60px; font-family: BACS"">rkJuLkNc</p>",,,,,,,,,,
html-keyboard-response,355,521862,0.0-16.0-0.23,60d7605d7af8d66774061717,650c16f0f2faf8d7a0d14c09,651c1e4451e108b4dc8ac10c,null,null,"<p style=""font-size: 60px; font-family: BACS"">rkJuLkNc</p>",,,,,,,,,,
html-keyboard-response,356,522875,0.0-16.0-0.24,60d7605d7af8d66774061717,650c16f0f2faf8d7a0d14c09,651c1e4451e108b4dc8ac10c,null,null,"<p style=""font-size: 60px; font-family: BACS"">rkJuLkNc</p>",,,,,,,,,,
html-keyboard-response,357,523886,0.0-16.0-0.25,60d7605d7af8d66774061717,650c16f0f2faf8d7a0d14c09,651c1e4451e108b4dc8ac10c,null,null,"<p style=""font-size: 60px; font-family: BACS"">rkJuLkNc</p>",,,,,,,,,,
html-keyboard-response,358,524901,0.0-16.0-0.26,60d7605d7af8d66774061717,650c16f0f2faf8d7a0d14c09,651c1e4451e108b4dc8ac10c,null,null,"<p style=""font-size: 60px; font-family: BACS"">rkJuLkNc</p>",,,,,,,,,,
html-keyboard-response,359,525912,0.0-16.0-0.27,60d7605d7af8d66774061717,650c16f0f2faf8d7a0d14c09,651c1e4451e108b4dc8ac10c,null,null,"<p style=""font-size: 60px; font-family: BACS"">rkJuLkNc</p>",,,,,,,,,,
html-keyboard-response,360,526919,0.0-16.0-0.28,60d7605d7af8d66774061717,650c16f0f2faf8d7a0d14c09,651c1e4451e108b4dc8ac10c,null,null,"<p style=""font-size: 60px; font-family: BACS"">rkJuLkNc</p>",,,,,,,,,,
html-keyboard-response,361,527930,0.0-16.0-0.29,60d7605d7af8d66774061717,650c16f0f2faf8d7a0d14c09,651c1e4451e108b4dc8ac10c,null,null,"<p style=""font-size: 60px; font-family: BACS"">rkJuLkNc</p>",,,,,,,,,,
html-keyboard-response,362,528944,0.0-16.0-0.30,60d7605d7af8d66774061717,650c16f0f2faf8d7a0d14c09,651c1e4451e108b4dc8ac10c,null,null,"<p style=""font-size: 60px; font-family: BACS"">rkJuLkNc</p>",,,,,,,,,,
html-keyboard-response,363,529949,0.0-16.0-0.31,60d7605d7af8d66774061717,650c16f0f2faf8d7a0d14c09,651c1e4451e108b4dc8ac10c,null,null,"<p style=""font-size: 60px; font-family: BACS"">rkJuLkNc</p>",,,,,,,,,,
html-keyboard-response,364,530961,0.0-16.0-0.32,60d7605d7af8d66774061717,650c16f0f2faf8d7a0d14c09,651c1e4451e108b4dc8ac10c,null,null,"<p style=""font-size: 60px; font-family: BACS"">rkJuLkNc</p>",,,,,,,,,,
html-keyboard-response,365,531965,0.0-16.0-0.33,60d7605d7af8d66774061717,650c16f0f2faf8d7a0d14c09,651c1e4451e108b4dc8ac10c,null,null,"<p style=""font-size: 60px; font-family: BACS"">rkJuLkNc</p>",,,,,,,,,,
html-keyboard-response,366,532970,0.0-16.0-0.34,60d7605d7af8d66774061717,650c16f0f2faf8d7a0d14c09,651c1e4451e108b4dc8ac10c,null,null,"<p style=""font-size: 60px; font-family: BACS"">rkJuLkNc</p>",,,,,,,,,,
html-keyboard-response,367,533981,0.0-16.0-0.35,60d7605d7af8d66774061717,650c16f0f2faf8d7a0d14c09,651c1e4451e108b4dc8ac10c,null,null,"<p style=""font-size: 60px; font-family: BACS"">rkJuLkNc</p>",,,,,,,,,,
html-keyboard-response,368,534996,0.0-16.0-0.36,60d7605d7af8d66774061717,650c16f0f2faf8d7a0d14c09,651c1e4451e108b4dc8ac10c,null,null,"<p style=""font-size: 60px; font-family: BACS"">rkJuLkNc</p>",,,,,,,,,,
html-keyboard-response,369,536009,0.0-16.0-0.37,60d7605d7af8d66774061717,650c16f0f2faf8d7a0d14c09,651c1e4451e108b4dc8ac10c,null,null,"<p style=""font-size: 60px; font-family: BACS"">rkJuLkNc</p>",,,,,,,,,,
html-keyboard-response,370,537021,0.0-16.0-0.38,60d7605d7af8d66774061717,650c16f0f2faf8d7a0d14c09,651c1e4451e108b4dc8ac10c,null,null,"<p style=""font-size: 60px; font-family: BACS"">rkJuLkNc</p>",,,,,,,,,,
html-keyboard-response,371,538032,0.0-16.0-0.39,60d7605d7af8d66774061717,650c16f0f2faf8d7a0d14c09,651c1e4451e108b4dc8ac10c,null,null,"<p style=""font-size: 60px; font-family: BACS"">rkJuLkNc</p>",,,,,,,,,,
html-keyboard-response,372,539045,0.0-16.0-0.40,60d7605d7af8d66774061717,650c16f0f2faf8d7a0d14c09,651c1e4451e108b4dc8ac10c,null,null,"<p style=""font-size: 60px; font-family: BACS"">rkJuLkNc</p>",,,,,,,,,,
html-keyboard-response,373,540057,0.0-16.0-0.41,60d7605d7af8d66774061717,650c16f0f2faf8d7a0d14c09,651c1e4451e108b4dc8ac10c,null,null,"<p style=""font-size: 60px; font-family: BACS"">rkJuLkNc</p>",,,,,,,,,,
html-keyboard-response,374,541072,0.0-16.0-0.42,60d7605d7af8d66774061717,650c16f0f2faf8d7a0d14c09,651c1e4451e108b4dc8ac10c,null,null,"<p style=""font-size: 60px; font-family: BACS"">rkJuLkNc</p>",,,,,,,,,,
html-keyboard-response,375,542082,0.0-16.0-0.43,60d7605d7af8d66774061717,650c16f0f2faf8d7a0d14c09,651c1e4451e108b4dc8ac10c,null,null,"<p style=""font-size: 60px; font-family: BACS"">rkJuLkNc</p>",,,,,,,,,,
html-keyboard-response,376,543085,0.0-16.0-0.44,60d7605d7af8d66774061717,650c16f0f2faf8d7a0d14c09,651c1e4451e108b4dc8ac10c,null,null,"<p style=""font-size: 60px; font-family: BACS"">rkJuLkNc</p>",,,,,,,,,,
html-keyboard-response,377,544090,0.0-16.0-0.45,60d7605d7af8d66774061717,650c16f0f2faf8d7a0d14c09,651c1e4451e108b4dc8ac10c,null,null,"<p style=""font-size: 60px; font-family: BACS"">rkJuLkNc</p>",,,,,,,,,,
html-keyboard-response,378,545100,0.0-16.0-0.46,60d7605d7af8d66774061717,650c16f0f2faf8d7a0d14c09,651c1e4451e108b4dc8ac10c,null,null,"<p style=""font-size: 60px; font-family: BACS"">rkJuLkNc</p>",,,,,,,,,,
html-keyboard-response,379,546112,0.0-16.0-0.47,60d7605d7af8d66774061717,650c16f0f2faf8d7a0d14c09,651c1e4451e108b4dc8ac10c,null,null,"<p style=""font-size: 60px; font-family: BACS"">rkJuLkNc</p>",,,,,,,,,,
html-keyboard-response,380,547123,0.0-16.0-0.48,60d7605d7af8d66774061717,650c16f0f2faf8d7a0d14c09,651c1e4451e108b4dc8ac10c,null,null,"<p style=""font-size: 60px; font-family: BACS"">rkJuLkNc</p>",,,,,,,,,,
html-keyboard-response,381,548138,0.0-16.0-0.49,60d7605d7af8d66774061717,650c16f0f2faf8d7a0d14c09,651c1e4451e108b4dc8ac10c,null,null,"<p style=""font-size: 60px; font-family: BACS"">rkJuLkNc</p>",,,,,,,,,,
html-keyboard-response,382,549151,0.0-16.0-0.50,60d7605d7af8d66774061717,650c16f0f2faf8d7a0d14c09,651c1e4451e108b4dc8ac10c,null,null,"<p style=""font-size: 60px; font-family: BACS"">rkJuLkNc</p>",,,,,,,,,,
html-keyboard-response,383,550161,0.0-16.0-0.51,60d7605d7af8d66774061717,650c16f0f2faf8d7a0d14c09,651c1e4451e108b4dc8ac10c,null,null,"<p style=""font-size: 60px; font-family: BACS"">rkJuLkNc</p>",,,,,,,,,,
html-keyboard-response,384,551174,0.0-16.0-0.52,60d7605d7af8d66774061717,650c16f0f2faf8d7a0d14c09,651c1e4451e108b4dc8ac10c,null,null,"<p style=""font-size: 60px; font-family: BACS"">rkJuLkNc</p>",,,,,,,,,,
html-keyboard-response,385,552182,0.0-16.0-0.53,60d7605d7af8d66774061717,650c16f0f2faf8d7a0d14c09,651c1e4451e108b4dc8ac10c,null,null,"<p style=""font-size: 60px; font-family: BACS"">rkJuLkNc</p>",,,,,,,,,,
html-keyboard-response,386,553189,0.0-16.0-0.54,60d7605d7af8d66774061717,650c16f0f2faf8d7a0d14c09,651c1e4451e108b4dc8ac10c,null,null,"<p style=""font-size: 60px; font-family: BACS"">rkJuLkNc</p>",,,,,,,,,,
html-keyboard-response,387,554203,0.0-16.0-0.55,60d7605d7af8d66774061717,650c16f0f2faf8d7a0d14c09,651c1e4451e108b4dc8ac10c,null,null,"<p style=""font-size: 60px; font-family: BACS"">rkJuLkNc</p>",,,,,,,,,,
html-keyboard-response,388,555213,0.0-16.0-0.56,60d7605d7af8d66774061717,650c16f0f2faf8d7a0d14c09,651c1e4451e108b4dc8ac10c,null,null,"<p style=""font-size: 60px; font-family: BACS"">rkJuLkNc</p>",,,,,,,,,,
html-keyboard-response,389,556227,0.0-16.0-0.57,60d7605d7af8d66774061717,650c16f0f2faf8d7a0d14c09,651c1e4451e108b4dc8ac10c,null,null,"<p style=""font-size: 60px; font-family: BACS"">rkJuLkNc</p>",,,,,,,,,,
html-keyboard-response,390,557236,0.0-16.0-0.58,60d7605d7af8d66774061717,650c16f0f2faf8d7a0d14c09,651c1e4451e108b4dc8ac10c,null,null,"<p style=""font-size: 60px; font-family: BACS"">rkJuLkNc</p>",,,,,,,,,,
html-keyboard-response,391,558249,0.0-16.0-0.59,60d7605d7af8d66774061717,650c16f0f2faf8d7a0d14c09,651c1e4451e108b4dc8ac10c,null,null,"<p style=""font-size: 60px; font-family: BACS"">rkJuLkNc</p>",,,,,,,,,,
html-keyboard-response,392,559261,0.0-16.0-0.60,60d7605d7af8d66774061717,650c16f0f2faf8d7a0d14c09,651c1e4451e108b4dc8ac10c,null,null,"<p style=""font-size: 60px; font-family: BACS"">rkJuLkNc</p>",,,,,,,,,,
html-keyboard-response,393,560275,0.0-16.0-0.61,60d7605d7af8d66774061717,650c16f0f2faf8d7a0d14c09,651c1e4451e108b4dc8ac10c,null,null,"<p style=""font-size: 60px; font-family: BACS"">rkJuLkNc</p>",,,,,,,,,,
html-keyboard-response,394,561280,0.0-16.0-0.62,60d7605d7af8d66774061717,650c16f0f2faf8d7a0d14c09,651c1e4451e108b4dc8ac10c,null,null,"<p style=""font-size: 60px; font-family: BACS"">rkJuLkNc</p>",,,,,,,,,,
html-keyboard-response,395,562291,0.0-16.0-0.63,60d7605d7af8d66774061717,650c16f0f2faf8d7a0d14c09,651c1e4451e108b4dc8ac10c,null,null,"<p style=""font-size: 60px; font-family: BACS"">rkJuLkNc</p>",,,,,,,,,,
html-keyboard-response,396,563302,0.0-16.0-0.64,60d7605d7af8d66774061717,650c16f0f2faf8d7a0d14c09,651c1e4451e108b4dc8ac10c,null,null,"<p style=""font-size: 60px; font-family: BACS"">rkJuLkNc</p>",,,,,,,,,,
html-keyboard-response,397,564314,0.0-16.0-0.65,60d7605d7af8d66774061717,650c16f0f2faf8d7a0d14c09,651c1e4451e108b4dc8ac10c,null,null,"<p style=""font-size: 60px; font-family: BACS"">rkJuLkNc</p>",,,,,,,,,,
html-keyboard-response,398,565328,0.0-16.0-0.66,60d7605d7af8d66774061717,650c16f0f2faf8d7a0d14c09,651c1e4451e108b4dc8ac10c,null,null,"<p style=""font-size: 60px; font-family: BACS"">rkJuLkNc</p>",,,,,,,,,,
html-keyboard-response,399,566339,0.0-16.0-0.67,60d7605d7af8d66774061717,650c16f0f2faf8d7a0d14c09,651c1e4451e108b4dc8ac10c,null,null,"<p style=""font-size: 60px; font-family: BACS"">rkJuLkNc</p>",,,,,,,,,,
html-keyboard-response,400,567350,0.0-16.0-0.68,60d7605d7af8d66774061717,650c16f0f2faf8d7a0d14c09,651c1e4451e108b4dc8ac10c,null,null,"<p style=""font-size: 60px; font-family: BACS"">rkJuLkNc</p>",,,,,,,,,,
html-keyboard-response,401,568363,0.0-16.0-0.69,60d7605d7af8d66774061717,650c16f0f2faf8d7a0d14c09,651c1e4451e108b4dc8ac10c,null,null,"<p style=""font-size: 60px; font-family: BACS"">rkJuLkNc</p>",,,,,,,,,,
html-keyboard-response,402,569376,0.0-16.0-0.70,60d7605d7af8d66774061717,650c16f0f2faf8d7a0d14c09,651c1e4451e108b4dc8ac10c,null,null,"<p style=""font-size: 60px; font-family: BACS"">rkJuLkNc</p>",,,,,,,,,,
html-keyboard-response,403,570391,0.0-16.0-0.71,60d7605d7af8d66774061717,650c16f0f2faf8d7a0d14c09,651c1e4451e108b4dc8ac10c,null,null,"<p style=""font-size: 60px; font-family: BACS"">rkJuLkNc</p>",,,,,,,,,,
html-keyboard-response,404,571400,0.0-16.0-0.72,60d7605d7af8d66774061717,650c16f0f2faf8d7a0d14c09,651c1e4451e108b4dc8ac10c,null,null,"<p style=""font-size: 60px; font-family: BACS"">rkJuLkNc</p>",,,,,,,,,,
html-keyboard-response,405,572411,0.0-16.0-0.73,60d7605d7af8d66774061717,650c16f0f2faf8d7a0d14c09,651c1e4451e108b4dc8ac10c,null,null,"<p style=""font-size: 60px; font-family: BACS"">rkJuLkNc</p>",,,,,,,,,,
html-keyboard-response,406,573420,0.0-16.0-0.74,60d7605d7af8d66774061717,650c16f0f2faf8d7a0d14c09,651c1e4451e108b4dc8ac10c,null,null,"<p style=""font-size: 60px; font-family: BACS"">rkJuLkNc</p>",,,,,,,,,,
html-keyboard-response,407,574430,0.0-16.0-0.75,60d7605d7af8d66774061717,650c16f0f2faf8d7a0d14c09,651c1e4451e108b4dc8ac10c,null,null,"<p style=""font-size: 60px; font-family: BACS"">rkJuLkNc</p>",,,,,,,,,,
html-keyboard-response,408,575441,0.0-16.0-0.76,60d7605d7af8d66774061717,650c16f0f2faf8d7a0d14c09,651c1e4451e108b4dc8ac10c,null,null,"<p style=""font-size: 60px; font-family: BACS"">rkJuLkNc</p>",,,,,,,,,,
html-keyboard-response,409,576452,0.0-16.0-0.77,60d7605d7af8d66774061717,650c16f0f2faf8d7a0d14c09,651c1e4451e108b4dc8ac10c,null,null,"<p style=""font-size: 60px; font-family: BACS"">rkJuLkNc</p>",,,,,,,,,,
html-keyboard-response,410,577466,0.0-16.0-0.78,60d7605d7af8d66774061717,650c16f0f2faf8d7a0d14c09,651c1e4451e108b4dc8ac10c,null,null,"<p style=""font-size: 60px; font-family: BACS"">rkJuLkNc</p>",,,,,,,,,,
html-keyboard-response,411,578477,0.0-16.0-0.79,60d7605d7af8d66774061717,650c16f0f2faf8d7a0d14c09,651c1e4451e108b4dc8ac10c,null,null,"<p style=""font-size: 60px; font-family: BACS"">rkJuLkNc</p>",,,,,,,,,,
html-keyboard-response,412,581017,0.0-17.0,60d7605d7af8d66774061717,650c16f0f2faf8d7a0d14c09,651c1e4451e108b4dc8ac10c,2540, ,"<p>Great, you've seen the fifth block of words. You may now take a short break.</p>
      <p>Press the spacebar when you're ready to continue.</p>",,,,,,,,,,
html-keyboard-response,413,582023,0.0-18.0-0.0,60d7605d7af8d66774061717,650c16f0f2faf8d7a0d14c09,651c1e4451e108b4dc8ac10c,null,null,"<p style=""font-size: 60px; font-family: BACS"">dGLAlYNu</p>",,,,,,,,,,
html-keyboard-response,414,583032,0.0-18.0-0.1,60d7605d7af8d66774061717,650c16f0f2faf8d7a0d14c09,651c1e4451e108b4dc8ac10c,null,null,"<p style=""font-size: 60px; font-family: BACS"">YLQmGQvlZ</p>",,,,,,,,,,
html-keyboard-response,415,584046,0.0-18.0-0.2,60d7605d7af8d66774061717,650c16f0f2faf8d7a0d14c09,651c1e4451e108b4dc8ac10c,null,null,"<p style=""font-size: 60px; font-family: BACS"">DkTCPTmTm</p>",,,,,,,,,,
html-keyboard-response,416,585052,0.0-18.0-0.3,60d7605d7af8d66774061717,650c16f0f2faf8d7a0d14c09,651c1e4451e108b4dc8ac10c,null,null,"<p style=""font-size: 60px; font-family: BACS"">kKRCdCKc</p>",,,,,,,,,,
html-keyboard-response,417,586056,0.0-18.0-0.4,60d7605d7af8d66774061717,650c16f0f2faf8d7a0d14c09,651c1e4451e108b4dc8ac10c,null,null,"<p style=""font-size: 60px; font-family: BACS"">rkJuYZJO</p>",,,,,,,,,,
html-keyboard-response,418,587061,0.0-18.0-0.5,60d7605d7af8d66774061717,650c16f0f2faf8d7a0d14c09,651c1e4451e108b4dc8ac10c,null,null,"<p style=""font-size: 60px; font-family: BACS"">DkTCPYcM</p>",,,,,,,,,,
html-keyboard-response,419,588067,0.0-18.0-0.6,60d7605d7af8d66774061717,650c16f0f2faf8d7a0d14c09,651c1e4451e108b4dc8ac10c,null,null,"<p style=""font-size: 60px; font-family: BACS"">dGLAlYZJO</p>",,,,,,,,,,
html-keyboard-response,420,589071,0.0-18.0-0.7,60d7605d7af8d66774061717,650c16f0f2faf8d7a0d14c09,651c1e4451e108b4dc8ac10c,null,null,"<p style=""font-size: 60px; font-family: BACS"">auYAkUbG</p>",,,,,,,,,,
html-keyboard-response,421,590074,0.0-18.0-0.8,60d7605d7af8d66774061717,650c16f0f2faf8d7a0d14c09,651c1e4451e108b4dc8ac10c,null,null,"<p style=""font-size: 60px; font-family: BACS"">hbmAYcM</p>",,,,,,,,,,
html-keyboard-response,422,591090,0.0-18.0-0.9,60d7605d7af8d66774061717,650c16f0f2faf8d7a0d14c09,651c1e4451e108b4dc8ac10c,null,null,"<p style=""font-size: 60px; font-family: BACS"">OtlRTRkY</p>",,,,,,,,,,
html-keyboard-response,423,592101,0.0-18.0-0.10,60d7605d7af8d66774061717,650c16f0f2faf8d7a0d14c09,651c1e4451e108b4dc8ac10c,null,null,"<p style=""font-size: 60px; font-family: BACS"">CkBOPYcM</p>",,,,,,,,,,
html-keyboard-response,424,593107,0.0-18.0-0.11,60d7605d7af8d66774061717,650c16f0f2faf8d7a0d14c09,651c1e4451e108b4dc8ac10c,null,null,"<p style=""font-size: 60px; font-family: BACS"">ZNLOvYNu</p>",,,,,,,,,,
html-keyboard-response,425,594113,0.0-18.0-0.12,60d7605d7af8d66774061717,650c16f0f2faf8d7a0d14c09,651c1e4451e108b4dc8ac10c,null,null,"<p style=""font-size: 60px; font-family: BACS"">hbmAdCKc</p>",,,,,,,,,,
html-keyboard-response,426,595121,0.0-18.0-0.13,60d7605d7af8d66774061717,650c16f0f2faf8d7a0d14c09,651c1e4451e108b4dc8ac10c,null,null,"<p style=""font-size: 60px; font-family: BACS"">CkBOPTRkY</p>",,,,,,,,,,
html-keyboard-response,427,596127,0.0-18.0-0.14,60d7605d7af8d66774061717,650c16f0f2faf8d7a0d14c09,651c1e4451e108b4dc8ac10c,null,null,"<p style=""font-size: 60px; font-family: BACS"">DhMtTmTm</p>",,,,,,,,,,
html-keyboard-response,428,597138,0.0-18.0-0.15,60d7605d7af8d66774061717,650c16f0f2faf8d7a0d14c09,651c1e4451e108b4dc8ac10c,null,null,"<p style=""font-size: 60px; font-family: BACS"">DkTCPdCKc</p>",,,,,,,,,,
html-keyboard-response,429,598152,0.0-18.0-0.16,60d7605d7af8d66774061717,650c16f0f2faf8d7a0d14c09,651c1e4451e108b4dc8ac10c,null,null,"<p style=""font-size: 60px; font-family: BACS"">dvNvAYZJO</p>",,,,,,,,,,
html-keyboard-response,430,599166,0.0-18.0-0.17,60d7605d7af8d66774061717,650c16f0f2faf8d7a0d14c09,651c1e4451e108b4dc8ac10c,null,null,"<p style=""font-size: 60px; font-family: BACS"">OdlNmUbG</p>",,,,,,,,,,
html-keyboard-response,431,600176,0.0-18.0-0.18,60d7605d7af8d66774061717,650c16f0f2faf8d7a0d14c09,651c1e4451e108b4dc8ac10c,null,null,"<p style=""font-size: 60px; font-family: BACS"">YLQmGYNu</p>",,,,,,,,,,
html-keyboard-response,432,601190,0.0-18.0-0.19,60d7605d7af8d66774061717,650c16f0f2faf8d7a0d14c09,651c1e4451e108b4dc8ac10c,null,null,"<p style=""font-size: 60px; font-family: BACS"">ZNLOvYZJO</p>",,,,,,,,,,
html-keyboard-response,433,602202,0.0-18.0-0.20,60d7605d7af8d66774061717,650c16f0f2faf8d7a0d14c09,651c1e4451e108b4dc8ac10c,null,null,"<p style=""font-size: 60px; font-family: BACS"">uQuZcLkNc</p>",,,,,,,,,,
html-keyboard-response,434,603211,0.0-18.0-0.21,60d7605d7af8d66774061717,650c16f0f2faf8d7a0d14c09,651c1e4451e108b4dc8ac10c,null,null,"<p style=""font-size: 60px; font-family: BACS"">hbmATRkY</p>",,,,,,,,,,
html-keyboard-response,435,604222,0.0-18.0-0.22,60d7605d7af8d66774061717,650c16f0f2faf8d7a0d14c09,651c1e4451e108b4dc8ac10c,null,null,"<p style=""font-size: 60px; font-family: BACS"">rkJuQvlZ</p>",,,,,,,,,,
html-keyboard-response,436,605229,0.0-18.0-0.23,60d7605d7af8d66774061717,650c16f0f2faf8d7a0d14c09,651c1e4451e108b4dc8ac10c,null,null,"<p style=""font-size: 60px; font-family: BACS"">DcPTcTRkY</p>",,,,,,,,,,
html-keyboard-response,437,606240,0.0-18.0-0.24,60d7605d7af8d66774061717,650c16f0f2faf8d7a0d14c09,651c1e4451e108b4dc8ac10c,null,null,"<p style=""font-size: 60px; font-family: BACS"">kKRCYcM</p>",,,,,,,,,,
html-keyboard-response,438,607249,0.0-18.0-0.25,60d7605d7af8d66774061717,650c16f0f2faf8d7a0d14c09,651c1e4451e108b4dc8ac10c,null,null,"<p style=""font-size: 60px; font-family: BACS"">OdlNmQvlZ</p>",,,,,,,,,,
html-keyboard-response,439,608262,0.0-18.0-0.26,60d7605d7af8d66774061717,650c16f0f2faf8d7a0d14c09,651c1e4451e108b4dc8ac10c,null,null,"<p style=""font-size: 60px; font-family: BACS"">DhMtdCKc</p>",,,,,,,,,,
html-keyboard-response,440,609275,0.0-18.0-0.27,60d7605d7af8d66774061717,650c16f0f2faf8d7a0d14c09,651c1e4451e108b4dc8ac10c,null,null,"<p style=""font-size: 60px; font-family: BACS"">mBbKTmc</p>",,,,,,,,,,
html-keyboard-response,441,610290,0.0-18.0-0.28,60d7605d7af8d66774061717,650c16f0f2faf8d7a0d14c09,651c1e4451e108b4dc8ac10c,null,null,"<p style=""font-size: 60px; font-family: BACS"">mUOcOYZJO</p>",,,,,,,,,,
html-keyboard-response,442,611301,0.0-18.0-0.29,60d7605d7af8d66774061717,650c16f0f2faf8d7a0d14c09,651c1e4451e108b4dc8ac10c,null,null,"<p style=""font-size: 60px; font-family: BACS"">kKRCTmTm</p>",,,,,,,,,,
html-keyboard-response,443,612315,0.0-18.0-0.30,60d7605d7af8d66774061717,650c16f0f2faf8d7a0d14c09,651c1e4451e108b4dc8ac10c,null,null,"<p style=""font-size: 60px; font-family: BACS"">TbKMEYcM</p>",,,,,,,,,,
html-keyboard-response,444,613323,0.0-18.0-0.31,60d7605d7af8d66774061717,650c16f0f2faf8d7a0d14c09,651c1e4451e108b4dc8ac10c,null,null,"<p style=""font-size: 60px; font-family: BACS"">CkBOPTmTm</p>",,,,,,,,,,
html-keyboard-response,445,614335,0.0-18.0-0.32,60d7605d7af8d66774061717,650c16f0f2faf8d7a0d14c09,651c1e4451e108b4dc8ac10c,null,null,"<p style=""font-size: 60px; font-family: BACS"">OtlRYcM</p>",,,,,,,,,,
html-keyboard-response,446,615347,0.0-18.0-0.33,60d7605d7af8d66774061717,650c16f0f2faf8d7a0d14c09,651c1e4451e108b4dc8ac10c,null,null,"<p style=""font-size: 60px; font-family: BACS"">AJLrYNu</p>",,,,,,,,,,
html-keyboard-response,447,616359,0.0-18.0-0.34,60d7605d7af8d66774061717,650c16f0f2faf8d7a0d14c09,651c1e4451e108b4dc8ac10c,null,null,"<p style=""font-size: 60px; font-family: BACS"">mUOcOLkNc</p>",,,,,,,,,,
html-keyboard-response,448,617365,0.0-18.0-0.35,60d7605d7af8d66774061717,650c16f0f2faf8d7a0d14c09,651c1e4451e108b4dc8ac10c,null,null,"<p style=""font-size: 60px; font-family: BACS"">rkJuYNu</p>",,,,,,,,,,
html-keyboard-response,449,618374,0.0-18.0-0.36,60d7605d7af8d66774061717,650c16f0f2faf8d7a0d14c09,651c1e4451e108b4dc8ac10c,null,null,"<p style=""font-size: 60px; font-family: BACS"">TbKMETmTm</p>",,,,,,,,,,
html-keyboard-response,450,619381,0.0-18.0-0.37,60d7605d7af8d66774061717,650c16f0f2faf8d7a0d14c09,651c1e4451e108b4dc8ac10c,null,null,"<p style=""font-size: 60px; font-family: BACS"">AJLrUbG</p>",,,,,,,,,,
html-keyboard-response,451,620393,0.0-18.0-0.38,60d7605d7af8d66774061717,650c16f0f2faf8d7a0d14c09,651c1e4451e108b4dc8ac10c,null,null,"<p style=""font-size: 60px; font-family: BACS"">rkJuLkNc</p>",,,,,,,,,,
html-keyboard-response,452,621407,0.0-18.0-0.39,60d7605d7af8d66774061717,650c16f0f2faf8d7a0d14c09,651c1e4451e108b4dc8ac10c,null,null,"<p style=""font-size: 60px; font-family: BACS"">OdlNmYNu</p>",,,,,,,,,,
html-keyboard-response,453,622417,0.0-18.0-0.40,60d7605d7af8d66774061717,650c16f0f2faf8d7a0d14c09,651c1e4451e108b4dc8ac10c,null,null,"<p style=""font-size: 60px; font-family: BACS"">YLQmGUbG</p>",,,,,,,,,,
html-keyboard-response,454,623424,0.0-18.0-0.41,60d7605d7af8d66774061717,650c16f0f2faf8d7a0d14c09,651c1e4451e108b4dc8ac10c,null,null,"<p style=""font-size: 60px; font-family: BACS"">DhMtYcM</p>",,,,,,,,,,
html-keyboard-response,455,624435,0.0-18.0-0.42,60d7605d7af8d66774061717,650c16f0f2faf8d7a0d14c09,651c1e4451e108b4dc8ac10c,null,null,"<p style=""font-size: 60px; font-family: BACS"">DkTCPTRkY</p>",,,,,,,,,,
html-keyboard-response,456,625450,0.0-18.0-0.43,60d7605d7af8d66774061717,650c16f0f2faf8d7a0d14c09,651c1e4451e108b4dc8ac10c,null,null,"<p style=""font-size: 60px; font-family: BACS"">ZNLOvQvlZ</p>",,,,,,,,,,
html-keyboard-response,457,626460,0.0-18.0-0.44,60d7605d7af8d66774061717,650c16f0f2faf8d7a0d14c09,651c1e4451e108b4dc8ac10c,null,null,"<p style=""font-size: 60px; font-family: BACS"">DhMtTmc</p>",,,,,,,,,,
html-keyboard-response,458,627474,0.0-18.0-0.45,60d7605d7af8d66774061717,650c16f0f2faf8d7a0d14c09,651c1e4451e108b4dc8ac10c,null,null,"<p style=""font-size: 60px; font-family: BACS"">OtlRTmTm</p>",,,,,,,,,,
html-keyboard-response,459,628487,0.0-18.0-0.46,60d7605d7af8d66774061717,650c16f0f2faf8d7a0d14c09,651c1e4451e108b4dc8ac10c,null,null,"<p style=""font-size: 60px; font-family: BACS"">uQuZcYZJO</p>",,,,,,,,,,
html-keyboard-response,460,629503,0.0-18.0-0.47,60d7605d7af8d66774061717,650c16f0f2faf8d7a0d14c09,651c1e4451e108b4dc8ac10c,null,null,"<p style=""font-size: 60px; font-family: BACS"">mUOcOUbG</p>",,,,,,,,,,
html-keyboard-response,461,630513,0.0-18.0-0.48,60d7605d7af8d66774061717,650c16f0f2faf8d7a0d14c09,651c1e4451e108b4dc8ac10c,null,null,"<p style=""font-size: 60px; font-family: BACS"">mBbKTRkY</p>",,,,,,,,,,
html-keyboard-response,462,631523,0.0-18.0-0.49,60d7605d7af8d66774061717,650c16f0f2faf8d7a0d14c09,651c1e4451e108b4dc8ac10c,null,null,"<p style=""font-size: 60px; font-family: BACS"">DcPTcTmc</p>",,,,,,,,,,
html-keyboard-response,463,632535,0.0-18.0-0.50,60d7605d7af8d66774061717,650c16f0f2faf8d7a0d14c09,651c1e4451e108b4dc8ac10c,null,null,"<p style=""font-size: 60px; font-family: BACS"">TbKMEdCKc</p>",,,,,,,,,,
html-keyboard-response,464,633543,0.0-18.0-0.51,60d7605d7af8d66774061717,650c16f0f2faf8d7a0d14c09,651c1e4451e108b4dc8ac10c,null,null,"<p style=""font-size: 60px; font-family: BACS"">dGLAlLkNc</p>",,,,,,,,,,
html-keyboard-response,465,634559,0.0-18.0-0.52,60d7605d7af8d66774061717,650c16f0f2faf8d7a0d14c09,651c1e4451e108b4dc8ac10c,null,null,"<p style=""font-size: 60px; font-family: BACS"">TbKMETmc</p>",,,,,,,,,,
html-keyboard-response,466,635564,0.0-18.0-0.53,60d7605d7af8d66774061717,650c16f0f2faf8d7a0d14c09,651c1e4451e108b4dc8ac10c,null,null,"<p style=""font-size: 60px; font-family: BACS"">OdlNmLkNc</p>",,,,,,,,,,
html-keyboard-response,467,636565,0.0-18.0-0.54,60d7605d7af8d66774061717,650c16f0f2faf8d7a0d14c09,651c1e4451e108b4dc8ac10c,null,null,"<p style=""font-size: 60px; font-family: BACS"">dGLAlUbG</p>",,,,,,,,,,
