"trial_type","trial_index","time_elapsed","internal_node_id","subject_id","study_id","session_id","rt","response","stimulus","success","item","task","correct_response","testing_condition","correct","target","confound","name"
"pavlovia","0","1264","0.0-0.0","6147aed5b2a4f748dc2b6ba4","650c16f0f2faf8d7a0d14c09","651c1bcb0abf80d58021ab04","","","","","","","","","","","",""
"survey-html-form","1","5440","0.0-1.0","6147aed5b2a4f748dc2b6ba4","650c16f0f2faf8d7a0d14c09","651c1bcb0abf80d58021ab04","4173","{""ID"":""6147aed5b2a4f748dc2b6ba4""}","","","","","","","","","",""
"html-keyboard-response","2","52757","0.0-2.0","6147aed5b2a4f748dc2b6ba4","650c16f0f2faf8d7a0d14c09","651c1bcb0abf80d58021ab04","47318"," ","<p style=""font-size: 15px;"">Before beginning, we ask that you read the consent information and confirm your agreement to participate in the experiment.</p>
      <p style=""font-size: 15px;""> We ask that you remember that this is a research project and that your participation is entirely voluntary. You can stop your participation at any time, without needing to provide any explanation. The study we're asking you to participate in aims at examining how readers process written words. You will be engaged in a session of apprximately 20 minutes, followed by a brief questionnaire. You will have the opportunity to take a few breaks during the experiment. You will be paid £4 for your participation, corresponding to a rate of £8/hour. While this experiment looks at cognitive faculties, this experiment doesn't constitute clinical proof of eventual pathologies.</p>
      <p style=""font-size: 15px;"">All of the information collected thanks to yours and others' participation will be held in a secure password-protected server, and will not be shared with anyone not authorised to view it. Your personal information will be kept with an arbitrary participant ID. Thanks to this data anonymity process, any researcher analysing the data won't be able to track the information back to a specific participant. Therefore, this process will make identifying you impossibile, even when results from the study will be published in scientific reviews, presented at congresses, or at any other public forum. More generally, the collected data will be treated in accordance with the laws on privacy and conformity to the Legislative Degree n. 196 ""Code regarding the protection of personal data"" of the 30th of June 2003 and to the European Regulation 2016/670 (General Data Protection Regulation - GDPR). The Data Protection Officer is Avv. Valentina Carollo, who can be contacted at the following email addresses: <a href=""mailto:dpo@sissa.it"">dpo@sissa.it</a> or <a href=""mailto:rpd@sissa.it"">rpd@sissa.it</a> - PEC: <a href=""mailto:protocollo@pec.sissa.it"">protocollo@pec.sissa.it</a>.</p>
      <p style=""font-size: 15px;""> Before expressing your consent to participate, we would like to remind you again that in case you need explanations on any aspect of the experimental procedure, the researcher is at your disposition (<a href=""mailto:aliebelt@sissa.it"">aliebelt@sissa.it</a>, <a href=""mailto:davide.crepaldi@sissa.it"">davide.crepaldi@sissa.it</a>).</p>
      <p style=""font-size: 15px;"">If you would like to download the informed consent form, you can do so here: <a href=""BASL-Informed_Consent.pdf"" download>informed consent form</a>.</p>
      <p style=""font-size: 15px;"">We ask that you press the spacebar to proceed to the consent section.</p>","","","","","","","","",""
"survey-html-form","3","78124","0.0-3.0","6147aed5b2a4f748dc2b6ba4","650c16f0f2faf8d7a0d14c09","651c1bcb0abf80d58021ab04","25365","{""consent1"":""YES"",""consent2"":""YES"",""consent3"":""YES"",""consent4"":""YES"",""consent5"":""YES"",""consent6"":""YES""}","","","","","","","","","",""
"fullscreen","4","86725","0.0-4.0","6147aed5b2a4f748dc2b6ba4","650c16f0f2faf8d7a0d14c09","651c1bcb0abf80d58021ab04","","","","true","","","","","","","",""
"html-keyboard-response","5","112387","0.0-5.0","6147aed5b2a4f748dc2b6ba4","650c16f0f2faf8d7a0d14c09","651c1bcb0abf80d58021ab04","25662"," ","<p>Welcome, and thank you very much for your time!</p>
      <p>In this experiment, you'll be a language expert who's been asked to take a look at words that Earth has received in its first communication with aliens. Your task, in this first part of the experiment, is to pay close attention to the words you'll be shown; later, world leaders will ask you questions on what you saw. The words will be shown to you quite quickly; it seems that the aliens were in a hurry :-)</p>
      <p>Press the spacebar to continue.<p>","","","","","","","","",""
"html-keyboard-response","6","112440","0.0-6.0","6147aed5b2a4f748dc2b6ba4","650c16f0f2faf8d7a0d14c09","651c1bcb0abf80d58021ab04","null","null","<p style=""font-size: 120px; font-family: BACS""> </p>","","","","","","","","",""
"html-keyboard-response","7","124664","0.0-7.0","6147aed5b2a4f748dc2b6ba4","650c16f0f2faf8d7a0d14c09","651c1bcb0abf80d58021ab04","12223"," ","<p>Here is an example of the words you'll see:</p>
      <img src='esempio.png' height='400px'>
      <p>When you're ready to begin, press the spacebar.</p></div>","","","","","","","","",""
"html-keyboard-response","8","125669","0.0-8.0-0.0","6147aed5b2a4f748dc2b6ba4","650c16f0f2faf8d7a0d14c09","651c1bcb0abf80d58021ab04","null","null","<p style=""font-size: 60px; font-family: BACS"">hlctEcPK</p>","","","","","","","","",""
"html-keyboard-response","9","126671","0.0-8.0-0.1","6147aed5b2a4f748dc2b6ba4","650c16f0f2faf8d7a0d14c09","651c1bcb0abf80d58021ab04","null","null","<p style=""font-size: 60px; font-family: BACS"">EYtYRATc</p>","","","","","","","","",""
"html-keyboard-response","10","127674","0.0-8.0-0.2","6147aed5b2a4f748dc2b6ba4","650c16f0f2faf8d7a0d14c09","651c1bcb0abf80d58021ab04","null","null","<p style=""font-size: 60px; font-family: BACS"">vJabArv</p>","","","","","","","","",""
"html-keyboard-response","11","128676","0.0-8.0-0.3","6147aed5b2a4f748dc2b6ba4","650c16f0f2faf8d7a0d14c09","651c1bcb0abf80d58021ab04","null","null","<p style=""font-size: 60px; font-family: BACS"">LNUrJAld</p>","","","","","","","","",""
"html-keyboard-response","12","129679","0.0-8.0-0.4","6147aed5b2a4f748dc2b6ba4","650c16f0f2faf8d7a0d14c09","651c1bcb0abf80d58021ab04","null","null","<p style=""font-size: 60px; font-family: BACS"">GQrckbu</p>","","","","","","","","",""
"html-keyboard-response","13","130682","0.0-8.0-0.5","6147aed5b2a4f748dc2b6ba4","650c16f0f2faf8d7a0d14c09","651c1bcb0abf80d58021ab04","null","null","<p style=""font-size: 60px; font-family: BACS"">bYuQArv</p>","","","","","","","","",""
"html-keyboard-response","14","131685","0.0-8.0-0.6","6147aed5b2a4f748dc2b6ba4","650c16f0f2faf8d7a0d14c09","651c1bcb0abf80d58021ab04","null","null","<p style=""font-size: 60px; font-family: BACS"">UAcduAld</p>","","","","","","","","",""
"html-keyboard-response","15","132688","0.0-8.0-0.7","6147aed5b2a4f748dc2b6ba4","650c16f0f2faf8d7a0d14c09","651c1bcb0abf80d58021ab04","null","null","<p style=""font-size: 60px; font-family: BACS"">hCktYht</p>","","","","","","","","",""
"html-keyboard-response","16","133691","0.0-8.0-0.8","6147aed5b2a4f748dc2b6ba4","650c16f0f2faf8d7a0d14c09","651c1bcb0abf80d58021ab04","null","null","<p style=""font-size: 60px; font-family: BACS"">KTDTBcPK</p>","","","","","","","","",""
"html-keyboard-response","17","134694","0.0-8.0-0.9","6147aed5b2a4f748dc2b6ba4","650c16f0f2faf8d7a0d14c09","651c1bcb0abf80d58021ab04","null","null","<p style=""font-size: 60px; font-family: BACS"">rckOArv</p>","","","","","","","","",""
"html-keyboard-response","18","135696","0.0-8.0-0.10","6147aed5b2a4f748dc2b6ba4","650c16f0f2faf8d7a0d14c09","651c1bcb0abf80d58021ab04","null","null","<p style=""font-size: 60px; font-family: BACS"">KTDTBATc</p>","","","","","","","","",""
"html-keyboard-response","19","136699","0.0-8.0-0.11","6147aed5b2a4f748dc2b6ba4","650c16f0f2faf8d7a0d14c09","651c1bcb0abf80d58021ab04","null","null","<p style=""font-size: 60px; font-family: BACS"">LdrbvAld</p>","","","","","","","","",""
"html-keyboard-response","20","137702","0.0-8.0-0.12","6147aed5b2a4f748dc2b6ba4","650c16f0f2faf8d7a0d14c09","651c1bcb0abf80d58021ab04","null","null","<p style=""font-size: 60px; font-family: BACS"">hCktcPK</p>","","","","","","","","",""
"html-keyboard-response","21","138705","0.0-8.0-0.13","6147aed5b2a4f748dc2b6ba4","650c16f0f2faf8d7a0d14c09","651c1bcb0abf80d58021ab04","null","null","<p style=""font-size: 60px; font-family: BACS"">ACcOYht</p>","","","","","","","","",""
"html-keyboard-response","22","139708","0.0-8.0-0.14","6147aed5b2a4f748dc2b6ba4","650c16f0f2faf8d7a0d14c09","651c1bcb0abf80d58021ab04","null","null","<p style=""font-size: 60px; font-family: BACS"">rckOkbu</p>","","","","","","","","",""
"html-keyboard-response","23","140710","0.0-8.0-0.15","6147aed5b2a4f748dc2b6ba4","650c16f0f2faf8d7a0d14c09","651c1bcb0abf80d58021ab04","null","null","<p style=""font-size: 60px; font-family: BACS"">mBYlYht</p>","","","","","","","","",""
"html-keyboard-response","24","141713","0.0-8.0-0.16","6147aed5b2a4f748dc2b6ba4","650c16f0f2faf8d7a0d14c09","651c1bcb0abf80d58021ab04","null","null","<p style=""font-size: 60px; font-family: BACS"">rkJukbu</p>","","","","","","","","",""
"html-keyboard-response","25","142716","0.0-8.0-0.17","6147aed5b2a4f748dc2b6ba4","650c16f0f2faf8d7a0d14c09","651c1bcb0abf80d58021ab04","null","null","<p style=""font-size: 60px; font-family: BACS"">vJabkam</p>","","","","","","","","",""
"html-keyboard-response","26","143718","0.0-8.0-0.18","6147aed5b2a4f748dc2b6ba4","650c16f0f2faf8d7a0d14c09","651c1bcb0abf80d58021ab04","null","null","<p style=""font-size: 60px; font-family: BACS"">bYuQkbu</p>","","","","","","","","",""
"html-keyboard-response","27","144721","0.0-8.0-0.19","6147aed5b2a4f748dc2b6ba4","650c16f0f2faf8d7a0d14c09","651c1bcb0abf80d58021ab04","null","null","<p style=""font-size: 60px; font-family: BACS"">EYtYRcPK</p>","","","","","","","","",""
"html-keyboard-response","28","145723","0.0-8.0-0.20","6147aed5b2a4f748dc2b6ba4","650c16f0f2faf8d7a0d14c09","651c1bcb0abf80d58021ab04","null","null","<p style=""font-size: 60px; font-family: BACS"">vJabkbu</p>","","","","","","","","",""
"html-keyboard-response","29","146726","0.0-8.0-0.21","6147aed5b2a4f748dc2b6ba4","650c16f0f2faf8d7a0d14c09","651c1bcb0abf80d58021ab04","null","null","<p style=""font-size: 60px; font-family: BACS"">mBYlcPK</p>","","","","","","","","",""
"html-keyboard-response","30","147728","0.0-8.0-0.22","6147aed5b2a4f748dc2b6ba4","650c16f0f2faf8d7a0d14c09","651c1bcb0abf80d58021ab04","null","null","<p style=""font-size: 60px; font-family: BACS"">rkJuArv</p>","","","","","","","","",""
"html-keyboard-response","31","148731","0.0-8.0-0.23","6147aed5b2a4f748dc2b6ba4","650c16f0f2faf8d7a0d14c09","651c1bcb0abf80d58021ab04","null","null","<p style=""font-size: 60px; font-family: BACS"">ACcOcMRl</p>","","","","","","","","",""
"html-keyboard-response","32","149733","0.0-8.0-0.24","6147aed5b2a4f748dc2b6ba4","650c16f0f2faf8d7a0d14c09","651c1bcb0abf80d58021ab04","null","null","<p style=""font-size: 60px; font-family: BACS"">LNUrJLkNc</p>","","","","","","","","",""
"html-keyboard-response","33","150736","0.0-8.0-0.25","6147aed5b2a4f748dc2b6ba4","650c16f0f2faf8d7a0d14c09","651c1bcb0abf80d58021ab04","null","null","<p style=""font-size: 60px; font-family: BACS"">EYtYRDmh</p>","","","","","","","","",""
"html-keyboard-response","34","151738","0.0-8.0-0.26","6147aed5b2a4f748dc2b6ba4","650c16f0f2faf8d7a0d14c09","651c1bcb0abf80d58021ab04","null","null","<p style=""font-size: 60px; font-family: BACS"">DhMtATc</p>","","","","","","","","",""
"html-keyboard-response","35","152741","0.0-8.0-0.27","6147aed5b2a4f748dc2b6ba4","650c16f0f2faf8d7a0d14c09","651c1bcb0abf80d58021ab04","null","null","<p style=""font-size: 60px; font-family: BACS"">ldAaLkNc</p>","","","","","","","","",""
"html-keyboard-response","36","153744","0.0-8.0-0.28","6147aed5b2a4f748dc2b6ba4","650c16f0f2faf8d7a0d14c09","651c1bcb0abf80d58021ab04","null","null","<p style=""font-size: 60px; font-family: BACS"">ACcODmh</p>","","","","","","","","",""
"html-keyboard-response","37","154746","0.0-8.0-0.29","6147aed5b2a4f748dc2b6ba4","650c16f0f2faf8d7a0d14c09","651c1bcb0abf80d58021ab04","null","null","<p style=""font-size: 60px; font-family: BACS"">ldAakam</p>","","","","","","","","",""
"html-keyboard-response","38","155748","0.0-8.0-0.30","6147aed5b2a4f748dc2b6ba4","650c16f0f2faf8d7a0d14c09","651c1bcb0abf80d58021ab04","null","null","<p style=""font-size: 60px; font-family: BACS"">EPMDkYht</p>","","","","","","","","",""
"html-keyboard-response","39","156751","0.0-8.0-0.31","6147aed5b2a4f748dc2b6ba4","650c16f0f2faf8d7a0d14c09","651c1bcb0abf80d58021ab04","null","null","<p style=""font-size: 60px; font-family: BACS"">DhMtDmh</p>","","","","","","","","",""
"html-keyboard-response","40","157754","0.0-8.0-0.32","6147aed5b2a4f748dc2b6ba4","650c16f0f2faf8d7a0d14c09","651c1bcb0abf80d58021ab04","null","null","<p style=""font-size: 60px; font-family: BACS"">rkJuLkNc</p>","","","","","","","","",""
"html-keyboard-response","41","158756","0.0-8.0-0.33","6147aed5b2a4f748dc2b6ba4","650c16f0f2faf8d7a0d14c09","651c1bcb0abf80d58021ab04","null","null","<p style=""font-size: 60px; font-family: BACS"">DhMtcPK</p>","","","","","","","","",""
"html-keyboard-response","42","159758","0.0-8.0-0.34","6147aed5b2a4f748dc2b6ba4","650c16f0f2faf8d7a0d14c09","651c1bcb0abf80d58021ab04","null","null","<p style=""font-size: 60px; font-family: BACS"">UAcdukbu</p>","","","","","","","","",""
"html-keyboard-response","43","160761","0.0-8.0-0.35","6147aed5b2a4f748dc2b6ba4","650c16f0f2faf8d7a0d14c09","651c1bcb0abf80d58021ab04","null","null","<p style=""font-size: 60px; font-family: BACS"">hlctEATc</p>","","","","","","","","",""
"html-keyboard-response","44","161763","0.0-8.0-0.36","6147aed5b2a4f748dc2b6ba4","650c16f0f2faf8d7a0d14c09","651c1bcb0abf80d58021ab04","null","null","<p style=""font-size: 60px; font-family: BACS"">Ldrbvkbu</p>","","","","","","","","",""
"html-keyboard-response","45","162766","0.0-8.0-0.37","6147aed5b2a4f748dc2b6ba4","650c16f0f2faf8d7a0d14c09","651c1bcb0abf80d58021ab04","null","null","<p style=""font-size: 60px; font-family: BACS"">EYtYRcMRl</p>","","","","","","","","",""
"html-keyboard-response","46","163768","0.0-8.0-0.38","6147aed5b2a4f748dc2b6ba4","650c16f0f2faf8d7a0d14c09","651c1bcb0abf80d58021ab04","null","null","<p style=""font-size: 60px; font-family: BACS"">ldAaArv</p>","","","","","","","","",""
"html-keyboard-response","47","164770","0.0-8.0-0.39","6147aed5b2a4f748dc2b6ba4","650c16f0f2faf8d7a0d14c09","651c1bcb0abf80d58021ab04","null","null","<p style=""font-size: 60px; font-family: BACS"">PYkCcMRl</p>","","","","","","","","",""
"html-keyboard-response","48","165772","0.0-8.0-0.40","6147aed5b2a4f748dc2b6ba4","650c16f0f2faf8d7a0d14c09","651c1bcb0abf80d58021ab04","null","null","<p style=""font-size: 60px; font-family: BACS"">rkJukam</p>","","","","","","","","",""
"html-keyboard-response","49","166774","0.0-8.0-0.41","6147aed5b2a4f748dc2b6ba4","650c16f0f2faf8d7a0d14c09","651c1bcb0abf80d58021ab04","null","null","<p style=""font-size: 60px; font-family: BACS"">EPMDkATc</p>","","","","","","","","",""
"html-keyboard-response","50","167776","0.0-8.0-0.42","6147aed5b2a4f748dc2b6ba4","650c16f0f2faf8d7a0d14c09","651c1bcb0abf80d58021ab04","null","null","<p style=""font-size: 60px; font-family: BACS"">kLvdNArv</p>","","","","","","","","",""
"html-keyboard-response","51","168778","0.0-8.0-0.43","6147aed5b2a4f748dc2b6ba4","650c16f0f2faf8d7a0d14c09","651c1bcb0abf80d58021ab04","null","null","<p style=""font-size: 60px; font-family: BACS"">PYkCcPK</p>","","","","","","","","",""
"html-keyboard-response","52","169780","0.0-8.0-0.44","6147aed5b2a4f748dc2b6ba4","650c16f0f2faf8d7a0d14c09","651c1bcb0abf80d58021ab04","null","null","<p style=""font-size: 60px; font-family: BACS"">EPMDkcMRl</p>","","","","","","","","",""
"html-keyboard-response","53","170783","0.0-8.0-0.45","6147aed5b2a4f748dc2b6ba4","650c16f0f2faf8d7a0d14c09","651c1bcb0abf80d58021ab04","null","null","<p style=""font-size: 60px; font-family: BACS"">ACcOATc</p>","","","","","","","","",""
"html-keyboard-response","54","171785","0.0-8.0-0.46","6147aed5b2a4f748dc2b6ba4","650c16f0f2faf8d7a0d14c09","651c1bcb0abf80d58021ab04","null","null","<p style=""font-size: 60px; font-family: BACS"">kcdOtYht</p>","","","","","","","","",""
"html-keyboard-response","55","172787","0.0-8.0-0.47","6147aed5b2a4f748dc2b6ba4","650c16f0f2faf8d7a0d14c09","651c1bcb0abf80d58021ab04","null","null","<p style=""font-size: 60px; font-family: BACS"">LNUrJkam</p>","","","","","","","","",""
"html-keyboard-response","56","173790","0.0-8.0-0.48","6147aed5b2a4f748dc2b6ba4","650c16f0f2faf8d7a0d14c09","651c1bcb0abf80d58021ab04","null","null","<p style=""font-size: 60px; font-family: BACS"">vJabLkNc</p>","","","","","","","","",""
"html-keyboard-response","57","174792","0.0-8.0-0.49","6147aed5b2a4f748dc2b6ba4","650c16f0f2faf8d7a0d14c09","651c1bcb0abf80d58021ab04","null","null","<p style=""font-size: 60px; font-family: BACS"">GQrckam</p>","","","","","","","","",""
"html-keyboard-response","58","175795","0.0-8.0-0.50","6147aed5b2a4f748dc2b6ba4","650c16f0f2faf8d7a0d14c09","651c1bcb0abf80d58021ab04","null","null","<p style=""font-size: 60px; font-family: BACS"">ldAaAld</p>","","","","","","","","",""
"html-keyboard-response","59","176798","0.0-8.0-0.51","6147aed5b2a4f748dc2b6ba4","650c16f0f2faf8d7a0d14c09","651c1bcb0abf80d58021ab04","null","null","<p style=""font-size: 60px; font-family: BACS"">hCktDmh</p>","","","","","","","","",""
"html-keyboard-response","60","177800","0.0-8.0-0.52","6147aed5b2a4f748dc2b6ba4","650c16f0f2faf8d7a0d14c09","651c1bcb0abf80d58021ab04","null","null","<p style=""font-size: 60px; font-family: BACS"">KTDTBcMRl</p>","","","","","","","","",""
"html-keyboard-response","61","178805","0.0-8.0-0.53","6147aed5b2a4f748dc2b6ba4","650c16f0f2faf8d7a0d14c09","651c1bcb0abf80d58021ab04","null","null","<p style=""font-size: 60px; font-family: BACS"">PYkCDmh</p>","","","","","","","","",""
"html-keyboard-response","62","179808","0.0-8.0-0.54","6147aed5b2a4f748dc2b6ba4","650c16f0f2faf8d7a0d14c09","651c1bcb0abf80d58021ab04","null","null","<p style=""font-size: 60px; font-family: BACS"">DhMtcMRl</p>","","","","","","","","",""
"html-keyboard-response","63","180811","0.0-8.0-0.55","6147aed5b2a4f748dc2b6ba4","650c16f0f2faf8d7a0d14c09","651c1bcb0abf80d58021ab04","null","null","<p style=""font-size: 60px; font-family: BACS"">LNUrJkbu</p>","","","","","","","","",""
"html-keyboard-response","64","181814","0.0-8.0-0.56","6147aed5b2a4f748dc2b6ba4","650c16f0f2faf8d7a0d14c09","651c1bcb0abf80d58021ab04","null","null","<p style=""font-size: 60px; font-family: BACS"">kLvdNkam</p>","","","","","","","","",""
"html-keyboard-response","65","182817","0.0-8.0-0.57","6147aed5b2a4f748dc2b6ba4","650c16f0f2faf8d7a0d14c09","651c1bcb0abf80d58021ab04","null","null","<p style=""font-size: 60px; font-family: BACS"">GQrcArv</p>","","","","","","","","",""
"html-keyboard-response","66","183819","0.0-8.0-0.58","6147aed5b2a4f748dc2b6ba4","650c16f0f2faf8d7a0d14c09","651c1bcb0abf80d58021ab04","null","null","<p style=""font-size: 60px; font-family: BACS"">bYuQAld</p>","","","","","","","","",""
"html-keyboard-response","67","184822","0.0-8.0-0.59","6147aed5b2a4f748dc2b6ba4","650c16f0f2faf8d7a0d14c09","651c1bcb0abf80d58021ab04","null","null","<p style=""font-size: 60px; font-family: BACS"">hCktATc</p>","","","","","","","","",""
"html-keyboard-response","68","185825","0.0-8.0-0.60","6147aed5b2a4f748dc2b6ba4","650c16f0f2faf8d7a0d14c09","651c1bcb0abf80d58021ab04","null","null","<p style=""font-size: 60px; font-family: BACS"">LdrbvLkNc</p>","","","","","","","","",""
"html-keyboard-response","69","186828","0.0-8.0-0.61","6147aed5b2a4f748dc2b6ba4","650c16f0f2faf8d7a0d14c09","651c1bcb0abf80d58021ab04","null","null","<p style=""font-size: 60px; font-family: BACS"">kcdOtcMRl</p>","","","","","","","","",""
"html-keyboard-response","70","187830","0.0-8.0-0.62","6147aed5b2a4f748dc2b6ba4","650c16f0f2faf8d7a0d14c09","651c1bcb0abf80d58021ab04","null","null","<p style=""font-size: 60px; font-family: BACS"">kLvdNLkNc</p>","","","","","","","","",""
"html-keyboard-response","71","188833","0.0-8.0-0.63","6147aed5b2a4f748dc2b6ba4","650c16f0f2faf8d7a0d14c09","651c1bcb0abf80d58021ab04","null","null","<p style=""font-size: 60px; font-family: BACS"">hlctEYht</p>","","","","","","","","",""
"html-keyboard-response","72","189836","0.0-8.0-0.64","6147aed5b2a4f748dc2b6ba4","650c16f0f2faf8d7a0d14c09","651c1bcb0abf80d58021ab04","null","null","<p style=""font-size: 60px; font-family: BACS"">mBYlATc</p>","","","","","","","","",""
"html-keyboard-response","73","190838","0.0-8.0-0.65","6147aed5b2a4f748dc2b6ba4","650c16f0f2faf8d7a0d14c09","651c1bcb0abf80d58021ab04","null","null","<p style=""font-size: 60px; font-family: BACS"">kcdOtDmh</p>","","","","","","","","",""
"html-keyboard-response","74","191841","0.0-8.0-0.66","6147aed5b2a4f748dc2b6ba4","650c16f0f2faf8d7a0d14c09","651c1bcb0abf80d58021ab04","null","null","<p style=""font-size: 60px; font-family: BACS"">bYuQLkNc</p>","","","","","","","","",""
"html-keyboard-response","75","192843","0.0-8.0-0.67","6147aed5b2a4f748dc2b6ba4","650c16f0f2faf8d7a0d14c09","651c1bcb0abf80d58021ab04","null","null","<p style=""font-size: 60px; font-family: BACS"">mBYlcMRl</p>","","","","","","","","",""
"html-keyboard-response","76","193846","0.0-8.0-0.68","6147aed5b2a4f748dc2b6ba4","650c16f0f2faf8d7a0d14c09","651c1bcb0abf80d58021ab04","null","null","<p style=""font-size: 60px; font-family: BACS"">Ldrbvkam</p>","","","","","","","","",""
"html-keyboard-response","77","194848","0.0-8.0-0.69","6147aed5b2a4f748dc2b6ba4","650c16f0f2faf8d7a0d14c09","651c1bcb0abf80d58021ab04","null","null","<p style=""font-size: 60px; font-family: BACS"">UAcduArv</p>","","","","","","","","",""
"html-keyboard-response","78","195851","0.0-8.0-0.70","6147aed5b2a4f748dc2b6ba4","650c16f0f2faf8d7a0d14c09","651c1bcb0abf80d58021ab04","null","null","<p style=""font-size: 60px; font-family: BACS"">kcdOtcPK</p>","","","","","","","","",""
"html-keyboard-response","79","196854","0.0-8.0-0.71","6147aed5b2a4f748dc2b6ba4","650c16f0f2faf8d7a0d14c09","651c1bcb0abf80d58021ab04","null","null","<p style=""font-size: 60px; font-family: BACS"">GQrcAld</p>","","","","","","","","",""
"html-keyboard-response","80","197857","0.0-8.0-0.72","6147aed5b2a4f748dc2b6ba4","650c16f0f2faf8d7a0d14c09","651c1bcb0abf80d58021ab04","null","null","<p style=""font-size: 60px; font-family: BACS"">EPMDkDmh</p>","","","","","","","","",""
"html-keyboard-response","81","198860","0.0-8.0-0.73","6147aed5b2a4f748dc2b6ba4","650c16f0f2faf8d7a0d14c09","651c1bcb0abf80d58021ab04","null","null","<p style=""font-size: 60px; font-family: BACS"">KTDTBYht</p>","","","","","","","","",""
"html-keyboard-response","82","199862","0.0-8.0-0.74","6147aed5b2a4f748dc2b6ba4","650c16f0f2faf8d7a0d14c09","651c1bcb0abf80d58021ab04","null","null","<p style=""font-size: 60px; font-family: BACS"">rckOLkNc</p>","","","","","","","","",""
"html-keyboard-response","83","200864","0.0-8.0-0.75","6147aed5b2a4f748dc2b6ba4","650c16f0f2faf8d7a0d14c09","651c1bcb0abf80d58021ab04","null","null","<p style=""font-size: 60px; font-family: BACS"">hlctEDmh</p>","","","","","","","","",""
"html-keyboard-response","84","201866","0.0-8.0-0.76","6147aed5b2a4f748dc2b6ba4","650c16f0f2faf8d7a0d14c09","651c1bcb0abf80d58021ab04","null","null","<p style=""font-size: 60px; font-family: BACS"">PYkCYht</p>","","","","","","","","",""
"html-keyboard-response","85","202869","0.0-8.0-0.77","6147aed5b2a4f748dc2b6ba4","650c16f0f2faf8d7a0d14c09","651c1bcb0abf80d58021ab04","null","null","<p style=""font-size: 60px; font-family: BACS"">kLvdNAld</p>","","","","","","","","",""
"html-keyboard-response","86","203871","0.0-8.0-0.78","6147aed5b2a4f748dc2b6ba4","650c16f0f2faf8d7a0d14c09","651c1bcb0abf80d58021ab04","null","null","<p style=""font-size: 60px; font-family: BACS"">UAcdukam</p>","","","","","","","","",""
"html-keyboard-response","87","204873","0.0-8.0-0.79","6147aed5b2a4f748dc2b6ba4","650c16f0f2faf8d7a0d14c09","651c1bcb0abf80d58021ab04","null","null","<p style=""font-size: 60px; font-family: BACS"">rckOAld</p>","","","","","","","","",""
"html-keyboard-response","88","239748","0.0-9.0","6147aed5b2a4f748dc2b6ba4","650c16f0f2faf8d7a0d14c09","651c1bcb0abf80d58021ab04","34875"," ","<p>Great, you've seen the first block of words. You may now take a short break.</p>
      <p>Press the spacebar when you're ready to continue.</p>","","","","","","","","",""
"html-keyboard-response","89","240750","0.0-10.0-0.0","6147aed5b2a4f748dc2b6ba4","650c16f0f2faf8d7a0d14c09","651c1bcb0abf80d58021ab04","null","null","<p style=""font-size: 60px; font-family: BACS"">bYuQAld</p>","","","","","","","","",""
"html-keyboard-response","90","241752","0.0-10.0-0.1","6147aed5b2a4f748dc2b6ba4","650c16f0f2faf8d7a0d14c09","651c1bcb0abf80d58021ab04","null","null","<p style=""font-size: 60px; font-family: BACS"">ldAakam</p>","","","","","","","","",""
"html-keyboard-response","91","242755","0.0-10.0-0.2","6147aed5b2a4f748dc2b6ba4","650c16f0f2faf8d7a0d14c09","651c1bcb0abf80d58021ab04","null","null","<p style=""font-size: 60px; font-family: BACS"">ACcOcMRl</p>","","","","","","","","",""
"html-keyboard-response","92","243757","0.0-10.0-0.3","6147aed5b2a4f748dc2b6ba4","650c16f0f2faf8d7a0d14c09","651c1bcb0abf80d58021ab04","null","null","<p style=""font-size: 60px; font-family: BACS"">KTDTBATc</p>","","","","","","","","",""
"html-keyboard-response","93","244759","0.0-10.0-0.4","6147aed5b2a4f748dc2b6ba4","650c16f0f2faf8d7a0d14c09","651c1bcb0abf80d58021ab04","null","null","<p style=""font-size: 60px; font-family: BACS"">LdrbvLkNc</p>","","","","","","","","",""
"html-keyboard-response","94","245761","0.0-10.0-0.5","6147aed5b2a4f748dc2b6ba4","650c16f0f2faf8d7a0d14c09","651c1bcb0abf80d58021ab04","null","null","<p style=""font-size: 60px; font-family: BACS"">kLvdNAld</p>","","","","","","","","",""
"html-keyboard-response","95","246764","0.0-10.0-0.6","6147aed5b2a4f748dc2b6ba4","650c16f0f2faf8d7a0d14c09","651c1bcb0abf80d58021ab04","null","null","<p style=""font-size: 60px; font-family: BACS"">hlctEDmh</p>","","","","","","","","",""
"html-keyboard-response","96","247767","0.0-10.0-0.7","6147aed5b2a4f748dc2b6ba4","650c16f0f2faf8d7a0d14c09","651c1bcb0abf80d58021ab04","null","null","<p style=""font-size: 60px; font-family: BACS"">mBYlYht</p>","","","","","","","","",""
"html-keyboard-response","97","248769","0.0-10.0-0.8","6147aed5b2a4f748dc2b6ba4","650c16f0f2faf8d7a0d14c09","651c1bcb0abf80d58021ab04","null","null","<p style=""font-size: 60px; font-family: BACS"">ldAaLkNc</p>","","","","","","","","",""
"html-keyboard-response","98","249772","0.0-10.0-0.9","6147aed5b2a4f748dc2b6ba4","650c16f0f2faf8d7a0d14c09","651c1bcb0abf80d58021ab04","null","null","<p style=""font-size: 60px; font-family: BACS"">KTDTBYht</p>","","","","","","","","",""
"html-keyboard-response","99","250775","0.0-10.0-0.10","6147aed5b2a4f748dc2b6ba4","650c16f0f2faf8d7a0d14c09","651c1bcb0abf80d58021ab04","null","null","<p style=""font-size: 60px; font-family: BACS"">kcdOtDmh</p>","","","","","","","","",""
"html-keyboard-response","100","251778","0.0-10.0-0.11","6147aed5b2a4f748dc2b6ba4","650c16f0f2faf8d7a0d14c09","651c1bcb0abf80d58021ab04","null","null","<p style=""font-size: 60px; font-family: BACS"">DhMtcPK</p>","","","","","","","","",""
"html-keyboard-response","101","252780","0.0-10.0-0.12","6147aed5b2a4f748dc2b6ba4","650c16f0f2faf8d7a0d14c09","651c1bcb0abf80d58021ab04","null","null","<p style=""font-size: 60px; font-family: BACS"">GQrcArv</p>","","","","","","","","",""
"html-keyboard-response","102","253782","0.0-10.0-0.13","6147aed5b2a4f748dc2b6ba4","650c16f0f2faf8d7a0d14c09","651c1bcb0abf80d58021ab04","null","null","<p style=""font-size: 60px; font-family: BACS"">LNUrJkbu</p>","","","","","","","","",""
"html-keyboard-response","103","254785","0.0-10.0-0.14","6147aed5b2a4f748dc2b6ba4","650c16f0f2faf8d7a0d14c09","651c1bcb0abf80d58021ab04","null","null","<p style=""font-size: 60px; font-family: BACS"">bYuQArv</p>","","","","","","","","",""
"html-keyboard-response","104","255787","0.0-10.0-0.15","6147aed5b2a4f748dc2b6ba4","650c16f0f2faf8d7a0d14c09","651c1bcb0abf80d58021ab04","null","null","<p style=""font-size: 60px; font-family: BACS"">LNUrJAld</p>","","","","","","","","",""
"html-keyboard-response","105","256790","0.0-10.0-0.16","6147aed5b2a4f748dc2b6ba4","650c16f0f2faf8d7a0d14c09","651c1bcb0abf80d58021ab04","null","null","<p style=""font-size: 60px; font-family: BACS"">UAcduArv</p>","","","","","","","","",""
"html-keyboard-response","106","257792","0.0-10.0-0.17","6147aed5b2a4f748dc2b6ba4","650c16f0f2faf8d7a0d14c09","651c1bcb0abf80d58021ab04","null","null","<p style=""font-size: 60px; font-family: BACS"">DhMtATc</p>","","","","","","","","",""
"html-keyboard-response","107","258795","0.0-10.0-0.18","6147aed5b2a4f748dc2b6ba4","650c16f0f2faf8d7a0d14c09","651c1bcb0abf80d58021ab04","null","null","<p style=""font-size: 60px; font-family: BACS"">KTDTBcMRl</p>","","","","","","","","",""
"html-keyboard-response","108","259798","0.0-10.0-0.19","6147aed5b2a4f748dc2b6ba4","650c16f0f2faf8d7a0d14c09","651c1bcb0abf80d58021ab04","null","null","<p style=""font-size: 60px; font-family: BACS"">EPMDkYht</p>","","","","","","","","",""
"html-keyboard-response","109","260801","0.0-10.0-0.20","6147aed5b2a4f748dc2b6ba4","650c16f0f2faf8d7a0d14c09","651c1bcb0abf80d58021ab04","null","null","<p style=""font-size: 60px; font-family: BACS"">vJabArv</p>","","","","","","","","",""
"html-keyboard-response","110","261803","0.0-10.0-0.21","6147aed5b2a4f748dc2b6ba4","650c16f0f2faf8d7a0d14c09","651c1bcb0abf80d58021ab04","null","null","<p style=""font-size: 60px; font-family: BACS"">PYkCDmh</p>","","","","","","","","",""
"html-keyboard-response","111","262805","0.0-10.0-0.22","6147aed5b2a4f748dc2b6ba4","650c16f0f2faf8d7a0d14c09","651c1bcb0abf80d58021ab04","null","null","<p style=""font-size: 60px; font-family: BACS"">rckOAld</p>","","","","","","","","",""
"html-keyboard-response","112","263807","0.0-10.0-0.23","6147aed5b2a4f748dc2b6ba4","650c16f0f2faf8d7a0d14c09","651c1bcb0abf80d58021ab04","null","null","<p style=""font-size: 60px; font-family: BACS"">LNUrJLkNc</p>","","","","","","","","",""
"html-keyboard-response","113","264810","0.0-10.0-0.24","6147aed5b2a4f748dc2b6ba4","650c16f0f2faf8d7a0d14c09","651c1bcb0abf80d58021ab04","null","null","<p style=""font-size: 60px; font-family: BACS"">UAcdukbu</p>","","","","","","","","",""
"html-keyboard-response","114","265813","0.0-10.0-0.25","6147aed5b2a4f748dc2b6ba4","650c16f0f2faf8d7a0d14c09","651c1bcb0abf80d58021ab04","null","null","<p style=""font-size: 60px; font-family: BACS"">LdrbvAld</p>","","","","","","","","",""
"html-keyboard-response","115","266815","0.0-10.0-0.26","6147aed5b2a4f748dc2b6ba4","650c16f0f2faf8d7a0d14c09","651c1bcb0abf80d58021ab04","null","null","<p style=""font-size: 60px; font-family: BACS"">rckOArv</p>","","","","","","","","",""
"html-keyboard-response","116","267818","0.0-10.0-0.27","6147aed5b2a4f748dc2b6ba4","650c16f0f2faf8d7a0d14c09","651c1bcb0abf80d58021ab04","null","null","<p style=""font-size: 60px; font-family: BACS"">bYuQLkNc</p>","","","","","","","","",""
"html-keyboard-response","117","268820","0.0-10.0-0.28","6147aed5b2a4f748dc2b6ba4","650c16f0f2faf8d7a0d14c09","651c1bcb0abf80d58021ab04","null","null","<p style=""font-size: 60px; font-family: BACS"">mBYlcMRl</p>","","","","","","","","",""
"html-keyboard-response","118","269823","0.0-10.0-0.29","6147aed5b2a4f748dc2b6ba4","650c16f0f2faf8d7a0d14c09","651c1bcb0abf80d58021ab04","null","null","<p style=""font-size: 60px; font-family: BACS"">EYtYRcPK</p>","","","","","","","","",""
"html-keyboard-response","119","270826","0.0-10.0-0.30","6147aed5b2a4f748dc2b6ba4","650c16f0f2faf8d7a0d14c09","651c1bcb0abf80d58021ab04","null","null","<p style=""font-size: 60px; font-family: BACS"">Ldrbvkam</p>","","","","","","","","",""
"html-keyboard-response","120","271829","0.0-10.0-0.31","6147aed5b2a4f748dc2b6ba4","650c16f0f2faf8d7a0d14c09","651c1bcb0abf80d58021ab04","null","null","<p style=""font-size: 60px; font-family: BACS"">kcdOtcMRl</p>","","","","","","","","",""
"html-keyboard-response","121","272831","0.0-10.0-0.32","6147aed5b2a4f748dc2b6ba4","650c16f0f2faf8d7a0d14c09","651c1bcb0abf80d58021ab04","null","null","<p style=""font-size: 60px; font-family: BACS"">rkJuLkNc</p>","","","","","","","","",""
"html-keyboard-response","122","273834","0.0-10.0-0.33","6147aed5b2a4f748dc2b6ba4","650c16f0f2faf8d7a0d14c09","651c1bcb0abf80d58021ab04","null","null","<p style=""font-size: 60px; font-family: BACS"">mBYlcPK</p>","","","","","","","","",""
"html-keyboard-response","123","274837","0.0-10.0-0.34","6147aed5b2a4f748dc2b6ba4","650c16f0f2faf8d7a0d14c09","651c1bcb0abf80d58021ab04","null","null","<p style=""font-size: 60px; font-family: BACS"">EYtYRATc</p>","","","","","","","","",""
"html-keyboard-response","124","275838","0.0-10.0-0.35","6147aed5b2a4f748dc2b6ba4","650c16f0f2faf8d7a0d14c09","651c1bcb0abf80d58021ab04","null","null","<p style=""font-size: 60px; font-family: BACS"">PYkCYht</p>","","","","","","","","",""
"html-keyboard-response","125","276841","0.0-10.0-0.36","6147aed5b2a4f748dc2b6ba4","650c16f0f2faf8d7a0d14c09","651c1bcb0abf80d58021ab04","null","null","<p style=""font-size: 60px; font-family: BACS"">kLvdNArv</p>","","","","","","","","",""
"html-keyboard-response","126","277843","0.0-10.0-0.37","6147aed5b2a4f748dc2b6ba4","650c16f0f2faf8d7a0d14c09","651c1bcb0abf80d58021ab04","null","null","<p style=""font-size: 60px; font-family: BACS"">GQrckbu</p>","","","","","","","","",""
"html-keyboard-response","127","278845","0.0-10.0-0.38","6147aed5b2a4f748dc2b6ba4","650c16f0f2faf8d7a0d14c09","651c1bcb0abf80d58021ab04","null","null","<p style=""font-size: 60px; font-family: BACS"">kcdOtcPK</p>","","","","","","","","",""
"html-keyboard-response","128","279847","0.0-10.0-0.39","6147aed5b2a4f748dc2b6ba4","650c16f0f2faf8d7a0d14c09","651c1bcb0abf80d58021ab04","null","null","<p style=""font-size: 60px; font-family: BACS"">ldAaAld</p>","","","","","","","","",""
"html-keyboard-response","129","280849","0.0-10.0-0.40","6147aed5b2a4f748dc2b6ba4","650c16f0f2faf8d7a0d14c09","651c1bcb0abf80d58021ab04","null","null","<p style=""font-size: 60px; font-family: BACS"">hCktYht</p>","","","","","","","","",""
"html-keyboard-response","130","281852","0.0-10.0-0.41","6147aed5b2a4f748dc2b6ba4","650c16f0f2faf8d7a0d14c09","651c1bcb0abf80d58021ab04","null","null","<p style=""font-size: 60px; font-family: BACS"">ldAaArv</p>","","","","","","","","",""
"html-keyboard-response","131","282854","0.0-10.0-0.42","6147aed5b2a4f748dc2b6ba4","650c16f0f2faf8d7a0d14c09","651c1bcb0abf80d58021ab04","null","null","<p style=""font-size: 60px; font-family: BACS"">vJabkam</p>","","","","","","","","",""
"html-keyboard-response","132","283856","0.0-10.0-0.43","6147aed5b2a4f748dc2b6ba4","650c16f0f2faf8d7a0d14c09","651c1bcb0abf80d58021ab04","null","null","<p style=""font-size: 60px; font-family: BACS"">KTDTBcPK</p>","","","","","","","","",""
"html-keyboard-response","133","284859","0.0-10.0-0.44","6147aed5b2a4f748dc2b6ba4","650c16f0f2faf8d7a0d14c09","651c1bcb0abf80d58021ab04","null","null","<p style=""font-size: 60px; font-family: BACS"">GQrcAld</p>","","","","","","","","",""
"html-keyboard-response","134","285861","0.0-10.0-0.45","6147aed5b2a4f748dc2b6ba4","650c16f0f2faf8d7a0d14c09","651c1bcb0abf80d58021ab04","null","null","<p style=""font-size: 60px; font-family: BACS"">rkJukbu</p>","","","","","","","","",""
"html-keyboard-response","135","286864","0.0-10.0-0.46","6147aed5b2a4f748dc2b6ba4","650c16f0f2faf8d7a0d14c09","651c1bcb0abf80d58021ab04","null","null","<p style=""font-size: 60px; font-family: BACS"">ACcOYht</p>","","","","","","","","",""
"html-keyboard-response","136","287866","0.0-10.0-0.47","6147aed5b2a4f748dc2b6ba4","650c16f0f2faf8d7a0d14c09","651c1bcb0abf80d58021ab04","null","null","<p style=""font-size: 60px; font-family: BACS"">DhMtcMRl</p>","","","","","","","","",""
"html-keyboard-response","137","288868","0.0-10.0-0.48","6147aed5b2a4f748dc2b6ba4","650c16f0f2faf8d7a0d14c09","651c1bcb0abf80d58021ab04","null","null","<p style=""font-size: 60px; font-family: BACS"">rkJuArv</p>","","","","","","","","",""
"html-keyboard-response","138","289871","0.0-10.0-0.49","6147aed5b2a4f748dc2b6ba4","650c16f0f2faf8d7a0d14c09","651c1bcb0abf80d58021ab04","null","null","<p style=""font-size: 60px; font-family: BACS"">vJabLkNc</p>","","","","","","","","",""
"html-keyboard-response","139","290873","0.0-10.0-0.50","6147aed5b2a4f748dc2b6ba4","650c16f0f2faf8d7a0d14c09","651c1bcb0abf80d58021ab04","null","null","<p style=""font-size: 60px; font-family: BACS"">kcdOtYht</p>","","","","","","","","",""
"html-keyboard-response","140","291875","0.0-10.0-0.51","6147aed5b2a4f748dc2b6ba4","650c16f0f2faf8d7a0d14c09","651c1bcb0abf80d58021ab04","null","null","<p style=""font-size: 60px; font-family: BACS"">EPMDkcMRl</p>","","","","","","","","",""
"html-keyboard-response","141","292877","0.0-10.0-0.52","6147aed5b2a4f748dc2b6ba4","650c16f0f2faf8d7a0d14c09","651c1bcb0abf80d58021ab04","null","null","<p style=""font-size: 60px; font-family: BACS"">PYkCcPK</p>","","","","","","","","",""
"html-keyboard-response","142","293879","0.0-10.0-0.53","6147aed5b2a4f748dc2b6ba4","650c16f0f2faf8d7a0d14c09","651c1bcb0abf80d58021ab04","null","null","<p style=""font-size: 60px; font-family: BACS"">bYuQkbu</p>","","","","","","","","",""
"html-keyboard-response","143","294882","0.0-10.0-0.54","6147aed5b2a4f748dc2b6ba4","650c16f0f2faf8d7a0d14c09","651c1bcb0abf80d58021ab04","null","null","<p style=""font-size: 60px; font-family: BACS"">hCktDmh</p>","","","","","","","","",""
"html-keyboard-response","144","295884","0.0-10.0-0.55","6147aed5b2a4f748dc2b6ba4","650c16f0f2faf8d7a0d14c09","651c1bcb0abf80d58021ab04","null","null","<p style=""font-size: 60px; font-family: BACS"">ACcOATc</p>","","","","","","","","",""
"html-keyboard-response","145","296887","0.0-10.0-0.56","6147aed5b2a4f748dc2b6ba4","650c16f0f2faf8d7a0d14c09","651c1bcb0abf80d58021ab04","null","null","<p style=""font-size: 60px; font-family: BACS"">EYtYRcMRl</p>","","","","","","","","",""
"html-keyboard-response","146","297889","0.0-10.0-0.57","6147aed5b2a4f748dc2b6ba4","650c16f0f2faf8d7a0d14c09","651c1bcb0abf80d58021ab04","null","null","<p style=""font-size: 60px; font-family: BACS"">rckOLkNc</p>","","","","","","","","",""
"html-keyboard-response","147","298891","0.0-10.0-0.58","6147aed5b2a4f748dc2b6ba4","650c16f0f2faf8d7a0d14c09","651c1bcb0abf80d58021ab04","null","null","<p style=""font-size: 60px; font-family: BACS"">hlctEYht</p>","","","","","","","","",""
"html-keyboard-response","148","299894","0.0-10.0-0.59","6147aed5b2a4f748dc2b6ba4","650c16f0f2faf8d7a0d14c09","651c1bcb0abf80d58021ab04","null","null","<p style=""font-size: 60px; font-family: BACS"">vJabkbu</p>","","","","","","","","",""
"html-keyboard-response","149","300897","0.0-10.0-0.60","6147aed5b2a4f748dc2b6ba4","650c16f0f2faf8d7a0d14c09","651c1bcb0abf80d58021ab04","null","null","<p style=""font-size: 60px; font-family: BACS"">EPMDkDmh</p>","","","","","","","","",""
"html-keyboard-response","150","301899","0.0-10.0-0.61","6147aed5b2a4f748dc2b6ba4","650c16f0f2faf8d7a0d14c09","651c1bcb0abf80d58021ab04","null","null","<p style=""font-size: 60px; font-family: BACS"">UAcduAld</p>","","","","","","","","",""
"html-keyboard-response","151","302902","0.0-10.0-0.62","6147aed5b2a4f748dc2b6ba4","650c16f0f2faf8d7a0d14c09","651c1bcb0abf80d58021ab04","null","null","<p style=""font-size: 60px; font-family: BACS"">hCktATc</p>","","","","","","","","",""
"html-keyboard-response","152","303905","0.0-10.0-0.63","6147aed5b2a4f748dc2b6ba4","650c16f0f2faf8d7a0d14c09","651c1bcb0abf80d58021ab04","null","null","<p style=""font-size: 60px; font-family: BACS"">kLvdNLkNc</p>","","","","","","","","",""
"html-keyboard-response","153","304907","0.0-10.0-0.64","6147aed5b2a4f748dc2b6ba4","650c16f0f2faf8d7a0d14c09","651c1bcb0abf80d58021ab04","null","null","<p style=""font-size: 60px; font-family: BACS"">LNUrJkam</p>","","","","","","","","",""
"html-keyboard-response","154","305909","0.0-10.0-0.65","6147aed5b2a4f748dc2b6ba4","650c16f0f2faf8d7a0d14c09","651c1bcb0abf80d58021ab04","null","null","<p style=""font-size: 60px; font-family: BACS"">EPMDkATc</p>","","","","","","","","",""
"html-keyboard-response","155","306911","0.0-10.0-0.66","6147aed5b2a4f748dc2b6ba4","650c16f0f2faf8d7a0d14c09","651c1bcb0abf80d58021ab04","null","null","<p style=""font-size: 60px; font-family: BACS"">GQrckam</p>","","","","","","","","",""
"html-keyboard-response","156","307914","0.0-10.0-0.67","6147aed5b2a4f748dc2b6ba4","650c16f0f2faf8d7a0d14c09","651c1bcb0abf80d58021ab04","null","null","<p style=""font-size: 60px; font-family: BACS"">mBYlATc</p>","","","","","","","","",""
"html-keyboard-response","157","308916","0.0-10.0-0.68","6147aed5b2a4f748dc2b6ba4","650c16f0f2faf8d7a0d14c09","651c1bcb0abf80d58021ab04","null","null","<p style=""font-size: 60px; font-family: BACS"">UAcdukam</p>","","","","","","","","",""
"html-keyboard-response","158","309918","0.0-10.0-0.69","6147aed5b2a4f748dc2b6ba4","650c16f0f2faf8d7a0d14c09","651c1bcb0abf80d58021ab04","null","null","<p style=""font-size: 60px; font-family: BACS"">hCktcPK</p>","","","","","","","","",""
"html-keyboard-response","159","310921","0.0-10.0-0.70","6147aed5b2a4f748dc2b6ba4","650c16f0f2faf8d7a0d14c09","651c1bcb0abf80d58021ab04","null","null","<p style=""font-size: 60px; font-family: BACS"">PYkCcMRl</p>","","","","","","","","",""
"html-keyboard-response","160","311923","0.0-10.0-0.71","6147aed5b2a4f748dc2b6ba4","650c16f0f2faf8d7a0d14c09","651c1bcb0abf80d58021ab04","null","null","<p style=""font-size: 60px; font-family: BACS"">Ldrbvkbu</p>","","","","","","","","",""
"html-keyboard-response","161","312926","0.0-10.0-0.72","6147aed5b2a4f748dc2b6ba4","650c16f0f2faf8d7a0d14c09","651c1bcb0abf80d58021ab04","null","null","<p style=""font-size: 60px; font-family: BACS"">DhMtDmh</p>","","","","","","","","",""
"html-keyboard-response","162","313928","0.0-10.0-0.73","6147aed5b2a4f748dc2b6ba4","650c16f0f2faf8d7a0d14c09","651c1bcb0abf80d58021ab04","null","null","<p style=""font-size: 60px; font-family: BACS"">hlctEcPK</p>","","","","","","","","",""
"html-keyboard-response","163","314930","0.0-10.0-0.74","6147aed5b2a4f748dc2b6ba4","650c16f0f2faf8d7a0d14c09","651c1bcb0abf80d58021ab04","null","null","<p style=""font-size: 60px; font-family: BACS"">ACcODmh</p>","","","","","","","","",""
"html-keyboard-response","164","315933","0.0-10.0-0.75","6147aed5b2a4f748dc2b6ba4","650c16f0f2faf8d7a0d14c09","651c1bcb0abf80d58021ab04","null","null","<p style=""font-size: 60px; font-family: BACS"">rkJukam</p>","","","","","","","","",""
"html-keyboard-response","165","316936","0.0-10.0-0.76","6147aed5b2a4f748dc2b6ba4","650c16f0f2faf8d7a0d14c09","651c1bcb0abf80d58021ab04","null","null","<p style=""font-size: 60px; font-family: BACS"">rckOkbu</p>","","","","","","","","",""
"html-keyboard-response","166","317938","0.0-10.0-0.77","6147aed5b2a4f748dc2b6ba4","650c16f0f2faf8d7a0d14c09","651c1bcb0abf80d58021ab04","null","null","<p style=""font-size: 60px; font-family: BACS"">EYtYRDmh</p>","","","","","","","","",""
"html-keyboard-response","167","318940","0.0-10.0-0.78","6147aed5b2a4f748dc2b6ba4","650c16f0f2faf8d7a0d14c09","651c1bcb0abf80d58021ab04","null","null","<p style=""font-size: 60px; font-family: BACS"">hlctEATc</p>","","","","","","","","",""
"html-keyboard-response","168","319942","0.0-10.0-0.79","6147aed5b2a4f748dc2b6ba4","650c16f0f2faf8d7a0d14c09","651c1bcb0abf80d58021ab04","null","null","<p style=""font-size: 60px; font-family: BACS"">kLvdNkam</p>","","","","","","","","",""
"html-keyboard-response","169","427687","0.0-11.0","6147aed5b2a4f748dc2b6ba4","650c16f0f2faf8d7a0d14c09","651c1bcb0abf80d58021ab04","107750"," ","<p>Great, you've seen the second block of words. You may now take a short break.</p>
      <p>Press the spacebar when you're ready to continue.</p>","","","","","","","","",""
"html-keyboard-response","170","428688","0.0-12.0-0.0","6147aed5b2a4f748dc2b6ba4","650c16f0f2faf8d7a0d14c09","651c1bcb0abf80d58021ab04","null","null","<p style=""font-size: 60px; font-family: BACS"">KTDTBcMRl</p>","","","","","","","","",""
"html-keyboard-response","171","429691","0.0-12.0-0.1","6147aed5b2a4f748dc2b6ba4","650c16f0f2faf8d7a0d14c09","651c1bcb0abf80d58021ab04","null","null","<p style=""font-size: 60px; font-family: BACS"">DhMtATc</p>","","","","","","","","",""
"html-keyboard-response","172","430694","0.0-12.0-0.2","6147aed5b2a4f748dc2b6ba4","650c16f0f2faf8d7a0d14c09","651c1bcb0abf80d58021ab04","null","null","<p style=""font-size: 60px; font-family: BACS"">LdrbvLkNc</p>","","","","","","","","",""
"html-keyboard-response","173","431696","0.0-12.0-0.3","6147aed5b2a4f748dc2b6ba4","650c16f0f2faf8d7a0d14c09","651c1bcb0abf80d58021ab04","null","null","<p style=""font-size: 60px; font-family: BACS"">hlctEYht</p>","","","","","","","","",""
"html-keyboard-response","174","432698","0.0-12.0-0.4","6147aed5b2a4f748dc2b6ba4","650c16f0f2faf8d7a0d14c09","651c1bcb0abf80d58021ab04","null","null","<p style=""font-size: 60px; font-family: BACS"">GQrcAld</p>","","","","","","","","",""
"html-keyboard-response","175","433701","0.0-12.0-0.5","6147aed5b2a4f748dc2b6ba4","650c16f0f2faf8d7a0d14c09","651c1bcb0abf80d58021ab04","null","null","<p style=""font-size: 60px; font-family: BACS"">EYtYRDmh</p>","","","","","","","","",""
"html-keyboard-response","176","434704","0.0-12.0-0.6","6147aed5b2a4f748dc2b6ba4","650c16f0f2faf8d7a0d14c09","651c1bcb0abf80d58021ab04","null","null","<p style=""font-size: 60px; font-family: BACS"">rkJuLkNc</p>","","","","","","","","",""
"html-keyboard-response","177","435706","0.0-12.0-0.7","6147aed5b2a4f748dc2b6ba4","650c16f0f2faf8d7a0d14c09","651c1bcb0abf80d58021ab04","null","null","<p style=""font-size: 60px; font-family: BACS"">mBYlYht</p>","","","","","","","","",""
"html-keyboard-response","178","436708","0.0-12.0-0.8","6147aed5b2a4f748dc2b6ba4","650c16f0f2faf8d7a0d14c09","651c1bcb0abf80d58021ab04","null","null","<p style=""font-size: 60px; font-family: BACS"">LNUrJkbu</p>","","","","","","","","",""
"html-keyboard-response","179","437711","0.0-12.0-0.9","6147aed5b2a4f748dc2b6ba4","650c16f0f2faf8d7a0d14c09","651c1bcb0abf80d58021ab04","null","null","<p style=""font-size: 60px; font-family: BACS"">PYkCcPK</p>","","","","","","","","",""
"html-keyboard-response","180","438714","0.0-12.0-0.10","6147aed5b2a4f748dc2b6ba4","650c16f0f2faf8d7a0d14c09","651c1bcb0abf80d58021ab04","null","null","<p style=""font-size: 60px; font-family: BACS"">ldAaArv</p>","","","","","","","","",""
"html-keyboard-response","181","439716","0.0-12.0-0.11","6147aed5b2a4f748dc2b6ba4","650c16f0f2faf8d7a0d14c09","651c1bcb0abf80d58021ab04","null","null","<p style=""font-size: 60px; font-family: BACS"">DhMtcMRl</p>","","","","","","","","",""
"html-keyboard-response","182","440719","0.0-12.0-0.12","6147aed5b2a4f748dc2b6ba4","650c16f0f2faf8d7a0d14c09","651c1bcb0abf80d58021ab04","null","null","<p style=""font-size: 60px; font-family: BACS"">ACcOYht</p>","","","","","","","","",""
"html-keyboard-response","183","441722","0.0-12.0-0.13","6147aed5b2a4f748dc2b6ba4","650c16f0f2faf8d7a0d14c09","651c1bcb0abf80d58021ab04","null","null","<p style=""font-size: 60px; font-family: BACS"">DhMtcPK</p>","","","","","","","","",""
"html-keyboard-response","184","442724","0.0-12.0-0.14","6147aed5b2a4f748dc2b6ba4","650c16f0f2faf8d7a0d14c09","651c1bcb0abf80d58021ab04","null","null","<p style=""font-size: 60px; font-family: BACS"">LNUrJkam</p>","","","","","","","","",""
"html-keyboard-response","185","443726","0.0-12.0-0.15","6147aed5b2a4f748dc2b6ba4","650c16f0f2faf8d7a0d14c09","651c1bcb0abf80d58021ab04","null","null","<p style=""font-size: 60px; font-family: BACS"">LdrbvAld</p>","","","","","","","","",""
"html-keyboard-response","186","444729","0.0-12.0-0.16","6147aed5b2a4f748dc2b6ba4","650c16f0f2faf8d7a0d14c09","651c1bcb0abf80d58021ab04","null","null","<p style=""font-size: 60px; font-family: BACS"">vJabLkNc</p>","","","","","","","","",""
"html-keyboard-response","187","445731","0.0-12.0-0.17","6147aed5b2a4f748dc2b6ba4","650c16f0f2faf8d7a0d14c09","651c1bcb0abf80d58021ab04","null","null","<p style=""font-size: 60px; font-family: BACS"">mBYlcMRl</p>","","","","","","","","",""
"html-keyboard-response","188","446734","0.0-12.0-0.18","6147aed5b2a4f748dc2b6ba4","650c16f0f2faf8d7a0d14c09","651c1bcb0abf80d58021ab04","null","null","<p style=""font-size: 60px; font-family: BACS"">ldAaAld</p>","","","","","","","","",""
"html-keyboard-response","189","447738","0.0-12.0-0.19","6147aed5b2a4f748dc2b6ba4","650c16f0f2faf8d7a0d14c09","651c1bcb0abf80d58021ab04","null","null","<p style=""font-size: 60px; font-family: BACS"">kcdOtcPK</p>","","","","","","","","",""
"html-keyboard-response","190","448741","0.0-12.0-0.20","6147aed5b2a4f748dc2b6ba4","650c16f0f2faf8d7a0d14c09","651c1bcb0abf80d58021ab04","null","null","<p style=""font-size: 60px; font-family: BACS"">vJabArv</p>","","","","","","","","",""
"html-keyboard-response","191","449743","0.0-12.0-0.21","6147aed5b2a4f748dc2b6ba4","650c16f0f2faf8d7a0d14c09","651c1bcb0abf80d58021ab04","null","null","<p style=""font-size: 60px; font-family: BACS"">GQrckbu</p>","","","","","","","","",""
"html-keyboard-response","192","450746","0.0-12.0-0.22","6147aed5b2a4f748dc2b6ba4","650c16f0f2faf8d7a0d14c09","651c1bcb0abf80d58021ab04","null","null","<p style=""font-size: 60px; font-family: BACS"">hCktDmh</p>","","","","","","","","",""
"html-keyboard-response","193","451748","0.0-12.0-0.23","6147aed5b2a4f748dc2b6ba4","650c16f0f2faf8d7a0d14c09","651c1bcb0abf80d58021ab04","null","null","<p style=""font-size: 60px; font-family: BACS"">PYkCYht</p>","","","","","","","","",""
"html-keyboard-response","194","452750","0.0-12.0-0.24","6147aed5b2a4f748dc2b6ba4","650c16f0f2faf8d7a0d14c09","651c1bcb0abf80d58021ab04","null","null","<p style=""font-size: 60px; font-family: BACS"">rkJukam</p>","","","","","","","","",""
"html-keyboard-response","195","453753","0.0-12.0-0.25","6147aed5b2a4f748dc2b6ba4","650c16f0f2faf8d7a0d14c09","651c1bcb0abf80d58021ab04","null","null","<p style=""font-size: 60px; font-family: BACS"">hlctEcPK</p>","","","","","","","","",""
"html-keyboard-response","196","454756","0.0-12.0-0.26","6147aed5b2a4f748dc2b6ba4","650c16f0f2faf8d7a0d14c09","651c1bcb0abf80d58021ab04","null","null","<p style=""font-size: 60px; font-family: BACS"">rkJuArv</p>","","","","","","","","",""
"html-keyboard-response","197","455758","0.0-12.0-0.27","6147aed5b2a4f748dc2b6ba4","650c16f0f2faf8d7a0d14c09","651c1bcb0abf80d58021ab04","null","null","<p style=""font-size: 60px; font-family: BACS"">rckOLkNc</p>","","","","","","","","",""
"html-keyboard-response","198","456761","0.0-12.0-0.28","6147aed5b2a4f748dc2b6ba4","650c16f0f2faf8d7a0d14c09","651c1bcb0abf80d58021ab04","null","null","<p style=""font-size: 60px; font-family: BACS"">KTDTBcPK</p>","","","","","","","","",""
"html-keyboard-response","199","457764","0.0-12.0-0.29","6147aed5b2a4f748dc2b6ba4","650c16f0f2faf8d7a0d14c09","651c1bcb0abf80d58021ab04","null","null","<p style=""font-size: 60px; font-family: BACS"">hlctEDmh</p>","","","","","","","","",""
"html-keyboard-response","200","458766","0.0-12.0-0.30","6147aed5b2a4f748dc2b6ba4","650c16f0f2faf8d7a0d14c09","651c1bcb0abf80d58021ab04","null","null","<p style=""font-size: 60px; font-family: BACS"">UAcduAld</p>","","","","","","","","",""
"html-keyboard-response","201","459769","0.0-12.0-0.31","6147aed5b2a4f748dc2b6ba4","650c16f0f2faf8d7a0d14c09","651c1bcb0abf80d58021ab04","null","null","<p style=""font-size: 60px; font-family: BACS"">rckOArv</p>","","","","","","","","",""
"html-keyboard-response","202","460771","0.0-12.0-0.32","6147aed5b2a4f748dc2b6ba4","650c16f0f2faf8d7a0d14c09","651c1bcb0abf80d58021ab04","null","null","<p style=""font-size: 60px; font-family: BACS"">UAcdukbu</p>","","","","","","","","",""
"html-keyboard-response","203","461774","0.0-12.0-0.33","6147aed5b2a4f748dc2b6ba4","650c16f0f2faf8d7a0d14c09","651c1bcb0abf80d58021ab04","null","null","<p style=""font-size: 60px; font-family: BACS"">EPMDkATc</p>","","","","","","","","",""
"html-keyboard-response","204","462776","0.0-12.0-0.34","6147aed5b2a4f748dc2b6ba4","650c16f0f2faf8d7a0d14c09","651c1bcb0abf80d58021ab04","null","null","<p style=""font-size: 60px; font-family: BACS"">kcdOtcMRl</p>","","","","","","","","",""
"html-keyboard-response","205","463778","0.0-12.0-0.35","6147aed5b2a4f748dc2b6ba4","650c16f0f2faf8d7a0d14c09","651c1bcb0abf80d58021ab04","null","null","<p style=""font-size: 60px; font-family: BACS"">rckOAld</p>","","","","","","","","",""
"html-keyboard-response","206","464781","0.0-12.0-0.36","6147aed5b2a4f748dc2b6ba4","650c16f0f2faf8d7a0d14c09","651c1bcb0abf80d58021ab04","null","null","<p style=""font-size: 60px; font-family: BACS"">UAcdukam</p>","","","","","","","","",""
"html-keyboard-response","207","465783","0.0-12.0-0.37","6147aed5b2a4f748dc2b6ba4","650c16f0f2faf8d7a0d14c09","651c1bcb0abf80d58021ab04","null","null","<p style=""font-size: 60px; font-family: BACS"">rckOkbu</p>","","","","","","","","",""
"html-keyboard-response","208","466785","0.0-12.0-0.38","6147aed5b2a4f748dc2b6ba4","650c16f0f2faf8d7a0d14c09","651c1bcb0abf80d58021ab04","null","null","<p style=""font-size: 60px; font-family: BACS"">kLvdNAld</p>","","","","","","","","",""
"html-keyboard-response","209","467788","0.0-12.0-0.39","6147aed5b2a4f748dc2b6ba4","650c16f0f2faf8d7a0d14c09","651c1bcb0abf80d58021ab04","null","null","<p style=""font-size: 60px; font-family: BACS"">UAcduArv</p>","","","","","","","","",""
"html-keyboard-response","210","468791","0.0-12.0-0.40","6147aed5b2a4f748dc2b6ba4","650c16f0f2faf8d7a0d14c09","651c1bcb0abf80d58021ab04","null","null","<p style=""font-size: 60px; font-family: BACS"">EPMDkcMRl</p>","","","","","","","","",""
"html-keyboard-response","211","469793","0.0-12.0-0.41","6147aed5b2a4f748dc2b6ba4","650c16f0f2faf8d7a0d14c09","651c1bcb0abf80d58021ab04","null","null","<p style=""font-size: 60px; font-family: BACS"">Ldrbvkam</p>","","","","","","","","",""
"html-keyboard-response","212","470796","0.0-12.0-0.42","6147aed5b2a4f748dc2b6ba4","650c16f0f2faf8d7a0d14c09","651c1bcb0abf80d58021ab04","null","null","<p style=""font-size: 60px; font-family: BACS"">bYuQArv</p>","","","","","","","","",""
"html-keyboard-response","213","471799","0.0-12.0-0.43","6147aed5b2a4f748dc2b6ba4","650c16f0f2faf8d7a0d14c09","651c1bcb0abf80d58021ab04","null","null","<p style=""font-size: 60px; font-family: BACS"">EYtYRcPK</p>","","","","","","","","",""
"html-keyboard-response","214","472802","0.0-12.0-0.44","6147aed5b2a4f748dc2b6ba4","650c16f0f2faf8d7a0d14c09","651c1bcb0abf80d58021ab04","null","null","<p style=""font-size: 60px; font-family: BACS"">EPMDkDmh</p>","","","","","","","","",""
"html-keyboard-response","215","473805","0.0-12.0-0.45","6147aed5b2a4f748dc2b6ba4","650c16f0f2faf8d7a0d14c09","651c1bcb0abf80d58021ab04","null","null","<p style=""font-size: 60px; font-family: BACS"">mBYlcPK</p>","","","","","","","","",""
"html-keyboard-response","216","474808","0.0-12.0-0.46","6147aed5b2a4f748dc2b6ba4","650c16f0f2faf8d7a0d14c09","651c1bcb0abf80d58021ab04","null","null","<p style=""font-size: 60px; font-family: BACS"">bYuQLkNc</p>","","","","","","","","",""
"html-keyboard-response","217","475810","0.0-12.0-0.47","6147aed5b2a4f748dc2b6ba4","650c16f0f2faf8d7a0d14c09","651c1bcb0abf80d58021ab04","null","null","<p style=""font-size: 60px; font-family: BACS"">mBYlATc</p>","","","","","","","","",""
"html-keyboard-response","218","476813","0.0-12.0-0.48","6147aed5b2a4f748dc2b6ba4","650c16f0f2faf8d7a0d14c09","651c1bcb0abf80d58021ab04","null","null","<p style=""font-size: 60px; font-family: BACS"">LNUrJLkNc</p>","","","","","","","","",""
"html-keyboard-response","219","477815","0.0-12.0-0.49","6147aed5b2a4f748dc2b6ba4","650c16f0f2faf8d7a0d14c09","651c1bcb0abf80d58021ab04","null","null","<p style=""font-size: 60px; font-family: BACS"">kLvdNkam</p>","","","","","","","","",""
"html-keyboard-response","220","478818","0.0-12.0-0.50","6147aed5b2a4f748dc2b6ba4","650c16f0f2faf8d7a0d14c09","651c1bcb0abf80d58021ab04","null","null","<p style=""font-size: 60px; font-family: BACS"">PYkCDmh</p>","","","","","","","","",""
"html-keyboard-response","221","479820","0.0-12.0-0.51","6147aed5b2a4f748dc2b6ba4","650c16f0f2faf8d7a0d14c09","651c1bcb0abf80d58021ab04","null","null","<p style=""font-size: 60px; font-family: BACS"">hCktATc</p>","","","","","","","","",""
"html-keyboard-response","222","480823","0.0-12.0-0.52","6147aed5b2a4f748dc2b6ba4","650c16f0f2faf8d7a0d14c09","651c1bcb0abf80d58021ab04","null","null","<p style=""font-size: 60px; font-family: BACS"">bYuQkbu</p>","","","","","","","","",""
"html-keyboard-response","223","481826","0.0-12.0-0.53","6147aed5b2a4f748dc2b6ba4","650c16f0f2faf8d7a0d14c09","651c1bcb0abf80d58021ab04","null","null","<p style=""font-size: 60px; font-family: BACS"">GQrckam</p>","","","","","","","","",""
"html-keyboard-response","224","482828","0.0-12.0-0.54","6147aed5b2a4f748dc2b6ba4","650c16f0f2faf8d7a0d14c09","651c1bcb0abf80d58021ab04","null","null","<p style=""font-size: 60px; font-family: BACS"">ACcODmh</p>","","","","","","","","",""
"html-keyboard-response","225","483831","0.0-12.0-0.55","6147aed5b2a4f748dc2b6ba4","650c16f0f2faf8d7a0d14c09","651c1bcb0abf80d58021ab04","null","null","<p style=""font-size: 60px; font-family: BACS"">vJabkbu</p>","","","","","","","","",""
"html-keyboard-response","226","484834","0.0-12.0-0.56","6147aed5b2a4f748dc2b6ba4","650c16f0f2faf8d7a0d14c09","651c1bcb0abf80d58021ab04","null","null","<p style=""font-size: 60px; font-family: BACS"">ldAaLkNc</p>","","","","","","","","",""
"html-keyboard-response","227","485837","0.0-12.0-0.57","6147aed5b2a4f748dc2b6ba4","650c16f0f2faf8d7a0d14c09","651c1bcb0abf80d58021ab04","null","null","<p style=""font-size: 60px; font-family: BACS"">EYtYRATc</p>","","","","","","","","",""
"html-keyboard-response","228","486840","0.0-12.0-0.58","6147aed5b2a4f748dc2b6ba4","650c16f0f2faf8d7a0d14c09","651c1bcb0abf80d58021ab04","null","null","<p style=""font-size: 60px; font-family: BACS"">hCktcPK</p>","","","","","","","","",""
"html-keyboard-response","229","487843","0.0-12.0-0.59","6147aed5b2a4f748dc2b6ba4","650c16f0f2faf8d7a0d14c09","651c1bcb0abf80d58021ab04","null","null","<p style=""font-size: 60px; font-family: BACS"">hlctEATc</p>","","","","","","","","",""
"html-keyboard-response","230","488845","0.0-12.0-0.60","6147aed5b2a4f748dc2b6ba4","650c16f0f2faf8d7a0d14c09","651c1bcb0abf80d58021ab04","null","null","<p style=""font-size: 60px; font-family: BACS"">DhMtDmh</p>","","","","","","","","",""
"html-keyboard-response","231","489847","0.0-12.0-0.61","6147aed5b2a4f748dc2b6ba4","650c16f0f2faf8d7a0d14c09","651c1bcb0abf80d58021ab04","null","null","<p style=""font-size: 60px; font-family: BACS"">KTDTBYht</p>","","","","","","","","",""
"html-keyboard-response","232","490850","0.0-12.0-0.62","6147aed5b2a4f748dc2b6ba4","650c16f0f2faf8d7a0d14c09","651c1bcb0abf80d58021ab04","null","null","<p style=""font-size: 60px; font-family: BACS"">GQrcArv</p>","","","","","","","","",""
"html-keyboard-response","233","491852","0.0-12.0-0.63","6147aed5b2a4f748dc2b6ba4","650c16f0f2faf8d7a0d14c09","651c1bcb0abf80d58021ab04","null","null","<p style=""font-size: 60px; font-family: BACS"">kLvdNLkNc</p>","","","","","","","","",""
"html-keyboard-response","234","492855","0.0-12.0-0.64","6147aed5b2a4f748dc2b6ba4","650c16f0f2faf8d7a0d14c09","651c1bcb0abf80d58021ab04","null","null","<p style=""font-size: 60px; font-family: BACS"">kcdOtYht</p>","","","","","","","","",""
"html-keyboard-response","235","493857","0.0-12.0-0.65","6147aed5b2a4f748dc2b6ba4","650c16f0f2faf8d7a0d14c09","651c1bcb0abf80d58021ab04","null","null","<p style=""font-size: 60px; font-family: BACS"">EYtYRcMRl</p>","","","","","","","","",""
"html-keyboard-response","236","494860","0.0-12.0-0.66","6147aed5b2a4f748dc2b6ba4","650c16f0f2faf8d7a0d14c09","651c1bcb0abf80d58021ab04","null","null","<p style=""font-size: 60px; font-family: BACS"">LNUrJAld</p>","","","","","","","","",""
"html-keyboard-response","237","495862","0.0-12.0-0.67","6147aed5b2a4f748dc2b6ba4","650c16f0f2faf8d7a0d14c09","651c1bcb0abf80d58021ab04","null","null","<p style=""font-size: 60px; font-family: BACS"">vJabkam</p>","","","","","","","","",""
"html-keyboard-response","238","496865","0.0-12.0-0.68","6147aed5b2a4f748dc2b6ba4","650c16f0f2faf8d7a0d14c09","651c1bcb0abf80d58021ab04","null","null","<p style=""font-size: 60px; font-family: BACS"">PYkCcMRl</p>","","","","","","","","",""
"html-keyboard-response","239","497867","0.0-12.0-0.69","6147aed5b2a4f748dc2b6ba4","650c16f0f2faf8d7a0d14c09","651c1bcb0abf80d58021ab04","null","null","<p style=""font-size: 60px; font-family: BACS"">bYuQAld</p>","","","","","","","","",""
"html-keyboard-response","240","498869","0.0-12.0-0.70","6147aed5b2a4f748dc2b6ba4","650c16f0f2faf8d7a0d14c09","651c1bcb0abf80d58021ab04","null","null","<p style=""font-size: 60px; font-family: BACS"">ACcOcMRl</p>","","","","","","","","",""
"html-keyboard-response","241","499872","0.0-12.0-0.71","6147aed5b2a4f748dc2b6ba4","650c16f0f2faf8d7a0d14c09","651c1bcb0abf80d58021ab04","null","null","<p style=""font-size: 60px; font-family: BACS"">rkJukbu</p>","","","","","","","","",""
"html-keyboard-response","242","500875","0.0-12.0-0.72","6147aed5b2a4f748dc2b6ba4","650c16f0f2faf8d7a0d14c09","651c1bcb0abf80d58021ab04","null","null","<p style=""font-size: 60px; font-family: BACS"">kcdOtDmh</p>","","","","","","","","",""
"html-keyboard-response","243","501878","0.0-12.0-0.73","6147aed5b2a4f748dc2b6ba4","650c16f0f2faf8d7a0d14c09","651c1bcb0abf80d58021ab04","null","null","<p style=""font-size: 60px; font-family: BACS"">Ldrbvkbu</p>","","","","","","","","",""
"html-keyboard-response","244","502880","0.0-12.0-0.74","6147aed5b2a4f748dc2b6ba4","650c16f0f2faf8d7a0d14c09","651c1bcb0abf80d58021ab04","null","null","<p style=""font-size: 60px; font-family: BACS"">hCktYht</p>","","","","","","","","",""
"html-keyboard-response","245","503882","0.0-12.0-0.75","6147aed5b2a4f748dc2b6ba4","650c16f0f2faf8d7a0d14c09","651c1bcb0abf80d58021ab04","null","null","<p style=""font-size: 60px; font-family: BACS"">KTDTBATc</p>","","","","","","","","",""
"html-keyboard-response","246","504884","0.0-12.0-0.76","6147aed5b2a4f748dc2b6ba4","650c16f0f2faf8d7a0d14c09","651c1bcb0abf80d58021ab04","null","null","<p style=""font-size: 60px; font-family: BACS"">EPMDkYht</p>","","","","","","","","",""
"html-keyboard-response","247","505887","0.0-12.0-0.77","6147aed5b2a4f748dc2b6ba4","650c16f0f2faf8d7a0d14c09","651c1bcb0abf80d58021ab04","null","null","<p style=""font-size: 60px; font-family: BACS"">ldAakam</p>","","","","","","","","",""
"html-keyboard-response","248","506889","0.0-12.0-0.78","6147aed5b2a4f748dc2b6ba4","650c16f0f2faf8d7a0d14c09","651c1bcb0abf80d58021ab04","null","null","<p style=""font-size: 60px; font-family: BACS"">kLvdNArv</p>","","","","","","","","",""
"html-keyboard-response","249","507892","0.0-12.0-0.79","6147aed5b2a4f748dc2b6ba4","650c16f0f2faf8d7a0d14c09","651c1bcb0abf80d58021ab04","null","null","<p style=""font-size: 60px; font-family: BACS"">ACcOATc</p>","","","","","","","","",""
"html-keyboard-response","250","523220","0.0-13.0","6147aed5b2a4f748dc2b6ba4","650c16f0f2faf8d7a0d14c09","651c1bcb0abf80d58021ab04","15329"," ","<p>Great, you've seen the third block of words. You may now take a short break.</p>
      <p>Press the spacebar when you're ready to continue.</p>","","","","","","","","",""
"html-keyboard-response","251","524222","0.0-14.0-0.0","6147aed5b2a4f748dc2b6ba4","650c16f0f2faf8d7a0d14c09","651c1bcb0abf80d58021ab04","null","null","<p style=""font-size: 60px; font-family: BACS"">EPMDkcMRl</p>","","","","","","","","",""
"html-keyboard-response","252","525225","0.0-14.0-0.1","6147aed5b2a4f748dc2b6ba4","650c16f0f2faf8d7a0d14c09","651c1bcb0abf80d58021ab04","null","null","<p style=""font-size: 60px; font-family: BACS"">ldAaAld</p>","","","","","","","","",""
"html-keyboard-response","253","526227","0.0-14.0-0.2","6147aed5b2a4f748dc2b6ba4","650c16f0f2faf8d7a0d14c09","651c1bcb0abf80d58021ab04","null","null","<p style=""font-size: 60px; font-family: BACS"">LNUrJkam</p>","","","","","","","","",""
"html-keyboard-response","254","527230","0.0-14.0-0.3","6147aed5b2a4f748dc2b6ba4","650c16f0f2faf8d7a0d14c09","651c1bcb0abf80d58021ab04","null","null","<p style=""font-size: 60px; font-family: BACS"">rckOArv</p>","","","","","","","","",""
"html-keyboard-response","255","528232","0.0-14.0-0.4","6147aed5b2a4f748dc2b6ba4","650c16f0f2faf8d7a0d14c09","651c1bcb0abf80d58021ab04","null","null","<p style=""font-size: 60px; font-family: BACS"">ACcOATc</p>","","","","","","","","",""
"html-keyboard-response","256","529234","0.0-14.0-0.5","6147aed5b2a4f748dc2b6ba4","650c16f0f2faf8d7a0d14c09","651c1bcb0abf80d58021ab04","null","null","<p style=""font-size: 60px; font-family: BACS"">KTDTBYht</p>","","","","","","","","",""
"html-keyboard-response","257","530237","0.0-14.0-0.6","6147aed5b2a4f748dc2b6ba4","650c16f0f2faf8d7a0d14c09","651c1bcb0abf80d58021ab04","null","null","<p style=""font-size: 60px; font-family: BACS"">UAcdukam</p>","","","","","","","","",""
"html-keyboard-response","258","531240","0.0-14.0-0.7","6147aed5b2a4f748dc2b6ba4","650c16f0f2faf8d7a0d14c09","651c1bcb0abf80d58021ab04","null","null","<p style=""font-size: 60px; font-family: BACS"">EYtYRATc</p>","","","","","","","","",""
"html-keyboard-response","259","532242","0.0-14.0-0.8","6147aed5b2a4f748dc2b6ba4","650c16f0f2faf8d7a0d14c09","651c1bcb0abf80d58021ab04","null","null","<p style=""font-size: 60px; font-family: BACS"">Ldrbvkbu</p>","","","","","","","","",""
"html-keyboard-response","260","533245","0.0-14.0-0.9","6147aed5b2a4f748dc2b6ba4","650c16f0f2faf8d7a0d14c09","651c1bcb0abf80d58021ab04","null","null","<p style=""font-size: 60px; font-family: BACS"">ldAakam</p>","","","","","","","","",""
"html-keyboard-response","261","534248","0.0-14.0-0.10","6147aed5b2a4f748dc2b6ba4","650c16f0f2faf8d7a0d14c09","651c1bcb0abf80d58021ab04","null","null","<p style=""font-size: 60px; font-family: BACS"">vJabLkNc</p>","","","","","","","","",""
"html-keyboard-response","262","535250","0.0-14.0-0.11","6147aed5b2a4f748dc2b6ba4","650c16f0f2faf8d7a0d14c09","651c1bcb0abf80d58021ab04","null","null","<p style=""font-size: 60px; font-family: BACS"">GQrckam</p>","","","","","","","","",""
"html-keyboard-response","263","536253","0.0-14.0-0.12","6147aed5b2a4f748dc2b6ba4","650c16f0f2faf8d7a0d14c09","651c1bcb0abf80d58021ab04","null","null","<p style=""font-size: 60px; font-family: BACS"">hCktYht</p>","","","","","","","","",""
"html-keyboard-response","264","537255","0.0-14.0-0.13","6147aed5b2a4f748dc2b6ba4","650c16f0f2faf8d7a0d14c09","651c1bcb0abf80d58021ab04","null","null","<p style=""font-size: 60px; font-family: BACS"">DhMtcPK</p>","","","","","","","","",""
"html-keyboard-response","265","538258","0.0-14.0-0.14","6147aed5b2a4f748dc2b6ba4","650c16f0f2faf8d7a0d14c09","651c1bcb0abf80d58021ab04","null","null","<p style=""font-size: 60px; font-family: BACS"">EPMDkDmh</p>","","","","","","","","",""
"html-keyboard-response","266","539260","0.0-14.0-0.15","6147aed5b2a4f748dc2b6ba4","650c16f0f2faf8d7a0d14c09","651c1bcb0abf80d58021ab04","null","null","<p style=""font-size: 60px; font-family: BACS"">PYkCYht</p>","","","","","","","","",""
"html-keyboard-response","267","540262","0.0-14.0-0.16","6147aed5b2a4f748dc2b6ba4","650c16f0f2faf8d7a0d14c09","651c1bcb0abf80d58021ab04","null","null","<p style=""font-size: 60px; font-family: BACS"">KTDTBcMRl</p>","","","","","","","","",""
"html-keyboard-response","268","541265","0.0-14.0-0.17","6147aed5b2a4f748dc2b6ba4","650c16f0f2faf8d7a0d14c09","651c1bcb0abf80d58021ab04","null","null","<p style=""font-size: 60px; font-family: BACS"">kcdOtDmh</p>","","","","","","","","",""
"html-keyboard-response","269","542268","0.0-14.0-0.18","6147aed5b2a4f748dc2b6ba4","650c16f0f2faf8d7a0d14c09","651c1bcb0abf80d58021ab04","null","null","<p style=""font-size: 60px; font-family: BACS"">ldAaLkNc</p>","","","","","","","","",""
"html-keyboard-response","270","543270","0.0-14.0-0.19","6147aed5b2a4f748dc2b6ba4","650c16f0f2faf8d7a0d14c09","651c1bcb0abf80d58021ab04","null","null","<p style=""font-size: 60px; font-family: BACS"">PYkCcPK</p>","","","","","","","","",""
"html-keyboard-response","271","544273","0.0-14.0-0.20","6147aed5b2a4f748dc2b6ba4","650c16f0f2faf8d7a0d14c09","651c1bcb0abf80d58021ab04","null","null","<p style=""font-size: 60px; font-family: BACS"">Ldrbvkam</p>","","","","","","","","",""
"html-keyboard-response","272","545276","0.0-14.0-0.21","6147aed5b2a4f748dc2b6ba4","650c16f0f2faf8d7a0d14c09","651c1bcb0abf80d58021ab04","null","null","<p style=""font-size: 60px; font-family: BACS"">kcdOtcPK</p>","","","","","","","","",""
"html-keyboard-response","273","546278","0.0-14.0-0.22","6147aed5b2a4f748dc2b6ba4","650c16f0f2faf8d7a0d14c09","651c1bcb0abf80d58021ab04","null","null","<p style=""font-size: 60px; font-family: BACS"">PYkCDmh</p>","","","","","","","","",""
"html-keyboard-response","274","547281","0.0-14.0-0.23","6147aed5b2a4f748dc2b6ba4","650c16f0f2faf8d7a0d14c09","651c1bcb0abf80d58021ab04","null","null","<p style=""font-size: 60px; font-family: BACS"">kcdOtYht</p>","","","","","","","","",""
"html-keyboard-response","275","548284","0.0-14.0-0.24","6147aed5b2a4f748dc2b6ba4","650c16f0f2faf8d7a0d14c09","651c1bcb0abf80d58021ab04","null","null","<p style=""font-size: 60px; font-family: BACS"">UAcduAld</p>","","","","","","","","",""
"html-keyboard-response","276","549286","0.0-14.0-0.25","6147aed5b2a4f748dc2b6ba4","650c16f0f2faf8d7a0d14c09","651c1bcb0abf80d58021ab04","null","null","<p style=""font-size: 60px; font-family: BACS"">LNUrJkbu</p>","","","","","","","","",""
"html-keyboard-response","277","550289","0.0-14.0-0.26","6147aed5b2a4f748dc2b6ba4","650c16f0f2faf8d7a0d14c09","651c1bcb0abf80d58021ab04","null","null","<p style=""font-size: 60px; font-family: BACS"">bYuQAld</p>","","","","","","","","",""
"html-keyboard-response","278","551291","0.0-14.0-0.27","6147aed5b2a4f748dc2b6ba4","650c16f0f2faf8d7a0d14c09","651c1bcb0abf80d58021ab04","null","null","<p style=""font-size: 60px; font-family: BACS"">mBYlYht</p>","","","","","","","","",""
"html-keyboard-response","279","552294","0.0-14.0-0.28","6147aed5b2a4f748dc2b6ba4","650c16f0f2faf8d7a0d14c09","651c1bcb0abf80d58021ab04","null","null","<p style=""font-size: 60px; font-family: BACS"">hlctEDmh</p>","","","","","","","","",""
"html-keyboard-response","280","553297","0.0-14.0-0.29","6147aed5b2a4f748dc2b6ba4","650c16f0f2faf8d7a0d14c09","651c1bcb0abf80d58021ab04","null","null","<p style=""font-size: 60px; font-family: BACS"">kcdOtcMRl</p>","","","","","","","","",""
"html-keyboard-response","281","554299","0.0-14.0-0.30","6147aed5b2a4f748dc2b6ba4","650c16f0f2faf8d7a0d14c09","651c1bcb0abf80d58021ab04","null","null","<p style=""font-size: 60px; font-family: BACS"">kLvdNkam</p>","","","","","","","","",""
"html-keyboard-response","282","555302","0.0-14.0-0.31","6147aed5b2a4f748dc2b6ba4","650c16f0f2faf8d7a0d14c09","651c1bcb0abf80d58021ab04","null","null","<p style=""font-size: 60px; font-family: BACS"">hlctEATc</p>","","","","","","","","",""
"html-keyboard-response","283","556305","0.0-14.0-0.32","6147aed5b2a4f748dc2b6ba4","650c16f0f2faf8d7a0d14c09","651c1bcb0abf80d58021ab04","null","null","<p style=""font-size: 60px; font-family: BACS"">vJabkam</p>","","","","","","","","",""
"html-keyboard-response","284","557308","0.0-14.0-0.33","6147aed5b2a4f748dc2b6ba4","650c16f0f2faf8d7a0d14c09","651c1bcb0abf80d58021ab04","null","null","<p style=""font-size: 60px; font-family: BACS"">EYtYRcPK</p>","","","","","","","","",""
"html-keyboard-response","285","558310","0.0-14.0-0.34","6147aed5b2a4f748dc2b6ba4","650c16f0f2faf8d7a0d14c09","651c1bcb0abf80d58021ab04","null","null","<p style=""font-size: 60px; font-family: BACS"">UAcduArv</p>","","","","","","","","",""
"html-keyboard-response","286","559313","0.0-14.0-0.35","6147aed5b2a4f748dc2b6ba4","650c16f0f2faf8d7a0d14c09","651c1bcb0abf80d58021ab04","null","null","<p style=""font-size: 60px; font-family: BACS"">vJabkbu</p>","","","","","","","","",""
"html-keyboard-response","287","560316","0.0-14.0-0.36","6147aed5b2a4f748dc2b6ba4","650c16f0f2faf8d7a0d14c09","651c1bcb0abf80d58021ab04","null","null","<p style=""font-size: 60px; font-family: BACS"">hCktcPK</p>","","","","","","","","",""
"html-keyboard-response","288","561318","0.0-14.0-0.37","6147aed5b2a4f748dc2b6ba4","650c16f0f2faf8d7a0d14c09","651c1bcb0abf80d58021ab04","null","null","<p style=""font-size: 60px; font-family: BACS"">DhMtDmh</p>","","","","","","","","",""
"html-keyboard-response","289","562321","0.0-14.0-0.38","6147aed5b2a4f748dc2b6ba4","650c16f0f2faf8d7a0d14c09","651c1bcb0abf80d58021ab04","null","null","<p style=""font-size: 60px; font-family: BACS"">GQrcArv</p>","","","","","","","","",""
"html-keyboard-response","290","563323","0.0-14.0-0.39","6147aed5b2a4f748dc2b6ba4","650c16f0f2faf8d7a0d14c09","651c1bcb0abf80d58021ab04","null","null","<p style=""font-size: 60px; font-family: BACS"">hCktDmh</p>","","","","","","","","",""
"html-keyboard-response","291","564326","0.0-14.0-0.40","6147aed5b2a4f748dc2b6ba4","650c16f0f2faf8d7a0d14c09","651c1bcb0abf80d58021ab04","null","null","<p style=""font-size: 60px; font-family: BACS"">bYuQLkNc</p>","","","","","","","","",""
"html-keyboard-response","292","565329","0.0-14.0-0.41","6147aed5b2a4f748dc2b6ba4","650c16f0f2faf8d7a0d14c09","651c1bcb0abf80d58021ab04","null","null","<p style=""font-size: 60px; font-family: BACS"">rkJukbu</p>","","","","","","","","",""
"html-keyboard-response","293","566331","0.0-14.0-0.42","6147aed5b2a4f748dc2b6ba4","650c16f0f2faf8d7a0d14c09","651c1bcb0abf80d58021ab04","null","null","<p style=""font-size: 60px; font-family: BACS"">LNUrJAld</p>","","","","","","","","",""
"html-keyboard-response","294","567334","0.0-14.0-0.43","6147aed5b2a4f748dc2b6ba4","650c16f0f2faf8d7a0d14c09","651c1bcb0abf80d58021ab04","null","null","<p style=""font-size: 60px; font-family: BACS"">hlctEcPK</p>","","","","","","","","",""
"html-keyboard-response","295","568336","0.0-14.0-0.44","6147aed5b2a4f748dc2b6ba4","650c16f0f2faf8d7a0d14c09","651c1bcb0abf80d58021ab04","null","null","<p style=""font-size: 60px; font-family: BACS"">EYtYRcMRl</p>","","","","","","","","",""
"html-keyboard-response","296","569338","0.0-14.0-0.45","6147aed5b2a4f748dc2b6ba4","650c16f0f2faf8d7a0d14c09","651c1bcb0abf80d58021ab04","null","null","<p style=""font-size: 60px; font-family: BACS"">ACcOYht</p>","","","","","","","","",""
"html-keyboard-response","297","570341","0.0-14.0-0.46","6147aed5b2a4f748dc2b6ba4","650c16f0f2faf8d7a0d14c09","651c1bcb0abf80d58021ab04","null","null","<p style=""font-size: 60px; font-family: BACS"">EYtYRDmh</p>","","","","","","","","",""
"html-keyboard-response","298","571344","0.0-14.0-0.47","6147aed5b2a4f748dc2b6ba4","650c16f0f2faf8d7a0d14c09","651c1bcb0abf80d58021ab04","null","null","<p style=""font-size: 60px; font-family: BACS"">ldAaArv</p>","","","","","","","","",""
"html-keyboard-response","299","572347","0.0-14.0-0.48","6147aed5b2a4f748dc2b6ba4","650c16f0f2faf8d7a0d14c09","651c1bcb0abf80d58021ab04","null","null","<p style=""font-size: 60px; font-family: BACS"">ACcODmh</p>","","","","","","","","",""
"html-keyboard-response","300","573349","0.0-14.0-0.49","6147aed5b2a4f748dc2b6ba4","650c16f0f2faf8d7a0d14c09","651c1bcb0abf80d58021ab04","null","null","<p style=""font-size: 60px; font-family: BACS"">LdrbvAld</p>","","","","","","","","",""
"html-keyboard-response","301","574352","0.0-14.0-0.50","6147aed5b2a4f748dc2b6ba4","650c16f0f2faf8d7a0d14c09","651c1bcb0abf80d58021ab04","null","null","<p style=""font-size: 60px; font-family: BACS"">rckOkbu</p>","","","","","","","","",""
"html-keyboard-response","302","575354","0.0-14.0-0.51","6147aed5b2a4f748dc2b6ba4","650c16f0f2faf8d7a0d14c09","651c1bcb0abf80d58021ab04","null","null","<p style=""font-size: 60px; font-family: BACS"">GQrcAld</p>","","","","","","","","",""
"html-keyboard-response","303","576357","0.0-14.0-0.52","6147aed5b2a4f748dc2b6ba4","650c16f0f2faf8d7a0d14c09","651c1bcb0abf80d58021ab04","null","null","<p style=""font-size: 60px; font-family: BACS"">KTDTBATc</p>","","","","","","","","",""
"html-keyboard-response","304","577360","0.0-14.0-0.53","6147aed5b2a4f748dc2b6ba4","650c16f0f2faf8d7a0d14c09","651c1bcb0abf80d58021ab04","null","null","<p style=""font-size: 60px; font-family: BACS"">kLvdNAld</p>","","","","","","","","",""
"html-keyboard-response","305","578363","0.0-14.0-0.54","6147aed5b2a4f748dc2b6ba4","650c16f0f2faf8d7a0d14c09","651c1bcb0abf80d58021ab04","null","null","<p style=""font-size: 60px; font-family: BACS"">DhMtATc</p>","","","","","","","","",""
"html-keyboard-response","306","579366","0.0-14.0-0.55","6147aed5b2a4f748dc2b6ba4","650c16f0f2faf8d7a0d14c09","651c1bcb0abf80d58021ab04","null","null","<p style=""font-size: 60px; font-family: BACS"">rckOLkNc</p>","","","","","","","","",""
"html-keyboard-response","307","580369","0.0-14.0-0.56","6147aed5b2a4f748dc2b6ba4","650c16f0f2faf8d7a0d14c09","651c1bcb0abf80d58021ab04","null","null","<p style=""font-size: 60px; font-family: BACS"">ACcOcMRl</p>","","","","","","","","",""
"html-keyboard-response","308","581372","0.0-14.0-0.57","6147aed5b2a4f748dc2b6ba4","650c16f0f2faf8d7a0d14c09","651c1bcb0abf80d58021ab04","null","null","<p style=""font-size: 60px; font-family: BACS"">UAcdukbu</p>","","","","","","","","",""
"html-keyboard-response","309","582374","0.0-14.0-0.58","6147aed5b2a4f748dc2b6ba4","650c16f0f2faf8d7a0d14c09","651c1bcb0abf80d58021ab04","null","null","<p style=""font-size: 60px; font-family: BACS"">hlctEYht</p>","","","","","","","","",""
"html-keyboard-response","310","583377","0.0-14.0-0.59","6147aed5b2a4f748dc2b6ba4","650c16f0f2faf8d7a0d14c09","651c1bcb0abf80d58021ab04","null","null","<p style=""font-size: 60px; font-family: BACS"">kLvdNLkNc</p>","","","","","","","","",""
"html-keyboard-response","311","584380","0.0-14.0-0.60","6147aed5b2a4f748dc2b6ba4","650c16f0f2faf8d7a0d14c09","651c1bcb0abf80d58021ab04","null","null","<p style=""font-size: 60px; font-family: BACS"">bYuQArv</p>","","","","","","","","",""
"html-keyboard-response","312","585382","0.0-14.0-0.61","6147aed5b2a4f748dc2b6ba4","650c16f0f2faf8d7a0d14c09","651c1bcb0abf80d58021ab04","null","null","<p style=""font-size: 60px; font-family: BACS"">LdrbvLkNc</p>","","","","","","","","",""
"html-keyboard-response","313","586385","0.0-14.0-0.62","6147aed5b2a4f748dc2b6ba4","650c16f0f2faf8d7a0d14c09","651c1bcb0abf80d58021ab04","null","null","<p style=""font-size: 60px; font-family: BACS"">rckOAld</p>","","","","","","","","",""
"html-keyboard-response","314","587388","0.0-14.0-0.63","6147aed5b2a4f748dc2b6ba4","650c16f0f2faf8d7a0d14c09","651c1bcb0abf80d58021ab04","null","null","<p style=""font-size: 60px; font-family: BACS"">vJabArv</p>","","","","","","","","",""
"html-keyboard-response","315","588390","0.0-14.0-0.64","6147aed5b2a4f748dc2b6ba4","650c16f0f2faf8d7a0d14c09","651c1bcb0abf80d58021ab04","null","null","<p style=""font-size: 60px; font-family: BACS"">bYuQkbu</p>","","","","","","","","",""
"html-keyboard-response","316","589393","0.0-14.0-0.65","6147aed5b2a4f748dc2b6ba4","650c16f0f2faf8d7a0d14c09","651c1bcb0abf80d58021ab04","null","null","<p style=""font-size: 60px; font-family: BACS"">LNUrJLkNc</p>","","","","","","","","",""
"html-keyboard-response","317","590395","0.0-14.0-0.66","6147aed5b2a4f748dc2b6ba4","650c16f0f2faf8d7a0d14c09","651c1bcb0abf80d58021ab04","null","null","<p style=""font-size: 60px; font-family: BACS"">hCktATc</p>","","","","","","","","",""
"html-keyboard-response","318","591398","0.0-14.0-0.67","6147aed5b2a4f748dc2b6ba4","650c16f0f2faf8d7a0d14c09","651c1bcb0abf80d58021ab04","null","null","<p style=""font-size: 60px; font-family: BACS"">EPMDkYht</p>","","","","","","","","",""
"html-keyboard-response","319","592401","0.0-14.0-0.68","6147aed5b2a4f748dc2b6ba4","650c16f0f2faf8d7a0d14c09","651c1bcb0abf80d58021ab04","null","null","<p style=""font-size: 60px; font-family: BACS"">kLvdNArv</p>","","","","","","","","",""
"html-keyboard-response","320","593404","0.0-14.0-0.69","6147aed5b2a4f748dc2b6ba4","650c16f0f2faf8d7a0d14c09","651c1bcb0abf80d58021ab04","null","null","<p style=""font-size: 60px; font-family: BACS"">mBYlATc</p>","","","","","","","","",""
"html-keyboard-response","321","594406","0.0-14.0-0.70","6147aed5b2a4f748dc2b6ba4","650c16f0f2faf8d7a0d14c09","651c1bcb0abf80d58021ab04","null","null","<p style=""font-size: 60px; font-family: BACS"">rkJukam</p>","","","","","","","","",""
"html-keyboard-response","322","595409","0.0-14.0-0.71","6147aed5b2a4f748dc2b6ba4","650c16f0f2faf8d7a0d14c09","651c1bcb0abf80d58021ab04","null","null","<p style=""font-size: 60px; font-family: BACS"">DhMtcMRl</p>","","","","","","","","",""
"html-keyboard-response","323","596411","0.0-14.0-0.72","6147aed5b2a4f748dc2b6ba4","650c16f0f2faf8d7a0d14c09","651c1bcb0abf80d58021ab04","null","null","<p style=""font-size: 60px; font-family: BACS"">EPMDkATc</p>","","","","","","","","",""
"html-keyboard-response","324","597413","0.0-14.0-0.73","6147aed5b2a4f748dc2b6ba4","650c16f0f2faf8d7a0d14c09","651c1bcb0abf80d58021ab04","null","null","<p style=""font-size: 60px; font-family: BACS"">rkJuLkNc</p>","","","","","","","","",""
"html-keyboard-response","325","598416","0.0-14.0-0.74","6147aed5b2a4f748dc2b6ba4","650c16f0f2faf8d7a0d14c09","651c1bcb0abf80d58021ab04","null","null","<p style=""font-size: 60px; font-family: BACS"">mBYlcPK</p>","","","","","","","","",""
"html-keyboard-response","326","599419","0.0-14.0-0.75","6147aed5b2a4f748dc2b6ba4","650c16f0f2faf8d7a0d14c09","651c1bcb0abf80d58021ab04","null","null","<p style=""font-size: 60px; font-family: BACS"">rkJuArv</p>","","","","","","","","",""
"html-keyboard-response","327","600421","0.0-14.0-0.76","6147aed5b2a4f748dc2b6ba4","650c16f0f2faf8d7a0d14c09","651c1bcb0abf80d58021ab04","null","null","<p style=""font-size: 60px; font-family: BACS"">GQrckbu</p>","","","","","","","","",""
"html-keyboard-response","328","601424","0.0-14.0-0.77","6147aed5b2a4f748dc2b6ba4","650c16f0f2faf8d7a0d14c09","651c1bcb0abf80d58021ab04","null","null","<p style=""font-size: 60px; font-family: BACS"">mBYlcMRl</p>","","","","","","","","",""
"html-keyboard-response","329","602427","0.0-14.0-0.78","6147aed5b2a4f748dc2b6ba4","650c16f0f2faf8d7a0d14c09","651c1bcb0abf80d58021ab04","null","null","<p style=""font-size: 60px; font-family: BACS"">KTDTBcPK</p>","","","","","","","","",""
"html-keyboard-response","330","603430","0.0-14.0-0.79","6147aed5b2a4f748dc2b6ba4","650c16f0f2faf8d7a0d14c09","651c1bcb0abf80d58021ab04","null","null","<p style=""font-size: 60px; font-family: BACS"">PYkCcMRl</p>","","","","","","","","",""
"html-keyboard-response","331","619632","0.0-15.0","6147aed5b2a4f748dc2b6ba4","650c16f0f2faf8d7a0d14c09","651c1bcb0abf80d58021ab04","16202"," ","<p>Great, you've seen the fourth block of words. You may now take a short break.</p>
      <p>Press the spacebar when you're ready to continue.</p>","","","","","","","","",""
"html-keyboard-response","332","620634","0.0-16.0-0.0","6147aed5b2a4f748dc2b6ba4","650c16f0f2faf8d7a0d14c09","651c1bcb0abf80d58021ab04","null","null","<p style=""font-size: 60px; font-family: BACS"">rckOAld</p>","","","","","","","","",""
"html-keyboard-response","333","621636","0.0-16.0-0.1","6147aed5b2a4f748dc2b6ba4","650c16f0f2faf8d7a0d14c09","651c1bcb0abf80d58021ab04","null","null","<p style=""font-size: 60px; font-family: BACS"">rckOAld</p>","","","","","","","","",""
"html-keyboard-response","334","622638","0.0-16.0-0.2","6147aed5b2a4f748dc2b6ba4","650c16f0f2faf8d7a0d14c09","651c1bcb0abf80d58021ab04","null","null","<p style=""font-size: 60px; font-family: BACS"">rckOAld</p>","","","","","","","","",""
"html-keyboard-response","335","623641","0.0-16.0-0.3","6147aed5b2a4f748dc2b6ba4","650c16f0f2faf8d7a0d14c09","651c1bcb0abf80d58021ab04","null","null","<p style=""font-size: 60px; font-family: BACS"">rckOAld</p>","","","","","","","","",""
"html-keyboard-response","336","624644","0.0-16.0-0.4","6147aed5b2a4f748dc2b6ba4","650c16f0f2faf8d7a0d14c09","651c1bcb0abf80d58021ab04","null","null","<p style=""font-size: 60px; font-family: BACS"">rckOAld</p>","","","","","","","","",""
"html-keyboard-response","337","625647","0.0-16.0-0.5","6147aed5b2a4f748dc2b6ba4","650c16f0f2faf8d7a0d14c09","651c1bcb0abf80d58021ab04","null","null","<p style=""font-size: 60px; font-family: BACS"">rckOAld</p>","","","","","","","","",""
"html-keyboard-response","338","626650","0.0-16.0-0.6","6147aed5b2a4f748dc2b6ba4","650c16f0f2faf8d7a0d14c09","651c1bcb0abf80d58021ab04","null","null","<p style=""font-size: 60px; font-family: BACS"">rckOAld</p>","","","","","","","","",""
"html-keyboard-response","339","627653","0.0-16.0-0.7","6147aed5b2a4f748dc2b6ba4","650c16f0f2faf8d7a0d14c09","651c1bcb0abf80d58021ab04","null","null","<p style=""font-size: 60px; font-family: BACS"">rckOAld</p>","","","","","","","","",""
"html-keyboard-response","340","628656","0.0-16.0-0.8","6147aed5b2a4f748dc2b6ba4","650c16f0f2faf8d7a0d14c09","651c1bcb0abf80d58021ab04","null","null","<p style=""font-size: 60px; font-family: BACS"">rckOAld</p>","","","","","","","","",""
"html-keyboard-response","341","629659","0.0-16.0-0.9","6147aed5b2a4f748dc2b6ba4","650c16f0f2faf8d7a0d14c09","651c1bcb0abf80d58021ab04","null","null","<p style=""font-size: 60px; font-family: BACS"">rckOAld</p>","","","","","","","","",""
"html-keyboard-response","342","630660","0.0-16.0-0.10","6147aed5b2a4f748dc2b6ba4","650c16f0f2faf8d7a0d14c09","651c1bcb0abf80d58021ab04","null","null","<p style=""font-size: 60px; font-family: BACS"">rckOAld</p>","","","","","","","","",""
"html-keyboard-response","343","631663","0.0-16.0-0.11","6147aed5b2a4f748dc2b6ba4","650c16f0f2faf8d7a0d14c09","651c1bcb0abf80d58021ab04","null","null","<p style=""font-size: 60px; font-family: BACS"">rckOAld</p>","","","","","","","","",""
"html-keyboard-response","344","632666","0.0-16.0-0.12","6147aed5b2a4f748dc2b6ba4","650c16f0f2faf8d7a0d14c09","651c1bcb0abf80d58021ab04","null","null","<p style=""font-size: 60px; font-family: BACS"">rckOAld</p>","","","","","","","","",""
"html-keyboard-response","345","633668","0.0-16.0-0.13","6147aed5b2a4f748dc2b6ba4","650c16f0f2faf8d7a0d14c09","651c1bcb0abf80d58021ab04","null","null","<p style=""font-size: 60px; font-family: BACS"">rckOAld</p>","","","","","","","","",""
"html-keyboard-response","346","634671","0.0-16.0-0.14","6147aed5b2a4f748dc2b6ba4","650c16f0f2faf8d7a0d14c09","651c1bcb0abf80d58021ab04","null","null","<p style=""font-size: 60px; font-family: BACS"">rckOAld</p>","","","","","","","","",""
"html-keyboard-response","347","635674","0.0-16.0-0.15","6147aed5b2a4f748dc2b6ba4","650c16f0f2faf8d7a0d14c09","651c1bcb0abf80d58021ab04","null","null","<p style=""font-size: 60px; font-family: BACS"">rckOAld</p>","","","","","","","","",""
"html-keyboard-response","348","636676","0.0-16.0-0.16","6147aed5b2a4f748dc2b6ba4","650c16f0f2faf8d7a0d14c09","651c1bcb0abf80d58021ab04","null","null","<p style=""font-size: 60px; font-family: BACS"">rckOAld</p>","","","","","","","","",""
"html-keyboard-response","349","637679","0.0-16.0-0.17","6147aed5b2a4f748dc2b6ba4","650c16f0f2faf8d7a0d14c09","651c1bcb0abf80d58021ab04","null","null","<p style=""font-size: 60px; font-family: BACS"">rckOAld</p>","","","","","","","","",""
"html-keyboard-response","350","638681","0.0-16.0-0.18","6147aed5b2a4f748dc2b6ba4","650c16f0f2faf8d7a0d14c09","651c1bcb0abf80d58021ab04","null","null","<p style=""font-size: 60px; font-family: BACS"">rckOAld</p>","","","","","","","","",""
"html-keyboard-response","351","639684","0.0-16.0-0.19","6147aed5b2a4f748dc2b6ba4","650c16f0f2faf8d7a0d14c09","651c1bcb0abf80d58021ab04","null","null","<p style=""font-size: 60px; font-family: BACS"">rckOAld</p>","","","","","","","","",""
"html-keyboard-response","352","640687","0.0-16.0-0.20","6147aed5b2a4f748dc2b6ba4","650c16f0f2faf8d7a0d14c09","651c1bcb0abf80d58021ab04","null","null","<p style=""font-size: 60px; font-family: BACS"">rckOAld</p>","","","","","","","","",""
"html-keyboard-response","353","641690","0.0-16.0-0.21","6147aed5b2a4f748dc2b6ba4","650c16f0f2faf8d7a0d14c09","651c1bcb0abf80d58021ab04","null","null","<p style=""font-size: 60px; font-family: BACS"">rckOAld</p>","","","","","","","","",""
"html-keyboard-response","354","642693","0.0-16.0-0.22","6147aed5b2a4f748dc2b6ba4","650c16f0f2faf8d7a0d14c09","651c1bcb0abf80d58021ab04","null","null","<p style=""font-size: 60px; font-family: BACS"">rckOAld</p>","","","","","","","","",""
"html-keyboard-response","355","643696","0.0-16.0-0.23","6147aed5b2a4f748dc2b6ba4","650c16f0f2faf8d7a0d14c09","651c1bcb0abf80d58021ab04","null","null","<p style=""font-size: 60px; font-family: BACS"">rckOAld</p>","","","","","","","","",""
"html-keyboard-response","356","644699","0.0-16.0-0.24","6147aed5b2a4f748dc2b6ba4","650c16f0f2faf8d7a0d14c09","651c1bcb0abf80d58021ab04","null","null","<p style=""font-size: 60px; font-family: BACS"">rckOAld</p>","","","","","","","","",""
"html-keyboard-response","357","645701","0.0-16.0-0.25","6147aed5b2a4f748dc2b6ba4","650c16f0f2faf8d7a0d14c09","651c1bcb0abf80d58021ab04","null","null","<p style=""font-size: 60px; font-family: BACS"">rckOAld</p>","","","","","","","","",""
"html-keyboard-response","358","646705","0.0-16.0-0.26","6147aed5b2a4f748dc2b6ba4","650c16f0f2faf8d7a0d14c09","651c1bcb0abf80d58021ab04","null","null","<p style=""font-size: 60px; font-family: BACS"">rckOAld</p>","","","","","","","","",""
"html-keyboard-response","359","647707","0.0-16.0-0.27","6147aed5b2a4f748dc2b6ba4","650c16f0f2faf8d7a0d14c09","651c1bcb0abf80d58021ab04","null","null","<p style=""font-size: 60px; font-family: BACS"">rckOAld</p>","","","","","","","","",""
"html-keyboard-response","360","648710","0.0-16.0-0.28","6147aed5b2a4f748dc2b6ba4","650c16f0f2faf8d7a0d14c09","651c1bcb0abf80d58021ab04","null","null","<p style=""font-size: 60px; font-family: BACS"">rckOAld</p>","","","","","","","","",""
"html-keyboard-response","361","649713","0.0-16.0-0.29","6147aed5b2a4f748dc2b6ba4","650c16f0f2faf8d7a0d14c09","651c1bcb0abf80d58021ab04","null","null","<p style=""font-size: 60px; font-family: BACS"">rckOAld</p>","","","","","","","","",""
"html-keyboard-response","362","650716","0.0-16.0-0.30","6147aed5b2a4f748dc2b6ba4","650c16f0f2faf8d7a0d14c09","651c1bcb0abf80d58021ab04","null","null","<p style=""font-size: 60px; font-family: BACS"">rckOAld</p>","","","","","","","","",""
"html-keyboard-response","363","651719","0.0-16.0-0.31","6147aed5b2a4f748dc2b6ba4","650c16f0f2faf8d7a0d14c09","651c1bcb0abf80d58021ab04","null","null","<p style=""font-size: 60px; font-family: BACS"">rckOAld</p>","","","","","","","","",""
"html-keyboard-response","364","652722","0.0-16.0-0.32","6147aed5b2a4f748dc2b6ba4","650c16f0f2faf8d7a0d14c09","651c1bcb0abf80d58021ab04","null","null","<p style=""font-size: 60px; font-family: BACS"">rckOAld</p>","","","","","","","","",""
"html-keyboard-response","365","653725","0.0-16.0-0.33","6147aed5b2a4f748dc2b6ba4","650c16f0f2faf8d7a0d14c09","651c1bcb0abf80d58021ab04","null","null","<p style=""font-size: 60px; font-family: BACS"">rckOAld</p>","","","","","","","","",""
"html-keyboard-response","366","654727","0.0-16.0-0.34","6147aed5b2a4f748dc2b6ba4","650c16f0f2faf8d7a0d14c09","651c1bcb0abf80d58021ab04","null","null","<p style=""font-size: 60px; font-family: BACS"">rckOAld</p>","","","","","","","","",""
"html-keyboard-response","367","655730","0.0-16.0-0.35","6147aed5b2a4f748dc2b6ba4","650c16f0f2faf8d7a0d14c09","651c1bcb0abf80d58021ab04","null","null","<p style=""font-size: 60px; font-family: BACS"">rckOAld</p>","","","","","","","","",""
"html-keyboard-response","368","656733","0.0-16.0-0.36","6147aed5b2a4f748dc2b6ba4","650c16f0f2faf8d7a0d14c09","651c1bcb0abf80d58021ab04","null","null","<p style=""font-size: 60px; font-family: BACS"">rckOAld</p>","","","","","","","","",""
"html-keyboard-response","369","657735","0.0-16.0-0.37","6147aed5b2a4f748dc2b6ba4","650c16f0f2faf8d7a0d14c09","651c1bcb0abf80d58021ab04","null","null","<p style=""font-size: 60px; font-family: BACS"">rckOAld</p>","","","","","","","","",""
"html-keyboard-response","370","658738","0.0-16.0-0.38","6147aed5b2a4f748dc2b6ba4","650c16f0f2faf8d7a0d14c09","651c1bcb0abf80d58021ab04","null","null","<p style=""font-size: 60px; font-family: BACS"">rckOAld</p>","","","","","","","","",""
"html-keyboard-response","371","659739","0.0-16.0-0.39","6147aed5b2a4f748dc2b6ba4","650c16f0f2faf8d7a0d14c09","651c1bcb0abf80d58021ab04","null","null","<p style=""font-size: 60px; font-family: BACS"">rckOAld</p>","","","","","","","","",""
"html-keyboard-response","372","660741","0.0-16.0-0.40","6147aed5b2a4f748dc2b6ba4","650c16f0f2faf8d7a0d14c09","651c1bcb0abf80d58021ab04","null","null","<p style=""font-size: 60px; font-family: BACS"">rckOAld</p>","","","","","","","","",""
"html-keyboard-response","373","661744","0.0-16.0-0.41","6147aed5b2a4f748dc2b6ba4","650c16f0f2faf8d7a0d14c09","651c1bcb0abf80d58021ab04","null","null","<p style=""font-size: 60px; font-family: BACS"">rckOAld</p>","","","","","","","","",""
"html-keyboard-response","374","662747","0.0-16.0-0.42","6147aed5b2a4f748dc2b6ba4","650c16f0f2faf8d7a0d14c09","651c1bcb0abf80d58021ab04","null","null","<p style=""font-size: 60px; font-family: BACS"">rckOAld</p>","","","","","","","","",""
"html-keyboard-response","375","663750","0.0-16.0-0.43","6147aed5b2a4f748dc2b6ba4","650c16f0f2faf8d7a0d14c09","651c1bcb0abf80d58021ab04","null","null","<p style=""font-size: 60px; font-family: BACS"">rckOAld</p>","","","","","","","","",""
"html-keyboard-response","376","664752","0.0-16.0-0.44","6147aed5b2a4f748dc2b6ba4","650c16f0f2faf8d7a0d14c09","651c1bcb0abf80d58021ab04","null","null","<p style=""font-size: 60px; font-family: BACS"">rckOAld</p>","","","","","","","","",""
"html-keyboard-response","377","665754","0.0-16.0-0.45","6147aed5b2a4f748dc2b6ba4","650c16f0f2faf8d7a0d14c09","651c1bcb0abf80d58021ab04","null","null","<p style=""font-size: 60px; font-family: BACS"">rckOAld</p>","","","","","","","","",""
"html-keyboard-response","378","666756","0.0-16.0-0.46","6147aed5b2a4f748dc2b6ba4","650c16f0f2faf8d7a0d14c09","651c1bcb0abf80d58021ab04","null","null","<p style=""font-size: 60px; font-family: BACS"">rckOAld</p>","","","","","","","","",""
"html-keyboard-response","379","667759","0.0-16.0-0.47","6147aed5b2a4f748dc2b6ba4","650c16f0f2faf8d7a0d14c09","651c1bcb0abf80d58021ab04","null","null","<p style=""font-size: 60px; font-family: BACS"">rckOAld</p>","","","","","","","","",""
"html-keyboard-response","380","668761","0.0-16.0-0.48","6147aed5b2a4f748dc2b6ba4","650c16f0f2faf8d7a0d14c09","651c1bcb0abf80d58021ab04","null","null","<p style=""font-size: 60px; font-family: BACS"">rckOAld</p>","","","","","","","","",""
"html-keyboard-response","381","669764","0.0-16.0-0.49","6147aed5b2a4f748dc2b6ba4","650c16f0f2faf8d7a0d14c09","651c1bcb0abf80d58021ab04","null","null","<p style=""font-size: 60px; font-family: BACS"">rckOAld</p>","","","","","","","","",""
"html-keyboard-response","382","670766","0.0-16.0-0.50","6147aed5b2a4f748dc2b6ba4","650c16f0f2faf8d7a0d14c09","651c1bcb0abf80d58021ab04","null","null","<p style=""font-size: 60px; font-family: BACS"">rckOAld</p>","","","","","","","","",""
"html-keyboard-response","383","671768","0.0-16.0-0.51","6147aed5b2a4f748dc2b6ba4","650c16f0f2faf8d7a0d14c09","651c1bcb0abf80d58021ab04","null","null","<p style=""font-size: 60px; font-family: BACS"">rckOAld</p>","","","","","","","","",""
"html-keyboard-response","384","672769","0.0-16.0-0.52","6147aed5b2a4f748dc2b6ba4","650c16f0f2faf8d7a0d14c09","651c1bcb0abf80d58021ab04","null","null","<p style=""font-size: 60px; font-family: BACS"">rckOAld</p>","","","","","","","","",""
"html-keyboard-response","385","673771","0.0-16.0-0.53","6147aed5b2a4f748dc2b6ba4","650c16f0f2faf8d7a0d14c09","651c1bcb0abf80d58021ab04","null","null","<p style=""font-size: 60px; font-family: BACS"">rckOAld</p>","","","","","","","","",""
"html-keyboard-response","386","674773","0.0-16.0-0.54","6147aed5b2a4f748dc2b6ba4","650c16f0f2faf8d7a0d14c09","651c1bcb0abf80d58021ab04","null","null","<p style=""font-size: 60px; font-family: BACS"">rckOAld</p>","","","","","","","","",""
"html-keyboard-response","387","675774","0.0-16.0-0.55","6147aed5b2a4f748dc2b6ba4","650c16f0f2faf8d7a0d14c09","651c1bcb0abf80d58021ab04","null","null","<p style=""font-size: 60px; font-family: BACS"">rckOAld</p>","","","","","","","","",""
"html-keyboard-response","388","676777","0.0-16.0-0.56","6147aed5b2a4f748dc2b6ba4","650c16f0f2faf8d7a0d14c09","651c1bcb0abf80d58021ab04","null","null","<p style=""font-size: 60px; font-family: BACS"">rckOAld</p>","","","","","","","","",""
"html-keyboard-response","389","677779","0.0-16.0-0.57","6147aed5b2a4f748dc2b6ba4","650c16f0f2faf8d7a0d14c09","651c1bcb0abf80d58021ab04","null","null","<p style=""font-size: 60px; font-family: BACS"">rckOAld</p>","","","","","","","","",""
"html-keyboard-response","390","678781","0.0-16.0-0.58","6147aed5b2a4f748dc2b6ba4","650c16f0f2faf8d7a0d14c09","651c1bcb0abf80d58021ab04","null","null","<p style=""font-size: 60px; font-family: BACS"">rckOAld</p>","","","","","","","","",""
"html-keyboard-response","391","679783","0.0-16.0-0.59","6147aed5b2a4f748dc2b6ba4","650c16f0f2faf8d7a0d14c09","651c1bcb0abf80d58021ab04","null","null","<p style=""font-size: 60px; font-family: BACS"">rckOAld</p>","","","","","","","","",""
"html-keyboard-response","392","680786","0.0-16.0-0.60","6147aed5b2a4f748dc2b6ba4","650c16f0f2faf8d7a0d14c09","651c1bcb0abf80d58021ab04","null","null","<p style=""font-size: 60px; font-family: BACS"">rckOAld</p>","","","","","","","","",""
"html-keyboard-response","393","681788","0.0-16.0-0.61","6147aed5b2a4f748dc2b6ba4","650c16f0f2faf8d7a0d14c09","651c1bcb0abf80d58021ab04","null","null","<p style=""font-size: 60px; font-family: BACS"">rckOAld</p>","","","","","","","","",""
"html-keyboard-response","394","682791","0.0-16.0-0.62","6147aed5b2a4f748dc2b6ba4","650c16f0f2faf8d7a0d14c09","651c1bcb0abf80d58021ab04","null","null","<p style=""font-size: 60px; font-family: BACS"">rckOAld</p>","","","","","","","","",""
"html-keyboard-response","395","683793","0.0-16.0-0.63","6147aed5b2a4f748dc2b6ba4","650c16f0f2faf8d7a0d14c09","651c1bcb0abf80d58021ab04","null","null","<p style=""font-size: 60px; font-family: BACS"">rckOAld</p>","","","","","","","","",""
"html-keyboard-response","396","684796","0.0-16.0-0.64","6147aed5b2a4f748dc2b6ba4","650c16f0f2faf8d7a0d14c09","651c1bcb0abf80d58021ab04","null","null","<p style=""font-size: 60px; font-family: BACS"">rckOAld</p>","","","","","","","","",""
"html-keyboard-response","397","685798","0.0-16.0-0.65","6147aed5b2a4f748dc2b6ba4","650c16f0f2faf8d7a0d14c09","651c1bcb0abf80d58021ab04","null","null","<p style=""font-size: 60px; font-family: BACS"">rckOAld</p>","","","","","","","","",""
"html-keyboard-response","398","686801","0.0-16.0-0.66","6147aed5b2a4f748dc2b6ba4","650c16f0f2faf8d7a0d14c09","651c1bcb0abf80d58021ab04","null","null","<p style=""font-size: 60px; font-family: BACS"">rckOAld</p>","","","","","","","","",""
"html-keyboard-response","399","687803","0.0-16.0-0.67","6147aed5b2a4f748dc2b6ba4","650c16f0f2faf8d7a0d14c09","651c1bcb0abf80d58021ab04","null","null","<p style=""font-size: 60px; font-family: BACS"">rckOAld</p>","","","","","","","","",""
"html-keyboard-response","400","688805","0.0-16.0-0.68","6147aed5b2a4f748dc2b6ba4","650c16f0f2faf8d7a0d14c09","651c1bcb0abf80d58021ab04","null","null","<p style=""font-size: 60px; font-family: BACS"">rckOAld</p>","","","","","","","","",""
