trial_type,trial_index,time_elapsed,internal_node_id,subject_id,study_id,session_id,rt,response,stimulus,success,item,task,correct_response,testing_condition,correct,target,confound,name,view_history
pavlovia,0,3146,0.0-0.0,611dc53f0098557586e89b17,650c16f0f2faf8d7a0d14c09,651c352f8eeb552a8fef050e,,,,,,,,,,,,,
survey-html-form,1,19498,0.0-1.0,611dc53f0098557586e89b17,650c16f0f2faf8d7a0d14c09,651c352f8eeb552a8fef050e,16347,"{""ID"":""611dc53f0098557586e89b17""}",,,,,,,,,,,
html-keyboard-response,2,28093,0.0-2.0,611dc53f0098557586e89b17,650c16f0f2faf8d7a0d14c09,651c352f8eeb552a8fef050e,8593, ,"<p style=""font-size: 15px;"">Before beginning, we ask that you read the consent information and confirm your agreement to participate in the experiment.</p>
      <p style=""font-size: 15px;""> We ask that you remember that this is a research project and that your participation is entirely voluntary. You can stop your participation at any time, without needing to provide any explanation. The study we're asking you to participate in aims at examining how readers process written words. You will be engaged in a session of apprximately 20 minutes, followed by a brief questionnaire. You will have the opportunity to take a few breaks during the experiment. You will be paid £4 for your participation, corresponding to a rate of £8/hour. While this experiment looks at cognitive faculties, this experiment doesn't constitute clinical proof of eventual pathologies.</p>
      <p style=""font-size: 15px;"">All of the information collected thanks to yours and others' participation will be held in a secure password-protected server, and will not be shared with anyone not authorised to view it. Your personal information will be kept with an arbitrary participant ID. Thanks to this data anonymity process, any researcher analysing the data won't be able to track the information back to a specific participant. Therefore, this process will make identifying you impossibile, even when results from the study will be published in scientific reviews, presented at congresses, or at any other public forum. More generally, the collected data will be treated in accordance with the laws on privacy and conformity to the Legislative Degree n. 196 ""Code regarding the protection of personal data"" of the 30th of June 2003 and to the European Regulation 2016/670 (General Data Protection Regulation - GDPR). The Data Protection Officer is Avv. Valentina Carollo, who can be contacted at the following email addresses: <a href=""mailto:dpo@sissa.it"">dpo@sissa.it</a> or <a href=""mailto:rpd@sissa.it"">rpd@sissa.it</a> - PEC: <a href=""mailto:protocollo@pec.sissa.it"">protocollo@pec.sissa.it</a>.</p>
      <p style=""font-size: 15px;""> Before expressing your consent to participate, we would like to remind you again that in case you need explanations on any aspect of the experimental procedure, the researcher is at your disposition (<a href=""mailto:aliebelt@sissa.it"">aliebelt@sissa.it</a>, <a href=""mailto:davide.crepaldi@sissa.it"">davide.crepaldi@sissa.it</a>).</p>
      <p style=""font-size: 15px;"">If you would like to download the informed consent form, you can do so here: <a href=""BASL-Informed_Consent.pdf"" download>informed consent form</a>.</p>
      <p style=""font-size: 15px;"">We ask that you press the spacebar to proceed to the consent section.</p>",,,,,,,,,,
survey-html-form,3,55976,0.0-3.0,611dc53f0098557586e89b17,650c16f0f2faf8d7a0d14c09,651c352f8eeb552a8fef050e,27723,"{""consent1"":""YES"",""consent2"":""YES"",""consent3"":""YES"",""consent4"":""YES"",""consent5"":""YES"",""consent6"":""YES""}",,,,,,,,,,,
fullscreen,4,61360,0.0-4.0,611dc53f0098557586e89b17,650c16f0f2faf8d7a0d14c09,651c352f8eeb552a8fef050e,,,,TRUE,,,,,,,,,
html-keyboard-response,5,80009,0.0-5.0,611dc53f0098557586e89b17,650c16f0f2faf8d7a0d14c09,651c352f8eeb552a8fef050e,18647, ,"<p>Welcome, and thank you very much for your time!</p>
      <p>In this experiment, you'll be a language expert who's been asked to take a look at words that Earth has received in its first communication with aliens. Your task, in this first part of the experiment, is to pay close attention to the words you'll be shown; later, world leaders will ask you questions on what you saw. The words will be shown to you quite quickly; it seems that the aliens were in a hurry :-)</p>
      <p>Press the spacebar to continue.<p>",,,,,,,,,,
html-keyboard-response,6,80061,0.0-6.0,611dc53f0098557586e89b17,650c16f0f2faf8d7a0d14c09,651c352f8eeb552a8fef050e,null,null,"<p style=""font-size: 120px; font-family: BACS""> </p>",,,,,,,,,,
html-keyboard-response,7,83223,0.0-7.0,611dc53f0098557586e89b17,650c16f0f2faf8d7a0d14c09,651c352f8eeb552a8fef050e,3161, ,"<p>Here is an example of the words you'll see:</p>
      <img src='esempio.png' height='400px'>
      <p>When you're ready to begin, press the spacebar.</p></div>",,,,,,,,,,
html-keyboard-response,8,84241,0.0-8.0-0.0,611dc53f0098557586e89b17,650c16f0f2faf8d7a0d14c09,651c352f8eeb552a8fef050e,null,null,"<p style=""font-size: 60px; font-family: BACS"">aNYmbLUOk</p>",,,,,,,,,,
html-keyboard-response,9,85258,0.0-8.0-0.1,611dc53f0098557586e89b17,650c16f0f2faf8d7a0d14c09,651c352f8eeb552a8fef050e,null,null,"<p style=""font-size: 60px; font-family: BACS"">mdkKATc</p>",,,,,,,,,,
html-keyboard-response,10,86274,0.0-8.0-0.2,611dc53f0098557586e89b17,650c16f0f2faf8d7a0d14c09,651c352f8eeb552a8fef050e,null,null,"<p style=""font-size: 60px; font-family: BACS"">hlkTbAMO</p>",,,,,,,,,,
html-keyboard-response,11,87291,0.0-8.0-0.3,611dc53f0098557586e89b17,650c16f0f2faf8d7a0d14c09,651c352f8eeb552a8fef050e,null,null,"<p style=""font-size: 60px; font-family: BACS"">JrGvrAJu</p>",,,,,,,,,,
html-keyboard-response,12,88308,0.0-8.0-0.4,611dc53f0098557586e89b17,650c16f0f2faf8d7a0d14c09,651c352f8eeb552a8fef050e,null,null,"<p style=""font-size: 60px; font-family: BACS"">EPERdbAMO</p>",,,,,,,,,,
html-keyboard-response,13,89323,0.0-8.0-0.5,611dc53f0098557586e89b17,650c16f0f2faf8d7a0d14c09,651c352f8eeb552a8fef050e,null,null,"<p style=""font-size: 60px; font-family: BACS"">JrGvYUYa</p>",,,,,,,,,,
html-keyboard-response,14,90340,0.0-8.0-0.6,611dc53f0098557586e89b17,650c16f0f2faf8d7a0d14c09,651c352f8eeb552a8fef050e,null,null,"<p style=""font-size: 60px; font-family: BACS"">KAERMkhMD</p>",,,,,,,,,,
html-keyboard-response,15,91356,0.0-8.0-0.7,611dc53f0098557586e89b17,650c16f0f2faf8d7a0d14c09,651c352f8eeb552a8fef050e,null,null,"<p style=""font-size: 60px; font-family: BACS"">JNkarAJu</p>",,,,,,,,,,
html-keyboard-response,16,92372,0.0-8.0-0.8,611dc53f0098557586e89b17,650c16f0f2faf8d7a0d14c09,651c352f8eeb552a8fef050e,null,null,"<p style=""font-size: 60px; font-family: BACS"">hlkTmKcD</p>",,,,,,,,,,
html-keyboard-response,17,93389,0.0-8.0-0.9,611dc53f0098557586e89b17,650c16f0f2faf8d7a0d14c09,651c352f8eeb552a8fef050e,null,null,"<p style=""font-size: 60px; font-family: BACS"">QbkAcrAJu</p>",,,,,,,,,,
html-keyboard-response,18,94391,0.0-8.0-0.10,611dc53f0098557586e89b17,650c16f0f2faf8d7a0d14c09,651c352f8eeb552a8fef050e,null,null,"<p style=""font-size: 60px; font-family: BACS"">EPERdRCdc</p>",,,,,,,,,,
html-keyboard-response,19,95406,0.0-8.0-0.11,611dc53f0098557586e89b17,650c16f0f2faf8d7a0d14c09,651c352f8eeb552a8fef050e,null,null,"<p style=""font-size: 60px; font-family: BACS"">AMkCbAMO</p>",,,,,,,,,,
html-keyboard-response,20,96422,0.0-8.0-0.12,611dc53f0098557586e89b17,650c16f0f2faf8d7a0d14c09,651c352f8eeb552a8fef050e,null,null,"<p style=""font-size: 60px; font-family: BACS"">QbkAcrNlZ</p>",,,,,,,,,,
html-keyboard-response,21,97440,0.0-8.0-0.13,611dc53f0098557586e89b17,650c16f0f2faf8d7a0d14c09,651c352f8eeb552a8fef050e,null,null,"<p style=""font-size: 60px; font-family: BACS"">tKDmhRCdc</p>",,,,,,,,,,
html-keyboard-response,22,98455,0.0-8.0-0.14,611dc53f0098557586e89b17,650c16f0f2faf8d7a0d14c09,651c352f8eeb552a8fef050e,null,null,"<p style=""font-size: 60px; font-family: BACS"">bYuQrNlZ</p>",,,,,,,,,,
html-keyboard-response,23,99472,0.0-8.0-0.15,611dc53f0098557586e89b17,650c16f0f2faf8d7a0d14c09,651c352f8eeb552a8fef050e,null,null,"<p style=""font-size: 60px; font-family: BACS"">rLkmrAJu</p>",,,,,,,,,,
html-keyboard-response,24,100489,0.0-8.0-0.16,611dc53f0098557586e89b17,650c16f0f2faf8d7a0d14c09,651c352f8eeb552a8fef050e,null,null,"<p style=""font-size: 60px; font-family: BACS"">bYuQkGua</p>",,,,,,,,,,
html-keyboard-response,25,101505,0.0-8.0-0.17,611dc53f0098557586e89b17,650c16f0f2faf8d7a0d14c09,651c352f8eeb552a8fef050e,null,null,"<p style=""font-size: 60px; font-family: BACS"">tKDmhbAMO</p>",,,,,,,,,,
html-keyboard-response,26,102522,0.0-8.0-0.18,611dc53f0098557586e89b17,650c16f0f2faf8d7a0d14c09,651c352f8eeb552a8fef050e,null,null,"<p style=""font-size: 60px; font-family: BACS"">MDKPkhMD</p>",,,,,,,,,,
html-keyboard-response,27,103539,0.0-8.0-0.19,611dc53f0098557586e89b17,650c16f0f2faf8d7a0d14c09,651c352f8eeb552a8fef050e,null,null,"<p style=""font-size: 60px; font-family: BACS"">KAERMmKcD</p>",,,,,,,,,,
html-keyboard-response,28,104557,0.0-8.0-0.20,611dc53f0098557586e89b17,650c16f0f2faf8d7a0d14c09,651c352f8eeb552a8fef050e,null,null,"<p style=""font-size: 60px; font-family: BACS"">aNYmbrNlZ</p>",,,,,,,,,,
html-keyboard-response,29,105572,0.0-8.0-0.21,611dc53f0098557586e89b17,650c16f0f2faf8d7a0d14c09,651c352f8eeb552a8fef050e,null,null,"<p style=""font-size: 60px; font-family: BACS"">JrGvkGua</p>",,,,,,,,,,
html-keyboard-response,30,106588,0.0-8.0-0.22,611dc53f0098557586e89b17,650c16f0f2faf8d7a0d14c09,651c352f8eeb552a8fef050e,null,null,"<p style=""font-size: 60px; font-family: BACS"">CYPcbAMO</p>",,,,,,,,,,
html-keyboard-response,31,107591,0.0-8.0-0.23,611dc53f0098557586e89b17,650c16f0f2faf8d7a0d14c09,651c352f8eeb552a8fef050e,null,null,"<p style=""font-size: 60px; font-family: BACS"">rLkmYUYa</p>",,,,,,,,,,
html-keyboard-response,32,108605,0.0-8.0-0.24,611dc53f0098557586e89b17,650c16f0f2faf8d7a0d14c09,651c352f8eeb552a8fef050e,null,null,"<p style=""font-size: 60px; font-family: BACS"">MDKPbAMO</p>",,,,,,,,,,
html-keyboard-response,33,109622,0.0-8.0-0.25,611dc53f0098557586e89b17,650c16f0f2faf8d7a0d14c09,651c352f8eeb552a8fef050e,null,null,"<p style=""font-size: 60px; font-family: BACS"">lGZvkGua</p>",,,,,,,,,,
html-keyboard-response,34,110638,0.0-8.0-0.26,611dc53f0098557586e89b17,650c16f0f2faf8d7a0d14c09,651c352f8eeb552a8fef050e,null,null,"<p style=""font-size: 60px; font-family: BACS"">EPERdmKcD</p>",,,,,,,,,,
html-keyboard-response,35,111657,0.0-8.0-0.27,611dc53f0098557586e89b17,650c16f0f2faf8d7a0d14c09,651c352f8eeb552a8fef050e,null,null,"<p style=""font-size: 60px; font-family: BACS"">YlCPBRCdc</p>",,,,,,,,,,
html-keyboard-response,36,112673,0.0-8.0-0.28,611dc53f0098557586e89b17,650c16f0f2faf8d7a0d14c09,651c352f8eeb552a8fef050e,null,null,"<p style=""font-size: 60px; font-family: BACS"">AMkCkhMD</p>",,,,,,,,,,
html-keyboard-response,37,113689,0.0-8.0-0.29,611dc53f0098557586e89b17,650c16f0f2faf8d7a0d14c09,651c352f8eeb552a8fef050e,null,null,"<p style=""font-size: 60px; font-family: BACS"">rdLJakGua</p>",,,,,,,,,,
html-keyboard-response,38,114706,0.0-8.0-0.30,611dc53f0098557586e89b17,650c16f0f2faf8d7a0d14c09,651c352f8eeb552a8fef050e,null,null,"<p style=""font-size: 60px; font-family: BACS"">AMkCmKcD</p>",,,,,,,,,,
html-keyboard-response,39,115721,0.0-8.0-0.31,611dc53f0098557586e89b17,650c16f0f2faf8d7a0d14c09,651c352f8eeb552a8fef050e,null,null,"<p style=""font-size: 60px; font-family: BACS"">LuNZLUOk</p>",,,,,,,,,,
html-keyboard-response,40,116739,0.0-8.0-0.32,611dc53f0098557586e89b17,650c16f0f2faf8d7a0d14c09,651c352f8eeb552a8fef050e,null,null,"<p style=""font-size: 60px; font-family: BACS"">KAERMATc</p>",,,,,,,,,,
html-keyboard-response,41,117756,0.0-8.0-0.33,611dc53f0098557586e89b17,650c16f0f2faf8d7a0d14c09,651c352f8eeb552a8fef050e,null,null,"<p style=""font-size: 60px; font-family: BACS"">tKDmhkhMD</p>",,,,,,,,,,
html-keyboard-response,42,118772,0.0-8.0-0.34,611dc53f0098557586e89b17,650c16f0f2faf8d7a0d14c09,651c352f8eeb552a8fef050e,null,null,"<p style=""font-size: 60px; font-family: BACS"">kdaAJkGua</p>",,,,,,,,,,
html-keyboard-response,43,119788,0.0-8.0-0.35,611dc53f0098557586e89b17,650c16f0f2faf8d7a0d14c09,651c352f8eeb552a8fef050e,null,null,"<p style=""font-size: 60px; font-family: BACS"">bYuQrAJu</p>",,,,,,,,,,
html-keyboard-response,44,120805,0.0-8.0-0.36,611dc53f0098557586e89b17,650c16f0f2faf8d7a0d14c09,651c352f8eeb552a8fef050e,null,null,"<p style=""font-size: 60px; font-family: BACS"">CYPckhMD</p>",,,,,,,,,,
html-keyboard-response,45,121806,0.0-8.0-0.37,611dc53f0098557586e89b17,650c16f0f2faf8d7a0d14c09,651c352f8eeb552a8fef050e,null,null,"<p style=""font-size: 60px; font-family: BACS"">YlCPBATc</p>",,,,,,,,,,
html-keyboard-response,46,122821,0.0-8.0-0.38,611dc53f0098557586e89b17,650c16f0f2faf8d7a0d14c09,651c352f8eeb552a8fef050e,null,null,"<p style=""font-size: 60px; font-family: BACS"">kdaAJLUOk</p>",,,,,,,,,,
html-keyboard-response,47,123824,0.0-8.0-0.39,611dc53f0098557586e89b17,650c16f0f2faf8d7a0d14c09,651c352f8eeb552a8fef050e,null,null,"<p style=""font-size: 60px; font-family: BACS"">JNkarNlZ</p>",,,,,,,,,,
html-keyboard-response,48,124838,0.0-8.0-0.40,611dc53f0098557586e89b17,650c16f0f2faf8d7a0d14c09,651c352f8eeb552a8fef050e,null,null,"<p style=""font-size: 60px; font-family: BACS"">MDKPATc</p>",,,,,,,,,,
html-keyboard-response,49,125840,0.0-8.0-0.41,611dc53f0098557586e89b17,650c16f0f2faf8d7a0d14c09,651c352f8eeb552a8fef050e,null,null,"<p style=""font-size: 60px; font-family: BACS"">mdkKRCdc</p>",,,,,,,,,,
html-keyboard-response,50,126854,0.0-8.0-0.42,611dc53f0098557586e89b17,650c16f0f2faf8d7a0d14c09,651c352f8eeb552a8fef050e,null,null,"<p style=""font-size: 60px; font-family: BACS"">QbkAckGua</p>",,,,,,,,,,
html-keyboard-response,51,127872,0.0-8.0-0.43,611dc53f0098557586e89b17,650c16f0f2faf8d7a0d14c09,651c352f8eeb552a8fef050e,null,null,"<p style=""font-size: 60px; font-family: BACS"">MDKPmKcD</p>",,,,,,,,,,
html-keyboard-response,52,128887,0.0-8.0-0.44,611dc53f0098557586e89b17,650c16f0f2faf8d7a0d14c09,651c352f8eeb552a8fef050e,null,null,"<p style=""font-size: 60px; font-family: BACS"">mdkKbAMO</p>",,,,,,,,,,
html-keyboard-response,53,129889,0.0-8.0-0.45,611dc53f0098557586e89b17,650c16f0f2faf8d7a0d14c09,651c352f8eeb552a8fef050e,null,null,"<p style=""font-size: 60px; font-family: BACS"">AbKDmKcD</p>",,,,,,,,,,
html-keyboard-response,54,130906,0.0-8.0-0.46,611dc53f0098557586e89b17,650c16f0f2faf8d7a0d14c09,651c352f8eeb552a8fef050e,null,null,"<p style=""font-size: 60px; font-family: BACS"">JrGvrNlZ</p>",,,,,,,,,,
html-keyboard-response,55,131922,0.0-8.0-0.47,611dc53f0098557586e89b17,650c16f0f2faf8d7a0d14c09,651c352f8eeb552a8fef050e,null,null,"<p style=""font-size: 60px; font-family: BACS"">KAERMbAMO</p>",,,,,,,,,,
html-keyboard-response,56,132938,0.0-8.0-0.48,611dc53f0098557586e89b17,650c16f0f2faf8d7a0d14c09,651c352f8eeb552a8fef050e,null,null,"<p style=""font-size: 60px; font-family: BACS"">AbKDkhMD</p>",,,,,,,,,,
html-keyboard-response,57,133953,0.0-8.0-0.49,611dc53f0098557586e89b17,650c16f0f2faf8d7a0d14c09,651c352f8eeb552a8fef050e,null,null,"<p style=""font-size: 60px; font-family: BACS"">lGZvrAJu</p>",,,,,,,,,,
html-keyboard-response,58,134970,0.0-8.0-0.50,611dc53f0098557586e89b17,650c16f0f2faf8d7a0d14c09,651c352f8eeb552a8fef050e,null,null,"<p style=""font-size: 60px; font-family: BACS"">AbKDRCdc</p>",,,,,,,,,,
html-keyboard-response,59,135972,0.0-8.0-0.51,611dc53f0098557586e89b17,650c16f0f2faf8d7a0d14c09,651c352f8eeb552a8fef050e,null,null,"<p style=""font-size: 60px; font-family: BACS"">mdkKmKcD</p>",,,,,,,,,,
html-keyboard-response,60,136987,0.0-8.0-0.52,611dc53f0098557586e89b17,650c16f0f2faf8d7a0d14c09,651c352f8eeb552a8fef050e,null,null,"<p style=""font-size: 60px; font-family: BACS"">lGZvYUYa</p>",,,,,,,,,,
html-keyboard-response,61,138004,0.0-8.0-0.53,611dc53f0098557586e89b17,650c16f0f2faf8d7a0d14c09,651c352f8eeb552a8fef050e,null,null,"<p style=""font-size: 60px; font-family: BACS"">rLkmrNlZ</p>",,,,,,,,,,
html-keyboard-response,62,139021,0.0-8.0-0.54,611dc53f0098557586e89b17,650c16f0f2faf8d7a0d14c09,651c352f8eeb552a8fef050e,null,null,"<p style=""font-size: 60px; font-family: BACS"">tKDmhATc</p>",,,,,,,,,,
html-keyboard-response,63,140037,0.0-8.0-0.55,611dc53f0098557586e89b17,650c16f0f2faf8d7a0d14c09,651c352f8eeb552a8fef050e,null,null,"<p style=""font-size: 60px; font-family: BACS"">LuNZkGua</p>",,,,,,,,,,
html-keyboard-response,64,141053,0.0-8.0-0.56,611dc53f0098557586e89b17,650c16f0f2faf8d7a0d14c09,651c352f8eeb552a8fef050e,null,null,"<p style=""font-size: 60px; font-family: BACS"">AMkCRCdc</p>",,,,,,,,,,
html-keyboard-response,65,142054,0.0-8.0-0.57,611dc53f0098557586e89b17,650c16f0f2faf8d7a0d14c09,651c352f8eeb552a8fef050e,null,null,"<p style=""font-size: 60px; font-family: BACS"">rLkmLUOk</p>",,,,,,,,,,
html-keyboard-response,66,143070,0.0-8.0-0.58,611dc53f0098557586e89b17,650c16f0f2faf8d7a0d14c09,651c352f8eeb552a8fef050e,null,null,"<p style=""font-size: 60px; font-family: BACS"">JNkaYUYa</p>",,,,,,,,,,
html-keyboard-response,67,144071,0.0-8.0-0.59,611dc53f0098557586e89b17,650c16f0f2faf8d7a0d14c09,651c352f8eeb552a8fef050e,null,null,"<p style=""font-size: 60px; font-family: BACS"">hlkTATc</p>",,,,,,,,,,
html-keyboard-response,68,145086,0.0-8.0-0.60,611dc53f0098557586e89b17,650c16f0f2faf8d7a0d14c09,651c352f8eeb552a8fef050e,null,null,"<p style=""font-size: 60px; font-family: BACS"">kdaAJYUYa</p>",,,,,,,,,,
html-keyboard-response,69,146102,0.0-8.0-0.61,611dc53f0098557586e89b17,650c16f0f2faf8d7a0d14c09,651c352f8eeb552a8fef050e,null,null,"<p style=""font-size: 60px; font-family: BACS"">QbkAcLUOk</p>",,,,,,,,,,
html-keyboard-response,70,147105,0.0-8.0-0.62,611dc53f0098557586e89b17,650c16f0f2faf8d7a0d14c09,651c352f8eeb552a8fef050e,null,null,"<p style=""font-size: 60px; font-family: BACS"">LuNZYUYa</p>",,,,,,,,,,
html-keyboard-response,71,148120,0.0-8.0-0.63,611dc53f0098557586e89b17,650c16f0f2faf8d7a0d14c09,651c352f8eeb552a8fef050e,null,null,"<p style=""font-size: 60px; font-family: BACS"">JNkaLUOk</p>",,,,,,,,,,
html-keyboard-response,72,149122,0.0-8.0-0.64,611dc53f0098557586e89b17,650c16f0f2faf8d7a0d14c09,651c352f8eeb552a8fef050e,null,null,"<p style=""font-size: 60px; font-family: BACS"">rdLJaYUYa</p>",,,,,,,,,,
html-keyboard-response,73,150138,0.0-8.0-0.65,611dc53f0098557586e89b17,650c16f0f2faf8d7a0d14c09,651c352f8eeb552a8fef050e,null,null,"<p style=""font-size: 60px; font-family: BACS"">LuNZrAJu</p>",,,,,,,,,,
html-keyboard-response,74,151154,0.0-8.0-0.66,611dc53f0098557586e89b17,650c16f0f2faf8d7a0d14c09,651c352f8eeb552a8fef050e,null,null,"<p style=""font-size: 60px; font-family: BACS"">rdLJaLUOk</p>",,,,,,,,,,
html-keyboard-response,75,152170,0.0-8.0-0.67,611dc53f0098557586e89b17,650c16f0f2faf8d7a0d14c09,651c352f8eeb552a8fef050e,null,null,"<p style=""font-size: 60px; font-family: BACS"">aNYmbrAJu</p>",,,,,,,,,,
html-keyboard-response,76,153186,0.0-8.0-0.68,611dc53f0098557586e89b17,650c16f0f2faf8d7a0d14c09,651c352f8eeb552a8fef050e,null,null,"<p style=""font-size: 60px; font-family: BACS"">hlkTRCdc</p>",,,,,,,,,,
html-keyboard-response,77,154204,0.0-8.0-0.69,611dc53f0098557586e89b17,650c16f0f2faf8d7a0d14c09,651c352f8eeb552a8fef050e,null,null,"<p style=""font-size: 60px; font-family: BACS"">YlCPBmKcD</p>",,,,,,,,,,
html-keyboard-response,78,155219,0.0-8.0-0.70,611dc53f0098557586e89b17,650c16f0f2faf8d7a0d14c09,651c352f8eeb552a8fef050e,null,null,"<p style=""font-size: 60px; font-family: BACS"">lGZvLUOk</p>",,,,,,,,,,
html-keyboard-response,79,156236,0.0-8.0-0.71,611dc53f0098557586e89b17,650c16f0f2faf8d7a0d14c09,651c352f8eeb552a8fef050e,null,null,"<p style=""font-size: 60px; font-family: BACS"">EPERdkhMD</p>",,,,,,,,,,
html-keyboard-response,80,157253,0.0-8.0-0.72,611dc53f0098557586e89b17,650c16f0f2faf8d7a0d14c09,651c352f8eeb552a8fef050e,null,null,"<p style=""font-size: 60px; font-family: BACS"">AbKDATc</p>",,,,,,,,,,
html-keyboard-response,81,158269,0.0-8.0-0.73,611dc53f0098557586e89b17,650c16f0f2faf8d7a0d14c09,651c352f8eeb552a8fef050e,null,null,"<p style=""font-size: 60px; font-family: BACS"">CYPcRCdc</p>",,,,,,,,,,
html-keyboard-response,82,159272,0.0-8.0-0.74,611dc53f0098557586e89b17,650c16f0f2faf8d7a0d14c09,651c352f8eeb552a8fef050e,null,null,"<p style=""font-size: 60px; font-family: BACS"">YlCPBkhMD</p>",,,,,,,,,,
html-keyboard-response,83,160289,0.0-8.0-0.75,611dc53f0098557586e89b17,650c16f0f2faf8d7a0d14c09,651c352f8eeb552a8fef050e,null,null,"<p style=""font-size: 60px; font-family: BACS"">kdaAJrNlZ</p>",,,,,,,,,,
html-keyboard-response,84,161302,0.0-8.0-0.76,611dc53f0098557586e89b17,650c16f0f2faf8d7a0d14c09,651c352f8eeb552a8fef050e,null,null,"<p style=""font-size: 60px; font-family: BACS"">aNYmbkGua</p>",,,,,,,,,,
html-keyboard-response,85,162304,0.0-8.0-0.77,611dc53f0098557586e89b17,650c16f0f2faf8d7a0d14c09,651c352f8eeb552a8fef050e,null,null,"<p style=""font-size: 60px; font-family: BACS"">bYuQYUYa</p>",,,,,,,,,,
html-keyboard-response,86,163319,0.0-8.0-0.78,611dc53f0098557586e89b17,650c16f0f2faf8d7a0d14c09,651c352f8eeb552a8fef050e,null,null,"<p style=""font-size: 60px; font-family: BACS"">rdLJarNlZ</p>",,,,,,,,,,
html-keyboard-response,87,164338,0.0-8.0-0.79,611dc53f0098557586e89b17,650c16f0f2faf8d7a0d14c09,651c352f8eeb552a8fef050e,null,null,"<p style=""font-size: 60px; font-family: BACS"">CYPcATc</p>",,,,,,,,,,
html-keyboard-response,88,169095,0.0-9.0,611dc53f0098557586e89b17,650c16f0f2faf8d7a0d14c09,651c352f8eeb552a8fef050e,4757, ,"<p>Great, you've seen the first block of words. You may now take a short break.</p>
      <p>Press the spacebar when you're ready to continue.</p>",,,,,,,,,,
html-keyboard-response,89,170103,0.0-10.0-0.0,611dc53f0098557586e89b17,650c16f0f2faf8d7a0d14c09,651c352f8eeb552a8fef050e,null,null,"<p style=""font-size: 60px; font-family: BACS"">QbkAcLUOk</p>",,,,,,,,,,
html-keyboard-response,90,171130,0.0-10.0-0.1,611dc53f0098557586e89b17,650c16f0f2faf8d7a0d14c09,651c352f8eeb552a8fef050e,null,null,"<p style=""font-size: 60px; font-family: BACS"">EPERdRCdc</p>",,,,,,,,,,
html-keyboard-response,91,172137,0.0-10.0-0.2,611dc53f0098557586e89b17,650c16f0f2faf8d7a0d14c09,651c352f8eeb552a8fef050e,null,null,"<p style=""font-size: 60px; font-family: BACS"">QbkAcrAJu</p>",,,,,,,,,,
html-keyboard-response,92,173152,0.0-10.0-0.3,611dc53f0098557586e89b17,650c16f0f2faf8d7a0d14c09,651c352f8eeb552a8fef050e,null,null,"<p style=""font-size: 60px; font-family: BACS"">kdaAJYUYa</p>",,,,,,,,,,
html-keyboard-response,93,174169,0.0-10.0-0.4,611dc53f0098557586e89b17,650c16f0f2faf8d7a0d14c09,651c352f8eeb552a8fef050e,null,null,"<p style=""font-size: 60px; font-family: BACS"">KAERMmKcD</p>",,,,,,,,,,
html-keyboard-response,94,175185,0.0-10.0-0.5,611dc53f0098557586e89b17,650c16f0f2faf8d7a0d14c09,651c352f8eeb552a8fef050e,null,null,"<p style=""font-size: 60px; font-family: BACS"">tKDmhATc</p>",,,,,,,,,,
html-keyboard-response,95,176187,0.0-10.0-0.6,611dc53f0098557586e89b17,650c16f0f2faf8d7a0d14c09,651c352f8eeb552a8fef050e,null,null,"<p style=""font-size: 60px; font-family: BACS"">hlkTbAMO</p>",,,,,,,,,,
html-keyboard-response,96,177202,0.0-10.0-0.7,611dc53f0098557586e89b17,650c16f0f2faf8d7a0d14c09,651c352f8eeb552a8fef050e,null,null,"<p style=""font-size: 60px; font-family: BACS"">CYPcRCdc</p>",,,,,,,,,,
html-keyboard-response,97,178220,0.0-10.0-0.8,611dc53f0098557586e89b17,650c16f0f2faf8d7a0d14c09,651c352f8eeb552a8fef050e,null,null,"<p style=""font-size: 60px; font-family: BACS"">MDKPATc</p>",,,,,,,,,,
html-keyboard-response,98,179236,0.0-10.0-0.9,611dc53f0098557586e89b17,650c16f0f2faf8d7a0d14c09,651c352f8eeb552a8fef050e,null,null,"<p style=""font-size: 60px; font-family: BACS"">EPERdbAMO</p>",,,,,,,,,,
html-keyboard-response,99,180252,0.0-10.0-0.10,611dc53f0098557586e89b17,650c16f0f2faf8d7a0d14c09,651c352f8eeb552a8fef050e,null,null,"<p style=""font-size: 60px; font-family: BACS"">QbkAcrNlZ</p>",,,,,,,,,,
html-keyboard-response,100,181253,0.0-10.0-0.11,611dc53f0098557586e89b17,650c16f0f2faf8d7a0d14c09,651c352f8eeb552a8fef050e,null,null,"<p style=""font-size: 60px; font-family: BACS"">rLkmYUYa</p>",,,,,,,,,,
html-keyboard-response,101,182268,0.0-10.0-0.12,611dc53f0098557586e89b17,650c16f0f2faf8d7a0d14c09,651c352f8eeb552a8fef050e,null,null,"<p style=""font-size: 60px; font-family: BACS"">YlCPBRCdc</p>",,,,,,,,,,
html-keyboard-response,102,183285,0.0-10.0-0.13,611dc53f0098557586e89b17,650c16f0f2faf8d7a0d14c09,651c352f8eeb552a8fef050e,null,null,"<p style=""font-size: 60px; font-family: BACS"">MDKPkhMD</p>",,,,,,,,,,
html-keyboard-response,103,184302,0.0-10.0-0.14,611dc53f0098557586e89b17,650c16f0f2faf8d7a0d14c09,651c352f8eeb552a8fef050e,null,null,"<p style=""font-size: 60px; font-family: BACS"">rdLJakGua</p>",,,,,,,,,,
html-keyboard-response,104,185319,0.0-10.0-0.15,611dc53f0098557586e89b17,650c16f0f2faf8d7a0d14c09,651c352f8eeb552a8fef050e,null,null,"<p style=""font-size: 60px; font-family: BACS"">aNYmbLUOk</p>",,,,,,,,,,
html-keyboard-response,105,186336,0.0-10.0-0.16,611dc53f0098557586e89b17,650c16f0f2faf8d7a0d14c09,651c352f8eeb552a8fef050e,null,null,"<p style=""font-size: 60px; font-family: BACS"">JNkarNlZ</p>",,,,,,,,,,
html-keyboard-response,106,187355,0.0-10.0-0.17,611dc53f0098557586e89b17,650c16f0f2faf8d7a0d14c09,651c352f8eeb552a8fef050e,null,null,"<p style=""font-size: 60px; font-family: BACS"">JrGvrAJu</p>",,,,,,,,,,
html-keyboard-response,107,188367,0.0-10.0-0.18,611dc53f0098557586e89b17,650c16f0f2faf8d7a0d14c09,651c352f8eeb552a8fef050e,null,null,"<p style=""font-size: 60px; font-family: BACS"">lGZvYUYa</p>",,,,,,,,,,
html-keyboard-response,108,189369,0.0-10.0-0.19,611dc53f0098557586e89b17,650c16f0f2faf8d7a0d14c09,651c352f8eeb552a8fef050e,null,null,"<p style=""font-size: 60px; font-family: BACS"">LuNZrAJu</p>",,,,,,,,,,
html-keyboard-response,109,190385,0.0-10.0-0.20,611dc53f0098557586e89b17,650c16f0f2faf8d7a0d14c09,651c352f8eeb552a8fef050e,null,null,"<p style=""font-size: 60px; font-family: BACS"">KAERMbAMO</p>",,,,,,,,,,
html-keyboard-response,110,191401,0.0-10.0-0.21,611dc53f0098557586e89b17,650c16f0f2faf8d7a0d14c09,651c352f8eeb552a8fef050e,null,null,"<p style=""font-size: 60px; font-family: BACS"">rdLJarNlZ</p>",,,,,,,,,,
html-keyboard-response,111,192418,0.0-10.0-0.22,611dc53f0098557586e89b17,650c16f0f2faf8d7a0d14c09,651c352f8eeb552a8fef050e,null,null,"<p style=""font-size: 60px; font-family: BACS"">tKDmhRCdc</p>",,,,,,,,,,
html-keyboard-response,112,193435,0.0-10.0-0.23,611dc53f0098557586e89b17,650c16f0f2faf8d7a0d14c09,651c352f8eeb552a8fef050e,null,null,"<p style=""font-size: 60px; font-family: BACS"">JNkaYUYa</p>",,,,,,,,,,
html-keyboard-response,113,194452,0.0-10.0-0.24,611dc53f0098557586e89b17,650c16f0f2faf8d7a0d14c09,651c352f8eeb552a8fef050e,null,null,"<p style=""font-size: 60px; font-family: BACS"">AMkCkhMD</p>",,,,,,,,,,
html-keyboard-response,114,195468,0.0-10.0-0.25,611dc53f0098557586e89b17,650c16f0f2faf8d7a0d14c09,651c352f8eeb552a8fef050e,null,null,"<p style=""font-size: 60px; font-family: BACS"">bYuQrNlZ</p>",,,,,,,,,,
html-keyboard-response,115,196485,0.0-10.0-0.26,611dc53f0098557586e89b17,650c16f0f2faf8d7a0d14c09,651c352f8eeb552a8fef050e,null,null,"<p style=""font-size: 60px; font-family: BACS"">mdkKATc</p>",,,,,,,,,,
html-keyboard-response,116,197501,0.0-10.0-0.27,611dc53f0098557586e89b17,650c16f0f2faf8d7a0d14c09,651c352f8eeb552a8fef050e,null,null,"<p style=""font-size: 60px; font-family: BACS"">CYPcbAMO</p>",,,,,,,,,,
html-keyboard-response,117,198502,0.0-10.0-0.28,611dc53f0098557586e89b17,650c16f0f2faf8d7a0d14c09,651c352f8eeb552a8fef050e,null,null,"<p style=""font-size: 60px; font-family: BACS"">bYuQkGua</p>",,,,,,,,,,
html-keyboard-response,118,199517,0.0-10.0-0.29,611dc53f0098557586e89b17,650c16f0f2faf8d7a0d14c09,651c352f8eeb552a8fef050e,null,null,"<p style=""font-size: 60px; font-family: BACS"">rLkmrAJu</p>",,,,,,,,,,
html-keyboard-response,119,200519,0.0-10.0-0.30,611dc53f0098557586e89b17,650c16f0f2faf8d7a0d14c09,651c352f8eeb552a8fef050e,null,null,"<p style=""font-size: 60px; font-family: BACS"">JNkaLUOk</p>",,,,,,,,,,
html-keyboard-response,120,201534,0.0-10.0-0.31,611dc53f0098557586e89b17,650c16f0f2faf8d7a0d14c09,651c352f8eeb552a8fef050e,null,null,"<p style=""font-size: 60px; font-family: BACS"">JrGvkGua</p>",,,,,,,,,,
html-keyboard-response,121,202551,0.0-10.0-0.32,611dc53f0098557586e89b17,650c16f0f2faf8d7a0d14c09,651c352f8eeb552a8fef050e,null,null,"<p style=""font-size: 60px; font-family: BACS"">mdkKbAMO</p>",,,,,,,,,,
html-keyboard-response,122,203567,0.0-10.0-0.33,611dc53f0098557586e89b17,650c16f0f2faf8d7a0d14c09,651c352f8eeb552a8fef050e,null,null,"<p style=""font-size: 60px; font-family: BACS"">EPERdmKcD</p>",,,,,,,,,,
html-keyboard-response,123,204569,0.0-10.0-0.34,611dc53f0098557586e89b17,650c16f0f2faf8d7a0d14c09,651c352f8eeb552a8fef050e,null,null,"<p style=""font-size: 60px; font-family: BACS"">kdaAJrNlZ</p>",,,,,,,,,,
html-keyboard-response,124,205586,0.0-10.0-0.35,611dc53f0098557586e89b17,650c16f0f2faf8d7a0d14c09,651c352f8eeb552a8fef050e,null,null,"<p style=""font-size: 60px; font-family: BACS"">tKDmhkhMD</p>",,,,,,,,,,
html-keyboard-response,125,206601,0.0-10.0-0.36,611dc53f0098557586e89b17,650c16f0f2faf8d7a0d14c09,651c352f8eeb552a8fef050e,null,null,"<p style=""font-size: 60px; font-family: BACS"">AbKDmKcD</p>",,,,,,,,,,
html-keyboard-response,126,207617,0.0-10.0-0.37,611dc53f0098557586e89b17,650c16f0f2faf8d7a0d14c09,651c352f8eeb552a8fef050e,null,null,"<p style=""font-size: 60px; font-family: BACS"">CYPckhMD</p>",,,,,,,,,,
html-keyboard-response,127,208633,0.0-10.0-0.38,611dc53f0098557586e89b17,650c16f0f2faf8d7a0d14c09,651c352f8eeb552a8fef050e,null,null,"<p style=""font-size: 60px; font-family: BACS"">aNYmbkGua</p>",,,,,,,,,,
html-keyboard-response,128,209635,0.0-10.0-0.39,611dc53f0098557586e89b17,650c16f0f2faf8d7a0d14c09,651c352f8eeb552a8fef050e,null,null,"<p style=""font-size: 60px; font-family: BACS"">JrGvYUYa</p>",,,,,,,,,,
html-keyboard-response,129,210649,0.0-10.0-0.40,611dc53f0098557586e89b17,650c16f0f2faf8d7a0d14c09,651c352f8eeb552a8fef050e,null,null,"<p style=""font-size: 60px; font-family: BACS"">AMkCmKcD</p>",,,,,,,,,,
html-keyboard-response,130,211666,0.0-10.0-0.41,611dc53f0098557586e89b17,650c16f0f2faf8d7a0d14c09,651c352f8eeb552a8fef050e,null,null,"<p style=""font-size: 60px; font-family: BACS"">bYuQYUYa</p>",,,,,,,,,,
html-keyboard-response,131,212669,0.0-10.0-0.42,611dc53f0098557586e89b17,650c16f0f2faf8d7a0d14c09,651c352f8eeb552a8fef050e,null,null,"<p style=""font-size: 60px; font-family: BACS"">JrGvrNlZ</p>",,,,,,,,,,
html-keyboard-response,132,213685,0.0-10.0-0.43,611dc53f0098557586e89b17,650c16f0f2faf8d7a0d14c09,651c352f8eeb552a8fef050e,null,null,"<p style=""font-size: 60px; font-family: BACS"">AbKDRCdc</p>",,,,,,,,,,
html-keyboard-response,133,214699,0.0-10.0-0.44,611dc53f0098557586e89b17,650c16f0f2faf8d7a0d14c09,651c352f8eeb552a8fef050e,null,null,"<p style=""font-size: 60px; font-family: BACS"">bYuQrAJu</p>",,,,,,,,,,
html-keyboard-response,134,215702,0.0-10.0-0.45,611dc53f0098557586e89b17,650c16f0f2faf8d7a0d14c09,651c352f8eeb552a8fef050e,null,null,"<p style=""font-size: 60px; font-family: BACS"">QbkAckGua</p>",,,,,,,,,,
html-keyboard-response,135,216717,0.0-10.0-0.46,611dc53f0098557586e89b17,650c16f0f2faf8d7a0d14c09,651c352f8eeb552a8fef050e,null,null,"<p style=""font-size: 60px; font-family: BACS"">lGZvLUOk</p>",,,,,,,,,,
html-keyboard-response,136,217733,0.0-10.0-0.47,611dc53f0098557586e89b17,650c16f0f2faf8d7a0d14c09,651c352f8eeb552a8fef050e,null,null,"<p style=""font-size: 60px; font-family: BACS"">KAERMATc</p>",,,,,,,,,,
html-keyboard-response,137,218750,0.0-10.0-0.48,611dc53f0098557586e89b17,650c16f0f2faf8d7a0d14c09,651c352f8eeb552a8fef050e,null,null,"<p style=""font-size: 60px; font-family: BACS"">lGZvkGua</p>",,,,,,,,,,
html-keyboard-response,138,219769,0.0-10.0-0.49,611dc53f0098557586e89b17,650c16f0f2faf8d7a0d14c09,651c352f8eeb552a8fef050e,null,null,"<p style=""font-size: 60px; font-family: BACS"">MDKPbAMO</p>",,,,,,,,,,
html-keyboard-response,139,220783,0.0-10.0-0.50,611dc53f0098557586e89b17,650c16f0f2faf8d7a0d14c09,651c352f8eeb552a8fef050e,null,null,"<p style=""font-size: 60px; font-family: BACS"">LuNZkGua</p>",,,,,,,,,,
html-keyboard-response,140,221802,0.0-10.0-0.51,611dc53f0098557586e89b17,650c16f0f2faf8d7a0d14c09,651c352f8eeb552a8fef050e,null,null,"<p style=""font-size: 60px; font-family: BACS"">AbKDATc</p>",,,,,,,,,,
html-keyboard-response,141,222818,0.0-10.0-0.52,611dc53f0098557586e89b17,650c16f0f2faf8d7a0d14c09,651c352f8eeb552a8fef050e,null,null,"<p style=""font-size: 60px; font-family: BACS"">hlkTRCdc</p>",,,,,,,,,,
html-keyboard-response,142,223833,0.0-10.0-0.53,611dc53f0098557586e89b17,650c16f0f2faf8d7a0d14c09,651c352f8eeb552a8fef050e,null,null,"<p style=""font-size: 60px; font-family: BACS"">LuNZYUYa</p>",,,,,,,,,,
html-keyboard-response,143,224851,0.0-10.0-0.54,611dc53f0098557586e89b17,650c16f0f2faf8d7a0d14c09,651c352f8eeb552a8fef050e,null,null,"<p style=""font-size: 60px; font-family: BACS"">AMkCbAMO</p>",,,,,,,,,,
html-keyboard-response,144,225866,0.0-10.0-0.55,611dc53f0098557586e89b17,650c16f0f2faf8d7a0d14c09,651c352f8eeb552a8fef050e,null,null,"<p style=""font-size: 60px; font-family: BACS"">AbKDkhMD</p>",,,,,,,,,,
html-keyboard-response,145,226884,0.0-10.0-0.56,611dc53f0098557586e89b17,650c16f0f2faf8d7a0d14c09,651c352f8eeb552a8fef050e,null,null,"<p style=""font-size: 60px; font-family: BACS"">kdaAJkGua</p>",,,,,,,,,,
html-keyboard-response,146,227900,0.0-10.0-0.57,611dc53f0098557586e89b17,650c16f0f2faf8d7a0d14c09,651c352f8eeb552a8fef050e,null,null,"<p style=""font-size: 60px; font-family: BACS"">YlCPBkhMD</p>",,,,,,,,,,
html-keyboard-response,147,228917,0.0-10.0-0.58,611dc53f0098557586e89b17,650c16f0f2faf8d7a0d14c09,651c352f8eeb552a8fef050e,null,null,"<p style=""font-size: 60px; font-family: BACS"">AMkCRCdc</p>",,,,,,,,,,
html-keyboard-response,148,229934,0.0-10.0-0.59,611dc53f0098557586e89b17,650c16f0f2faf8d7a0d14c09,651c352f8eeb552a8fef050e,null,null,"<p style=""font-size: 60px; font-family: BACS"">mdkKmKcD</p>",,,,,,,,,,
html-keyboard-response,149,230949,0.0-10.0-0.60,611dc53f0098557586e89b17,650c16f0f2faf8d7a0d14c09,651c352f8eeb552a8fef050e,null,null,"<p style=""font-size: 60px; font-family: BACS"">rdLJaLUOk</p>",,,,,,,,,,
html-keyboard-response,150,231951,0.0-10.0-0.61,611dc53f0098557586e89b17,650c16f0f2faf8d7a0d14c09,651c352f8eeb552a8fef050e,null,null,"<p style=""font-size: 60px; font-family: BACS"">JNkarAJu</p>",,,,,,,,,,
html-keyboard-response,151,232966,0.0-10.0-0.62,611dc53f0098557586e89b17,650c16f0f2faf8d7a0d14c09,651c352f8eeb552a8fef050e,null,null,"<p style=""font-size: 60px; font-family: BACS"">KAERMkhMD</p>",,,,,,,,,,
html-keyboard-response,152,233982,0.0-10.0-0.63,611dc53f0098557586e89b17,650c16f0f2faf8d7a0d14c09,651c352f8eeb552a8fef050e,null,null,"<p style=""font-size: 60px; font-family: BACS"">CYPcATc</p>",,,,,,,,,,
html-keyboard-response,153,234997,0.0-10.0-0.64,611dc53f0098557586e89b17,650c16f0f2faf8d7a0d14c09,651c352f8eeb552a8fef050e,null,null,"<p style=""font-size: 60px; font-family: BACS"">rdLJaYUYa</p>",,,,,,,,,,
html-keyboard-response,154,236000,0.0-10.0-0.65,611dc53f0098557586e89b17,650c16f0f2faf8d7a0d14c09,651c352f8eeb552a8fef050e,null,null,"<p style=""font-size: 60px; font-family: BACS"">hlkTATc</p>",,,,,,,,,,
html-keyboard-response,155,237017,0.0-10.0-0.66,611dc53f0098557586e89b17,650c16f0f2faf8d7a0d14c09,651c352f8eeb552a8fef050e,null,null,"<p style=""font-size: 60px; font-family: BACS"">rLkmrNlZ</p>",,,,,,,,,,
html-keyboard-response,156,238034,0.0-10.0-0.67,611dc53f0098557586e89b17,650c16f0f2faf8d7a0d14c09,651c352f8eeb552a8fef050e,null,null,"<p style=""font-size: 60px; font-family: BACS"">aNYmbrAJu</p>",,,,,,,,,,
html-keyboard-response,157,239051,0.0-10.0-0.68,611dc53f0098557586e89b17,650c16f0f2faf8d7a0d14c09,651c352f8eeb552a8fef050e,null,null,"<p style=""font-size: 60px; font-family: BACS"">MDKPmKcD</p>",,,,,,,,,,
html-keyboard-response,158,240066,0.0-10.0-0.69,611dc53f0098557586e89b17,650c16f0f2faf8d7a0d14c09,651c352f8eeb552a8fef050e,null,null,"<p style=""font-size: 60px; font-family: BACS"">rLkmLUOk</p>",,,,,,,,,,
html-keyboard-response,159,241082,0.0-10.0-0.70,611dc53f0098557586e89b17,650c16f0f2faf8d7a0d14c09,651c352f8eeb552a8fef050e,null,null,"<p style=""font-size: 60px; font-family: BACS"">YlCPBmKcD</p>",,,,,,,,,,
html-keyboard-response,160,242098,0.0-10.0-0.71,611dc53f0098557586e89b17,650c16f0f2faf8d7a0d14c09,651c352f8eeb552a8fef050e,null,null,"<p style=""font-size: 60px; font-family: BACS"">aNYmbrNlZ</p>",,,,,,,,,,
html-keyboard-response,161,243115,0.0-10.0-0.72,611dc53f0098557586e89b17,650c16f0f2faf8d7a0d14c09,651c352f8eeb552a8fef050e,null,null,"<p style=""font-size: 60px; font-family: BACS"">EPERdkhMD</p>",,,,,,,,,,
html-keyboard-response,162,244132,0.0-10.0-0.73,611dc53f0098557586e89b17,650c16f0f2faf8d7a0d14c09,651c352f8eeb552a8fef050e,null,null,"<p style=""font-size: 60px; font-family: BACS"">mdkKRCdc</p>",,,,,,,,,,
html-keyboard-response,163,245134,0.0-10.0-0.74,611dc53f0098557586e89b17,650c16f0f2faf8d7a0d14c09,651c352f8eeb552a8fef050e,null,null,"<p style=""font-size: 60px; font-family: BACS"">kdaAJLUOk</p>",,,,,,,,,,
html-keyboard-response,164,246149,0.0-10.0-0.75,611dc53f0098557586e89b17,650c16f0f2faf8d7a0d14c09,651c352f8eeb552a8fef050e,null,null,"<p style=""font-size: 60px; font-family: BACS"">YlCPBATc</p>",,,,,,,,,,
html-keyboard-response,165,247165,0.0-10.0-0.76,611dc53f0098557586e89b17,650c16f0f2faf8d7a0d14c09,651c352f8eeb552a8fef050e,null,null,"<p style=""font-size: 60px; font-family: BACS"">LuNZLUOk</p>",,,,,,,,,,
html-keyboard-response,166,248182,0.0-10.0-0.77,611dc53f0098557586e89b17,650c16f0f2faf8d7a0d14c09,651c352f8eeb552a8fef050e,null,null,"<p style=""font-size: 60px; font-family: BACS"">lGZvrAJu</p>",,,,,,,,,,
html-keyboard-response,167,249200,0.0-10.0-0.78,611dc53f0098557586e89b17,650c16f0f2faf8d7a0d14c09,651c352f8eeb552a8fef050e,null,null,"<p style=""font-size: 60px; font-family: BACS"">tKDmhbAMO</p>",,,,,,,,,,
html-keyboard-response,168,250216,0.0-10.0-0.79,611dc53f0098557586e89b17,650c16f0f2faf8d7a0d14c09,651c352f8eeb552a8fef050e,null,null,"<p style=""font-size: 60px; font-family: BACS"">hlkTmKcD</p>",,,,,,,,,,
html-keyboard-response,169,252834,0.0-11.0,611dc53f0098557586e89b17,650c16f0f2faf8d7a0d14c09,651c352f8eeb552a8fef050e,2616, ,"<p>Great, you've seen the second block of words. You may now take a short break.</p>
      <p>Press the spacebar when you're ready to continue.</p>",,,,,,,,,,
html-keyboard-response,170,253850,0.0-12.0-0.0,611dc53f0098557586e89b17,650c16f0f2faf8d7a0d14c09,651c352f8eeb552a8fef050e,null,null,"<p style=""font-size: 60px; font-family: BACS"">CYPcbAMO</p>",,,,,,,,,,
html-keyboard-response,171,254866,0.0-12.0-0.1,611dc53f0098557586e89b17,650c16f0f2faf8d7a0d14c09,651c352f8eeb552a8fef050e,null,null,"<p style=""font-size: 60px; font-family: BACS"">lGZvkGua</p>",,,,,,,,,,
html-keyboard-response,172,255881,0.0-12.0-0.2,611dc53f0098557586e89b17,650c16f0f2faf8d7a0d14c09,651c352f8eeb552a8fef050e,null,null,"<p style=""font-size: 60px; font-family: BACS"">aNYmbrNlZ</p>",,,,,,,,,,
html-keyboard-response,173,256883,0.0-12.0-0.3,611dc53f0098557586e89b17,650c16f0f2faf8d7a0d14c09,651c352f8eeb552a8fef050e,null,null,"<p style=""font-size: 60px; font-family: BACS"">lGZvrAJu</p>",,,,,,,,,,
html-keyboard-response,174,257899,0.0-12.0-0.4,611dc53f0098557586e89b17,650c16f0f2faf8d7a0d14c09,651c352f8eeb552a8fef050e,null,null,"<p style=""font-size: 60px; font-family: BACS"">YlCPBRCdc</p>",,,,,,,,,,
html-keyboard-response,175,258916,0.0-12.0-0.5,611dc53f0098557586e89b17,650c16f0f2faf8d7a0d14c09,651c352f8eeb552a8fef050e,null,null,"<p style=""font-size: 60px; font-family: BACS"">kdaAJLUOk</p>",,,,,,,,,,
html-keyboard-response,176,259931,0.0-12.0-0.6,611dc53f0098557586e89b17,650c16f0f2faf8d7a0d14c09,651c352f8eeb552a8fef050e,null,null,"<p style=""font-size: 60px; font-family: BACS"">hlkTmKcD</p>",,,,,,,,,,
html-keyboard-response,177,260949,0.0-12.0-0.7,611dc53f0098557586e89b17,650c16f0f2faf8d7a0d14c09,651c352f8eeb552a8fef050e,null,null,"<p style=""font-size: 60px; font-family: BACS"">MDKPkhMD</p>",,,,,,,,,,
html-keyboard-response,178,261964,0.0-12.0-0.8,611dc53f0098557586e89b17,650c16f0f2faf8d7a0d14c09,651c352f8eeb552a8fef050e,null,null,"<p style=""font-size: 60px; font-family: BACS"">YlCPBATc</p>",,,,,,,,,,
html-keyboard-response,179,262966,0.0-12.0-0.9,611dc53f0098557586e89b17,650c16f0f2faf8d7a0d14c09,651c352f8eeb552a8fef050e,null,null,"<p style=""font-size: 60px; font-family: BACS"">tKDmhRCdc</p>",,,,,,,,,,
html-keyboard-response,180,263983,0.0-12.0-0.10,611dc53f0098557586e89b17,650c16f0f2faf8d7a0d14c09,651c352f8eeb552a8fef050e,null,null,"<p style=""font-size: 60px; font-family: BACS"">LuNZkGua</p>",,,,,,,,,,
html-keyboard-response,181,264999,0.0-12.0-0.11,611dc53f0098557586e89b17,650c16f0f2faf8d7a0d14c09,651c352f8eeb552a8fef050e,null,null,"<p style=""font-size: 60px; font-family: BACS"">JrGvYUYa</p>",,,,,,,,,,
html-keyboard-response,182,266014,0.0-12.0-0.12,611dc53f0098557586e89b17,650c16f0f2faf8d7a0d14c09,651c352f8eeb552a8fef050e,null,null,"<p style=""font-size: 60px; font-family: BACS"">mdkKmKcD</p>",,,,,,,,,,
html-keyboard-response,183,267020,0.0-12.0-0.13,611dc53f0098557586e89b17,650c16f0f2faf8d7a0d14c09,651c352f8eeb552a8fef050e,null,null,"<p style=""font-size: 60px; font-family: BACS"">AbKDRCdc</p>",,,,,,,,,,
html-keyboard-response,184,268032,0.0-12.0-0.14,611dc53f0098557586e89b17,650c16f0f2faf8d7a0d14c09,651c352f8eeb552a8fef050e,null,null,"<p style=""font-size: 60px; font-family: BACS"">kdaAJrNlZ</p>",,,,,,,,,,
html-keyboard-response,185,269047,0.0-12.0-0.15,611dc53f0098557586e89b17,650c16f0f2faf8d7a0d14c09,651c352f8eeb552a8fef050e,null,null,"<p style=""font-size: 60px; font-family: BACS"">bYuQYUYa</p>",,,,,,,,,,
html-keyboard-response,186,270063,0.0-12.0-0.16,611dc53f0098557586e89b17,650c16f0f2faf8d7a0d14c09,651c352f8eeb552a8fef050e,null,null,"<p style=""font-size: 60px; font-family: BACS"">KAERMbAMO</p>",,,,,,,,,,
html-keyboard-response,187,271065,0.0-12.0-0.17,611dc53f0098557586e89b17,650c16f0f2faf8d7a0d14c09,651c352f8eeb552a8fef050e,null,null,"<p style=""font-size: 60px; font-family: BACS"">bYuQkGua</p>",,,,,,,,,,
html-keyboard-response,188,272081,0.0-12.0-0.18,611dc53f0098557586e89b17,650c16f0f2faf8d7a0d14c09,651c352f8eeb552a8fef050e,null,null,"<p style=""font-size: 60px; font-family: BACS"">lGZvYUYa</p>",,,,,,,,,,
html-keyboard-response,189,273098,0.0-12.0-0.19,611dc53f0098557586e89b17,650c16f0f2faf8d7a0d14c09,651c352f8eeb552a8fef050e,null,null,"<p style=""font-size: 60px; font-family: BACS"">rLkmLUOk</p>",,,,,,,,,,
html-keyboard-response,190,274115,0.0-12.0-0.20,611dc53f0098557586e89b17,650c16f0f2faf8d7a0d14c09,651c352f8eeb552a8fef050e,null,null,"<p style=""font-size: 60px; font-family: BACS"">LuNZYUYa</p>",,,,,,,,,,
html-keyboard-response,191,275132,0.0-12.0-0.21,611dc53f0098557586e89b17,650c16f0f2faf8d7a0d14c09,651c352f8eeb552a8fef050e,null,null,"<p style=""font-size: 60px; font-family: BACS"">mdkKbAMO</p>",,,,,,,,,,
html-keyboard-response,192,276147,0.0-12.0-0.22,611dc53f0098557586e89b17,650c16f0f2faf8d7a0d14c09,651c352f8eeb552a8fef050e,null,null,"<p style=""font-size: 60px; font-family: BACS"">QbkAcrAJu</p>",,,,,,,,,,
html-keyboard-response,193,277150,0.0-12.0-0.23,611dc53f0098557586e89b17,650c16f0f2faf8d7a0d14c09,651c352f8eeb552a8fef050e,null,null,"<p style=""font-size: 60px; font-family: BACS"">rdLJarNlZ</p>",,,,,,,,,,
html-keyboard-response,194,278165,0.0-12.0-0.24,611dc53f0098557586e89b17,650c16f0f2faf8d7a0d14c09,651c352f8eeb552a8fef050e,null,null,"<p style=""font-size: 60px; font-family: BACS"">LuNZrAJu</p>",,,,,,,,,,
html-keyboard-response,195,279181,0.0-12.0-0.25,611dc53f0098557586e89b17,650c16f0f2faf8d7a0d14c09,651c352f8eeb552a8fef050e,null,null,"<p style=""font-size: 60px; font-family: BACS"">KAERMkhMD</p>",,,,,,,,,,
html-keyboard-response,196,280197,0.0-12.0-0.26,611dc53f0098557586e89b17,650c16f0f2faf8d7a0d14c09,651c352f8eeb552a8fef050e,null,null,"<p style=""font-size: 60px; font-family: BACS"">rdLJaLUOk</p>",,,,,,,,,,
html-keyboard-response,197,281214,0.0-12.0-0.27,611dc53f0098557586e89b17,650c16f0f2faf8d7a0d14c09,651c352f8eeb552a8fef050e,null,null,"<p style=""font-size: 60px; font-family: BACS"">tKDmhkhMD</p>",,,,,,,,,,
html-keyboard-response,198,282232,0.0-12.0-0.28,611dc53f0098557586e89b17,650c16f0f2faf8d7a0d14c09,651c352f8eeb552a8fef050e,null,null,"<p style=""font-size: 60px; font-family: BACS"">rdLJakGua</p>",,,,,,,,,,
html-keyboard-response,199,283248,0.0-12.0-0.29,611dc53f0098557586e89b17,650c16f0f2faf8d7a0d14c09,651c352f8eeb552a8fef050e,null,null,"<p style=""font-size: 60px; font-family: BACS"">aNYmbLUOk</p>",,,,,,,,,,
html-keyboard-response,200,284264,0.0-12.0-0.30,611dc53f0098557586e89b17,650c16f0f2faf8d7a0d14c09,651c352f8eeb552a8fef050e,null,null,"<p style=""font-size: 60px; font-family: BACS"">YlCPBmKcD</p>",,,,,,,,,,
html-keyboard-response,201,285280,0.0-12.0-0.31,611dc53f0098557586e89b17,650c16f0f2faf8d7a0d14c09,651c352f8eeb552a8fef050e,null,null,"<p style=""font-size: 60px; font-family: BACS"">QbkAcLUOk</p>",,,,,,,,,,
html-keyboard-response,202,286297,0.0-12.0-0.32,611dc53f0098557586e89b17,650c16f0f2faf8d7a0d14c09,651c352f8eeb552a8fef050e,null,null,"<p style=""font-size: 60px; font-family: BACS"">tKDmhATc</p>",,,,,,,,,,
html-keyboard-response,203,287313,0.0-12.0-0.33,611dc53f0098557586e89b17,650c16f0f2faf8d7a0d14c09,651c352f8eeb552a8fef050e,null,null,"<p style=""font-size: 60px; font-family: BACS"">EPERdbAMO</p>",,,,,,,,,,
html-keyboard-response,204,288329,0.0-12.0-0.34,611dc53f0098557586e89b17,650c16f0f2faf8d7a0d14c09,651c352f8eeb552a8fef050e,null,null,"<p style=""font-size: 60px; font-family: BACS"">aNYmbkGua</p>",,,,,,,,,,
html-keyboard-response,205,289332,0.0-12.0-0.35,611dc53f0098557586e89b17,650c16f0f2faf8d7a0d14c09,651c352f8eeb552a8fef050e,null,null,"<p style=""font-size: 60px; font-family: BACS"">AMkCRCdc</p>",,,,,,,,,,
html-keyboard-response,206,290348,0.0-12.0-0.36,611dc53f0098557586e89b17,650c16f0f2faf8d7a0d14c09,651c352f8eeb552a8fef050e,null,null,"<p style=""font-size: 60px; font-family: BACS"">KAERMATc</p>",,,,,,,,,,
html-keyboard-response,207,291365,0.0-12.0-0.37,611dc53f0098557586e89b17,650c16f0f2faf8d7a0d14c09,651c352f8eeb552a8fef050e,null,null,"<p style=""font-size: 60px; font-family: BACS"">JNkaYUYa</p>",,,,,,,,,,
html-keyboard-response,208,292380,0.0-12.0-0.38,611dc53f0098557586e89b17,650c16f0f2faf8d7a0d14c09,651c352f8eeb552a8fef050e,null,null,"<p style=""font-size: 60px; font-family: BACS"">mdkKRCdc</p>",,,,,,,,,,
html-keyboard-response,209,293397,0.0-12.0-0.39,611dc53f0098557586e89b17,650c16f0f2faf8d7a0d14c09,651c352f8eeb552a8fef050e,null,null,"<p style=""font-size: 60px; font-family: BACS"">EPERdkhMD</p>",,,,,,,,,,
html-keyboard-response,210,294413,0.0-12.0-0.40,611dc53f0098557586e89b17,650c16f0f2faf8d7a0d14c09,651c352f8eeb552a8fef050e,null,null,"<p style=""font-size: 60px; font-family: BACS"">JrGvrAJu</p>",,,,,,,,,,
html-keyboard-response,211,295430,0.0-12.0-0.41,611dc53f0098557586e89b17,650c16f0f2faf8d7a0d14c09,651c352f8eeb552a8fef050e,null,null,"<p style=""font-size: 60px; font-family: BACS"">KAERMmKcD</p>",,,,,,,,,,
html-keyboard-response,212,296449,0.0-12.0-0.42,611dc53f0098557586e89b17,650c16f0f2faf8d7a0d14c09,651c352f8eeb552a8fef050e,null,null,"<p style=""font-size: 60px; font-family: BACS"">QbkAckGua</p>",,,,,,,,,,
html-keyboard-response,213,297463,0.0-12.0-0.43,611dc53f0098557586e89b17,650c16f0f2faf8d7a0d14c09,651c352f8eeb552a8fef050e,null,null,"<p style=""font-size: 60px; font-family: BACS"">hlkTbAMO</p>",,,,,,,,,,
html-keyboard-response,214,298481,0.0-12.0-0.44,611dc53f0098557586e89b17,650c16f0f2faf8d7a0d14c09,651c352f8eeb552a8fef050e,null,null,"<p style=""font-size: 60px; font-family: BACS"">kdaAJkGua</p>",,,,,,,,,,
html-keyboard-response,215,299498,0.0-12.0-0.45,611dc53f0098557586e89b17,650c16f0f2faf8d7a0d14c09,651c352f8eeb552a8fef050e,null,null,"<p style=""font-size: 60px; font-family: BACS"">LuNZLUOk</p>",,,,,,,,,,
html-keyboard-response,216,300513,0.0-12.0-0.46,611dc53f0098557586e89b17,650c16f0f2faf8d7a0d14c09,651c352f8eeb552a8fef050e,null,null,"<p style=""font-size: 60px; font-family: BACS"">QbkAcrNlZ</p>",,,,,,,,,,
html-keyboard-response,217,301516,0.0-12.0-0.47,611dc53f0098557586e89b17,650c16f0f2faf8d7a0d14c09,651c352f8eeb552a8fef050e,null,null,"<p style=""font-size: 60px; font-family: BACS"">bYuQrAJu</p>",,,,,,,,,,
html-keyboard-response,218,302530,0.0-12.0-0.48,611dc53f0098557586e89b17,650c16f0f2faf8d7a0d14c09,651c352f8eeb552a8fef050e,null,null,"<p style=""font-size: 60px; font-family: BACS"">MDKPATc</p>",,,,,,,,,,
html-keyboard-response,219,303546,0.0-12.0-0.49,611dc53f0098557586e89b17,650c16f0f2faf8d7a0d14c09,651c352f8eeb552a8fef050e,null,null,"<p style=""font-size: 60px; font-family: BACS"">AMkCbAMO</p>",,,,,,,,,,
html-keyboard-response,220,304564,0.0-12.0-0.50,611dc53f0098557586e89b17,650c16f0f2faf8d7a0d14c09,651c352f8eeb552a8fef050e,null,null,"<p style=""font-size: 60px; font-family: BACS"">CYPcRCdc</p>",,,,,,,,,,
html-keyboard-response,221,305579,0.0-12.0-0.51,611dc53f0098557586e89b17,650c16f0f2faf8d7a0d14c09,651c352f8eeb552a8fef050e,null,null,"<p style=""font-size: 60px; font-family: BACS"">hlkTATc</p>",,,,,,,,,,
html-keyboard-response,222,306596,0.0-12.0-0.52,611dc53f0098557586e89b17,650c16f0f2faf8d7a0d14c09,651c352f8eeb552a8fef050e,null,null,"<p style=""font-size: 60px; font-family: BACS"">AMkCmKcD</p>",,,,,,,,,,
html-keyboard-response,223,307614,0.0-12.0-0.53,611dc53f0098557586e89b17,650c16f0f2faf8d7a0d14c09,651c352f8eeb552a8fef050e,null,null,"<p style=""font-size: 60px; font-family: BACS"">CYPckhMD</p>",,,,,,,,,,
html-keyboard-response,224,308631,0.0-12.0-0.54,611dc53f0098557586e89b17,650c16f0f2faf8d7a0d14c09,651c352f8eeb552a8fef050e,null,null,"<p style=""font-size: 60px; font-family: BACS"">rLkmrAJu</p>",,,,,,,,,,
html-keyboard-response,225,309633,0.0-12.0-0.55,611dc53f0098557586e89b17,650c16f0f2faf8d7a0d14c09,651c352f8eeb552a8fef050e,null,null,"<p style=""font-size: 60px; font-family: BACS"">CYPcATc</p>",,,,,,,,,,
html-keyboard-response,226,310648,0.0-12.0-0.56,611dc53f0098557586e89b17,650c16f0f2faf8d7a0d14c09,651c352f8eeb552a8fef050e,null,null,"<p style=""font-size: 60px; font-family: BACS"">aNYmbrAJu</p>",,,,,,,,,,
html-keyboard-response,227,311662,0.0-12.0-0.57,611dc53f0098557586e89b17,650c16f0f2faf8d7a0d14c09,651c352f8eeb552a8fef050e,null,null,"<p style=""font-size: 60px; font-family: BACS"">rLkmYUYa</p>",,,,,,,,,,
html-keyboard-response,228,312679,0.0-12.0-0.58,611dc53f0098557586e89b17,650c16f0f2faf8d7a0d14c09,651c352f8eeb552a8fef050e,null,null,"<p style=""font-size: 60px; font-family: BACS"">JrGvrNlZ</p>",,,,,,,,,,
html-keyboard-response,229,313696,0.0-12.0-0.59,611dc53f0098557586e89b17,650c16f0f2faf8d7a0d14c09,651c352f8eeb552a8fef050e,null,null,"<p style=""font-size: 60px; font-family: BACS"">JNkaLUOk</p>",,,,,,,,,,
html-keyboard-response,230,314714,0.0-12.0-0.60,611dc53f0098557586e89b17,650c16f0f2faf8d7a0d14c09,651c352f8eeb552a8fef050e,null,null,"<p style=""font-size: 60px; font-family: BACS"">rLkmrNlZ</p>",,,,,,,,,,
html-keyboard-response,231,315729,0.0-12.0-0.61,611dc53f0098557586e89b17,650c16f0f2faf8d7a0d14c09,651c352f8eeb552a8fef050e,null,null,"<p style=""font-size: 60px; font-family: BACS"">YlCPBkhMD</p>",,,,,,,,,,
html-keyboard-response,232,316746,0.0-12.0-0.62,611dc53f0098557586e89b17,650c16f0f2faf8d7a0d14c09,651c352f8eeb552a8fef050e,null,null,"<p style=""font-size: 60px; font-family: BACS"">JNkarAJu</p>",,,,,,,,,,
html-keyboard-response,233,317763,0.0-12.0-0.63,611dc53f0098557586e89b17,650c16f0f2faf8d7a0d14c09,651c352f8eeb552a8fef050e,null,null,"<p style=""font-size: 60px; font-family: BACS"">AbKDmKcD</p>",,,,,,,,,,
html-keyboard-response,234,318778,0.0-12.0-0.64,611dc53f0098557586e89b17,650c16f0f2faf8d7a0d14c09,651c352f8eeb552a8fef050e,null,null,"<p style=""font-size: 60px; font-family: BACS"">EPERdRCdc</p>",,,,,,,,,,
html-keyboard-response,235,319780,0.0-12.0-0.65,611dc53f0098557586e89b17,650c16f0f2faf8d7a0d14c09,651c352f8eeb552a8fef050e,null,null,"<p style=""font-size: 60px; font-family: BACS"">mdkKATc</p>",,,,,,,,,,
html-keyboard-response,236,320796,0.0-12.0-0.66,611dc53f0098557586e89b17,650c16f0f2faf8d7a0d14c09,651c352f8eeb552a8fef050e,null,null,"<p style=""font-size: 60px; font-family: BACS"">JNkarNlZ</p>",,,,,,,,,,
html-keyboard-response,237,321812,0.0-12.0-0.67,611dc53f0098557586e89b17,650c16f0f2faf8d7a0d14c09,651c352f8eeb552a8fef050e,null,null,"<p style=""font-size: 60px; font-family: BACS"">AbKDkhMD</p>",,,,,,,,,,
html-keyboard-response,238,322828,0.0-12.0-0.68,611dc53f0098557586e89b17,650c16f0f2faf8d7a0d14c09,651c352f8eeb552a8fef050e,null,null,"<p style=""font-size: 60px; font-family: BACS"">EPERdmKcD</p>",,,,,,,,,,
html-keyboard-response,239,323845,0.0-12.0-0.69,611dc53f0098557586e89b17,650c16f0f2faf8d7a0d14c09,651c352f8eeb552a8fef050e,null,null,"<p style=""font-size: 60px; font-family: BACS"">AMkCkhMD</p>",,,,,,,,,,
html-keyboard-response,240,324847,0.0-12.0-0.70,611dc53f0098557586e89b17,650c16f0f2faf8d7a0d14c09,651c352f8eeb552a8fef050e,null,null,"<p style=""font-size: 60px; font-family: BACS"">lGZvLUOk</p>",,,,,,,,,,
html-keyboard-response,241,325861,0.0-12.0-0.71,611dc53f0098557586e89b17,650c16f0f2faf8d7a0d14c09,651c352f8eeb552a8fef050e,null,null,"<p style=""font-size: 60px; font-family: BACS"">hlkTRCdc</p>",,,,,,,,,,
html-keyboard-response,242,326863,0.0-12.0-0.72,611dc53f0098557586e89b17,650c16f0f2faf8d7a0d14c09,651c352f8eeb552a8fef050e,null,null,"<p style=""font-size: 60px; font-family: BACS"">JrGvkGua</p>",,,,,,,,,,
html-keyboard-response,243,327879,0.0-12.0-0.73,611dc53f0098557586e89b17,650c16f0f2faf8d7a0d14c09,651c352f8eeb552a8fef050e,null,null,"<p style=""font-size: 60px; font-family: BACS"">MDKPmKcD</p>",,,,,,,,,,
html-keyboard-response,244,328880,0.0-12.0-0.74,611dc53f0098557586e89b17,650c16f0f2faf8d7a0d14c09,651c352f8eeb552a8fef050e,null,null,"<p style=""font-size: 60px; font-family: BACS"">tKDmhbAMO</p>",,,,,,,,,,
html-keyboard-response,245,329895,0.0-12.0-0.75,611dc53f0098557586e89b17,650c16f0f2faf8d7a0d14c09,651c352f8eeb552a8fef050e,null,null,"<p style=""font-size: 60px; font-family: BACS"">bYuQrNlZ</p>",,,,,,,,,,
html-keyboard-response,246,330912,0.0-12.0-0.76,611dc53f0098557586e89b17,650c16f0f2faf8d7a0d14c09,651c352f8eeb552a8fef050e,null,null,"<p style=""font-size: 60px; font-family: BACS"">rdLJaYUYa</p>",,,,,,,,,,
html-keyboard-response,247,331929,0.0-12.0-0.77,611dc53f0098557586e89b17,650c16f0f2faf8d7a0d14c09,651c352f8eeb552a8fef050e,null,null,"<p style=""font-size: 60px; font-family: BACS"">MDKPbAMO</p>",,,,,,,,,,
html-keyboard-response,248,332944,0.0-12.0-0.78,611dc53f0098557586e89b17,650c16f0f2faf8d7a0d14c09,651c352f8eeb552a8fef050e,null,null,"<p style=""font-size: 60px; font-family: BACS"">AbKDATc</p>",,,,,,,,,,
html-keyboard-response,249,333946,0.0-12.0-0.79,611dc53f0098557586e89b17,650c16f0f2faf8d7a0d14c09,651c352f8eeb552a8fef050e,null,null,"<p style=""font-size: 60px; font-family: BACS"">kdaAJYUYa</p>",,,,,,,,,,
html-keyboard-response,250,349253,0.0-13.0,611dc53f0098557586e89b17,650c16f0f2faf8d7a0d14c09,651c352f8eeb552a8fef050e,15307, ,"<p>Great, you've seen the third block of words. You may now take a short break.</p>
      <p>Press the spacebar when you're ready to continue.</p>",,,,,,,,,,
html-keyboard-response,251,350260,0.0-14.0-0.0,611dc53f0098557586e89b17,650c16f0f2faf8d7a0d14c09,651c352f8eeb552a8fef050e,null,null,"<p style=""font-size: 60px; font-family: BACS"">AMkCkhMD</p>",,,,,,,,,,
html-keyboard-response,252,351276,0.0-14.0-0.1,611dc53f0098557586e89b17,650c16f0f2faf8d7a0d14c09,651c352f8eeb552a8fef050e,null,null,"<p style=""font-size: 60px; font-family: BACS"">JNkaYUYa</p>",,,,,,,,,,
html-keyboard-response,253,352293,0.0-14.0-0.2,611dc53f0098557586e89b17,650c16f0f2faf8d7a0d14c09,651c352f8eeb552a8fef050e,null,null,"<p style=""font-size: 60px; font-family: BACS"">AMkCmKcD</p>",,,,,,,,,,
html-keyboard-response,254,353310,0.0-14.0-0.3,611dc53f0098557586e89b17,650c16f0f2faf8d7a0d14c09,651c352f8eeb552a8fef050e,null,null,"<p style=""font-size: 60px; font-family: BACS"">rdLJakGua</p>",,,,,,,,,,
html-keyboard-response,255,354327,0.0-14.0-0.4,611dc53f0098557586e89b17,650c16f0f2faf8d7a0d14c09,651c352f8eeb552a8fef050e,null,null,"<p style=""font-size: 60px; font-family: BACS"">tKDmhkhMD</p>",,,,,,,,,,
html-keyboard-response,256,355344,0.0-14.0-0.5,611dc53f0098557586e89b17,650c16f0f2faf8d7a0d14c09,651c352f8eeb552a8fef050e,null,null,"<p style=""font-size: 60px; font-family: BACS"">rLkmLUOk</p>",,,,,,,,,,
html-keyboard-response,257,356360,0.0-14.0-0.6,611dc53f0098557586e89b17,650c16f0f2faf8d7a0d14c09,651c352f8eeb552a8fef050e,null,null,"<p style=""font-size: 60px; font-family: BACS"">CYPckhMD</p>",,,,,,,,,,
html-keyboard-response,258,357362,0.0-14.0-0.7,611dc53f0098557586e89b17,650c16f0f2faf8d7a0d14c09,651c352f8eeb552a8fef050e,null,null,"<p style=""font-size: 60px; font-family: BACS"">mdkKmKcD</p>",,,,,,,,,,
html-keyboard-response,259,358376,0.0-14.0-0.8,611dc53f0098557586e89b17,650c16f0f2faf8d7a0d14c09,651c352f8eeb552a8fef050e,null,null,"<p style=""font-size: 60px; font-family: BACS"">rLkmrNlZ</p>",,,,,,,,,,
html-keyboard-response,260,359378,0.0-14.0-0.9,611dc53f0098557586e89b17,650c16f0f2faf8d7a0d14c09,651c352f8eeb552a8fef050e,null,null,"<p style=""font-size: 60px; font-family: BACS"">YlCPBRCdc</p>",,,,,,,,,,
html-keyboard-response,261,360393,0.0-14.0-0.10,611dc53f0098557586e89b17,650c16f0f2faf8d7a0d14c09,651c352f8eeb552a8fef050e,null,null,"<p style=""font-size: 60px; font-family: BACS"">mdkKbAMO</p>",,,,,,,,,,
html-keyboard-response,262,361410,0.0-14.0-0.11,611dc53f0098557586e89b17,650c16f0f2faf8d7a0d14c09,651c352f8eeb552a8fef050e,null,null,"<p style=""font-size: 60px; font-family: BACS"">MDKPkhMD</p>",,,,,,,,,,
html-keyboard-response,263,362426,0.0-14.0-0.12,611dc53f0098557586e89b17,650c16f0f2faf8d7a0d14c09,651c352f8eeb552a8fef050e,null,null,"<p style=""font-size: 60px; font-family: BACS"">EPERdRCdc</p>",,,,,,,,,,
html-keyboard-response,264,363442,0.0-14.0-0.13,611dc53f0098557586e89b17,650c16f0f2faf8d7a0d14c09,651c352f8eeb552a8fef050e,null,null,"<p style=""font-size: 60px; font-family: BACS"">QbkAckGua</p>",,,,,,,,,,
html-keyboard-response,265,364444,0.0-14.0-0.14,611dc53f0098557586e89b17,650c16f0f2faf8d7a0d14c09,651c352f8eeb552a8fef050e,null,null,"<p style=""font-size: 60px; font-family: BACS"">AMkCbAMO</p>",,,,,,,,,,
html-keyboard-response,266,365459,0.0-14.0-0.15,611dc53f0098557586e89b17,650c16f0f2faf8d7a0d14c09,651c352f8eeb552a8fef050e,null,null,"<p style=""font-size: 60px; font-family: BACS"">LuNZrAJu</p>",,,,,,,,,,
html-keyboard-response,267,366463,0.0-14.0-0.16,611dc53f0098557586e89b17,650c16f0f2faf8d7a0d14c09,651c352f8eeb552a8fef050e,null,null,"<p style=""font-size: 60px; font-family: BACS"">EPERdkhMD</p>",,,,,,,,,,
html-keyboard-response,268,367476,0.0-14.0-0.17,611dc53f0098557586e89b17,650c16f0f2faf8d7a0d14c09,651c352f8eeb552a8fef050e,null,null,"<p style=""font-size: 60px; font-family: BACS"">rdLJaYUYa</p>",,,,,,,,,,
html-keyboard-response,269,368477,0.0-14.0-0.18,611dc53f0098557586e89b17,650c16f0f2faf8d7a0d14c09,651c352f8eeb552a8fef050e,null,null,"<p style=""font-size: 60px; font-family: BACS"">aNYmbrNlZ</p>",,,,,,,,,,
html-keyboard-response,270,369492,0.0-14.0-0.19,611dc53f0098557586e89b17,650c16f0f2faf8d7a0d14c09,651c352f8eeb552a8fef050e,null,null,"<p style=""font-size: 60px; font-family: BACS"">MDKPmKcD</p>",,,,,,,,,,
html-keyboard-response,271,370495,0.0-14.0-0.20,611dc53f0098557586e89b17,650c16f0f2faf8d7a0d14c09,651c352f8eeb552a8fef050e,null,null,"<p style=""font-size: 60px; font-family: BACS"">AbKDkhMD</p>",,,,,,,,,,
html-keyboard-response,272,371508,0.0-14.0-0.21,611dc53f0098557586e89b17,650c16f0f2faf8d7a0d14c09,651c352f8eeb552a8fef050e,null,null,"<p style=""font-size: 60px; font-family: BACS"">kdaAJrNlZ</p>",,,,,,,,,,
html-keyboard-response,273,372525,0.0-14.0-0.22,611dc53f0098557586e89b17,650c16f0f2faf8d7a0d14c09,651c352f8eeb552a8fef050e,null,null,"<p style=""font-size: 60px; font-family: BACS"">YlCPBATc</p>",,,,,,,,,,
html-keyboard-response,274,373527,0.0-14.0-0.23,611dc53f0098557586e89b17,650c16f0f2faf8d7a0d14c09,651c352f8eeb552a8fef050e,null,null,"<p style=""font-size: 60px; font-family: BACS"">QbkAcrAJu</p>",,,,,,,,,,
html-keyboard-response,275,374542,0.0-14.0-0.24,611dc53f0098557586e89b17,650c16f0f2faf8d7a0d14c09,651c352f8eeb552a8fef050e,null,null,"<p style=""font-size: 60px; font-family: BACS"">CYPcATc</p>",,,,,,,,,,
html-keyboard-response,276,375559,0.0-14.0-0.25,611dc53f0098557586e89b17,650c16f0f2faf8d7a0d14c09,651c352f8eeb552a8fef050e,null,null,"<p style=""font-size: 60px; font-family: BACS"">LuNZkGua</p>",,,,,,,,,,
html-keyboard-response,277,376560,0.0-14.0-0.26,611dc53f0098557586e89b17,650c16f0f2faf8d7a0d14c09,651c352f8eeb552a8fef050e,null,null,"<p style=""font-size: 60px; font-family: BACS"">hlkTATc</p>",,,,,,,,,,
html-keyboard-response,278,377575,0.0-14.0-0.27,611dc53f0098557586e89b17,650c16f0f2faf8d7a0d14c09,651c352f8eeb552a8fef050e,null,null,"<p style=""font-size: 60px; font-family: BACS"">tKDmhbAMO</p>",,,,,,,,,,
html-keyboard-response,279,378593,0.0-14.0-0.28,611dc53f0098557586e89b17,650c16f0f2faf8d7a0d14c09,651c352f8eeb552a8fef050e,null,null,"<p style=""font-size: 60px; font-family: BACS"">AbKDRCdc</p>",,,,,,,,,,
html-keyboard-response,280,379608,0.0-14.0-0.29,611dc53f0098557586e89b17,650c16f0f2faf8d7a0d14c09,651c352f8eeb552a8fef050e,null,null,"<p style=""font-size: 60px; font-family: BACS"">KAERMbAMO</p>",,,,,,,,,,
html-keyboard-response,281,380611,0.0-14.0-0.30,611dc53f0098557586e89b17,650c16f0f2faf8d7a0d14c09,651c352f8eeb552a8fef050e,null,null,"<p style=""font-size: 60px; font-family: BACS"">JrGvkGua</p>",,,,,,,,,,
html-keyboard-response,282,381626,0.0-14.0-0.31,611dc53f0098557586e89b17,650c16f0f2faf8d7a0d14c09,651c352f8eeb552a8fef050e,null,null,"<p style=""font-size: 60px; font-family: BACS"">rdLJarNlZ</p>",,,,,,,,,,
html-keyboard-response,283,382642,0.0-14.0-0.32,611dc53f0098557586e89b17,650c16f0f2faf8d7a0d14c09,651c352f8eeb552a8fef050e,null,null,"<p style=""font-size: 60px; font-family: BACS"">KAERMkhMD</p>",,,,,,,,,,
html-keyboard-response,284,383657,0.0-14.0-0.33,611dc53f0098557586e89b17,650c16f0f2faf8d7a0d14c09,651c352f8eeb552a8fef050e,null,null,"<p style=""font-size: 60px; font-family: BACS"">JrGvrNlZ</p>",,,,,,,,,,
html-keyboard-response,285,384676,0.0-14.0-0.34,611dc53f0098557586e89b17,650c16f0f2faf8d7a0d14c09,651c352f8eeb552a8fef050e,null,null,"<p style=""font-size: 60px; font-family: BACS"">EPERdmKcD</p>",,,,,,,,,,
html-keyboard-response,286,385693,0.0-14.0-0.35,611dc53f0098557586e89b17,650c16f0f2faf8d7a0d14c09,651c352f8eeb552a8fef050e,null,null,"<p style=""font-size: 60px; font-family: BACS"">MDKPbAMO</p>",,,,,,,,,,
html-keyboard-response,287,386709,0.0-14.0-0.36,611dc53f0098557586e89b17,650c16f0f2faf8d7a0d14c09,651c352f8eeb552a8fef050e,null,null,"<p style=""font-size: 60px; font-family: BACS"">mdkKATc</p>",,,,,,,,,,
html-keyboard-response,288,387726,0.0-14.0-0.37,611dc53f0098557586e89b17,650c16f0f2faf8d7a0d14c09,651c352f8eeb552a8fef050e,null,null,"<p style=""font-size: 60px; font-family: BACS"">CYPcbAMO</p>",,,,,,,,,,
html-keyboard-response,289,388742,0.0-14.0-0.38,611dc53f0098557586e89b17,650c16f0f2faf8d7a0d14c09,651c352f8eeb552a8fef050e,null,null,"<p style=""font-size: 60px; font-family: BACS"">aNYmbLUOk</p>",,,,,,,,,,
html-keyboard-response,290,389758,0.0-14.0-0.39,611dc53f0098557586e89b17,650c16f0f2faf8d7a0d14c09,651c352f8eeb552a8fef050e,null,null,"<p style=""font-size: 60px; font-family: BACS"">rLkmYUYa</p>",,,,,,,,,,
html-keyboard-response,291,390775,0.0-14.0-0.40,611dc53f0098557586e89b17,650c16f0f2faf8d7a0d14c09,651c352f8eeb552a8fef050e,null,null,"<p style=""font-size: 60px; font-family: BACS"">QbkAcLUOk</p>",,,,,,,,,,
html-keyboard-response,292,391791,0.0-14.0-0.41,611dc53f0098557586e89b17,650c16f0f2faf8d7a0d14c09,651c352f8eeb552a8fef050e,null,null,"<p style=""font-size: 60px; font-family: BACS"">JrGvYUYa</p>",,,,,,,,,,
html-keyboard-response,293,392794,0.0-14.0-0.42,611dc53f0098557586e89b17,650c16f0f2faf8d7a0d14c09,651c352f8eeb552a8fef050e,null,null,"<p style=""font-size: 60px; font-family: BACS"">hlkTRCdc</p>",,,,,,,,,,
html-keyboard-response,294,393809,0.0-14.0-0.43,611dc53f0098557586e89b17,650c16f0f2faf8d7a0d14c09,651c352f8eeb552a8fef050e,null,null,"<p style=""font-size: 60px; font-family: BACS"">lGZvrAJu</p>",,,,,,,,,,
html-keyboard-response,295,394826,0.0-14.0-0.44,611dc53f0098557586e89b17,650c16f0f2faf8d7a0d14c09,651c352f8eeb552a8fef050e,null,null,"<p style=""font-size: 60px; font-family: BACS"">hlkTmKcD</p>",,,,,,,,,,
html-keyboard-response,296,395841,0.0-14.0-0.45,611dc53f0098557586e89b17,650c16f0f2faf8d7a0d14c09,651c352f8eeb552a8fef050e,null,null,"<p style=""font-size: 60px; font-family: BACS"">EPERdbAMO</p>",,,,,,,,,,
html-keyboard-response,297,396857,0.0-14.0-0.46,611dc53f0098557586e89b17,650c16f0f2faf8d7a0d14c09,651c352f8eeb552a8fef050e,null,null,"<p style=""font-size: 60px; font-family: BACS"">kdaAJkGua</p>",,,,,,,,,,
html-keyboard-response,298,397874,0.0-14.0-0.47,611dc53f0098557586e89b17,650c16f0f2faf8d7a0d14c09,651c352f8eeb552a8fef050e,null,null,"<p style=""font-size: 60px; font-family: BACS"">tKDmhATc</p>",,,,,,,,,,
html-keyboard-response,299,398891,0.0-14.0-0.48,611dc53f0098557586e89b17,650c16f0f2faf8d7a0d14c09,651c352f8eeb552a8fef050e,null,null,"<p style=""font-size: 60px; font-family: BACS"">rdLJaLUOk</p>",,,,,,,,,,
html-keyboard-response,300,399908,0.0-14.0-0.49,611dc53f0098557586e89b17,650c16f0f2faf8d7a0d14c09,651c352f8eeb552a8fef050e,null,null,"<p style=""font-size: 60px; font-family: BACS"">bYuQrNlZ</p>",,,,,,,,,,
html-keyboard-response,301,400931,0.0-14.0-0.50,611dc53f0098557586e89b17,650c16f0f2faf8d7a0d14c09,651c352f8eeb552a8fef050e,null,null,"<p style=""font-size: 60px; font-family: BACS"">YlCPBkhMD</p>",,,,,,,,,,
html-keyboard-response,302,401941,0.0-14.0-0.51,611dc53f0098557586e89b17,650c16f0f2faf8d7a0d14c09,651c352f8eeb552a8fef050e,null,null,"<p style=""font-size: 60px; font-family: BACS"">MDKPATc</p>",,,,,,,,,,
html-keyboard-response,303,402957,0.0-14.0-0.52,611dc53f0098557586e89b17,650c16f0f2faf8d7a0d14c09,651c352f8eeb552a8fef050e,null,null,"<p style=""font-size: 60px; font-family: BACS"">bYuQrAJu</p>",,,,,,,,,,
html-keyboard-response,304,403959,0.0-14.0-0.53,611dc53f0098557586e89b17,650c16f0f2faf8d7a0d14c09,651c352f8eeb552a8fef050e,null,null,"<p style=""font-size: 60px; font-family: BACS"">JNkarNlZ</p>",,,,,,,,,,
html-keyboard-response,305,404975,0.0-14.0-0.54,611dc53f0098557586e89b17,650c16f0f2faf8d7a0d14c09,651c352f8eeb552a8fef050e,null,null,"<p style=""font-size: 60px; font-family: BACS"">bYuQkGua</p>",,,,,,,,,,
html-keyboard-response,306,405990,0.0-14.0-0.55,611dc53f0098557586e89b17,650c16f0f2faf8d7a0d14c09,651c352f8eeb552a8fef050e,null,null,"<p style=""font-size: 60px; font-family: BACS"">YlCPBmKcD</p>",,,,,,,,,,
html-keyboard-response,307,407007,0.0-14.0-0.56,611dc53f0098557586e89b17,650c16f0f2faf8d7a0d14c09,651c352f8eeb552a8fef050e,null,null,"<p style=""font-size: 60px; font-family: BACS"">bYuQYUYa</p>",,,,,,,,,,
html-keyboard-response,308,408010,0.0-14.0-0.57,611dc53f0098557586e89b17,650c16f0f2faf8d7a0d14c09,651c352f8eeb552a8fef050e,null,null,"<p style=""font-size: 60px; font-family: BACS"">mdkKRCdc</p>",,,,,,,,,,
html-keyboard-response,309,409024,0.0-14.0-0.58,611dc53f0098557586e89b17,650c16f0f2faf8d7a0d14c09,651c352f8eeb552a8fef050e,null,null,"<p style=""font-size: 60px; font-family: BACS"">lGZvYUYa</p>",,,,,,,,,,
html-keyboard-response,310,410042,0.0-14.0-0.59,611dc53f0098557586e89b17,650c16f0f2faf8d7a0d14c09,651c352f8eeb552a8fef050e,null,null,"<p style=""font-size: 60px; font-family: BACS"">aNYmbkGua</p>",,,,,,,,,,
html-keyboard-response,311,411058,0.0-14.0-0.60,611dc53f0098557586e89b17,650c16f0f2faf8d7a0d14c09,651c352f8eeb552a8fef050e,null,null,"<p style=""font-size: 60px; font-family: BACS"">rLkmrAJu</p>",,,,,,,,,,
html-keyboard-response,312,412075,0.0-14.0-0.61,611dc53f0098557586e89b17,650c16f0f2faf8d7a0d14c09,651c352f8eeb552a8fef050e,null,null,"<p style=""font-size: 60px; font-family: BACS"">KAERMATc</p>",,,,,,,,,,
html-keyboard-response,313,413091,0.0-14.0-0.62,611dc53f0098557586e89b17,650c16f0f2faf8d7a0d14c09,651c352f8eeb552a8fef050e,null,null,"<p style=""font-size: 60px; font-family: BACS"">QbkAcrNlZ</p>",,,,,,,,,,
html-keyboard-response,314,414108,0.0-14.0-0.63,611dc53f0098557586e89b17,650c16f0f2faf8d7a0d14c09,651c352f8eeb552a8fef050e,null,null,"<p style=""font-size: 60px; font-family: BACS"">aNYmbrAJu</p>",,,,,,,,,,
html-keyboard-response,315,415125,0.0-14.0-0.64,611dc53f0098557586e89b17,650c16f0f2faf8d7a0d14c09,651c352f8eeb552a8fef050e,null,null,"<p style=""font-size: 60px; font-family: BACS"">AbKDATc</p>",,,,,,,,,,
html-keyboard-response,316,416141,0.0-14.0-0.65,611dc53f0098557586e89b17,650c16f0f2faf8d7a0d14c09,651c352f8eeb552a8fef050e,null,null,"<p style=""font-size: 60px; font-family: BACS"">LuNZLUOk</p>",,,,,,,,,,
html-keyboard-response,317,417158,0.0-14.0-0.66,611dc53f0098557586e89b17,650c16f0f2faf8d7a0d14c09,651c352f8eeb552a8fef050e,null,null,"<p style=""font-size: 60px; font-family: BACS"">CYPcRCdc</p>",,,,,,,,,,
html-keyboard-response,318,418175,0.0-14.0-0.67,611dc53f0098557586e89b17,650c16f0f2faf8d7a0d14c09,651c352f8eeb552a8fef050e,null,null,"<p style=""font-size: 60px; font-family: BACS"">lGZvLUOk</p>",,,,,,,,,,
html-keyboard-response,319,419191,0.0-14.0-0.68,611dc53f0098557586e89b17,650c16f0f2faf8d7a0d14c09,651c352f8eeb552a8fef050e,null,null,"<p style=""font-size: 60px; font-family: BACS"">JrGvrAJu</p>",,,,,,,,,,
html-keyboard-response,320,420193,0.0-14.0-0.69,611dc53f0098557586e89b17,650c16f0f2faf8d7a0d14c09,651c352f8eeb552a8fef050e,null,null,"<p style=""font-size: 60px; font-family: BACS"">AMkCRCdc</p>",,,,,,,,,,
html-keyboard-response,321,421209,0.0-14.0-0.70,611dc53f0098557586e89b17,650c16f0f2faf8d7a0d14c09,651c352f8eeb552a8fef050e,null,null,"<p style=""font-size: 60px; font-family: BACS"">hlkTbAMO</p>",,,,,,,,,,
html-keyboard-response,322,422225,0.0-14.0-0.71,611dc53f0098557586e89b17,650c16f0f2faf8d7a0d14c09,651c352f8eeb552a8fef050e,null,null,"<p style=""font-size: 60px; font-family: BACS"">KAERMmKcD</p>",,,,,,,,,,
html-keyboard-response,323,423240,0.0-14.0-0.72,611dc53f0098557586e89b17,650c16f0f2faf8d7a0d14c09,651c352f8eeb552a8fef050e,null,null,"<p style=""font-size: 60px; font-family: BACS"">JNkaLUOk</p>",,,,,,,,,,
html-keyboard-response,324,424258,0.0-14.0-0.73,611dc53f0098557586e89b17,650c16f0f2faf8d7a0d14c09,651c352f8eeb552a8fef050e,null,null,"<p style=""font-size: 60px; font-family: BACS"">kdaAJYUYa</p>",,,,,,,,,,
html-keyboard-response,325,425274,0.0-14.0-0.74,611dc53f0098557586e89b17,650c16f0f2faf8d7a0d14c09,651c352f8eeb552a8fef050e,null,null,"<p style=""font-size: 60px; font-family: BACS"">tKDmhRCdc</p>",,,,,,,,,,
html-keyboard-response,326,426291,0.0-14.0-0.75,611dc53f0098557586e89b17,650c16f0f2faf8d7a0d14c09,651c352f8eeb552a8fef050e,null,null,"<p style=""font-size: 60px; font-family: BACS"">kdaAJLUOk</p>",,,,,,,,,,
html-keyboard-response,327,427293,0.0-14.0-0.76,611dc53f0098557586e89b17,650c16f0f2faf8d7a0d14c09,651c352f8eeb552a8fef050e,null,null,"<p style=""font-size: 60px; font-family: BACS"">AbKDmKcD</p>",,,,,,,,,,
html-keyboard-response,328,428307,0.0-14.0-0.77,611dc53f0098557586e89b17,650c16f0f2faf8d7a0d14c09,651c352f8eeb552a8fef050e,null,null,"<p style=""font-size: 60px; font-family: BACS"">JNkarAJu</p>",,,,,,,,,,
html-keyboard-response,329,429309,0.0-14.0-0.78,611dc53f0098557586e89b17,650c16f0f2faf8d7a0d14c09,651c352f8eeb552a8fef050e,null,null,"<p style=""font-size: 60px; font-family: BACS"">LuNZYUYa</p>",,,,,,,,,,
html-keyboard-response,330,430323,0.0-14.0-0.79,611dc53f0098557586e89b17,650c16f0f2faf8d7a0d14c09,651c352f8eeb552a8fef050e,null,null,"<p style=""font-size: 60px; font-family: BACS"">lGZvkGua</p>",,,,,,,,,,
html-keyboard-response,331,433684,0.0-15.0,611dc53f0098557586e89b17,650c16f0f2faf8d7a0d14c09,651c352f8eeb552a8fef050e,3359, ,"<p>Great, you've seen the fourth block of words. You may now take a short break.</p>
      <p>Press the spacebar when you're ready to continue.</p>",,,,,,,,,,
html-keyboard-response,332,434690,0.0-16.0-0.0,611dc53f0098557586e89b17,650c16f0f2faf8d7a0d14c09,651c352f8eeb552a8fef050e,null,null,"<p style=""font-size: 60px; font-family: BACS"">CYPcATc</p>",,,,,,,,,,
html-keyboard-response,333,435707,0.0-16.0-0.1,611dc53f0098557586e89b17,650c16f0f2faf8d7a0d14c09,651c352f8eeb552a8fef050e,null,null,"<p style=""font-size: 60px; font-family: BACS"">CYPcATc</p>",,,,,,,,,,
html-keyboard-response,334,436724,0.0-16.0-0.2,611dc53f0098557586e89b17,650c16f0f2faf8d7a0d14c09,651c352f8eeb552a8fef050e,null,null,"<p style=""font-size: 60px; font-family: BACS"">CYPcATc</p>",,,,,,,,,,
html-keyboard-response,335,437740,0.0-16.0-0.3,611dc53f0098557586e89b17,650c16f0f2faf8d7a0d14c09,651c352f8eeb552a8fef050e,null,null,"<p style=""font-size: 60px; font-family: BACS"">CYPcATc</p>",,,,,,,,,,
html-keyboard-response,336,438741,0.0-16.0-0.4,611dc53f0098557586e89b17,650c16f0f2faf8d7a0d14c09,651c352f8eeb552a8fef050e,null,null,"<p style=""font-size: 60px; font-family: BACS"">CYPcATc</p>",,,,,,,,,,
html-keyboard-response,337,439757,0.0-16.0-0.5,611dc53f0098557586e89b17,650c16f0f2faf8d7a0d14c09,651c352f8eeb552a8fef050e,null,null,"<p style=""font-size: 60px; font-family: BACS"">CYPcATc</p>",,,,,,,,,,
html-keyboard-response,338,440773,0.0-16.0-0.6,611dc53f0098557586e89b17,650c16f0f2faf8d7a0d14c09,651c352f8eeb552a8fef050e,null,null,"<p style=""font-size: 60px; font-family: BACS"">CYPcATc</p>",,,,,,,,,,
html-keyboard-response,339,441776,0.0-16.0-0.7,611dc53f0098557586e89b17,650c16f0f2faf8d7a0d14c09,651c352f8eeb552a8fef050e,null,null,"<p style=""font-size: 60px; font-family: BACS"">CYPcATc</p>",,,,,,,,,,
html-keyboard-response,340,442789,0.0-16.0-0.8,611dc53f0098557586e89b17,650c16f0f2faf8d7a0d14c09,651c352f8eeb552a8fef050e,null,null,"<p style=""font-size: 60px; font-family: BACS"">CYPcATc</p>",,,,,,,,,,
html-keyboard-response,341,443805,0.0-16.0-0.9,611dc53f0098557586e89b17,650c16f0f2faf8d7a0d14c09,651c352f8eeb552a8fef050e,null,null,"<p style=""font-size: 60px; font-family: BACS"">CYPcATc</p>",,,,,,,,,,
html-keyboard-response,342,444808,0.0-16.0-0.10,611dc53f0098557586e89b17,650c16f0f2faf8d7a0d14c09,651c352f8eeb552a8fef050e,null,null,"<p style=""font-size: 60px; font-family: BACS"">CYPcATc</p>",,,,,,,,,,
html-keyboard-response,343,445825,0.0-16.0-0.11,611dc53f0098557586e89b17,650c16f0f2faf8d7a0d14c09,651c352f8eeb552a8fef050e,null,null,"<p style=""font-size: 60px; font-family: BACS"">CYPcATc</p>",,,,,,,,,,
html-keyboard-response,344,446839,0.0-16.0-0.12,611dc53f0098557586e89b17,650c16f0f2faf8d7a0d14c09,651c352f8eeb552a8fef050e,null,null,"<p style=""font-size: 60px; font-family: BACS"">CYPcATc</p>",,,,,,,,,,
html-keyboard-response,345,447858,0.0-16.0-0.13,611dc53f0098557586e89b17,650c16f0f2faf8d7a0d14c09,651c352f8eeb552a8fef050e,null,null,"<p style=""font-size: 60px; font-family: BACS"">CYPcATc</p>",,,,,,,,,,
html-keyboard-response,346,448874,0.0-16.0-0.14,611dc53f0098557586e89b17,650c16f0f2faf8d7a0d14c09,651c352f8eeb552a8fef050e,null,null,"<p style=""font-size: 60px; font-family: BACS"">CYPcATc</p>",,,,,,,,,,
html-keyboard-response,347,449890,0.0-16.0-0.15,611dc53f0098557586e89b17,650c16f0f2faf8d7a0d14c09,651c352f8eeb552a8fef050e,null,null,"<p style=""font-size: 60px; font-family: BACS"">CYPcATc</p>",,,,,,,,,,
html-keyboard-response,348,450906,0.0-16.0-0.16,611dc53f0098557586e89b17,650c16f0f2faf8d7a0d14c09,651c352f8eeb552a8fef050e,null,null,"<p style=""font-size: 60px; font-family: BACS"">CYPcATc</p>",,,,,,,,,,
html-keyboard-response,349,451923,0.0-16.0-0.17,611dc53f0098557586e89b17,650c16f0f2faf8d7a0d14c09,651c352f8eeb552a8fef050e,null,null,"<p style=""font-size: 60px; font-family: BACS"">CYPcATc</p>",,,,,,,,,,
html-keyboard-response,350,452925,0.0-16.0-0.18,611dc53f0098557586e89b17,650c16f0f2faf8d7a0d14c09,651c352f8eeb552a8fef050e,null,null,"<p style=""font-size: 60px; font-family: BACS"">CYPcATc</p>",,,,,,,,,,
html-keyboard-response,351,453939,0.0-16.0-0.19,611dc53f0098557586e89b17,650c16f0f2faf8d7a0d14c09,651c352f8eeb552a8fef050e,null,null,"<p style=""font-size: 60px; font-family: BACS"">CYPcATc</p>",,,,,,,,,,
html-keyboard-response,352,454956,0.0-16.0-0.20,611dc53f0098557586e89b17,650c16f0f2faf8d7a0d14c09,651c352f8eeb552a8fef050e,null,null,"<p style=""font-size: 60px; font-family: BACS"">CYPcATc</p>",,,,,,,,,,
html-keyboard-response,353,455972,0.0-16.0-0.21,611dc53f0098557586e89b17,650c16f0f2faf8d7a0d14c09,651c352f8eeb552a8fef050e,null,null,"<p style=""font-size: 60px; font-family: BACS"">CYPcATc</p>",,,,,,,,,,
html-keyboard-response,354,456990,0.0-16.0-0.22,611dc53f0098557586e89b17,650c16f0f2faf8d7a0d14c09,651c352f8eeb552a8fef050e,null,null,"<p style=""font-size: 60px; font-family: BACS"">CYPcATc</p>",,,,,,,,,,
html-keyboard-response,355,458006,0.0-16.0-0.23,611dc53f0098557586e89b17,650c16f0f2faf8d7a0d14c09,651c352f8eeb552a8fef050e,null,null,"<p style=""font-size: 60px; font-family: BACS"">CYPcATc</p>",,,,,,,,,,
html-keyboard-response,356,459008,0.0-16.0-0.24,611dc53f0098557586e89b17,650c16f0f2faf8d7a0d14c09,651c352f8eeb552a8fef050e,null,null,"<p style=""font-size: 60px; font-family: BACS"">CYPcATc</p>",,,,,,,,,,
html-keyboard-response,357,460023,0.0-16.0-0.25,611dc53f0098557586e89b17,650c16f0f2faf8d7a0d14c09,651c352f8eeb552a8fef050e,null,null,"<p style=""font-size: 60px; font-family: BACS"">CYPcATc</p>",,,,,,,,,,
html-keyboard-response,358,461039,0.0-16.0-0.26,611dc53f0098557586e89b17,650c16f0f2faf8d7a0d14c09,651c352f8eeb552a8fef050e,null,null,"<p style=""font-size: 60px; font-family: BACS"">CYPcATc</p>",,,,,,,,,,
html-keyboard-response,359,462056,0.0-16.0-0.27,611dc53f0098557586e89b17,650c16f0f2faf8d7a0d14c09,651c352f8eeb552a8fef050e,null,null,"<p style=""font-size: 60px; font-family: BACS"">CYPcATc</p>",,,,,,,,,,
html-keyboard-response,360,463072,0.0-16.0-0.28,611dc53f0098557586e89b17,650c16f0f2faf8d7a0d14c09,651c352f8eeb552a8fef050e,null,null,"<p style=""font-size: 60px; font-family: BACS"">CYPcATc</p>",,,,,,,,,,
html-keyboard-response,361,464073,0.0-16.0-0.29,611dc53f0098557586e89b17,650c16f0f2faf8d7a0d14c09,651c352f8eeb552a8fef050e,null,null,"<p style=""font-size: 60px; font-family: BACS"">CYPcATc</p>",,,,,,,,,,
html-keyboard-response,362,465090,0.0-16.0-0.30,611dc53f0098557586e89b17,650c16f0f2faf8d7a0d14c09,651c352f8eeb552a8fef050e,null,null,"<p style=""font-size: 60px; font-family: BACS"">CYPcATc</p>",,,,,,,,,,
html-keyboard-response,363,466106,0.0-16.0-0.31,611dc53f0098557586e89b17,650c16f0f2faf8d7a0d14c09,651c352f8eeb552a8fef050e,null,null,"<p style=""font-size: 60px; font-family: BACS"">CYPcATc</p>",,,,,,,,,,
html-keyboard-response,364,467123,0.0-16.0-0.32,611dc53f0098557586e89b17,650c16f0f2faf8d7a0d14c09,651c352f8eeb552a8fef050e,null,null,"<p style=""font-size: 60px; font-family: BACS"">CYPcATc</p>",,,,,,,,,,
html-keyboard-response,365,468139,0.0-16.0-0.33,611dc53f0098557586e89b17,650c16f0f2faf8d7a0d14c09,651c352f8eeb552a8fef050e,null,null,"<p style=""font-size: 60px; font-family: BACS"">CYPcATc</p>",,,,,,,,,,
html-keyboard-response,366,469151,0.0-16.0-0.34,611dc53f0098557586e89b17,650c16f0f2faf8d7a0d14c09,651c352f8eeb552a8fef050e,null,null,"<p style=""font-size: 60px; font-family: BACS"">CYPcATc</p>",,,,,,,,,,
html-keyboard-response,367,470155,0.0-16.0-0.35,611dc53f0098557586e89b17,650c16f0f2faf8d7a0d14c09,651c352f8eeb552a8fef050e,null,null,"<p style=""font-size: 60px; font-family: BACS"">CYPcATc</p>",,,,,,,,,,
html-keyboard-response,368,471172,0.0-16.0-0.36,611dc53f0098557586e89b17,650c16f0f2faf8d7a0d14c09,651c352f8eeb552a8fef050e,null,null,"<p style=""font-size: 60px; font-family: BACS"">CYPcATc</p>",,,,,,,,,,
html-keyboard-response,369,472175,0.0-16.0-0.37,611dc53f0098557586e89b17,650c16f0f2faf8d7a0d14c09,651c352f8eeb552a8fef050e,null,null,"<p style=""font-size: 60px; font-family: BACS"">CYPcATc</p>",,,,,,,,,,
html-keyboard-response,370,473188,0.0-16.0-0.38,611dc53f0098557586e89b17,650c16f0f2faf8d7a0d14c09,651c352f8eeb552a8fef050e,null,null,"<p style=""font-size: 60px; font-family: BACS"">CYPcATc</p>",,,,,,,,,,
html-keyboard-response,371,474206,0.0-16.0-0.39,611dc53f0098557586e89b17,650c16f0f2faf8d7a0d14c09,651c352f8eeb552a8fef050e,null,null,"<p style=""font-size: 60px; font-family: BACS"">CYPcATc</p>",,,,,,,,,,
html-keyboard-response,372,475222,0.0-16.0-0.40,611dc53f0098557586e89b17,650c16f0f2faf8d7a0d14c09,651c352f8eeb552a8fef050e,null,null,"<p style=""font-size: 60px; font-family: BACS"">CYPcATc</p>",,,,,,,,,,
html-keyboard-response,373,476238,0.0-16.0-0.41,611dc53f0098557586e89b17,650c16f0f2faf8d7a0d14c09,651c352f8eeb552a8fef050e,null,null,"<p style=""font-size: 60px; font-family: BACS"">CYPcATc</p>",,,,,,,,,,
html-keyboard-response,374,477254,0.0-16.0-0.42,611dc53f0098557586e89b17,650c16f0f2faf8d7a0d14c09,651c352f8eeb552a8fef050e,null,null,"<p style=""font-size: 60px; font-family: BACS"">CYPcATc</p>",,,,,,,,,,
html-keyboard-response,375,478259,0.0-16.0-0.43,611dc53f0098557586e89b17,650c16f0f2faf8d7a0d14c09,651c352f8eeb552a8fef050e,null,null,"<p style=""font-size: 60px; font-family: BACS"">CYPcATc</p>",,,,,,,,,,
html-keyboard-response,376,479272,0.0-16.0-0.44,611dc53f0098557586e89b17,650c16f0f2faf8d7a0d14c09,651c352f8eeb552a8fef050e,null,null,"<p style=""font-size: 60px; font-family: BACS"">CYPcATc</p>",,,,,,,,,,
html-keyboard-response,377,480288,0.0-16.0-0.45,611dc53f0098557586e89b17,650c16f0f2faf8d7a0d14c09,651c352f8eeb552a8fef050e,null,null,"<p style=""font-size: 60px; font-family: BACS"">CYPcATc</p>",,,,,,,,,,
html-keyboard-response,378,481305,0.0-16.0-0.46,611dc53f0098557586e89b17,650c16f0f2faf8d7a0d14c09,651c352f8eeb552a8fef050e,null,null,"<p style=""font-size: 60px; font-family: BACS"">CYPcATc</p>",,,,,,,,,,
html-keyboard-response,379,482322,0.0-16.0-0.47,611dc53f0098557586e89b17,650c16f0f2faf8d7a0d14c09,651c352f8eeb552a8fef050e,null,null,"<p style=""font-size: 60px; font-family: BACS"">CYPcATc</p>",,,,,,,,,,
html-keyboard-response,380,483338,0.0-16.0-0.48,611dc53f0098557586e89b17,650c16f0f2faf8d7a0d14c09,651c352f8eeb552a8fef050e,null,null,"<p style=""font-size: 60px; font-family: BACS"">CYPcATc</p>",,,,,,,,,,
html-keyboard-response,381,484355,0.0-16.0-0.49,611dc53f0098557586e89b17,650c16f0f2faf8d7a0d14c09,651c352f8eeb552a8fef050e,null,null,"<p style=""font-size: 60px; font-family: BACS"">CYPcATc</p>",,,,,,,,,,
html-keyboard-response,382,485371,0.0-16.0-0.50,611dc53f0098557586e89b17,650c16f0f2faf8d7a0d14c09,651c352f8eeb552a8fef050e,null,null,"<p style=""font-size: 60px; font-family: BACS"">CYPcATc</p>",,,,,,,,,,
html-keyboard-response,383,486373,0.0-16.0-0.51,611dc53f0098557586e89b17,650c16f0f2faf8d7a0d14c09,651c352f8eeb552a8fef050e,null,null,"<p style=""font-size: 60px; font-family: BACS"">CYPcATc</p>",,,,,,,,,,
html-keyboard-response,384,487388,0.0-16.0-0.52,611dc53f0098557586e89b17,650c16f0f2faf8d7a0d14c09,651c352f8eeb552a8fef050e,null,null,"<p style=""font-size: 60px; font-family: BACS"">CYPcATc</p>",,,,,,,,,,
html-keyboard-response,385,488404,0.0-16.0-0.53,611dc53f0098557586e89b17,650c16f0f2faf8d7a0d14c09,651c352f8eeb552a8fef050e,null,null,"<p style=""font-size: 60px; font-family: BACS"">CYPcATc</p>",,,,,,,,,,
html-keyboard-response,386,489422,0.0-16.0-0.54,611dc53f0098557586e89b17,650c16f0f2faf8d7a0d14c09,651c352f8eeb552a8fef050e,null,null,"<p style=""font-size: 60px; font-family: BACS"">CYPcATc</p>",,,,,,,,,,
html-keyboard-response,387,490438,0.0-16.0-0.55,611dc53f0098557586e89b17,650c16f0f2faf8d7a0d14c09,651c352f8eeb552a8fef050e,null,null,"<p style=""font-size: 60px; font-family: BACS"">CYPcATc</p>",,,,,,,,,,
html-keyboard-response,388,491455,0.0-16.0-0.56,611dc53f0098557586e89b17,650c16f0f2faf8d7a0d14c09,651c352f8eeb552a8fef050e,null,null,"<p style=""font-size: 60px; font-family: BACS"">CYPcATc</p>",,,,,,,,,,
html-keyboard-response,389,492471,0.0-16.0-0.57,611dc53f0098557586e89b17,650c16f0f2faf8d7a0d14c09,651c352f8eeb552a8fef050e,null,null,"<p style=""font-size: 60px; font-family: BACS"">CYPcATc</p>",,,,,,,,,,
html-keyboard-response,390,493472,0.0-16.0-0.58,611dc53f0098557586e89b17,650c16f0f2faf8d7a0d14c09,651c352f8eeb552a8fef050e,null,null,"<p style=""font-size: 60px; font-family: BACS"">CYPcATc</p>",,,,,,,,,,
html-keyboard-response,391,494490,0.0-16.0-0.59,611dc53f0098557586e89b17,650c16f0f2faf8d7a0d14c09,651c352f8eeb552a8fef050e,null,null,"<p style=""font-size: 60px; font-family: BACS"">CYPcATc</p>",,,,,,,,,,
html-keyboard-response,392,495504,0.0-16.0-0.60,611dc53f0098557586e89b17,650c16f0f2faf8d7a0d14c09,651c352f8eeb552a8fef050e,null,null,"<p style=""font-size: 60px; font-family: BACS"">CYPcATc</p>",,,,,,,,,,
html-keyboard-response,393,496522,0.0-16.0-0.61,611dc53f0098557586e89b17,650c16f0f2faf8d7a0d14c09,651c352f8eeb552a8fef050e,null,null,"<p style=""font-size: 60px; font-family: BACS"">CYPcATc</p>",,,,,,,,,,
html-keyboard-response,394,497539,0.0-16.0-0.62,611dc53f0098557586e89b17,650c16f0f2faf8d7a0d14c09,651c352f8eeb552a8fef050e,null,null,"<p style=""font-size: 60px; font-family: BACS"">CYPcATc</p>",,,,,,,,,,
html-keyboard-response,395,498555,0.0-16.0-0.63,611dc53f0098557586e89b17,650c16f0f2faf8d7a0d14c09,651c352f8eeb552a8fef050e,null,null,"<p style=""font-size: 60px; font-family: BACS"">CYPcATc</p>",,,,,,,,,,
html-keyboard-response,396,499572,0.0-16.0-0.64,611dc53f0098557586e89b17,650c16f0f2faf8d7a0d14c09,651c352f8eeb552a8fef050e,null,null,"<p style=""font-size: 60px; font-family: BACS"">CYPcATc</p>",,,,,,,,,,
html-keyboard-response,397,500587,0.0-16.0-0.65,611dc53f0098557586e89b17,650c16f0f2faf8d7a0d14c09,651c352f8eeb552a8fef050e,null,null,"<p style=""font-size: 60px; font-family: BACS"">CYPcATc</p>",,,,,,,,,,
html-keyboard-response,398,501590,0.0-16.0-0.66,611dc53f0098557586e89b17,650c16f0f2faf8d7a0d14c09,651c352f8eeb552a8fef050e,null,null,"<p style=""font-size: 60px; font-family: BACS"">CYPcATc</p>",,,,,,,,,,
html-keyboard-response,399,502605,0.0-16.0-0.67,611dc53f0098557586e89b17,650c16f0f2faf8d7a0d14c09,651c352f8eeb552a8fef050e,null,null,"<p style=""font-size: 60px; font-family: BACS"">CYPcATc</p>",,,,,,,,,,
html-keyboard-response,400,503621,0.0-16.0-0.68,611dc53f0098557586e89b17,650c16f0f2faf8d7a0d14c09,651c352f8eeb552a8fef050e,null,null,"<p style=""font-size: 60px; font-family: BACS"">CYPcATc</p>",,,,,,,,,,
html-keyboard-response,401,504637,0.0-16.0-0.69,611dc53f0098557586e89b17,650c16f0f2faf8d7a0d14c09,651c352f8eeb552a8fef050e,null,null,"<p style=""font-size: 60px; font-family: BACS"">CYPcATc</p>",,,,,,,,,,
html-keyboard-response,402,505639,0.0-16.0-0.70,611dc53f0098557586e89b17,650c16f0f2faf8d7a0d14c09,651c352f8eeb552a8fef050e,null,null,"<p style=""font-size: 60px; font-family: BACS"">CYPcATc</p>",,,,,,,,,,
html-keyboard-response,403,506654,0.0-16.0-0.71,611dc53f0098557586e89b17,650c16f0f2faf8d7a0d14c09,651c352f8eeb552a8fef050e,null,null,"<p style=""font-size: 60px; font-family: BACS"">CYPcATc</p>",,,,,,,,,,
html-keyboard-response,404,507672,0.0-16.0-0.72,611dc53f0098557586e89b17,650c16f0f2faf8d7a0d14c09,651c352f8eeb552a8fef050e,null,null,"<p style=""font-size: 60px; font-family: BACS"">CYPcATc</p>",,,,,,,,,,
html-keyboard-response,405,508687,0.0-16.0-0.73,611dc53f0098557586e89b17,650c16f0f2faf8d7a0d14c09,651c352f8eeb552a8fef050e,null,null,"<p style=""font-size: 60px; font-family: BACS"">CYPcATc</p>",,,,,,,,,,
html-keyboard-response,406,509705,0.0-16.0-0.74,611dc53f0098557586e89b17,650c16f0f2faf8d7a0d14c09,651c352f8eeb552a8fef050e,null,null,"<p style=""font-size: 60px; font-family: BACS"">CYPcATc</p>",,,,,,,,,,
html-keyboard-response,407,510722,0.0-16.0-0.75,611dc53f0098557586e89b17,650c16f0f2faf8d7a0d14c09,651c352f8eeb552a8fef050e,null,null,"<p style=""font-size: 60px; font-family: BACS"">CYPcATc</p>",,,,,,,,,,
html-keyboard-response,408,511738,0.0-16.0-0.76,611dc53f0098557586e89b17,650c16f0f2faf8d7a0d14c09,651c352f8eeb552a8fef050e,null,null,"<p style=""font-size: 60px; font-family: BACS"">CYPcATc</p>",,,,,,,,,,
html-keyboard-response,409,512754,0.0-16.0-0.77,611dc53f0098557586e89b17,650c16f0f2faf8d7a0d14c09,651c352f8eeb552a8fef050e,null,null,"<p style=""font-size: 60px; font-family: BACS"">CYPcATc</p>",,,,,,,,,,
html-keyboard-response,410,513771,0.0-16.0-0.78,611dc53f0098557586e89b17,650c16f0f2faf8d7a0d14c09,651c352f8eeb552a8fef050e,null,null,"<p style=""font-size: 60px; font-family: BACS"">CYPcATc</p>",,,,,,,,,,
html-keyboard-response,411,514788,0.0-16.0-0.79,611dc53f0098557586e89b17,650c16f0f2faf8d7a0d14c09,651c352f8eeb552a8fef050e,null,null,"<p style=""font-size: 60px; font-family: BACS"">CYPcATc</p>",,,,,,,,,,
html-keyboard-response,412,547222,0.0-17.0,611dc53f0098557586e89b17,650c16f0f2faf8d7a0d14c09,651c352f8eeb552a8fef050e,32434, ,"<p>Great, you've seen the fifth block of words. You may now take a short break.</p>
      <p>Press the spacebar when you're ready to continue.</p>",,,,,,,,,,
html-keyboard-response,413,548234,0.0-18.0-0.0,611dc53f0098557586e89b17,650c16f0f2faf8d7a0d14c09,651c352f8eeb552a8fef050e,null,null,"<p style=""font-size: 60px; font-family: BACS"">AMkCbAMO</p>",,,,,,,,,,
html-keyboard-response,414,549236,0.0-18.0-0.1,611dc53f0098557586e89b17,650c16f0f2faf8d7a0d14c09,651c352f8eeb552a8fef050e,null,null,"<p style=""font-size: 60px; font-family: BACS"">EPERdmKcD</p>",,,,,,,,,,
html-keyboard-response,415,550250,0.0-18.0-0.2,611dc53f0098557586e89b17,650c16f0f2faf8d7a0d14c09,651c352f8eeb552a8fef050e,null,null,"<p style=""font-size: 60px; font-family: BACS"">JrGvYUYa</p>",,,,,,,,,,
html-keyboard-response,416,551268,0.0-18.0-0.3,611dc53f0098557586e89b17,650c16f0f2faf8d7a0d14c09,651c352f8eeb552a8fef050e,null,null,"<p style=""font-size: 60px; font-family: BACS"">lGZvrAJu</p>",,,,,,,,,,
html-keyboard-response,417,552283,0.0-18.0-0.4,611dc53f0098557586e89b17,650c16f0f2faf8d7a0d14c09,651c352f8eeb552a8fef050e,null,null,"<p style=""font-size: 60px; font-family: BACS"">bYuQrNlZ</p>",,,,,,,,,,
html-keyboard-response,418,553300,0.0-18.0-0.5,611dc53f0098557586e89b17,650c16f0f2faf8d7a0d14c09,651c352f8eeb552a8fef050e,null,null,"<p style=""font-size: 60px; font-family: BACS"">JrGvrAJu</p>",,,,,,,,,,
html-keyboard-response,419,554316,0.0-18.0-0.6,611dc53f0098557586e89b17,650c16f0f2faf8d7a0d14c09,651c352f8eeb552a8fef050e,null,null,"<p style=""font-size: 60px; font-family: BACS"">kdaAJYUYa</p>",,,,,,,,,,
html-keyboard-response,420,555334,0.0-18.0-0.7,611dc53f0098557586e89b17,650c16f0f2faf8d7a0d14c09,651c352f8eeb552a8fef050e,null,null,"<p style=""font-size: 60px; font-family: BACS"">CYPcATc</p>",,,,,,,,,,
html-keyboard-response,421,556350,0.0-18.0-0.8,611dc53f0098557586e89b17,650c16f0f2faf8d7a0d14c09,651c352f8eeb552a8fef050e,null,null,"<p style=""font-size: 60px; font-family: BACS"">JNkaYUYa</p>",,,,,,,,,,
html-keyboard-response,422,557366,0.0-18.0-0.9,611dc53f0098557586e89b17,650c16f0f2faf8d7a0d14c09,651c352f8eeb552a8fef050e,null,null,"<p style=""font-size: 60px; font-family: BACS"">AMkCRCdc</p>",,,,,,,,,,
html-keyboard-response,423,558382,0.0-18.0-0.10,611dc53f0098557586e89b17,650c16f0f2faf8d7a0d14c09,651c352f8eeb552a8fef050e,null,null,"<p style=""font-size: 60px; font-family: BACS"">rLkmrAJu</p>",,,,,,,,,,
html-keyboard-response,424,559384,0.0-18.0-0.11,611dc53f0098557586e89b17,650c16f0f2faf8d7a0d14c09,651c352f8eeb552a8fef050e,null,null,"<p style=""font-size: 60px; font-family: BACS"">AbKDkhMD</p>",,,,,,,,,,
html-keyboard-response,425,560400,0.0-18.0-0.12,611dc53f0098557586e89b17,650c16f0f2faf8d7a0d14c09,651c352f8eeb552a8fef050e,null,null,"<p style=""font-size: 60px; font-family: BACS"">rdLJaYUYa</p>",,,,,,,,,,
html-keyboard-response,426,561417,0.0-18.0-0.13,611dc53f0098557586e89b17,650c16f0f2faf8d7a0d14c09,651c352f8eeb552a8fef050e,null,null,"<p style=""font-size: 60px; font-family: BACS"">AbKDRCdc</p>",,,,,,,,,,
html-keyboard-response,427,562432,0.0-18.0-0.14,611dc53f0098557586e89b17,650c16f0f2faf8d7a0d14c09,651c352f8eeb552a8fef050e,null,null,"<p style=""font-size: 60px; font-family: BACS"">kdaAJrNlZ</p>",,,,,,,,,,
html-keyboard-response,428,563449,0.0-18.0-0.15,611dc53f0098557586e89b17,650c16f0f2faf8d7a0d14c09,651c352f8eeb552a8fef050e,null,null,"<p style=""font-size: 60px; font-family: BACS"">mdkKATc</p>",,,,,,,,,,
html-keyboard-response,429,564467,0.0-18.0-0.16,611dc53f0098557586e89b17,650c16f0f2faf8d7a0d14c09,651c352f8eeb552a8fef050e,null,null,"<p style=""font-size: 60px; font-family: BACS"">LuNZYUYa</p>",,,,,,,,,,
html-keyboard-response,430,565483,0.0-18.0-0.17,611dc53f0098557586e89b17,650c16f0f2faf8d7a0d14c09,651c352f8eeb552a8fef050e,null,null,"<p style=""font-size: 60px; font-family: BACS"">MDKPmKcD</p>",,,,,,,,,,
html-keyboard-response,431,566501,0.0-18.0-0.18,611dc53f0098557586e89b17,650c16f0f2faf8d7a0d14c09,651c352f8eeb552a8fef050e,null,null,"<p style=""font-size: 60px; font-family: BACS"">YlCPBATc</p>",,,,,,,,,,
html-keyboard-response,432,567516,0.0-18.0-0.19,611dc53f0098557586e89b17,650c16f0f2faf8d7a0d14c09,651c352f8eeb552a8fef050e,null,null,"<p style=""font-size: 60px; font-family: BACS"">QbkAcrNlZ</p>",,,,,,,,,,
html-keyboard-response,433,568532,0.0-18.0-0.20,611dc53f0098557586e89b17,650c16f0f2faf8d7a0d14c09,651c352f8eeb552a8fef050e,null,null,"<p style=""font-size: 60px; font-family: BACS"">aNYmbkGua</p>",,,,,,,,,,
html-keyboard-response,434,569534,0.0-18.0-0.21,611dc53f0098557586e89b17,650c16f0f2faf8d7a0d14c09,651c352f8eeb552a8fef050e,null,null,"<p style=""font-size: 60px; font-family: BACS"">MDKPkhMD</p>",,,,,,,,,,
html-keyboard-response,435,570548,0.0-18.0-0.22,611dc53f0098557586e89b17,650c16f0f2faf8d7a0d14c09,651c352f8eeb552a8fef050e,null,null,"<p style=""font-size: 60px; font-family: BACS"">mdkKbAMO</p>",,,,,,,,,,
html-keyboard-response,436,571565,0.0-18.0-0.23,611dc53f0098557586e89b17,650c16f0f2faf8d7a0d14c09,651c352f8eeb552a8fef050e,null,null,"<p style=""font-size: 60px; font-family: BACS"">JNkarNlZ</p>",,,,,,,,,,
html-keyboard-response,437,572581,0.0-18.0-0.24,611dc53f0098557586e89b17,650c16f0f2faf8d7a0d14c09,651c352f8eeb552a8fef050e,null,null,"<p style=""font-size: 60px; font-family: BACS"">lGZvLUOk</p>",,,,,,,,,,
html-keyboard-response,438,573599,0.0-18.0-0.25,611dc53f0098557586e89b17,650c16f0f2faf8d7a0d14c09,651c352f8eeb552a8fef050e,null,null,"<p style=""font-size: 60px; font-family: BACS"">KAERMATc</p>",,,,,,,,,,
html-keyboard-response,439,574601,0.0-18.0-0.26,611dc53f0098557586e89b17,650c16f0f2faf8d7a0d14c09,651c352f8eeb552a8fef050e,null,null,"<p style=""font-size: 60px; font-family: BACS"">rdLJakGua</p>",,,,,,,,,,
html-keyboard-response,440,575616,0.0-18.0-0.27,611dc53f0098557586e89b17,650c16f0f2faf8d7a0d14c09,651c352f8eeb552a8fef050e,null,null,"<p style=""font-size: 60px; font-family: BACS"">LuNZLUOk</p>",,,,,,,,,,
html-keyboard-response,441,576632,0.0-18.0-0.28,611dc53f0098557586e89b17,650c16f0f2faf8d7a0d14c09,651c352f8eeb552a8fef050e,null,null,"<p style=""font-size: 60px; font-family: BACS"">MDKPATc</p>",,,,,,,,,,
html-keyboard-response,442,577649,0.0-18.0-0.29,611dc53f0098557586e89b17,650c16f0f2faf8d7a0d14c09,651c352f8eeb552a8fef050e,null,null,"<p style=""font-size: 60px; font-family: BACS"">KAERMmKcD</p>",,,,,,,,,,
html-keyboard-response,443,578664,0.0-18.0-0.30,611dc53f0098557586e89b17,650c16f0f2faf8d7a0d14c09,651c352f8eeb552a8fef050e,null,null,"<p style=""font-size: 60px; font-family: BACS"">rdLJarNlZ</p>",,,,,,,,,,
html-keyboard-response,444,579667,0.0-18.0-0.31,611dc53f0098557586e89b17,650c16f0f2faf8d7a0d14c09,651c352f8eeb552a8fef050e,null,null,"<p style=""font-size: 60px; font-family: BACS"">aNYmbLUOk</p>",,,,,,,,,,
html-keyboard-response,445,580681,0.0-18.0-0.32,611dc53f0098557586e89b17,650c16f0f2faf8d7a0d14c09,651c352f8eeb552a8fef050e,null,null,"<p style=""font-size: 60px; font-family: BACS"">hlkTRCdc</p>",,,,,,,,,,
html-keyboard-response,446,581698,0.0-18.0-0.33,611dc53f0098557586e89b17,650c16f0f2faf8d7a0d14c09,651c352f8eeb552a8fef050e,null,null,"<p style=""font-size: 60px; font-family: BACS"">kdaAJLUOk</p>",,,,,,,,,,
html-keyboard-response,447,582700,0.0-18.0-0.34,611dc53f0098557586e89b17,650c16f0f2faf8d7a0d14c09,651c352f8eeb552a8fef050e,null,null,"<p style=""font-size: 60px; font-family: BACS"">AbKDATc</p>",,,,,,,,,,
html-keyboard-response,448,583717,0.0-18.0-0.35,611dc53f0098557586e89b17,650c16f0f2faf8d7a0d14c09,651c352f8eeb552a8fef050e,null,null,"<p style=""font-size: 60px; font-family: BACS"">rLkmLUOk</p>",,,,,,,,,,
html-keyboard-response,449,584732,0.0-18.0-0.36,611dc53f0098557586e89b17,650c16f0f2faf8d7a0d14c09,651c352f8eeb552a8fef050e,null,null,"<p style=""font-size: 60px; font-family: BACS"">mdkKmKcD</p>",,,,,,,,,,
html-keyboard-response,450,585749,0.0-18.0-0.37,611dc53f0098557586e89b17,650c16f0f2faf8d7a0d14c09,651c352f8eeb552a8fef050e,null,null,"<p style=""font-size: 60px; font-family: BACS"">hlkTbAMO</p>",,,,,,,,,,
html-keyboard-response,451,586764,0.0-18.0-0.38,611dc53f0098557586e89b17,650c16f0f2faf8d7a0d14c09,651c352f8eeb552a8fef050e,null,null,"<p style=""font-size: 60px; font-family: BACS"">AbKDmKcD</p>",,,,,,,,,,
html-keyboard-response,452,587781,0.0-18.0-0.39,611dc53f0098557586e89b17,650c16f0f2faf8d7a0d14c09,651c352f8eeb552a8fef050e,null,null,"<p style=""font-size: 60px; font-family: BACS"">kdaAJkGua</p>",,,,,,,,,,
html-keyboard-response,453,588798,0.0-18.0-0.40,611dc53f0098557586e89b17,650c16f0f2faf8d7a0d14c09,651c352f8eeb552a8fef050e,null,null,"<p style=""font-size: 60px; font-family: BACS"">CYPcbAMO</p>",,,,,,,,,,
html-keyboard-response,454,589815,0.0-18.0-0.41,611dc53f0098557586e89b17,650c16f0f2faf8d7a0d14c09,651c352f8eeb552a8fef050e,null,null,"<p style=""font-size: 60px; font-family: BACS"">rLkmYUYa</p>",,,,,,,,,,
html-keyboard-response,455,590832,0.0-18.0-0.42,611dc53f0098557586e89b17,650c16f0f2faf8d7a0d14c09,651c352f8eeb552a8fef050e,null,null,"<p style=""font-size: 60px; font-family: BACS"">mdkKRCdc</p>",,,,,,,,,,
html-keyboard-response,456,591848,0.0-18.0-0.43,611dc53f0098557586e89b17,650c16f0f2faf8d7a0d14c09,651c352f8eeb552a8fef050e,null,null,"<p style=""font-size: 60px; font-family: BACS"">CYPckhMD</p>",,,,,,,,,,
html-keyboard-response,457,592864,0.0-18.0-0.44,611dc53f0098557586e89b17,650c16f0f2faf8d7a0d14c09,651c352f8eeb552a8fef050e,null,null,"<p style=""font-size: 60px; font-family: BACS"">tKDmhbAMO</p>",,,,,,,,,,
html-keyboard-response,458,593882,0.0-18.0-0.45,611dc53f0098557586e89b17,650c16f0f2faf8d7a0d14c09,651c352f8eeb552a8fef050e,null,null,"<p style=""font-size: 60px; font-family: BACS"">KAERMkhMD</p>",,,,,,,,,,
html-keyboard-response,459,594896,0.0-18.0-0.46,611dc53f0098557586e89b17,650c16f0f2faf8d7a0d14c09,651c352f8eeb552a8fef050e,null,null,"<p style=""font-size: 60px; font-family: BACS"">aNYmbrAJu</p>",,,,,,,,,,
html-keyboard-response,460,595910,0.0-18.0-0.47,611dc53f0098557586e89b17,650c16f0f2faf8d7a0d14c09,651c352f8eeb552a8fef050e,null,null,"<p style=""font-size: 60px; font-family: BACS"">hlkTATc</p>",,,,,,,,,,
html-keyboard-response,461,596918,0.0-18.0-0.48,611dc53f0098557586e89b17,650c16f0f2faf8d7a0d14c09,651c352f8eeb552a8fef050e,null,null,"<p style=""font-size: 60px; font-family: BACS"">EPERdkhMD</p>",,,,,,,,,,
html-keyboard-response,462,597931,0.0-18.0-0.49,611dc53f0098557586e89b17,650c16f0f2faf8d7a0d14c09,651c352f8eeb552a8fef050e,null,null,"<p style=""font-size: 60px; font-family: BACS"">aNYmbrNlZ</p>",,,,,,,,,,
html-keyboard-response,463,598947,0.0-18.0-0.50,611dc53f0098557586e89b17,650c16f0f2faf8d7a0d14c09,651c352f8eeb552a8fef050e,null,null,"<p style=""font-size: 60px; font-family: BACS"">MDKPbAMO</p>",,,,,,,,,,
html-keyboard-response,464,599949,0.0-18.0-0.51,611dc53f0098557586e89b17,650c16f0f2faf8d7a0d14c09,651c352f8eeb552a8fef050e,null,null,"<p style=""font-size: 60px; font-family: BACS"">YlCPBmKcD</p>",,,,,,,,,,
html-keyboard-response,465,600965,0.0-18.0-0.52,611dc53f0098557586e89b17,650c16f0f2faf8d7a0d14c09,651c352f8eeb552a8fef050e,null,null,"<p style=""font-size: 60px; font-family: BACS"">KAERMbAMO</p>",,,,,,,,,,
html-keyboard-response,466,601982,0.0-18.0-0.53,611dc53f0098557586e89b17,650c16f0f2faf8d7a0d14c09,651c352f8eeb552a8fef050e,null,null,"<p style=""font-size: 60px; font-family: BACS"">hlkTmKcD</p>",,,,,,,,,,
html-keyboard-response,467,602998,0.0-18.0-0.54,611dc53f0098557586e89b17,650c16f0f2faf8d7a0d14c09,651c352f8eeb552a8fef050e,null,null,"<p style=""font-size: 60px; font-family: BACS"">bYuQYUYa</p>",,,,,,,,,,
