"trial_type","trial_index","time_elapsed","internal_node_id","subject_id","study_id","session_id","rt","response","stimulus","success","item","task","correct_response","correct","target","confound","name"
"pavlovia","0","3077","0.0-0.0","605c9355001a5eb6d51e657d","64b003020eef62ee308107cc","64b03511972d6ef22a0e0f74","","","","","","","","","","",""
"survey-html-form","1","29203","0.0-1.0","605c9355001a5eb6d51e657d","64b003020eef62ee308107cc","64b03511972d6ef22a0e0f74","26125","{""ID"":""605c9355001a5eb6d51e657d""}","","","","","","","","",""
"html-keyboard-response","2","35099","0.0-2.0","605c9355001a5eb6d51e657d","64b003020eef62ee308107cc","64b03511972d6ef22a0e0f74","5896"," ","<p style=""font-size: 15px;"">Prima di cominciare, le chiediamo di leggere il modulo di consenso informato e confermare la sua volontà di partecipare all'esperimento.</p>
      <p style=""font-size: 15px;""> La preghiamo di ricordare che questo è un progetto di ricerca e che la sua partecipazione è completamente volontaria. Lei si potra' ritirare in qualunque momento, senza necessariamente dover dare alcuna spiegazione. Lo studio al quale Le si chiede di partecipare ha lo scopo di esaminare come i lettori elaborano le parole scritte. La somministrazione delle prove è individuale. Lei sarà impegnato in una sessione di lavoro della durata media di 10 minuti, e un questionario di 10 minuti. L’ordine delle prove ed il loro svolgimento sono stabiliti in modo tale da evitare un eventuale affaticamento. Tutte le prove saranno precedute da un breve addestramento in modo tale che abbia la possibilità di familiarizzare con il compito. Sono previste alcune pause nel corso dello svolgimento dell’esperimento. Una ricompensa di £4 (£8 per ora) Le verrà consegnata al termine della sessione di testing. Nonostante il testing preveda delle prove cognitive, il presente esperimento non costituisce una prova clinica che permetta la diagnosi di eventuali patologie.</p>
      <p style=""font-size: 15px;"">Tutti i dati raccolti grazie alla partecipazione Sua e di altre persone volontarie saranno custoditi in server sicuri e protetti da password, e non sarà consentito ad alcuna persona non autorizzata di accedervi. Le Sue informazioni personali saranno conservate separatamente dai risultati della presente ricerca, cui saranno associati soltanto attraverso un ID arbitrario. Grazie a questo processo di anonimizzazione dei dati, a nessun ricercatore sarà possibile analizzare i risultati sapendo da quale specifico partecipante essi provengono. Inoltre, questa procedura renderà impossibile la Sua identificazione anche nel momento in cui i risultati della ricerca fossero pubblicati su riviste scientifiche, o presentati a congressi o in qualsiasi altro pubblico consesso. Più in generale, i dati raccolti saranno trattati in accordo con le leggi sulla privacy e in conformità al Decreto Legislativo 30 giugno 2003 n. 196 “Codice in materia di protezione dei dati personali” e al Regolamento Europeo 2016/679 (General Data Protection Regulation - GDPR). Il Responsabile della protezione dei dati (RPD) è l’Avv. Valentina Carollo che può essere contattato ai seguenti indirizzi email: <a href=""mailto:dpo@sissa.it"">dpo@sissa.it</a> oppure <a href=""mailto:rpd@sissa.it"">rpd@sissa.it</a> - PEC: <a href=""mailto:protocollo@pec.sissa.it"">protocollo@pec.sissa.it</a>.</p>
      <p style=""font-size: 15px;""> Prima di esprimere il suo consenso alla partecipazione, Le ricordiamo ancora che in caso Lei abbia bisogno di delucidazioni su qualunque aspetto della procedura sperimentale, il ricercatore è a Sua completa disposizione (<a href=""mailto:aliebelt@sissa.it"">aliebelt@sissa.it</a>, <a href=""mailto:davide.crepaldi@sissa.it"">davide.crepaldi@sissa.it</a>).</p>
      <p style=""font-size: 15px;"">Se vuole scaricare il modulo di consenso informato, clicca qui: <a href=""BASL_modulo_consenso.pdf"" download>modulo di consenso</a>.</p>
      <p style=""font-size: 15px;""> Le chiediamo di premere la barra per continuare al consenso.</p>","","","","","","","",""
"survey-html-form","3","48739","0.0-3.0","605c9355001a5eb6d51e657d","64b003020eef62ee308107cc","64b03511972d6ef22a0e0f74","13640","{""consent1"":""YES"",""consent2"":""YES"",""consent3"":""YES"",""consent4"":""YES"",""consent5"":""YES"",""consent6"":""YES""}","","","","","","","","",""
"fullscreen","4","55901","0.0-4.0","605c9355001a5eb6d51e657d","64b003020eef62ee308107cc","64b03511972d6ef22a0e0f74","","","","true","","","","","","",""
"html-keyboard-response","5","72658","0.0-5.0","605c9355001a5eb6d51e657d","64b003020eef62ee308107cc","64b03511972d6ef22a0e0f74","16758"," ","<p>Benvenuta/o, e grazie mille del tuo tempo!</p>
      <p>In questo esperimento sarai un esperto/un'esperta di linguaggio cui è stato chiesto di dare un'occhiata ad alcuni messaggi che la Terra ha ricevuto dallo spazio. Il tuo compito, in questa prima parte dell'esperimento, sarà di fare molta attenzione alle parole che ti verranno mostrate; più tardi, i leader del mondo ti chiederanno qualche informazione su quello che hai visto. Le parole si susseguiranno abbastanza velocemente; sembra che questi alieni abbiano una certa fretta :-) </p>
      <p>Per favore, chiama lo sperimentatore se ha qualche domanda.</p><p>Premi la barra per continuare.</p>","","","","","","","",""
"html-keyboard-response","6","81866","0.0-6.0","605c9355001a5eb6d51e657d","64b003020eef62ee308107cc","64b03511972d6ef22a0e0f74","9207"," ","<p>Ecco un esempio delle parole che vedrai:</p>
      <img src='esempio.png' height='400px'>
      <p>Quando sei pronti per iniziare, premi la barra.</p></div>","","","","","","","",""
"html-keyboard-response","7","82871","0.0-7.0-0.0","605c9355001a5eb6d51e657d","64b003020eef62ee308107cc","64b03511972d6ef22a0e0f74","null","null","<p style=""font-size: 60px; font-family: BACS"">OAmAdYBO</p>","","","","","","","",""
"html-keyboard-response","8","83881","0.0-7.0-0.1","605c9355001a5eb6d51e657d","64b003020eef62ee308107cc","64b03511972d6ef22a0e0f74","null","null","<p style=""font-size: 60px; font-family: BACS"">GLYrAJUNa</p>","","","","","","","",""
"html-keyboard-response","9","84888","0.0-7.0-0.2","605c9355001a5eb6d51e657d","64b003020eef62ee308107cc","64b03511972d6ef22a0e0f74","null","null","<p style=""font-size: 60px; font-family: BACS"">hbkdRYlD</p>","","","","","","","",""
"html-keyboard-response","10","85898","0.0-7.0-0.3","605c9355001a5eb6d51e657d","64b003020eef62ee308107cc","64b03511972d6ef22a0e0f74","null","null","<p style=""font-size: 60px; font-family: BACS"">rckOGQYQ</p>","","","","","","","",""
"html-keyboard-response","11","86914","0.0-7.0-0.4","605c9355001a5eb6d51e657d","64b003020eef62ee308107cc","64b03511972d6ef22a0e0f74","null","null","<p style=""font-size: 60px; font-family: BACS"">bmbNrkra</p>","","","","","","","",""
"html-keyboard-response","12","87922","0.0-7.0-0.5","605c9355001a5eb6d51e657d","64b003020eef62ee308107cc","64b03511972d6ef22a0e0f74","null","null","<p style=""font-size: 60px; font-family: BACS"">rckOGrub</p>","","","","","","","",""
"html-keyboard-response","13","88933","0.0-7.0-0.6","605c9355001a5eb6d51e657d","64b003020eef62ee308107cc","64b03511972d6ef22a0e0f74","null","null","<p style=""font-size: 60px; font-family: BACS"">DlDdPED</p>","","","","","","","",""
"html-keyboard-response","14","89944","0.0-7.0-0.7","605c9355001a5eb6d51e657d","64b003020eef62ee308107cc","64b03511972d6ef22a0e0f74","null","null","<p style=""font-size: 60px; font-family: BACS"">UaZmaGrub</p>","","","","","","","",""
"html-keyboard-response","15","90945","0.0-7.0-0.8","605c9355001a5eb6d51e657d","64b003020eef62ee308107cc","64b03511972d6ef22a0e0f74","null","null","<p style=""font-size: 60px; font-family: BACS"">TPCbYBO</p>","","","","","","","",""
"html-keyboard-response","16","91960","0.0-7.0-0.9","605c9355001a5eb6d51e657d","64b003020eef62ee308107cc","64b03511972d6ef22a0e0f74","null","null","<p style=""font-size: 60px; font-family: BACS"">OAmAdcthB</p>","","","","","","","",""
"html-keyboard-response","17","92974","0.0-7.0-0.10","605c9355001a5eb6d51e657d","64b003020eef62ee308107cc","64b03511972d6ef22a0e0f74","null","null","<p style=""font-size: 60px; font-family: BACS"">TPCbRYlD</p>","","","","","","","",""
"html-keyboard-response","18","93974","0.0-7.0-0.11","605c9355001a5eb6d51e657d","64b003020eef62ee308107cc","64b03511972d6ef22a0e0f74","null","null","<p style=""font-size: 60px; font-family: BACS"">DlDdcthB</p>","","","","","","","",""
"html-keyboard-response","19","94980","0.0-7.0-0.12","605c9355001a5eb6d51e657d","64b003020eef62ee308107cc","64b03511972d6ef22a0e0f74","null","null","<p style=""font-size: 60px; font-family: BACS"">UaZmaJUNa</p>","","","","","","","",""
"html-keyboard-response","20","95991","0.0-7.0-0.13","605c9355001a5eb6d51e657d","64b003020eef62ee308107cc","64b03511972d6ef22a0e0f74","null","null","<p style=""font-size: 60px; font-family: BACS"">JauQrkra</p>","","","","","","","",""
"html-keyboard-response","21","96992","0.0-7.0-0.14","605c9355001a5eb6d51e657d","64b003020eef62ee308107cc","64b03511972d6ef22a0e0f74","null","null","<p style=""font-size: 60px; font-family: BACS"">bAdkRDM</p>","","","","","","","",""
"html-keyboard-response","22","98005","0.0-7.0-0.15","605c9355001a5eb6d51e657d","64b003020eef62ee308107cc","64b03511972d6ef22a0e0f74","null","null","<p style=""font-size: 60px; font-family: BACS"">UaYLkam</p>","","","","","","","",""
"html-keyboard-response","23","99017","0.0-7.0-0.16","605c9355001a5eb6d51e657d","64b003020eef62ee308107cc","64b03511972d6ef22a0e0f74","null","null","<p style=""font-size: 60px; font-family: BACS"">rdLJaGQYQ</p>","","","","","","","",""
"html-keyboard-response","24","100024","0.0-7.0-0.17","605c9355001a5eb6d51e657d","64b003020eef62ee308107cc","64b03511972d6ef22a0e0f74","null","null","<p style=""font-size: 60px; font-family: BACS"">TAdhMYBO</p>","","","","","","","",""
"html-keyboard-response","25","101037","0.0-7.0-0.18","605c9355001a5eb6d51e657d","64b003020eef62ee308107cc","64b03511972d6ef22a0e0f74","null","null","<p style=""font-size: 60px; font-family: BACS"">JauQkam</p>","","","","","","","",""
"html-keyboard-response","26","102047","0.0-7.0-0.19","605c9355001a5eb6d51e657d","64b003020eef62ee308107cc","64b03511972d6ef22a0e0f74","null","null","<p style=""font-size: 60px; font-family: BACS"">hbkdRDM</p>","","","","","","","",""
"html-keyboard-response","27","103059","0.0-7.0-0.20","605c9355001a5eb6d51e657d","64b003020eef62ee308107cc","64b03511972d6ef22a0e0f74","null","null","<p style=""font-size: 60px; font-family: BACS"">GLYrArkra</p>","","","","","","","",""
"html-keyboard-response","28","104060","0.0-7.0-0.21","605c9355001a5eb6d51e657d","64b003020eef62ee308107cc","64b03511972d6ef22a0e0f74","null","null","<p style=""font-size: 60px; font-family: BACS"">chEDOPED</p>","","","","","","","",""
"html-keyboard-response","29","105074","0.0-7.0-0.22","605c9355001a5eb6d51e657d","64b003020eef62ee308107cc","64b03511972d6ef22a0e0f74","null","null","<p style=""font-size: 60px; font-family: BACS"">TAdhMcthB</p>","","","","","","","",""
"html-keyboard-response","30","106088","0.0-7.0-0.23","605c9355001a5eb6d51e657d","64b003020eef62ee308107cc","64b03511972d6ef22a0e0f74","null","null","<p style=""font-size: 60px; font-family: BACS"">bmbNJUNa</p>","","","","","","","",""
"html-keyboard-response","31","107099","0.0-7.0-0.24","605c9355001a5eb6d51e657d","64b003020eef62ee308107cc","64b03511972d6ef22a0e0f74","null","null","<p style=""font-size: 60px; font-family: BACS"">ZkGmYkam</p>","","","","","","","",""
"html-keyboard-response","32","108113","0.0-7.0-0.25","605c9355001a5eb6d51e657d","64b003020eef62ee308107cc","64b03511972d6ef22a0e0f74","null","null","<p style=""font-size: 60px; font-family: BACS"">UdumdJUNa</p>","","","","","","","",""
"html-keyboard-response","33","109124","0.0-7.0-0.26","605c9355001a5eb6d51e657d","64b003020eef62ee308107cc","64b03511972d6ef22a0e0f74","null","null","<p style=""font-size: 60px; font-family: BACS"">DlDdRDM</p>","","","","","","","",""
"html-keyboard-response","34","110125","0.0-7.0-0.27","605c9355001a5eb6d51e657d","64b003020eef62ee308107cc","64b03511972d6ef22a0e0f74","null","null","<p style=""font-size: 60px; font-family: BACS"">kNuaGrub</p>","","","","","","","",""
"html-keyboard-response","35","111136","0.0-7.0-0.28","605c9355001a5eb6d51e657d","64b003020eef62ee308107cc","64b03511972d6ef22a0e0f74","null","null","<p style=""font-size: 60px; font-family: BACS"">dYdAYBO</p>","","","","","","","",""
"html-keyboard-response","36","112148","0.0-7.0-0.29","605c9355001a5eb6d51e657d","64b003020eef62ee308107cc","64b03511972d6ef22a0e0f74","null","null","<p style=""font-size: 60px; font-family: BACS"">dMThkRYlD</p>","","","","","","","",""
"html-keyboard-response","37","113159","0.0-7.0-0.30","605c9355001a5eb6d51e657d","64b003020eef62ee308107cc","64b03511972d6ef22a0e0f74","null","null","<p style=""font-size: 60px; font-family: BACS"">rdLJaGrub</p>","","","","","","","",""
"html-keyboard-response","38","114161","0.0-7.0-0.31","605c9355001a5eb6d51e657d","64b003020eef62ee308107cc","64b03511972d6ef22a0e0f74","null","null","<p style=""font-size: 60px; font-family: BACS"">dMThkcthB</p>","","","","","","","",""
"html-keyboard-response","39","115162","0.0-7.0-0.32","605c9355001a5eb6d51e657d","64b003020eef62ee308107cc","64b03511972d6ef22a0e0f74","null","null","<p style=""font-size: 60px; font-family: BACS"">bAdkRYlD</p>","","","","","","","",""
"html-keyboard-response","40","116165","0.0-7.0-0.33","605c9355001a5eb6d51e657d","64b003020eef62ee308107cc","64b03511972d6ef22a0e0f74","null","null","<p style=""font-size: 60px; font-family: BACS"">ZkGmYrkra</p>","","","","","","","",""
"html-keyboard-response","41","117175","0.0-7.0-0.34","605c9355001a5eb6d51e657d","64b003020eef62ee308107cc","64b03511972d6ef22a0e0f74","null","null","<p style=""font-size: 60px; font-family: BACS"">bAdkcthB</p>","","","","","","","",""
"html-keyboard-response","42","118185","0.0-7.0-0.35","605c9355001a5eb6d51e657d","64b003020eef62ee308107cc","64b03511972d6ef22a0e0f74","null","null","<p style=""font-size: 60px; font-family: BACS"">DlDdYBO</p>","","","","","","","",""
"html-keyboard-response","43","119194","0.0-7.0-0.36","605c9355001a5eb6d51e657d","64b003020eef62ee308107cc","64b03511972d6ef22a0e0f74","null","null","<p style=""font-size: 60px; font-family: BACS"">chEDOcthB</p>","","","","","","","",""
"html-keyboard-response","44","120205","0.0-7.0-0.37","605c9355001a5eb6d51e657d","64b003020eef62ee308107cc","64b03511972d6ef22a0e0f74","null","null","<p style=""font-size: 60px; font-family: BACS"">kNuaGQYQ</p>","","","","","","","",""
"html-keyboard-response","45","121214","0.0-7.0-0.38","605c9355001a5eb6d51e657d","64b003020eef62ee308107cc","64b03511972d6ef22a0e0f74","null","null","<p style=""font-size: 60px; font-family: BACS"">lBKtcthB</p>","","","","","","","",""
"html-keyboard-response","46","122226","0.0-7.0-0.39","605c9355001a5eb6d51e657d","64b003020eef62ee308107cc","64b03511972d6ef22a0e0f74","null","null","<p style=""font-size: 60px; font-family: BACS"">JauQJUNa</p>","","","","","","","",""
"html-keyboard-response","47","123240","0.0-7.0-0.40","605c9355001a5eb6d51e657d","64b003020eef62ee308107cc","64b03511972d6ef22a0e0f74","null","null","<p style=""font-size: 60px; font-family: BACS"">dMThkRDM</p>","","","","","","","",""
"html-keyboard-response","48","124249","0.0-7.0-0.41","605c9355001a5eb6d51e657d","64b003020eef62ee308107cc","64b03511972d6ef22a0e0f74","null","null","<p style=""font-size: 60px; font-family: BACS"">rckOJUNa</p>","","","","","","","",""
"html-keyboard-response","49","125258","0.0-7.0-0.42","605c9355001a5eb6d51e657d","64b003020eef62ee308107cc","64b03511972d6ef22a0e0f74","null","null","<p style=""font-size: 60px; font-family: BACS"">UdumdGrub</p>","","","","","","","",""
"html-keyboard-response","50","126268","0.0-7.0-0.43","605c9355001a5eb6d51e657d","64b003020eef62ee308107cc","64b03511972d6ef22a0e0f74","null","null","<p style=""font-size: 60px; font-family: BACS"">lBKtRYlD</p>","","","","","","","",""
"html-keyboard-response","51","127279","0.0-7.0-0.44","605c9355001a5eb6d51e657d","64b003020eef62ee308107cc","64b03511972d6ef22a0e0f74","null","null","<p style=""font-size: 60px; font-family: BACS"">dYdActhB</p>","","","","","","","",""
"html-keyboard-response","52","128288","0.0-7.0-0.45","605c9355001a5eb6d51e657d","64b003020eef62ee308107cc","64b03511972d6ef22a0e0f74","null","null","<p style=""font-size: 60px; font-family: BACS"">UdumdGQYQ</p>","","","","","","","",""
"html-keyboard-response","53","129298","0.0-7.0-0.46","605c9355001a5eb6d51e657d","64b003020eef62ee308107cc","64b03511972d6ef22a0e0f74","null","null","<p style=""font-size: 60px; font-family: BACS"">TAdhMRDM</p>","","","","","","","",""
"html-keyboard-response","54","130300","0.0-7.0-0.47","605c9355001a5eb6d51e657d","64b003020eef62ee308107cc","64b03511972d6ef22a0e0f74","null","null","<p style=""font-size: 60px; font-family: BACS"">dMThkYBO</p>","","","","","","","",""
"html-keyboard-response","55","131301","0.0-7.0-0.48","605c9355001a5eb6d51e657d","64b003020eef62ee308107cc","64b03511972d6ef22a0e0f74","null","null","<p style=""font-size: 60px; font-family: BACS"">OAmAdRYlD</p>","","","","","","","",""
"html-keyboard-response","56","132311","0.0-7.0-0.49","605c9355001a5eb6d51e657d","64b003020eef62ee308107cc","64b03511972d6ef22a0e0f74","null","null","<p style=""font-size: 60px; font-family: BACS"">TPCbRDM</p>","","","","","","","",""
"html-keyboard-response","57","133321","0.0-7.0-0.50","605c9355001a5eb6d51e657d","64b003020eef62ee308107cc","64b03511972d6ef22a0e0f74","null","null","<p style=""font-size: 60px; font-family: BACS"">dYdAPED</p>","","","","","","","",""
"html-keyboard-response","58","134330","0.0-7.0-0.51","605c9355001a5eb6d51e657d","64b003020eef62ee308107cc","64b03511972d6ef22a0e0f74","null","null","<p style=""font-size: 60px; font-family: BACS"">lBKtRDM</p>","","","","","","","",""
"html-keyboard-response","59","135342","0.0-7.0-0.52","605c9355001a5eb6d51e657d","64b003020eef62ee308107cc","64b03511972d6ef22a0e0f74","null","null","<p style=""font-size: 60px; font-family: BACS"">Udumdkam</p>","","","","","","","",""
"html-keyboard-response","60","136353","0.0-7.0-0.53","605c9355001a5eb6d51e657d","64b003020eef62ee308107cc","64b03511972d6ef22a0e0f74","null","null","<p style=""font-size: 60px; font-family: BACS"">dYdARDM</p>","","","","","","","",""
"html-keyboard-response","61","137367","0.0-7.0-0.54","605c9355001a5eb6d51e657d","64b003020eef62ee308107cc","64b03511972d6ef22a0e0f74","null","null","<p style=""font-size: 60px; font-family: BACS"">chEDOYBO</p>","","","","","","","",""
"html-keyboard-response","62","138379","0.0-7.0-0.55","605c9355001a5eb6d51e657d","64b003020eef62ee308107cc","64b03511972d6ef22a0e0f74","null","null","<p style=""font-size: 60px; font-family: BACS"">TPCbPED</p>","","","","","","","",""
"html-keyboard-response","63","139388","0.0-7.0-0.56","605c9355001a5eb6d51e657d","64b003020eef62ee308107cc","64b03511972d6ef22a0e0f74","null","null","<p style=""font-size: 60px; font-family: BACS"">kNuakam</p>","","","","","","","",""
"html-keyboard-response","64","140396","0.0-7.0-0.57","605c9355001a5eb6d51e657d","64b003020eef62ee308107cc","64b03511972d6ef22a0e0f74","null","null","<p style=""font-size: 60px; font-family: BACS"">lBKtPED</p>","","","","","","","",""
"html-keyboard-response","65","141407","0.0-7.0-0.58","605c9355001a5eb6d51e657d","64b003020eef62ee308107cc","64b03511972d6ef22a0e0f74","null","null","<p style=""font-size: 60px; font-family: BACS"">bmbNGQYQ</p>","","","","","","","",""
"html-keyboard-response","66","142416","0.0-7.0-0.59","605c9355001a5eb6d51e657d","64b003020eef62ee308107cc","64b03511972d6ef22a0e0f74","null","null","<p style=""font-size: 60px; font-family: BACS"">UaZmakam</p>","","","","","","","",""
"html-keyboard-response","67","143428","0.0-7.0-0.60","605c9355001a5eb6d51e657d","64b003020eef62ee308107cc","64b03511972d6ef22a0e0f74","null","null","<p style=""font-size: 60px; font-family: BACS"">hbkdPED</p>","","","","","","","",""
"html-keyboard-response","68","144428","0.0-7.0-0.61","605c9355001a5eb6d51e657d","64b003020eef62ee308107cc","64b03511972d6ef22a0e0f74","null","null","<p style=""font-size: 60px; font-family: BACS"">rckOrkra</p>","","","","","","","",""
"html-keyboard-response","69","145433","0.0-7.0-0.62","605c9355001a5eb6d51e657d","64b003020eef62ee308107cc","64b03511972d6ef22a0e0f74","null","null","<p style=""font-size: 60px; font-family: BACS"">ZkGmYGrub</p>","","","","","","","",""
"html-keyboard-response","70","146445","0.0-7.0-0.63","605c9355001a5eb6d51e657d","64b003020eef62ee308107cc","64b03511972d6ef22a0e0f74","null","null","<p style=""font-size: 60px; font-family: BACS"">rdLJarkra</p>","","","","","","","",""
"html-keyboard-response","71","147454","0.0-7.0-0.64","605c9355001a5eb6d51e657d","64b003020eef62ee308107cc","64b03511972d6ef22a0e0f74","null","null","<p style=""font-size: 60px; font-family: BACS"">bmbNGrub</p>","","","","","","","",""
"html-keyboard-response","72","148467","0.0-7.0-0.65","605c9355001a5eb6d51e657d","64b003020eef62ee308107cc","64b03511972d6ef22a0e0f74","null","null","<p style=""font-size: 60px; font-family: BACS"">GLYrAGQYQ</p>","","","","","","","",""
"html-keyboard-response","73","149476","0.0-7.0-0.66","605c9355001a5eb6d51e657d","64b003020eef62ee308107cc","64b03511972d6ef22a0e0f74","null","null","<p style=""font-size: 60px; font-family: BACS"">UaYLJUNa</p>","","","","","","","",""
"html-keyboard-response","74","150487","0.0-7.0-0.67","605c9355001a5eb6d51e657d","64b003020eef62ee308107cc","64b03511972d6ef22a0e0f74","null","null","<p style=""font-size: 60px; font-family: BACS"">GLYrAkam</p>","","","","","","","",""
"html-keyboard-response","75","151487","0.0-7.0-0.68","605c9355001a5eb6d51e657d","64b003020eef62ee308107cc","64b03511972d6ef22a0e0f74","null","null","<p style=""font-size: 60px; font-family: BACS"">kNuarkra</p>","","","","","","","",""
"html-keyboard-response","76","152489","0.0-7.0-0.69","605c9355001a5eb6d51e657d","64b003020eef62ee308107cc","64b03511972d6ef22a0e0f74","null","null","<p style=""font-size: 60px; font-family: BACS"">ZkGmYJUNa</p>","","","","","","","",""
"html-keyboard-response","77","153494","0.0-7.0-0.70","605c9355001a5eb6d51e657d","64b003020eef62ee308107cc","64b03511972d6ef22a0e0f74","null","null","<p style=""font-size: 60px; font-family: BACS"">JauQGQYQ</p>","","","","","","","",""
"html-keyboard-response","78","154507","0.0-7.0-0.71","605c9355001a5eb6d51e657d","64b003020eef62ee308107cc","64b03511972d6ef22a0e0f74","null","null","<p style=""font-size: 60px; font-family: BACS"">UaYLrkra</p>","","","","","","","",""
"html-keyboard-response","79","155516","0.0-7.0-0.72","605c9355001a5eb6d51e657d","64b003020eef62ee308107cc","64b03511972d6ef22a0e0f74","null","null","<p style=""font-size: 60px; font-family: BACS"">TAdhMRYlD</p>","","","","","","","",""
"html-keyboard-response","80","156528","0.0-7.0-0.73","605c9355001a5eb6d51e657d","64b003020eef62ee308107cc","64b03511972d6ef22a0e0f74","null","null","<p style=""font-size: 60px; font-family: BACS"">UaZmaGQYQ</p>","","","","","","","",""
"html-keyboard-response","81","157542","0.0-7.0-0.74","605c9355001a5eb6d51e657d","64b003020eef62ee308107cc","64b03511972d6ef22a0e0f74","null","null","<p style=""font-size: 60px; font-family: BACS"">bAdkPED</p>","","","","","","","",""
"html-keyboard-response","82","158553","0.0-7.0-0.75","605c9355001a5eb6d51e657d","64b003020eef62ee308107cc","64b03511972d6ef22a0e0f74","null","null","<p style=""font-size: 60px; font-family: BACS"">hbkdYBO</p>","","","","","","","",""
"html-keyboard-response","83","159562","0.0-7.0-0.76","605c9355001a5eb6d51e657d","64b003020eef62ee308107cc","64b03511972d6ef22a0e0f74","null","null","<p style=""font-size: 60px; font-family: BACS"">UaYLGrub</p>","","","","","","","",""
"html-keyboard-response","84","160576","0.0-7.0-0.77","605c9355001a5eb6d51e657d","64b003020eef62ee308107cc","64b03511972d6ef22a0e0f74","null","null","<p style=""font-size: 60px; font-family: BACS"">rdLJakam</p>","","","","","","","",""
"html-keyboard-response","85","161577","0.0-7.0-0.78","605c9355001a5eb6d51e657d","64b003020eef62ee308107cc","64b03511972d6ef22a0e0f74","null","null","<p style=""font-size: 60px; font-family: BACS"">OAmAdPED</p>","","","","","","","",""
"html-keyboard-response","86","162580","0.0-7.0-0.79","605c9355001a5eb6d51e657d","64b003020eef62ee308107cc","64b03511972d6ef22a0e0f74","null","null","<p style=""font-size: 60px; font-family: BACS"">chEDORYlD</p>","","","","","","","",""
"html-keyboard-response","87","204610","0.0-8.0","605c9355001a5eb6d51e657d","64b003020eef62ee308107cc","64b03511972d6ef22a0e0f74","42030"," ","<p>Ottimo, hai visto il primo blocco di parole. Ora puoi prenderti una piccola pausa.</p>
      <p>Premi la barra quando sei pronta/o per riprendere.</p>","","","","","","","",""
"html-keyboard-response","88","205618","0.0-9.0-0.0","605c9355001a5eb6d51e657d","64b003020eef62ee308107cc","64b03511972d6ef22a0e0f74","null","null","<p style=""font-size: 60px; font-family: BACS"">UaZmaJUNa</p>","","","","","","","",""
"html-keyboard-response","89","206628","0.0-9.0-0.1","605c9355001a5eb6d51e657d","64b003020eef62ee308107cc","64b03511972d6ef22a0e0f74","null","null","<p style=""font-size: 60px; font-family: BACS"">lBKtRYlD</p>","","","","","","","",""
"html-keyboard-response","90","207641","0.0-9.0-0.2","605c9355001a5eb6d51e657d","64b003020eef62ee308107cc","64b03511972d6ef22a0e0f74","null","null","<p style=""font-size: 60px; font-family: BACS"">rckOGrub</p>","","","","","","","",""
"html-keyboard-response","91","208650","0.0-9.0-0.3","605c9355001a5eb6d51e657d","64b003020eef62ee308107cc","64b03511972d6ef22a0e0f74","null","null","<p style=""font-size: 60px; font-family: BACS"">TAdhMcthB</p>","","","","","","","",""
"html-keyboard-response","92","209665","0.0-9.0-0.4","605c9355001a5eb6d51e657d","64b003020eef62ee308107cc","64b03511972d6ef22a0e0f74","null","null","<p style=""font-size: 60px; font-family: BACS"">JauQJUNa</p>","","","","","","","",""
"html-keyboard-response","93","210673","0.0-9.0-0.5","605c9355001a5eb6d51e657d","64b003020eef62ee308107cc","64b03511972d6ef22a0e0f74","null","null","<p style=""font-size: 60px; font-family: BACS"">kNuaGQYQ</p>","","","","","","","",""
"html-keyboard-response","94","211683","0.0-9.0-0.6","605c9355001a5eb6d51e657d","64b003020eef62ee308107cc","64b03511972d6ef22a0e0f74","null","null","<p style=""font-size: 60px; font-family: BACS"">hbkdRYlD</p>","","","","","","","",""
"html-keyboard-response","95","212694","0.0-9.0-0.7","605c9355001a5eb6d51e657d","64b003020eef62ee308107cc","64b03511972d6ef22a0e0f74","null","null","<p style=""font-size: 60px; font-family: BACS"">dYdAYBO</p>","","","","","","","",""
"html-keyboard-response","96","213702","0.0-9.0-0.8","605c9355001a5eb6d51e657d","64b003020eef62ee308107cc","64b03511972d6ef22a0e0f74","null","null","<p style=""font-size: 60px; font-family: BACS"">rckOGQYQ</p>","","","","","","","",""
"html-keyboard-response","97","214716","0.0-9.0-0.9","605c9355001a5eb6d51e657d","64b003020eef62ee308107cc","64b03511972d6ef22a0e0f74","null","null","<p style=""font-size: 60px; font-family: BACS"">UaYLrkra</p>","","","","","","","",""
"html-keyboard-response","98","215729","0.0-9.0-0.10","605c9355001a5eb6d51e657d","64b003020eef62ee308107cc","64b03511972d6ef22a0e0f74","null","null","<p style=""font-size: 60px; font-family: BACS"">JauQkam</p>","","","","","","","",""
"html-keyboard-response","99","216730","0.0-9.0-0.11","605c9355001a5eb6d51e657d","64b003020eef62ee308107cc","64b03511972d6ef22a0e0f74","null","null","<p style=""font-size: 60px; font-family: BACS"">dMThkRDM</p>","","","","","","","",""
"html-keyboard-response","100","217734","0.0-9.0-0.12","605c9355001a5eb6d51e657d","64b003020eef62ee308107cc","64b03511972d6ef22a0e0f74","null","null","<p style=""font-size: 60px; font-family: BACS"">chEDOPED</p>","","","","","","","",""
"html-keyboard-response","101","218744","0.0-9.0-0.13","605c9355001a5eb6d51e657d","64b003020eef62ee308107cc","64b03511972d6ef22a0e0f74","null","null","<p style=""font-size: 60px; font-family: BACS"">GLYrArkra</p>","","","","","","","",""
"html-keyboard-response","102","219759","0.0-9.0-0.14","605c9355001a5eb6d51e657d","64b003020eef62ee308107cc","64b03511972d6ef22a0e0f74","null","null","<p style=""font-size: 60px; font-family: BACS"">chEDORYlD</p>","","","","","","","",""
"html-keyboard-response","103","220767","0.0-9.0-0.15","605c9355001a5eb6d51e657d","64b003020eef62ee308107cc","64b03511972d6ef22a0e0f74","null","null","<p style=""font-size: 60px; font-family: BACS"">UaYLGrub</p>","","","","","","","",""
"html-keyboard-response","104","221770","0.0-9.0-0.16","605c9355001a5eb6d51e657d","64b003020eef62ee308107cc","64b03511972d6ef22a0e0f74","null","null","<p style=""font-size: 60px; font-family: BACS"">bmbNrkra</p>","","","","","","","",""
"html-keyboard-response","105","222771","0.0-9.0-0.17","605c9355001a5eb6d51e657d","64b003020eef62ee308107cc","64b03511972d6ef22a0e0f74","null","null","<p style=""font-size: 60px; font-family: BACS"">dMThkcthB</p>","","","","","","","",""
"html-keyboard-response","106","223777","0.0-9.0-0.18","605c9355001a5eb6d51e657d","64b003020eef62ee308107cc","64b03511972d6ef22a0e0f74","null","null","<p style=""font-size: 60px; font-family: BACS"">rckOJUNa</p>","","","","","","","",""
"html-keyboard-response","107","224788","0.0-9.0-0.19","605c9355001a5eb6d51e657d","64b003020eef62ee308107cc","64b03511972d6ef22a0e0f74","null","null","<p style=""font-size: 60px; font-family: BACS"">dYdARDM</p>","","","","","","","",""
"html-keyboard-response","108","225797","0.0-9.0-0.20","605c9355001a5eb6d51e657d","64b003020eef62ee308107cc","64b03511972d6ef22a0e0f74","null","null","<p style=""font-size: 60px; font-family: BACS"">UdumdGQYQ</p>","","","","","","","",""
"html-keyboard-response","109","226808","0.0-9.0-0.21","605c9355001a5eb6d51e657d","64b003020eef62ee308107cc","64b03511972d6ef22a0e0f74","null","null","<p style=""font-size: 60px; font-family: BACS"">UaZmakam</p>","","","","","","","",""
"html-keyboard-response","110","227817","0.0-9.0-0.22","605c9355001a5eb6d51e657d","64b003020eef62ee308107cc","64b03511972d6ef22a0e0f74","null","null","<p style=""font-size: 60px; font-family: BACS"">hbkdRDM</p>","","","","","","","",""
"html-keyboard-response","111","228822","0.0-9.0-0.23","605c9355001a5eb6d51e657d","64b003020eef62ee308107cc","64b03511972d6ef22a0e0f74","null","null","<p style=""font-size: 60px; font-family: BACS"">dMThkYBO</p>","","","","","","","",""
"html-keyboard-response","112","229829","0.0-9.0-0.24","605c9355001a5eb6d51e657d","64b003020eef62ee308107cc","64b03511972d6ef22a0e0f74","null","null","<p style=""font-size: 60px; font-family: BACS"">OAmAdRYlD</p>","","","","","","","",""
"html-keyboard-response","113","230839","0.0-9.0-0.25","605c9355001a5eb6d51e657d","64b003020eef62ee308107cc","64b03511972d6ef22a0e0f74","null","null","<p style=""font-size: 60px; font-family: BACS"">UaYLJUNa</p>","","","","","","","",""
"html-keyboard-response","114","231851","0.0-9.0-0.26","605c9355001a5eb6d51e657d","64b003020eef62ee308107cc","64b03511972d6ef22a0e0f74","null","null","<p style=""font-size: 60px; font-family: BACS"">TAdhMRDM</p>","","","","","","","",""
"html-keyboard-response","115","232859","0.0-9.0-0.27","605c9355001a5eb6d51e657d","64b003020eef62ee308107cc","64b03511972d6ef22a0e0f74","null","null","<p style=""font-size: 60px; font-family: BACS"">chEDOYBO</p>","","","","","","","",""
"html-keyboard-response","116","233868","0.0-9.0-0.28","605c9355001a5eb6d51e657d","64b003020eef62ee308107cc","64b03511972d6ef22a0e0f74","null","null","<p style=""font-size: 60px; font-family: BACS"">lBKtcthB</p>","","","","","","","",""
"html-keyboard-response","117","234881","0.0-9.0-0.29","605c9355001a5eb6d51e657d","64b003020eef62ee308107cc","64b03511972d6ef22a0e0f74","null","null","<p style=""font-size: 60px; font-family: BACS"">DlDdRDM</p>","","","","","","","",""
"html-keyboard-response","118","235890","0.0-9.0-0.30","605c9355001a5eb6d51e657d","64b003020eef62ee308107cc","64b03511972d6ef22a0e0f74","null","null","<p style=""font-size: 60px; font-family: BACS"">rdLJaGrub</p>","","","","","","","",""
"html-keyboard-response","119","236892","0.0-9.0-0.31","605c9355001a5eb6d51e657d","64b003020eef62ee308107cc","64b03511972d6ef22a0e0f74","null","null","<p style=""font-size: 60px; font-family: BACS"">bmbNJUNa</p>","","","","","","","",""
"html-keyboard-response","120","237903","0.0-9.0-0.32","605c9355001a5eb6d51e657d","64b003020eef62ee308107cc","64b03511972d6ef22a0e0f74","null","null","<p style=""font-size: 60px; font-family: BACS"">ZkGmYGrub</p>","","","","","","","",""
"html-keyboard-response","121","238913","0.0-9.0-0.33","605c9355001a5eb6d51e657d","64b003020eef62ee308107cc","64b03511972d6ef22a0e0f74","null","null","<p style=""font-size: 60px; font-family: BACS"">TPCbRYlD</p>","","","","","","","",""
"html-keyboard-response","122","239920","0.0-9.0-0.34","605c9355001a5eb6d51e657d","64b003020eef62ee308107cc","64b03511972d6ef22a0e0f74","null","null","<p style=""font-size: 60px; font-family: BACS"">GLYrAkam</p>","","","","","","","",""
"html-keyboard-response","123","240934","0.0-9.0-0.35","605c9355001a5eb6d51e657d","64b003020eef62ee308107cc","64b03511972d6ef22a0e0f74","null","null","<p style=""font-size: 60px; font-family: BACS"">ZkGmYrkra</p>","","","","","","","",""
"html-keyboard-response","124","241945","0.0-9.0-0.36","605c9355001a5eb6d51e657d","64b003020eef62ee308107cc","64b03511972d6ef22a0e0f74","null","null","<p style=""font-size: 60px; font-family: BACS"">UdumdGrub</p>","","","","","","","",""
"html-keyboard-response","125","242946","0.0-9.0-0.37","605c9355001a5eb6d51e657d","64b003020eef62ee308107cc","64b03511972d6ef22a0e0f74","null","null","<p style=""font-size: 60px; font-family: BACS"">JauQrkra</p>","","","","","","","",""
"html-keyboard-response","126","243947","0.0-9.0-0.38","605c9355001a5eb6d51e657d","64b003020eef62ee308107cc","64b03511972d6ef22a0e0f74","null","null","<p style=""font-size: 60px; font-family: BACS"">UdumdJUNa</p>","","","","","","","",""
"html-keyboard-response","127","244959","0.0-9.0-0.39","605c9355001a5eb6d51e657d","64b003020eef62ee308107cc","64b03511972d6ef22a0e0f74","null","null","<p style=""font-size: 60px; font-family: BACS"">hbkdYBO</p>","","","","","","","",""
"html-keyboard-response","128","245967","0.0-9.0-0.40","605c9355001a5eb6d51e657d","64b003020eef62ee308107cc","64b03511972d6ef22a0e0f74","null","null","<p style=""font-size: 60px; font-family: BACS"">JauQGQYQ</p>","","","","","","","",""
"html-keyboard-response","129","246976","0.0-9.0-0.41","605c9355001a5eb6d51e657d","64b003020eef62ee308107cc","64b03511972d6ef22a0e0f74","null","null","<p style=""font-size: 60px; font-family: BACS"">bAdkRDM</p>","","","","","","","",""
"html-keyboard-response","130","247977","0.0-9.0-0.42","605c9355001a5eb6d51e657d","64b003020eef62ee308107cc","64b03511972d6ef22a0e0f74","null","null","<p style=""font-size: 60px; font-family: BACS"">bmbNGQYQ</p>","","","","","","","",""
"html-keyboard-response","131","248979","0.0-9.0-0.43","605c9355001a5eb6d51e657d","64b003020eef62ee308107cc","64b03511972d6ef22a0e0f74","null","null","<p style=""font-size: 60px; font-family: BACS"">GLYrAJUNa</p>","","","","","","","",""
"html-keyboard-response","132","249987","0.0-9.0-0.44","605c9355001a5eb6d51e657d","64b003020eef62ee308107cc","64b03511972d6ef22a0e0f74","null","null","<p style=""font-size: 60px; font-family: BACS"">bmbNGrub</p>","","","","","","","",""
"html-keyboard-response","133","250995","0.0-9.0-0.45","605c9355001a5eb6d51e657d","64b003020eef62ee308107cc","64b03511972d6ef22a0e0f74","null","null","<p style=""font-size: 60px; font-family: BACS"">TPCbPED</p>","","","","","","","",""
"html-keyboard-response","134","252006","0.0-9.0-0.46","605c9355001a5eb6d51e657d","64b003020eef62ee308107cc","64b03511972d6ef22a0e0f74","null","null","<p style=""font-size: 60px; font-family: BACS"">OAmAdcthB</p>","","","","","","","",""
"html-keyboard-response","135","253018","0.0-9.0-0.47","605c9355001a5eb6d51e657d","64b003020eef62ee308107cc","64b03511972d6ef22a0e0f74","null","null","<p style=""font-size: 60px; font-family: BACS"">kNuaGrub</p>","","","","","","","",""
"html-keyboard-response","136","254026","0.0-9.0-0.48","605c9355001a5eb6d51e657d","64b003020eef62ee308107cc","64b03511972d6ef22a0e0f74","null","null","<p style=""font-size: 60px; font-family: BACS"">GLYrAGQYQ</p>","","","","","","","",""
"html-keyboard-response","137","255037","0.0-9.0-0.49","605c9355001a5eb6d51e657d","64b003020eef62ee308107cc","64b03511972d6ef22a0e0f74","null","null","<p style=""font-size: 60px; font-family: BACS"">DlDdcthB</p>","","","","","","","",""
"html-keyboard-response","138","256051","0.0-9.0-0.50","605c9355001a5eb6d51e657d","64b003020eef62ee308107cc","64b03511972d6ef22a0e0f74","null","null","<p style=""font-size: 60px; font-family: BACS"">rdLJarkra</p>","","","","","","","",""
"html-keyboard-response","139","257061","0.0-9.0-0.51","605c9355001a5eb6d51e657d","64b003020eef62ee308107cc","64b03511972d6ef22a0e0f74","null","null","<p style=""font-size: 60px; font-family: BACS"">bAdkcthB</p>","","","","","","","",""
"html-keyboard-response","140","258070","0.0-9.0-0.52","605c9355001a5eb6d51e657d","64b003020eef62ee308107cc","64b03511972d6ef22a0e0f74","null","null","<p style=""font-size: 60px; font-family: BACS"">kNuakam</p>","","","","","","","",""
"html-keyboard-response","141","259084","0.0-9.0-0.53","605c9355001a5eb6d51e657d","64b003020eef62ee308107cc","64b03511972d6ef22a0e0f74","null","null","<p style=""font-size: 60px; font-family: BACS"">dYdActhB</p>","","","","","","","",""
"html-keyboard-response","142","260098","0.0-9.0-0.54","605c9355001a5eb6d51e657d","64b003020eef62ee308107cc","64b03511972d6ef22a0e0f74","null","null","<p style=""font-size: 60px; font-family: BACS"">UaZmaGrub</p>","","","","","","","",""
"html-keyboard-response","143","261108","0.0-9.0-0.55","605c9355001a5eb6d51e657d","64b003020eef62ee308107cc","64b03511972d6ef22a0e0f74","null","null","<p style=""font-size: 60px; font-family: BACS"">Udumdkam</p>","","","","","","","",""
"html-keyboard-response","144","262120","0.0-9.0-0.56","605c9355001a5eb6d51e657d","64b003020eef62ee308107cc","64b03511972d6ef22a0e0f74","null","null","<p style=""font-size: 60px; font-family: BACS"">dYdAPED</p>","","","","","","","",""
"html-keyboard-response","145","263131","0.0-9.0-0.57","605c9355001a5eb6d51e657d","64b003020eef62ee308107cc","64b03511972d6ef22a0e0f74","null","null","<p style=""font-size: 60px; font-family: BACS"">ZkGmYJUNa</p>","","","","","","","",""
"html-keyboard-response","146","264139","0.0-9.0-0.58","605c9355001a5eb6d51e657d","64b003020eef62ee308107cc","64b03511972d6ef22a0e0f74","null","null","<p style=""font-size: 60px; font-family: BACS"">kNuarkra</p>","","","","","","","",""
"html-keyboard-response","147","265149","0.0-9.0-0.59","605c9355001a5eb6d51e657d","64b003020eef62ee308107cc","64b03511972d6ef22a0e0f74","null","null","<p style=""font-size: 60px; font-family: BACS"">TPCbRDM</p>","","","","","","","",""
"html-keyboard-response","148","266162","0.0-9.0-0.60","605c9355001a5eb6d51e657d","64b003020eef62ee308107cc","64b03511972d6ef22a0e0f74","null","null","<p style=""font-size: 60px; font-family: BACS"">TAdhMRYlD</p>","","","","","","","",""
"html-keyboard-response","149","267175","0.0-9.0-0.61","605c9355001a5eb6d51e657d","64b003020eef62ee308107cc","64b03511972d6ef22a0e0f74","null","null","<p style=""font-size: 60px; font-family: BACS"">ZkGmYkam</p>","","","","","","","",""
"html-keyboard-response","150","268188","0.0-9.0-0.62","605c9355001a5eb6d51e657d","64b003020eef62ee308107cc","64b03511972d6ef22a0e0f74","null","null","<p style=""font-size: 60px; font-family: BACS"">DlDdYBO</p>","","","","","","","",""
"html-keyboard-response","151","269198","0.0-9.0-0.63","605c9355001a5eb6d51e657d","64b003020eef62ee308107cc","64b03511972d6ef22a0e0f74","null","null","<p style=""font-size: 60px; font-family: BACS"">rckOrkra</p>","","","","","","","",""
"html-keyboard-response","152","270213","0.0-9.0-0.64","605c9355001a5eb6d51e657d","64b003020eef62ee308107cc","64b03511972d6ef22a0e0f74","null","null","<p style=""font-size: 60px; font-family: BACS"">bAdkRYlD</p>","","","","","","","",""
"html-keyboard-response","153","271226","0.0-9.0-0.65","605c9355001a5eb6d51e657d","64b003020eef62ee308107cc","64b03511972d6ef22a0e0f74","null","null","<p style=""font-size: 60px; font-family: BACS"">OAmAdYBO</p>","","","","","","","",""
"html-keyboard-response","154","272237","0.0-9.0-0.66","605c9355001a5eb6d51e657d","64b003020eef62ee308107cc","64b03511972d6ef22a0e0f74","null","null","<p style=""font-size: 60px; font-family: BACS"">UaYLkam</p>","","","","","","","",""
"html-keyboard-response","155","273246","0.0-9.0-0.67","605c9355001a5eb6d51e657d","64b003020eef62ee308107cc","64b03511972d6ef22a0e0f74","null","null","<p style=""font-size: 60px; font-family: BACS"">bAdkPED</p>","","","","","","","",""
"html-keyboard-response","156","274256","0.0-9.0-0.68","605c9355001a5eb6d51e657d","64b003020eef62ee308107cc","64b03511972d6ef22a0e0f74","null","null","<p style=""font-size: 60px; font-family: BACS"">dMThkRYlD</p>","","","","","","","",""
"html-keyboard-response","157","275263","0.0-9.0-0.69","605c9355001a5eb6d51e657d","64b003020eef62ee308107cc","64b03511972d6ef22a0e0f74","null","null","<p style=""font-size: 60px; font-family: BACS"">OAmAdPED</p>","","","","","","","",""
"html-keyboard-response","158","276275","0.0-9.0-0.70","605c9355001a5eb6d51e657d","64b003020eef62ee308107cc","64b03511972d6ef22a0e0f74","null","null","<p style=""font-size: 60px; font-family: BACS"">UaZmaGQYQ</p>","","","","","","","",""
"html-keyboard-response","159","277275","0.0-9.0-0.71","605c9355001a5eb6d51e657d","64b003020eef62ee308107cc","64b03511972d6ef22a0e0f74","null","null","<p style=""font-size: 60px; font-family: BACS"">TAdhMYBO</p>","","","","","","","",""
"html-keyboard-response","160","278282","0.0-9.0-0.72","605c9355001a5eb6d51e657d","64b003020eef62ee308107cc","64b03511972d6ef22a0e0f74","null","null","<p style=""font-size: 60px; font-family: BACS"">DlDdPED</p>","","","","","","","",""
"html-keyboard-response","161","279290","0.0-9.0-0.73","605c9355001a5eb6d51e657d","64b003020eef62ee308107cc","64b03511972d6ef22a0e0f74","null","null","<p style=""font-size: 60px; font-family: BACS"">rdLJakam</p>","","","","","","","",""
"html-keyboard-response","162","280303","0.0-9.0-0.74","605c9355001a5eb6d51e657d","64b003020eef62ee308107cc","64b03511972d6ef22a0e0f74","null","null","<p style=""font-size: 60px; font-family: BACS"">lBKtRDM</p>","","","","","","","",""
"html-keyboard-response","163","281315","0.0-9.0-0.75","605c9355001a5eb6d51e657d","64b003020eef62ee308107cc","64b03511972d6ef22a0e0f74","null","null","<p style=""font-size: 60px; font-family: BACS"">hbkdPED</p>","","","","","","","",""
"html-keyboard-response","164","282315","0.0-9.0-0.76","605c9355001a5eb6d51e657d","64b003020eef62ee308107cc","64b03511972d6ef22a0e0f74","null","null","<p style=""font-size: 60px; font-family: BACS"">chEDOcthB</p>","","","","","","","",""
"html-keyboard-response","165","283316","0.0-9.0-0.77","605c9355001a5eb6d51e657d","64b003020eef62ee308107cc","64b03511972d6ef22a0e0f74","null","null","<p style=""font-size: 60px; font-family: BACS"">lBKtPED</p>","","","","","","","",""
"html-keyboard-response","166","284328","0.0-9.0-0.78","605c9355001a5eb6d51e657d","64b003020eef62ee308107cc","64b03511972d6ef22a0e0f74","null","null","<p style=""font-size: 60px; font-family: BACS"">TPCbYBO</p>","","","","","","","",""
"html-keyboard-response","167","285337","0.0-9.0-0.79","605c9355001a5eb6d51e657d","64b003020eef62ee308107cc","64b03511972d6ef22a0e0f74","null","null","<p style=""font-size: 60px; font-family: BACS"">rdLJaGQYQ</p>","","","","","","","",""
"html-keyboard-response","168","316170","0.0-10.0","605c9355001a5eb6d51e657d","64b003020eef62ee308107cc","64b03511972d6ef22a0e0f74","30833"," ","<p>Ottimo, hai visto il secondo blocco di parole. Ora puoi prenderti una piccola pausa.</p>
      <p>Premi la barra quando sei pronta/o per riprendere.</p>","","","","","","","",""
"html-keyboard-response","169","317174","0.0-11.0-0.0","605c9355001a5eb6d51e657d","64b003020eef62ee308107cc","64b03511972d6ef22a0e0f74","null","null","<p style=""font-size: 60px; font-family: BACS"">bmbNrkra</p>","","","","","","","",""
"html-keyboard-response","170","318184","0.0-11.0-0.1","605c9355001a5eb6d51e657d","64b003020eef62ee308107cc","64b03511972d6ef22a0e0f74","null","null","<p style=""font-size: 60px; font-family: BACS"">UaZmaJUNa</p>","","","","","","","",""
"html-keyboard-response","171","319193","0.0-11.0-0.2","605c9355001a5eb6d51e657d","64b003020eef62ee308107cc","64b03511972d6ef22a0e0f74","null","null","<p style=""font-size: 60px; font-family: BACS"">GLYrArkra</p>","","","","","","","",""
"html-keyboard-response","172","320194","0.0-11.0-0.3","605c9355001a5eb6d51e657d","64b003020eef62ee308107cc","64b03511972d6ef22a0e0f74","null","null","<p style=""font-size: 60px; font-family: BACS"">TAdhMRYlD</p>","","","","","","","",""
"html-keyboard-response","173","321194","0.0-11.0-0.4","605c9355001a5eb6d51e657d","64b003020eef62ee308107cc","64b03511972d6ef22a0e0f74","null","null","<p style=""font-size: 60px; font-family: BACS"">chEDOcthB</p>","","","","","","","",""
"html-keyboard-response","174","322208","0.0-11.0-0.5","605c9355001a5eb6d51e657d","64b003020eef62ee308107cc","64b03511972d6ef22a0e0f74","null","null","<p style=""font-size: 60px; font-family: BACS"">hbkdRYlD</p>","","","","","","","",""
"html-keyboard-response","175","323217","0.0-11.0-0.6","605c9355001a5eb6d51e657d","64b003020eef62ee308107cc","64b03511972d6ef22a0e0f74","null","null","<p style=""font-size: 60px; font-family: BACS"">rckOrkra</p>","","","","","","","",""
"html-keyboard-response","176","324232","0.0-11.0-0.7","605c9355001a5eb6d51e657d","64b003020eef62ee308107cc","64b03511972d6ef22a0e0f74","null","null","<p style=""font-size: 60px; font-family: BACS"">ZkGmYkam</p>","","","","","","","",""
"html-keyboard-response","177","325242","0.0-11.0-0.8","605c9355001a5eb6d51e657d","64b003020eef62ee308107cc","64b03511972d6ef22a0e0f74","null","null","<p style=""font-size: 60px; font-family: BACS"">dYdActhB</p>","","","","","","","",""
"html-keyboard-response","178","326252","0.0-11.0-0.9","605c9355001a5eb6d51e657d","64b003020eef62ee308107cc","64b03511972d6ef22a0e0f74","null","null","<p style=""font-size: 60px; font-family: BACS"">rdLJarkra</p>","","","","","","","",""
"html-keyboard-response","179","327263","0.0-11.0-0.10","605c9355001a5eb6d51e657d","64b003020eef62ee308107cc","64b03511972d6ef22a0e0f74","null","null","<p style=""font-size: 60px; font-family: BACS"">dYdAPED</p>","","","","","","","",""
"html-keyboard-response","180","328275","0.0-11.0-0.11","605c9355001a5eb6d51e657d","64b003020eef62ee308107cc","64b03511972d6ef22a0e0f74","null","null","<p style=""font-size: 60px; font-family: BACS"">dMThkRYlD</p>","","","","","","","",""
"html-keyboard-response","181","329287","0.0-11.0-0.12","605c9355001a5eb6d51e657d","64b003020eef62ee308107cc","64b03511972d6ef22a0e0f74","null","null","<p style=""font-size: 60px; font-family: BACS"">JauQGQYQ</p>","","","","","","","",""
"html-keyboard-response","182","330289","0.0-11.0-0.13","605c9355001a5eb6d51e657d","64b003020eef62ee308107cc","64b03511972d6ef22a0e0f74","null","null","<p style=""font-size: 60px; font-family: BACS"">dMThkcthB</p>","","","","","","","",""
"html-keyboard-response","183","331304","0.0-11.0-0.14","605c9355001a5eb6d51e657d","64b003020eef62ee308107cc","64b03511972d6ef22a0e0f74","null","null","<p style=""font-size: 60px; font-family: BACS"">UdumdGrub</p>","","","","","","","",""
"html-keyboard-response","184","332310","0.0-11.0-0.15","605c9355001a5eb6d51e657d","64b003020eef62ee308107cc","64b03511972d6ef22a0e0f74","null","null","<p style=""font-size: 60px; font-family: BACS"">bAdkRYlD</p>","","","","","","","",""
"html-keyboard-response","185","333311","0.0-11.0-0.16","605c9355001a5eb6d51e657d","64b003020eef62ee308107cc","64b03511972d6ef22a0e0f74","null","null","<p style=""font-size: 60px; font-family: BACS"">UdumdGQYQ</p>","","","","","","","",""
"html-keyboard-response","186","334321","0.0-11.0-0.17","605c9355001a5eb6d51e657d","64b003020eef62ee308107cc","64b03511972d6ef22a0e0f74","null","null","<p style=""font-size: 60px; font-family: BACS"">dYdARDM</p>","","","","","","","",""
"html-keyboard-response","187","335328","0.0-11.0-0.18","605c9355001a5eb6d51e657d","64b003020eef62ee308107cc","64b03511972d6ef22a0e0f74","null","null","<p style=""font-size: 60px; font-family: BACS"">OAmAdRYlD</p>","","","","","","","",""
"html-keyboard-response","188","336339","0.0-11.0-0.19","605c9355001a5eb6d51e657d","64b003020eef62ee308107cc","64b03511972d6ef22a0e0f74","null","null","<p style=""font-size: 60px; font-family: BACS"">dMThkRDM</p>","","","","","","","",""
"html-keyboard-response","189","337343","0.0-11.0-0.20","605c9355001a5eb6d51e657d","64b003020eef62ee308107cc","64b03511972d6ef22a0e0f74","null","null","<p style=""font-size: 60px; font-family: BACS"">TPCbPED</p>","","","","","","","",""
"html-keyboard-response","190","338345","0.0-11.0-0.21","605c9355001a5eb6d51e657d","64b003020eef62ee308107cc","64b03511972d6ef22a0e0f74","null","null","<p style=""font-size: 60px; font-family: BACS"">chEDOYBO</p>","","","","","","","",""
"html-keyboard-response","191","339345","0.0-11.0-0.22","605c9355001a5eb6d51e657d","64b003020eef62ee308107cc","64b03511972d6ef22a0e0f74","null","null","<p style=""font-size: 60px; font-family: BACS"">rdLJaGQYQ</p>","","","","","","","",""
"html-keyboard-response","192","340359","0.0-11.0-0.23","605c9355001a5eb6d51e657d","64b003020eef62ee308107cc","64b03511972d6ef22a0e0f74","null","null","<p style=""font-size: 60px; font-family: BACS"">hbkdRDM</p>","","","","","","","",""
"html-keyboard-response","193","341367","0.0-11.0-0.24","605c9355001a5eb6d51e657d","64b003020eef62ee308107cc","64b03511972d6ef22a0e0f74","null","null","<p style=""font-size: 60px; font-family: BACS"">JauQkam</p>","","","","","","","",""
"html-keyboard-response","194","342376","0.0-11.0-0.25","605c9355001a5eb6d51e657d","64b003020eef62ee308107cc","64b03511972d6ef22a0e0f74","null","null","<p style=""font-size: 60px; font-family: BACS"">dMThkYBO</p>","","","","","","","",""
"html-keyboard-response","195","343387","0.0-11.0-0.26","605c9355001a5eb6d51e657d","64b003020eef62ee308107cc","64b03511972d6ef22a0e0f74","null","null","<p style=""font-size: 60px; font-family: BACS"">GLYrAkam</p>","","","","","","","",""
"html-keyboard-response","196","344398","0.0-11.0-0.27","605c9355001a5eb6d51e657d","64b003020eef62ee308107cc","64b03511972d6ef22a0e0f74","null","null","<p style=""font-size: 60px; font-family: BACS"">JauQJUNa</p>","","","","","","","",""
"html-keyboard-response","197","345404","0.0-11.0-0.28","605c9355001a5eb6d51e657d","64b003020eef62ee308107cc","64b03511972d6ef22a0e0f74","null","null","<p style=""font-size: 60px; font-family: BACS"">Udumdkam</p>","","","","","","","",""
"html-keyboard-response","198","346417","0.0-11.0-0.29","605c9355001a5eb6d51e657d","64b003020eef62ee308107cc","64b03511972d6ef22a0e0f74","null","null","<p style=""font-size: 60px; font-family: BACS"">UaYLJUNa</p>","","","","","","","",""
"html-keyboard-response","199","347421","0.0-11.0-0.30","605c9355001a5eb6d51e657d","64b003020eef62ee308107cc","64b03511972d6ef22a0e0f74","null","null","<p style=""font-size: 60px; font-family: BACS"">lBKtPED</p>","","","","","","","",""
"html-keyboard-response","200","348429","0.0-11.0-0.31","605c9355001a5eb6d51e657d","64b003020eef62ee308107cc","64b03511972d6ef22a0e0f74","null","null","<p style=""font-size: 60px; font-family: BACS"">rckOGQYQ</p>","","","","","","","",""
"html-keyboard-response","201","349435","0.0-11.0-0.32","605c9355001a5eb6d51e657d","64b003020eef62ee308107cc","64b03511972d6ef22a0e0f74","null","null","<p style=""font-size: 60px; font-family: BACS"">bmbNGrub</p>","","","","","","","",""
"html-keyboard-response","202","350443","0.0-11.0-0.33","605c9355001a5eb6d51e657d","64b003020eef62ee308107cc","64b03511972d6ef22a0e0f74","null","null","<p style=""font-size: 60px; font-family: BACS"">kNuarkra</p>","","","","","","","",""
"html-keyboard-response","203","351444","0.0-11.0-0.34","605c9355001a5eb6d51e657d","64b003020eef62ee308107cc","64b03511972d6ef22a0e0f74","null","null","<p style=""font-size: 60px; font-family: BACS"">lBKtcthB</p>","","","","","","","",""
"html-keyboard-response","204","352451","0.0-11.0-0.35","605c9355001a5eb6d51e657d","64b003020eef62ee308107cc","64b03511972d6ef22a0e0f74","null","null","<p style=""font-size: 60px; font-family: BACS"">chEDOPED</p>","","","","","","","",""
"html-keyboard-response","205","353462","0.0-11.0-0.36","605c9355001a5eb6d51e657d","64b003020eef62ee308107cc","64b03511972d6ef22a0e0f74","null","null","<p style=""font-size: 60px; font-family: BACS"">rckOJUNa</p>","","","","","","","",""
"html-keyboard-response","206","354470","0.0-11.0-0.37","605c9355001a5eb6d51e657d","64b003020eef62ee308107cc","64b03511972d6ef22a0e0f74","null","null","<p style=""font-size: 60px; font-family: BACS"">TAdhMRDM</p>","","","","","","","",""
"html-keyboard-response","207","355480","0.0-11.0-0.38","605c9355001a5eb6d51e657d","64b003020eef62ee308107cc","64b03511972d6ef22a0e0f74","null","null","<p style=""font-size: 60px; font-family: BACS"">bmbNGQYQ</p>","","","","","","","",""
"html-keyboard-response","208","356491","0.0-11.0-0.39","605c9355001a5eb6d51e657d","64b003020eef62ee308107cc","64b03511972d6ef22a0e0f74","null","null","<p style=""font-size: 60px; font-family: BACS"">ZkGmYGrub</p>","","","","","","","",""
"html-keyboard-response","209","357500","0.0-11.0-0.40","605c9355001a5eb6d51e657d","64b003020eef62ee308107cc","64b03511972d6ef22a0e0f74","null","null","<p style=""font-size: 60px; font-family: BACS"">DlDdYBO</p>","","","","","","","",""
"html-keyboard-response","210","358506","0.0-11.0-0.41","605c9355001a5eb6d51e657d","64b003020eef62ee308107cc","64b03511972d6ef22a0e0f74","null","null","<p style=""font-size: 60px; font-family: BACS"">UaZmakam</p>","","","","","","","",""
"html-keyboard-response","211","359507","0.0-11.0-0.42","605c9355001a5eb6d51e657d","64b003020eef62ee308107cc","64b03511972d6ef22a0e0f74","null","null","<p style=""font-size: 60px; font-family: BACS"">DlDdRDM</p>","","","","","","","",""
"html-keyboard-response","212","360516","0.0-11.0-0.43","605c9355001a5eb6d51e657d","64b003020eef62ee308107cc","64b03511972d6ef22a0e0f74","null","null","<p style=""font-size: 60px; font-family: BACS"">UaYLrkra</p>","","","","","","","",""
"html-keyboard-response","213","361532","0.0-11.0-0.44","605c9355001a5eb6d51e657d","64b003020eef62ee308107cc","64b03511972d6ef22a0e0f74","null","null","<p style=""font-size: 60px; font-family: BACS"">bAdkRDM</p>","","","","","","","",""
"html-keyboard-response","214","362544","0.0-11.0-0.45","605c9355001a5eb6d51e657d","64b003020eef62ee308107cc","64b03511972d6ef22a0e0f74","null","null","<p style=""font-size: 60px; font-family: BACS"">rdLJakam</p>","","","","","","","",""
"html-keyboard-response","215","363545","0.0-11.0-0.46","605c9355001a5eb6d51e657d","64b003020eef62ee308107cc","64b03511972d6ef22a0e0f74","null","null","<p style=""font-size: 60px; font-family: BACS"">GLYrAJUNa</p>","","","","","","","",""
"html-keyboard-response","216","364555","0.0-11.0-0.47","605c9355001a5eb6d51e657d","64b003020eef62ee308107cc","64b03511972d6ef22a0e0f74","null","null","<p style=""font-size: 60px; font-family: BACS"">TAdhMcthB</p>","","","","","","","",""
"html-keyboard-response","217","365567","0.0-11.0-0.48","605c9355001a5eb6d51e657d","64b003020eef62ee308107cc","64b03511972d6ef22a0e0f74","null","null","<p style=""font-size: 60px; font-family: BACS"">UaZmaGrub</p>","","","","","","","",""
"html-keyboard-response","218","366574","0.0-11.0-0.49","605c9355001a5eb6d51e657d","64b003020eef62ee308107cc","64b03511972d6ef22a0e0f74","null","null","<p style=""font-size: 60px; font-family: BACS"">OAmAdYBO</p>","","","","","","","",""
"html-keyboard-response","219","367575","0.0-11.0-0.50","605c9355001a5eb6d51e657d","64b003020eef62ee308107cc","64b03511972d6ef22a0e0f74","null","null","<p style=""font-size: 60px; font-family: BACS"">kNuakam</p>","","","","","","","",""
"html-keyboard-response","220","368576","0.0-11.0-0.51","605c9355001a5eb6d51e657d","64b003020eef62ee308107cc","64b03511972d6ef22a0e0f74","null","null","<p style=""font-size: 60px; font-family: BACS"">TPCbRYlD</p>","","","","","","","",""
"html-keyboard-response","221","369580","0.0-11.0-0.52","605c9355001a5eb6d51e657d","64b003020eef62ee308107cc","64b03511972d6ef22a0e0f74","null","null","<p style=""font-size: 60px; font-family: BACS"">lBKtRDM</p>","","","","","","","",""
"html-keyboard-response","222","370587","0.0-11.0-0.53","605c9355001a5eb6d51e657d","64b003020eef62ee308107cc","64b03511972d6ef22a0e0f74","null","null","<p style=""font-size: 60px; font-family: BACS"">UaYLGrub</p>","","","","","","","",""
"html-keyboard-response","223","371588","0.0-11.0-0.54","605c9355001a5eb6d51e657d","64b003020eef62ee308107cc","64b03511972d6ef22a0e0f74","null","null","<p style=""font-size: 60px; font-family: BACS"">dYdAYBO</p>","","","","","","","",""
"html-keyboard-response","224","372588","0.0-11.0-0.55","605c9355001a5eb6d51e657d","64b003020eef62ee308107cc","64b03511972d6ef22a0e0f74","null","null","<p style=""font-size: 60px; font-family: BACS"">rckOGrub</p>","","","","","","","",""
"html-keyboard-response","225","373600","0.0-11.0-0.56","605c9355001a5eb6d51e657d","64b003020eef62ee308107cc","64b03511972d6ef22a0e0f74","null","null","<p style=""font-size: 60px; font-family: BACS"">bAdkcthB</p>","","","","","","","",""
"html-keyboard-response","226","374607","0.0-11.0-0.57","605c9355001a5eb6d51e657d","64b003020eef62ee308107cc","64b03511972d6ef22a0e0f74","null","null","<p style=""font-size: 60px; font-family: BACS"">kNuaGrub</p>","","","","","","","",""
"html-keyboard-response","227","375619","0.0-11.0-0.58","605c9355001a5eb6d51e657d","64b003020eef62ee308107cc","64b03511972d6ef22a0e0f74","null","null","<p style=""font-size: 60px; font-family: BACS"">lBKtRYlD</p>","","","","","","","",""
"html-keyboard-response","228","376629","0.0-11.0-0.59","605c9355001a5eb6d51e657d","64b003020eef62ee308107cc","64b03511972d6ef22a0e0f74","null","null","<p style=""font-size: 60px; font-family: BACS"">JauQrkra</p>","","","","","","","",""
"html-keyboard-response","229","377630","0.0-11.0-0.60","605c9355001a5eb6d51e657d","64b003020eef62ee308107cc","64b03511972d6ef22a0e0f74","null","null","<p style=""font-size: 60px; font-family: BACS"">hbkdYBO</p>","","","","","","","",""
"html-keyboard-response","230","378635","0.0-11.0-0.61","605c9355001a5eb6d51e657d","64b003020eef62ee308107cc","64b03511972d6ef22a0e0f74","null","null","<p style=""font-size: 60px; font-family: BACS"">TPCbRDM</p>","","","","","","","",""
"html-keyboard-response","231","379648","0.0-11.0-0.62","605c9355001a5eb6d51e657d","64b003020eef62ee308107cc","64b03511972d6ef22a0e0f74","null","null","<p style=""font-size: 60px; font-family: BACS"">GLYrAGQYQ</p>","","","","","","","",""
"html-keyboard-response","232","380649","0.0-11.0-0.63","605c9355001a5eb6d51e657d","64b003020eef62ee308107cc","64b03511972d6ef22a0e0f74","null","null","<p style=""font-size: 60px; font-family: BACS"">TPCbYBO</p>","","","","","","","",""
"html-keyboard-response","233","381664","0.0-11.0-0.64","605c9355001a5eb6d51e657d","64b003020eef62ee308107cc","64b03511972d6ef22a0e0f74","null","null","<p style=""font-size: 60px; font-family: BACS"">UaZmaGQYQ</p>","","","","","","","",""
"html-keyboard-response","234","382674","0.0-11.0-0.65","605c9355001a5eb6d51e657d","64b003020eef62ee308107cc","64b03511972d6ef22a0e0f74","null","null","<p style=""font-size: 60px; font-family: BACS"">bAdkPED</p>","","","","","","","",""
"html-keyboard-response","235","383687","0.0-11.0-0.66","605c9355001a5eb6d51e657d","64b003020eef62ee308107cc","64b03511972d6ef22a0e0f74","null","null","<p style=""font-size: 60px; font-family: BACS"">UdumdJUNa</p>","","","","","","","",""
"html-keyboard-response","236","384698","0.0-11.0-0.67","605c9355001a5eb6d51e657d","64b003020eef62ee308107cc","64b03511972d6ef22a0e0f74","null","null","<p style=""font-size: 60px; font-family: BACS"">UaYLkam</p>","","","","","","","",""
"html-keyboard-response","237","385713","0.0-11.0-0.68","605c9355001a5eb6d51e657d","64b003020eef62ee308107cc","64b03511972d6ef22a0e0f74","null","null","<p style=""font-size: 60px; font-family: BACS"">ZkGmYJUNa</p>","","","","","","","",""
"html-keyboard-response","238","386724","0.0-11.0-0.69","605c9355001a5eb6d51e657d","64b003020eef62ee308107cc","64b03511972d6ef22a0e0f74","null","null","<p style=""font-size: 60px; font-family: BACS"">OAmAdcthB</p>","","","","","","","",""
"html-keyboard-response","239","387734","0.0-11.0-0.70","605c9355001a5eb6d51e657d","64b003020eef62ee308107cc","64b03511972d6ef22a0e0f74","null","null","<p style=""font-size: 60px; font-family: BACS"">bmbNJUNa</p>","","","","","","","",""
"html-keyboard-response","240","388741","0.0-11.0-0.71","605c9355001a5eb6d51e657d","64b003020eef62ee308107cc","64b03511972d6ef22a0e0f74","null","null","<p style=""font-size: 60px; font-family: BACS"">kNuaGQYQ</p>","","","","","","","",""
"html-keyboard-response","241","389749","0.0-11.0-0.72","605c9355001a5eb6d51e657d","64b003020eef62ee308107cc","64b03511972d6ef22a0e0f74","null","null","<p style=""font-size: 60px; font-family: BACS"">DlDdPED</p>","","","","","","","",""
"html-keyboard-response","242","390749","0.0-11.0-0.73","605c9355001a5eb6d51e657d","64b003020eef62ee308107cc","64b03511972d6ef22a0e0f74","null","null","<p style=""font-size: 60px; font-family: BACS"">rdLJaGrub</p>","","","","","","","",""
"html-keyboard-response","243","391751","0.0-11.0-0.74","605c9355001a5eb6d51e657d","64b003020eef62ee308107cc","64b03511972d6ef22a0e0f74","null","null","<p style=""font-size: 60px; font-family: BACS"">hbkdPED</p>","","","","","","","",""
"html-keyboard-response","244","392763","0.0-11.0-0.75","605c9355001a5eb6d51e657d","64b003020eef62ee308107cc","64b03511972d6ef22a0e0f74","null","null","<p style=""font-size: 60px; font-family: BACS"">chEDORYlD</p>","","","","","","","",""
"html-keyboard-response","245","393778","0.0-11.0-0.76","605c9355001a5eb6d51e657d","64b003020eef62ee308107cc","64b03511972d6ef22a0e0f74","null","null","<p style=""font-size: 60px; font-family: BACS"">OAmAdPED</p>","","","","","","","",""
"html-keyboard-response","246","394789","0.0-11.0-0.77","605c9355001a5eb6d51e657d","64b003020eef62ee308107cc","64b03511972d6ef22a0e0f74","null","null","<p style=""font-size: 60px; font-family: BACS"">TAdhMYBO</p>","","","","","","","",""
"html-keyboard-response","247","395795","0.0-11.0-0.78","605c9355001a5eb6d51e657d","64b003020eef62ee308107cc","64b03511972d6ef22a0e0f74","null","null","<p style=""font-size: 60px; font-family: BACS"">DlDdcthB</p>","","","","","","","",""
"html-keyboard-response","248","396797","0.0-11.0-0.79","605c9355001a5eb6d51e657d","64b003020eef62ee308107cc","64b03511972d6ef22a0e0f74","null","null","<p style=""font-size: 60px; font-family: BACS"">ZkGmYrkra</p>","","","","","","","",""
"html-keyboard-response","249","437427","0.0-12.0","605c9355001a5eb6d51e657d","64b003020eef62ee308107cc","64b03511972d6ef22a0e0f74","40630"," ","<p>Ottimo, hai visto il terzo blocco di parole. Ora puoi prenderti una piccola pausa.</p>
      <p>Premi la barra quando sei pronta/o per riprendere.</p>","","","","","","","",""
"html-keyboard-response","250","438441","0.0-13.0-0.0","605c9355001a5eb6d51e657d","64b003020eef62ee308107cc","64b03511972d6ef22a0e0f74","null","null","<p style=""font-size: 60px; font-family: BACS"">UaYLGrub</p>","","","","","","","",""
"html-keyboard-response","251","439442","0.0-13.0-0.1","605c9355001a5eb6d51e657d","64b003020eef62ee308107cc","64b03511972d6ef22a0e0f74","null","null","<p style=""font-size: 60px; font-family: BACS"">chEDORYlD</p>","","","","","","","",""
"html-keyboard-response","252","440457","0.0-13.0-0.2","605c9355001a5eb6d51e657d","64b003020eef62ee308107cc","64b03511972d6ef22a0e0f74","null","null","<p style=""font-size: 60px; font-family: BACS"">TPCbPED</p>","","","","","","","",""
"html-keyboard-response","253","441467","0.0-13.0-0.3","605c9355001a5eb6d51e657d","64b003020eef62ee308107cc","64b03511972d6ef22a0e0f74","null","null","<p style=""font-size: 60px; font-family: BACS"">GLYrArkra</p>","","","","","","","",""
"html-keyboard-response","254","442477","0.0-13.0-0.4","605c9355001a5eb6d51e657d","64b003020eef62ee308107cc","64b03511972d6ef22a0e0f74","null","null","<p style=""font-size: 60px; font-family: BACS"">rckOGQYQ</p>","","","","","","","",""
"html-keyboard-response","255","443489","0.0-13.0-0.5","605c9355001a5eb6d51e657d","64b003020eef62ee308107cc","64b03511972d6ef22a0e0f74","null","null","<p style=""font-size: 60px; font-family: BACS"">lBKtRDM</p>","","","","","","","",""
"html-keyboard-response","256","444490","0.0-13.0-0.6","605c9355001a5eb6d51e657d","64b003020eef62ee308107cc","64b03511972d6ef22a0e0f74","null","null","<p style=""font-size: 60px; font-family: BACS"">UaZmakam</p>","","","","","","","",""
"html-keyboard-response","257","445495","0.0-13.0-0.7","605c9355001a5eb6d51e657d","64b003020eef62ee308107cc","64b03511972d6ef22a0e0f74","null","null","<p style=""font-size: 60px; font-family: BACS"">chEDOPED</p>","","","","","","","",""
"html-keyboard-response","258","446502","0.0-13.0-0.8","605c9355001a5eb6d51e657d","64b003020eef62ee308107cc","64b03511972d6ef22a0e0f74","null","null","<p style=""font-size: 60px; font-family: BACS"">rdLJaGrub</p>","","","","","","","",""
"html-keyboard-response","259","447502","0.0-13.0-0.9","605c9355001a5eb6d51e657d","64b003020eef62ee308107cc","64b03511972d6ef22a0e0f74","null","null","<p style=""font-size: 60px; font-family: BACS"">DlDdcthB</p>","","","","","","","",""
"html-keyboard-response","260","448503","0.0-13.0-0.10","605c9355001a5eb6d51e657d","64b003020eef62ee308107cc","64b03511972d6ef22a0e0f74","null","null","<p style=""font-size: 60px; font-family: BACS"">JauQkam</p>","","","","","","","",""
"html-keyboard-response","261","449516","0.0-13.0-0.11","605c9355001a5eb6d51e657d","64b003020eef62ee308107cc","64b03511972d6ef22a0e0f74","null","null","<p style=""font-size: 60px; font-family: BACS"">UdumdGrub</p>","","","","","","","",""
"html-keyboard-response","262","450527","0.0-13.0-0.12","605c9355001a5eb6d51e657d","64b003020eef62ee308107cc","64b03511972d6ef22a0e0f74","null","null","<p style=""font-size: 60px; font-family: BACS"">dYdARDM</p>","","","","","","","",""
"html-keyboard-response","263","451528","0.0-13.0-0.13","605c9355001a5eb6d51e657d","64b003020eef62ee308107cc","64b03511972d6ef22a0e0f74","null","null","<p style=""font-size: 60px; font-family: BACS"">ZkGmYJUNa</p>","","","","","","","",""
"html-keyboard-response","264","452534","0.0-13.0-0.14","605c9355001a5eb6d51e657d","64b003020eef62ee308107cc","64b03511972d6ef22a0e0f74","null","null","<p style=""font-size: 60px; font-family: BACS"">kNuaGrub</p>","","","","","","","",""
"html-keyboard-response","265","453539","0.0-13.0-0.15","605c9355001a5eb6d51e657d","64b003020eef62ee308107cc","64b03511972d6ef22a0e0f74","null","null","<p style=""font-size: 60px; font-family: BACS"">TAdhMcthB</p>","","","","","","","",""
"html-keyboard-response","266","454549","0.0-13.0-0.16","605c9355001a5eb6d51e657d","64b003020eef62ee308107cc","64b03511972d6ef22a0e0f74","null","null","<p style=""font-size: 60px; font-family: BACS"">dMThkRYlD</p>","","","","","","","",""
"html-keyboard-response","267","455559","0.0-13.0-0.17","605c9355001a5eb6d51e657d","64b003020eef62ee308107cc","64b03511972d6ef22a0e0f74","null","null","<p style=""font-size: 60px; font-family: BACS"">UaYLJUNa</p>","","","","","","","",""
"html-keyboard-response","268","456561","0.0-13.0-0.18","605c9355001a5eb6d51e657d","64b003020eef62ee308107cc","64b03511972d6ef22a0e0f74","null","null","<p style=""font-size: 60px; font-family: BACS"">Udumdkam</p>","","","","","","","",""
"html-keyboard-response","269","457565","0.0-13.0-0.19","605c9355001a5eb6d51e657d","64b003020eef62ee308107cc","64b03511972d6ef22a0e0f74","null","null","<p style=""font-size: 60px; font-family: BACS"">lBKtRYlD</p>","","","","","","","",""
"html-keyboard-response","270","458570","0.0-13.0-0.20","605c9355001a5eb6d51e657d","64b003020eef62ee308107cc","64b03511972d6ef22a0e0f74","null","null","<p style=""font-size: 60px; font-family: BACS"">rdLJaGQYQ</p>","","","","","","","",""
"html-keyboard-response","271","459573","0.0-13.0-0.21","605c9355001a5eb6d51e657d","64b003020eef62ee308107cc","64b03511972d6ef22a0e0f74","null","null","<p style=""font-size: 60px; font-family: BACS"">UdumdJUNa</p>","","","","","","","",""
"html-keyboard-response","272","460580","0.0-13.0-0.22","605c9355001a5eb6d51e657d","64b003020eef62ee308107cc","64b03511972d6ef22a0e0f74","null","null","<p style=""font-size: 60px; font-family: BACS"">hbkdPED</p>","","","","","","","",""
"html-keyboard-response","273","461580","0.0-13.0-0.23","605c9355001a5eb6d51e657d","64b003020eef62ee308107cc","64b03511972d6ef22a0e0f74","null","null","<p style=""font-size: 60px; font-family: BACS"">JauQGQYQ</p>","","","","","","","",""
"html-keyboard-response","274","462594","0.0-13.0-0.24","605c9355001a5eb6d51e657d","64b003020eef62ee308107cc","64b03511972d6ef22a0e0f74","null","null","<p style=""font-size: 60px; font-family: BACS"">dYdActhB</p>","","","","","","","",""
"html-keyboard-response","275","463599","0.0-13.0-0.25","605c9355001a5eb6d51e657d","64b003020eef62ee308107cc","64b03511972d6ef22a0e0f74","null","null","<p style=""font-size: 60px; font-family: BACS"">bAdkRYlD</p>","","","","","","","",""
"html-keyboard-response","276","464603","0.0-13.0-0.26","605c9355001a5eb6d51e657d","64b003020eef62ee308107cc","64b03511972d6ef22a0e0f74","null","null","<p style=""font-size: 60px; font-family: BACS"">lBKtPED</p>","","","","","","","",""
"html-keyboard-response","277","465604","0.0-13.0-0.27","605c9355001a5eb6d51e657d","64b003020eef62ee308107cc","64b03511972d6ef22a0e0f74","null","null","<p style=""font-size: 60px; font-family: BACS"">chEDOcthB</p>","","","","","","","",""
"html-keyboard-response","278","466616","0.0-13.0-0.28","605c9355001a5eb6d51e657d","64b003020eef62ee308107cc","64b03511972d6ef22a0e0f74","null","null","<p style=""font-size: 60px; font-family: BACS"">kNuakam</p>","","","","","","","",""
"html-keyboard-response","279","467621","0.0-13.0-0.29","605c9355001a5eb6d51e657d","64b003020eef62ee308107cc","64b03511972d6ef22a0e0f74","null","null","<p style=""font-size: 60px; font-family: BACS"">rdLJarkra</p>","","","","","","","",""
"html-keyboard-response","280","468622","0.0-13.0-0.30","605c9355001a5eb6d51e657d","64b003020eef62ee308107cc","64b03511972d6ef22a0e0f74","null","null","<p style=""font-size: 60px; font-family: BACS"">hbkdRYlD</p>","","","","","","","",""
"html-keyboard-response","281","469627","0.0-13.0-0.31","605c9355001a5eb6d51e657d","64b003020eef62ee308107cc","64b03511972d6ef22a0e0f74","null","null","<p style=""font-size: 60px; font-family: BACS"">bAdkcthB</p>","","","","","","","",""
"html-keyboard-response","282","470632","0.0-13.0-0.32","605c9355001a5eb6d51e657d","64b003020eef62ee308107cc","64b03511972d6ef22a0e0f74","null","null","<p style=""font-size: 60px; font-family: BACS"">UdumdGQYQ</p>","","","","","","","",""
"html-keyboard-response","283","471642","0.0-13.0-0.33","605c9355001a5eb6d51e657d","64b003020eef62ee308107cc","64b03511972d6ef22a0e0f74","null","null","<p style=""font-size: 60px; font-family: BACS"">dMThkYBO</p>","","","","","","","",""
"html-keyboard-response","284","472646","0.0-13.0-0.34","605c9355001a5eb6d51e657d","64b003020eef62ee308107cc","64b03511972d6ef22a0e0f74","null","null","<p style=""font-size: 60px; font-family: BACS"">bmbNGrub</p>","","","","","","","",""
"html-keyboard-response","285","473647","0.0-13.0-0.35","605c9355001a5eb6d51e657d","64b003020eef62ee308107cc","64b03511972d6ef22a0e0f74","null","null","<p style=""font-size: 60px; font-family: BACS"">dYdAPED</p>","","","","","","","",""
"html-keyboard-response","286","474651","0.0-13.0-0.36","605c9355001a5eb6d51e657d","64b003020eef62ee308107cc","64b03511972d6ef22a0e0f74","null","null","<p style=""font-size: 60px; font-family: BACS"">JauQJUNa</p>","","","","","","","",""
"html-keyboard-response","287","475661","0.0-13.0-0.37","605c9355001a5eb6d51e657d","64b003020eef62ee308107cc","64b03511972d6ef22a0e0f74","null","null","<p style=""font-size: 60px; font-family: BACS"">UaYLrkra</p>","","","","","","","",""
"html-keyboard-response","288","476666","0.0-13.0-0.38","605c9355001a5eb6d51e657d","64b003020eef62ee308107cc","64b03511972d6ef22a0e0f74","null","null","<p style=""font-size: 60px; font-family: BACS"">DlDdYBO</p>","","","","","","","",""
"html-keyboard-response","289","477673","0.0-13.0-0.39","605c9355001a5eb6d51e657d","64b003020eef62ee308107cc","64b03511972d6ef22a0e0f74","null","null","<p style=""font-size: 60px; font-family: BACS"">rckOJUNa</p>","","","","","","","",""
"html-keyboard-response","290","478684","0.0-13.0-0.40","605c9355001a5eb6d51e657d","64b003020eef62ee308107cc","64b03511972d6ef22a0e0f74","null","null","<p style=""font-size: 60px; font-family: BACS"">ZkGmYrkra</p>","","","","","","","",""
"html-keyboard-response","291","479689","0.0-13.0-0.41","605c9355001a5eb6d51e657d","64b003020eef62ee308107cc","64b03511972d6ef22a0e0f74","null","null","<p style=""font-size: 60px; font-family: BACS"">rdLJakam</p>","","","","","","","",""
"html-keyboard-response","292","480695","0.0-13.0-0.42","605c9355001a5eb6d51e657d","64b003020eef62ee308107cc","64b03511972d6ef22a0e0f74","null","null","<p style=""font-size: 60px; font-family: BACS"">TPCbRYlD</p>","","","","","","","",""
"html-keyboard-response","293","481695","0.0-13.0-0.43","605c9355001a5eb6d51e657d","64b003020eef62ee308107cc","64b03511972d6ef22a0e0f74","null","null","<p style=""font-size: 60px; font-family: BACS"">dMThkRDM</p>","","","","","","","",""
"html-keyboard-response","294","482707","0.0-13.0-0.44","605c9355001a5eb6d51e657d","64b003020eef62ee308107cc","64b03511972d6ef22a0e0f74","null","null","<p style=""font-size: 60px; font-family: BACS"">GLYrAGQYQ</p>","","","","","","","",""
"html-keyboard-response","295","483716","0.0-13.0-0.45","605c9355001a5eb6d51e657d","64b003020eef62ee308107cc","64b03511972d6ef22a0e0f74","null","null","<p style=""font-size: 60px; font-family: BACS"">UaYLkam</p>","","","","","","","",""
"html-keyboard-response","296","484722","0.0-13.0-0.46","605c9355001a5eb6d51e657d","64b003020eef62ee308107cc","64b03511972d6ef22a0e0f74","null","null","<p style=""font-size: 60px; font-family: BACS"">TAdhMRDM</p>","","","","","","","",""
"html-keyboard-response","297","485723","0.0-13.0-0.47","605c9355001a5eb6d51e657d","64b003020eef62ee308107cc","64b03511972d6ef22a0e0f74","null","null","<p style=""font-size: 60px; font-family: BACS"">UaZmaGrub</p>","","","","","","","",""
"html-keyboard-response","298","486728","0.0-13.0-0.48","605c9355001a5eb6d51e657d","64b003020eef62ee308107cc","64b03511972d6ef22a0e0f74","null","null","<p style=""font-size: 60px; font-family: BACS"">rckOrkra</p>","","","","","","","",""
"html-keyboard-response","299","487731","0.0-13.0-0.49","605c9355001a5eb6d51e657d","64b003020eef62ee308107cc","64b03511972d6ef22a0e0f74","null","null","<p style=""font-size: 60px; font-family: BACS"">UaZmaGQYQ</p>","","","","","","","",""
"html-keyboard-response","300","488739","0.0-13.0-0.50","605c9355001a5eb6d51e657d","64b003020eef62ee308107cc","64b03511972d6ef22a0e0f74","null","null","<p style=""font-size: 60px; font-family: BACS"">TPCbYBO</p>","","","","","","","",""
"html-keyboard-response","301","489749","0.0-13.0-0.51","605c9355001a5eb6d51e657d","64b003020eef62ee308107cc","64b03511972d6ef22a0e0f74","null","null","<p style=""font-size: 60px; font-family: BACS"">hbkdRDM</p>","","","","","","","",""
"html-keyboard-response","302","490751","0.0-13.0-0.52","605c9355001a5eb6d51e657d","64b003020eef62ee308107cc","64b03511972d6ef22a0e0f74","null","null","<p style=""font-size: 60px; font-family: BACS"">bAdkPED</p>","","","","","","","",""
"html-keyboard-response","303","491757","0.0-13.0-0.53","605c9355001a5eb6d51e657d","64b003020eef62ee308107cc","64b03511972d6ef22a0e0f74","null","null","<p style=""font-size: 60px; font-family: BACS"">OAmAdRYlD</p>","","","","","","","",""
"html-keyboard-response","304","492766","0.0-13.0-0.54","605c9355001a5eb6d51e657d","64b003020eef62ee308107cc","64b03511972d6ef22a0e0f74","null","null","<p style=""font-size: 60px; font-family: BACS"">hbkdYBO</p>","","","","","","","",""
"html-keyboard-response","305","493777","0.0-13.0-0.55","605c9355001a5eb6d51e657d","64b003020eef62ee308107cc","64b03511972d6ef22a0e0f74","null","null","<p style=""font-size: 60px; font-family: BACS"">OAmAdPED</p>","","","","","","","",""
"html-keyboard-response","306","494783","0.0-13.0-0.56","605c9355001a5eb6d51e657d","64b003020eef62ee308107cc","64b03511972d6ef22a0e0f74","null","null","<p style=""font-size: 60px; font-family: BACS"">TAdhMYBO</p>","","","","","","","",""
"html-keyboard-response","307","495789","0.0-13.0-0.57","605c9355001a5eb6d51e657d","64b003020eef62ee308107cc","64b03511972d6ef22a0e0f74","null","null","<p style=""font-size: 60px; font-family: BACS"">ZkGmYGrub</p>","","","","","","","",""
"html-keyboard-response","308","496803","0.0-13.0-0.58","605c9355001a5eb6d51e657d","64b003020eef62ee308107cc","64b03511972d6ef22a0e0f74","null","null","<p style=""font-size: 60px; font-family: BACS"">GLYrAJUNa</p>","","","","","","","",""
"html-keyboard-response","309","497804","0.0-13.0-0.59","605c9355001a5eb6d51e657d","64b003020eef62ee308107cc","64b03511972d6ef22a0e0f74","null","null","<p style=""font-size: 60px; font-family: BACS"">kNuaGQYQ</p>","","","","","","","",""
"html-keyboard-response","310","498807","0.0-13.0-0.60","605c9355001a5eb6d51e657d","64b003020eef62ee308107cc","64b03511972d6ef22a0e0f74","null","null","<p style=""font-size: 60px; font-family: BACS"">lBKtcthB</p>","","","","","","","",""
"html-keyboard-response","311","499808","0.0-13.0-0.61","605c9355001a5eb6d51e657d","64b003020eef62ee308107cc","64b03511972d6ef22a0e0f74","null","null","<p style=""font-size: 60px; font-family: BACS"">DlDdPED</p>","","","","","","","",""
"html-keyboard-response","312","500809","0.0-13.0-0.62","605c9355001a5eb6d51e657d","64b003020eef62ee308107cc","64b03511972d6ef22a0e0f74","null","null","<p style=""font-size: 60px; font-family: BACS"">TPCbRDM</p>","","","","","","","",""
"html-keyboard-response","313","501809","0.0-13.0-0.63","605c9355001a5eb6d51e657d","64b003020eef62ee308107cc","64b03511972d6ef22a0e0f74","null","null","<p style=""font-size: 60px; font-family: BACS"">rckOGrub</p>","","","","","","","",""
"html-keyboard-response","314","502810","0.0-13.0-0.64","605c9355001a5eb6d51e657d","64b003020eef62ee308107cc","64b03511972d6ef22a0e0f74","null","null","<p style=""font-size: 60px; font-family: BACS"">JauQrkra</p>","","","","","","","",""
"html-keyboard-response","315","503814","0.0-13.0-0.65","605c9355001a5eb6d51e657d","64b003020eef62ee308107cc","64b03511972d6ef22a0e0f74","null","null","<p style=""font-size: 60px; font-family: BACS"">UaZmaJUNa</p>","","","","","","","",""
"html-keyboard-response","316","504822","0.0-13.0-0.66","605c9355001a5eb6d51e657d","64b003020eef62ee308107cc","64b03511972d6ef22a0e0f74","null","null","<p style=""font-size: 60px; font-family: BACS"">dMThkcthB</p>","","","","","","","",""
"html-keyboard-response","317","505822","0.0-13.0-0.67","605c9355001a5eb6d51e657d","64b003020eef62ee308107cc","64b03511972d6ef22a0e0f74","null","null","<p style=""font-size: 60px; font-family: BACS"">OAmAdYBO</p>","","","","","","","",""
"html-keyboard-response","318","506825","0.0-13.0-0.68","605c9355001a5eb6d51e657d","64b003020eef62ee308107cc","64b03511972d6ef22a0e0f74","null","null","<p style=""font-size: 60px; font-family: BACS"">GLYrAkam</p>","","","","","","","",""
"html-keyboard-response","319","507825","0.0-13.0-0.69","605c9355001a5eb6d51e657d","64b003020eef62ee308107cc","64b03511972d6ef22a0e0f74","null","null","<p style=""font-size: 60px; font-family: BACS"">DlDdRDM</p>","","","","","","","",""
"html-keyboard-response","320","508836","0.0-13.0-0.70","605c9355001a5eb6d51e657d","64b003020eef62ee308107cc","64b03511972d6ef22a0e0f74","null","null","<p style=""font-size: 60px; font-family: BACS"">bmbNGQYQ</p>","","","","","","","",""
"html-keyboard-response","321","509840","0.0-13.0-0.71","605c9355001a5eb6d51e657d","64b003020eef62ee308107cc","64b03511972d6ef22a0e0f74","null","null","<p style=""font-size: 60px; font-family: BACS"">chEDOYBO</p>","","","","","","","",""
"html-keyboard-response","322","510846","0.0-13.0-0.72","605c9355001a5eb6d51e657d","64b003020eef62ee308107cc","64b03511972d6ef22a0e0f74","null","null","<p style=""font-size: 60px; font-family: BACS"">OAmAdcthB</p>","","","","","","","",""
"html-keyboard-response","323","511850","0.0-13.0-0.73","605c9355001a5eb6d51e657d","64b003020eef62ee308107cc","64b03511972d6ef22a0e0f74","null","null","<p style=""font-size: 60px; font-family: BACS"">bmbNJUNa</p>","","","","","","","",""
"html-keyboard-response","324","512858","0.0-13.0-0.74","605c9355001a5eb6d51e657d","64b003020eef62ee308107cc","64b03511972d6ef22a0e0f74","null","null","<p style=""font-size: 60px; font-family: BACS"">ZkGmYkam</p>","","","","","","","",""
"html-keyboard-response","325","513859","0.0-13.0-0.75","605c9355001a5eb6d51e657d","64b003020eef62ee308107cc","64b03511972d6ef22a0e0f74","null","null","<p style=""font-size: 60px; font-family: BACS"">bmbNrkra</p>","","","","","","","",""
"html-keyboard-response","326","514862","0.0-13.0-0.76","605c9355001a5eb6d51e657d","64b003020eef62ee308107cc","64b03511972d6ef22a0e0f74","null","null","<p style=""font-size: 60px; font-family: BACS"">bAdkRDM</p>","","","","","","","",""
"html-keyboard-response","327","515876","0.0-13.0-0.77","605c9355001a5eb6d51e657d","64b003020eef62ee308107cc","64b03511972d6ef22a0e0f74","null","null","<p style=""font-size: 60px; font-family: BACS"">TAdhMRYlD</p>","","","","","","","",""
"html-keyboard-response","328","516883","0.0-13.0-0.78","605c9355001a5eb6d51e657d","64b003020eef62ee308107cc","64b03511972d6ef22a0e0f74","null","null","<p style=""font-size: 60px; font-family: BACS"">kNuarkra</p>","","","","","","","",""
"html-keyboard-response","329","517892","0.0-13.0-0.79","605c9355001a5eb6d51e657d","64b003020eef62ee308107cc","64b03511972d6ef22a0e0f74","null","null","<p style=""font-size: 60px; font-family: BACS"">dYdAYBO</p>","","","","","","","",""
"html-keyboard-response","330","564171","0.0-14.0","605c9355001a5eb6d51e657d","64b003020eef62ee308107cc","64b03511972d6ef22a0e0f74","46278"," ","<p>Ottimo, hai visto il quarto blocco di parole. Ora puoi prenderti una piccola pausa.</p>
      <p>Premi la barra quando sei pronta/o per riprendere.</p>","","","","","","","",""
"html-keyboard-response","331","565172","0.0-15.0-0.0","605c9355001a5eb6d51e657d","64b003020eef62ee308107cc","64b03511972d6ef22a0e0f74","null","null","<p style=""font-size: 60px; font-family: BACS"">chEDORYlD</p>","","","","","","","",""
"html-keyboard-response","332","566179","0.0-15.0-0.1","605c9355001a5eb6d51e657d","64b003020eef62ee308107cc","64b03511972d6ef22a0e0f74","null","null","<p style=""font-size: 60px; font-family: BACS"">chEDORYlD</p>","","","","","","","",""
"html-keyboard-response","333","567190","0.0-15.0-0.2","605c9355001a5eb6d51e657d","64b003020eef62ee308107cc","64b03511972d6ef22a0e0f74","null","null","<p style=""font-size: 60px; font-family: BACS"">chEDORYlD</p>","","","","","","","",""
"html-keyboard-response","334","568199","0.0-15.0-0.3","605c9355001a5eb6d51e657d","64b003020eef62ee308107cc","64b03511972d6ef22a0e0f74","null","null","<p style=""font-size: 60px; font-family: BACS"">chEDORYlD</p>","","","","","","","",""
"html-keyboard-response","335","569211","0.0-15.0-0.4","605c9355001a5eb6d51e657d","64b003020eef62ee308107cc","64b03511972d6ef22a0e0f74","null","null","<p style=""font-size: 60px; font-family: BACS"">chEDORYlD</p>","","","","","","","",""
"html-keyboard-response","336","570224","0.0-15.0-0.5","605c9355001a5eb6d51e657d","64b003020eef62ee308107cc","64b03511972d6ef22a0e0f74","null","null","<p style=""font-size: 60px; font-family: BACS"">chEDORYlD</p>","","","","","","","",""
"html-keyboard-response","337","571230","0.0-15.0-0.6","605c9355001a5eb6d51e657d","64b003020eef62ee308107cc","64b03511972d6ef22a0e0f74","null","null","<p style=""font-size: 60px; font-family: BACS"">chEDORYlD</p>","","","","","","","",""
"html-keyboard-response","338","572240","0.0-15.0-0.7","605c9355001a5eb6d51e657d","64b003020eef62ee308107cc","64b03511972d6ef22a0e0f74","null","null","<p style=""font-size: 60px; font-family: BACS"">chEDORYlD</p>","","","","","","","",""
"html-keyboard-response","339","573241","0.0-15.0-0.8","605c9355001a5eb6d51e657d","64b003020eef62ee308107cc","64b03511972d6ef22a0e0f74","null","null","<p style=""font-size: 60px; font-family: BACS"">chEDORYlD</p>","","","","","","","",""
"html-keyboard-response","340","574250","0.0-15.0-0.9","605c9355001a5eb6d51e657d","64b003020eef62ee308107cc","64b03511972d6ef22a0e0f74","null","null","<p style=""font-size: 60px; font-family: BACS"">chEDORYlD</p>","","","","","","","",""
"html-keyboard-response","341","575257","0.0-15.0-0.10","605c9355001a5eb6d51e657d","64b003020eef62ee308107cc","64b03511972d6ef22a0e0f74","null","null","<p style=""font-size: 60px; font-family: BACS"">chEDORYlD</p>","","","","","","","",""
"html-keyboard-response","342","576266","0.0-15.0-0.11","605c9355001a5eb6d51e657d","64b003020eef62ee308107cc","64b03511972d6ef22a0e0f74","null","null","<p style=""font-size: 60px; font-family: BACS"">chEDORYlD</p>","","","","","","","",""
"html-keyboard-response","343","577273","0.0-15.0-0.12","605c9355001a5eb6d51e657d","64b003020eef62ee308107cc","64b03511972d6ef22a0e0f74","null","null","<p style=""font-size: 60px; font-family: BACS"">chEDORYlD</p>","","","","","","","",""
"html-keyboard-response","344","578280","0.0-15.0-0.13","605c9355001a5eb6d51e657d","64b003020eef62ee308107cc","64b03511972d6ef22a0e0f74","null","null","<p style=""font-size: 60px; font-family: BACS"">chEDORYlD</p>","","","","","","","",""
"html-keyboard-response","345","579288","0.0-15.0-0.14","605c9355001a5eb6d51e657d","64b003020eef62ee308107cc","64b03511972d6ef22a0e0f74","null","null","<p style=""font-size: 60px; font-family: BACS"">chEDORYlD</p>","","","","","","","",""
"html-keyboard-response","346","580302","0.0-15.0-0.15","605c9355001a5eb6d51e657d","64b003020eef62ee308107cc","64b03511972d6ef22a0e0f74","null","null","<p style=""font-size: 60px; font-family: BACS"">chEDORYlD</p>","","","","","","","",""
"html-keyboard-response","347","581316","0.0-15.0-0.16","605c9355001a5eb6d51e657d","64b003020eef62ee308107cc","64b03511972d6ef22a0e0f74","null","null","<p style=""font-size: 60px; font-family: BACS"">chEDORYlD</p>","","","","","","","",""
"html-keyboard-response","348","582316","0.0-15.0-0.17","605c9355001a5eb6d51e657d","64b003020eef62ee308107cc","64b03511972d6ef22a0e0f74","null","null","<p style=""font-size: 60px; font-family: BACS"">chEDORYlD</p>","","","","","","","",""
"html-keyboard-response","349","583327","0.0-15.0-0.18","605c9355001a5eb6d51e657d","64b003020eef62ee308107cc","64b03511972d6ef22a0e0f74","null","null","<p style=""font-size: 60px; font-family: BACS"">chEDORYlD</p>","","","","","","","",""
"html-keyboard-response","350","584327","0.0-15.0-0.19","605c9355001a5eb6d51e657d","64b003020eef62ee308107cc","64b03511972d6ef22a0e0f74","null","null","<p style=""font-size: 60px; font-family: BACS"">chEDORYlD</p>","","","","","","","",""
"html-keyboard-response","351","585338","0.0-15.0-0.20","605c9355001a5eb6d51e657d","64b003020eef62ee308107cc","64b03511972d6ef22a0e0f74","null","null","<p style=""font-size: 60px; font-family: BACS"">chEDORYlD</p>","","","","","","","",""
"html-keyboard-response","352","586341","0.0-15.0-0.21","605c9355001a5eb6d51e657d","64b003020eef62ee308107cc","64b03511972d6ef22a0e0f74","null","null","<p style=""font-size: 60px; font-family: BACS"">chEDORYlD</p>","","","","","","","",""
"html-keyboard-response","353","587341","0.0-15.0-0.22","605c9355001a5eb6d51e657d","64b003020eef62ee308107cc","64b03511972d6ef22a0e0f74","null","null","<p style=""font-size: 60px; font-family: BACS"">chEDORYlD</p>","","","","","","","",""
"html-keyboard-response","354","588354","0.0-15.0-0.23","605c9355001a5eb6d51e657d","64b003020eef62ee308107cc","64b03511972d6ef22a0e0f74","null","null","<p style=""font-size: 60px; font-family: BACS"">chEDORYlD</p>","","","","","","","",""
"html-keyboard-response","355","589370","0.0-15.0-0.24","605c9355001a5eb6d51e657d","64b003020eef62ee308107cc","64b03511972d6ef22a0e0f74","null","null","<p style=""font-size: 60px; font-family: BACS"">chEDORYlD</p>","","","","","","","",""
"html-keyboard-response","356","590380","0.0-15.0-0.25","605c9355001a5eb6d51e657d","64b003020eef62ee308107cc","64b03511972d6ef22a0e0f74","null","null","<p style=""font-size: 60px; font-family: BACS"">chEDORYlD</p>","","","","","","","",""
"html-keyboard-response","357","591386","0.0-15.0-0.26","605c9355001a5eb6d51e657d","64b003020eef62ee308107cc","64b03511972d6ef22a0e0f74","null","null","<p style=""font-size: 60px; font-family: BACS"">chEDORYlD</p>","","","","","","","",""
"html-keyboard-response","358","592387","0.0-15.0-0.27","605c9355001a5eb6d51e657d","64b003020eef62ee308107cc","64b03511972d6ef22a0e0f74","null","null","<p style=""font-size: 60px; font-family: BACS"">chEDORYlD</p>","","","","","","","",""
"html-keyboard-response","359","593388","0.0-15.0-0.28","605c9355001a5eb6d51e657d","64b003020eef62ee308107cc","64b03511972d6ef22a0e0f74","null","null","<p style=""font-size: 60px; font-family: BACS"">chEDORYlD</p>","","","","","","","",""
"html-keyboard-response","360","594395","0.0-15.0-0.29","605c9355001a5eb6d51e657d","64b003020eef62ee308107cc","64b03511972d6ef22a0e0f74","null","null","<p style=""font-size: 60px; font-family: BACS"">chEDORYlD</p>","","","","","","","",""
"html-keyboard-response","361","595408","0.0-15.0-0.30","605c9355001a5eb6d51e657d","64b003020eef62ee308107cc","64b03511972d6ef22a0e0f74","null","null","<p style=""font-size: 60px; font-family: BACS"">chEDORYlD</p>","","","","","","","",""
"html-keyboard-response","362","596421","0.0-15.0-0.31","605c9355001a5eb6d51e657d","64b003020eef62ee308107cc","64b03511972d6ef22a0e0f74","null","null","<p style=""font-size: 60px; font-family: BACS"">chEDORYlD</p>","","","","","","","",""
"html-keyboard-response","363","597436","0.0-15.0-0.32","605c9355001a5eb6d51e657d","64b003020eef62ee308107cc","64b03511972d6ef22a0e0f74","null","null","<p style=""font-size: 60px; font-family: BACS"">chEDORYlD</p>","","","","","","","",""
"html-keyboard-response","364","598436","0.0-15.0-0.33","605c9355001a5eb6d51e657d","64b003020eef62ee308107cc","64b03511972d6ef22a0e0f74","null","null","<p style=""font-size: 60px; font-family: BACS"">chEDORYlD</p>","","","","","","","",""
"html-keyboard-response","365","599447","0.0-15.0-0.34","605c9355001a5eb6d51e657d","64b003020eef62ee308107cc","64b03511972d6ef22a0e0f74","null","null","<p style=""font-size: 60px; font-family: BACS"">chEDORYlD</p>","","","","","","","",""
"html-keyboard-response","366","600461","0.0-15.0-0.35","605c9355001a5eb6d51e657d","64b003020eef62ee308107cc","64b03511972d6ef22a0e0f74","null","null","<p style=""font-size: 60px; font-family: BACS"">chEDORYlD</p>","","","","","","","",""
"html-keyboard-response","367","601472","0.0-15.0-0.36","605c9355001a5eb6d51e657d","64b003020eef62ee308107cc","64b03511972d6ef22a0e0f74","null","null","<p style=""font-size: 60px; font-family: BACS"">chEDORYlD</p>","","","","","","","",""
"html-keyboard-response","368","602487","0.0-15.0-0.37","605c9355001a5eb6d51e657d","64b003020eef62ee308107cc","64b03511972d6ef22a0e0f74","null","null","<p style=""font-size: 60px; font-family: BACS"">chEDORYlD</p>","","","","","","","",""
"html-keyboard-response","369","603500","0.0-15.0-0.38","605c9355001a5eb6d51e657d","64b003020eef62ee308107cc","64b03511972d6ef22a0e0f74","null","null","<p style=""font-size: 60px; font-family: BACS"">chEDORYlD</p>","","","","","","","",""
"html-keyboard-response","370","604502","0.0-15.0-0.39","605c9355001a5eb6d51e657d","64b003020eef62ee308107cc","64b03511972d6ef22a0e0f74","null","null","<p style=""font-size: 60px; font-family: BACS"">chEDORYlD</p>","","","","","","","",""
"html-keyboard-response","371","605507","0.0-15.0-0.40","605c9355001a5eb6d51e657d","64b003020eef62ee308107cc","64b03511972d6ef22a0e0f74","null","null","<p style=""font-size: 60px; font-family: BACS"">chEDORYlD</p>","","","","","","","",""
"html-keyboard-response","372","606508","0.0-15.0-0.41","605c9355001a5eb6d51e657d","64b003020eef62ee308107cc","64b03511972d6ef22a0e0f74","null","null","<p style=""font-size: 60px; font-family: BACS"">chEDORYlD</p>","","","","","","","",""
"html-keyboard-response","373","607516","0.0-15.0-0.42","605c9355001a5eb6d51e657d","64b003020eef62ee308107cc","64b03511972d6ef22a0e0f74","null","null","<p style=""font-size: 60px; font-family: BACS"">chEDORYlD</p>","","","","","","","",""
"html-keyboard-response","374","608528","0.0-15.0-0.43","605c9355001a5eb6d51e657d","64b003020eef62ee308107cc","64b03511972d6ef22a0e0f74","null","null","<p style=""font-size: 60px; font-family: BACS"">chEDORYlD</p>","","","","","","","",""
"html-keyboard-response","375","609532","0.0-15.0-0.44","605c9355001a5eb6d51e657d","64b003020eef62ee308107cc","64b03511972d6ef22a0e0f74","null","null","<p style=""font-size: 60px; font-family: BACS"">chEDORYlD</p>","","","","","","","",""
"html-keyboard-response","376","610533","0.0-15.0-0.45","605c9355001a5eb6d51e657d","64b003020eef62ee308107cc","64b03511972d6ef22a0e0f74","null","null","<p style=""font-size: 60px; font-family: BACS"">chEDORYlD</p>","","","","","","","",""
"html-keyboard-response","377","611535","0.0-15.0-0.46","605c9355001a5eb6d51e657d","64b003020eef62ee308107cc","64b03511972d6ef22a0e0f74","null","null","<p style=""font-size: 60px; font-family: BACS"">chEDORYlD</p>","","","","","","","",""
"html-keyboard-response","378","612546","0.0-15.0-0.47","605c9355001a5eb6d51e657d","64b003020eef62ee308107cc","64b03511972d6ef22a0e0f74","null","null","<p style=""font-size: 60px; font-family: BACS"">chEDORYlD</p>","","","","","","","",""
"html-keyboard-response","379","613551","0.0-15.0-0.48","605c9355001a5eb6d51e657d","64b003020eef62ee308107cc","64b03511972d6ef22a0e0f74","null","null","<p style=""font-size: 60px; font-family: BACS"">chEDORYlD</p>","","","","","","","",""
"html-keyboard-response","380","614553","0.0-15.0-0.49","605c9355001a5eb6d51e657d","64b003020eef62ee308107cc","64b03511972d6ef22a0e0f74","null","null","<p style=""font-size: 60px; font-family: BACS"">chEDORYlD</p>","","","","","","","",""
"html-keyboard-response","381","615553","0.0-15.0-0.50","605c9355001a5eb6d51e657d","64b003020eef62ee308107cc","64b03511972d6ef22a0e0f74","null","null","<p style=""font-size: 60px; font-family: BACS"">chEDORYlD</p>","","","","","","","",""
"html-keyboard-response","382","616559","0.0-15.0-0.51","605c9355001a5eb6d51e657d","64b003020eef62ee308107cc","64b03511972d6ef22a0e0f74","null","null","<p style=""font-size: 60px; font-family: BACS"">chEDORYlD</p>","","","","","","","",""
"html-keyboard-response","383","617569","0.0-15.0-0.52","605c9355001a5eb6d51e657d","64b003020eef62ee308107cc","64b03511972d6ef22a0e0f74","null","null","<p style=""font-size: 60px; font-family: BACS"">chEDORYlD</p>","","","","","","","",""
"html-keyboard-response","384","618578","0.0-15.0-0.53","605c9355001a5eb6d51e657d","64b003020eef62ee308107cc","64b03511972d6ef22a0e0f74","null","null","<p style=""font-size: 60px; font-family: BACS"">chEDORYlD</p>","","","","","","","",""
"html-keyboard-response","385","619580","0.0-15.0-0.54","605c9355001a5eb6d51e657d","64b003020eef62ee308107cc","64b03511972d6ef22a0e0f74","null","null","<p style=""font-size: 60px; font-family: BACS"">chEDORYlD</p>","","","","","","","",""
"html-keyboard-response","386","620580","0.0-15.0-0.55","605c9355001a5eb6d51e657d","64b003020eef62ee308107cc","64b03511972d6ef22a0e0f74","null","null","<p style=""font-size: 60px; font-family: BACS"">chEDORYlD</p>","","","","","","","",""
"html-keyboard-response","387","621581","0.0-15.0-0.56","605c9355001a5eb6d51e657d","64b003020eef62ee308107cc","64b03511972d6ef22a0e0f74","null","null","<p style=""font-size: 60px; font-family: BACS"">chEDORYlD</p>","","","","","","","",""
"html-keyboard-response","388","622589","0.0-15.0-0.57","605c9355001a5eb6d51e657d","64b003020eef62ee308107cc","64b03511972d6ef22a0e0f74","null","null","<p style=""font-size: 60px; font-family: BACS"">chEDORYlD</p>","","","","","","","",""
"html-keyboard-response","389","623592","0.0-15.0-0.58","605c9355001a5eb6d51e657d","64b003020eef62ee308107cc","64b03511972d6ef22a0e0f74","null","null","<p style=""font-size: 60px; font-family: BACS"">chEDORYlD</p>","","","","","","","",""
"html-keyboard-response","390","624603","0.0-15.0-0.59","605c9355001a5eb6d51e657d","64b003020eef62ee308107cc","64b03511972d6ef22a0e0f74","null","null","<p style=""font-size: 60px; font-family: BACS"">chEDORYlD</p>","","","","","","","",""
"html-keyboard-response","391","625611","0.0-15.0-0.60","605c9355001a5eb6d51e657d","64b003020eef62ee308107cc","64b03511972d6ef22a0e0f74","null","null","<p style=""font-size: 60px; font-family: BACS"">chEDORYlD</p>","","","","","","","",""
"html-keyboard-response","392","626619","0.0-15.0-0.61","605c9355001a5eb6d51e657d","64b003020eef62ee308107cc","64b03511972d6ef22a0e0f74","null","null","<p style=""font-size: 60px; font-family: BACS"">chEDORYlD</p>","","","","","","","",""
"html-keyboard-response","393","627630","0.0-15.0-0.62","605c9355001a5eb6d51e657d","64b003020eef62ee308107cc","64b03511972d6ef22a0e0f74","null","null","<p style=""font-size: 60px; font-family: BACS"">chEDORYlD</p>","","","","","","","",""
"html-keyboard-response","394","628635","0.0-15.0-0.63","605c9355001a5eb6d51e657d","64b003020eef62ee308107cc","64b03511972d6ef22a0e0f74","null","null","<p style=""font-size: 60px; font-family: BACS"">chEDORYlD</p>","","","","","","","",""
"html-keyboard-response","395","629643","0.0-15.0-0.64","605c9355001a5eb6d51e657d","64b003020eef62ee308107cc","64b03511972d6ef22a0e0f74","null","null","<p style=""font-size: 60px; font-family: BACS"">chEDORYlD</p>","","","","","","","",""
"html-keyboard-response","396","630648","0.0-15.0-0.65","605c9355001a5eb6d51e657d","64b003020eef62ee308107cc","64b03511972d6ef22a0e0f74","null","null","<p style=""font-size: 60px; font-family: BACS"">chEDORYlD</p>","","","","","","","",""
"html-keyboard-response","397","631658","0.0-15.0-0.66","605c9355001a5eb6d51e657d","64b003020eef62ee308107cc","64b03511972d6ef22a0e0f74","null","null","<p style=""font-size: 60px; font-family: BACS"">chEDORYlD</p>","","","","","","","",""
"html-keyboard-response","398","632666","0.0-15.0-0.67","605c9355001a5eb6d51e657d","64b003020eef62ee308107cc","64b03511972d6ef22a0e0f74","null","null","<p style=""font-size: 60px; font-family: BACS"">chEDORYlD</p>","","","","","","","",""
"html-keyboard-response","399","633666","0.0-15.0-0.68","605c9355001a5eb6d51e657d","64b003020eef62ee308107cc","64b03511972d6ef22a0e0f74","null","null","<p style=""font-size: 60px; font-family: BACS"">chEDORYlD</p>","","","","","","","",""
"html-keyboard-response","400","634667","0.0-15.0-0.69","605c9355001a5eb6d51e657d","64b003020eef62ee308107cc","64b03511972d6ef22a0e0f74","null","null","<p style=""font-size: 60px; font-family: BACS"">chEDORYlD</p>","","","","","","","",""
"html-keyboard-response","401","635667","0.0-15.0-0.70","605c9355001a5eb6d51e657d","64b003020eef62ee308107cc","64b03511972d6ef22a0e0f74","null","null","<p style=""font-size: 60px; font-family: BACS"">chEDORYlD</p>","","","","","","","",""
