"trial_type","trial_index","time_elapsed","internal_node_id","subject_id","study_id","session_id","rt","response","stimulus","success","item","task","correct_response","testing_condition","correct","target","confound","name"
"pavlovia","0","5588","0.0-0.0","6144742e57a61e489cc9e978","650c16f0f2faf8d7a0d14c09","651c1ca48922579e149ec440","","","","","","","","","","","",""
"survey-html-form","1","35824","0.0-1.0","6144742e57a61e489cc9e978","650c16f0f2faf8d7a0d14c09","651c1ca48922579e149ec440","30235","{""ID"":""6144742e57a61e489cc9e978""}","","","","","","","","","",""
"html-keyboard-response","2","84611","0.0-2.0","6144742e57a61e489cc9e978","650c16f0f2faf8d7a0d14c09","651c1ca48922579e149ec440","48785"," ","<p style=""font-size: 15px;"">Before beginning, we ask that you read the consent information and confirm your agreement to participate in the experiment.</p>
      <p style=""font-size: 15px;""> We ask that you remember that this is a research project and that your participation is entirely voluntary. You can stop your participation at any time, without needing to provide any explanation. The study we're asking you to participate in aims at examining how readers process written words. You will be engaged in a session of apprximately 20 minutes, followed by a brief questionnaire. You will have the opportunity to take a few breaks during the experiment. You will be paid £4 for your participation, corresponding to a rate of £8/hour. While this experiment looks at cognitive faculties, this experiment doesn't constitute clinical proof of eventual pathologies.</p>
      <p style=""font-size: 15px;"">All of the information collected thanks to yours and others' participation will be held in a secure password-protected server, and will not be shared with anyone not authorised to view it. Your personal information will be kept with an arbitrary participant ID. Thanks to this data anonymity process, any researcher analysing the data won't be able to track the information back to a specific participant. Therefore, this process will make identifying you impossibile, even when results from the study will be published in scientific reviews, presented at congresses, or at any other public forum. More generally, the collected data will be treated in accordance with the laws on privacy and conformity to the Legislative Degree n. 196 ""Code regarding the protection of personal data"" of the 30th of June 2003 and to the European Regulation 2016/670 (General Data Protection Regulation - GDPR). The Data Protection Officer is Avv. Valentina Carollo, who can be contacted at the following email addresses: <a href=""mailto:dpo@sissa.it"">dpo@sissa.it</a> or <a href=""mailto:rpd@sissa.it"">rpd@sissa.it</a> - PEC: <a href=""mailto:protocollo@pec.sissa.it"">protocollo@pec.sissa.it</a>.</p>
      <p style=""font-size: 15px;""> Before expressing your consent to participate, we would like to remind you again that in case you need explanations on any aspect of the experimental procedure, the researcher is at your disposition (<a href=""mailto:aliebelt@sissa.it"">aliebelt@sissa.it</a>, <a href=""mailto:davide.crepaldi@sissa.it"">davide.crepaldi@sissa.it</a>).</p>
      <p style=""font-size: 15px;"">If you would like to download the informed consent form, you can do so here: <a href=""BASL-Informed_Consent.pdf"" download>informed consent form</a>.</p>
      <p style=""font-size: 15px;"">We ask that you press the spacebar to proceed to the consent section.</p>","","","","","","","","",""
"survey-html-form","3","360494","0.0-3.0","6144742e57a61e489cc9e978","650c16f0f2faf8d7a0d14c09","651c1ca48922579e149ec440","275881","{""consent1"":""YES"",""consent2"":""YES"",""consent3"":""YES"",""consent4"":""YES"",""consent5"":""YES"",""consent6"":""YES""}","","","","","","","","","",""
"fullscreen","4","372271","0.0-4.0","6144742e57a61e489cc9e978","650c16f0f2faf8d7a0d14c09","651c1ca48922579e149ec440","","","","true","","","","","","","",""
"html-keyboard-response","5","699572","0.0-5.0","6144742e57a61e489cc9e978","650c16f0f2faf8d7a0d14c09","651c1ca48922579e149ec440","327308"," ","<p>Welcome, and thank you very much for your time!</p>
      <p>In this experiment, you'll be a language expert who's been asked to take a look at words that Earth has received in its first communication with aliens. Your task, in this first part of the experiment, is to pay close attention to the words you'll be shown; later, world leaders will ask you questions on what you saw. The words will be shown to you quite quickly; it seems that the aliens were in a hurry :-)</p>
      <p>Press the spacebar to continue.<p>","","","","","","","","",""
"html-keyboard-response","6","699630","0.0-6.0","6144742e57a61e489cc9e978","650c16f0f2faf8d7a0d14c09","651c1ca48922579e149ec440","null","null","<p style=""font-size: 120px; font-family: BACS""> </p>","","","","","","","","",""
"html-keyboard-response","7","707451","0.0-7.0","6144742e57a61e489cc9e978","650c16f0f2faf8d7a0d14c09","651c1ca48922579e149ec440","7820"," ","<p>Here is an example of the words you'll see:</p>
      <img src='esempio.png' height='400px'>
      <p>When you're ready to begin, press the spacebar.</p></div>","","","","","","","","",""
"html-keyboard-response","8","708454","0.0-8.0-0.0","6144742e57a61e489cc9e978","650c16f0f2faf8d7a0d14c09","651c1ca48922579e149ec440","null","null","<p style=""font-size: 60px; font-family: BACS"">lYruavcb</p>","","","","","","","","",""
"html-keyboard-response","9","709469","0.0-8.0-0.1","6144742e57a61e489cc9e978","650c16f0f2faf8d7a0d14c09","651c1ca48922579e149ec440","null","null","<p style=""font-size: 60px; font-family: BACS"">MkmEdKOYC</p>","","","","","","","","",""
"html-keyboard-response","10","710477","0.0-8.0-0.2","6144742e57a61e489cc9e978","650c16f0f2faf8d7a0d14c09","651c1ca48922579e149ec440","null","null","<p style=""font-size: 60px; font-family: BACS"">RtRhCMdP</p>","","","","","","","","",""
"html-keyboard-response","11","711486","0.0-8.0-0.3","6144742e57a61e489cc9e978","650c16f0f2faf8d7a0d14c09","651c1ca48922579e149ec440","null","null","<p style=""font-size: 60px; font-family: BACS"">JAaGcYUv</p>","","","","","","","","",""
"html-keyboard-response","12","712502","0.0-8.0-0.4","6144742e57a61e489cc9e978","650c16f0f2faf8d7a0d14c09","651c1ca48922579e149ec440","null","null","<p style=""font-size: 60px; font-family: BACS"">thbOMmhc</p>","","","","","","","","",""
"html-keyboard-response","13","713510","0.0-8.0-0.5","6144742e57a61e489cc9e978","650c16f0f2faf8d7a0d14c09","651c1ca48922579e149ec440","null","null","<p style=""font-size: 60px; font-family: BACS"">ABPRBPTl</p>","","","","","","","","",""
"html-keyboard-response","14","714519","0.0-8.0-0.6","6144742e57a61e489cc9e978","650c16f0f2faf8d7a0d14c09","651c1ca48922579e149ec440","null","null","<p style=""font-size: 60px; font-family: BACS"">UdYUQlvk</p>","","","","","","","","",""
"html-keyboard-response","15","715535","0.0-8.0-0.7","6144742e57a61e489cc9e978","650c16f0f2faf8d7a0d14c09","651c1ca48922579e149ec440","null","null","<p style=""font-size: 60px; font-family: BACS"">thbOMKOYC</p>","","","","","","","","",""
"html-keyboard-response","16","716543","0.0-8.0-0.8","6144742e57a61e489cc9e978","650c16f0f2faf8d7a0d14c09","651c1ca48922579e149ec440","null","null","<p style=""font-size: 60px; font-family: BACS"">RtRhmhc</p>","","","","","","","","",""
"html-keyboard-response","17","717552","0.0-8.0-0.9","6144742e57a61e489cc9e978","650c16f0f2faf8d7a0d14c09","651c1ca48922579e149ec440","null","null","<p style=""font-size: 60px; font-family: BACS"">vYLUuOAO</p>","","","","","","","","",""
"html-keyboard-response","18","718568","0.0-8.0-0.10","6144742e57a61e489cc9e978","650c16f0f2faf8d7a0d14c09","651c1ca48922579e149ec440","null","null","<p style=""font-size: 60px; font-family: BACS"">JAaGvcb</p>","","","","","","","","",""
"html-keyboard-response","19","719576","0.0-8.0-0.11","6144742e57a61e489cc9e978","650c16f0f2faf8d7a0d14c09","651c1ca48922579e149ec440","null","null","<p style=""font-size: 60px; font-family: BACS"">ABPRBmhc</p>","","","","","","","","",""
"html-keyboard-response","20","720585","0.0-8.0-0.12","6144742e57a61e489cc9e978","650c16f0f2faf8d7a0d14c09","651c1ca48922579e149ec440","null","null","<p style=""font-size: 60px; font-family: BACS"">AlTdKOYC</p>","","","","","","","","",""
"html-keyboard-response","21","721599","0.0-8.0-0.13","6144742e57a61e489cc9e978","650c16f0f2faf8d7a0d14c09","651c1ca48922579e149ec440","null","null","<p style=""font-size: 60px; font-family: BACS"">bNdmGrAm</p>","","","","","","","","",""
"html-keyboard-response","22","722608","0.0-8.0-0.14","6144742e57a61e489cc9e978","650c16f0f2faf8d7a0d14c09","651c1ca48922579e149ec440","null","null","<p style=""font-size: 60px; font-family: BACS"">bYGOZlvk</p>","","","","","","","","",""
"html-keyboard-response","23","723610","0.0-8.0-0.15","6144742e57a61e489cc9e978","650c16f0f2faf8d7a0d14c09","651c1ca48922579e149ec440","null","null","<p style=""font-size: 60px; font-family: BACS"">TklDmhc</p>","","","","","","","","",""
"html-keyboard-response","24","724617","0.0-8.0-0.16","6144742e57a61e489cc9e978","650c16f0f2faf8d7a0d14c09","651c1ca48922579e149ec440","null","null","<p style=""font-size: 60px; font-family: BACS"">JZOAkcYUv</p>","","","","","","","","",""
"html-keyboard-response","25","725625","0.0-8.0-0.17","6144742e57a61e489cc9e978","650c16f0f2faf8d7a0d14c09","651c1ca48922579e149ec440","null","null","<p style=""font-size: 60px; font-family: BACS"">uQkrdrAm</p>","","","","","","","","",""
"html-keyboard-response","26","726633","0.0-8.0-0.18","6144742e57a61e489cc9e978","650c16f0f2faf8d7a0d14c09","651c1ca48922579e149ec440","null","null","<p style=""font-size: 60px; font-family: BACS"">bYGOZvcb</p>","","","","","","","","",""
"html-keyboard-response","27","727634","0.0-8.0-0.19","6144742e57a61e489cc9e978","650c16f0f2faf8d7a0d14c09","651c1ca48922579e149ec440","null","null","<p style=""font-size: 60px; font-family: BACS"">bNdmGlvk</p>","","","","","","","","",""
"html-keyboard-response","28","728643","0.0-8.0-0.20","6144742e57a61e489cc9e978","650c16f0f2faf8d7a0d14c09","651c1ca48922579e149ec440","null","null","<p style=""font-size: 60px; font-family: BACS"">RtRhPTl</p>","","","","","","","","",""
"html-keyboard-response","29","729648","0.0-8.0-0.21","6144742e57a61e489cc9e978","650c16f0f2faf8d7a0d14c09","651c1ca48922579e149ec440","null","null","<p style=""font-size: 60px; font-family: BACS"">JAaGrAm</p>","","","","","","","","",""
"html-keyboard-response","30","730650","0.0-8.0-0.22","6144742e57a61e489cc9e978","650c16f0f2faf8d7a0d14c09","651c1ca48922579e149ec440","null","null","<p style=""font-size: 60px; font-family: BACS"">TklDmCd</p>","","","","","","","","",""
"html-keyboard-response","31","731666","0.0-8.0-0.23","6144742e57a61e489cc9e978","650c16f0f2faf8d7a0d14c09","651c1ca48922579e149ec440","null","null","<p style=""font-size: 60px; font-family: BACS"">kcCRtmhc</p>","","","","","","","","",""
"html-keyboard-response","32","732667","0.0-8.0-0.24","6144742e57a61e489cc9e978","650c16f0f2faf8d7a0d14c09","651c1ca48922579e149ec440","null","null","<p style=""font-size: 60px; font-family: BACS"">bcbMPTl</p>","","","","","","","","",""
"html-keyboard-response","33","733680","0.0-8.0-0.25","6144742e57a61e489cc9e978","650c16f0f2faf8d7a0d14c09","651c1ca48922579e149ec440","null","null","<p style=""font-size: 60px; font-family: BACS"">uQkrduOAO</p>","","","","","","","","",""
"html-keyboard-response","34","734682","0.0-8.0-0.26","6144742e57a61e489cc9e978","650c16f0f2faf8d7a0d14c09","651c1ca48922579e149ec440","null","null","<p style=""font-size: 60px; font-family: BACS"">ABPRBCMdP</p>","","","","","","","","",""
"html-keyboard-response","35","735683","0.0-8.0-0.27","6144742e57a61e489cc9e978","650c16f0f2faf8d7a0d14c09","651c1ca48922579e149ec440","null","null","<p style=""font-size: 60px; font-family: BACS"">ECtbDmhc</p>","","","","","","","","",""
"html-keyboard-response","36","736684","0.0-8.0-0.28","6144742e57a61e489cc9e978","650c16f0f2faf8d7a0d14c09","651c1ca48922579e149ec440","null","null","<p style=""font-size: 60px; font-family: BACS"">TklDPTl</p>","","","","","","","","",""
"html-keyboard-response","37","737697","0.0-8.0-0.29","6144742e57a61e489cc9e978","650c16f0f2faf8d7a0d14c09","651c1ca48922579e149ec440","null","null","<p style=""font-size: 60px; font-family: BACS"">kcCRtKOYC</p>","","","","","","","","",""
"html-keyboard-response","38","738713","0.0-8.0-0.30","6144742e57a61e489cc9e978","650c16f0f2faf8d7a0d14c09","651c1ca48922579e149ec440","null","null","<p style=""font-size: 60px; font-family: BACS"">thbOMmCd</p>","","","","","","","","",""
"html-keyboard-response","39","739716","0.0-8.0-0.31","6144742e57a61e489cc9e978","650c16f0f2faf8d7a0d14c09","651c1ca48922579e149ec440","null","null","<p style=""font-size: 60px; font-family: BACS"">JAaGlvk</p>","","","","","","","","",""
"html-keyboard-response","40","740729","0.0-8.0-0.32","6144742e57a61e489cc9e978","650c16f0f2faf8d7a0d14c09","651c1ca48922579e149ec440","null","null","<p style=""font-size: 60px; font-family: BACS"">RtRhKOYC</p>","","","","","","","","",""
"html-keyboard-response","41","741730","0.0-8.0-0.33","6144742e57a61e489cc9e978","650c16f0f2faf8d7a0d14c09","651c1ca48922579e149ec440","null","null","<p style=""font-size: 60px; font-family: BACS"">ECtbDmCd</p>","","","","","","","","",""
"html-keyboard-response","42","742736","0.0-8.0-0.34","6144742e57a61e489cc9e978","650c16f0f2faf8d7a0d14c09","651c1ca48922579e149ec440","null","null","<p style=""font-size: 60px; font-family: BACS"">PdDTKOYC</p>","","","","","","","","",""
"html-keyboard-response","43","743747","0.0-8.0-0.35","6144742e57a61e489cc9e978","650c16f0f2faf8d7a0d14c09","651c1ca48922579e149ec440","null","null","<p style=""font-size: 60px; font-family: BACS"">MkmEdCMdP</p>","","","","","","","","",""
"html-keyboard-response","44","744762","0.0-8.0-0.36","6144742e57a61e489cc9e978","650c16f0f2faf8d7a0d14c09","651c1ca48922579e149ec440","null","null","<p style=""font-size: 60px; font-family: BACS"">lYrualvk</p>","","","","","","","","",""
"html-keyboard-response","45","745769","0.0-8.0-0.37","6144742e57a61e489cc9e978","650c16f0f2faf8d7a0d14c09","651c1ca48922579e149ec440","null","null","<p style=""font-size: 60px; font-family: BACS"">aYQmrAm</p>","","","","","","","","",""
"html-keyboard-response","46","746779","0.0-8.0-0.38","6144742e57a61e489cc9e978","650c16f0f2faf8d7a0d14c09","651c1ca48922579e149ec440","null","null","<p style=""font-size: 60px; font-family: BACS"">bNdmGuOAO</p>","","","","","","","","",""
"html-keyboard-response","47","747795","0.0-8.0-0.39","6144742e57a61e489cc9e978","650c16f0f2faf8d7a0d14c09","651c1ca48922579e149ec440","null","null","<p style=""font-size: 60px; font-family: BACS"">kcCRtCMdP</p>","","","","","","","","",""
"html-keyboard-response","48","748802","0.0-8.0-0.40","6144742e57a61e489cc9e978","650c16f0f2faf8d7a0d14c09","651c1ca48922579e149ec440","null","null","<p style=""font-size: 60px; font-family: BACS"">bYGOZcYUv</p>","","","","","","","","",""
"html-keyboard-response","49","749812","0.0-8.0-0.41","6144742e57a61e489cc9e978","650c16f0f2faf8d7a0d14c09","651c1ca48922579e149ec440","null","null","<p style=""font-size: 60px; font-family: BACS"">kcCRtPTl</p>","","","","","","","","",""
"html-keyboard-response","50","750827","0.0-8.0-0.42","6144742e57a61e489cc9e978","650c16f0f2faf8d7a0d14c09","651c1ca48922579e149ec440","null","null","<p style=""font-size: 60px; font-family: BACS"">UdYUQuOAO</p>","","","","","","","","",""
"html-keyboard-response","51","751835","0.0-8.0-0.43","6144742e57a61e489cc9e978","650c16f0f2faf8d7a0d14c09","651c1ca48922579e149ec440","null","null","<p style=""font-size: 60px; font-family: BACS"">aYQmvcb</p>","","","","","","","","",""
"html-keyboard-response","52","752845","0.0-8.0-0.44","6144742e57a61e489cc9e978","650c16f0f2faf8d7a0d14c09","651c1ca48922579e149ec440","null","null","<p style=""font-size: 60px; font-family: BACS"">ECtbDCMdP</p>","","","","","","","","",""
"html-keyboard-response","53","753860","0.0-8.0-0.45","6144742e57a61e489cc9e978","650c16f0f2faf8d7a0d14c09","651c1ca48922579e149ec440","null","null","<p style=""font-size: 60px; font-family: BACS"">bNdmGvcb</p>","","","","","","","","",""
"html-keyboard-response","54","754868","0.0-8.0-0.46","6144742e57a61e489cc9e978","650c16f0f2faf8d7a0d14c09","651c1ca48922579e149ec440","null","null","<p style=""font-size: 60px; font-family: BACS"">PdDTmCd</p>","","","","","","","","",""
"html-keyboard-response","55","755877","0.0-8.0-0.47","6144742e57a61e489cc9e978","650c16f0f2faf8d7a0d14c09","651c1ca48922579e149ec440","null","null","<p style=""font-size: 60px; font-family: BACS"">YUNkZcYUv</p>","","","","","","","","",""
"html-keyboard-response","56","756893","0.0-8.0-0.48","6144742e57a61e489cc9e978","650c16f0f2faf8d7a0d14c09","651c1ca48922579e149ec440","null","null","<p style=""font-size: 60px; font-family: BACS"">ABPRBmCd</p>","","","","","","","","",""
"html-keyboard-response","57","757901","0.0-8.0-0.49","6144742e57a61e489cc9e978","650c16f0f2faf8d7a0d14c09","651c1ca48922579e149ec440","null","null","<p style=""font-size: 60px; font-family: BACS"">vYLUvcb</p>","","","","","","","","",""
"html-keyboard-response","58","758910","0.0-8.0-0.50","6144742e57a61e489cc9e978","650c16f0f2faf8d7a0d14c09","651c1ca48922579e149ec440","null","null","<p style=""font-size: 60px; font-family: BACS"">MkmEdPTl</p>","","","","","","","","",""
"html-keyboard-response","59","759925","0.0-8.0-0.51","6144742e57a61e489cc9e978","650c16f0f2faf8d7a0d14c09","651c1ca48922579e149ec440","null","null","<p style=""font-size: 60px; font-family: BACS"">aYQmlvk</p>","","","","","","","","",""
"html-keyboard-response","60","760934","0.0-8.0-0.52","6144742e57a61e489cc9e978","650c16f0f2faf8d7a0d14c09","651c1ca48922579e149ec440","null","null","<p style=""font-size: 60px; font-family: BACS"">bcbMKOYC</p>","","","","","","","","",""
"html-keyboard-response","61","761948","0.0-8.0-0.53","6144742e57a61e489cc9e978","650c16f0f2faf8d7a0d14c09","651c1ca48922579e149ec440","null","null","<p style=""font-size: 60px; font-family: BACS"">YUNkZrAm</p>","","","","","","","","",""
"html-keyboard-response","62","762959","0.0-8.0-0.54","6144742e57a61e489cc9e978","650c16f0f2faf8d7a0d14c09","651c1ca48922579e149ec440","null","null","<p style=""font-size: 60px; font-family: BACS"">UdYUQvcb</p>","","","","","","","","",""
"html-keyboard-response","63","763968","0.0-8.0-0.55","6144742e57a61e489cc9e978","650c16f0f2faf8d7a0d14c09","651c1ca48922579e149ec440","null","null","<p style=""font-size: 60px; font-family: BACS"">PdDTPTl</p>","","","","","","","","",""
"html-keyboard-response","64","764976","0.0-8.0-0.56","6144742e57a61e489cc9e978","650c16f0f2faf8d7a0d14c09","651c1ca48922579e149ec440","null","null","<p style=""font-size: 60px; font-family: BACS"">bYGOZuOAO</p>","","","","","","","","",""
"html-keyboard-response","65","765977","0.0-8.0-0.57","6144742e57a61e489cc9e978","650c16f0f2faf8d7a0d14c09","651c1ca48922579e149ec440","null","null","<p style=""font-size: 60px; font-family: BACS"">JZOAkrAm</p>","","","","","","","","",""
"html-keyboard-response","66","766978","0.0-8.0-0.58","6144742e57a61e489cc9e978","650c16f0f2faf8d7a0d14c09","651c1ca48922579e149ec440","null","null","<p style=""font-size: 60px; font-family: BACS"">lYruacYUv</p>","","","","","","","","",""
"html-keyboard-response","67","767999","0.0-8.0-0.59","6144742e57a61e489cc9e978","650c16f0f2faf8d7a0d14c09","651c1ca48922579e149ec440","null","null","<p style=""font-size: 60px; font-family: BACS"">JZOAkuOAO</p>","","","","","","","","",""
"html-keyboard-response","68","769000","0.0-8.0-0.60","6144742e57a61e489cc9e978","650c16f0f2faf8d7a0d14c09","651c1ca48922579e149ec440","null","null","<p style=""font-size: 60px; font-family: BACS"">AlTdmCd</p>","","","","","","","","",""
"html-keyboard-response","69","770008","0.0-8.0-0.61","6144742e57a61e489cc9e978","650c16f0f2faf8d7a0d14c09","651c1ca48922579e149ec440","null","null","<p style=""font-size: 60px; font-family: BACS"">lYruarAm</p>","","","","","","","","",""
"html-keyboard-response","70","771015","0.0-8.0-0.62","6144742e57a61e489cc9e978","650c16f0f2faf8d7a0d14c09","651c1ca48922579e149ec440","null","null","<p style=""font-size: 60px; font-family: BACS"">ECtbDKOYC</p>","","","","","","","","",""
"html-keyboard-response","71","772032","0.0-8.0-0.63","6144742e57a61e489cc9e978","650c16f0f2faf8d7a0d14c09","651c1ca48922579e149ec440","null","null","<p style=""font-size: 60px; font-family: BACS"">vYLUcYUv</p>","","","","","","","","",""
"html-keyboard-response","72","773040","0.0-8.0-0.64","6144742e57a61e489cc9e978","650c16f0f2faf8d7a0d14c09","651c1ca48922579e149ec440","null","null","<p style=""font-size: 60px; font-family: BACS"">YUNkZlvk</p>","","","","","","","","",""
"html-keyboard-response","73","774048","0.0-8.0-0.65","6144742e57a61e489cc9e978","650c16f0f2faf8d7a0d14c09","651c1ca48922579e149ec440","null","null","<p style=""font-size: 60px; font-family: BACS"">uQkrdcYUv</p>","","","","","","","","",""
"html-keyboard-response","74","775064","0.0-8.0-0.66","6144742e57a61e489cc9e978","650c16f0f2faf8d7a0d14c09","651c1ca48922579e149ec440","null","null","<p style=""font-size: 60px; font-family: BACS"">AlTdmhc</p>","","","","","","","","",""
"html-keyboard-response","75","776074","0.0-8.0-0.67","6144742e57a61e489cc9e978","650c16f0f2faf8d7a0d14c09","651c1ca48922579e149ec440","null","null","<p style=""font-size: 60px; font-family: BACS"">YUNkZuOAO</p>","","","","","","","","",""
"html-keyboard-response","76","777081","0.0-8.0-0.68","6144742e57a61e489cc9e978","650c16f0f2faf8d7a0d14c09","651c1ca48922579e149ec440","null","null","<p style=""font-size: 60px; font-family: BACS"">MkmEdmCd</p>","","","","","","","","",""
"html-keyboard-response","77","778082","0.0-8.0-0.69","6144742e57a61e489cc9e978","650c16f0f2faf8d7a0d14c09","651c1ca48922579e149ec440","null","null","<p style=""font-size: 60px; font-family: BACS"">AlTdPTl</p>","","","","","","","","",""
"html-keyboard-response","78","779097","0.0-8.0-0.70","6144742e57a61e489cc9e978","650c16f0f2faf8d7a0d14c09","651c1ca48922579e149ec440","null","null","<p style=""font-size: 60px; font-family: BACS"">UdYUQcYUv</p>","","","","","","","","",""
"html-keyboard-response","79","780113","0.0-8.0-0.71","6144742e57a61e489cc9e978","650c16f0f2faf8d7a0d14c09","651c1ca48922579e149ec440","null","null","<p style=""font-size: 60px; font-family: BACS"">JZOAkvcb</p>","","","","","","","","",""
"html-keyboard-response","80","781128","0.0-8.0-0.72","6144742e57a61e489cc9e978","650c16f0f2faf8d7a0d14c09","651c1ca48922579e149ec440","null","null","<p style=""font-size: 60px; font-family: BACS"">TklDCMdP</p>","","","","","","","","",""
"html-keyboard-response","81","782145","0.0-8.0-0.73","6144742e57a61e489cc9e978","650c16f0f2faf8d7a0d14c09","651c1ca48922579e149ec440","null","null","<p style=""font-size: 60px; font-family: BACS"">uQkrdlvk</p>","","","","","","","","",""
"html-keyboard-response","82","783147","0.0-8.0-0.74","6144742e57a61e489cc9e978","650c16f0f2faf8d7a0d14c09","651c1ca48922579e149ec440","null","null","<p style=""font-size: 60px; font-family: BACS"">bcbMCMdP</p>","","","","","","","","",""
"html-keyboard-response","83","784161","0.0-8.0-0.75","6144742e57a61e489cc9e978","650c16f0f2faf8d7a0d14c09","651c1ca48922579e149ec440","null","null","<p style=""font-size: 60px; font-family: BACS"">vYLUrAm</p>","","","","","","","","",""
"html-keyboard-response","84","785178","0.0-8.0-0.76","6144742e57a61e489cc9e978","650c16f0f2faf8d7a0d14c09","651c1ca48922579e149ec440","null","null","<p style=""font-size: 60px; font-family: BACS"">aYQmuOAO</p>","","","","","","","","",""
"html-keyboard-response","85","786180","0.0-8.0-0.77","6144742e57a61e489cc9e978","650c16f0f2faf8d7a0d14c09","651c1ca48922579e149ec440","null","null","<p style=""font-size: 60px; font-family: BACS"">bcbMmCd</p>","","","","","","","","",""
"html-keyboard-response","86","787195","0.0-8.0-0.78","6144742e57a61e489cc9e978","650c16f0f2faf8d7a0d14c09","651c1ca48922579e149ec440","null","null","<p style=""font-size: 60px; font-family: BACS"">PdDTmhc</p>","","","","","","","","",""
"html-keyboard-response","87","788211","0.0-8.0-0.79","6144742e57a61e489cc9e978","650c16f0f2faf8d7a0d14c09","651c1ca48922579e149ec440","null","null","<p style=""font-size: 60px; font-family: BACS"">thbOMCMdP</p>","","","","","","","","",""
"html-keyboard-response","88","983165","0.0-9.0","6144742e57a61e489cc9e978","650c16f0f2faf8d7a0d14c09","651c1ca48922579e149ec440","194960"," ","<p>Great, you've seen the first block of words. You may now take a short break.</p>
      <p>Press the spacebar when you're ready to continue.</p>","","","","","","","","",""
"html-keyboard-response","89","984171","0.0-10.0-0.0","6144742e57a61e489cc9e978","650c16f0f2faf8d7a0d14c09","651c1ca48922579e149ec440","null","null","<p style=""font-size: 60px; font-family: BACS"">lYruavcb</p>","","","","","","","","",""
"html-keyboard-response","90","985182","0.0-10.0-0.1","6144742e57a61e489cc9e978","650c16f0f2faf8d7a0d14c09","651c1ca48922579e149ec440","null","null","<p style=""font-size: 60px; font-family: BACS"">bYGOZlvk</p>","","","","","","","","",""
"html-keyboard-response","91","986198","0.0-10.0-0.2","6144742e57a61e489cc9e978","650c16f0f2faf8d7a0d14c09","651c1ca48922579e149ec440","null","null","<p style=""font-size: 60px; font-family: BACS"">TklDmhc</p>","","","","","","","","",""
"html-keyboard-response","92","987205","0.0-10.0-0.3","6144742e57a61e489cc9e978","650c16f0f2faf8d7a0d14c09","651c1ca48922579e149ec440","null","null","<p style=""font-size: 60px; font-family: BACS"">aYQmuOAO</p>","","","","","","","","",""
"html-keyboard-response","93","988215","0.0-10.0-0.4","6144742e57a61e489cc9e978","650c16f0f2faf8d7a0d14c09","651c1ca48922579e149ec440","null","null","<p style=""font-size: 60px; font-family: BACS"">AlTdPTl</p>","","","","","","","","",""
"html-keyboard-response","94","989230","0.0-10.0-0.5","6144742e57a61e489cc9e978","650c16f0f2faf8d7a0d14c09","651c1ca48922579e149ec440","null","null","<p style=""font-size: 60px; font-family: BACS"">thbOMmCd</p>","","","","","","","","",""
"html-keyboard-response","95","990239","0.0-10.0-0.6","6144742e57a61e489cc9e978","650c16f0f2faf8d7a0d14c09","651c1ca48922579e149ec440","null","null","<p style=""font-size: 60px; font-family: BACS"">kcCRtCMdP</p>","","","","","","","","",""
"html-keyboard-response","96","991248","0.0-10.0-0.7","6144742e57a61e489cc9e978","650c16f0f2faf8d7a0d14c09","651c1ca48922579e149ec440","null","null","<p style=""font-size: 60px; font-family: BACS"">MkmEdPTl</p>","","","","","","","","",""
"html-keyboard-response","97","992263","0.0-10.0-0.8","6144742e57a61e489cc9e978","650c16f0f2faf8d7a0d14c09","651c1ca48922579e149ec440","null","null","<p style=""font-size: 60px; font-family: BACS"">aYQmvcb</p>","","","","","","","","",""
"html-keyboard-response","98","993271","0.0-10.0-0.9","6144742e57a61e489cc9e978","650c16f0f2faf8d7a0d14c09","651c1ca48922579e149ec440","null","null","<p style=""font-size: 60px; font-family: BACS"">uQkrdcYUv</p>","","","","","","","","",""
"html-keyboard-response","99","994280","0.0-10.0-0.10","6144742e57a61e489cc9e978","650c16f0f2faf8d7a0d14c09","651c1ca48922579e149ec440","null","null","<p style=""font-size: 60px; font-family: BACS"">AlTdKOYC</p>","","","","","","","","",""
"html-keyboard-response","100","995296","0.0-10.0-0.11","6144742e57a61e489cc9e978","650c16f0f2faf8d7a0d14c09","651c1ca48922579e149ec440","null","null","<p style=""font-size: 60px; font-family: BACS"">JZOAkrAm</p>","","","","","","","","",""
"html-keyboard-response","101","996311","0.0-10.0-0.12","6144742e57a61e489cc9e978","650c16f0f2faf8d7a0d14c09","651c1ca48922579e149ec440","null","null","<p style=""font-size: 60px; font-family: BACS"">bcbMKOYC</p>","","","","","","","","",""
"html-keyboard-response","102","997320","0.0-10.0-0.13","6144742e57a61e489cc9e978","650c16f0f2faf8d7a0d14c09","651c1ca48922579e149ec440","null","null","<p style=""font-size: 60px; font-family: BACS"">UdYUQlvk</p>","","","","","","","","",""
"html-keyboard-response","103","998335","0.0-10.0-0.14","6144742e57a61e489cc9e978","650c16f0f2faf8d7a0d14c09","651c1ca48922579e149ec440","null","null","<p style=""font-size: 60px; font-family: BACS"">MkmEdmCd</p>","","","","","","","","",""
"html-keyboard-response","104","999344","0.0-10.0-0.15","6144742e57a61e489cc9e978","650c16f0f2faf8d7a0d14c09","651c1ca48922579e149ec440","null","null","<p style=""font-size: 60px; font-family: BACS"">lYruarAm</p>","","","","","","","","",""
"html-keyboard-response","105","1000353","0.0-10.0-0.16","6144742e57a61e489cc9e978","650c16f0f2faf8d7a0d14c09","651c1ca48922579e149ec440","null","null","<p style=""font-size: 60px; font-family: BACS"">JAaGcYUv</p>","","","","","","","","",""
"html-keyboard-response","106","1001368","0.0-10.0-0.17","6144742e57a61e489cc9e978","650c16f0f2faf8d7a0d14c09","651c1ca48922579e149ec440","null","null","<p style=""font-size: 60px; font-family: BACS"">YUNkZrAm</p>","","","","","","","","",""
"html-keyboard-response","107","1002377","0.0-10.0-0.18","6144742e57a61e489cc9e978","650c16f0f2faf8d7a0d14c09","651c1ca48922579e149ec440","null","null","<p style=""font-size: 60px; font-family: BACS"">ECtbDKOYC</p>","","","","","","","","",""
"html-keyboard-response","108","1003385","0.0-10.0-0.19","6144742e57a61e489cc9e978","650c16f0f2faf8d7a0d14c09","651c1ca48922579e149ec440","null","null","<p style=""font-size: 60px; font-family: BACS"">vYLUrAm</p>","","","","","","","","",""
"html-keyboard-response","109","1004401","0.0-10.0-0.20","6144742e57a61e489cc9e978","650c16f0f2faf8d7a0d14c09","651c1ca48922579e149ec440","null","null","<p style=""font-size: 60px; font-family: BACS"">UdYUQvcb</p>","","","","","","","","",""
"html-keyboard-response","110","1005409","0.0-10.0-0.21","6144742e57a61e489cc9e978","650c16f0f2faf8d7a0d14c09","651c1ca48922579e149ec440","null","null","<p style=""font-size: 60px; font-family: BACS"">kcCRtmhc</p>","","","","","","","","",""
"html-keyboard-response","111","1006418","0.0-10.0-0.22","6144742e57a61e489cc9e978","650c16f0f2faf8d7a0d14c09","651c1ca48922579e149ec440","null","null","<p style=""font-size: 60px; font-family: BACS"">UdYUQcYUv</p>","","","","","","","","",""
"html-keyboard-response","112","1007434","0.0-10.0-0.23","6144742e57a61e489cc9e978","650c16f0f2faf8d7a0d14c09","651c1ca48922579e149ec440","null","null","<p style=""font-size: 60px; font-family: BACS"">MkmEdCMdP</p>","","","","","","","","",""
"html-keyboard-response","113","1008442","0.0-10.0-0.24","6144742e57a61e489cc9e978","650c16f0f2faf8d7a0d14c09","651c1ca48922579e149ec440","null","null","<p style=""font-size: 60px; font-family: BACS"">bYGOZvcb</p>","","","","","","","","",""
"html-keyboard-response","114","1009451","0.0-10.0-0.25","6144742e57a61e489cc9e978","650c16f0f2faf8d7a0d14c09","651c1ca48922579e149ec440","null","null","<p style=""font-size: 60px; font-family: BACS"">bcbMPTl</p>","","","","","","","","",""
"html-keyboard-response","115","1010466","0.0-10.0-0.26","6144742e57a61e489cc9e978","650c16f0f2faf8d7a0d14c09","651c1ca48922579e149ec440","null","null","<p style=""font-size: 60px; font-family: BACS"">bYGOZuOAO</p>","","","","","","","","",""
"html-keyboard-response","116","1011475","0.0-10.0-0.27","6144742e57a61e489cc9e978","650c16f0f2faf8d7a0d14c09","651c1ca48922579e149ec440","null","null","<p style=""font-size: 60px; font-family: BACS"">bNdmGlvk</p>","","","","","","","","",""
"html-keyboard-response","117","1012483","0.0-10.0-0.28","6144742e57a61e489cc9e978","650c16f0f2faf8d7a0d14c09","651c1ca48922579e149ec440","null","null","<p style=""font-size: 60px; font-family: BACS"">UdYUQuOAO</p>","","","","","","","","",""
"html-keyboard-response","118","1013485","0.0-10.0-0.29","6144742e57a61e489cc9e978","650c16f0f2faf8d7a0d14c09","651c1ca48922579e149ec440","null","null","<p style=""font-size: 60px; font-family: BACS"">PdDTPTl</p>","","","","","","","","",""
"html-keyboard-response","119","1014492","0.0-10.0-0.30","6144742e57a61e489cc9e978","650c16f0f2faf8d7a0d14c09","651c1ca48922579e149ec440","null","null","<p style=""font-size: 60px; font-family: BACS"">JAaGvcb</p>","","","","","","","","",""
"html-keyboard-response","120","1015500","0.0-10.0-0.31","6144742e57a61e489cc9e978","650c16f0f2faf8d7a0d14c09","651c1ca48922579e149ec440","null","null","<p style=""font-size: 60px; font-family: BACS"">RtRhPTl</p>","","","","","","","","",""
"html-keyboard-response","121","1016500","0.0-10.0-0.32","6144742e57a61e489cc9e978","650c16f0f2faf8d7a0d14c09","651c1ca48922579e149ec440","null","null","<p style=""font-size: 60px; font-family: BACS"">JZOAkuOAO</p>","","","","","","","","",""
"html-keyboard-response","122","1017509","0.0-10.0-0.33","6144742e57a61e489cc9e978","650c16f0f2faf8d7a0d14c09","651c1ca48922579e149ec440","null","null","<p style=""font-size: 60px; font-family: BACS"">ABPRBmCd</p>","","","","","","","","",""
"html-keyboard-response","123","1018516","0.0-10.0-0.34","6144742e57a61e489cc9e978","650c16f0f2faf8d7a0d14c09","651c1ca48922579e149ec440","null","null","<p style=""font-size: 60px; font-family: BACS"">TklDPTl</p>","","","","","","","","",""
"html-keyboard-response","124","1019532","0.0-10.0-0.35","6144742e57a61e489cc9e978","650c16f0f2faf8d7a0d14c09","651c1ca48922579e149ec440","null","null","<p style=""font-size: 60px; font-family: BACS"">bNdmGvcb</p>","","","","","","","","",""
"html-keyboard-response","125","1020533","0.0-10.0-0.36","6144742e57a61e489cc9e978","650c16f0f2faf8d7a0d14c09","651c1ca48922579e149ec440","null","null","<p style=""font-size: 60px; font-family: BACS"">thbOMmhc</p>","","","","","","","","",""
"html-keyboard-response","126","1021548","0.0-10.0-0.37","6144742e57a61e489cc9e978","650c16f0f2faf8d7a0d14c09","651c1ca48922579e149ec440","null","null","<p style=""font-size: 60px; font-family: BACS"">bcbMmCd</p>","","","","","","","","",""
"html-keyboard-response","127","1022549","0.0-10.0-0.38","6144742e57a61e489cc9e978","650c16f0f2faf8d7a0d14c09","651c1ca48922579e149ec440","null","null","<p style=""font-size: 60px; font-family: BACS"">PdDTmhc</p>","","","","","","","","",""
"html-keyboard-response","128","1023565","0.0-10.0-0.39","6144742e57a61e489cc9e978","650c16f0f2faf8d7a0d14c09","651c1ca48922579e149ec440","null","null","<p style=""font-size: 60px; font-family: BACS"">JZOAkvcb</p>","","","","","","","","",""
"html-keyboard-response","129","1024566","0.0-10.0-0.40","6144742e57a61e489cc9e978","650c16f0f2faf8d7a0d14c09","651c1ca48922579e149ec440","null","null","<p style=""font-size: 60px; font-family: BACS"">RtRhCMdP</p>","","","","","","","","",""
"html-keyboard-response","130","1025579","0.0-10.0-0.41","6144742e57a61e489cc9e978","650c16f0f2faf8d7a0d14c09","651c1ca48922579e149ec440","null","null","<p style=""font-size: 60px; font-family: BACS"">YUNkZlvk</p>","","","","","","","","",""
"html-keyboard-response","131","1026581","0.0-10.0-0.42","6144742e57a61e489cc9e978","650c16f0f2faf8d7a0d14c09","651c1ca48922579e149ec440","null","null","<p style=""font-size: 60px; font-family: BACS"">uQkrdrAm</p>","","","","","","","","",""
"html-keyboard-response","132","1027582","0.0-10.0-0.43","6144742e57a61e489cc9e978","650c16f0f2faf8d7a0d14c09","651c1ca48922579e149ec440","null","null","<p style=""font-size: 60px; font-family: BACS"">AlTdmCd</p>","","","","","","","","",""
"html-keyboard-response","133","1028583","0.0-10.0-0.44","6144742e57a61e489cc9e978","650c16f0f2faf8d7a0d14c09","651c1ca48922579e149ec440","null","null","<p style=""font-size: 60px; font-family: BACS"">lYrualvk</p>","","","","","","","","",""
"html-keyboard-response","134","1029596","0.0-10.0-0.45","6144742e57a61e489cc9e978","650c16f0f2faf8d7a0d14c09","651c1ca48922579e149ec440","null","null","<p style=""font-size: 60px; font-family: BACS"">TklDCMdP</p>","","","","","","","","",""
"html-keyboard-response","135","1030612","0.0-10.0-0.46","6144742e57a61e489cc9e978","650c16f0f2faf8d7a0d14c09","651c1ca48922579e149ec440","null","null","<p style=""font-size: 60px; font-family: BACS"">ABPRBmhc</p>","","","","","","","","",""
"html-keyboard-response","136","1031615","0.0-10.0-0.47","6144742e57a61e489cc9e978","650c16f0f2faf8d7a0d14c09","651c1ca48922579e149ec440","null","null","<p style=""font-size: 60px; font-family: BACS"">vYLUuOAO</p>","","","","","","","","",""
"html-keyboard-response","137","1032628","0.0-10.0-0.48","6144742e57a61e489cc9e978","650c16f0f2faf8d7a0d14c09","651c1ca48922579e149ec440","null","null","<p style=""font-size: 60px; font-family: BACS"">MkmEdKOYC</p>","","","","","","","","",""
"html-keyboard-response","138","1033629","0.0-10.0-0.49","6144742e57a61e489cc9e978","650c16f0f2faf8d7a0d14c09","651c1ca48922579e149ec440","null","null","<p style=""font-size: 60px; font-family: BACS"">YUNkZuOAO</p>","","","","","","","","",""
"html-keyboard-response","139","1034635","0.0-10.0-0.50","6144742e57a61e489cc9e978","650c16f0f2faf8d7a0d14c09","651c1ca48922579e149ec440","null","null","<p style=""font-size: 60px; font-family: BACS"">AlTdmhc</p>","","","","","","","","",""
"html-keyboard-response","140","1035646","0.0-10.0-0.51","6144742e57a61e489cc9e978","650c16f0f2faf8d7a0d14c09","651c1ca48922579e149ec440","null","null","<p style=""font-size: 60px; font-family: BACS"">lYruacYUv</p>","","","","","","","","",""
"html-keyboard-response","141","1036661","0.0-10.0-0.52","6144742e57a61e489cc9e978","650c16f0f2faf8d7a0d14c09","651c1ca48922579e149ec440","null","null","<p style=""font-size: 60px; font-family: BACS"">ABPRBCMdP</p>","","","","","","","","",""
"html-keyboard-response","142","1037668","0.0-10.0-0.53","6144742e57a61e489cc9e978","650c16f0f2faf8d7a0d14c09","651c1ca48922579e149ec440","null","null","<p style=""font-size: 60px; font-family: BACS"">bYGOZcYUv</p>","","","","","","","","",""
"html-keyboard-response","143","1038678","0.0-10.0-0.54","6144742e57a61e489cc9e978","650c16f0f2faf8d7a0d14c09","651c1ca48922579e149ec440","null","null","<p style=""font-size: 60px; font-family: BACS"">aYQmlvk</p>","","","","","","","","",""
"html-keyboard-response","144","1039695","0.0-10.0-0.55","6144742e57a61e489cc9e978","650c16f0f2faf8d7a0d14c09","651c1ca48922579e149ec440","null","null","<p style=""font-size: 60px; font-family: BACS"">thbOMCMdP</p>","","","","","","","","",""
"html-keyboard-response","145","1040702","0.0-10.0-0.56","6144742e57a61e489cc9e978","650c16f0f2faf8d7a0d14c09","651c1ca48922579e149ec440","null","null","<p style=""font-size: 60px; font-family: BACS"">ECtbDmhc</p>","","","","","","","","",""
"html-keyboard-response","146","1041711","0.0-10.0-0.57","6144742e57a61e489cc9e978","650c16f0f2faf8d7a0d14c09","651c1ca48922579e149ec440","null","null","<p style=""font-size: 60px; font-family: BACS"">PdDTmCd</p>","","","","","","","","",""
"html-keyboard-response","147","1042727","0.0-10.0-0.58","6144742e57a61e489cc9e978","650c16f0f2faf8d7a0d14c09","651c1ca48922579e149ec440","null","null","<p style=""font-size: 60px; font-family: BACS"">uQkrdlvk</p>","","","","","","","","",""
"html-keyboard-response","148","1043735","0.0-10.0-0.59","6144742e57a61e489cc9e978","650c16f0f2faf8d7a0d14c09","651c1ca48922579e149ec440","null","null","<p style=""font-size: 60px; font-family: BACS"">bNdmGrAm</p>","","","","","","","","",""
"html-keyboard-response","149","1044744","0.0-10.0-0.60","6144742e57a61e489cc9e978","650c16f0f2faf8d7a0d14c09","651c1ca48922579e149ec440","null","null","<p style=""font-size: 60px; font-family: BACS"">RtRhKOYC</p>","","","","","","","","",""
"html-keyboard-response","150","1045759","0.0-10.0-0.61","6144742e57a61e489cc9e978","650c16f0f2faf8d7a0d14c09","651c1ca48922579e149ec440","null","null","<p style=""font-size: 60px; font-family: BACS"">bNdmGuOAO</p>","","","","","","","","",""
"html-keyboard-response","151","1046768","0.0-10.0-0.62","6144742e57a61e489cc9e978","650c16f0f2faf8d7a0d14c09","651c1ca48922579e149ec440","null","null","<p style=""font-size: 60px; font-family: BACS"">PdDTKOYC</p>","","","","","","","","",""
"html-keyboard-response","152","1047776","0.0-10.0-0.63","6144742e57a61e489cc9e978","650c16f0f2faf8d7a0d14c09","651c1ca48922579e149ec440","null","null","<p style=""font-size: 60px; font-family: BACS"">aYQmrAm</p>","","","","","","","","",""
"html-keyboard-response","153","1048792","0.0-10.0-0.64","6144742e57a61e489cc9e978","650c16f0f2faf8d7a0d14c09","651c1ca48922579e149ec440","null","null","<p style=""font-size: 60px; font-family: BACS"">bcbMCMdP</p>","","","","","","","","",""
"html-keyboard-response","154","1049800","0.0-10.0-0.65","6144742e57a61e489cc9e978","650c16f0f2faf8d7a0d14c09","651c1ca48922579e149ec440","null","null","<p style=""font-size: 60px; font-family: BACS"">JAaGrAm</p>","","","","","","","","",""
"html-keyboard-response","155","1050809","0.0-10.0-0.66","6144742e57a61e489cc9e978","650c16f0f2faf8d7a0d14c09","651c1ca48922579e149ec440","null","null","<p style=""font-size: 60px; font-family: BACS"">uQkrduOAO</p>","","","","","","","","",""
"html-keyboard-response","156","1051825","0.0-10.0-0.67","6144742e57a61e489cc9e978","650c16f0f2faf8d7a0d14c09","651c1ca48922579e149ec440","null","null","<p style=""font-size: 60px; font-family: BACS"">vYLUcYUv</p>","","","","","","","","",""
"html-keyboard-response","157","1052833","0.0-10.0-0.68","6144742e57a61e489cc9e978","650c16f0f2faf8d7a0d14c09","651c1ca48922579e149ec440","null","null","<p style=""font-size: 60px; font-family: BACS"">TklDmCd</p>","","","","","","","","",""
"html-keyboard-response","158","1053842","0.0-10.0-0.69","6144742e57a61e489cc9e978","650c16f0f2faf8d7a0d14c09","651c1ca48922579e149ec440","null","null","<p style=""font-size: 60px; font-family: BACS"">RtRhmhc</p>","","","","","","","","",""
"html-keyboard-response","159","1054857","0.0-10.0-0.70","6144742e57a61e489cc9e978","650c16f0f2faf8d7a0d14c09","651c1ca48922579e149ec440","null","null","<p style=""font-size: 60px; font-family: BACS"">kcCRtKOYC</p>","","","","","","","","",""
"html-keyboard-response","160","1055872","0.0-10.0-0.71","6144742e57a61e489cc9e978","650c16f0f2faf8d7a0d14c09","651c1ca48922579e149ec440","null","null","<p style=""font-size: 60px; font-family: BACS"">YUNkZcYUv</p>","","","","","","","","",""
"html-keyboard-response","161","1056892","0.0-10.0-0.72","6144742e57a61e489cc9e978","650c16f0f2faf8d7a0d14c09","651c1ca48922579e149ec440","null","null","<p style=""font-size: 60px; font-family: BACS"">JAaGlvk</p>","","","","","","","","",""
"html-keyboard-response","162","1057912","0.0-10.0-0.73","6144742e57a61e489cc9e978","650c16f0f2faf8d7a0d14c09","651c1ca48922579e149ec440","null","null","<p style=""font-size: 60px; font-family: BACS"">kcCRtPTl</p>","","","","","","","","",""
"html-keyboard-response","163","1058922","0.0-10.0-0.74","6144742e57a61e489cc9e978","650c16f0f2faf8d7a0d14c09","651c1ca48922579e149ec440","null","null","<p style=""font-size: 60px; font-family: BACS"">ECtbDmCd</p>","","","","","","","","",""
"html-keyboard-response","164","1059942","0.0-10.0-0.75","6144742e57a61e489cc9e978","650c16f0f2faf8d7a0d14c09","651c1ca48922579e149ec440","null","null","<p style=""font-size: 60px; font-family: BACS"">JZOAkcYUv</p>","","","","","","","","",""
"html-keyboard-response","165","1060962","0.0-10.0-0.76","6144742e57a61e489cc9e978","650c16f0f2faf8d7a0d14c09","651c1ca48922579e149ec440","null","null","<p style=""font-size: 60px; font-family: BACS"">vYLUvcb</p>","","","","","","","","",""
"html-keyboard-response","166","1061971","0.0-10.0-0.77","6144742e57a61e489cc9e978","650c16f0f2faf8d7a0d14c09","651c1ca48922579e149ec440","null","null","<p style=""font-size: 60px; font-family: BACS"">thbOMKOYC</p>","","","","","","","","",""
"html-keyboard-response","167","1062972","0.0-10.0-0.78","6144742e57a61e489cc9e978","650c16f0f2faf8d7a0d14c09","651c1ca48922579e149ec440","null","null","<p style=""font-size: 60px; font-family: BACS"">ECtbDCMdP</p>","","","","","","","","",""
"html-keyboard-response","168","1063982","0.0-10.0-0.79","6144742e57a61e489cc9e978","650c16f0f2faf8d7a0d14c09","651c1ca48922579e149ec440","null","null","<p style=""font-size: 60px; font-family: BACS"">ABPRBPTl</p>","","","","","","","","",""
"html-keyboard-response","169","1078427","0.0-11.0","6144742e57a61e489cc9e978","650c16f0f2faf8d7a0d14c09","651c1ca48922579e149ec440","14445"," ","<p>Great, you've seen the second block of words. You may now take a short break.</p>
      <p>Press the spacebar when you're ready to continue.</p>","","","","","","","","",""
"html-keyboard-response","170","1079437","0.0-12.0-0.0","6144742e57a61e489cc9e978","650c16f0f2faf8d7a0d14c09","651c1ca48922579e149ec440","null","null","<p style=""font-size: 60px; font-family: BACS"">RtRhKOYC</p>","","","","","","","","",""
"html-keyboard-response","171","1080452","0.0-12.0-0.1","6144742e57a61e489cc9e978","650c16f0f2faf8d7a0d14c09","651c1ca48922579e149ec440","null","null","<p style=""font-size: 60px; font-family: BACS"">JAaGvcb</p>","","","","","","","","",""
"html-keyboard-response","172","1081461","0.0-12.0-0.2","6144742e57a61e489cc9e978","650c16f0f2faf8d7a0d14c09","651c1ca48922579e149ec440","null","null","<p style=""font-size: 60px; font-family: BACS"">JZOAkuOAO</p>","","","","","","","","",""
"html-keyboard-response","173","1082470","0.0-12.0-0.3","6144742e57a61e489cc9e978","650c16f0f2faf8d7a0d14c09","651c1ca48922579e149ec440","null","null","<p style=""font-size: 60px; font-family: BACS"">thbOMCMdP</p>","","","","","","","","",""
"html-keyboard-response","174","1083485","0.0-12.0-0.4","6144742e57a61e489cc9e978","650c16f0f2faf8d7a0d14c09","651c1ca48922579e149ec440","null","null","<p style=""font-size: 60px; font-family: BACS"">lYruarAm</p>","","","","","","","","",""
"html-keyboard-response","175","1084494","0.0-12.0-0.5","6144742e57a61e489cc9e978","650c16f0f2faf8d7a0d14c09","651c1ca48922579e149ec440","null","null","<p style=""font-size: 60px; font-family: BACS"">ECtbDmhc</p>","","","","","","","","",""
"html-keyboard-response","176","1085502","0.0-12.0-0.6","6144742e57a61e489cc9e978","650c16f0f2faf8d7a0d14c09","651c1ca48922579e149ec440","null","null","<p style=""font-size: 60px; font-family: BACS"">AlTdmCd</p>","","","","","","","","",""
"html-keyboard-response","177","1086518","0.0-12.0-0.7","6144742e57a61e489cc9e978","650c16f0f2faf8d7a0d14c09","651c1ca48922579e149ec440","null","null","<p style=""font-size: 60px; font-family: BACS"">aYQmvcb</p>","","","","","","","","",""
"html-keyboard-response","178","1087526","0.0-12.0-0.8","6144742e57a61e489cc9e978","650c16f0f2faf8d7a0d14c09","651c1ca48922579e149ec440","null","null","<p style=""font-size: 60px; font-family: BACS"">RtRhmhc</p>","","","","","","","","",""
"html-keyboard-response","179","1088535","0.0-12.0-0.9","6144742e57a61e489cc9e978","650c16f0f2faf8d7a0d14c09","651c1ca48922579e149ec440","null","null","<p style=""font-size: 60px; font-family: BACS"">UdYUQuOAO</p>","","","","","","","","",""
"html-keyboard-response","180","1089551","0.0-12.0-0.10","6144742e57a61e489cc9e978","650c16f0f2faf8d7a0d14c09","651c1ca48922579e149ec440","null","null","<p style=""font-size: 60px; font-family: BACS"">thbOMmhc</p>","","","","","","","","",""
"html-keyboard-response","181","1090559","0.0-12.0-0.11","6144742e57a61e489cc9e978","650c16f0f2faf8d7a0d14c09","651c1ca48922579e149ec440","null","null","<p style=""font-size: 60px; font-family: BACS"">PdDTKOYC</p>","","","","","","","","",""
"html-keyboard-response","182","1091568","0.0-12.0-0.12","6144742e57a61e489cc9e978","650c16f0f2faf8d7a0d14c09","651c1ca48922579e149ec440","null","null","<p style=""font-size: 60px; font-family: BACS"">bNdmGvcb</p>","","","","","","","","",""
"html-keyboard-response","183","1092583","0.0-12.0-0.13","6144742e57a61e489cc9e978","650c16f0f2faf8d7a0d14c09","651c1ca48922579e149ec440","null","null","<p style=""font-size: 60px; font-family: BACS"">TklDmhc</p>","","","","","","","","",""
"html-keyboard-response","184","1093592","0.0-12.0-0.14","6144742e57a61e489cc9e978","650c16f0f2faf8d7a0d14c09","651c1ca48922579e149ec440","null","null","<p style=""font-size: 60px; font-family: BACS"">YUNkZrAm</p>","","","","","","","","",""
"html-keyboard-response","185","1094601","0.0-12.0-0.15","6144742e57a61e489cc9e978","650c16f0f2faf8d7a0d14c09","651c1ca48922579e149ec440","null","null","<p style=""font-size: 60px; font-family: BACS"">bcbMKOYC</p>","","","","","","","","",""
"html-keyboard-response","186","1095616","0.0-12.0-0.16","6144742e57a61e489cc9e978","650c16f0f2faf8d7a0d14c09","651c1ca48922579e149ec440","null","null","<p style=""font-size: 60px; font-family: BACS"">JAaGcYUv</p>","","","","","","","","",""
"html-keyboard-response","187","1096624","0.0-12.0-0.17","6144742e57a61e489cc9e978","650c16f0f2faf8d7a0d14c09","651c1ca48922579e149ec440","null","null","<p style=""font-size: 60px; font-family: BACS"">MkmEdPTl</p>","","","","","","","","",""
"html-keyboard-response","188","1097633","0.0-12.0-0.18","6144742e57a61e489cc9e978","650c16f0f2faf8d7a0d14c09","651c1ca48922579e149ec440","null","null","<p style=""font-size: 60px; font-family: BACS"">ECtbDCMdP</p>","","","","","","","","",""
"html-keyboard-response","189","1098634","0.0-12.0-0.19","6144742e57a61e489cc9e978","650c16f0f2faf8d7a0d14c09","651c1ca48922579e149ec440","null","null","<p style=""font-size: 60px; font-family: BACS"">bYGOZcYUv</p>","","","","","","","","",""
"html-keyboard-response","190","1099641","0.0-12.0-0.20","6144742e57a61e489cc9e978","650c16f0f2faf8d7a0d14c09","651c1ca48922579e149ec440","null","null","<p style=""font-size: 60px; font-family: BACS"">TklDCMdP</p>","","","","","","","","",""
"html-keyboard-response","191","1100650","0.0-12.0-0.21","6144742e57a61e489cc9e978","650c16f0f2faf8d7a0d14c09","651c1ca48922579e149ec440","null","null","<p style=""font-size: 60px; font-family: BACS"">bcbMmCd</p>","","","","","","","","",""
"html-keyboard-response","192","1101666","0.0-12.0-0.22","6144742e57a61e489cc9e978","650c16f0f2faf8d7a0d14c09","651c1ca48922579e149ec440","null","null","<p style=""font-size: 60px; font-family: BACS"">lYruacYUv</p>","","","","","","","","",""
"html-keyboard-response","193","1102674","0.0-12.0-0.23","6144742e57a61e489cc9e978","650c16f0f2faf8d7a0d14c09","651c1ca48922579e149ec440","null","null","<p style=""font-size: 60px; font-family: BACS"">uQkrdlvk</p>","","","","","","","","",""
"html-keyboard-response","194","1103682","0.0-12.0-0.24","6144742e57a61e489cc9e978","650c16f0f2faf8d7a0d14c09","651c1ca48922579e149ec440","null","null","<p style=""font-size: 60px; font-family: BACS"">ABPRBmhc</p>","","","","","","","","",""
"html-keyboard-response","195","1104683","0.0-12.0-0.25","6144742e57a61e489cc9e978","650c16f0f2faf8d7a0d14c09","651c1ca48922579e149ec440","null","null","<p style=""font-size: 60px; font-family: BACS"">UdYUQlvk</p>","","","","","","","","",""
"html-keyboard-response","196","1105691","0.0-12.0-0.26","6144742e57a61e489cc9e978","650c16f0f2faf8d7a0d14c09","651c1ca48922579e149ec440","null","null","<p style=""font-size: 60px; font-family: BACS"">aYQmuOAO</p>","","","","","","","","",""
"html-keyboard-response","197","1106698","0.0-12.0-0.27","6144742e57a61e489cc9e978","650c16f0f2faf8d7a0d14c09","651c1ca48922579e149ec440","null","null","<p style=""font-size: 60px; font-family: BACS"">thbOMmCd</p>","","","","","","","","",""
"html-keyboard-response","198","1107715","0.0-12.0-0.28","6144742e57a61e489cc9e978","650c16f0f2faf8d7a0d14c09","651c1ca48922579e149ec440","null","null","<p style=""font-size: 60px; font-family: BACS"">kcCRtCMdP</p>","","","","","","","","",""
"html-keyboard-response","199","1108723","0.0-12.0-0.29","6144742e57a61e489cc9e978","650c16f0f2faf8d7a0d14c09","651c1ca48922579e149ec440","null","null","<p style=""font-size: 60px; font-family: BACS"">uQkrdcYUv</p>","","","","","","","","",""
"html-keyboard-response","200","1109731","0.0-12.0-0.30","6144742e57a61e489cc9e978","650c16f0f2faf8d7a0d14c09","651c1ca48922579e149ec440","null","null","<p style=""font-size: 60px; font-family: BACS"">RtRhPTl</p>","","","","","","","","",""
"html-keyboard-response","201","1110747","0.0-12.0-0.31","6144742e57a61e489cc9e978","650c16f0f2faf8d7a0d14c09","651c1ca48922579e149ec440","null","null","<p style=""font-size: 60px; font-family: BACS"">bYGOZvcb</p>","","","","","","","","",""
"html-keyboard-response","202","1111755","0.0-12.0-0.32","6144742e57a61e489cc9e978","650c16f0f2faf8d7a0d14c09","651c1ca48922579e149ec440","null","null","<p style=""font-size: 60px; font-family: BACS"">AlTdKOYC</p>","","","","","","","","",""
"html-keyboard-response","203","1112764","0.0-12.0-0.33","6144742e57a61e489cc9e978","650c16f0f2faf8d7a0d14c09","651c1ca48922579e149ec440","null","null","<p style=""font-size: 60px; font-family: BACS"">RtRhCMdP</p>","","","","","","","","",""
"html-keyboard-response","204","1113781","0.0-12.0-0.34","6144742e57a61e489cc9e978","650c16f0f2faf8d7a0d14c09","651c1ca48922579e149ec440","null","null","<p style=""font-size: 60px; font-family: BACS"">AlTdPTl</p>","","","","","","","","",""
"html-keyboard-response","205","1114797","0.0-12.0-0.35","6144742e57a61e489cc9e978","650c16f0f2faf8d7a0d14c09","651c1ca48922579e149ec440","null","null","<p style=""font-size: 60px; font-family: BACS"">ECtbDmCd</p>","","","","","","","","",""
"html-keyboard-response","206","1115798","0.0-12.0-0.36","6144742e57a61e489cc9e978","650c16f0f2faf8d7a0d14c09","651c1ca48922579e149ec440","null","null","<p style=""font-size: 60px; font-family: BACS"">ABPRBPTl</p>","","","","","","","","",""
"html-keyboard-response","207","1116811","0.0-12.0-0.37","6144742e57a61e489cc9e978","650c16f0f2faf8d7a0d14c09","651c1ca48922579e149ec440","null","null","<p style=""font-size: 60px; font-family: BACS"">PdDTmhc</p>","","","","","","","","",""
"html-keyboard-response","208","1117812","0.0-12.0-0.38","6144742e57a61e489cc9e978","650c16f0f2faf8d7a0d14c09","651c1ca48922579e149ec440","null","null","<p style=""font-size: 60px; font-family: BACS"">JZOAkrAm</p>","","","","","","","","",""
"html-keyboard-response","209","1118829","0.0-12.0-0.39","6144742e57a61e489cc9e978","650c16f0f2faf8d7a0d14c09","651c1ca48922579e149ec440","null","null","<p style=""font-size: 60px; font-family: BACS"">bYGOZuOAO</p>","","","","","","","","",""
"html-keyboard-response","210","1119844","0.0-12.0-0.40","6144742e57a61e489cc9e978","650c16f0f2faf8d7a0d14c09","651c1ca48922579e149ec440","null","null","<p style=""font-size: 60px; font-family: BACS"">uQkrdrAm</p>","","","","","","","","",""
"html-keyboard-response","211","1120845","0.0-12.0-0.41","6144742e57a61e489cc9e978","650c16f0f2faf8d7a0d14c09","651c1ca48922579e149ec440","null","null","<p style=""font-size: 60px; font-family: BACS"">ECtbDKOYC</p>","","","","","","","","",""
"html-keyboard-response","212","1121846","0.0-12.0-0.42","6144742e57a61e489cc9e978","650c16f0f2faf8d7a0d14c09","651c1ca48922579e149ec440","null","null","<p style=""font-size: 60px; font-family: BACS"">TklDmCd</p>","","","","","","","","",""
"html-keyboard-response","213","1122847","0.0-12.0-0.43","6144742e57a61e489cc9e978","650c16f0f2faf8d7a0d14c09","651c1ca48922579e149ec440","null","null","<p style=""font-size: 60px; font-family: BACS"">lYrualvk</p>","","","","","","","","",""
"html-keyboard-response","214","1123860","0.0-12.0-0.44","6144742e57a61e489cc9e978","650c16f0f2faf8d7a0d14c09","651c1ca48922579e149ec440","null","null","<p style=""font-size: 60px; font-family: BACS"">UdYUQcYUv</p>","","","","","","","","",""
"html-keyboard-response","215","1124877","0.0-12.0-0.45","6144742e57a61e489cc9e978","650c16f0f2faf8d7a0d14c09","651c1ca48922579e149ec440","null","null","<p style=""font-size: 60px; font-family: BACS"">PdDTPTl</p>","","","","","","","","",""
"html-keyboard-response","216","1125881","0.0-12.0-0.46","6144742e57a61e489cc9e978","650c16f0f2faf8d7a0d14c09","651c1ca48922579e149ec440","null","null","<p style=""font-size: 60px; font-family: BACS"">YUNkZcYUv</p>","","","","","","","","",""
"html-keyboard-response","217","1126893","0.0-12.0-0.47","6144742e57a61e489cc9e978","650c16f0f2faf8d7a0d14c09","651c1ca48922579e149ec440","null","null","<p style=""font-size: 60px; font-family: BACS"">aYQmrAm</p>","","","","","","","","",""
"html-keyboard-response","218","1127894","0.0-12.0-0.48","6144742e57a61e489cc9e978","650c16f0f2faf8d7a0d14c09","651c1ca48922579e149ec440","null","null","<p style=""font-size: 60px; font-family: BACS"">bcbMPTl</p>","","","","","","","","",""
"html-keyboard-response","219","1128899","0.0-12.0-0.49","6144742e57a61e489cc9e978","650c16f0f2faf8d7a0d14c09","651c1ca48922579e149ec440","null","null","<p style=""font-size: 60px; font-family: BACS"">thbOMKOYC</p>","","","","","","","","",""
"html-keyboard-response","220","1129910","0.0-12.0-0.50","6144742e57a61e489cc9e978","650c16f0f2faf8d7a0d14c09","651c1ca48922579e149ec440","null","null","<p style=""font-size: 60px; font-family: BACS"">lYruavcb</p>","","","","","","","","",""
"html-keyboard-response","221","1130925","0.0-12.0-0.51","6144742e57a61e489cc9e978","650c16f0f2faf8d7a0d14c09","651c1ca48922579e149ec440","null","null","<p style=""font-size: 60px; font-family: BACS"">kcCRtmhc</p>","","","","","","","","",""
"html-keyboard-response","222","1131933","0.0-12.0-0.52","6144742e57a61e489cc9e978","650c16f0f2faf8d7a0d14c09","651c1ca48922579e149ec440","null","null","<p style=""font-size: 60px; font-family: BACS"">bYGOZlvk</p>","","","","","","","","",""
"html-keyboard-response","223","1132943","0.0-12.0-0.53","6144742e57a61e489cc9e978","650c16f0f2faf8d7a0d14c09","651c1ca48922579e149ec440","null","null","<p style=""font-size: 60px; font-family: BACS"">TklDPTl</p>","","","","","","","","",""
"html-keyboard-response","224","1133958","0.0-12.0-0.54","6144742e57a61e489cc9e978","650c16f0f2faf8d7a0d14c09","651c1ca48922579e149ec440","null","null","<p style=""font-size: 60px; font-family: BACS"">ABPRBCMdP</p>","","","","","","","","",""
"html-keyboard-response","225","1134967","0.0-12.0-0.55","6144742e57a61e489cc9e978","650c16f0f2faf8d7a0d14c09","651c1ca48922579e149ec440","null","null","<p style=""font-size: 60px; font-family: BACS"">bNdmGuOAO</p>","","","","","","","","",""
"html-keyboard-response","226","1135975","0.0-12.0-0.56","6144742e57a61e489cc9e978","650c16f0f2faf8d7a0d14c09","651c1ca48922579e149ec440","null","null","<p style=""font-size: 60px; font-family: BACS"">MkmEdKOYC</p>","","","","","","","","",""
"html-keyboard-response","227","1136991","0.0-12.0-0.57","6144742e57a61e489cc9e978","650c16f0f2faf8d7a0d14c09","651c1ca48922579e149ec440","null","null","<p style=""font-size: 60px; font-family: BACS"">YUNkZuOAO</p>","","","","","","","","",""
"html-keyboard-response","228","1137999","0.0-12.0-0.58","6144742e57a61e489cc9e978","650c16f0f2faf8d7a0d14c09","651c1ca48922579e149ec440","null","null","<p style=""font-size: 60px; font-family: BACS"">bcbMCMdP</p>","","","","","","","","",""
"html-keyboard-response","229","1139008","0.0-12.0-0.59","6144742e57a61e489cc9e978","650c16f0f2faf8d7a0d14c09","651c1ca48922579e149ec440","null","null","<p style=""font-size: 60px; font-family: BACS"">JZOAkvcb</p>","","","","","","","","",""
"html-keyboard-response","230","1140024","0.0-12.0-0.60","6144742e57a61e489cc9e978","650c16f0f2faf8d7a0d14c09","651c1ca48922579e149ec440","null","null","<p style=""font-size: 60px; font-family: BACS"">bNdmGlvk</p>","","","","","","","","",""
"html-keyboard-response","231","1141032","0.0-12.0-0.61","6144742e57a61e489cc9e978","650c16f0f2faf8d7a0d14c09","651c1ca48922579e149ec440","null","null","<p style=""font-size: 60px; font-family: BACS"">vYLUcYUv</p>","","","","","","","","",""
"html-keyboard-response","232","1142041","0.0-12.0-0.62","6144742e57a61e489cc9e978","650c16f0f2faf8d7a0d14c09","651c1ca48922579e149ec440","null","null","<p style=""font-size: 60px; font-family: BACS"">MkmEdCMdP</p>","","","","","","","","",""
"html-keyboard-response","233","1143056","0.0-12.0-0.63","6144742e57a61e489cc9e978","650c16f0f2faf8d7a0d14c09","651c1ca48922579e149ec440","null","null","<p style=""font-size: 60px; font-family: BACS"">vYLUrAm</p>","","","","","","","","",""
"html-keyboard-response","234","1144065","0.0-12.0-0.64","6144742e57a61e489cc9e978","650c16f0f2faf8d7a0d14c09","651c1ca48922579e149ec440","null","null","<p style=""font-size: 60px; font-family: BACS"">ABPRBmCd</p>","","","","","","","","",""
"html-keyboard-response","235","1145074","0.0-12.0-0.65","6144742e57a61e489cc9e978","650c16f0f2faf8d7a0d14c09","651c1ca48922579e149ec440","null","null","<p style=""font-size: 60px; font-family: BACS"">kcCRtPTl</p>","","","","","","","","",""
"html-keyboard-response","236","1146089","0.0-12.0-0.66","6144742e57a61e489cc9e978","650c16f0f2faf8d7a0d14c09","651c1ca48922579e149ec440","null","null","<p style=""font-size: 60px; font-family: BACS"">AlTdmhc</p>","","","","","","","","",""
"html-keyboard-response","237","1147098","0.0-12.0-0.67","6144742e57a61e489cc9e978","650c16f0f2faf8d7a0d14c09","651c1ca48922579e149ec440","null","null","<p style=""font-size: 60px; font-family: BACS"">JAaGlvk</p>","","","","","","","","",""
"html-keyboard-response","238","1148106","0.0-12.0-0.68","6144742e57a61e489cc9e978","650c16f0f2faf8d7a0d14c09","651c1ca48922579e149ec440","null","null","<p style=""font-size: 60px; font-family: BACS"">uQkrduOAO</p>","","","","","","","","",""
"html-keyboard-response","239","1149122","0.0-12.0-0.69","6144742e57a61e489cc9e978","650c16f0f2faf8d7a0d14c09","651c1ca48922579e149ec440","null","null","<p style=""font-size: 60px; font-family: BACS"">JZOAkcYUv</p>","","","","","","","","",""
"html-keyboard-response","240","1150130","0.0-12.0-0.70","6144742e57a61e489cc9e978","650c16f0f2faf8d7a0d14c09","651c1ca48922579e149ec440","null","null","<p style=""font-size: 60px; font-family: BACS"">aYQmlvk</p>","","","","","","","","",""
"html-keyboard-response","241","1151139","0.0-12.0-0.71","6144742e57a61e489cc9e978","650c16f0f2faf8d7a0d14c09","651c1ca48922579e149ec440","null","null","<p style=""font-size: 60px; font-family: BACS"">PdDTmCd</p>","","","","","","","","",""
"html-keyboard-response","242","1152153","0.0-12.0-0.72","6144742e57a61e489cc9e978","650c16f0f2faf8d7a0d14c09","651c1ca48922579e149ec440","null","null","<p style=""font-size: 60px; font-family: BACS"">bNdmGrAm</p>","","","","","","","","",""
"html-keyboard-response","243","1153163","0.0-12.0-0.73","6144742e57a61e489cc9e978","650c16f0f2faf8d7a0d14c09","651c1ca48922579e149ec440","null","null","<p style=""font-size: 60px; font-family: BACS"">YUNkZlvk</p>","","","","","","","","",""
"html-keyboard-response","244","1154172","0.0-12.0-0.74","6144742e57a61e489cc9e978","650c16f0f2faf8d7a0d14c09","651c1ca48922579e149ec440","null","null","<p style=""font-size: 60px; font-family: BACS"">vYLUuOAO</p>","","","","","","","","",""
"html-keyboard-response","245","1155187","0.0-12.0-0.75","6144742e57a61e489cc9e978","650c16f0f2faf8d7a0d14c09","651c1ca48922579e149ec440","null","null","<p style=""font-size: 60px; font-family: BACS"">UdYUQvcb</p>","","","","","","","","",""
"html-keyboard-response","246","1156196","0.0-12.0-0.76","6144742e57a61e489cc9e978","650c16f0f2faf8d7a0d14c09","651c1ca48922579e149ec440","null","null","<p style=""font-size: 60px; font-family: BACS"">MkmEdmCd</p>","","","","","","","","",""
"html-keyboard-response","247","1157205","0.0-12.0-0.77","6144742e57a61e489cc9e978","650c16f0f2faf8d7a0d14c09","651c1ca48922579e149ec440","null","null","<p style=""font-size: 60px; font-family: BACS"">kcCRtKOYC</p>","","","","","","","","",""
"html-keyboard-response","248","1158220","0.0-12.0-0.78","6144742e57a61e489cc9e978","650c16f0f2faf8d7a0d14c09","651c1ca48922579e149ec440","null","null","<p style=""font-size: 60px; font-family: BACS"">JAaGrAm</p>","","","","","","","","",""
"html-keyboard-response","249","1159228","0.0-12.0-0.79","6144742e57a61e489cc9e978","650c16f0f2faf8d7a0d14c09","651c1ca48922579e149ec440","null","null","<p style=""font-size: 60px; font-family: BACS"">vYLUvcb</p>","","","","","","","","",""
"html-keyboard-response","250","1281662","0.0-13.0","6144742e57a61e489cc9e978","650c16f0f2faf8d7a0d14c09","651c1ca48922579e149ec440","122439"," ","<p>Great, you've seen the third block of words. You may now take a short break.</p>
      <p>Press the spacebar when you're ready to continue.</p>","","","","","","","","",""
"html-keyboard-response","251","1282674","0.0-14.0-0.0","6144742e57a61e489cc9e978","650c16f0f2faf8d7a0d14c09","651c1ca48922579e149ec440","null","null","<p style=""font-size: 60px; font-family: BACS"">RtRhmhc</p>","","","","","","","","",""
"html-keyboard-response","252","1283690","0.0-14.0-0.1","6144742e57a61e489cc9e978","650c16f0f2faf8d7a0d14c09","651c1ca48922579e149ec440","null","null","<p style=""font-size: 60px; font-family: BACS"">aYQmlvk</p>","","","","","","","","",""
"html-keyboard-response","253","1284690","0.0-14.0-0.2","6144742e57a61e489cc9e978","650c16f0f2faf8d7a0d14c09","651c1ca48922579e149ec440","null","null","<p style=""font-size: 60px; font-family: BACS"">MkmEdmCd</p>","","","","","","","","",""
"html-keyboard-response","254","1285706","0.0-14.0-0.3","6144742e57a61e489cc9e978","650c16f0f2faf8d7a0d14c09","651c1ca48922579e149ec440","null","null","<p style=""font-size: 60px; font-family: BACS"">TklDCMdP</p>","","","","","","","","",""
"html-keyboard-response","255","1286707","0.0-14.0-0.4","6144742e57a61e489cc9e978","650c16f0f2faf8d7a0d14c09","651c1ca48922579e149ec440","null","null","<p style=""font-size: 60px; font-family: BACS"">vYLUrAm</p>","","","","","","","","",""
"html-keyboard-response","256","1287720","0.0-14.0-0.5","6144742e57a61e489cc9e978","650c16f0f2faf8d7a0d14c09","651c1ca48922579e149ec440","null","null","<p style=""font-size: 60px; font-family: BACS"">ABPRBmhc</p>","","","","","","","","",""
"html-keyboard-response","257","1288722","0.0-14.0-0.6","6144742e57a61e489cc9e978","650c16f0f2faf8d7a0d14c09","651c1ca48922579e149ec440","null","null","<p style=""font-size: 60px; font-family: BACS"">JAaGvcb</p>","","","","","","","","",""
"html-keyboard-response","258","1289723","0.0-14.0-0.7","6144742e57a61e489cc9e978","650c16f0f2faf8d7a0d14c09","651c1ca48922579e149ec440","null","null","<p style=""font-size: 60px; font-family: BACS"">uQkrdrAm</p>","","","","","","","","",""
"html-keyboard-response","259","1290724","0.0-14.0-0.8","6144742e57a61e489cc9e978","650c16f0f2faf8d7a0d14c09","651c1ca48922579e149ec440","null","null","<p style=""font-size: 60px; font-family: BACS"">MkmEdCMdP</p>","","","","","","","","",""
"html-keyboard-response","260","1291737","0.0-14.0-0.9","6144742e57a61e489cc9e978","650c16f0f2faf8d7a0d14c09","651c1ca48922579e149ec440","null","null","<p style=""font-size: 60px; font-family: BACS"">JZOAkcYUv</p>","","","","","","","","",""
"html-keyboard-response","261","1292753","0.0-14.0-0.10","6144742e57a61e489cc9e978","650c16f0f2faf8d7a0d14c09","651c1ca48922579e149ec440","null","null","<p style=""font-size: 60px; font-family: BACS"">vYLUuOAO</p>","","","","","","","","",""
"html-keyboard-response","262","1293757","0.0-14.0-0.11","6144742e57a61e489cc9e978","650c16f0f2faf8d7a0d14c09","651c1ca48922579e149ec440","null","null","<p style=""font-size: 60px; font-family: BACS"">lYrualvk</p>","","","","","","","","",""
"html-keyboard-response","263","1294770","0.0-14.0-0.12","6144742e57a61e489cc9e978","650c16f0f2faf8d7a0d14c09","651c1ca48922579e149ec440","null","null","<p style=""font-size: 60px; font-family: BACS"">PdDTKOYC</p>","","","","","","","","",""
"html-keyboard-response","264","1295786","0.0-14.0-0.13","6144742e57a61e489cc9e978","650c16f0f2faf8d7a0d14c09","651c1ca48922579e149ec440","null","null","<p style=""font-size: 60px; font-family: BACS"">JZOAkvcb</p>","","","","","","","","",""
"html-keyboard-response","265","1296791","0.0-14.0-0.14","6144742e57a61e489cc9e978","650c16f0f2faf8d7a0d14c09","651c1ca48922579e149ec440","null","null","<p style=""font-size: 60px; font-family: BACS"">MkmEdKOYC</p>","","","","","","","","",""
"html-keyboard-response","266","1297802","0.0-14.0-0.15","6144742e57a61e489cc9e978","650c16f0f2faf8d7a0d14c09","651c1ca48922579e149ec440","null","null","<p style=""font-size: 60px; font-family: BACS"">RtRhCMdP</p>","","","","","","","","",""
"html-keyboard-response","267","1298819","0.0-14.0-0.16","6144742e57a61e489cc9e978","650c16f0f2faf8d7a0d14c09","651c1ca48922579e149ec440","null","null","<p style=""font-size: 60px; font-family: BACS"">bcbMPTl</p>","","","","","","","","",""
"html-keyboard-response","268","1299825","0.0-14.0-0.17","6144742e57a61e489cc9e978","650c16f0f2faf8d7a0d14c09","651c1ca48922579e149ec440","null","null","<p style=""font-size: 60px; font-family: BACS"">ECtbDmhc</p>","","","","","","","","",""
"html-keyboard-response","269","1300836","0.0-14.0-0.18","6144742e57a61e489cc9e978","650c16f0f2faf8d7a0d14c09","651c1ca48922579e149ec440","null","null","<p style=""font-size: 60px; font-family: BACS"">YUNkZrAm</p>","","","","","","","","",""
"html-keyboard-response","270","1301851","0.0-14.0-0.19","6144742e57a61e489cc9e978","650c16f0f2faf8d7a0d14c09","651c1ca48922579e149ec440","null","null","<p style=""font-size: 60px; font-family: BACS"">kcCRtCMdP</p>","","","","","","","","",""
"html-keyboard-response","271","1302859","0.0-14.0-0.20","6144742e57a61e489cc9e978","650c16f0f2faf8d7a0d14c09","651c1ca48922579e149ec440","null","null","<p style=""font-size: 60px; font-family: BACS"">JZOAkuOAO</p>","","","","","","","","",""
"html-keyboard-response","272","1303869","0.0-14.0-0.21","6144742e57a61e489cc9e978","650c16f0f2faf8d7a0d14c09","651c1ca48922579e149ec440","null","null","<p style=""font-size: 60px; font-family: BACS"">ABPRBCMdP</p>","","","","","","","","",""
"html-keyboard-response","273","1304891","0.0-14.0-0.22","6144742e57a61e489cc9e978","650c16f0f2faf8d7a0d14c09","651c1ca48922579e149ec440","null","null","<p style=""font-size: 60px; font-family: BACS"">aYQmuOAO</p>","","","","","","","","",""
"html-keyboard-response","274","1305899","0.0-14.0-0.23","6144742e57a61e489cc9e978","650c16f0f2faf8d7a0d14c09","651c1ca48922579e149ec440","null","null","<p style=""font-size: 60px; font-family: BACS"">bYGOZlvk</p>","","","","","","","","",""
"html-keyboard-response","275","1306909","0.0-14.0-0.24","6144742e57a61e489cc9e978","650c16f0f2faf8d7a0d14c09","651c1ca48922579e149ec440","null","null","<p style=""font-size: 60px; font-family: BACS"">uQkrduOAO</p>","","","","","","","","",""
"html-keyboard-response","276","1307924","0.0-14.0-0.25","6144742e57a61e489cc9e978","650c16f0f2faf8d7a0d14c09","651c1ca48922579e149ec440","null","null","<p style=""font-size: 60px; font-family: BACS"">AlTdPTl</p>","","","","","","","","",""
"html-keyboard-response","277","1308932","0.0-14.0-0.26","6144742e57a61e489cc9e978","650c16f0f2faf8d7a0d14c09","651c1ca48922579e149ec440","null","null","<p style=""font-size: 60px; font-family: BACS"">uQkrdcYUv</p>","","","","","","","","",""
"html-keyboard-response","278","1309941","0.0-14.0-0.27","6144742e57a61e489cc9e978","650c16f0f2faf8d7a0d14c09","651c1ca48922579e149ec440","null","null","<p style=""font-size: 60px; font-family: BACS"">thbOMmhc</p>","","","","","","","","",""
"html-keyboard-response","279","1310956","0.0-14.0-0.28","6144742e57a61e489cc9e978","650c16f0f2faf8d7a0d14c09","651c1ca48922579e149ec440","null","null","<p style=""font-size: 60px; font-family: BACS"">PdDTPTl</p>","","","","","","","","",""
"html-keyboard-response","280","1311965","0.0-14.0-0.29","6144742e57a61e489cc9e978","650c16f0f2faf8d7a0d14c09","651c1ca48922579e149ec440","null","null","<p style=""font-size: 60px; font-family: BACS"">bNdmGuOAO</p>","","","","","","","","",""
"html-keyboard-response","281","1312973","0.0-14.0-0.30","6144742e57a61e489cc9e978","650c16f0f2faf8d7a0d14c09","651c1ca48922579e149ec440","null","null","<p style=""font-size: 60px; font-family: BACS"">JAaGlvk</p>","","","","","","","","",""
"html-keyboard-response","282","1313974","0.0-14.0-0.31","6144742e57a61e489cc9e978","650c16f0f2faf8d7a0d14c09","651c1ca48922579e149ec440","null","null","<p style=""font-size: 60px; font-family: BACS"">lYruarAm</p>","","","","","","","","",""
"html-keyboard-response","283","1314981","0.0-14.0-0.32","6144742e57a61e489cc9e978","650c16f0f2faf8d7a0d14c09","651c1ca48922579e149ec440","null","null","<p style=""font-size: 60px; font-family: BACS"">kcCRtmhc</p>","","","","","","","","",""
"html-keyboard-response","284","1315990","0.0-14.0-0.33","6144742e57a61e489cc9e978","650c16f0f2faf8d7a0d14c09","651c1ca48922579e149ec440","null","null","<p style=""font-size: 60px; font-family: BACS"">RtRhPTl</p>","","","","","","","","",""
"html-keyboard-response","285","1317006","0.0-14.0-0.34","6144742e57a61e489cc9e978","650c16f0f2faf8d7a0d14c09","651c1ca48922579e149ec440","null","null","<p style=""font-size: 60px; font-family: BACS"">uQkrdlvk</p>","","","","","","","","",""
"html-keyboard-response","286","1318014","0.0-14.0-0.35","6144742e57a61e489cc9e978","650c16f0f2faf8d7a0d14c09","651c1ca48922579e149ec440","null","null","<p style=""font-size: 60px; font-family: BACS"">UdYUQuOAO</p>","","","","","","","","",""
"html-keyboard-response","287","1319022","0.0-14.0-0.36","6144742e57a61e489cc9e978","650c16f0f2faf8d7a0d14c09","651c1ca48922579e149ec440","null","null","<p style=""font-size: 60px; font-family: BACS"">AlTdmCd</p>","","","","","","","","",""
"html-keyboard-response","288","1320038","0.0-14.0-0.37","6144742e57a61e489cc9e978","650c16f0f2faf8d7a0d14c09","651c1ca48922579e149ec440","null","null","<p style=""font-size: 60px; font-family: BACS"">bYGOZuOAO</p>","","","","","","","","",""
"html-keyboard-response","289","1321046","0.0-14.0-0.38","6144742e57a61e489cc9e978","650c16f0f2faf8d7a0d14c09","651c1ca48922579e149ec440","null","null","<p style=""font-size: 60px; font-family: BACS"">UdYUQcYUv</p>","","","","","","","","",""
"html-keyboard-response","290","1322056","0.0-14.0-0.39","6144742e57a61e489cc9e978","650c16f0f2faf8d7a0d14c09","651c1ca48922579e149ec440","null","null","<p style=""font-size: 60px; font-family: BACS"">bNdmGlvk</p>","","","","","","","","",""
"html-keyboard-response","291","1323072","0.0-14.0-0.40","6144742e57a61e489cc9e978","650c16f0f2faf8d7a0d14c09","651c1ca48922579e149ec440","null","null","<p style=""font-size: 60px; font-family: BACS"">vYLUcYUv</p>","","","","","","","","",""
"html-keyboard-response","292","1324079","0.0-14.0-0.41","6144742e57a61e489cc9e978","650c16f0f2faf8d7a0d14c09","651c1ca48922579e149ec440","null","null","<p style=""font-size: 60px; font-family: BACS"">AlTdmhc</p>","","","","","","","","",""
"html-keyboard-response","293","1325088","0.0-14.0-0.42","6144742e57a61e489cc9e978","650c16f0f2faf8d7a0d14c09","651c1ca48922579e149ec440","null","null","<p style=""font-size: 60px; font-family: BACS"">bYGOZcYUv</p>","","","","","","","","",""
"html-keyboard-response","294","1326103","0.0-14.0-0.43","6144742e57a61e489cc9e978","650c16f0f2faf8d7a0d14c09","651c1ca48922579e149ec440","null","null","<p style=""font-size: 60px; font-family: BACS"">JZOAkrAm</p>","","","","","","","","",""
"html-keyboard-response","295","1327111","0.0-14.0-0.44","6144742e57a61e489cc9e978","650c16f0f2faf8d7a0d14c09","651c1ca48922579e149ec440","null","null","<p style=""font-size: 60px; font-family: BACS"">ECtbDCMdP</p>","","","","","","","","",""
"html-keyboard-response","296","1328120","0.0-14.0-0.45","6144742e57a61e489cc9e978","650c16f0f2faf8d7a0d14c09","651c1ca48922579e149ec440","null","null","<p style=""font-size: 60px; font-family: BACS"">lYruavcb</p>","","","","","","","","",""
"html-keyboard-response","297","1329136","0.0-14.0-0.46","6144742e57a61e489cc9e978","650c16f0f2faf8d7a0d14c09","651c1ca48922579e149ec440","null","null","<p style=""font-size: 60px; font-family: BACS"">TklDmCd</p>","","","","","","","","",""
"html-keyboard-response","298","1330145","0.0-14.0-0.47","6144742e57a61e489cc9e978","650c16f0f2faf8d7a0d14c09","651c1ca48922579e149ec440","null","null","<p style=""font-size: 60px; font-family: BACS"">thbOMCMdP</p>","","","","","","","","",""
"html-keyboard-response","299","1331153","0.0-14.0-0.48","6144742e57a61e489cc9e978","650c16f0f2faf8d7a0d14c09","651c1ca48922579e149ec440","null","null","<p style=""font-size: 60px; font-family: BACS"">PdDTmhc</p>","","","","","","","","",""
"html-keyboard-response","300","1332169","0.0-14.0-0.49","6144742e57a61e489cc9e978","650c16f0f2faf8d7a0d14c09","651c1ca48922579e149ec440","null","null","<p style=""font-size: 60px; font-family: BACS"">bYGOZvcb</p>","","","","","","","","",""
"html-keyboard-response","301","1333177","0.0-14.0-0.50","6144742e57a61e489cc9e978","650c16f0f2faf8d7a0d14c09","651c1ca48922579e149ec440","null","null","<p style=""font-size: 60px; font-family: BACS"">ECtbDmCd</p>","","","","","","","","",""
"html-keyboard-response","302","1334186","0.0-14.0-0.51","6144742e57a61e489cc9e978","650c16f0f2faf8d7a0d14c09","651c1ca48922579e149ec440","null","null","<p style=""font-size: 60px; font-family: BACS"">ABPRBPTl</p>","","","","","","","","",""
"html-keyboard-response","303","1335187","0.0-14.0-0.52","6144742e57a61e489cc9e978","650c16f0f2faf8d7a0d14c09","651c1ca48922579e149ec440","null","null","<p style=""font-size: 60px; font-family: BACS"">bcbMmCd</p>","","","","","","","","",""
"html-keyboard-response","304","1336194","0.0-14.0-0.53","6144742e57a61e489cc9e978","650c16f0f2faf8d7a0d14c09","651c1ca48922579e149ec440","null","null","<p style=""font-size: 60px; font-family: BACS"">thbOMKOYC</p>","","","","","","","","",""
"html-keyboard-response","305","1337202","0.0-14.0-0.54","6144742e57a61e489cc9e978","650c16f0f2faf8d7a0d14c09","651c1ca48922579e149ec440","null","null","<p style=""font-size: 60px; font-family: BACS"">PdDTmCd</p>","","","","","","","","",""
"html-keyboard-response","306","1338203","0.0-14.0-0.55","6144742e57a61e489cc9e978","650c16f0f2faf8d7a0d14c09","651c1ca48922579e149ec440","null","null","<p style=""font-size: 60px; font-family: BACS"">JAaGrAm</p>","","","","","","","","",""
"html-keyboard-response","307","1339211","0.0-14.0-0.56","6144742e57a61e489cc9e978","650c16f0f2faf8d7a0d14c09","651c1ca48922579e149ec440","null","null","<p style=""font-size: 60px; font-family: BACS"">bNdmGvcb</p>","","","","","","","","",""
"html-keyboard-response","308","1340218","0.0-14.0-0.57","6144742e57a61e489cc9e978","650c16f0f2faf8d7a0d14c09","651c1ca48922579e149ec440","null","null","<p style=""font-size: 60px; font-family: BACS"">thbOMmCd</p>","","","","","","","","",""
"html-keyboard-response","309","1341219","0.0-14.0-0.58","6144742e57a61e489cc9e978","650c16f0f2faf8d7a0d14c09","651c1ca48922579e149ec440","null","null","<p style=""font-size: 60px; font-family: BACS"">kcCRtPTl</p>","","","","","","","","",""
"html-keyboard-response","310","1342234","0.0-14.0-0.59","6144742e57a61e489cc9e978","650c16f0f2faf8d7a0d14c09","651c1ca48922579e149ec440","null","null","<p style=""font-size: 60px; font-family: BACS"">YUNkZuOAO</p>","","","","","","","","",""
"html-keyboard-response","311","1343235","0.0-14.0-0.60","6144742e57a61e489cc9e978","650c16f0f2faf8d7a0d14c09","651c1ca48922579e149ec440","null","null","<p style=""font-size: 60px; font-family: BACS"">AlTdKOYC</p>","","","","","","","","",""
"html-keyboard-response","312","1344249","0.0-14.0-0.61","6144742e57a61e489cc9e978","650c16f0f2faf8d7a0d14c09","651c1ca48922579e149ec440","null","null","<p style=""font-size: 60px; font-family: BACS"">bNdmGrAm</p>","","","","","","","","",""
"html-keyboard-response","313","1345251","0.0-14.0-0.62","6144742e57a61e489cc9e978","650c16f0f2faf8d7a0d14c09","651c1ca48922579e149ec440","null","null","<p style=""font-size: 60px; font-family: BACS"">UdYUQvcb</p>","","","","","","","","",""
"html-keyboard-response","314","1346252","0.0-14.0-0.63","6144742e57a61e489cc9e978","650c16f0f2faf8d7a0d14c09","651c1ca48922579e149ec440","null","null","<p style=""font-size: 60px; font-family: BACS"">ABPRBmCd</p>","","","","","","","","",""
"html-keyboard-response","315","1347266","0.0-14.0-0.64","6144742e57a61e489cc9e978","650c16f0f2faf8d7a0d14c09","651c1ca48922579e149ec440","null","null","<p style=""font-size: 60px; font-family: BACS"">ECtbDKOYC</p>","","","","","","","","",""
"html-keyboard-response","316","1348282","0.0-14.0-0.65","6144742e57a61e489cc9e978","650c16f0f2faf8d7a0d14c09","651c1ca48922579e149ec440","null","null","<p style=""font-size: 60px; font-family: BACS"">UdYUQlvk</p>","","","","","","","","",""
"html-keyboard-response","317","1349298","0.0-14.0-0.66","6144742e57a61e489cc9e978","650c16f0f2faf8d7a0d14c09","651c1ca48922579e149ec440","null","null","<p style=""font-size: 60px; font-family: BACS"">RtRhKOYC</p>","","","","","","","","",""
"html-keyboard-response","318","1350301","0.0-14.0-0.67","6144742e57a61e489cc9e978","650c16f0f2faf8d7a0d14c09","651c1ca48922579e149ec440","null","null","<p style=""font-size: 60px; font-family: BACS"">lYruacYUv</p>","","","","","","","","",""
"html-keyboard-response","319","1351315","0.0-14.0-0.68","6144742e57a61e489cc9e978","650c16f0f2faf8d7a0d14c09","651c1ca48922579e149ec440","null","null","<p style=""font-size: 60px; font-family: BACS"">kcCRtKOYC</p>","","","","","","","","",""
"html-keyboard-response","320","1352331","0.0-14.0-0.69","6144742e57a61e489cc9e978","650c16f0f2faf8d7a0d14c09","651c1ca48922579e149ec440","null","null","<p style=""font-size: 60px; font-family: BACS"">vYLUvcb</p>","","","","","","","","",""
"html-keyboard-response","321","1353333","0.0-14.0-0.70","6144742e57a61e489cc9e978","650c16f0f2faf8d7a0d14c09","651c1ca48922579e149ec440","null","null","<p style=""font-size: 60px; font-family: BACS"">aYQmrAm</p>","","","","","","","","",""
"html-keyboard-response","322","1354347","0.0-14.0-0.71","6144742e57a61e489cc9e978","650c16f0f2faf8d7a0d14c09","651c1ca48922579e149ec440","null","null","<p style=""font-size: 60px; font-family: BACS"">TklDmhc</p>","","","","","","","","",""
"html-keyboard-response","323","1355364","0.0-14.0-0.72","6144742e57a61e489cc9e978","650c16f0f2faf8d7a0d14c09","651c1ca48922579e149ec440","null","null","<p style=""font-size: 60px; font-family: BACS"">YUNkZlvk</p>","","","","","","","","",""
"html-keyboard-response","324","1356368","0.0-14.0-0.73","6144742e57a61e489cc9e978","650c16f0f2faf8d7a0d14c09","651c1ca48922579e149ec440","null","null","<p style=""font-size: 60px; font-family: BACS"">bcbMCMdP</p>","","","","","","","","",""
"html-keyboard-response","325","1357380","0.0-14.0-0.74","6144742e57a61e489cc9e978","650c16f0f2faf8d7a0d14c09","651c1ca48922579e149ec440","null","null","<p style=""font-size: 60px; font-family: BACS"">aYQmvcb</p>","","","","","","","","",""
"html-keyboard-response","326","1358383","0.0-14.0-0.75","6144742e57a61e489cc9e978","650c16f0f2faf8d7a0d14c09","651c1ca48922579e149ec440","null","null","<p style=""font-size: 60px; font-family: BACS"">MkmEdPTl</p>","","","","","","","","",""
"html-keyboard-response","327","1359386","0.0-14.0-0.76","6144742e57a61e489cc9e978","650c16f0f2faf8d7a0d14c09","651c1ca48922579e149ec440","null","null","<p style=""font-size: 60px; font-family: BACS"">JAaGcYUv</p>","","","","","","","","",""
"html-keyboard-response","328","1360397","0.0-14.0-0.77","6144742e57a61e489cc9e978","650c16f0f2faf8d7a0d14c09","651c1ca48922579e149ec440","null","null","<p style=""font-size: 60px; font-family: BACS"">bcbMKOYC</p>","","","","","","","","",""
"html-keyboard-response","329","1361413","0.0-14.0-0.78","6144742e57a61e489cc9e978","650c16f0f2faf8d7a0d14c09","651c1ca48922579e149ec440","null","null","<p style=""font-size: 60px; font-family: BACS"">YUNkZcYUv</p>","","","","","","","","",""
"html-keyboard-response","330","1362420","0.0-14.0-0.79","6144742e57a61e489cc9e978","650c16f0f2faf8d7a0d14c09","651c1ca48922579e149ec440","null","null","<p style=""font-size: 60px; font-family: BACS"">TklDPTl</p>","","","","","","","","",""
"html-keyboard-response","331","1510965","0.0-15.0","6144742e57a61e489cc9e978","650c16f0f2faf8d7a0d14c09","651c1ca48922579e149ec440","148552"," ","<p>Great, you've seen the fourth block of words. You may now take a short break.</p>
      <p>Press the spacebar when you're ready to continue.</p>","","","","","","","","",""
"html-keyboard-response","332","1511966","0.0-16.0-0.0","6144742e57a61e489cc9e978","650c16f0f2faf8d7a0d14c09","651c1ca48922579e149ec440","null","null","<p style=""font-size: 60px; font-family: BACS"">thbOMCMdP</p>","","","","","","","","",""
"html-keyboard-response","333","1512975","0.0-16.0-0.1","6144742e57a61e489cc9e978","650c16f0f2faf8d7a0d14c09","651c1ca48922579e149ec440","null","null","<p style=""font-size: 60px; font-family: BACS"">thbOMCMdP</p>","","","","","","","","",""
"html-keyboard-response","334","1513991","0.0-16.0-0.2","6144742e57a61e489cc9e978","650c16f0f2faf8d7a0d14c09","651c1ca48922579e149ec440","null","null","<p style=""font-size: 60px; font-family: BACS"">thbOMCMdP</p>","","","","","","","","",""
"html-keyboard-response","335","1515000","0.0-16.0-0.3","6144742e57a61e489cc9e978","650c16f0f2faf8d7a0d14c09","651c1ca48922579e149ec440","null","null","<p style=""font-size: 60px; font-family: BACS"">thbOMCMdP</p>","","","","","","","","",""
"html-keyboard-response","336","1516008","0.0-16.0-0.4","6144742e57a61e489cc9e978","650c16f0f2faf8d7a0d14c09","651c1ca48922579e149ec440","null","null","<p style=""font-size: 60px; font-family: BACS"">thbOMCMdP</p>","","","","","","","","",""
"html-keyboard-response","337","1517024","0.0-16.0-0.5","6144742e57a61e489cc9e978","650c16f0f2faf8d7a0d14c09","651c1ca48922579e149ec440","null","null","<p style=""font-size: 60px; font-family: BACS"">thbOMCMdP</p>","","","","","","","","",""
"html-keyboard-response","338","1518032","0.0-16.0-0.6","6144742e57a61e489cc9e978","650c16f0f2faf8d7a0d14c09","651c1ca48922579e149ec440","null","null","<p style=""font-size: 60px; font-family: BACS"">thbOMCMdP</p>","","","","","","","","",""
"html-keyboard-response","339","1519041","0.0-16.0-0.7","6144742e57a61e489cc9e978","650c16f0f2faf8d7a0d14c09","651c1ca48922579e149ec440","null","null","<p style=""font-size: 60px; font-family: BACS"">thbOMCMdP</p>","","","","","","","","",""
"html-keyboard-response","340","1520056","0.0-16.0-0.8","6144742e57a61e489cc9e978","650c16f0f2faf8d7a0d14c09","651c1ca48922579e149ec440","null","null","<p style=""font-size: 60px; font-family: BACS"">thbOMCMdP</p>","","","","","","","","",""
"html-keyboard-response","341","1521065","0.0-16.0-0.9","6144742e57a61e489cc9e978","650c16f0f2faf8d7a0d14c09","651c1ca48922579e149ec440","null","null","<p style=""font-size: 60px; font-family: BACS"">thbOMCMdP</p>","","","","","","","","",""
"html-keyboard-response","342","1522074","0.0-16.0-0.10","6144742e57a61e489cc9e978","650c16f0f2faf8d7a0d14c09","651c1ca48922579e149ec440","null","null","<p style=""font-size: 60px; font-family: BACS"">thbOMCMdP</p>","","","","","","","","",""
"html-keyboard-response","343","1523089","0.0-16.0-0.11","6144742e57a61e489cc9e978","650c16f0f2faf8d7a0d14c09","651c1ca48922579e149ec440","null","null","<p style=""font-size: 60px; font-family: BACS"">thbOMCMdP</p>","","","","","","","","",""
"html-keyboard-response","344","1524097","0.0-16.0-0.12","6144742e57a61e489cc9e978","650c16f0f2faf8d7a0d14c09","651c1ca48922579e149ec440","null","null","<p style=""font-size: 60px; font-family: BACS"">thbOMCMdP</p>","","","","","","","","",""
"html-keyboard-response","345","1525106","0.0-16.0-0.13","6144742e57a61e489cc9e978","650c16f0f2faf8d7a0d14c09","651c1ca48922579e149ec440","null","null","<p style=""font-size: 60px; font-family: BACS"">thbOMCMdP</p>","","","","","","","","",""
"html-keyboard-response","346","1526112","0.0-16.0-0.14","6144742e57a61e489cc9e978","650c16f0f2faf8d7a0d14c09","651c1ca48922579e149ec440","null","null","<p style=""font-size: 60px; font-family: BACS"">thbOMCMdP</p>","","","","","","","","",""
"html-keyboard-response","347","1527115","0.0-16.0-0.15","6144742e57a61e489cc9e978","650c16f0f2faf8d7a0d14c09","651c1ca48922579e149ec440","null","null","<p style=""font-size: 60px; font-family: BACS"">thbOMCMdP</p>","","","","","","","","",""
"html-keyboard-response","348","1528122","0.0-16.0-0.16","6144742e57a61e489cc9e978","650c16f0f2faf8d7a0d14c09","651c1ca48922579e149ec440","null","null","<p style=""font-size: 60px; font-family: BACS"">thbOMCMdP</p>","","","","","","","","",""
"html-keyboard-response","349","1529139","0.0-16.0-0.17","6144742e57a61e489cc9e978","650c16f0f2faf8d7a0d14c09","651c1ca48922579e149ec440","null","null","<p style=""font-size: 60px; font-family: BACS"">thbOMCMdP</p>","","","","","","","","",""
"html-keyboard-response","350","1530147","0.0-16.0-0.18","6144742e57a61e489cc9e978","650c16f0f2faf8d7a0d14c09","651c1ca48922579e149ec440","null","null","<p style=""font-size: 60px; font-family: BACS"">thbOMCMdP</p>","","","","","","","","",""
"html-keyboard-response","351","1531155","0.0-16.0-0.19","6144742e57a61e489cc9e978","650c16f0f2faf8d7a0d14c09","651c1ca48922579e149ec440","null","null","<p style=""font-size: 60px; font-family: BACS"">thbOMCMdP</p>","","","","","","","","",""
"html-keyboard-response","352","1532156","0.0-16.0-0.20","6144742e57a61e489cc9e978","650c16f0f2faf8d7a0d14c09","651c1ca48922579e149ec440","null","null","<p style=""font-size: 60px; font-family: BACS"">thbOMCMdP</p>","","","","","","","","",""
"html-keyboard-response","353","1533164","0.0-16.0-0.21","6144742e57a61e489cc9e978","650c16f0f2faf8d7a0d14c09","651c1ca48922579e149ec440","null","null","<p style=""font-size: 60px; font-family: BACS"">thbOMCMdP</p>","","","","","","","","",""
"html-keyboard-response","354","1534171","0.0-16.0-0.22","6144742e57a61e489cc9e978","650c16f0f2faf8d7a0d14c09","651c1ca48922579e149ec440","null","null","<p style=""font-size: 60px; font-family: BACS"">thbOMCMdP</p>","","","","","","","","",""
"html-keyboard-response","355","1535173","0.0-16.0-0.23","6144742e57a61e489cc9e978","650c16f0f2faf8d7a0d14c09","651c1ca48922579e149ec440","null","null","<p style=""font-size: 60px; font-family: BACS"">thbOMCMdP</p>","","","","","","","","",""
"html-keyboard-response","356","1536187","0.0-16.0-0.24","6144742e57a61e489cc9e978","650c16f0f2faf8d7a0d14c09","651c1ca48922579e149ec440","null","null","<p style=""font-size: 60px; font-family: BACS"">thbOMCMdP</p>","","","","","","","","",""
"html-keyboard-response","357","1537188","0.0-16.0-0.25","6144742e57a61e489cc9e978","650c16f0f2faf8d7a0d14c09","651c1ca48922579e149ec440","null","null","<p style=""font-size: 60px; font-family: BACS"">thbOMCMdP</p>","","","","","","","","",""
"html-keyboard-response","358","1538202","0.0-16.0-0.26","6144742e57a61e489cc9e978","650c16f0f2faf8d7a0d14c09","651c1ca48922579e149ec440","null","null","<p style=""font-size: 60px; font-family: BACS"">thbOMCMdP</p>","","","","","","","","",""
"html-keyboard-response","359","1539212","0.0-16.0-0.27","6144742e57a61e489cc9e978","650c16f0f2faf8d7a0d14c09","651c1ca48922579e149ec440","null","null","<p style=""font-size: 60px; font-family: BACS"">thbOMCMdP</p>","","","","","","","","",""
"html-keyboard-response","360","1540212","0.0-16.0-0.28","6144742e57a61e489cc9e978","650c16f0f2faf8d7a0d14c09","651c1ca48922579e149ec440","null","null","<p style=""font-size: 60px; font-family: BACS"">thbOMCMdP</p>","","","","","","","","",""
"html-keyboard-response","361","1541214","0.0-16.0-0.29","6144742e57a61e489cc9e978","650c16f0f2faf8d7a0d14c09","651c1ca48922579e149ec440","null","null","<p style=""font-size: 60px; font-family: BACS"">thbOMCMdP</p>","","","","","","","","",""
"html-keyboard-response","362","1542227","0.0-16.0-0.30","6144742e57a61e489cc9e978","650c16f0f2faf8d7a0d14c09","651c1ca48922579e149ec440","null","null","<p style=""font-size: 60px; font-family: BACS"">thbOMCMdP</p>","","","","","","","","",""
"html-keyboard-response","363","1543227","0.0-16.0-0.31","6144742e57a61e489cc9e978","650c16f0f2faf8d7a0d14c09","651c1ca48922579e149ec440","null","null","<p style=""font-size: 60px; font-family: BACS"">thbOMCMdP</p>","","","","","","","","",""
"html-keyboard-response","364","1544232","0.0-16.0-0.32","6144742e57a61e489cc9e978","650c16f0f2faf8d7a0d14c09","651c1ca48922579e149ec440","null","null","<p style=""font-size: 60px; font-family: BACS"">thbOMCMdP</p>","","","","","","","","",""
"html-keyboard-response","365","1545243","0.0-16.0-0.33","6144742e57a61e489cc9e978","650c16f0f2faf8d7a0d14c09","651c1ca48922579e149ec440","null","null","<p style=""font-size: 60px; font-family: BACS"">thbOMCMdP</p>","","","","","","","","",""
"html-keyboard-response","366","1546244","0.0-16.0-0.34","6144742e57a61e489cc9e978","650c16f0f2faf8d7a0d14c09","651c1ca48922579e149ec440","null","null","<p style=""font-size: 60px; font-family: BACS"">thbOMCMdP</p>","","","","","","","","",""
"html-keyboard-response","367","1547250","0.0-16.0-0.35","6144742e57a61e489cc9e978","650c16f0f2faf8d7a0d14c09","651c1ca48922579e149ec440","null","null","<p style=""font-size: 60px; font-family: BACS"">thbOMCMdP</p>","","","","","","","","",""
"html-keyboard-response","368","1548260","0.0-16.0-0.36","6144742e57a61e489cc9e978","650c16f0f2faf8d7a0d14c09","651c1ca48922579e149ec440","null","null","<p style=""font-size: 60px; font-family: BACS"">thbOMCMdP</p>","","","","","","","","",""
"html-keyboard-response","369","1549275","0.0-16.0-0.37","6144742e57a61e489cc9e978","650c16f0f2faf8d7a0d14c09","651c1ca48922579e149ec440","null","null","<p style=""font-size: 60px; font-family: BACS"">thbOMCMdP</p>","","","","","","","","",""
"html-keyboard-response","370","1550284","0.0-16.0-0.38","6144742e57a61e489cc9e978","650c16f0f2faf8d7a0d14c09","651c1ca48922579e149ec440","null","null","<p style=""font-size: 60px; font-family: BACS"">thbOMCMdP</p>","","","","","","","","",""
"html-keyboard-response","371","1551293","0.0-16.0-0.39","6144742e57a61e489cc9e978","650c16f0f2faf8d7a0d14c09","651c1ca48922579e149ec440","null","null","<p style=""font-size: 60px; font-family: BACS"">thbOMCMdP</p>","","","","","","","","",""
"html-keyboard-response","372","1552308","0.0-16.0-0.40","6144742e57a61e489cc9e978","650c16f0f2faf8d7a0d14c09","651c1ca48922579e149ec440","null","null","<p style=""font-size: 60px; font-family: BACS"">thbOMCMdP</p>","","","","","","","","",""
"html-keyboard-response","373","1553316","0.0-16.0-0.41","6144742e57a61e489cc9e978","650c16f0f2faf8d7a0d14c09","651c1ca48922579e149ec440","null","null","<p style=""font-size: 60px; font-family: BACS"">thbOMCMdP</p>","","","","","","","","",""
"html-keyboard-response","374","1554325","0.0-16.0-0.42","6144742e57a61e489cc9e978","650c16f0f2faf8d7a0d14c09","651c1ca48922579e149ec440","null","null","<p style=""font-size: 60px; font-family: BACS"">thbOMCMdP</p>","","","","","","","","",""
"html-keyboard-response","375","1555341","0.0-16.0-0.43","6144742e57a61e489cc9e978","650c16f0f2faf8d7a0d14c09","651c1ca48922579e149ec440","null","null","<p style=""font-size: 60px; font-family: BACS"">thbOMCMdP</p>","","","","","","","","",""
"html-keyboard-response","376","1556349","0.0-16.0-0.44","6144742e57a61e489cc9e978","650c16f0f2faf8d7a0d14c09","651c1ca48922579e149ec440","null","null","<p style=""font-size: 60px; font-family: BACS"">thbOMCMdP</p>","","","","","","","","",""
"html-keyboard-response","377","1557358","0.0-16.0-0.45","6144742e57a61e489cc9e978","650c16f0f2faf8d7a0d14c09","651c1ca48922579e149ec440","null","null","<p style=""font-size: 60px; font-family: BACS"">thbOMCMdP</p>","","","","","","","","",""
"html-keyboard-response","378","1558373","0.0-16.0-0.46","6144742e57a61e489cc9e978","650c16f0f2faf8d7a0d14c09","651c1ca48922579e149ec440","null","null","<p style=""font-size: 60px; font-family: BACS"">thbOMCMdP</p>","","","","","","","","",""
"html-keyboard-response","379","1559383","0.0-16.0-0.47","6144742e57a61e489cc9e978","650c16f0f2faf8d7a0d14c09","651c1ca48922579e149ec440","null","null","<p style=""font-size: 60px; font-family: BACS"">thbOMCMdP</p>","","","","","","","","",""
"html-keyboard-response","380","1560391","0.0-16.0-0.48","6144742e57a61e489cc9e978","650c16f0f2faf8d7a0d14c09","651c1ca48922579e149ec440","null","null","<p style=""font-size: 60px; font-family: BACS"">thbOMCMdP</p>","","","","","","","","",""
"html-keyboard-response","381","1561406","0.0-16.0-0.49","6144742e57a61e489cc9e978","650c16f0f2faf8d7a0d14c09","651c1ca48922579e149ec440","null","null","<p style=""font-size: 60px; font-family: BACS"">thbOMCMdP</p>","","","","","","","","",""
"html-keyboard-response","382","1562415","0.0-16.0-0.50","6144742e57a61e489cc9e978","650c16f0f2faf8d7a0d14c09","651c1ca48922579e149ec440","null","null","<p style=""font-size: 60px; font-family: BACS"">thbOMCMdP</p>","","","","","","","","",""
"html-keyboard-response","383","1563424","0.0-16.0-0.51","6144742e57a61e489cc9e978","650c16f0f2faf8d7a0d14c09","651c1ca48922579e149ec440","null","null","<p style=""font-size: 60px; font-family: BACS"">thbOMCMdP</p>","","","","","","","","",""
"html-keyboard-response","384","1564424","0.0-16.0-0.52","6144742e57a61e489cc9e978","650c16f0f2faf8d7a0d14c09","651c1ca48922579e149ec440","null","null","<p style=""font-size: 60px; font-family: BACS"">thbOMCMdP</p>","","","","","","","","",""
"html-keyboard-response","385","1565432","0.0-16.0-0.53","6144742e57a61e489cc9e978","650c16f0f2faf8d7a0d14c09","651c1ca48922579e149ec440","null","null","<p style=""font-size: 60px; font-family: BACS"">thbOMCMdP</p>","","","","","","","","",""
"html-keyboard-response","386","1566439","0.0-16.0-0.54","6144742e57a61e489cc9e978","650c16f0f2faf8d7a0d14c09","651c1ca48922579e149ec440","null","null","<p style=""font-size: 60px; font-family: BACS"">thbOMCMdP</p>","","","","","","","","",""
"html-keyboard-response","387","1567456","0.0-16.0-0.55","6144742e57a61e489cc9e978","650c16f0f2faf8d7a0d14c09","651c1ca48922579e149ec440","null","null","<p style=""font-size: 60px; font-family: BACS"">thbOMCMdP</p>","","","","","","","","",""
"html-keyboard-response","388","1568464","0.0-16.0-0.56","6144742e57a61e489cc9e978","650c16f0f2faf8d7a0d14c09","651c1ca48922579e149ec440","null","null","<p style=""font-size: 60px; font-family: BACS"">thbOMCMdP</p>","","","","","","","","",""
"html-keyboard-response","389","1569472","0.0-16.0-0.57","6144742e57a61e489cc9e978","650c16f0f2faf8d7a0d14c09","651c1ca48922579e149ec440","null","null","<p style=""font-size: 60px; font-family: BACS"">thbOMCMdP</p>","","","","","","","","",""
"html-keyboard-response","390","1570473","0.0-16.0-0.58","6144742e57a61e489cc9e978","650c16f0f2faf8d7a0d14c09","651c1ca48922579e149ec440","null","null","<p style=""font-size: 60px; font-family: BACS"">thbOMCMdP</p>","","","","","","","","",""
"html-keyboard-response","391","1571481","0.0-16.0-0.59","6144742e57a61e489cc9e978","650c16f0f2faf8d7a0d14c09","651c1ca48922579e149ec440","null","null","<p style=""font-size: 60px; font-family: BACS"">thbOMCMdP</p>","","","","","","","","",""
"html-keyboard-response","392","1572488","0.0-16.0-0.60","6144742e57a61e489cc9e978","650c16f0f2faf8d7a0d14c09","651c1ca48922579e149ec440","null","null","<p style=""font-size: 60px; font-family: BACS"">thbOMCMdP</p>","","","","","","","","",""
"html-keyboard-response","393","1573489","0.0-16.0-0.61","6144742e57a61e489cc9e978","650c16f0f2faf8d7a0d14c09","651c1ca48922579e149ec440","null","null","<p style=""font-size: 60px; font-family: BACS"">thbOMCMdP</p>","","","","","","","","",""
"html-keyboard-response","394","1574505","0.0-16.0-0.62","6144742e57a61e489cc9e978","650c16f0f2faf8d7a0d14c09","651c1ca48922579e149ec440","null","null","<p style=""font-size: 60px; font-family: BACS"">thbOMCMdP</p>","","","","","","","","",""
"html-keyboard-response","395","1575506","0.0-16.0-0.63","6144742e57a61e489cc9e978","650c16f0f2faf8d7a0d14c09","651c1ca48922579e149ec440","null","null","<p style=""font-size: 60px; font-family: BACS"">thbOMCMdP</p>","","","","","","","","",""
"html-keyboard-response","396","1576519","0.0-16.0-0.64","6144742e57a61e489cc9e978","650c16f0f2faf8d7a0d14c09","651c1ca48922579e149ec440","null","null","<p style=""font-size: 60px; font-family: BACS"">thbOMCMdP</p>","","","","","","","","",""
"html-keyboard-response","397","1577521","0.0-16.0-0.65","6144742e57a61e489cc9e978","650c16f0f2faf8d7a0d14c09","651c1ca48922579e149ec440","null","null","<p style=""font-size: 60px; font-family: BACS"">thbOMCMdP</p>","","","","","","","","",""
"html-keyboard-response","398","1578521","0.0-16.0-0.66","6144742e57a61e489cc9e978","650c16f0f2faf8d7a0d14c09","651c1ca48922579e149ec440","null","null","<p style=""font-size: 60px; font-family: BACS"">thbOMCMdP</p>","","","","","","","","",""
