"trial_type","trial_index","time_elapsed","internal_node_id","subject_id","study_id","session_id","rt","response","stimulus","success","item","task","correct_response","testing_condition","correct","target","confound","name"
"pavlovia","0","714","0.0-0.0","60c49e68081928c86ba7b98a","650c16f0f2faf8d7a0d14c09","651c1cd0f2f046c6abe73a52","","","","","","","","","","","",""
"survey-html-form","1","10609","0.0-1.0","60c49e68081928c86ba7b98a","650c16f0f2faf8d7a0d14c09","651c1cd0f2f046c6abe73a52","9893","{""ID"":""60c49e68081928c86ba7b98a""}","","","","","","","","","",""
"html-keyboard-response","2","104690","0.0-2.0","60c49e68081928c86ba7b98a","650c16f0f2faf8d7a0d14c09","651c1cd0f2f046c6abe73a52","94079"," ","<p style=""font-size: 15px;"">Before beginning, we ask that you read the consent information and confirm your agreement to participate in the experiment.</p>
      <p style=""font-size: 15px;""> We ask that you remember that this is a research project and that your participation is entirely voluntary. You can stop your participation at any time, without needing to provide any explanation. The study we're asking you to participate in aims at examining how readers process written words. You will be engaged in a session of apprximately 20 minutes, followed by a brief questionnaire. You will have the opportunity to take a few breaks during the experiment. You will be paid £4 for your participation, corresponding to a rate of £8/hour. While this experiment looks at cognitive faculties, this experiment doesn't constitute clinical proof of eventual pathologies.</p>
      <p style=""font-size: 15px;"">All of the information collected thanks to yours and others' participation will be held in a secure password-protected server, and will not be shared with anyone not authorised to view it. Your personal information will be kept with an arbitrary participant ID. Thanks to this data anonymity process, any researcher analysing the data won't be able to track the information back to a specific participant. Therefore, this process will make identifying you impossibile, even when results from the study will be published in scientific reviews, presented at congresses, or at any other public forum. More generally, the collected data will be treated in accordance with the laws on privacy and conformity to the Legislative Degree n. 196 ""Code regarding the protection of personal data"" of the 30th of June 2003 and to the European Regulation 2016/670 (General Data Protection Regulation - GDPR). The Data Protection Officer is Avv. Valentina Carollo, who can be contacted at the following email addresses: <a href=""mailto:dpo@sissa.it"">dpo@sissa.it</a> or <a href=""mailto:rpd@sissa.it"">rpd@sissa.it</a> - PEC: <a href=""mailto:protocollo@pec.sissa.it"">protocollo@pec.sissa.it</a>.</p>
      <p style=""font-size: 15px;""> Before expressing your consent to participate, we would like to remind you again that in case you need explanations on any aspect of the experimental procedure, the researcher is at your disposition (<a href=""mailto:aliebelt@sissa.it"">aliebelt@sissa.it</a>, <a href=""mailto:davide.crepaldi@sissa.it"">davide.crepaldi@sissa.it</a>).</p>
      <p style=""font-size: 15px;"">If you would like to download the informed consent form, you can do so here: <a href=""BASL-Informed_Consent.pdf"" download>informed consent form</a>.</p>
      <p style=""font-size: 15px;"">We ask that you press the spacebar to proceed to the consent section.</p>","","","","","","","","",""
"survey-html-form","3","132170","0.0-3.0","60c49e68081928c86ba7b98a","650c16f0f2faf8d7a0d14c09","651c1cd0f2f046c6abe73a52","27479","{""consent1"":""YES"",""consent2"":""YES"",""consent3"":""YES"",""consent4"":""YES"",""consent5"":""YES"",""consent6"":""YES""}","","","","","","","","","",""
"fullscreen","4","135586","0.0-4.0","60c49e68081928c86ba7b98a","650c16f0f2faf8d7a0d14c09","651c1cd0f2f046c6abe73a52","","","","true","","","","","","","",""
"html-keyboard-response","5","177123","0.0-5.0","60c49e68081928c86ba7b98a","650c16f0f2faf8d7a0d14c09","651c1cd0f2f046c6abe73a52","41536"," ","<p>Welcome, and thank you very much for your time!</p>
      <p>In this experiment, you'll be a language expert who's been asked to take a look at words that Earth has received in its first communication with aliens. Your task, in this first part of the experiment, is to pay close attention to the words you'll be shown; later, world leaders will ask you questions on what you saw. The words will be shown to you quite quickly; it seems that the aliens were in a hurry :-)</p>
      <p>Press the spacebar to continue.<p>","","","","","","","","",""
"html-keyboard-response","6","177177","0.0-6.0","60c49e68081928c86ba7b98a","650c16f0f2faf8d7a0d14c09","651c1cd0f2f046c6abe73a52","null","null","<p style=""font-size: 120px; font-family: BACS""> </p>","","","","","","","","",""
"html-keyboard-response","7","182311","0.0-7.0","60c49e68081928c86ba7b98a","650c16f0f2faf8d7a0d14c09","651c1cd0f2f046c6abe73a52","5132"," ","<p>Here is an example of the words you'll see:</p>
      <img src='esempio.png' height='400px'>
      <p>When you're ready to begin, press the spacebar.</p></div>","","","","","","","","",""
"html-keyboard-response","8","183316","0.0-8.0-0.0","60c49e68081928c86ba7b98a","650c16f0f2faf8d7a0d14c09","651c1cd0f2f046c6abe73a52","null","null","<p style=""font-size: 60px; font-family: BACS"">vkYGlkmU</p>","","","","","","","","",""
"html-keyboard-response","9","184318","0.0-8.0-0.1","60c49e68081928c86ba7b98a","650c16f0f2faf8d7a0d14c09","651c1cd0f2f046c6abe73a52","null","null","<p style=""font-size: 60px; font-family: BACS"">TCbDCEcR</p>","","","","","","","","",""
"html-keyboard-response","10","185321","0.0-8.0-0.2","60c49e68081928c86ba7b98a","650c16f0f2faf8d7a0d14c09","651c1cd0f2f046c6abe73a52","null","null","<p style=""font-size: 60px; font-family: BACS"">AdDbATc</p>","","","","","","","","",""
"html-keyboard-response","11","186323","0.0-8.0-0.3","60c49e68081928c86ba7b98a","650c16f0f2faf8d7a0d14c09","651c1cd0f2f046c6abe73a52","null","null","<p style=""font-size: 60px; font-family: BACS"">DOBhYEAO</p>","","","","","","","","",""
"html-keyboard-response","12","187324","0.0-8.0-0.4","60c49e68081928c86ba7b98a","650c16f0f2faf8d7a0d14c09","651c1cd0f2f046c6abe73a52","null","null","<p style=""font-size: 60px; font-family: BACS"">aOLZUAld</p>","","","","","","","","",""
"html-keyboard-response","13","188327","0.0-8.0-0.5","60c49e68081928c86ba7b98a","650c16f0f2faf8d7a0d14c09","651c1cd0f2f046c6abe73a52","null","null","<p style=""font-size: 60px; font-family: BACS"">ukYZkYL</p>","","","","","","","","",""
"html-keyboard-response","14","189333","0.0-8.0-0.6","60c49e68081928c86ba7b98a","650c16f0f2faf8d7a0d14c09","651c1cd0f2f046c6abe73a52","null","null","<p style=""font-size: 60px; font-family: BACS"">kKRCEcR</p>","","","","","","","","",""
"html-keyboard-response","15","190335","0.0-8.0-0.7","60c49e68081928c86ba7b98a","650c16f0f2faf8d7a0d14c09","651c1cd0f2f046c6abe73a52","null","null","<p style=""font-size: 60px; font-family: BACS"">lcOckYL</p>","","","","","","","","",""
"html-keyboard-response","16","191337","0.0-8.0-0.8","60c49e68081928c86ba7b98a","650c16f0f2faf8d7a0d14c09","651c1cd0f2f046c6abe73a52","null","null","<p style=""font-size: 60px; font-family: BACS"">chAhATc</p>","","","","","","","","",""
"html-keyboard-response","17","192340","0.0-8.0-0.9","60c49e68081928c86ba7b98a","650c16f0f2faf8d7a0d14c09","651c1cd0f2f046c6abe73a52","null","null","<p style=""font-size: 60px; font-family: BACS"">lcOcAld</p>","","","","","","","","",""
"html-keyboard-response","18","193346","0.0-8.0-0.10","60c49e68081928c86ba7b98a","650c16f0f2faf8d7a0d14c09","651c1cd0f2f046c6abe73a52","null","null","<p style=""font-size: 60px; font-family: BACS"">RdPtDTmTm</p>","","","","","","","","",""
"html-keyboard-response","19","194352","0.0-8.0-0.11","60c49e68081928c86ba7b98a","650c16f0f2faf8d7a0d14c09","651c1cd0f2f046c6abe73a52","null","null","<p style=""font-size: 60px; font-family: BACS"">TCbDCATc</p>","","","","","","","","",""
"html-keyboard-response","20","195358","0.0-8.0-0.12","60c49e68081928c86ba7b98a","650c16f0f2faf8d7a0d14c09","651c1cd0f2f046c6abe73a52","null","null","<p style=""font-size: 60px; font-family: BACS"">kGlUAld</p>","","","","","","","","",""
"html-keyboard-response","21","196363","0.0-8.0-0.13","60c49e68081928c86ba7b98a","650c16f0f2faf8d7a0d14c09","651c1cd0f2f046c6abe73a52","null","null","<p style=""font-size: 60px; font-family: BACS"">lcOckmU</p>","","","","","","","","",""
"html-keyboard-response","22","197365","0.0-8.0-0.14","60c49e68081928c86ba7b98a","650c16f0f2faf8d7a0d14c09","651c1cd0f2f046c6abe73a52","null","null","<p style=""font-size: 60px; font-family: BACS"">kDRKcEAO</p>","","","","","","","","",""
"html-keyboard-response","23","198369","0.0-8.0-0.15","60c49e68081928c86ba7b98a","650c16f0f2faf8d7a0d14c09","651c1cd0f2f046c6abe73a52","null","null","<p style=""font-size: 60px; font-family: BACS"">kKRCKOYC</p>","","","","","","","","",""
"html-keyboard-response","24","199373","0.0-8.0-0.16","60c49e68081928c86ba7b98a","650c16f0f2faf8d7a0d14c09","651c1cd0f2f046c6abe73a52","null","null","<p style=""font-size: 60px; font-family: BACS"">AdDbTmTm</p>","","","","","","","","",""
"html-keyboard-response","25","200377","0.0-8.0-0.17","60c49e68081928c86ba7b98a","650c16f0f2faf8d7a0d14c09","651c1cd0f2f046c6abe73a52","null","null","<p style=""font-size: 60px; font-family: BACS"">CtmbATc</p>","","","","","","","","",""
"html-keyboard-response","26","201381","0.0-8.0-0.18","60c49e68081928c86ba7b98a","650c16f0f2faf8d7a0d14c09","651c1cd0f2f046c6abe73a52","null","null","<p style=""font-size: 60px; font-family: BACS"">OCmkEAO</p>","","","","","","","","",""
"html-keyboard-response","27","202385","0.0-8.0-0.19","60c49e68081928c86ba7b98a","650c16f0f2faf8d7a0d14c09","651c1cd0f2f046c6abe73a52","null","null","<p style=""font-size: 60px; font-family: BACS"">ukYZAld</p>","","","","","","","","",""
"html-keyboard-response","28","203390","0.0-8.0-0.20","60c49e68081928c86ba7b98a","650c16f0f2faf8d7a0d14c09","651c1cd0f2f046c6abe73a52","null","null","<p style=""font-size: 60px; font-family: BACS"">kKRCEAO</p>","","","","","","","","",""
"html-keyboard-response","29","204397","0.0-8.0-0.21","60c49e68081928c86ba7b98a","650c16f0f2faf8d7a0d14c09","651c1cd0f2f046c6abe73a52","null","null","<p style=""font-size: 60px; font-family: BACS"">AZaJcYNu</p>","","","","","","","","",""
"html-keyboard-response","30","205401","0.0-8.0-0.22","60c49e68081928c86ba7b98a","650c16f0f2faf8d7a0d14c09","651c1cd0f2f046c6abe73a52","null","null","<p style=""font-size: 60px; font-family: BACS"">OCmkKOYC</p>","","","","","","","","",""
"html-keyboard-response","31","206408","0.0-8.0-0.23","60c49e68081928c86ba7b98a","650c16f0f2faf8d7a0d14c09","651c1cd0f2f046c6abe73a52","null","null","<p style=""font-size: 60px; font-family: BACS"">DOBhYTmTm</p>","","","","","","","","",""
"html-keyboard-response","32","207413","0.0-8.0-0.24","60c49e68081928c86ba7b98a","650c16f0f2faf8d7a0d14c09","651c1cd0f2f046c6abe73a52","null","null","<p style=""font-size: 60px; font-family: BACS"">GNAcaAld</p>","","","","","","","","",""
"html-keyboard-response","33","208419","0.0-8.0-0.25","60c49e68081928c86ba7b98a","650c16f0f2faf8d7a0d14c09","651c1cd0f2f046c6abe73a52","null","null","<p style=""font-size: 60px; font-family: BACS"">AZaJckmU</p>","","","","","","","","",""
"html-keyboard-response","34","209421","0.0-8.0-0.26","60c49e68081928c86ba7b98a","650c16f0f2faf8d7a0d14c09","651c1cd0f2f046c6abe73a52","null","null","<p style=""font-size: 60px; font-family: BACS"">RdPtDEcR</p>","","","","","","","","",""
"html-keyboard-response","35","210424","0.0-8.0-0.27","60c49e68081928c86ba7b98a","650c16f0f2faf8d7a0d14c09","651c1cd0f2f046c6abe73a52","null","null","<p style=""font-size: 60px; font-family: BACS"">tDPRkATc</p>","","","","","","","","",""
"html-keyboard-response","36","211427","0.0-8.0-0.28","60c49e68081928c86ba7b98a","650c16f0f2faf8d7a0d14c09","651c1cd0f2f046c6abe73a52","null","null","<p style=""font-size: 60px; font-family: BACS"">AZaJcdmkv</p>","","","","","","","","",""
"html-keyboard-response","37","212431","0.0-8.0-0.29","60c49e68081928c86ba7b98a","650c16f0f2faf8d7a0d14c09","651c1cd0f2f046c6abe73a52","null","null","<p style=""font-size: 60px; font-family: BACS"">lZcuYNu</p>","","","","","","","","",""
"html-keyboard-response","38","213435","0.0-8.0-0.30","60c49e68081928c86ba7b98a","650c16f0f2faf8d7a0d14c09","651c1cd0f2f046c6abe73a52","null","null","<p style=""font-size: 60px; font-family: BACS"">ukYZdmkv</p>","","","","","","","","",""
"html-keyboard-response","39","214436","0.0-8.0-0.31","60c49e68081928c86ba7b98a","650c16f0f2faf8d7a0d14c09","651c1cd0f2f046c6abe73a52","null","null","<p style=""font-size: 60px; font-family: BACS"">OJGQkYL</p>","","","","","","","","",""
"html-keyboard-response","40","215440","0.0-8.0-0.32","60c49e68081928c86ba7b98a","650c16f0f2faf8d7a0d14c09","651c1cd0f2f046c6abe73a52","null","null","<p style=""font-size: 60px; font-family: BACS"">TCbDCEAO</p>","","","","","","","","",""
"html-keyboard-response","41","216447","0.0-8.0-0.33","60c49e68081928c86ba7b98a","650c16f0f2faf8d7a0d14c09","651c1cd0f2f046c6abe73a52","null","null","<p style=""font-size: 60px; font-family: BACS"">GNAcadmkv</p>","","","","","","","","",""
"html-keyboard-response","42","217451","0.0-8.0-0.34","60c49e68081928c86ba7b98a","650c16f0f2faf8d7a0d14c09","651c1cd0f2f046c6abe73a52","null","null","<p style=""font-size: 60px; font-family: BACS"">vkYGlYNu</p>","","","","","","","","",""
"html-keyboard-response","43","218457","0.0-8.0-0.35","60c49e68081928c86ba7b98a","650c16f0f2faf8d7a0d14c09","651c1cd0f2f046c6abe73a52","null","null","<p style=""font-size: 60px; font-family: BACS"">ukYZkmU</p>","","","","","","","","",""
"html-keyboard-response","44","219462","0.0-8.0-0.36","60c49e68081928c86ba7b98a","650c16f0f2faf8d7a0d14c09","651c1cd0f2f046c6abe73a52","null","null","<p style=""font-size: 60px; font-family: BACS"">DOBhYKOYC</p>","","","","","","","","",""
"html-keyboard-response","45","220465","0.0-8.0-0.37","60c49e68081928c86ba7b98a","650c16f0f2faf8d7a0d14c09","651c1cd0f2f046c6abe73a52","null","null","<p style=""font-size: 60px; font-family: BACS"">GNAcakYL</p>","","","","","","","","",""
"html-keyboard-response","46","221469","0.0-8.0-0.38","60c49e68081928c86ba7b98a","650c16f0f2faf8d7a0d14c09","651c1cd0f2f046c6abe73a52","null","null","<p style=""font-size: 60px; font-family: BACS"">tDPRkEAO</p>","","","","","","","","",""
"html-keyboard-response","47","222474","0.0-8.0-0.39","60c49e68081928c86ba7b98a","650c16f0f2faf8d7a0d14c09","651c1cd0f2f046c6abe73a52","null","null","<p style=""font-size: 60px; font-family: BACS"">JAaGAld</p>","","","","","","","","",""
"html-keyboard-response","48","223481","0.0-8.0-0.40","60c49e68081928c86ba7b98a","650c16f0f2faf8d7a0d14c09","651c1cd0f2f046c6abe73a52","null","null","<p style=""font-size: 60px; font-family: BACS"">TCbDCTmTm</p>","","","","","","","","",""
"html-keyboard-response","49","224483","0.0-8.0-0.41","60c49e68081928c86ba7b98a","650c16f0f2faf8d7a0d14c09","651c1cd0f2f046c6abe73a52","null","null","<p style=""font-size: 60px; font-family: BACS"">JAaGYNu</p>","","","","","","","","",""
"html-keyboard-response","50","225486","0.0-8.0-0.42","60c49e68081928c86ba7b98a","650c16f0f2faf8d7a0d14c09","651c1cd0f2f046c6abe73a52","null","null","<p style=""font-size: 60px; font-family: BACS"">CtmbEcR</p>","","","","","","","","",""
"html-keyboard-response","51","226491","0.0-8.0-0.43","60c49e68081928c86ba7b98a","650c16f0f2faf8d7a0d14c09","651c1cd0f2f046c6abe73a52","null","null","<p style=""font-size: 60px; font-family: BACS"">JAaGdmkv</p>","","","","","","","","",""
"html-keyboard-response","52","227496","0.0-8.0-0.44","60c49e68081928c86ba7b98a","650c16f0f2faf8d7a0d14c09","651c1cd0f2f046c6abe73a52","null","null","<p style=""font-size: 60px; font-family: BACS"">lZcukmU</p>","","","","","","","","",""
"html-keyboard-response","53","228500","0.0-8.0-0.45","60c49e68081928c86ba7b98a","650c16f0f2faf8d7a0d14c09","651c1cd0f2f046c6abe73a52","null","null","<p style=""font-size: 60px; font-family: BACS"">CtmbKOYC</p>","","","","","","","","",""
"html-keyboard-response","54","229503","0.0-8.0-0.46","60c49e68081928c86ba7b98a","650c16f0f2faf8d7a0d14c09","651c1cd0f2f046c6abe73a52","null","null","<p style=""font-size: 60px; font-family: BACS"">lcOcYNu</p>","","","","","","","","",""
"html-keyboard-response","55","230505","0.0-8.0-0.47","60c49e68081928c86ba7b98a","650c16f0f2faf8d7a0d14c09","651c1cd0f2f046c6abe73a52","null","null","<p style=""font-size: 60px; font-family: BACS"">kGlUkYL</p>","","","","","","","","",""
"html-keyboard-response","56","231507","0.0-8.0-0.48","60c49e68081928c86ba7b98a","650c16f0f2faf8d7a0d14c09","651c1cd0f2f046c6abe73a52","null","null","<p style=""font-size: 60px; font-family: BACS"">kDRKcATc</p>","","","","","","","","",""
"html-keyboard-response","57","232510","0.0-8.0-0.49","60c49e68081928c86ba7b98a","650c16f0f2faf8d7a0d14c09","651c1cd0f2f046c6abe73a52","null","null","<p style=""font-size: 60px; font-family: BACS"">tDPRkTmTm</p>","","","","","","","","",""
"html-keyboard-response","58","233516","0.0-8.0-0.50","60c49e68081928c86ba7b98a","650c16f0f2faf8d7a0d14c09","651c1cd0f2f046c6abe73a52","null","null","<p style=""font-size: 60px; font-family: BACS"">AdDbEAO</p>","","","","","","","","",""
"html-keyboard-response","59","234519","0.0-8.0-0.51","60c49e68081928c86ba7b98a","650c16f0f2faf8d7a0d14c09","651c1cd0f2f046c6abe73a52","null","null","<p style=""font-size: 60px; font-family: BACS"">kGlUdmkv</p>","","","","","","","","",""
"html-keyboard-response","60","235525","0.0-8.0-0.52","60c49e68081928c86ba7b98a","650c16f0f2faf8d7a0d14c09","651c1cd0f2f046c6abe73a52","null","null","<p style=""font-size: 60px; font-family: BACS"">OCmkTmTm</p>","","","","","","","","",""
"html-keyboard-response","61","236529","0.0-8.0-0.53","60c49e68081928c86ba7b98a","650c16f0f2faf8d7a0d14c09","651c1cd0f2f046c6abe73a52","null","null","<p style=""font-size: 60px; font-family: BACS"">RdPtDKOYC</p>","","","","","","","","",""
"html-keyboard-response","62","237535","0.0-8.0-0.54","60c49e68081928c86ba7b98a","650c16f0f2faf8d7a0d14c09","651c1cd0f2f046c6abe73a52","null","null","<p style=""font-size: 60px; font-family: BACS"">GNAcakmU</p>","","","","","","","","",""
"html-keyboard-response","63","238542","0.0-8.0-0.55","60c49e68081928c86ba7b98a","650c16f0f2faf8d7a0d14c09","651c1cd0f2f046c6abe73a52","null","null","<p style=""font-size: 60px; font-family: BACS"">kGlUYNu</p>","","","","","","","","",""
"html-keyboard-response","64","239549","0.0-8.0-0.56","60c49e68081928c86ba7b98a","650c16f0f2faf8d7a0d14c09","651c1cd0f2f046c6abe73a52","null","null","<p style=""font-size: 60px; font-family: BACS"">lZcukYL</p>","","","","","","","","",""
"html-keyboard-response","65","240554","0.0-8.0-0.57","60c49e68081928c86ba7b98a","650c16f0f2faf8d7a0d14c09","651c1cd0f2f046c6abe73a52","null","null","<p style=""font-size: 60px; font-family: BACS"">aOLZUkmU</p>","","","","","","","","",""
"html-keyboard-response","66","241560","0.0-8.0-0.58","60c49e68081928c86ba7b98a","650c16f0f2faf8d7a0d14c09","651c1cd0f2f046c6abe73a52","null","null","<p style=""font-size: 60px; font-family: BACS"">chAhEcR</p>","","","","","","","","",""
"html-keyboard-response","67","242565","0.0-8.0-0.59","60c49e68081928c86ba7b98a","650c16f0f2faf8d7a0d14c09","651c1cd0f2f046c6abe73a52","null","null","<p style=""font-size: 60px; font-family: BACS"">vkYGlAld</p>","","","","","","","","",""
"html-keyboard-response","68","243571","0.0-8.0-0.60","60c49e68081928c86ba7b98a","650c16f0f2faf8d7a0d14c09","651c1cd0f2f046c6abe73a52","null","null","<p style=""font-size: 60px; font-family: BACS"">OCmkEcR</p>","","","","","","","","",""
"html-keyboard-response","69","244577","0.0-8.0-0.61","60c49e68081928c86ba7b98a","650c16f0f2faf8d7a0d14c09","651c1cd0f2f046c6abe73a52","null","null","<p style=""font-size: 60px; font-family: BACS"">JAaGkYL</p>","","","","","","","","",""
"html-keyboard-response","70","245580","0.0-8.0-0.62","60c49e68081928c86ba7b98a","650c16f0f2faf8d7a0d14c09","651c1cd0f2f046c6abe73a52","null","null","<p style=""font-size: 60px; font-family: BACS"">DOBhYATc</p>","","","","","","","","",""
"html-keyboard-response","71","246581","0.0-8.0-0.63","60c49e68081928c86ba7b98a","650c16f0f2faf8d7a0d14c09","651c1cd0f2f046c6abe73a52","null","null","<p style=""font-size: 60px; font-family: BACS"">AdDbEcR</p>","","","","","","","","",""
"html-keyboard-response","72","247586","0.0-8.0-0.64","60c49e68081928c86ba7b98a","650c16f0f2faf8d7a0d14c09","651c1cd0f2f046c6abe73a52","null","null","<p style=""font-size: 60px; font-family: BACS"">RdPtDEAO</p>","","","","","","","","",""
"html-keyboard-response","73","248590","0.0-8.0-0.65","60c49e68081928c86ba7b98a","650c16f0f2faf8d7a0d14c09","651c1cd0f2f046c6abe73a52","null","null","<p style=""font-size: 60px; font-family: BACS"">OJGQYNu</p>","","","","","","","","",""
"html-keyboard-response","74","249597","0.0-8.0-0.66","60c49e68081928c86ba7b98a","650c16f0f2faf8d7a0d14c09","651c1cd0f2f046c6abe73a52","null","null","<p style=""font-size: 60px; font-family: BACS"">vkYGldmkv</p>","","","","","","","","",""
"html-keyboard-response","75","250601","0.0-8.0-0.67","60c49e68081928c86ba7b98a","650c16f0f2faf8d7a0d14c09","651c1cd0f2f046c6abe73a52","null","null","<p style=""font-size: 60px; font-family: BACS"">chAhTmTm</p>","","","","","","","","",""
"html-keyboard-response","76","251605","0.0-8.0-0.68","60c49e68081928c86ba7b98a","650c16f0f2faf8d7a0d14c09","651c1cd0f2f046c6abe73a52","null","null","<p style=""font-size: 60px; font-family: BACS"">aOLZUYNu</p>","","","","","","","","",""
"html-keyboard-response","77","252611","0.0-8.0-0.69","60c49e68081928c86ba7b98a","650c16f0f2faf8d7a0d14c09","651c1cd0f2f046c6abe73a52","null","null","<p style=""font-size: 60px; font-family: BACS"">kDRKcKOYC</p>","","","","","","","","",""
"html-keyboard-response","78","253613","0.0-8.0-0.70","60c49e68081928c86ba7b98a","650c16f0f2faf8d7a0d14c09","651c1cd0f2f046c6abe73a52","null","null","<p style=""font-size: 60px; font-family: BACS"">OJGQAld</p>","","","","","","","","",""
"html-keyboard-response","79","254619","0.0-8.0-0.71","60c49e68081928c86ba7b98a","650c16f0f2faf8d7a0d14c09","651c1cd0f2f046c6abe73a52","null","null","<p style=""font-size: 60px; font-family: BACS"">CtmbTmTm</p>","","","","","","","","",""
"html-keyboard-response","80","255620","0.0-8.0-0.72","60c49e68081928c86ba7b98a","650c16f0f2faf8d7a0d14c09","651c1cd0f2f046c6abe73a52","null","null","<p style=""font-size: 60px; font-family: BACS"">AZaJckYL</p>","","","","","","","","",""
"html-keyboard-response","81","256623","0.0-8.0-0.73","60c49e68081928c86ba7b98a","650c16f0f2faf8d7a0d14c09","651c1cd0f2f046c6abe73a52","null","null","<p style=""font-size: 60px; font-family: BACS"">OJGQkmU</p>","","","","","","","","",""
"html-keyboard-response","82","257629","0.0-8.0-0.74","60c49e68081928c86ba7b98a","650c16f0f2faf8d7a0d14c09","651c1cd0f2f046c6abe73a52","null","null","<p style=""font-size: 60px; font-family: BACS"">lZcudmkv</p>","","","","","","","","",""
"html-keyboard-response","83","258635","0.0-8.0-0.75","60c49e68081928c86ba7b98a","650c16f0f2faf8d7a0d14c09","651c1cd0f2f046c6abe73a52","null","null","<p style=""font-size: 60px; font-family: BACS"">tDPRkKOYC</p>","","","","","","","","",""
"html-keyboard-response","84","259640","0.0-8.0-0.76","60c49e68081928c86ba7b98a","650c16f0f2faf8d7a0d14c09","651c1cd0f2f046c6abe73a52","null","null","<p style=""font-size: 60px; font-family: BACS"">kKRCATc</p>","","","","","","","","",""
"html-keyboard-response","85","260646","0.0-8.0-0.77","60c49e68081928c86ba7b98a","650c16f0f2faf8d7a0d14c09","651c1cd0f2f046c6abe73a52","null","null","<p style=""font-size: 60px; font-family: BACS"">aOLZUdmkv</p>","","","","","","","","",""
"html-keyboard-response","86","261650","0.0-8.0-0.78","60c49e68081928c86ba7b98a","650c16f0f2faf8d7a0d14c09","651c1cd0f2f046c6abe73a52","null","null","<p style=""font-size: 60px; font-family: BACS"">chAhKOYC</p>","","","","","","","","",""
"html-keyboard-response","87","262653","0.0-8.0-0.79","60c49e68081928c86ba7b98a","650c16f0f2faf8d7a0d14c09","651c1cd0f2f046c6abe73a52","null","null","<p style=""font-size: 60px; font-family: BACS"">kDRKcEcR</p>","","","","","","","","",""
"html-keyboard-response","88","269840","0.0-9.0","60c49e68081928c86ba7b98a","650c16f0f2faf8d7a0d14c09","651c1cd0f2f046c6abe73a52","7186"," ","<p>Great, you've seen the first block of words. You may now take a short break.</p>
      <p>Press the spacebar when you're ready to continue.</p>","","","","","","","","",""
"html-keyboard-response","89","270846","0.0-10.0-0.0","60c49e68081928c86ba7b98a","650c16f0f2faf8d7a0d14c09","651c1cd0f2f046c6abe73a52","null","null","<p style=""font-size: 60px; font-family: BACS"">kKRCKOYC</p>","","","","","","","","",""
"html-keyboard-response","90","271851","0.0-10.0-0.1","60c49e68081928c86ba7b98a","650c16f0f2faf8d7a0d14c09","651c1cd0f2f046c6abe73a52","null","null","<p style=""font-size: 60px; font-family: BACS"">vkYGlkmU</p>","","","","","","","","",""
"html-keyboard-response","91","272853","0.0-10.0-0.2","60c49e68081928c86ba7b98a","650c16f0f2faf8d7a0d14c09","651c1cd0f2f046c6abe73a52","null","null","<p style=""font-size: 60px; font-family: BACS"">lZcudmkv</p>","","","","","","","","",""
"html-keyboard-response","92","273855","0.0-10.0-0.3","60c49e68081928c86ba7b98a","650c16f0f2faf8d7a0d14c09","651c1cd0f2f046c6abe73a52","null","null","<p style=""font-size: 60px; font-family: BACS"">kKRCEAO</p>","","","","","","","","",""
"html-keyboard-response","93","274858","0.0-10.0-0.4","60c49e68081928c86ba7b98a","650c16f0f2faf8d7a0d14c09","651c1cd0f2f046c6abe73a52","null","null","<p style=""font-size: 60px; font-family: BACS"">CtmbATc</p>","","","","","","","","",""
"html-keyboard-response","94","275865","0.0-10.0-0.5","60c49e68081928c86ba7b98a","650c16f0f2faf8d7a0d14c09","651c1cd0f2f046c6abe73a52","null","null","<p style=""font-size: 60px; font-family: BACS"">GNAcakYL</p>","","","","","","","","",""
"html-keyboard-response","95","276872","0.0-10.0-0.6","60c49e68081928c86ba7b98a","650c16f0f2faf8d7a0d14c09","651c1cd0f2f046c6abe73a52","null","null","<p style=""font-size: 60px; font-family: BACS"">RdPtDEcR</p>","","","","","","","","",""
"html-keyboard-response","96","277876","0.0-10.0-0.7","60c49e68081928c86ba7b98a","650c16f0f2faf8d7a0d14c09","651c1cd0f2f046c6abe73a52","null","null","<p style=""font-size: 60px; font-family: BACS"">ukYZdmkv</p>","","","","","","","","",""
"html-keyboard-response","97","278882","0.0-10.0-0.8","60c49e68081928c86ba7b98a","650c16f0f2faf8d7a0d14c09","651c1cd0f2f046c6abe73a52","null","null","<p style=""font-size: 60px; font-family: BACS"">kGlUkYL</p>","","","","","","","","",""
"html-keyboard-response","98","279886","0.0-10.0-0.9","60c49e68081928c86ba7b98a","650c16f0f2faf8d7a0d14c09","651c1cd0f2f046c6abe73a52","null","null","<p style=""font-size: 60px; font-family: BACS"">aOLZUkmU</p>","","","","","","","","",""
"html-keyboard-response","99","280891","0.0-10.0-0.10","60c49e68081928c86ba7b98a","650c16f0f2faf8d7a0d14c09","651c1cd0f2f046c6abe73a52","null","null","<p style=""font-size: 60px; font-family: BACS"">tDPRkTmTm</p>","","","","","","","","",""
"html-keyboard-response","100","281893","0.0-10.0-0.11","60c49e68081928c86ba7b98a","650c16f0f2faf8d7a0d14c09","651c1cd0f2f046c6abe73a52","null","null","<p style=""font-size: 60px; font-family: BACS"">kGlUYNu</p>","","","","","","","","",""
"html-keyboard-response","101","282896","0.0-10.0-0.12","60c49e68081928c86ba7b98a","650c16f0f2faf8d7a0d14c09","651c1cd0f2f046c6abe73a52","null","null","<p style=""font-size: 60px; font-family: BACS"">lcOckYL</p>","","","","","","","","",""
"html-keyboard-response","102","283902","0.0-10.0-0.13","60c49e68081928c86ba7b98a","650c16f0f2faf8d7a0d14c09","651c1cd0f2f046c6abe73a52","null","null","<p style=""font-size: 60px; font-family: BACS"">lZcukmU</p>","","","","","","","","",""
"html-keyboard-response","103","284908","0.0-10.0-0.14","60c49e68081928c86ba7b98a","650c16f0f2faf8d7a0d14c09","651c1cd0f2f046c6abe73a52","null","null","<p style=""font-size: 60px; font-family: BACS"">AZaJcdmkv</p>","","","","","","","","",""
"html-keyboard-response","104","285912","0.0-10.0-0.15","60c49e68081928c86ba7b98a","650c16f0f2faf8d7a0d14c09","651c1cd0f2f046c6abe73a52","null","null","<p style=""font-size: 60px; font-family: BACS"">DOBhYKOYC</p>","","","","","","","","",""
"html-keyboard-response","105","286916","0.0-10.0-0.16","60c49e68081928c86ba7b98a","650c16f0f2faf8d7a0d14c09","651c1cd0f2f046c6abe73a52","null","null","<p style=""font-size: 60px; font-family: BACS"">chAhTmTm</p>","","","","","","","","",""
"html-keyboard-response","106","287918","0.0-10.0-0.17","60c49e68081928c86ba7b98a","650c16f0f2faf8d7a0d14c09","651c1cd0f2f046c6abe73a52","null","null","<p style=""font-size: 60px; font-family: BACS"">TCbDCATc</p>","","","","","","","","",""
"html-keyboard-response","107","288924","0.0-10.0-0.18","60c49e68081928c86ba7b98a","650c16f0f2faf8d7a0d14c09","651c1cd0f2f046c6abe73a52","null","null","<p style=""font-size: 60px; font-family: BACS"">vkYGlAld</p>","","","","","","","","",""
"html-keyboard-response","108","289928","0.0-10.0-0.19","60c49e68081928c86ba7b98a","650c16f0f2faf8d7a0d14c09","651c1cd0f2f046c6abe73a52","null","null","<p style=""font-size: 60px; font-family: BACS"">CtmbKOYC</p>","","","","","","","","",""
"html-keyboard-response","109","290934","0.0-10.0-0.20","60c49e68081928c86ba7b98a","650c16f0f2faf8d7a0d14c09","651c1cd0f2f046c6abe73a52","null","null","<p style=""font-size: 60px; font-family: BACS"">JAaGkYL</p>","","","","","","","","",""
"html-keyboard-response","110","291940","0.0-10.0-0.21","60c49e68081928c86ba7b98a","650c16f0f2faf8d7a0d14c09","651c1cd0f2f046c6abe73a52","null","null","<p style=""font-size: 60px; font-family: BACS"">OJGQAld</p>","","","","","","","","",""
"html-keyboard-response","111","292942","0.0-10.0-0.22","60c49e68081928c86ba7b98a","650c16f0f2faf8d7a0d14c09","651c1cd0f2f046c6abe73a52","null","null","<p style=""font-size: 60px; font-family: BACS"">OCmkKOYC</p>","","","","","","","","",""
"html-keyboard-response","112","293949","0.0-10.0-0.23","60c49e68081928c86ba7b98a","650c16f0f2faf8d7a0d14c09","651c1cd0f2f046c6abe73a52","null","null","<p style=""font-size: 60px; font-family: BACS"">kDRKcEAO</p>","","","","","","","","",""
"html-keyboard-response","113","294954","0.0-10.0-0.24","60c49e68081928c86ba7b98a","650c16f0f2faf8d7a0d14c09","651c1cd0f2f046c6abe73a52","null","null","<p style=""font-size: 60px; font-family: BACS"">JAaGYNu</p>","","","","","","","","",""
"html-keyboard-response","114","295957","0.0-10.0-0.25","60c49e68081928c86ba7b98a","650c16f0f2faf8d7a0d14c09","651c1cd0f2f046c6abe73a52","null","null","<p style=""font-size: 60px; font-family: BACS"">kKRCEcR</p>","","","","","","","","",""
"html-keyboard-response","115","296964","0.0-10.0-0.26","60c49e68081928c86ba7b98a","650c16f0f2faf8d7a0d14c09","651c1cd0f2f046c6abe73a52","null","null","<p style=""font-size: 60px; font-family: BACS"">GNAcakmU</p>","","","","","","","","",""
"html-keyboard-response","116","297968","0.0-10.0-0.27","60c49e68081928c86ba7b98a","650c16f0f2faf8d7a0d14c09","651c1cd0f2f046c6abe73a52","null","null","<p style=""font-size: 60px; font-family: BACS"">JAaGdmkv</p>","","","","","","","","",""
"html-keyboard-response","117","298975","0.0-10.0-0.28","60c49e68081928c86ba7b98a","650c16f0f2faf8d7a0d14c09","651c1cd0f2f046c6abe73a52","null","null","<p style=""font-size: 60px; font-family: BACS"">AdDbEAO</p>","","","","","","","","",""
"html-keyboard-response","118","299981","0.0-10.0-0.29","60c49e68081928c86ba7b98a","650c16f0f2faf8d7a0d14c09","651c1cd0f2f046c6abe73a52","null","null","<p style=""font-size: 60px; font-family: BACS"">kDRKcEcR</p>","","","","","","","","",""
"html-keyboard-response","119","300985","0.0-10.0-0.30","60c49e68081928c86ba7b98a","650c16f0f2faf8d7a0d14c09","651c1cd0f2f046c6abe73a52","null","null","<p style=""font-size: 60px; font-family: BACS"">aOLZUYNu</p>","","","","","","","","",""
"html-keyboard-response","120","301987","0.0-10.0-0.31","60c49e68081928c86ba7b98a","650c16f0f2faf8d7a0d14c09","651c1cd0f2f046c6abe73a52","null","null","<p style=""font-size: 60px; font-family: BACS"">JAaGAld</p>","","","","","","","","",""
"html-keyboard-response","121","302993","0.0-10.0-0.32","60c49e68081928c86ba7b98a","650c16f0f2faf8d7a0d14c09","651c1cd0f2f046c6abe73a52","null","null","<p style=""font-size: 60px; font-family: BACS"">DOBhYEAO</p>","","","","","","","","",""
"html-keyboard-response","122","303996","0.0-10.0-0.33","60c49e68081928c86ba7b98a","650c16f0f2faf8d7a0d14c09","651c1cd0f2f046c6abe73a52","null","null","<p style=""font-size: 60px; font-family: BACS"">chAhKOYC</p>","","","","","","","","",""
"html-keyboard-response","123","305001","0.0-10.0-0.34","60c49e68081928c86ba7b98a","650c16f0f2faf8d7a0d14c09","651c1cd0f2f046c6abe73a52","null","null","<p style=""font-size: 60px; font-family: BACS"">aOLZUdmkv</p>","","","","","","","","",""
"html-keyboard-response","124","306003","0.0-10.0-0.35","60c49e68081928c86ba7b98a","650c16f0f2faf8d7a0d14c09","651c1cd0f2f046c6abe73a52","null","null","<p style=""font-size: 60px; font-family: BACS"">AdDbEcR</p>","","","","","","","","",""
"html-keyboard-response","125","307008","0.0-10.0-0.36","60c49e68081928c86ba7b98a","650c16f0f2faf8d7a0d14c09","651c1cd0f2f046c6abe73a52","null","null","<p style=""font-size: 60px; font-family: BACS"">DOBhYTmTm</p>","","","","","","","","",""
"html-keyboard-response","126","308015","0.0-10.0-0.37","60c49e68081928c86ba7b98a","650c16f0f2faf8d7a0d14c09","651c1cd0f2f046c6abe73a52","null","null","<p style=""font-size: 60px; font-family: BACS"">lZcukYL</p>","","","","","","","","",""
"html-keyboard-response","127","309020","0.0-10.0-0.38","60c49e68081928c86ba7b98a","650c16f0f2faf8d7a0d14c09","651c1cd0f2f046c6abe73a52","null","null","<p style=""font-size: 60px; font-family: BACS"">GNAcadmkv</p>","","","","","","","","",""
"html-keyboard-response","128","310026","0.0-10.0-0.39","60c49e68081928c86ba7b98a","650c16f0f2faf8d7a0d14c09","651c1cd0f2f046c6abe73a52","null","null","<p style=""font-size: 60px; font-family: BACS"">aOLZUAld</p>","","","","","","","","",""
"html-keyboard-response","129","311033","0.0-10.0-0.40","60c49e68081928c86ba7b98a","650c16f0f2faf8d7a0d14c09","651c1cd0f2f046c6abe73a52","null","null","<p style=""font-size: 60px; font-family: BACS"">ukYZkmU</p>","","","","","","","","",""
"html-keyboard-response","130","312037","0.0-10.0-0.41","60c49e68081928c86ba7b98a","650c16f0f2faf8d7a0d14c09","651c1cd0f2f046c6abe73a52","null","null","<p style=""font-size: 60px; font-family: BACS"">kGlUdmkv</p>","","","","","","","","",""
"html-keyboard-response","131","313041","0.0-10.0-0.42","60c49e68081928c86ba7b98a","650c16f0f2faf8d7a0d14c09","651c1cd0f2f046c6abe73a52","null","null","<p style=""font-size: 60px; font-family: BACS"">OCmkEAO</p>","","","","","","","","",""
"html-keyboard-response","132","314046","0.0-10.0-0.43","60c49e68081928c86ba7b98a","650c16f0f2faf8d7a0d14c09","651c1cd0f2f046c6abe73a52","null","null","<p style=""font-size: 60px; font-family: BACS"">lcOcAld</p>","","","","","","","","",""
"html-keyboard-response","133","315052","0.0-10.0-0.44","60c49e68081928c86ba7b98a","650c16f0f2faf8d7a0d14c09","651c1cd0f2f046c6abe73a52","null","null","<p style=""font-size: 60px; font-family: BACS"">AZaJcYNu</p>","","","","","","","","",""
"html-keyboard-response","134","316056","0.0-10.0-0.45","60c49e68081928c86ba7b98a","650c16f0f2faf8d7a0d14c09","651c1cd0f2f046c6abe73a52","null","null","<p style=""font-size: 60px; font-family: BACS"">kKRCATc</p>","","","","","","","","",""
"html-keyboard-response","135","317062","0.0-10.0-0.46","60c49e68081928c86ba7b98a","650c16f0f2faf8d7a0d14c09","651c1cd0f2f046c6abe73a52","null","null","<p style=""font-size: 60px; font-family: BACS"">lcOcYNu</p>","","","","","","","","",""
"html-keyboard-response","136","318068","0.0-10.0-0.47","60c49e68081928c86ba7b98a","650c16f0f2faf8d7a0d14c09","651c1cd0f2f046c6abe73a52","null","null","<p style=""font-size: 60px; font-family: BACS"">OJGQkmU</p>","","","","","","","","",""
"html-keyboard-response","137","319073","0.0-10.0-0.48","60c49e68081928c86ba7b98a","650c16f0f2faf8d7a0d14c09","651c1cd0f2f046c6abe73a52","null","null","<p style=""font-size: 60px; font-family: BACS"">vkYGlYNu</p>","","","","","","","","",""
"html-keyboard-response","138","320080","0.0-10.0-0.49","60c49e68081928c86ba7b98a","650c16f0f2faf8d7a0d14c09","651c1cd0f2f046c6abe73a52","null","null","<p style=""font-size: 60px; font-family: BACS"">AdDbTmTm</p>","","","","","","","","",""
"html-keyboard-response","139","321086","0.0-10.0-0.50","60c49e68081928c86ba7b98a","650c16f0f2faf8d7a0d14c09","651c1cd0f2f046c6abe73a52","null","null","<p style=""font-size: 60px; font-family: BACS"">TCbDCEcR</p>","","","","","","","","",""
"html-keyboard-response","140","322090","0.0-10.0-0.51","60c49e68081928c86ba7b98a","650c16f0f2faf8d7a0d14c09","651c1cd0f2f046c6abe73a52","null","null","<p style=""font-size: 60px; font-family: BACS"">vkYGldmkv</p>","","","","","","","","",""
"html-keyboard-response","141","323092","0.0-10.0-0.52","60c49e68081928c86ba7b98a","650c16f0f2faf8d7a0d14c09","651c1cd0f2f046c6abe73a52","null","null","<p style=""font-size: 60px; font-family: BACS"">kDRKcKOYC</p>","","","","","","","","",""
"html-keyboard-response","142","324095","0.0-10.0-0.53","60c49e68081928c86ba7b98a","650c16f0f2faf8d7a0d14c09","651c1cd0f2f046c6abe73a52","null","null","<p style=""font-size: 60px; font-family: BACS"">TCbDCTmTm</p>","","","","","","","","",""
"html-keyboard-response","143","325101","0.0-10.0-0.54","60c49e68081928c86ba7b98a","650c16f0f2faf8d7a0d14c09","651c1cd0f2f046c6abe73a52","null","null","<p style=""font-size: 60px; font-family: BACS"">ukYZkYL</p>","","","","","","","","",""
"html-keyboard-response","144","326108","0.0-10.0-0.55","60c49e68081928c86ba7b98a","650c16f0f2faf8d7a0d14c09","651c1cd0f2f046c6abe73a52","null","null","<p style=""font-size: 60px; font-family: BACS"">TCbDCEAO</p>","","","","","","","","",""
"html-keyboard-response","145","327113","0.0-10.0-0.56","60c49e68081928c86ba7b98a","650c16f0f2faf8d7a0d14c09","651c1cd0f2f046c6abe73a52","null","null","<p style=""font-size: 60px; font-family: BACS"">RdPtDKOYC</p>","","","","","","","","",""
"html-keyboard-response","146","328116","0.0-10.0-0.57","60c49e68081928c86ba7b98a","650c16f0f2faf8d7a0d14c09","651c1cd0f2f046c6abe73a52","null","null","<p style=""font-size: 60px; font-family: BACS"">GNAcaAld</p>","","","","","","","","",""
"html-keyboard-response","147","329121","0.0-10.0-0.58","60c49e68081928c86ba7b98a","650c16f0f2faf8d7a0d14c09","651c1cd0f2f046c6abe73a52","null","null","<p style=""font-size: 60px; font-family: BACS"">tDPRkKOYC</p>","","","","","","","","",""
"html-keyboard-response","148","330126","0.0-10.0-0.59","60c49e68081928c86ba7b98a","650c16f0f2faf8d7a0d14c09","651c1cd0f2f046c6abe73a52","null","null","<p style=""font-size: 60px; font-family: BACS"">OCmkEcR</p>","","","","","","","","",""
"html-keyboard-response","149","331133","0.0-10.0-0.60","60c49e68081928c86ba7b98a","650c16f0f2faf8d7a0d14c09","651c1cd0f2f046c6abe73a52","null","null","<p style=""font-size: 60px; font-family: BACS"">tDPRkEAO</p>","","","","","","","","",""
"html-keyboard-response","150","332138","0.0-10.0-0.61","60c49e68081928c86ba7b98a","650c16f0f2faf8d7a0d14c09","651c1cd0f2f046c6abe73a52","null","null","<p style=""font-size: 60px; font-family: BACS"">AZaJckYL</p>","","","","","","","","",""
"html-keyboard-response","151","333145","0.0-10.0-0.62","60c49e68081928c86ba7b98a","650c16f0f2faf8d7a0d14c09","651c1cd0f2f046c6abe73a52","null","null","<p style=""font-size: 60px; font-family: BACS"">chAhATc</p>","","","","","","","","",""
"html-keyboard-response","152","334147","0.0-10.0-0.63","60c49e68081928c86ba7b98a","650c16f0f2faf8d7a0d14c09","651c1cd0f2f046c6abe73a52","null","null","<p style=""font-size: 60px; font-family: BACS"">OJGQYNu</p>","","","","","","","","",""
"html-keyboard-response","153","335153","0.0-10.0-0.64","60c49e68081928c86ba7b98a","650c16f0f2faf8d7a0d14c09","651c1cd0f2f046c6abe73a52","null","null","<p style=""font-size: 60px; font-family: BACS"">chAhEcR</p>","","","","","","","","",""
"html-keyboard-response","154","336155","0.0-10.0-0.65","60c49e68081928c86ba7b98a","650c16f0f2faf8d7a0d14c09","651c1cd0f2f046c6abe73a52","null","null","<p style=""font-size: 60px; font-family: BACS"">DOBhYATc</p>","","","","","","","","",""
"html-keyboard-response","155","337156","0.0-10.0-0.66","60c49e68081928c86ba7b98a","650c16f0f2faf8d7a0d14c09","651c1cd0f2f046c6abe73a52","null","null","<p style=""font-size: 60px; font-family: BACS"">OJGQkYL</p>","","","","","","","","",""
"html-keyboard-response","156","338162","0.0-10.0-0.67","60c49e68081928c86ba7b98a","650c16f0f2faf8d7a0d14c09","651c1cd0f2f046c6abe73a52","null","null","<p style=""font-size: 60px; font-family: BACS"">kGlUAld</p>","","","","","","","","",""
"html-keyboard-response","157","339168","0.0-10.0-0.68","60c49e68081928c86ba7b98a","650c16f0f2faf8d7a0d14c09","651c1cd0f2f046c6abe73a52","null","null","<p style=""font-size: 60px; font-family: BACS"">RdPtDTmTm</p>","","","","","","","","",""
"html-keyboard-response","158","340174","0.0-10.0-0.69","60c49e68081928c86ba7b98a","650c16f0f2faf8d7a0d14c09","651c1cd0f2f046c6abe73a52","null","null","<p style=""font-size: 60px; font-family: BACS"">CtmbEcR</p>","","","","","","","","",""
"html-keyboard-response","159","341177","0.0-10.0-0.70","60c49e68081928c86ba7b98a","650c16f0f2faf8d7a0d14c09","651c1cd0f2f046c6abe73a52","null","null","<p style=""font-size: 60px; font-family: BACS"">kDRKcATc</p>","","","","","","","","",""
"html-keyboard-response","160","342179","0.0-10.0-0.71","60c49e68081928c86ba7b98a","650c16f0f2faf8d7a0d14c09","651c1cd0f2f046c6abe73a52","null","null","<p style=""font-size: 60px; font-family: BACS"">AZaJckmU</p>","","","","","","","","",""
"html-keyboard-response","161","343181","0.0-10.0-0.72","60c49e68081928c86ba7b98a","650c16f0f2faf8d7a0d14c09","651c1cd0f2f046c6abe73a52","null","null","<p style=""font-size: 60px; font-family: BACS"">lZcuYNu</p>","","","","","","","","",""
"html-keyboard-response","162","344185","0.0-10.0-0.73","60c49e68081928c86ba7b98a","650c16f0f2faf8d7a0d14c09","651c1cd0f2f046c6abe73a52","null","null","<p style=""font-size: 60px; font-family: BACS"">AdDbATc</p>","","","","","","","","",""
"html-keyboard-response","163","345187","0.0-10.0-0.74","60c49e68081928c86ba7b98a","650c16f0f2faf8d7a0d14c09","651c1cd0f2f046c6abe73a52","null","null","<p style=""font-size: 60px; font-family: BACS"">CtmbTmTm</p>","","","","","","","","",""
"html-keyboard-response","164","346190","0.0-10.0-0.75","60c49e68081928c86ba7b98a","650c16f0f2faf8d7a0d14c09","651c1cd0f2f046c6abe73a52","null","null","<p style=""font-size: 60px; font-family: BACS"">ukYZAld</p>","","","","","","","","",""
"html-keyboard-response","165","347192","0.0-10.0-0.76","60c49e68081928c86ba7b98a","650c16f0f2faf8d7a0d14c09","651c1cd0f2f046c6abe73a52","null","null","<p style=""font-size: 60px; font-family: BACS"">OCmkTmTm</p>","","","","","","","","",""
"html-keyboard-response","166","348194","0.0-10.0-0.77","60c49e68081928c86ba7b98a","650c16f0f2faf8d7a0d14c09","651c1cd0f2f046c6abe73a52","null","null","<p style=""font-size: 60px; font-family: BACS"">tDPRkATc</p>","","","","","","","","",""
"html-keyboard-response","167","349197","0.0-10.0-0.78","60c49e68081928c86ba7b98a","650c16f0f2faf8d7a0d14c09","651c1cd0f2f046c6abe73a52","null","null","<p style=""font-size: 60px; font-family: BACS"">lcOckmU</p>","","","","","","","","",""
"html-keyboard-response","168","350201","0.0-10.0-0.79","60c49e68081928c86ba7b98a","650c16f0f2faf8d7a0d14c09","651c1cd0f2f046c6abe73a52","null","null","<p style=""font-size: 60px; font-family: BACS"">RdPtDEAO</p>","","","","","","","","",""
"html-keyboard-response","169","354888","0.0-11.0","60c49e68081928c86ba7b98a","650c16f0f2faf8d7a0d14c09","651c1cd0f2f046c6abe73a52","4686"," ","<p>Great, you've seen the second block of words. You may now take a short break.</p>
      <p>Press the spacebar when you're ready to continue.</p>","","","","","","","","",""
"html-keyboard-response","170","355894","0.0-12.0-0.0","60c49e68081928c86ba7b98a","650c16f0f2faf8d7a0d14c09","651c1cd0f2f046c6abe73a52","null","null","<p style=""font-size: 60px; font-family: BACS"">AZaJckmU</p>","","","","","","","","",""
"html-keyboard-response","171","356901","0.0-12.0-0.1","60c49e68081928c86ba7b98a","650c16f0f2faf8d7a0d14c09","651c1cd0f2f046c6abe73a52","null","null","<p style=""font-size: 60px; font-family: BACS"">TCbDCEcR</p>","","","","","","","","",""
"html-keyboard-response","172","357907","0.0-12.0-0.2","60c49e68081928c86ba7b98a","650c16f0f2faf8d7a0d14c09","651c1cd0f2f046c6abe73a52","null","null","<p style=""font-size: 60px; font-family: BACS"">AdDbATc</p>","","","","","","","","",""
"html-keyboard-response","173","358910","0.0-12.0-0.3","60c49e68081928c86ba7b98a","650c16f0f2faf8d7a0d14c09","651c1cd0f2f046c6abe73a52","null","null","<p style=""font-size: 60px; font-family: BACS"">kKRCKOYC</p>","","","","","","","","",""
"html-keyboard-response","174","359912","0.0-12.0-0.4","60c49e68081928c86ba7b98a","650c16f0f2faf8d7a0d14c09","651c1cd0f2f046c6abe73a52","null","null","<p style=""font-size: 60px; font-family: BACS"">kGlUdmkv</p>","","","","","","","","",""
"html-keyboard-response","175","360914","0.0-12.0-0.5","60c49e68081928c86ba7b98a","650c16f0f2faf8d7a0d14c09","651c1cd0f2f046c6abe73a52","null","null","<p style=""font-size: 60px; font-family: BACS"">OJGQYNu</p>","","","","","","","","",""
"html-keyboard-response","176","361916","0.0-12.0-0.6","60c49e68081928c86ba7b98a","650c16f0f2faf8d7a0d14c09","651c1cd0f2f046c6abe73a52","null","null","<p style=""font-size: 60px; font-family: BACS"">vkYGlAld</p>","","","","","","","","",""
"html-keyboard-response","177","362923","0.0-12.0-0.7","60c49e68081928c86ba7b98a","650c16f0f2faf8d7a0d14c09","651c1cd0f2f046c6abe73a52","null","null","<p style=""font-size: 60px; font-family: BACS"">lcOckmU</p>","","","","","","","","",""
"html-keyboard-response","178","363929","0.0-12.0-0.8","60c49e68081928c86ba7b98a","650c16f0f2faf8d7a0d14c09","651c1cd0f2f046c6abe73a52","null","null","<p style=""font-size: 60px; font-family: BACS"">JAaGdmkv</p>","","","","","","","","",""
"html-keyboard-response","179","364931","0.0-12.0-0.9","60c49e68081928c86ba7b98a","650c16f0f2faf8d7a0d14c09","651c1cd0f2f046c6abe73a52","null","null","<p style=""font-size: 60px; font-family: BACS"">chAhTmTm</p>","","","","","","","","",""
"html-keyboard-response","180","365934","0.0-12.0-0.10","60c49e68081928c86ba7b98a","650c16f0f2faf8d7a0d14c09","651c1cd0f2f046c6abe73a52","null","null","<p style=""font-size: 60px; font-family: BACS"">kKRCEcR</p>","","","","","","","","",""
"html-keyboard-response","181","366940","0.0-12.0-0.11","60c49e68081928c86ba7b98a","650c16f0f2faf8d7a0d14c09","651c1cd0f2f046c6abe73a52","null","null","<p style=""font-size: 60px; font-family: BACS"">lcOcAld</p>","","","","","","","","",""
"html-keyboard-response","182","367945","0.0-12.0-0.12","60c49e68081928c86ba7b98a","650c16f0f2faf8d7a0d14c09","651c1cd0f2f046c6abe73a52","null","null","<p style=""font-size: 60px; font-family: BACS"">CtmbKOYC</p>","","","","","","","","",""
"html-keyboard-response","183","368948","0.0-12.0-0.13","60c49e68081928c86ba7b98a","650c16f0f2faf8d7a0d14c09","651c1cd0f2f046c6abe73a52","null","null","<p style=""font-size: 60px; font-family: BACS"">RdPtDEAO</p>","","","","","","","","",""
"html-keyboard-response","184","369953","0.0-12.0-0.14","60c49e68081928c86ba7b98a","650c16f0f2faf8d7a0d14c09","651c1cd0f2f046c6abe73a52","null","null","<p style=""font-size: 60px; font-family: BACS"">GNAcadmkv</p>","","","","","","","","",""
"html-keyboard-response","185","370958","0.0-12.0-0.15","60c49e68081928c86ba7b98a","650c16f0f2faf8d7a0d14c09","651c1cd0f2f046c6abe73a52","null","null","<p style=""font-size: 60px; font-family: BACS"">AdDbEcR</p>","","","","","","","","",""
"html-keyboard-response","186","371964","0.0-12.0-0.16","60c49e68081928c86ba7b98a","650c16f0f2faf8d7a0d14c09","651c1cd0f2f046c6abe73a52","null","null","<p style=""font-size: 60px; font-family: BACS"">kKRCEAO</p>","","","","","","","","",""
"html-keyboard-response","187","372966","0.0-12.0-0.17","60c49e68081928c86ba7b98a","650c16f0f2faf8d7a0d14c09","651c1cd0f2f046c6abe73a52","null","null","<p style=""font-size: 60px; font-family: BACS"">OJGQkmU</p>","","","","","","","","",""
"html-keyboard-response","188","373970","0.0-12.0-0.18","60c49e68081928c86ba7b98a","650c16f0f2faf8d7a0d14c09","651c1cd0f2f046c6abe73a52","null","null","<p style=""font-size: 60px; font-family: BACS"">lZcuYNu</p>","","","","","","","","",""
"html-keyboard-response","189","374973","0.0-12.0-0.19","60c49e68081928c86ba7b98a","650c16f0f2faf8d7a0d14c09","651c1cd0f2f046c6abe73a52","null","null","<p style=""font-size: 60px; font-family: BACS"">tDPRkKOYC</p>","","","","","","","","",""
"html-keyboard-response","190","375975","0.0-12.0-0.20","60c49e68081928c86ba7b98a","650c16f0f2faf8d7a0d14c09","651c1cd0f2f046c6abe73a52","null","null","<p style=""font-size: 60px; font-family: BACS"">kDRKcEcR</p>","","","","","","","","",""
"html-keyboard-response","191","376979","0.0-12.0-0.21","60c49e68081928c86ba7b98a","650c16f0f2faf8d7a0d14c09","651c1cd0f2f046c6abe73a52","null","null","<p style=""font-size: 60px; font-family: BACS"">OJGQAld</p>","","","","","","","","",""
"html-keyboard-response","192","377985","0.0-12.0-0.22","60c49e68081928c86ba7b98a","650c16f0f2faf8d7a0d14c09","651c1cd0f2f046c6abe73a52","null","null","<p style=""font-size: 60px; font-family: BACS"">ukYZkYL</p>","","","","","","","","",""
"html-keyboard-response","193","378990","0.0-12.0-0.23","60c49e68081928c86ba7b98a","650c16f0f2faf8d7a0d14c09","651c1cd0f2f046c6abe73a52","null","null","<p style=""font-size: 60px; font-family: BACS"">GNAcakmU</p>","","","","","","","","",""
"html-keyboard-response","194","379992","0.0-12.0-0.24","60c49e68081928c86ba7b98a","650c16f0f2faf8d7a0d14c09","651c1cd0f2f046c6abe73a52","null","null","<p style=""font-size: 60px; font-family: BACS"">lZcudmkv</p>","","","","","","","","",""
"html-keyboard-response","195","380998","0.0-12.0-0.25","60c49e68081928c86ba7b98a","650c16f0f2faf8d7a0d14c09","651c1cd0f2f046c6abe73a52","null","null","<p style=""font-size: 60px; font-family: BACS"">TCbDCEAO</p>","","","","","","","","",""
"html-keyboard-response","196","382001","0.0-12.0-0.26","60c49e68081928c86ba7b98a","650c16f0f2faf8d7a0d14c09","651c1cd0f2f046c6abe73a52","null","null","<p style=""font-size: 60px; font-family: BACS"">vkYGlkmU</p>","","","","","","","","",""
"html-keyboard-response","197","383003","0.0-12.0-0.27","60c49e68081928c86ba7b98a","650c16f0f2faf8d7a0d14c09","651c1cd0f2f046c6abe73a52","null","null","<p style=""font-size: 60px; font-family: BACS"">CtmbEcR</p>","","","","","","","","",""
"html-keyboard-response","198","384008","0.0-12.0-0.28","60c49e68081928c86ba7b98a","650c16f0f2faf8d7a0d14c09","651c1cd0f2f046c6abe73a52","null","null","<p style=""font-size: 60px; font-family: BACS"">kDRKcATc</p>","","","","","","","","",""
"html-keyboard-response","199","385011","0.0-12.0-0.29","60c49e68081928c86ba7b98a","650c16f0f2faf8d7a0d14c09","651c1cd0f2f046c6abe73a52","null","null","<p style=""font-size: 60px; font-family: BACS"">tDPRkTmTm</p>","","","","","","","","",""
"html-keyboard-response","200","386012","0.0-12.0-0.30","60c49e68081928c86ba7b98a","650c16f0f2faf8d7a0d14c09","651c1cd0f2f046c6abe73a52","null","null","<p style=""font-size: 60px; font-family: BACS"">DOBhYEAO</p>","","","","","","","","",""
"html-keyboard-response","201","387014","0.0-12.0-0.31","60c49e68081928c86ba7b98a","650c16f0f2faf8d7a0d14c09","651c1cd0f2f046c6abe73a52","null","null","<p style=""font-size: 60px; font-family: BACS"">AZaJcYNu</p>","","","","","","","","",""
"html-keyboard-response","202","388018","0.0-12.0-0.32","60c49e68081928c86ba7b98a","650c16f0f2faf8d7a0d14c09","651c1cd0f2f046c6abe73a52","null","null","<p style=""font-size: 60px; font-family: BACS"">RdPtDKOYC</p>","","","","","","","","",""
"html-keyboard-response","203","389021","0.0-12.0-0.33","60c49e68081928c86ba7b98a","650c16f0f2faf8d7a0d14c09","651c1cd0f2f046c6abe73a52","null","null","<p style=""font-size: 60px; font-family: BACS"">aOLZUYNu</p>","","","","","","","","",""
"html-keyboard-response","204","390026","0.0-12.0-0.34","60c49e68081928c86ba7b98a","650c16f0f2faf8d7a0d14c09","651c1cd0f2f046c6abe73a52","null","null","<p style=""font-size: 60px; font-family: BACS"">CtmbTmTm</p>","","","","","","","","",""
"html-keyboard-response","205","391032","0.0-12.0-0.35","60c49e68081928c86ba7b98a","650c16f0f2faf8d7a0d14c09","651c1cd0f2f046c6abe73a52","null","null","<p style=""font-size: 60px; font-family: BACS"">lZcukmU</p>","","","","","","","","",""
"html-keyboard-response","206","392036","0.0-12.0-0.36","60c49e68081928c86ba7b98a","650c16f0f2faf8d7a0d14c09","651c1cd0f2f046c6abe73a52","null","null","<p style=""font-size: 60px; font-family: BACS"">DOBhYKOYC</p>","","","","","","","","",""
"html-keyboard-response","207","393038","0.0-12.0-0.37","60c49e68081928c86ba7b98a","650c16f0f2faf8d7a0d14c09","651c1cd0f2f046c6abe73a52","null","null","<p style=""font-size: 60px; font-family: BACS"">RdPtDTmTm</p>","","","","","","","","",""
"html-keyboard-response","208","394044","0.0-12.0-0.38","60c49e68081928c86ba7b98a","650c16f0f2faf8d7a0d14c09","651c1cd0f2f046c6abe73a52","null","null","<p style=""font-size: 60px; font-family: BACS"">ukYZAld</p>","","","","","","","","",""
"html-keyboard-response","209","395049","0.0-12.0-0.39","60c49e68081928c86ba7b98a","650c16f0f2faf8d7a0d14c09","651c1cd0f2f046c6abe73a52","null","null","<p style=""font-size: 60px; font-family: BACS"">kDRKcKOYC</p>","","","","","","","","",""
"html-keyboard-response","210","396051","0.0-12.0-0.40","60c49e68081928c86ba7b98a","650c16f0f2faf8d7a0d14c09","651c1cd0f2f046c6abe73a52","null","null","<p style=""font-size: 60px; font-family: BACS"">TCbDCTmTm</p>","","","","","","","","",""
"html-keyboard-response","211","397057","0.0-12.0-0.41","60c49e68081928c86ba7b98a","650c16f0f2faf8d7a0d14c09","651c1cd0f2f046c6abe73a52","null","null","<p style=""font-size: 60px; font-family: BACS"">OCmkEcR</p>","","","","","","","","",""
"html-keyboard-response","212","398062","0.0-12.0-0.42","60c49e68081928c86ba7b98a","650c16f0f2faf8d7a0d14c09","651c1cd0f2f046c6abe73a52","null","null","<p style=""font-size: 60px; font-family: BACS"">tDPRkATc</p>","","","","","","","","",""
"html-keyboard-response","213","399068","0.0-12.0-0.43","60c49e68081928c86ba7b98a","650c16f0f2faf8d7a0d14c09","651c1cd0f2f046c6abe73a52","null","null","<p style=""font-size: 60px; font-family: BACS"">aOLZUAld</p>","","","","","","","","",""
"html-keyboard-response","214","400070","0.0-12.0-0.44","60c49e68081928c86ba7b98a","650c16f0f2faf8d7a0d14c09","651c1cd0f2f046c6abe73a52","null","null","<p style=""font-size: 60px; font-family: BACS"">vkYGlYNu</p>","","","","","","","","",""
"html-keyboard-response","215","401072","0.0-12.0-0.45","60c49e68081928c86ba7b98a","650c16f0f2faf8d7a0d14c09","651c1cd0f2f046c6abe73a52","null","null","<p style=""font-size: 60px; font-family: BACS"">GNAcakYL</p>","","","","","","","","",""
"html-keyboard-response","216","402078","0.0-12.0-0.46","60c49e68081928c86ba7b98a","650c16f0f2faf8d7a0d14c09","651c1cd0f2f046c6abe73a52","null","null","<p style=""font-size: 60px; font-family: BACS"">kKRCATc</p>","","","","","","","","",""
"html-keyboard-response","217","403084","0.0-12.0-0.47","60c49e68081928c86ba7b98a","650c16f0f2faf8d7a0d14c09","651c1cd0f2f046c6abe73a52","null","null","<p style=""font-size: 60px; font-family: BACS"">lcOcYNu</p>","","","","","","","","",""
"html-keyboard-response","218","404086","0.0-12.0-0.48","60c49e68081928c86ba7b98a","650c16f0f2faf8d7a0d14c09","651c1cd0f2f046c6abe73a52","null","null","<p style=""font-size: 60px; font-family: BACS"">OJGQkYL</p>","","","","","","","","",""
"html-keyboard-response","219","405092","0.0-12.0-0.49","60c49e68081928c86ba7b98a","650c16f0f2faf8d7a0d14c09","651c1cd0f2f046c6abe73a52","null","null","<p style=""font-size: 60px; font-family: BACS"">DOBhYATc</p>","","","","","","","","",""
"html-keyboard-response","220","406098","0.0-12.0-0.50","60c49e68081928c86ba7b98a","650c16f0f2faf8d7a0d14c09","651c1cd0f2f046c6abe73a52","null","null","<p style=""font-size: 60px; font-family: BACS"">kDRKcEAO</p>","","","","","","","","",""
"html-keyboard-response","221","407101","0.0-12.0-0.51","60c49e68081928c86ba7b98a","650c16f0f2faf8d7a0d14c09","651c1cd0f2f046c6abe73a52","null","null","<p style=""font-size: 60px; font-family: BACS"">JAaGYNu</p>","","","","","","","","",""
"html-keyboard-response","222","408106","0.0-12.0-0.52","60c49e68081928c86ba7b98a","650c16f0f2faf8d7a0d14c09","651c1cd0f2f046c6abe73a52","null","null","<p style=""font-size: 60px; font-family: BACS"">lZcukYL</p>","","","","","","","","",""
"html-keyboard-response","223","409112","0.0-12.0-0.53","60c49e68081928c86ba7b98a","650c16f0f2faf8d7a0d14c09","651c1cd0f2f046c6abe73a52","null","null","<p style=""font-size: 60px; font-family: BACS"">kGlUAld</p>","","","","","","","","",""
"html-keyboard-response","224","410117","0.0-12.0-0.54","60c49e68081928c86ba7b98a","650c16f0f2faf8d7a0d14c09","651c1cd0f2f046c6abe73a52","null","null","<p style=""font-size: 60px; font-family: BACS"">ukYZdmkv</p>","","","","","","","","",""
"html-keyboard-response","225","411123","0.0-12.0-0.55","60c49e68081928c86ba7b98a","650c16f0f2faf8d7a0d14c09","651c1cd0f2f046c6abe73a52","null","null","<p style=""font-size: 60px; font-family: BACS"">lcOckYL</p>","","","","","","","","",""
"html-keyboard-response","226","412130","0.0-12.0-0.56","60c49e68081928c86ba7b98a","650c16f0f2faf8d7a0d14c09","651c1cd0f2f046c6abe73a52","null","null","<p style=""font-size: 60px; font-family: BACS"">AZaJcdmkv</p>","","","","","","","","",""
"html-keyboard-response","227","413135","0.0-12.0-0.57","60c49e68081928c86ba7b98a","650c16f0f2faf8d7a0d14c09","651c1cd0f2f046c6abe73a52","null","null","<p style=""font-size: 60px; font-family: BACS"">OCmkEAO</p>","","","","","","","","",""
"html-keyboard-response","228","414140","0.0-12.0-0.58","60c49e68081928c86ba7b98a","650c16f0f2faf8d7a0d14c09","651c1cd0f2f046c6abe73a52","null","null","<p style=""font-size: 60px; font-family: BACS"">chAhEcR</p>","","","","","","","","",""
"html-keyboard-response","229","415145","0.0-12.0-0.59","60c49e68081928c86ba7b98a","650c16f0f2faf8d7a0d14c09","651c1cd0f2f046c6abe73a52","null","null","<p style=""font-size: 60px; font-family: BACS"">JAaGkYL</p>","","","","","","","","",""
"html-keyboard-response","230","416151","0.0-12.0-0.60","60c49e68081928c86ba7b98a","650c16f0f2faf8d7a0d14c09","651c1cd0f2f046c6abe73a52","null","null","<p style=""font-size: 60px; font-family: BACS"">ukYZkmU</p>","","","","","","","","",""
"html-keyboard-response","231","417156","0.0-12.0-0.61","60c49e68081928c86ba7b98a","650c16f0f2faf8d7a0d14c09","651c1cd0f2f046c6abe73a52","null","null","<p style=""font-size: 60px; font-family: BACS"">OCmkKOYC</p>","","","","","","","","",""
"html-keyboard-response","232","418162","0.0-12.0-0.62","60c49e68081928c86ba7b98a","650c16f0f2faf8d7a0d14c09","651c1cd0f2f046c6abe73a52","null","null","<p style=""font-size: 60px; font-family: BACS"">aOLZUkmU</p>","","","","","","","","",""
"html-keyboard-response","233","419168","0.0-12.0-0.63","60c49e68081928c86ba7b98a","650c16f0f2faf8d7a0d14c09","651c1cd0f2f046c6abe73a52","null","null","<p style=""font-size: 60px; font-family: BACS"">AdDbTmTm</p>","","","","","","","","",""
"html-keyboard-response","234","420174","0.0-12.0-0.64","60c49e68081928c86ba7b98a","650c16f0f2faf8d7a0d14c09","651c1cd0f2f046c6abe73a52","null","null","<p style=""font-size: 60px; font-family: BACS"">TCbDCATc</p>","","","","","","","","",""
"html-keyboard-response","235","421179","0.0-12.0-0.65","60c49e68081928c86ba7b98a","650c16f0f2faf8d7a0d14c09","651c1cd0f2f046c6abe73a52","null","null","<p style=""font-size: 60px; font-family: BACS"">aOLZUdmkv</p>","","","","","","","","",""
"html-keyboard-response","236","422185","0.0-12.0-0.66","60c49e68081928c86ba7b98a","650c16f0f2faf8d7a0d14c09","651c1cd0f2f046c6abe73a52","null","null","<p style=""font-size: 60px; font-family: BACS"">JAaGAld</p>","","","","","","","","",""
"html-keyboard-response","237","423192","0.0-12.0-0.67","60c49e68081928c86ba7b98a","650c16f0f2faf8d7a0d14c09","651c1cd0f2f046c6abe73a52","null","null","<p style=""font-size: 60px; font-family: BACS"">chAhATc</p>","","","","","","","","",""
"html-keyboard-response","238","424197","0.0-12.0-0.68","60c49e68081928c86ba7b98a","650c16f0f2faf8d7a0d14c09","651c1cd0f2f046c6abe73a52","null","null","<p style=""font-size: 60px; font-family: BACS"">OCmkTmTm</p>","","","","","","","","",""
"html-keyboard-response","239","425201","0.0-12.0-0.69","60c49e68081928c86ba7b98a","650c16f0f2faf8d7a0d14c09","651c1cd0f2f046c6abe73a52","null","null","<p style=""font-size: 60px; font-family: BACS"">AdDbEAO</p>","","","","","","","","",""
"html-keyboard-response","240","426206","0.0-12.0-0.70","60c49e68081928c86ba7b98a","650c16f0f2faf8d7a0d14c09","651c1cd0f2f046c6abe73a52","null","null","<p style=""font-size: 60px; font-family: BACS"">chAhKOYC</p>","","","","","","","","",""
"html-keyboard-response","241","427208","0.0-12.0-0.71","60c49e68081928c86ba7b98a","650c16f0f2faf8d7a0d14c09","651c1cd0f2f046c6abe73a52","null","null","<p style=""font-size: 60px; font-family: BACS"">vkYGldmkv</p>","","","","","","","","",""
"html-keyboard-response","242","428214","0.0-12.0-0.72","60c49e68081928c86ba7b98a","650c16f0f2faf8d7a0d14c09","651c1cd0f2f046c6abe73a52","null","null","<p style=""font-size: 60px; font-family: BACS"">CtmbATc</p>","","","","","","","","",""
"html-keyboard-response","243","429219","0.0-12.0-0.73","60c49e68081928c86ba7b98a","650c16f0f2faf8d7a0d14c09","651c1cd0f2f046c6abe73a52","null","null","<p style=""font-size: 60px; font-family: BACS"">AZaJckYL</p>","","","","","","","","",""
"html-keyboard-response","244","430221","0.0-12.0-0.74","60c49e68081928c86ba7b98a","650c16f0f2faf8d7a0d14c09","651c1cd0f2f046c6abe73a52","null","null","<p style=""font-size: 60px; font-family: BACS"">DOBhYTmTm</p>","","","","","","","","",""
"html-keyboard-response","245","431225","0.0-12.0-0.75","60c49e68081928c86ba7b98a","650c16f0f2faf8d7a0d14c09","651c1cd0f2f046c6abe73a52","null","null","<p style=""font-size: 60px; font-family: BACS"">kGlUYNu</p>","","","","","","","","",""
"html-keyboard-response","246","432229","0.0-12.0-0.76","60c49e68081928c86ba7b98a","650c16f0f2faf8d7a0d14c09","651c1cd0f2f046c6abe73a52","null","null","<p style=""font-size: 60px; font-family: BACS"">tDPRkEAO</p>","","","","","","","","",""
"html-keyboard-response","247","433236","0.0-12.0-0.77","60c49e68081928c86ba7b98a","650c16f0f2faf8d7a0d14c09","651c1cd0f2f046c6abe73a52","null","null","<p style=""font-size: 60px; font-family: BACS"">GNAcaAld</p>","","","","","","","","",""
"html-keyboard-response","248","434240","0.0-12.0-0.78","60c49e68081928c86ba7b98a","650c16f0f2faf8d7a0d14c09","651c1cd0f2f046c6abe73a52","null","null","<p style=""font-size: 60px; font-family: BACS"">kGlUkYL</p>","","","","","","","","",""
"html-keyboard-response","249","435245","0.0-12.0-0.79","60c49e68081928c86ba7b98a","650c16f0f2faf8d7a0d14c09","651c1cd0f2f046c6abe73a52","null","null","<p style=""font-size: 60px; font-family: BACS"">RdPtDEcR</p>","","","","","","","","",""
"html-keyboard-response","250","447103","0.0-13.0","60c49e68081928c86ba7b98a","650c16f0f2faf8d7a0d14c09","651c1cd0f2f046c6abe73a52","11857"," ","<p>Great, you've seen the third block of words. You may now take a short break.</p>
      <p>Press the spacebar when you're ready to continue.</p>","","","","","","","","",""
"html-keyboard-response","251","448108","0.0-14.0-0.0","60c49e68081928c86ba7b98a","650c16f0f2faf8d7a0d14c09","651c1cd0f2f046c6abe73a52","null","null","<p style=""font-size: 60px; font-family: BACS"">CtmbATc</p>","","","","","","","","",""
"html-keyboard-response","252","449114","0.0-14.0-0.1","60c49e68081928c86ba7b98a","650c16f0f2faf8d7a0d14c09","651c1cd0f2f046c6abe73a52","null","null","<p style=""font-size: 60px; font-family: BACS"">DOBhYTmTm</p>","","","","","","","","",""
"html-keyboard-response","253","450118","0.0-14.0-0.2","60c49e68081928c86ba7b98a","650c16f0f2faf8d7a0d14c09","651c1cd0f2f046c6abe73a52","null","null","<p style=""font-size: 60px; font-family: BACS"">tDPRkATc</p>","","","","","","","","",""
"html-keyboard-response","254","451122","0.0-14.0-0.3","60c49e68081928c86ba7b98a","650c16f0f2faf8d7a0d14c09","651c1cd0f2f046c6abe73a52","null","null","<p style=""font-size: 60px; font-family: BACS"">kKRCEAO</p>","","","","","","","","",""
"html-keyboard-response","255","452124","0.0-14.0-0.4","60c49e68081928c86ba7b98a","650c16f0f2faf8d7a0d14c09","651c1cd0f2f046c6abe73a52","null","null","<p style=""font-size: 60px; font-family: BACS"">AdDbEcR</p>","","","","","","","","",""
"html-keyboard-response","256","453129","0.0-14.0-0.5","60c49e68081928c86ba7b98a","650c16f0f2faf8d7a0d14c09","651c1cd0f2f046c6abe73a52","null","null","<p style=""font-size: 60px; font-family: BACS"">TCbDCEAO</p>","","","","","","","","",""
"html-keyboard-response","257","454131","0.0-14.0-0.6","60c49e68081928c86ba7b98a","650c16f0f2faf8d7a0d14c09","651c1cd0f2f046c6abe73a52","null","null","<p style=""font-size: 60px; font-family: BACS"">lcOckmU</p>","","","","","","","","",""
"html-keyboard-response","258","455139","0.0-14.0-0.7","60c49e68081928c86ba7b98a","650c16f0f2faf8d7a0d14c09","651c1cd0f2f046c6abe73a52","null","null","<p style=""font-size: 60px; font-family: BACS"">ukYZdmkv</p>","","","","","","","","",""
"html-keyboard-response","259","456141","0.0-14.0-0.8","60c49e68081928c86ba7b98a","650c16f0f2faf8d7a0d14c09","651c1cd0f2f046c6abe73a52","null","null","<p style=""font-size: 60px; font-family: BACS"">JAaGkYL</p>","","","","","","","","",""
"html-keyboard-response","260","457146","0.0-14.0-0.9","60c49e68081928c86ba7b98a","650c16f0f2faf8d7a0d14c09","651c1cd0f2f046c6abe73a52","null","null","<p style=""font-size: 60px; font-family: BACS"">lZcuYNu</p>","","","","","","","","",""
"html-keyboard-response","261","458152","0.0-14.0-0.10","60c49e68081928c86ba7b98a","650c16f0f2faf8d7a0d14c09","651c1cd0f2f046c6abe73a52","null","null","<p style=""font-size: 60px; font-family: BACS"">AdDbTmTm</p>","","","","","","","","",""
"html-keyboard-response","262","459158","0.0-14.0-0.11","60c49e68081928c86ba7b98a","650c16f0f2faf8d7a0d14c09","651c1cd0f2f046c6abe73a52","null","null","<p style=""font-size: 60px; font-family: BACS"">OJGQkmU</p>","","","","","","","","",""
"html-keyboard-response","263","460162","0.0-14.0-0.12","60c49e68081928c86ba7b98a","650c16f0f2faf8d7a0d14c09","651c1cd0f2f046c6abe73a52","null","null","<p style=""font-size: 60px; font-family: BACS"">JAaGdmkv</p>","","","","","","","","",""
"html-keyboard-response","264","461167","0.0-14.0-0.13","60c49e68081928c86ba7b98a","650c16f0f2faf8d7a0d14c09","651c1cd0f2f046c6abe73a52","null","null","<p style=""font-size: 60px; font-family: BACS"">TCbDCEcR</p>","","","","","","","","",""
"html-keyboard-response","265","462171","0.0-14.0-0.14","60c49e68081928c86ba7b98a","650c16f0f2faf8d7a0d14c09","651c1cd0f2f046c6abe73a52","null","null","<p style=""font-size: 60px; font-family: BACS"">aOLZUYNu</p>","","","","","","","","",""
"html-keyboard-response","266","463175","0.0-14.0-0.15","60c49e68081928c86ba7b98a","650c16f0f2faf8d7a0d14c09","651c1cd0f2f046c6abe73a52","null","null","<p style=""font-size: 60px; font-family: BACS"">OCmkTmTm</p>","","","","","","","","",""
"html-keyboard-response","267","464180","0.0-14.0-0.16","60c49e68081928c86ba7b98a","650c16f0f2faf8d7a0d14c09","651c1cd0f2f046c6abe73a52","null","null","<p style=""font-size: 60px; font-family: BACS"">GNAcaAld</p>","","","","","","","","",""
"html-keyboard-response","268","465184","0.0-14.0-0.17","60c49e68081928c86ba7b98a","650c16f0f2faf8d7a0d14c09","651c1cd0f2f046c6abe73a52","null","null","<p style=""font-size: 60px; font-family: BACS"">CtmbKOYC</p>","","","","","","","","",""
"html-keyboard-response","269","466189","0.0-14.0-0.18","60c49e68081928c86ba7b98a","650c16f0f2faf8d7a0d14c09","651c1cd0f2f046c6abe73a52","null","null","<p style=""font-size: 60px; font-family: BACS"">TCbDCATc</p>","","","","","","","","",""
"html-keyboard-response","270","467192","0.0-14.0-0.19","60c49e68081928c86ba7b98a","650c16f0f2faf8d7a0d14c09","651c1cd0f2f046c6abe73a52","null","null","<p style=""font-size: 60px; font-family: BACS"">vkYGlAld</p>","","","","","","","","",""
"html-keyboard-response","271","468199","0.0-14.0-0.20","60c49e68081928c86ba7b98a","650c16f0f2faf8d7a0d14c09","651c1cd0f2f046c6abe73a52","null","null","<p style=""font-size: 60px; font-family: BACS"">AdDbATc</p>","","","","","","","","",""
"html-keyboard-response","272","469203","0.0-14.0-0.21","60c49e68081928c86ba7b98a","650c16f0f2faf8d7a0d14c09","651c1cd0f2f046c6abe73a52","null","null","<p style=""font-size: 60px; font-family: BACS"">CtmbEcR</p>","","","","","","","","",""
"html-keyboard-response","273","470208","0.0-14.0-0.22","60c49e68081928c86ba7b98a","650c16f0f2faf8d7a0d14c09","651c1cd0f2f046c6abe73a52","null","null","<p style=""font-size: 60px; font-family: BACS"">TCbDCTmTm</p>","","","","","","","","",""
"html-keyboard-response","274","471212","0.0-14.0-0.23","60c49e68081928c86ba7b98a","650c16f0f2faf8d7a0d14c09","651c1cd0f2f046c6abe73a52","null","null","<p style=""font-size: 60px; font-family: BACS"">AZaJckYL</p>","","","","","","","","",""
"html-keyboard-response","275","472218","0.0-14.0-0.24","60c49e68081928c86ba7b98a","650c16f0f2faf8d7a0d14c09","651c1cd0f2f046c6abe73a52","null","null","<p style=""font-size: 60px; font-family: BACS"">RdPtDEAO</p>","","","","","","","","",""
"html-keyboard-response","276","473222","0.0-14.0-0.25","60c49e68081928c86ba7b98a","650c16f0f2faf8d7a0d14c09","651c1cd0f2f046c6abe73a52","null","null","<p style=""font-size: 60px; font-family: BACS"">ukYZkmU</p>","","","","","","","","",""
"html-keyboard-response","277","474223","0.0-14.0-0.26","60c49e68081928c86ba7b98a","650c16f0f2faf8d7a0d14c09","651c1cd0f2f046c6abe73a52","null","null","<p style=""font-size: 60px; font-family: BACS"">chAhKOYC</p>","","","","","","","","",""
"html-keyboard-response","278","475227","0.0-14.0-0.27","60c49e68081928c86ba7b98a","650c16f0f2faf8d7a0d14c09","651c1cd0f2f046c6abe73a52","null","null","<p style=""font-size: 60px; font-family: BACS"">AZaJcYNu</p>","","","","","","","","",""
"html-keyboard-response","279","476230","0.0-14.0-0.28","60c49e68081928c86ba7b98a","650c16f0f2faf8d7a0d14c09","651c1cd0f2f046c6abe73a52","null","null","<p style=""font-size: 60px; font-family: BACS"">GNAcadmkv</p>","","","","","","","","",""
"html-keyboard-response","280","477235","0.0-14.0-0.29","60c49e68081928c86ba7b98a","650c16f0f2faf8d7a0d14c09","651c1cd0f2f046c6abe73a52","null","null","<p style=""font-size: 60px; font-family: BACS"">kKRCKOYC</p>","","","","","","","","",""
"html-keyboard-response","281","478240","0.0-14.0-0.30","60c49e68081928c86ba7b98a","650c16f0f2faf8d7a0d14c09","651c1cd0f2f046c6abe73a52","null","null","<p style=""font-size: 60px; font-family: BACS"">kDRKcATc</p>","","","","","","","","",""
"html-keyboard-response","282","479244","0.0-14.0-0.31","60c49e68081928c86ba7b98a","650c16f0f2faf8d7a0d14c09","651c1cd0f2f046c6abe73a52","null","null","<p style=""font-size: 60px; font-family: BACS"">kGlUAld</p>","","","","","","","","",""
"html-keyboard-response","283","480250","0.0-14.0-0.32","60c49e68081928c86ba7b98a","650c16f0f2faf8d7a0d14c09","651c1cd0f2f046c6abe73a52","null","null","<p style=""font-size: 60px; font-family: BACS"">lZcukmU</p>","","","","","","","","",""
"html-keyboard-response","284","481255","0.0-14.0-0.33","60c49e68081928c86ba7b98a","650c16f0f2faf8d7a0d14c09","651c1cd0f2f046c6abe73a52","null","null","<p style=""font-size: 60px; font-family: BACS"">OJGQkYL</p>","","","","","","","","",""
"html-keyboard-response","285","482259","0.0-14.0-0.34","60c49e68081928c86ba7b98a","650c16f0f2faf8d7a0d14c09","651c1cd0f2f046c6abe73a52","null","null","<p style=""font-size: 60px; font-family: BACS"">lZcudmkv</p>","","","","","","","","",""
"html-keyboard-response","286","483265","0.0-14.0-0.35","60c49e68081928c86ba7b98a","650c16f0f2faf8d7a0d14c09","651c1cd0f2f046c6abe73a52","null","null","<p style=""font-size: 60px; font-family: BACS"">kGlUYNu</p>","","","","","","","","",""
"html-keyboard-response","287","484270","0.0-14.0-0.36","60c49e68081928c86ba7b98a","650c16f0f2faf8d7a0d14c09","651c1cd0f2f046c6abe73a52","null","null","<p style=""font-size: 60px; font-family: BACS"">AdDbEAO</p>","","","","","","","","",""
"html-keyboard-response","288","485274","0.0-14.0-0.37","60c49e68081928c86ba7b98a","650c16f0f2faf8d7a0d14c09","651c1cd0f2f046c6abe73a52","null","null","<p style=""font-size: 60px; font-family: BACS"">kKRCEcR</p>","","","","","","","","",""
"html-keyboard-response","289","486276","0.0-14.0-0.38","60c49e68081928c86ba7b98a","650c16f0f2faf8d7a0d14c09","651c1cd0f2f046c6abe73a52","null","null","<p style=""font-size: 60px; font-family: BACS"">DOBhYKOYC</p>","","","","","","","","",""
"html-keyboard-response","290","487281","0.0-14.0-0.39","60c49e68081928c86ba7b98a","650c16f0f2faf8d7a0d14c09","651c1cd0f2f046c6abe73a52","null","null","<p style=""font-size: 60px; font-family: BACS"">vkYGlkmU</p>","","","","","","","","",""
"html-keyboard-response","291","488287","0.0-14.0-0.40","60c49e68081928c86ba7b98a","650c16f0f2faf8d7a0d14c09","651c1cd0f2f046c6abe73a52","null","null","<p style=""font-size: 60px; font-family: BACS"">DOBhYATc</p>","","","","","","","","",""
"html-keyboard-response","292","489289","0.0-14.0-0.41","60c49e68081928c86ba7b98a","650c16f0f2faf8d7a0d14c09","651c1cd0f2f046c6abe73a52","null","null","<p style=""font-size: 60px; font-family: BACS"">ukYZAld</p>","","","","","","","","",""
"html-keyboard-response","293","490294","0.0-14.0-0.42","60c49e68081928c86ba7b98a","650c16f0f2faf8d7a0d14c09","651c1cd0f2f046c6abe73a52","null","null","<p style=""font-size: 60px; font-family: BACS"">GNAcakmU</p>","","","","","","","","",""
"html-keyboard-response","294","491301","0.0-14.0-0.43","60c49e68081928c86ba7b98a","650c16f0f2faf8d7a0d14c09","651c1cd0f2f046c6abe73a52","null","null","<p style=""font-size: 60px; font-family: BACS"">tDPRkEAO</p>","","","","","","","","",""
"html-keyboard-response","295","492307","0.0-14.0-0.44","60c49e68081928c86ba7b98a","650c16f0f2faf8d7a0d14c09","651c1cd0f2f046c6abe73a52","null","null","<p style=""font-size: 60px; font-family: BACS"">kDRKcEcR</p>","","","","","","","","",""
"html-keyboard-response","296","493311","0.0-14.0-0.45","60c49e68081928c86ba7b98a","650c16f0f2faf8d7a0d14c09","651c1cd0f2f046c6abe73a52","null","null","<p style=""font-size: 60px; font-family: BACS"">CtmbTmTm</p>","","","","","","","","",""
"html-keyboard-response","297","494318","0.0-14.0-0.46","60c49e68081928c86ba7b98a","650c16f0f2faf8d7a0d14c09","651c1cd0f2f046c6abe73a52","null","null","<p style=""font-size: 60px; font-family: BACS"">AZaJckmU</p>","","","","","","","","",""
"html-keyboard-response","298","495323","0.0-14.0-0.47","60c49e68081928c86ba7b98a","650c16f0f2faf8d7a0d14c09","651c1cd0f2f046c6abe73a52","null","null","<p style=""font-size: 60px; font-family: BACS"">kKRCATc</p>","","","","","","","","",""
"html-keyboard-response","299","496325","0.0-14.0-0.48","60c49e68081928c86ba7b98a","650c16f0f2faf8d7a0d14c09","651c1cd0f2f046c6abe73a52","null","null","<p style=""font-size: 60px; font-family: BACS"">tDPRkTmTm</p>","","","","","","","","",""
"html-keyboard-response","300","497330","0.0-14.0-0.49","60c49e68081928c86ba7b98a","650c16f0f2faf8d7a0d14c09","651c1cd0f2f046c6abe73a52","null","null","<p style=""font-size: 60px; font-family: BACS"">DOBhYEAO</p>","","","","","","","","",""
"html-keyboard-response","301","498334","0.0-14.0-0.50","60c49e68081928c86ba7b98a","650c16f0f2faf8d7a0d14c09","651c1cd0f2f046c6abe73a52","null","null","<p style=""font-size: 60px; font-family: BACS"">lZcukYL</p>","","","","","","","","",""
"html-keyboard-response","302","499337","0.0-14.0-0.51","60c49e68081928c86ba7b98a","650c16f0f2faf8d7a0d14c09","651c1cd0f2f046c6abe73a52","null","null","<p style=""font-size: 60px; font-family: BACS"">OJGQYNu</p>","","","","","","","","",""
"html-keyboard-response","303","500342","0.0-14.0-0.52","60c49e68081928c86ba7b98a","650c16f0f2faf8d7a0d14c09","651c1cd0f2f046c6abe73a52","null","null","<p style=""font-size: 60px; font-family: BACS"">chAhTmTm</p>","","","","","","","","",""
"html-keyboard-response","304","501346","0.0-14.0-0.53","60c49e68081928c86ba7b98a","650c16f0f2faf8d7a0d14c09","651c1cd0f2f046c6abe73a52","null","null","<p style=""font-size: 60px; font-family: BACS"">JAaGAld</p>","","","","","","","","",""
"html-keyboard-response","305","502351","0.0-14.0-0.54","60c49e68081928c86ba7b98a","650c16f0f2faf8d7a0d14c09","651c1cd0f2f046c6abe73a52","null","null","<p style=""font-size: 60px; font-family: BACS"">kDRKcEAO</p>","","","","","","","","",""
"html-keyboard-response","306","503357","0.0-14.0-0.55","60c49e68081928c86ba7b98a","650c16f0f2faf8d7a0d14c09","651c1cd0f2f046c6abe73a52","null","null","<p style=""font-size: 60px; font-family: BACS"">AZaJcdmkv</p>","","","","","","","","",""
"html-keyboard-response","307","504364","0.0-14.0-0.56","60c49e68081928c86ba7b98a","650c16f0f2faf8d7a0d14c09","651c1cd0f2f046c6abe73a52","null","null","<p style=""font-size: 60px; font-family: BACS"">chAhEcR</p>","","","","","","","","",""
"html-keyboard-response","308","505369","0.0-14.0-0.57","60c49e68081928c86ba7b98a","650c16f0f2faf8d7a0d14c09","651c1cd0f2f046c6abe73a52","null","null","<p style=""font-size: 60px; font-family: BACS"">OCmkKOYC</p>","","","","","","","","",""
"html-keyboard-response","309","506371","0.0-14.0-0.58","60c49e68081928c86ba7b98a","650c16f0f2faf8d7a0d14c09","651c1cd0f2f046c6abe73a52","null","null","<p style=""font-size: 60px; font-family: BACS"">ukYZkYL</p>","","","","","","","","",""
"html-keyboard-response","310","507377","0.0-14.0-0.59","60c49e68081928c86ba7b98a","650c16f0f2faf8d7a0d14c09","651c1cd0f2f046c6abe73a52","null","null","<p style=""font-size: 60px; font-family: BACS"">lcOcYNu</p>","","","","","","","","",""
"html-keyboard-response","311","508379","0.0-14.0-0.60","60c49e68081928c86ba7b98a","650c16f0f2faf8d7a0d14c09","651c1cd0f2f046c6abe73a52","null","null","<p style=""font-size: 60px; font-family: BACS"">chAhATc</p>","","","","","","","","",""
"html-keyboard-response","312","509380","0.0-14.0-0.61","60c49e68081928c86ba7b98a","650c16f0f2faf8d7a0d14c09","651c1cd0f2f046c6abe73a52","null","null","<p style=""font-size: 60px; font-family: BACS"">OJGQAld</p>","","","","","","","","",""
"html-keyboard-response","313","510384","0.0-14.0-0.62","60c49e68081928c86ba7b98a","650c16f0f2faf8d7a0d14c09","651c1cd0f2f046c6abe73a52","null","null","<p style=""font-size: 60px; font-family: BACS"">RdPtDTmTm</p>","","","","","","","","",""
"html-keyboard-response","314","511389","0.0-14.0-0.63","60c49e68081928c86ba7b98a","650c16f0f2faf8d7a0d14c09","651c1cd0f2f046c6abe73a52","null","null","<p style=""font-size: 60px; font-family: BACS"">lcOckYL</p>","","","","","","","","",""
"html-keyboard-response","315","512391","0.0-14.0-0.64","60c49e68081928c86ba7b98a","650c16f0f2faf8d7a0d14c09","651c1cd0f2f046c6abe73a52","null","null","<p style=""font-size: 60px; font-family: BACS"">aOLZUkmU</p>","","","","","","","","",""
"html-keyboard-response","316","513398","0.0-14.0-0.65","60c49e68081928c86ba7b98a","650c16f0f2faf8d7a0d14c09","651c1cd0f2f046c6abe73a52","null","null","<p style=""font-size: 60px; font-family: BACS"">kDRKcKOYC</p>","","","","","","","","",""
"html-keyboard-response","317","514402","0.0-14.0-0.66","60c49e68081928c86ba7b98a","650c16f0f2faf8d7a0d14c09","651c1cd0f2f046c6abe73a52","null","null","<p style=""font-size: 60px; font-family: BACS"">kGlUdmkv</p>","","","","","","","","",""
"html-keyboard-response","318","515405","0.0-14.0-0.67","60c49e68081928c86ba7b98a","650c16f0f2faf8d7a0d14c09","651c1cd0f2f046c6abe73a52","null","null","<p style=""font-size: 60px; font-family: BACS"">OCmkEAO</p>","","","","","","","","",""
"html-keyboard-response","319","516412","0.0-14.0-0.68","60c49e68081928c86ba7b98a","650c16f0f2faf8d7a0d14c09","651c1cd0f2f046c6abe73a52","null","null","<p style=""font-size: 60px; font-family: BACS"">RdPtDEcR</p>","","","","","","","","",""
"html-keyboard-response","320","517417","0.0-14.0-0.69","60c49e68081928c86ba7b98a","650c16f0f2faf8d7a0d14c09","651c1cd0f2f046c6abe73a52","null","null","<p style=""font-size: 60px; font-family: BACS"">vkYGlYNu</p>","","","","","","","","",""
"html-keyboard-response","321","518421","0.0-14.0-0.70","60c49e68081928c86ba7b98a","650c16f0f2faf8d7a0d14c09","651c1cd0f2f046c6abe73a52","null","null","<p style=""font-size: 60px; font-family: BACS"">RdPtDKOYC</p>","","","","","","","","",""
"html-keyboard-response","322","519426","0.0-14.0-0.71","60c49e68081928c86ba7b98a","650c16f0f2faf8d7a0d14c09","651c1cd0f2f046c6abe73a52","null","null","<p style=""font-size: 60px; font-family: BACS"">aOLZUdmkv</p>","","","","","","","","",""
"html-keyboard-response","323","520428","0.0-14.0-0.72","60c49e68081928c86ba7b98a","650c16f0f2faf8d7a0d14c09","651c1cd0f2f046c6abe73a52","null","null","<p style=""font-size: 60px; font-family: BACS"">lcOcAld</p>","","","","","","","","",""
"html-keyboard-response","324","521435","0.0-14.0-0.73","60c49e68081928c86ba7b98a","650c16f0f2faf8d7a0d14c09","651c1cd0f2f046c6abe73a52","null","null","<p style=""font-size: 60px; font-family: BACS"">OCmkEcR</p>","","","","","","","","",""
"html-keyboard-response","325","522441","0.0-14.0-0.74","60c49e68081928c86ba7b98a","650c16f0f2faf8d7a0d14c09","651c1cd0f2f046c6abe73a52","null","null","<p style=""font-size: 60px; font-family: BACS"">GNAcakYL</p>","","","","","","","","",""
"html-keyboard-response","326","523444","0.0-14.0-0.75","60c49e68081928c86ba7b98a","650c16f0f2faf8d7a0d14c09","651c1cd0f2f046c6abe73a52","null","null","<p style=""font-size: 60px; font-family: BACS"">tDPRkKOYC</p>","","","","","","","","",""
"html-keyboard-response","327","524447","0.0-14.0-0.76","60c49e68081928c86ba7b98a","650c16f0f2faf8d7a0d14c09","651c1cd0f2f046c6abe73a52","null","null","<p style=""font-size: 60px; font-family: BACS"">aOLZUAld</p>","","","","","","","","",""
"html-keyboard-response","328","525451","0.0-14.0-0.77","60c49e68081928c86ba7b98a","650c16f0f2faf8d7a0d14c09","651c1cd0f2f046c6abe73a52","null","null","<p style=""font-size: 60px; font-family: BACS"">kGlUkYL</p>","","","","","","","","",""
"html-keyboard-response","329","526456","0.0-14.0-0.78","60c49e68081928c86ba7b98a","650c16f0f2faf8d7a0d14c09","651c1cd0f2f046c6abe73a52","null","null","<p style=""font-size: 60px; font-family: BACS"">vkYGldmkv</p>","","","","","","","","",""
"html-keyboard-response","330","527461","0.0-14.0-0.79","60c49e68081928c86ba7b98a","650c16f0f2faf8d7a0d14c09","651c1cd0f2f046c6abe73a52","null","null","<p style=""font-size: 60px; font-family: BACS"">JAaGYNu</p>","","","","","","","","",""
"html-keyboard-response","331","531688","0.0-15.0","60c49e68081928c86ba7b98a","650c16f0f2faf8d7a0d14c09","651c1cd0f2f046c6abe73a52","4226"," ","<p>Great, you've seen the fourth block of words. You may now take a short break.</p>
      <p>Press the spacebar when you're ready to continue.</p>","","","","","","","","",""
"html-keyboard-response","332","532693","0.0-16.0-0.0","60c49e68081928c86ba7b98a","650c16f0f2faf8d7a0d14c09","651c1cd0f2f046c6abe73a52","null","null","<p style=""font-size: 60px; font-family: BACS"">kDRKcEcR</p>","","","","","","","","",""
"html-keyboard-response","333","533699","0.0-16.0-0.1","60c49e68081928c86ba7b98a","650c16f0f2faf8d7a0d14c09","651c1cd0f2f046c6abe73a52","null","null","<p style=""font-size: 60px; font-family: BACS"">kDRKcEcR</p>","","","","","","","","",""
"html-keyboard-response","334","534702","0.0-16.0-0.2","60c49e68081928c86ba7b98a","650c16f0f2faf8d7a0d14c09","651c1cd0f2f046c6abe73a52","null","null","<p style=""font-size: 60px; font-family: BACS"">kDRKcEcR</p>","","","","","","","","",""
"html-keyboard-response","335","535705","0.0-16.0-0.3","60c49e68081928c86ba7b98a","650c16f0f2faf8d7a0d14c09","651c1cd0f2f046c6abe73a52","null","null","<p style=""font-size: 60px; font-family: BACS"">kDRKcEcR</p>","","","","","","","","",""
"html-keyboard-response","336","536707","0.0-16.0-0.4","60c49e68081928c86ba7b98a","650c16f0f2faf8d7a0d14c09","651c1cd0f2f046c6abe73a52","null","null","<p style=""font-size: 60px; font-family: BACS"">kDRKcEcR</p>","","","","","","","","",""
"html-keyboard-response","337","537711","0.0-16.0-0.5","60c49e68081928c86ba7b98a","650c16f0f2faf8d7a0d14c09","651c1cd0f2f046c6abe73a52","null","null","<p style=""font-size: 60px; font-family: BACS"">kDRKcEcR</p>","","","","","","","","",""
"html-keyboard-response","338","538715","0.0-16.0-0.6","60c49e68081928c86ba7b98a","650c16f0f2faf8d7a0d14c09","651c1cd0f2f046c6abe73a52","null","null","<p style=""font-size: 60px; font-family: BACS"">kDRKcEcR</p>","","","","","","","","",""
"html-keyboard-response","339","539722","0.0-16.0-0.7","60c49e68081928c86ba7b98a","650c16f0f2faf8d7a0d14c09","651c1cd0f2f046c6abe73a52","null","null","<p style=""font-size: 60px; font-family: BACS"">kDRKcEcR</p>","","","","","","","","",""
"html-keyboard-response","340","540725","0.0-16.0-0.8","60c49e68081928c86ba7b98a","650c16f0f2faf8d7a0d14c09","651c1cd0f2f046c6abe73a52","null","null","<p style=""font-size: 60px; font-family: BACS"">kDRKcEcR</p>","","","","","","","","",""
"html-keyboard-response","341","541730","0.0-16.0-0.9","60c49e68081928c86ba7b98a","650c16f0f2faf8d7a0d14c09","651c1cd0f2f046c6abe73a52","null","null","<p style=""font-size: 60px; font-family: BACS"">kDRKcEcR</p>","","","","","","","","",""
"html-keyboard-response","342","542732","0.0-16.0-0.10","60c49e68081928c86ba7b98a","650c16f0f2faf8d7a0d14c09","651c1cd0f2f046c6abe73a52","null","null","<p style=""font-size: 60px; font-family: BACS"">kDRKcEcR</p>","","","","","","","","",""
"html-keyboard-response","343","543734","0.0-16.0-0.11","60c49e68081928c86ba7b98a","650c16f0f2faf8d7a0d14c09","651c1cd0f2f046c6abe73a52","null","null","<p style=""font-size: 60px; font-family: BACS"">kDRKcEcR</p>","","","","","","","","",""
"html-keyboard-response","344","544739","0.0-16.0-0.12","60c49e68081928c86ba7b98a","650c16f0f2faf8d7a0d14c09","651c1cd0f2f046c6abe73a52","null","null","<p style=""font-size: 60px; font-family: BACS"">kDRKcEcR</p>","","","","","","","","",""
"html-keyboard-response","345","545743","0.0-16.0-0.13","60c49e68081928c86ba7b98a","650c16f0f2faf8d7a0d14c09","651c1cd0f2f046c6abe73a52","null","null","<p style=""font-size: 60px; font-family: BACS"">kDRKcEcR</p>","","","","","","","","",""
"html-keyboard-response","346","546748","0.0-16.0-0.14","60c49e68081928c86ba7b98a","650c16f0f2faf8d7a0d14c09","651c1cd0f2f046c6abe73a52","null","null","<p style=""font-size: 60px; font-family: BACS"">kDRKcEcR</p>","","","","","","","","",""
"html-keyboard-response","347","547754","0.0-16.0-0.15","60c49e68081928c86ba7b98a","650c16f0f2faf8d7a0d14c09","651c1cd0f2f046c6abe73a52","null","null","<p style=""font-size: 60px; font-family: BACS"">kDRKcEcR</p>","","","","","","","","",""
"html-keyboard-response","348","548760","0.0-16.0-0.16","60c49e68081928c86ba7b98a","650c16f0f2faf8d7a0d14c09","651c1cd0f2f046c6abe73a52","null","null","<p style=""font-size: 60px; font-family: BACS"">kDRKcEcR</p>","","","","","","","","",""
"html-keyboard-response","349","549763","0.0-16.0-0.17","60c49e68081928c86ba7b98a","650c16f0f2faf8d7a0d14c09","651c1cd0f2f046c6abe73a52","null","null","<p style=""font-size: 60px; font-family: BACS"">kDRKcEcR</p>","","","","","","","","",""
"html-keyboard-response","350","550768","0.0-16.0-0.18","60c49e68081928c86ba7b98a","650c16f0f2faf8d7a0d14c09","651c1cd0f2f046c6abe73a52","null","null","<p style=""font-size: 60px; font-family: BACS"">kDRKcEcR</p>","","","","","","","","",""
"html-keyboard-response","351","551772","0.0-16.0-0.19","60c49e68081928c86ba7b98a","650c16f0f2faf8d7a0d14c09","651c1cd0f2f046c6abe73a52","null","null","<p style=""font-size: 60px; font-family: BACS"">kDRKcEcR</p>","","","","","","","","",""
"html-keyboard-response","352","552774","0.0-16.0-0.20","60c49e68081928c86ba7b98a","650c16f0f2faf8d7a0d14c09","651c1cd0f2f046c6abe73a52","null","null","<p style=""font-size: 60px; font-family: BACS"">kDRKcEcR</p>","","","","","","","","",""
"html-keyboard-response","353","553779","0.0-16.0-0.21","60c49e68081928c86ba7b98a","650c16f0f2faf8d7a0d14c09","651c1cd0f2f046c6abe73a52","null","null","<p style=""font-size: 60px; font-family: BACS"">kDRKcEcR</p>","","","","","","","","",""
"html-keyboard-response","354","554784","0.0-16.0-0.22","60c49e68081928c86ba7b98a","650c16f0f2faf8d7a0d14c09","651c1cd0f2f046c6abe73a52","null","null","<p style=""font-size: 60px; font-family: BACS"">kDRKcEcR</p>","","","","","","","","",""
"html-keyboard-response","355","555789","0.0-16.0-0.23","60c49e68081928c86ba7b98a","650c16f0f2faf8d7a0d14c09","651c1cd0f2f046c6abe73a52","null","null","<p style=""font-size: 60px; font-family: BACS"">kDRKcEcR</p>","","","","","","","","",""
"html-keyboard-response","356","556792","0.0-16.0-0.24","60c49e68081928c86ba7b98a","650c16f0f2faf8d7a0d14c09","651c1cd0f2f046c6abe73a52","null","null","<p style=""font-size: 60px; font-family: BACS"">kDRKcEcR</p>","","","","","","","","",""
"html-keyboard-response","357","557793","0.0-16.0-0.25","60c49e68081928c86ba7b98a","650c16f0f2faf8d7a0d14c09","651c1cd0f2f046c6abe73a52","null","null","<p style=""font-size: 60px; font-family: BACS"">kDRKcEcR</p>","","","","","","","","",""
"html-keyboard-response","358","558800","0.0-16.0-0.26","60c49e68081928c86ba7b98a","650c16f0f2faf8d7a0d14c09","651c1cd0f2f046c6abe73a52","null","null","<p style=""font-size: 60px; font-family: BACS"">kDRKcEcR</p>","","","","","","","","",""
"html-keyboard-response","359","559806","0.0-16.0-0.27","60c49e68081928c86ba7b98a","650c16f0f2faf8d7a0d14c09","651c1cd0f2f046c6abe73a52","null","null","<p style=""font-size: 60px; font-family: BACS"">kDRKcEcR</p>","","","","","","","","",""
"html-keyboard-response","360","560813","0.0-16.0-0.28","60c49e68081928c86ba7b98a","650c16f0f2faf8d7a0d14c09","651c1cd0f2f046c6abe73a52","null","null","<p style=""font-size: 60px; font-family: BACS"">kDRKcEcR</p>","","","","","","","","",""
"html-keyboard-response","361","561818","0.0-16.0-0.29","60c49e68081928c86ba7b98a","650c16f0f2faf8d7a0d14c09","651c1cd0f2f046c6abe73a52","null","null","<p style=""font-size: 60px; font-family: BACS"">kDRKcEcR</p>","","","","","","","","",""
"html-keyboard-response","362","562821","0.0-16.0-0.30","60c49e68081928c86ba7b98a","650c16f0f2faf8d7a0d14c09","651c1cd0f2f046c6abe73a52","null","null","<p style=""font-size: 60px; font-family: BACS"">kDRKcEcR</p>","","","","","","","","",""
"html-keyboard-response","363","563823","0.0-16.0-0.31","60c49e68081928c86ba7b98a","650c16f0f2faf8d7a0d14c09","651c1cd0f2f046c6abe73a52","null","null","<p style=""font-size: 60px; font-family: BACS"">kDRKcEcR</p>","","","","","","","","",""
"html-keyboard-response","364","564825","0.0-16.0-0.32","60c49e68081928c86ba7b98a","650c16f0f2faf8d7a0d14c09","651c1cd0f2f046c6abe73a52","null","null","<p style=""font-size: 60px; font-family: BACS"">kDRKcEcR</p>","","","","","","","","",""
"html-keyboard-response","365","565827","0.0-16.0-0.33","60c49e68081928c86ba7b98a","650c16f0f2faf8d7a0d14c09","651c1cd0f2f046c6abe73a52","null","null","<p style=""font-size: 60px; font-family: BACS"">kDRKcEcR</p>","","","","","","","","",""
"html-keyboard-response","366","566832","0.0-16.0-0.34","60c49e68081928c86ba7b98a","650c16f0f2faf8d7a0d14c09","651c1cd0f2f046c6abe73a52","null","null","<p style=""font-size: 60px; font-family: BACS"">kDRKcEcR</p>","","","","","","","","",""
"html-keyboard-response","367","567838","0.0-16.0-0.35","60c49e68081928c86ba7b98a","650c16f0f2faf8d7a0d14c09","651c1cd0f2f046c6abe73a52","null","null","<p style=""font-size: 60px; font-family: BACS"">kDRKcEcR</p>","","","","","","","","",""
"html-keyboard-response","368","568843","0.0-16.0-0.36","60c49e68081928c86ba7b98a","650c16f0f2faf8d7a0d14c09","651c1cd0f2f046c6abe73a52","null","null","<p style=""font-size: 60px; font-family: BACS"">kDRKcEcR</p>","","","","","","","","",""
"html-keyboard-response","369","569847","0.0-16.0-0.37","60c49e68081928c86ba7b98a","650c16f0f2faf8d7a0d14c09","651c1cd0f2f046c6abe73a52","null","null","<p style=""font-size: 60px; font-family: BACS"">kDRKcEcR</p>","","","","","","","","",""
"html-keyboard-response","370","570850","0.0-16.0-0.38","60c49e68081928c86ba7b98a","650c16f0f2faf8d7a0d14c09","651c1cd0f2f046c6abe73a52","null","null","<p style=""font-size: 60px; font-family: BACS"">kDRKcEcR</p>","","","","","","","","",""
"html-keyboard-response","371","571856","0.0-16.0-0.39","60c49e68081928c86ba7b98a","650c16f0f2faf8d7a0d14c09","651c1cd0f2f046c6abe73a52","null","null","<p style=""font-size: 60px; font-family: BACS"">kDRKcEcR</p>","","","","","","","","",""
"html-keyboard-response","372","572858","0.0-16.0-0.40","60c49e68081928c86ba7b98a","650c16f0f2faf8d7a0d14c09","651c1cd0f2f046c6abe73a52","null","null","<p style=""font-size: 60px; font-family: BACS"">kDRKcEcR</p>","","","","","","","","",""
"html-keyboard-response","373","573864","0.0-16.0-0.41","60c49e68081928c86ba7b98a","650c16f0f2faf8d7a0d14c09","651c1cd0f2f046c6abe73a52","null","null","<p style=""font-size: 60px; font-family: BACS"">kDRKcEcR</p>","","","","","","","","",""
"html-keyboard-response","374","574868","0.0-16.0-0.42","60c49e68081928c86ba7b98a","650c16f0f2faf8d7a0d14c09","651c1cd0f2f046c6abe73a52","null","null","<p style=""font-size: 60px; font-family: BACS"">kDRKcEcR</p>","","","","","","","","",""
"html-keyboard-response","375","575869","0.0-16.0-0.43","60c49e68081928c86ba7b98a","650c16f0f2faf8d7a0d14c09","651c1cd0f2f046c6abe73a52","null","null","<p style=""font-size: 60px; font-family: BACS"">kDRKcEcR</p>","","","","","","","","",""
"html-keyboard-response","376","576875","0.0-16.0-0.44","60c49e68081928c86ba7b98a","650c16f0f2faf8d7a0d14c09","651c1cd0f2f046c6abe73a52","null","null","<p style=""font-size: 60px; font-family: BACS"">kDRKcEcR</p>","","","","","","","","",""
"html-keyboard-response","377","577880","0.0-16.0-0.45","60c49e68081928c86ba7b98a","650c16f0f2faf8d7a0d14c09","651c1cd0f2f046c6abe73a52","null","null","<p style=""font-size: 60px; font-family: BACS"">kDRKcEcR</p>","","","","","","","","",""
"html-keyboard-response","378","578884","0.0-16.0-0.46","60c49e68081928c86ba7b98a","650c16f0f2faf8d7a0d14c09","651c1cd0f2f046c6abe73a52","null","null","<p style=""font-size: 60px; font-family: BACS"">kDRKcEcR</p>","","","","","","","","",""
"html-keyboard-response","379","579889","0.0-16.0-0.47","60c49e68081928c86ba7b98a","650c16f0f2faf8d7a0d14c09","651c1cd0f2f046c6abe73a52","null","null","<p style=""font-size: 60px; font-family: BACS"">kDRKcEcR</p>","","","","","","","","",""
"html-keyboard-response","380","580896","0.0-16.0-0.48","60c49e68081928c86ba7b98a","650c16f0f2faf8d7a0d14c09","651c1cd0f2f046c6abe73a52","null","null","<p style=""font-size: 60px; font-family: BACS"">kDRKcEcR</p>","","","","","","","","",""
"html-keyboard-response","381","581902","0.0-16.0-0.49","60c49e68081928c86ba7b98a","650c16f0f2faf8d7a0d14c09","651c1cd0f2f046c6abe73a52","null","null","<p style=""font-size: 60px; font-family: BACS"">kDRKcEcR</p>","","","","","","","","",""
"html-keyboard-response","382","582908","0.0-16.0-0.50","60c49e68081928c86ba7b98a","650c16f0f2faf8d7a0d14c09","651c1cd0f2f046c6abe73a52","null","null","<p style=""font-size: 60px; font-family: BACS"">kDRKcEcR</p>","","","","","","","","",""
"html-keyboard-response","383","583913","0.0-16.0-0.51","60c49e68081928c86ba7b98a","650c16f0f2faf8d7a0d14c09","651c1cd0f2f046c6abe73a52","null","null","<p style=""font-size: 60px; font-family: BACS"">kDRKcEcR</p>","","","","","","","","",""
"html-keyboard-response","384","584915","0.0-16.0-0.52","60c49e68081928c86ba7b98a","650c16f0f2faf8d7a0d14c09","651c1cd0f2f046c6abe73a52","null","null","<p style=""font-size: 60px; font-family: BACS"">kDRKcEcR</p>","","","","","","","","",""
"html-keyboard-response","385","585917","0.0-16.0-0.53","60c49e68081928c86ba7b98a","650c16f0f2faf8d7a0d14c09","651c1cd0f2f046c6abe73a52","null","null","<p style=""font-size: 60px; font-family: BACS"">kDRKcEcR</p>","","","","","","","","",""
"html-keyboard-response","386","586920","0.0-16.0-0.54","60c49e68081928c86ba7b98a","650c16f0f2faf8d7a0d14c09","651c1cd0f2f046c6abe73a52","null","null","<p style=""font-size: 60px; font-family: BACS"">kDRKcEcR</p>","","","","","","","","",""
"html-keyboard-response","387","587927","0.0-16.0-0.55","60c49e68081928c86ba7b98a","650c16f0f2faf8d7a0d14c09","651c1cd0f2f046c6abe73a52","null","null","<p style=""font-size: 60px; font-family: BACS"">kDRKcEcR</p>","","","","","","","","",""
"html-keyboard-response","388","588929","0.0-16.0-0.56","60c49e68081928c86ba7b98a","650c16f0f2faf8d7a0d14c09","651c1cd0f2f046c6abe73a52","null","null","<p style=""font-size: 60px; font-family: BACS"">kDRKcEcR</p>","","","","","","","","",""
"html-keyboard-response","389","589931","0.0-16.0-0.57","60c49e68081928c86ba7b98a","650c16f0f2faf8d7a0d14c09","651c1cd0f2f046c6abe73a52","null","null","<p style=""font-size: 60px; font-family: BACS"">kDRKcEcR</p>","","","","","","","","",""
"html-keyboard-response","390","590935","0.0-16.0-0.58","60c49e68081928c86ba7b98a","650c16f0f2faf8d7a0d14c09","651c1cd0f2f046c6abe73a52","null","null","<p style=""font-size: 60px; font-family: BACS"">kDRKcEcR</p>","","","","","","","","",""
"html-keyboard-response","391","591938","0.0-16.0-0.59","60c49e68081928c86ba7b98a","650c16f0f2faf8d7a0d14c09","651c1cd0f2f046c6abe73a52","null","null","<p style=""font-size: 60px; font-family: BACS"">kDRKcEcR</p>","","","","","","","","",""
"html-keyboard-response","392","592941","0.0-16.0-0.60","60c49e68081928c86ba7b98a","650c16f0f2faf8d7a0d14c09","651c1cd0f2f046c6abe73a52","null","null","<p style=""font-size: 60px; font-family: BACS"">kDRKcEcR</p>","","","","","","","","",""
"html-keyboard-response","393","593943","0.0-16.0-0.61","60c49e68081928c86ba7b98a","650c16f0f2faf8d7a0d14c09","651c1cd0f2f046c6abe73a52","null","null","<p style=""font-size: 60px; font-family: BACS"">kDRKcEcR</p>","","","","","","","","",""
"html-keyboard-response","394","594948","0.0-16.0-0.62","60c49e68081928c86ba7b98a","650c16f0f2faf8d7a0d14c09","651c1cd0f2f046c6abe73a52","null","null","<p style=""font-size: 60px; font-family: BACS"">kDRKcEcR</p>","","","","","","","","",""
"html-keyboard-response","395","595950","0.0-16.0-0.63","60c49e68081928c86ba7b98a","650c16f0f2faf8d7a0d14c09","651c1cd0f2f046c6abe73a52","null","null","<p style=""font-size: 60px; font-family: BACS"">kDRKcEcR</p>","","","","","","","","",""
"html-keyboard-response","396","596955","0.0-16.0-0.64","60c49e68081928c86ba7b98a","650c16f0f2faf8d7a0d14c09","651c1cd0f2f046c6abe73a52","null","null","<p style=""font-size: 60px; font-family: BACS"">kDRKcEcR</p>","","","","","","","","",""
"html-keyboard-response","397","597960","0.0-16.0-0.65","60c49e68081928c86ba7b98a","650c16f0f2faf8d7a0d14c09","651c1cd0f2f046c6abe73a52","null","null","<p style=""font-size: 60px; font-family: BACS"">kDRKcEcR</p>","","","","","","","","",""
"html-keyboard-response","398","598965","0.0-16.0-0.66","60c49e68081928c86ba7b98a","650c16f0f2faf8d7a0d14c09","651c1cd0f2f046c6abe73a52","null","null","<p style=""font-size: 60px; font-family: BACS"">kDRKcEcR</p>","","","","","","","","",""
"html-keyboard-response","399","599970","0.0-16.0-0.67","60c49e68081928c86ba7b98a","650c16f0f2faf8d7a0d14c09","651c1cd0f2f046c6abe73a52","null","null","<p style=""font-size: 60px; font-family: BACS"">kDRKcEcR</p>","","","","","","","","",""
"html-keyboard-response","400","600973","0.0-16.0-0.68","60c49e68081928c86ba7b98a","650c16f0f2faf8d7a0d14c09","651c1cd0f2f046c6abe73a52","null","null","<p style=""font-size: 60px; font-family: BACS"">kDRKcEcR</p>","","","","","","","","",""
