"trial_type","trial_index","time_elapsed","internal_node_id","subject_id","study_id","session_id","rt","response","stimulus","success","item","task","correct_response","testing_condition","correct","target","confound","name"
"pavlovia","0","2409","0.0-0.0","6092e2aac56871319199b6a5","650c16f0f2faf8d7a0d14c09","651c1bff6f385036f4234c87","","","","","","","","","","","",""
"survey-html-form","1","10506","0.0-1.0","6092e2aac56871319199b6a5","650c16f0f2faf8d7a0d14c09","651c1bff6f385036f4234c87","8095","{""ID"":""6092e2aac56871319199b6a5""}","","","","","","","","","",""
"html-keyboard-response","2","49155","0.0-2.0","6092e2aac56871319199b6a5","650c16f0f2faf8d7a0d14c09","651c1bff6f385036f4234c87","38648"," ","<p style=""font-size: 15px;"">Before beginning, we ask that you read the consent information and confirm your agreement to participate in the experiment.</p>
      <p style=""font-size: 15px;""> We ask that you remember that this is a research project and that your participation is entirely voluntary. You can stop your participation at any time, without needing to provide any explanation. The study we're asking you to participate in aims at examining how readers process written words. You will be engaged in a session of apprximately 20 minutes, followed by a brief questionnaire. You will have the opportunity to take a few breaks during the experiment. You will be paid £4 for your participation, corresponding to a rate of £8/hour. While this experiment looks at cognitive faculties, this experiment doesn't constitute clinical proof of eventual pathologies.</p>
      <p style=""font-size: 15px;"">All of the information collected thanks to yours and others' participation will be held in a secure password-protected server, and will not be shared with anyone not authorised to view it. Your personal information will be kept with an arbitrary participant ID. Thanks to this data anonymity process, any researcher analysing the data won't be able to track the information back to a specific participant. Therefore, this process will make identifying you impossibile, even when results from the study will be published in scientific reviews, presented at congresses, or at any other public forum. More generally, the collected data will be treated in accordance with the laws on privacy and conformity to the Legislative Degree n. 196 ""Code regarding the protection of personal data"" of the 30th of June 2003 and to the European Regulation 2016/670 (General Data Protection Regulation - GDPR). The Data Protection Officer is Avv. Valentina Carollo, who can be contacted at the following email addresses: <a href=""mailto:dpo@sissa.it"">dpo@sissa.it</a> or <a href=""mailto:rpd@sissa.it"">rpd@sissa.it</a> - PEC: <a href=""mailto:protocollo@pec.sissa.it"">protocollo@pec.sissa.it</a>.</p>
      <p style=""font-size: 15px;""> Before expressing your consent to participate, we would like to remind you again that in case you need explanations on any aspect of the experimental procedure, the researcher is at your disposition (<a href=""mailto:aliebelt@sissa.it"">aliebelt@sissa.it</a>, <a href=""mailto:davide.crepaldi@sissa.it"">davide.crepaldi@sissa.it</a>).</p>
      <p style=""font-size: 15px;"">If you would like to download the informed consent form, you can do so here: <a href=""BASL-Informed_Consent.pdf"" download>informed consent form</a>.</p>
      <p style=""font-size: 15px;"">We ask that you press the spacebar to proceed to the consent section.</p>","","","","","","","","",""
"survey-html-form","3","78554","0.0-3.0","6092e2aac56871319199b6a5","650c16f0f2faf8d7a0d14c09","651c1bff6f385036f4234c87","29396","{""consent1"":""YES"",""consent2"":""YES"",""consent3"":""YES"",""consent4"":""YES"",""consent5"":""YES"",""consent6"":""YES""}","","","","","","","","","",""
"fullscreen","4","88155","0.0-4.0","6092e2aac56871319199b6a5","650c16f0f2faf8d7a0d14c09","651c1bff6f385036f4234c87","","","","true","","","","","","","",""
"html-keyboard-response","5","111592","0.0-5.0","6092e2aac56871319199b6a5","650c16f0f2faf8d7a0d14c09","651c1bff6f385036f4234c87","23435"," ","<p>Welcome, and thank you very much for your time!</p>
      <p>In this experiment, you'll be a language expert who's been asked to take a look at words that Earth has received in its first communication with aliens. Your task, in this first part of the experiment, is to pay close attention to the words you'll be shown; later, world leaders will ask you questions on what you saw. The words will be shown to you quite quickly; it seems that the aliens were in a hurry :-)</p>
      <p>Press the spacebar to continue.<p>","","","","","","","","",""
"html-keyboard-response","6","111644","0.0-6.0","6092e2aac56871319199b6a5","650c16f0f2faf8d7a0d14c09","651c1bff6f385036f4234c87","null","null","<p style=""font-size: 120px; font-family: BACS""> </p>","","","","","","","","",""
"html-keyboard-response","7","121340","0.0-7.0","6092e2aac56871319199b6a5","650c16f0f2faf8d7a0d14c09","651c1bff6f385036f4234c87","9705"," ","<p>Here is an example of the words you'll see:</p>
      <img src='esempio.png' height='400px'>
      <p>When you're ready to begin, press the spacebar.</p></div>","","","","","","","","",""
"html-keyboard-response","8","122355","0.0-8.0-0.0","6092e2aac56871319199b6a5","650c16f0f2faf8d7a0d14c09","651c1bff6f385036f4234c87","null","null","<p style=""font-size: 60px; font-family: BACS"">RdPtDKEdl</p>","","","","","","","","",""
"html-keyboard-response","9","123372","0.0-8.0-0.1","6092e2aac56871319199b6a5","650c16f0f2faf8d7a0d14c09","651c1bff6f385036f4234c87","null","null","<p style=""font-size: 60px; font-family: BACS"">OJGQLUOk</p>","","","","","","","","",""
"html-keyboard-response","10","124379","0.0-8.0-0.2","6092e2aac56871319199b6a5","650c16f0f2faf8d7a0d14c09","651c1bff6f385036f4234c87","null","null","<p style=""font-size: 60px; font-family: BACS"">TklDdBC</p>","","","","","","","","",""
"html-keyboard-response","11","125389","0.0-8.0-0.3","6092e2aac56871319199b6a5","650c16f0f2faf8d7a0d14c09","651c1bff6f385036f4234c87","null","null","<p style=""font-size: 60px; font-family: BACS"">LcNUJuUmb</p>","","","","","","","","",""
"html-keyboard-response","12","126392","0.0-8.0-0.4","6092e2aac56871319199b6a5","650c16f0f2faf8d7a0d14c09","651c1bff6f385036f4234c87","null","null","<p style=""font-size: 60px; font-family: BACS"">UdumdLUOk</p>","","","","","","","","",""
"html-keyboard-response","13","127408","0.0-8.0-0.5","6092e2aac56871319199b6a5","650c16f0f2faf8d7a0d14c09","651c1bff6f385036f4234c87","null","null","<p style=""font-size: 60px; font-family: BACS"">JuamlcrdY</p>","","","","","","","","",""
"html-keyboard-response","14","128425","0.0-8.0-0.6","6092e2aac56871319199b6a5","650c16f0f2faf8d7a0d14c09","651c1bff6f385036f4234c87","null","null","<p style=""font-size: 60px; font-family: BACS"">hBmMCdRA</p>","","","","","","","","",""
"html-keyboard-response","15","129442","0.0-8.0-0.7","6092e2aac56871319199b6a5","650c16f0f2faf8d7a0d14c09","651c1bff6f385036f4234c87","null","null","<p style=""font-size: 60px; font-family: BACS"">DCmhABb</p>","","","","","","","","",""
"html-keyboard-response","16","130459","0.0-8.0-0.8","6092e2aac56871319199b6a5","650c16f0f2faf8d7a0d14c09","651c1bff6f385036f4234c87","null","null","<p style=""font-size: 60px; font-family: BACS"">NvYJcrdY</p>","","","","","","","","",""
"html-keyboard-response","17","131475","0.0-8.0-0.9","6092e2aac56871319199b6a5","650c16f0f2faf8d7a0d14c09","651c1bff6f385036f4234c87","null","null","<p style=""font-size: 60px; font-family: BACS"">ZkGmYrAm</p>","","","","","","","","",""
"html-keyboard-response","18","132478","0.0-8.0-0.10","6092e2aac56871319199b6a5","650c16f0f2faf8d7a0d14c09","651c1bff6f385036f4234c87","null","null","<p style=""font-size: 60px; font-family: BACS"">JvaAcrdY</p>","","","","","","","","",""
"html-keyboard-response","19","133493","0.0-8.0-0.11","6092e2aac56871319199b6a5","650c16f0f2faf8d7a0d14c09","651c1bff6f385036f4234c87","null","null","<p style=""font-size: 60px; font-family: BACS"">OmtlDYDTk</p>","","","","","","","","",""
"html-keyboard-response","20","134495","0.0-8.0-0.12","6092e2aac56871319199b6a5","650c16f0f2faf8d7a0d14c09","651c1bff6f385036f4234c87","null","null","<p style=""font-size: 60px; font-family: BACS"">hBmMCdBC</p>","","","","","","","","",""
"html-keyboard-response","21","135510","0.0-8.0-0.13","6092e2aac56871319199b6a5","650c16f0f2faf8d7a0d14c09","651c1bff6f385036f4234c87","null","null","<p style=""font-size: 60px; font-family: BACS"">JdGmcrdY</p>","","","","","","","","",""
"html-keyboard-response","22","136525","0.0-8.0-0.14","6092e2aac56871319199b6a5","650c16f0f2faf8d7a0d14c09","651c1bff6f385036f4234c87","null","null","<p style=""font-size: 60px; font-family: BACS"">TklDYDTk</p>","","","","","","","","",""
"html-keyboard-response","23","137529","0.0-8.0-0.15","6092e2aac56871319199b6a5","650c16f0f2faf8d7a0d14c09","651c1bff6f385036f4234c87","null","null","<p style=""font-size: 60px; font-family: BACS"">bcORKEdl</p>","","","","","","","","",""
"html-keyboard-response","24","138545","0.0-8.0-0.16","6092e2aac56871319199b6a5","650c16f0f2faf8d7a0d14c09","651c1bff6f385036f4234c87","null","null","<p style=""font-size: 60px; font-family: BACS"">LGkAuUmb</p>","","","","","","","","",""
"html-keyboard-response","25","139548","0.0-8.0-0.17","6092e2aac56871319199b6a5","650c16f0f2faf8d7a0d14c09","651c1bff6f385036f4234c87","null","null","<p style=""font-size: 60px; font-family: BACS"">hBmMCYDTk</p>","","","","","","","","",""
"html-keyboard-response","26","140563","0.0-8.0-0.18","6092e2aac56871319199b6a5","650c16f0f2faf8d7a0d14c09","651c1bff6f385036f4234c87","null","null","<p style=""font-size: 60px; font-family: BACS"">OJGQcrdY</p>","","","","","","","","",""
"html-keyboard-response","27","141570","0.0-8.0-0.19","6092e2aac56871319199b6a5","650c16f0f2faf8d7a0d14c09","651c1bff6f385036f4234c87","null","null","<p style=""font-size: 60px; font-family: BACS"">htmhCdBC</p>","","","","","","","","",""
"html-keyboard-response","28","142587","0.0-8.0-0.20","6092e2aac56871319199b6a5","650c16f0f2faf8d7a0d14c09","651c1bff6f385036f4234c87","null","null","<p style=""font-size: 60px; font-family: BACS"">lTmOKEdl</p>","","","","","","","","",""
"html-keyboard-response","29","143598","0.0-8.0-0.21","6092e2aac56871319199b6a5","650c16f0f2faf8d7a0d14c09","651c1bff6f385036f4234c87","null","null","<p style=""font-size: 60px; font-family: BACS"">JvaArAm</p>","","","","","","","","",""
"html-keyboard-response","30","144615","0.0-8.0-0.22","6092e2aac56871319199b6a5","650c16f0f2faf8d7a0d14c09","651c1bff6f385036f4234c87","null","null","<p style=""font-size: 60px; font-family: BACS"">DCmhYDTk</p>","","","","","","","","",""
"html-keyboard-response","31","145616","0.0-8.0-0.23","6092e2aac56871319199b6a5","650c16f0f2faf8d7a0d14c09","651c1bff6f385036f4234c87","null","null","<p style=""font-size: 60px; font-family: BACS"">NvYJGUa</p>","","","","","","","","",""
"html-keyboard-response","32","146632","0.0-8.0-0.24","6092e2aac56871319199b6a5","650c16f0f2faf8d7a0d14c09","651c1bff6f385036f4234c87","null","null","<p style=""font-size: 60px; font-family: BACS"">LGkAcrdY</p>","","","","","","","","",""
"html-keyboard-response","33","147634","0.0-8.0-0.25","6092e2aac56871319199b6a5","650c16f0f2faf8d7a0d14c09","651c1bff6f385036f4234c87","null","null","<p style=""font-size: 60px; font-family: BACS"">OkGYGUa</p>","","","","","","","","",""
"html-keyboard-response","34","148640","0.0-8.0-0.26","6092e2aac56871319199b6a5","650c16f0f2faf8d7a0d14c09","651c1bff6f385036f4234c87","null","null","<p style=""font-size: 60px; font-family: BACS"">OmtlDdBC</p>","","","","","","","","",""
"html-keyboard-response","35","149650","0.0-8.0-0.27","6092e2aac56871319199b6a5","650c16f0f2faf8d7a0d14c09","651c1bff6f385036f4234c87","null","null","<p style=""font-size: 60px; font-family: BACS"">JuamluUmb</p>","","","","","","","","",""
"html-keyboard-response","36","150667","0.0-8.0-0.28","6092e2aac56871319199b6a5","650c16f0f2faf8d7a0d14c09","651c1bff6f385036f4234c87","null","null","<p style=""font-size: 60px; font-family: BACS"">LcNUJrAm</p>","","","","","","","","",""
"html-keyboard-response","37","151673","0.0-8.0-0.29","6092e2aac56871319199b6a5","650c16f0f2faf8d7a0d14c09","651c1bff6f385036f4234c87","null","null","<p style=""font-size: 60px; font-family: BACS"">LGkAGUa</p>","","","","","","","","",""
"html-keyboard-response","38","152686","0.0-8.0-0.30","6092e2aac56871319199b6a5","650c16f0f2faf8d7a0d14c09","651c1bff6f385036f4234c87","null","null","<p style=""font-size: 60px; font-family: BACS"">TklDKEdl</p>","","","","","","","","",""
"html-keyboard-response","39","153702","0.0-8.0-0.31","6092e2aac56871319199b6a5","650c16f0f2faf8d7a0d14c09","651c1bff6f385036f4234c87","null","null","<p style=""font-size: 60px; font-family: BACS"">UdumdrAm</p>","","","","","","","","",""
"html-keyboard-response","40","154719","0.0-8.0-0.32","6092e2aac56871319199b6a5","650c16f0f2faf8d7a0d14c09","651c1bff6f385036f4234c87","null","null","<p style=""font-size: 60px; font-family: BACS"">OkGYuUmb</p>","","","","","","","","",""
"html-keyboard-response","41","155721","0.0-8.0-0.33","6092e2aac56871319199b6a5","650c16f0f2faf8d7a0d14c09","651c1bff6f385036f4234c87","null","null","<p style=""font-size: 60px; font-family: BACS"">JuamlGUa</p>","","","","","","","","",""
"html-keyboard-response","42","156736","0.0-8.0-0.34","6092e2aac56871319199b6a5","650c16f0f2faf8d7a0d14c09","651c1bff6f385036f4234c87","null","null","<p style=""font-size: 60px; font-family: BACS"">hBmMCABb</p>","","","","","","","","",""
"html-keyboard-response","43","157738","0.0-8.0-0.35","6092e2aac56871319199b6a5","650c16f0f2faf8d7a0d14c09","651c1bff6f385036f4234c87","null","null","<p style=""font-size: 60px; font-family: BACS"">LcNUJGUa</p>","","","","","","","","",""
"html-keyboard-response","44","158755","0.0-8.0-0.36","6092e2aac56871319199b6a5","650c16f0f2faf8d7a0d14c09","651c1bff6f385036f4234c87","null","null","<p style=""font-size: 60px; font-family: BACS"">DCmhdRA</p>","","","","","","","","",""
"html-keyboard-response","45","159771","0.0-8.0-0.37","6092e2aac56871319199b6a5","650c16f0f2faf8d7a0d14c09","651c1bff6f385036f4234c87","null","null","<p style=""font-size: 60px; font-family: BACS"">lTmOdBC</p>","","","","","","","","",""
"html-keyboard-response","46","160773","0.0-8.0-0.38","6092e2aac56871319199b6a5","650c16f0f2faf8d7a0d14c09","651c1bff6f385036f4234c87","null","null","<p style=""font-size: 60px; font-family: BACS"">RdPtDdRA</p>","","","","","","","","",""
"html-keyboard-response","47","161788","0.0-8.0-0.39","6092e2aac56871319199b6a5","650c16f0f2faf8d7a0d14c09","651c1bff6f385036f4234c87","null","null","<p style=""font-size: 60px; font-family: BACS"">ZkGmYLUOk</p>","","","","","","","","",""
"html-keyboard-response","48","162790","0.0-8.0-0.40","6092e2aac56871319199b6a5","650c16f0f2faf8d7a0d14c09","651c1bff6f385036f4234c87","null","null","<p style=""font-size: 60px; font-family: BACS"">KTDTBdBC</p>","","","","","","","","",""
"html-keyboard-response","49","163806","0.0-8.0-0.41","6092e2aac56871319199b6a5","650c16f0f2faf8d7a0d14c09","651c1bff6f385036f4234c87","null","null","<p style=""font-size: 60px; font-family: BACS"">OJGQGUa</p>","","","","","","","","",""
"html-keyboard-response","50","164823","0.0-8.0-0.42","6092e2aac56871319199b6a5","650c16f0f2faf8d7a0d14c09","651c1bff6f385036f4234c87","null","null","<p style=""font-size: 60px; font-family: BACS"">bcORdBC</p>","","","","","","","","",""
"html-keyboard-response","51","165826","0.0-8.0-0.43","6092e2aac56871319199b6a5","650c16f0f2faf8d7a0d14c09","651c1bff6f385036f4234c87","null","null","<p style=""font-size: 60px; font-family: BACS"">RlAKcdRA</p>","","","","","","","","",""
"html-keyboard-response","52","166841","0.0-8.0-0.44","6092e2aac56871319199b6a5","650c16f0f2faf8d7a0d14c09","651c1bff6f385036f4234c87","null","null","<p style=""font-size: 60px; font-family: BACS"">OJGQrAm</p>","","","","","","","","",""
"html-keyboard-response","53","167842","0.0-8.0-0.45","6092e2aac56871319199b6a5","650c16f0f2faf8d7a0d14c09","651c1bff6f385036f4234c87","null","null","<p style=""font-size: 60px; font-family: BACS"">JvaALUOk</p>","","","","","","","","",""
"html-keyboard-response","54","168860","0.0-8.0-0.46","6092e2aac56871319199b6a5","650c16f0f2faf8d7a0d14c09","651c1bff6f385036f4234c87","null","null","<p style=""font-size: 60px; font-family: BACS"">JdGmGUa</p>","","","","","","","","",""
"html-keyboard-response","55","169876","0.0-8.0-0.47","6092e2aac56871319199b6a5","650c16f0f2faf8d7a0d14c09","651c1bff6f385036f4234c87","null","null","<p style=""font-size: 60px; font-family: BACS"">RdPtDABb</p>","","","","","","","","",""
"html-keyboard-response","56","170878","0.0-8.0-0.48","6092e2aac56871319199b6a5","650c16f0f2faf8d7a0d14c09","651c1bff6f385036f4234c87","null","null","<p style=""font-size: 60px; font-family: BACS"">RlAKcdBC</p>","","","","","","","","",""
"html-keyboard-response","57","171894","0.0-8.0-0.49","6092e2aac56871319199b6a5","650c16f0f2faf8d7a0d14c09","651c1bff6f385036f4234c87","null","null","<p style=""font-size: 60px; font-family: BACS"">LcNUJLUOk</p>","","","","","","","","",""
"html-keyboard-response","58","172912","0.0-8.0-0.50","6092e2aac56871319199b6a5","650c16f0f2faf8d7a0d14c09","651c1bff6f385036f4234c87","null","null","<p style=""font-size: 60px; font-family: BACS"">OkGYcrdY</p>","","","","","","","","",""
"html-keyboard-response","59","173927","0.0-8.0-0.51","6092e2aac56871319199b6a5","650c16f0f2faf8d7a0d14c09","651c1bff6f385036f4234c87","null","null","<p style=""font-size: 60px; font-family: BACS"">bcORdRA</p>","","","","","","","","",""
"html-keyboard-response","60","174929","0.0-8.0-0.52","6092e2aac56871319199b6a5","650c16f0f2faf8d7a0d14c09","651c1bff6f385036f4234c87","null","null","<p style=""font-size: 60px; font-family: BACS"">RdPtDYDTk</p>","","","","","","","","",""
"html-keyboard-response","61","175945","0.0-8.0-0.53","6092e2aac56871319199b6a5","650c16f0f2faf8d7a0d14c09","651c1bff6f385036f4234c87","null","null","<p style=""font-size: 60px; font-family: BACS"">KTDTBdRA</p>","","","","","","","","",""
"html-keyboard-response","62","176947","0.0-8.0-0.54","6092e2aac56871319199b6a5","650c16f0f2faf8d7a0d14c09","651c1bff6f385036f4234c87","null","null","<p style=""font-size: 60px; font-family: BACS"">UdumduUmb</p>","","","","","","","","",""
"html-keyboard-response","63","177963","0.0-8.0-0.55","6092e2aac56871319199b6a5","650c16f0f2faf8d7a0d14c09","651c1bff6f385036f4234c87","null","null","<p style=""font-size: 60px; font-family: BACS"">OmtlDKEdl</p>","","","","","","","","",""
"html-keyboard-response","64","178965","0.0-8.0-0.56","6092e2aac56871319199b6a5","650c16f0f2faf8d7a0d14c09","651c1bff6f385036f4234c87","null","null","<p style=""font-size: 60px; font-family: BACS"">ZkGmYuUmb</p>","","","","","","","","",""
"html-keyboard-response","65","179979","0.0-8.0-0.57","6092e2aac56871319199b6a5","650c16f0f2faf8d7a0d14c09","651c1bff6f385036f4234c87","null","null","<p style=""font-size: 60px; font-family: BACS"">TklDdRA</p>","","","","","","","","",""
"html-keyboard-response","66","180981","0.0-8.0-0.58","6092e2aac56871319199b6a5","650c16f0f2faf8d7a0d14c09","651c1bff6f385036f4234c87","null","null","<p style=""font-size: 60px; font-family: BACS"">UdumdGUa</p>","","","","","","","","",""
"html-keyboard-response","67","181993","0.0-8.0-0.59","6092e2aac56871319199b6a5","650c16f0f2faf8d7a0d14c09","651c1bff6f385036f4234c87","null","null","<p style=""font-size: 60px; font-family: BACS"">lTmOdRA</p>","","","","","","","","",""
"html-keyboard-response","68","183008","0.0-8.0-0.60","6092e2aac56871319199b6a5","650c16f0f2faf8d7a0d14c09","651c1bff6f385036f4234c87","null","null","<p style=""font-size: 60px; font-family: BACS"">JdGmuUmb</p>","","","","","","","","",""
"html-keyboard-response","69","184025","0.0-8.0-0.61","6092e2aac56871319199b6a5","650c16f0f2faf8d7a0d14c09","651c1bff6f385036f4234c87","null","null","<p style=""font-size: 60px; font-family: BACS"">ZkGmYcrdY</p>","","","","","","","","",""
"html-keyboard-response","70","185042","0.0-8.0-0.62","6092e2aac56871319199b6a5","650c16f0f2faf8d7a0d14c09","651c1bff6f385036f4234c87","null","null","<p style=""font-size: 60px; font-family: BACS"">OmtlDABb</p>","","","","","","","","",""
"html-keyboard-response","71","186060","0.0-8.0-0.63","6092e2aac56871319199b6a5","650c16f0f2faf8d7a0d14c09","651c1bff6f385036f4234c87","null","null","<p style=""font-size: 60px; font-family: BACS"">NvYJrAm</p>","","","","","","","","",""
"html-keyboard-response","72","187062","0.0-8.0-0.64","6092e2aac56871319199b6a5","650c16f0f2faf8d7a0d14c09","651c1bff6f385036f4234c87","null","null","<p style=""font-size: 60px; font-family: BACS"">OkGYLUOk</p>","","","","","","","","",""
"html-keyboard-response","73","188077","0.0-8.0-0.65","6092e2aac56871319199b6a5","650c16f0f2faf8d7a0d14c09","651c1bff6f385036f4234c87","null","null","<p style=""font-size: 60px; font-family: BACS"">RlAKcABb</p>","","","","","","","","",""
"html-keyboard-response","74","189082","0.0-8.0-0.66","6092e2aac56871319199b6a5","650c16f0f2faf8d7a0d14c09","651c1bff6f385036f4234c87","null","null","<p style=""font-size: 60px; font-family: BACS"">htmhCKEdl</p>","","","","","","","","",""
"html-keyboard-response","75","190094","0.0-8.0-0.67","6092e2aac56871319199b6a5","650c16f0f2faf8d7a0d14c09","651c1bff6f385036f4234c87","null","null","<p style=""font-size: 60px; font-family: BACS"">NvYJLUOk</p>","","","","","","","","",""
"html-keyboard-response","76","191096","0.0-8.0-0.68","6092e2aac56871319199b6a5","650c16f0f2faf8d7a0d14c09","651c1bff6f385036f4234c87","null","null","<p style=""font-size: 60px; font-family: BACS"">lTmOYDTk</p>","","","","","","","","",""
"html-keyboard-response","77","192112","0.0-8.0-0.69","6092e2aac56871319199b6a5","650c16f0f2faf8d7a0d14c09","651c1bff6f385036f4234c87","null","null","<p style=""font-size: 60px; font-family: BACS"">JdGmrAm</p>","","","","","","","","",""
"html-keyboard-response","78","193128","0.0-8.0-0.70","6092e2aac56871319199b6a5","650c16f0f2faf8d7a0d14c09","651c1bff6f385036f4234c87","null","null","<p style=""font-size: 60px; font-family: BACS"">DCmhKEdl</p>","","","","","","","","",""
"html-keyboard-response","79","194131","0.0-8.0-0.71","6092e2aac56871319199b6a5","650c16f0f2faf8d7a0d14c09","651c1bff6f385036f4234c87","null","null","<p style=""font-size: 60px; font-family: BACS"">htmhCYDTk</p>","","","","","","","","",""
"html-keyboard-response","80","195136","0.0-8.0-0.72","6092e2aac56871319199b6a5","650c16f0f2faf8d7a0d14c09","651c1bff6f385036f4234c87","null","null","<p style=""font-size: 60px; font-family: BACS"">KTDTBABb</p>","","","","","","","","",""
"html-keyboard-response","81","196148","0.0-8.0-0.73","6092e2aac56871319199b6a5","650c16f0f2faf8d7a0d14c09","651c1bff6f385036f4234c87","null","null","<p style=""font-size: 60px; font-family: BACS"">JvaAuUmb</p>","","","","","","","","",""
"html-keyboard-response","82","197164","0.0-8.0-0.74","6092e2aac56871319199b6a5","650c16f0f2faf8d7a0d14c09","651c1bff6f385036f4234c87","null","null","<p style=""font-size: 60px; font-family: BACS"">LGkArAm</p>","","","","","","","","",""
"html-keyboard-response","83","198182","0.0-8.0-0.75","6092e2aac56871319199b6a5","650c16f0f2faf8d7a0d14c09","651c1bff6f385036f4234c87","null","null","<p style=""font-size: 60px; font-family: BACS"">JuamlLUOk</p>","","","","","","","","",""
"html-keyboard-response","84","199199","0.0-8.0-0.76","6092e2aac56871319199b6a5","650c16f0f2faf8d7a0d14c09","651c1bff6f385036f4234c87","null","null","<p style=""font-size: 60px; font-family: BACS"">bcORABb</p>","","","","","","","","",""
"html-keyboard-response","85","200216","0.0-8.0-0.77","6092e2aac56871319199b6a5","650c16f0f2faf8d7a0d14c09","651c1bff6f385036f4234c87","null","null","<p style=""font-size: 60px; font-family: BACS"">KTDTBKEdl</p>","","","","","","","","",""
"html-keyboard-response","86","201232","0.0-8.0-0.78","6092e2aac56871319199b6a5","650c16f0f2faf8d7a0d14c09","651c1bff6f385036f4234c87","null","null","<p style=""font-size: 60px; font-family: BACS"">htmhCABb</p>","","","","","","","","",""
"html-keyboard-response","87","202235","0.0-8.0-0.79","6092e2aac56871319199b6a5","650c16f0f2faf8d7a0d14c09","651c1bff6f385036f4234c87","null","null","<p style=""font-size: 60px; font-family: BACS"">RlAKcYDTk</p>","","","","","","","","",""
"html-keyboard-response","88","209014","0.0-9.0","6092e2aac56871319199b6a5","650c16f0f2faf8d7a0d14c09","651c1bff6f385036f4234c87","6777"," ","<p>Great, you've seen the first block of words. You may now take a short break.</p>
      <p>Press the spacebar when you're ready to continue.</p>","","","","","","","","",""
"html-keyboard-response","89","210022","0.0-10.0-0.0","6092e2aac56871319199b6a5","650c16f0f2faf8d7a0d14c09","651c1bff6f385036f4234c87","null","null","<p style=""font-size: 60px; font-family: BACS"">RlAKcdBC</p>","","","","","","","","",""
"html-keyboard-response","90","211038","0.0-10.0-0.1","6092e2aac56871319199b6a5","650c16f0f2faf8d7a0d14c09","651c1bff6f385036f4234c87","null","null","<p style=""font-size: 60px; font-family: BACS"">RdPtDdRA</p>","","","","","","","","",""
"html-keyboard-response","91","212055","0.0-10.0-0.2","6092e2aac56871319199b6a5","650c16f0f2faf8d7a0d14c09","651c1bff6f385036f4234c87","null","null","<p style=""font-size: 60px; font-family: BACS"">LcNUJrAm</p>","","","","","","","","",""
"html-keyboard-response","92","213073","0.0-10.0-0.3","6092e2aac56871319199b6a5","650c16f0f2faf8d7a0d14c09","651c1bff6f385036f4234c87","null","null","<p style=""font-size: 60px; font-family: BACS"">JvaALUOk</p>","","","","","","","","",""
"html-keyboard-response","93","214089","0.0-10.0-0.4","6092e2aac56871319199b6a5","650c16f0f2faf8d7a0d14c09","651c1bff6f385036f4234c87","null","null","<p style=""font-size: 60px; font-family: BACS"">TklDdBC</p>","","","","","","","","",""
"html-keyboard-response","94","215090","0.0-10.0-0.5","6092e2aac56871319199b6a5","650c16f0f2faf8d7a0d14c09","651c1bff6f385036f4234c87","null","null","<p style=""font-size: 60px; font-family: BACS"">NvYJrAm</p>","","","","","","","","",""
"html-keyboard-response","95","216106","0.0-10.0-0.6","6092e2aac56871319199b6a5","650c16f0f2faf8d7a0d14c09","651c1bff6f385036f4234c87","null","null","<p style=""font-size: 60px; font-family: BACS"">UdumdGUa</p>","","","","","","","","",""
"html-keyboard-response","96","217108","0.0-10.0-0.7","6092e2aac56871319199b6a5","650c16f0f2faf8d7a0d14c09","651c1bff6f385036f4234c87","null","null","<p style=""font-size: 60px; font-family: BACS"">KTDTBABb</p>","","","","","","","","",""
"html-keyboard-response","97","218125","0.0-10.0-0.8","6092e2aac56871319199b6a5","650c16f0f2faf8d7a0d14c09","651c1bff6f385036f4234c87","null","null","<p style=""font-size: 60px; font-family: BACS"">htmhCdBC</p>","","","","","","","","",""
"html-keyboard-response","98","219141","0.0-10.0-0.9","6092e2aac56871319199b6a5","650c16f0f2faf8d7a0d14c09","651c1bff6f385036f4234c87","null","null","<p style=""font-size: 60px; font-family: BACS"">bcORdRA</p>","","","","","","","","",""
"html-keyboard-response","99","220157","0.0-10.0-0.10","6092e2aac56871319199b6a5","650c16f0f2faf8d7a0d14c09","651c1bff6f385036f4234c87","null","null","<p style=""font-size: 60px; font-family: BACS"">JuamluUmb</p>","","","","","","","","",""
"html-keyboard-response","100","221160","0.0-10.0-0.11","6092e2aac56871319199b6a5","650c16f0f2faf8d7a0d14c09","651c1bff6f385036f4234c87","null","null","<p style=""font-size: 60px; font-family: BACS"">lTmOYDTk</p>","","","","","","","","",""
"html-keyboard-response","101","222175","0.0-10.0-0.12","6092e2aac56871319199b6a5","650c16f0f2faf8d7a0d14c09","651c1bff6f385036f4234c87","null","null","<p style=""font-size: 60px; font-family: BACS"">OkGYuUmb</p>","","","","","","","","",""
"html-keyboard-response","102","223177","0.0-10.0-0.13","6092e2aac56871319199b6a5","650c16f0f2faf8d7a0d14c09","651c1bff6f385036f4234c87","null","null","<p style=""font-size: 60px; font-family: BACS"">bcORKEdl</p>","","","","","","","","",""
"html-keyboard-response","103","224194","0.0-10.0-0.14","6092e2aac56871319199b6a5","650c16f0f2faf8d7a0d14c09","651c1bff6f385036f4234c87","null","null","<p style=""font-size: 60px; font-family: BACS"">ZkGmYuUmb</p>","","","","","","","","",""
"html-keyboard-response","104","225211","0.0-10.0-0.15","6092e2aac56871319199b6a5","650c16f0f2faf8d7a0d14c09","651c1bff6f385036f4234c87","null","null","<p style=""font-size: 60px; font-family: BACS"">OmtlDABb</p>","","","","","","","","",""
"html-keyboard-response","105","226213","0.0-10.0-0.16","6092e2aac56871319199b6a5","650c16f0f2faf8d7a0d14c09","651c1bff6f385036f4234c87","null","null","<p style=""font-size: 60px; font-family: BACS"">LGkAGUa</p>","","","","","","","","",""
"html-keyboard-response","106","227228","0.0-10.0-0.17","6092e2aac56871319199b6a5","650c16f0f2faf8d7a0d14c09","651c1bff6f385036f4234c87","null","null","<p style=""font-size: 60px; font-family: BACS"">TklDKEdl</p>","","","","","","","","",""
"html-keyboard-response","107","228245","0.0-10.0-0.18","6092e2aac56871319199b6a5","650c16f0f2faf8d7a0d14c09","651c1bff6f385036f4234c87","null","null","<p style=""font-size: 60px; font-family: BACS"">OkGYcrdY</p>","","","","","","","","",""
"html-keyboard-response","108","229263","0.0-10.0-0.19","6092e2aac56871319199b6a5","650c16f0f2faf8d7a0d14c09","651c1bff6f385036f4234c87","null","null","<p style=""font-size: 60px; font-family: BACS"">LcNUJLUOk</p>","","","","","","","","",""
"html-keyboard-response","109","230279","0.0-10.0-0.20","6092e2aac56871319199b6a5","650c16f0f2faf8d7a0d14c09","651c1bff6f385036f4234c87","null","null","<p style=""font-size: 60px; font-family: BACS"">htmhCYDTk</p>","","","","","","","","",""
"html-keyboard-response","110","231280","0.0-10.0-0.21","6092e2aac56871319199b6a5","650c16f0f2faf8d7a0d14c09","651c1bff6f385036f4234c87","null","null","<p style=""font-size: 60px; font-family: BACS"">JvaArAm</p>","","","","","","","","",""
"html-keyboard-response","111","232282","0.0-10.0-0.22","6092e2aac56871319199b6a5","650c16f0f2faf8d7a0d14c09","651c1bff6f385036f4234c87","null","null","<p style=""font-size: 60px; font-family: BACS"">UdumduUmb</p>","","","","","","","","",""
"html-keyboard-response","112","233298","0.0-10.0-0.23","6092e2aac56871319199b6a5","650c16f0f2faf8d7a0d14c09","651c1bff6f385036f4234c87","null","null","<p style=""font-size: 60px; font-family: BACS"">KTDTBdBC</p>","","","","","","","","",""
"html-keyboard-response","113","234304","0.0-10.0-0.24","6092e2aac56871319199b6a5","650c16f0f2faf8d7a0d14c09","651c1bff6f385036f4234c87","null","null","<p style=""font-size: 60px; font-family: BACS"">htmhCABb</p>","","","","","","","","",""
"html-keyboard-response","114","235315","0.0-10.0-0.25","6092e2aac56871319199b6a5","650c16f0f2faf8d7a0d14c09","651c1bff6f385036f4234c87","null","null","<p style=""font-size: 60px; font-family: BACS"">JdGmrAm</p>","","","","","","","","",""
"html-keyboard-response","115","236317","0.0-10.0-0.26","6092e2aac56871319199b6a5","650c16f0f2faf8d7a0d14c09","651c1bff6f385036f4234c87","null","null","<p style=""font-size: 60px; font-family: BACS"">JuamlGUa</p>","","","","","","","","",""
"html-keyboard-response","116","237331","0.0-10.0-0.27","6092e2aac56871319199b6a5","650c16f0f2faf8d7a0d14c09","651c1bff6f385036f4234c87","null","null","<p style=""font-size: 60px; font-family: BACS"">UdumdLUOk</p>","","","","","","","","",""
"html-keyboard-response","117","238333","0.0-10.0-0.28","6092e2aac56871319199b6a5","650c16f0f2faf8d7a0d14c09","651c1bff6f385036f4234c87","null","null","<p style=""font-size: 60px; font-family: BACS"">KTDTBdRA</p>","","","","","","","","",""
"html-keyboard-response","118","239335","0.0-10.0-0.29","6092e2aac56871319199b6a5","650c16f0f2faf8d7a0d14c09","651c1bff6f385036f4234c87","null","null","<p style=""font-size: 60px; font-family: BACS"">DCmhYDTk</p>","","","","","","","","",""
"html-keyboard-response","119","240351","0.0-10.0-0.30","6092e2aac56871319199b6a5","650c16f0f2faf8d7a0d14c09","651c1bff6f385036f4234c87","null","null","<p style=""font-size: 60px; font-family: BACS"">LGkAuUmb</p>","","","","","","","","",""
"html-keyboard-response","120","241353","0.0-10.0-0.31","6092e2aac56871319199b6a5","650c16f0f2faf8d7a0d14c09","651c1bff6f385036f4234c87","null","null","<p style=""font-size: 60px; font-family: BACS"">RdPtDABb</p>","","","","","","","","",""
"html-keyboard-response","121","242367","0.0-10.0-0.32","6092e2aac56871319199b6a5","650c16f0f2faf8d7a0d14c09","651c1bff6f385036f4234c87","null","null","<p style=""font-size: 60px; font-family: BACS"">JvaAcrdY</p>","","","","","","","","",""
"html-keyboard-response","122","243370","0.0-10.0-0.33","6092e2aac56871319199b6a5","650c16f0f2faf8d7a0d14c09","651c1bff6f385036f4234c87","null","null","<p style=""font-size: 60px; font-family: BACS"">OkGYLUOk</p>","","","","","","","","",""
"html-keyboard-response","123","244386","0.0-10.0-0.34","6092e2aac56871319199b6a5","650c16f0f2faf8d7a0d14c09","651c1bff6f385036f4234c87","null","null","<p style=""font-size: 60px; font-family: BACS"">OmtlDdBC</p>","","","","","","","","",""
"html-keyboard-response","124","245403","0.0-10.0-0.35","6092e2aac56871319199b6a5","650c16f0f2faf8d7a0d14c09","651c1bff6f385036f4234c87","null","null","<p style=""font-size: 60px; font-family: BACS"">ZkGmYLUOk</p>","","","","","","","","",""
"html-keyboard-response","125","246404","0.0-10.0-0.36","6092e2aac56871319199b6a5","650c16f0f2faf8d7a0d14c09","651c1bff6f385036f4234c87","null","null","<p style=""font-size: 60px; font-family: BACS"">JvaAuUmb</p>","","","","","","","","",""
"html-keyboard-response","126","247421","0.0-10.0-0.37","6092e2aac56871319199b6a5","650c16f0f2faf8d7a0d14c09","651c1bff6f385036f4234c87","null","null","<p style=""font-size: 60px; font-family: BACS"">hBmMCdRA</p>","","","","","","","","",""
"html-keyboard-response","127","248424","0.0-10.0-0.38","6092e2aac56871319199b6a5","650c16f0f2faf8d7a0d14c09","651c1bff6f385036f4234c87","null","null","<p style=""font-size: 60px; font-family: BACS"">LcNUJuUmb</p>","","","","","","","","",""
"html-keyboard-response","128","249440","0.0-10.0-0.39","6092e2aac56871319199b6a5","650c16f0f2faf8d7a0d14c09","651c1bff6f385036f4234c87","null","null","<p style=""font-size: 60px; font-family: BACS"">DCmhKEdl</p>","","","","","","","","",""
"html-keyboard-response","129","250455","0.0-10.0-0.40","6092e2aac56871319199b6a5","650c16f0f2faf8d7a0d14c09","651c1bff6f385036f4234c87","null","null","<p style=""font-size: 60px; font-family: BACS"">NvYJLUOk</p>","","","","","","","","",""
"html-keyboard-response","130","251457","0.0-10.0-0.41","6092e2aac56871319199b6a5","650c16f0f2faf8d7a0d14c09","651c1bff6f385036f4234c87","null","null","<p style=""font-size: 60px; font-family: BACS"">hBmMCdBC</p>","","","","","","","","",""
"html-keyboard-response","131","252458","0.0-10.0-0.42","6092e2aac56871319199b6a5","650c16f0f2faf8d7a0d14c09","651c1bff6f385036f4234c87","null","null","<p style=""font-size: 60px; font-family: BACS"">JdGmGUa</p>","","","","","","","","",""
"html-keyboard-response","132","253473","0.0-10.0-0.43","6092e2aac56871319199b6a5","650c16f0f2faf8d7a0d14c09","651c1bff6f385036f4234c87","null","null","<p style=""font-size: 60px; font-family: BACS"">hBmMCABb</p>","","","","","","","","",""
"html-keyboard-response","133","254475","0.0-10.0-0.44","6092e2aac56871319199b6a5","650c16f0f2faf8d7a0d14c09","651c1bff6f385036f4234c87","null","null","<p style=""font-size: 60px; font-family: BACS"">LcNUJGUa</p>","","","","","","","","",""
"html-keyboard-response","134","255490","0.0-10.0-0.45","6092e2aac56871319199b6a5","650c16f0f2faf8d7a0d14c09","651c1bff6f385036f4234c87","null","null","<p style=""font-size: 60px; font-family: BACS"">OmtlDYDTk</p>","","","","","","","","",""
"html-keyboard-response","135","256493","0.0-10.0-0.46","6092e2aac56871319199b6a5","650c16f0f2faf8d7a0d14c09","651c1bff6f385036f4234c87","null","null","<p style=""font-size: 60px; font-family: BACS"">OJGQrAm</p>","","","","","","","","",""
"html-keyboard-response","136","257507","0.0-10.0-0.47","6092e2aac56871319199b6a5","650c16f0f2faf8d7a0d14c09","651c1bff6f385036f4234c87","null","null","<p style=""font-size: 60px; font-family: BACS"">KTDTBKEdl</p>","","","","","","","","",""
"html-keyboard-response","137","258510","0.0-10.0-0.48","6092e2aac56871319199b6a5","650c16f0f2faf8d7a0d14c09","651c1bff6f385036f4234c87","null","null","<p style=""font-size: 60px; font-family: BACS"">JuamlLUOk</p>","","","","","","","","",""
"html-keyboard-response","138","259528","0.0-10.0-0.49","6092e2aac56871319199b6a5","650c16f0f2faf8d7a0d14c09","651c1bff6f385036f4234c87","null","null","<p style=""font-size: 60px; font-family: BACS"">NvYJGUa</p>","","","","","","","","",""
"html-keyboard-response","139","260534","0.0-10.0-0.50","6092e2aac56871319199b6a5","650c16f0f2faf8d7a0d14c09","651c1bff6f385036f4234c87","null","null","<p style=""font-size: 60px; font-family: BACS"">DCmhdRA</p>","","","","","","","","",""
"html-keyboard-response","140","261544","0.0-10.0-0.51","6092e2aac56871319199b6a5","650c16f0f2faf8d7a0d14c09","651c1bff6f385036f4234c87","null","null","<p style=""font-size: 60px; font-family: BACS"">OJGQLUOk</p>","","","","","","","","",""
"html-keyboard-response","141","262546","0.0-10.0-0.52","6092e2aac56871319199b6a5","650c16f0f2faf8d7a0d14c09","651c1bff6f385036f4234c87","null","null","<p style=""font-size: 60px; font-family: BACS"">DCmhABb</p>","","","","","","","","",""
"html-keyboard-response","142","263561","0.0-10.0-0.53","6092e2aac56871319199b6a5","650c16f0f2faf8d7a0d14c09","651c1bff6f385036f4234c87","null","null","<p style=""font-size: 60px; font-family: BACS"">JdGmuUmb</p>","","","","","","","","",""
"html-keyboard-response","143","264563","0.0-10.0-0.54","6092e2aac56871319199b6a5","650c16f0f2faf8d7a0d14c09","651c1bff6f385036f4234c87","null","null","<p style=""font-size: 60px; font-family: BACS"">bcORABb</p>","","","","","","","","",""
"html-keyboard-response","144","265578","0.0-10.0-0.55","6092e2aac56871319199b6a5","650c16f0f2faf8d7a0d14c09","651c1bff6f385036f4234c87","null","null","<p style=""font-size: 60px; font-family: BACS"">lTmOKEdl</p>","","","","","","","","",""
"html-keyboard-response","145","266580","0.0-10.0-0.56","6092e2aac56871319199b6a5","650c16f0f2faf8d7a0d14c09","651c1bff6f385036f4234c87","null","null","<p style=""font-size: 60px; font-family: BACS"">bcORdBC</p>","","","","","","","","",""
"html-keyboard-response","146","267595","0.0-10.0-0.57","6092e2aac56871319199b6a5","650c16f0f2faf8d7a0d14c09","651c1bff6f385036f4234c87","null","null","<p style=""font-size: 60px; font-family: BACS"">UdumdrAm</p>","","","","","","","","",""
"html-keyboard-response","147","268611","0.0-10.0-0.58","6092e2aac56871319199b6a5","650c16f0f2faf8d7a0d14c09","651c1bff6f385036f4234c87","null","null","<p style=""font-size: 60px; font-family: BACS"">OJGQcrdY</p>","","","","","","","","",""
"html-keyboard-response","148","269614","0.0-10.0-0.59","6092e2aac56871319199b6a5","650c16f0f2faf8d7a0d14c09","651c1bff6f385036f4234c87","null","null","<p style=""font-size: 60px; font-family: BACS"">OkGYGUa</p>","","","","","","","","",""
"html-keyboard-response","149","270631","0.0-10.0-0.60","6092e2aac56871319199b6a5","650c16f0f2faf8d7a0d14c09","651c1bff6f385036f4234c87","null","null","<p style=""font-size: 60px; font-family: BACS"">lTmOdBC</p>","","","","","","","","",""
"html-keyboard-response","150","271632","0.0-10.0-0.61","6092e2aac56871319199b6a5","650c16f0f2faf8d7a0d14c09","651c1bff6f385036f4234c87","null","null","<p style=""font-size: 60px; font-family: BACS"">LGkArAm</p>","","","","","","","","",""
"html-keyboard-response","151","272648","0.0-10.0-0.62","6092e2aac56871319199b6a5","650c16f0f2faf8d7a0d14c09","651c1bff6f385036f4234c87","null","null","<p style=""font-size: 60px; font-family: BACS"">RlAKcYDTk</p>","","","","","","","","",""
"html-keyboard-response","152","273651","0.0-10.0-0.63","6092e2aac56871319199b6a5","650c16f0f2faf8d7a0d14c09","651c1bff6f385036f4234c87","null","null","<p style=""font-size: 60px; font-family: BACS"">OJGQGUa</p>","","","","","","","","",""
"html-keyboard-response","153","274656","0.0-10.0-0.64","6092e2aac56871319199b6a5","650c16f0f2faf8d7a0d14c09","651c1bff6f385036f4234c87","null","null","<p style=""font-size: 60px; font-family: BACS"">LGkAcrdY</p>","","","","","","","","",""
"html-keyboard-response","154","275666","0.0-10.0-0.65","6092e2aac56871319199b6a5","650c16f0f2faf8d7a0d14c09","651c1bff6f385036f4234c87","null","null","<p style=""font-size: 60px; font-family: BACS"">RlAKcdRA</p>","","","","","","","","",""
"html-keyboard-response","155","276668","0.0-10.0-0.66","6092e2aac56871319199b6a5","650c16f0f2faf8d7a0d14c09","651c1bff6f385036f4234c87","null","null","<p style=""font-size: 60px; font-family: BACS"">RdPtDKEdl</p>","","","","","","","","",""
"html-keyboard-response","156","277684","0.0-10.0-0.67","6092e2aac56871319199b6a5","650c16f0f2faf8d7a0d14c09","651c1bff6f385036f4234c87","null","null","<p style=""font-size: 60px; font-family: BACS"">NvYJcrdY</p>","","","","","","","","",""
"html-keyboard-response","157","278686","0.0-10.0-0.68","6092e2aac56871319199b6a5","650c16f0f2faf8d7a0d14c09","651c1bff6f385036f4234c87","null","null","<p style=""font-size: 60px; font-family: BACS"">TklDdRA</p>","","","","","","","","",""
"html-keyboard-response","158","279702","0.0-10.0-0.69","6092e2aac56871319199b6a5","650c16f0f2faf8d7a0d14c09","651c1bff6f385036f4234c87","null","null","<p style=""font-size: 60px; font-family: BACS"">htmhCKEdl</p>","","","","","","","","",""
"html-keyboard-response","159","280704","0.0-10.0-0.70","6092e2aac56871319199b6a5","650c16f0f2faf8d7a0d14c09","651c1bff6f385036f4234c87","null","null","<p style=""font-size: 60px; font-family: BACS"">hBmMCYDTk</p>","","","","","","","","",""
"html-keyboard-response","160","281719","0.0-10.0-0.71","6092e2aac56871319199b6a5","650c16f0f2faf8d7a0d14c09","651c1bff6f385036f4234c87","null","null","<p style=""font-size: 60px; font-family: BACS"">RlAKcABb</p>","","","","","","","","",""
"html-keyboard-response","161","282721","0.0-10.0-0.72","6092e2aac56871319199b6a5","650c16f0f2faf8d7a0d14c09","651c1bff6f385036f4234c87","null","null","<p style=""font-size: 60px; font-family: BACS"">TklDYDTk</p>","","","","","","","","",""
"html-keyboard-response","162","283737","0.0-10.0-0.73","6092e2aac56871319199b6a5","650c16f0f2faf8d7a0d14c09","651c1bff6f385036f4234c87","null","null","<p style=""font-size: 60px; font-family: BACS"">ZkGmYcrdY</p>","","","","","","","","",""
"html-keyboard-response","163","284745","0.0-10.0-0.74","6092e2aac56871319199b6a5","650c16f0f2faf8d7a0d14c09","651c1bff6f385036f4234c87","null","null","<p style=""font-size: 60px; font-family: BACS"">OmtlDKEdl</p>","","","","","","","","",""
"html-keyboard-response","164","285755","0.0-10.0-0.75","6092e2aac56871319199b6a5","650c16f0f2faf8d7a0d14c09","651c1bff6f385036f4234c87","null","null","<p style=""font-size: 60px; font-family: BACS"">RdPtDYDTk</p>","","","","","","","","",""
"html-keyboard-response","165","286757","0.0-10.0-0.76","6092e2aac56871319199b6a5","650c16f0f2faf8d7a0d14c09","651c1bff6f385036f4234c87","null","null","<p style=""font-size: 60px; font-family: BACS"">JdGmcrdY</p>","","","","","","","","",""
"html-keyboard-response","166","287773","0.0-10.0-0.77","6092e2aac56871319199b6a5","650c16f0f2faf8d7a0d14c09","651c1bff6f385036f4234c87","null","null","<p style=""font-size: 60px; font-family: BACS"">lTmOdRA</p>","","","","","","","","",""
"html-keyboard-response","167","288787","0.0-10.0-0.78","6092e2aac56871319199b6a5","650c16f0f2faf8d7a0d14c09","651c1bff6f385036f4234c87","null","null","<p style=""font-size: 60px; font-family: BACS"">ZkGmYrAm</p>","","","","","","","","",""
"html-keyboard-response","168","289796","0.0-10.0-0.79","6092e2aac56871319199b6a5","650c16f0f2faf8d7a0d14c09","651c1bff6f385036f4234c87","null","null","<p style=""font-size: 60px; font-family: BACS"">JuamlcrdY</p>","","","","","","","","",""
"html-keyboard-response","169","302507","0.0-11.0","6092e2aac56871319199b6a5","650c16f0f2faf8d7a0d14c09","651c1bff6f385036f4234c87","12713"," ","<p>Great, you've seen the second block of words. You may now take a short break.</p>
      <p>Press the spacebar when you're ready to continue.</p>","","","","","","","","",""
"html-keyboard-response","170","303521","0.0-12.0-0.0","6092e2aac56871319199b6a5","650c16f0f2faf8d7a0d14c09","651c1bff6f385036f4234c87","null","null","<p style=""font-size: 60px; font-family: BACS"">NvYJLUOk</p>","","","","","","","","",""
"html-keyboard-response","171","304531","0.0-12.0-0.1","6092e2aac56871319199b6a5","650c16f0f2faf8d7a0d14c09","651c1bff6f385036f4234c87","null","null","<p style=""font-size: 60px; font-family: BACS"">OJGQrAm</p>","","","","","","","","",""
"html-keyboard-response","172","305545","0.0-12.0-0.2","6092e2aac56871319199b6a5","650c16f0f2faf8d7a0d14c09","651c1bff6f385036f4234c87","null","null","<p style=""font-size: 60px; font-family: BACS"">DCmhdRA</p>","","","","","","","","",""
"html-keyboard-response","173","306561","0.0-12.0-0.3","6092e2aac56871319199b6a5","650c16f0f2faf8d7a0d14c09","651c1bff6f385036f4234c87","null","null","<p style=""font-size: 60px; font-family: BACS"">ZkGmYrAm</p>","","","","","","","","",""
"html-keyboard-response","174","307563","0.0-12.0-0.4","6092e2aac56871319199b6a5","650c16f0f2faf8d7a0d14c09","651c1bff6f385036f4234c87","null","null","<p style=""font-size: 60px; font-family: BACS"">NvYJGUa</p>","","","","","","","","",""
"html-keyboard-response","175","308578","0.0-12.0-0.5","6092e2aac56871319199b6a5","650c16f0f2faf8d7a0d14c09","651c1bff6f385036f4234c87","null","null","<p style=""font-size: 60px; font-family: BACS"">RlAKcdRA</p>","","","","","","","","",""
"html-keyboard-response","176","309579","0.0-12.0-0.6","6092e2aac56871319199b6a5","650c16f0f2faf8d7a0d14c09","651c1bff6f385036f4234c87","null","null","<p style=""font-size: 60px; font-family: BACS"">UdumdGUa</p>","","","","","","","","",""
"html-keyboard-response","177","310581","0.0-12.0-0.7","6092e2aac56871319199b6a5","650c16f0f2faf8d7a0d14c09","651c1bff6f385036f4234c87","null","null","<p style=""font-size: 60px; font-family: BACS"">htmhCdBC</p>","","","","","","","","",""
"html-keyboard-response","178","311597","0.0-12.0-0.8","6092e2aac56871319199b6a5","650c16f0f2faf8d7a0d14c09","651c1bff6f385036f4234c87","null","null","<p style=""font-size: 60px; font-family: BACS"">JvaAcrdY</p>","","","","","","","","",""
"html-keyboard-response","179","312613","0.0-12.0-0.9","6092e2aac56871319199b6a5","650c16f0f2faf8d7a0d14c09","651c1bff6f385036f4234c87","null","null","<p style=""font-size: 60px; font-family: BACS"">JuamlGUa</p>","","","","","","","","",""
"html-keyboard-response","180","313615","0.0-12.0-0.10","6092e2aac56871319199b6a5","650c16f0f2faf8d7a0d14c09","651c1bff6f385036f4234c87","null","null","<p style=""font-size: 60px; font-family: BACS"">OkGYuUmb</p>","","","","","","","","",""
"html-keyboard-response","181","314632","0.0-12.0-0.11","6092e2aac56871319199b6a5","650c16f0f2faf8d7a0d14c09","651c1bff6f385036f4234c87","null","null","<p style=""font-size: 60px; font-family: BACS"">ZkGmYcrdY</p>","","","","","","","","",""
"html-keyboard-response","182","315648","0.0-12.0-0.12","6092e2aac56871319199b6a5","650c16f0f2faf8d7a0d14c09","651c1bff6f385036f4234c87","null","null","<p style=""font-size: 60px; font-family: BACS"">JdGmrAm</p>","","","","","","","","",""
"html-keyboard-response","183","316650","0.0-12.0-0.13","6092e2aac56871319199b6a5","650c16f0f2faf8d7a0d14c09","651c1bff6f385036f4234c87","null","null","<p style=""font-size: 60px; font-family: BACS"">OJGQcrdY</p>","","","","","","","","",""
"html-keyboard-response","184","317666","0.0-12.0-0.14","6092e2aac56871319199b6a5","650c16f0f2faf8d7a0d14c09","651c1bff6f385036f4234c87","null","null","<p style=""font-size: 60px; font-family: BACS"">OmtlDKEdl</p>","","","","","","","","",""
"html-keyboard-response","185","318682","0.0-12.0-0.15","6092e2aac56871319199b6a5","650c16f0f2faf8d7a0d14c09","651c1bff6f385036f4234c87","null","null","<p style=""font-size: 60px; font-family: BACS"">RdPtDYDTk</p>","","","","","","","","",""
"html-keyboard-response","186","319691","0.0-12.0-0.16","6092e2aac56871319199b6a5","650c16f0f2faf8d7a0d14c09","651c1bff6f385036f4234c87","null","null","<p style=""font-size: 60px; font-family: BACS"">ZkGmYuUmb</p>","","","","","","","","",""
"html-keyboard-response","187","320701","0.0-12.0-0.17","6092e2aac56871319199b6a5","650c16f0f2faf8d7a0d14c09","651c1bff6f385036f4234c87","null","null","<p style=""font-size: 60px; font-family: BACS"">TklDYDTk</p>","","","","","","","","",""
"html-keyboard-response","188","321718","0.0-12.0-0.18","6092e2aac56871319199b6a5","650c16f0f2faf8d7a0d14c09","651c1bff6f385036f4234c87","null","null","<p style=""font-size: 60px; font-family: BACS"">LGkAuUmb</p>","","","","","","","","",""
"html-keyboard-response","189","322734","0.0-12.0-0.19","6092e2aac56871319199b6a5","650c16f0f2faf8d7a0d14c09","651c1bff6f385036f4234c87","null","null","<p style=""font-size: 60px; font-family: BACS"">KTDTBABb</p>","","","","","","","","",""
"html-keyboard-response","190","323751","0.0-12.0-0.20","6092e2aac56871319199b6a5","650c16f0f2faf8d7a0d14c09","651c1bff6f385036f4234c87","null","null","<p style=""font-size: 60px; font-family: BACS"">JvaALUOk</p>","","","","","","","","",""
"html-keyboard-response","191","324753","0.0-12.0-0.21","6092e2aac56871319199b6a5","650c16f0f2faf8d7a0d14c09","651c1bff6f385036f4234c87","null","null","<p style=""font-size: 60px; font-family: BACS"">DCmhKEdl</p>","","","","","","","","",""
"html-keyboard-response","192","325769","0.0-12.0-0.22","6092e2aac56871319199b6a5","650c16f0f2faf8d7a0d14c09","651c1bff6f385036f4234c87","null","null","<p style=""font-size: 60px; font-family: BACS"">RlAKcABb</p>","","","","","","","","",""
"html-keyboard-response","193","326776","0.0-12.0-0.23","6092e2aac56871319199b6a5","650c16f0f2faf8d7a0d14c09","651c1bff6f385036f4234c87","null","null","<p style=""font-size: 60px; font-family: BACS"">LGkAGUa</p>","","","","","","","","",""
"html-keyboard-response","194","327788","0.0-12.0-0.24","6092e2aac56871319199b6a5","650c16f0f2faf8d7a0d14c09","651c1bff6f385036f4234c87","null","null","<p style=""font-size: 60px; font-family: BACS"">JdGmuUmb</p>","","","","","","","","",""
"html-keyboard-response","195","328804","0.0-12.0-0.25","6092e2aac56871319199b6a5","650c16f0f2faf8d7a0d14c09","651c1bff6f385036f4234c87","null","null","<p style=""font-size: 60px; font-family: BACS"">DCmhABb</p>","","","","","","","","",""
"html-keyboard-response","196","329806","0.0-12.0-0.26","6092e2aac56871319199b6a5","650c16f0f2faf8d7a0d14c09","651c1bff6f385036f4234c87","null","null","<p style=""font-size: 60px; font-family: BACS"">JuamlLUOk</p>","","","","","","","","",""
"html-keyboard-response","197","330822","0.0-12.0-0.27","6092e2aac56871319199b6a5","650c16f0f2faf8d7a0d14c09","651c1bff6f385036f4234c87","null","null","<p style=""font-size: 60px; font-family: BACS"">TklDdBC</p>","","","","","","","","",""
"html-keyboard-response","198","331823","0.0-12.0-0.28","6092e2aac56871319199b6a5","650c16f0f2faf8d7a0d14c09","651c1bff6f385036f4234c87","null","null","<p style=""font-size: 60px; font-family: BACS"">OkGYLUOk</p>","","","","","","","","",""
"html-keyboard-response","199","332839","0.0-12.0-0.29","6092e2aac56871319199b6a5","650c16f0f2faf8d7a0d14c09","651c1bff6f385036f4234c87","null","null","<p style=""font-size: 60px; font-family: BACS"">hBmMCdBC</p>","","","","","","","","",""
"html-keyboard-response","200","333841","0.0-12.0-0.30","6092e2aac56871319199b6a5","650c16f0f2faf8d7a0d14c09","651c1bff6f385036f4234c87","null","null","<p style=""font-size: 60px; font-family: BACS"">TklDKEdl</p>","","","","","","","","",""
"html-keyboard-response","201","334856","0.0-12.0-0.31","6092e2aac56871319199b6a5","650c16f0f2faf8d7a0d14c09","651c1bff6f385036f4234c87","null","null","<p style=""font-size: 60px; font-family: BACS"">JvaAuUmb</p>","","","","","","","","",""
"html-keyboard-response","202","335858","0.0-12.0-0.32","6092e2aac56871319199b6a5","650c16f0f2faf8d7a0d14c09","651c1bff6f385036f4234c87","null","null","<p style=""font-size: 60px; font-family: BACS"">JdGmGUa</p>","","","","","","","","",""
"html-keyboard-response","203","336860","0.0-12.0-0.33","6092e2aac56871319199b6a5","650c16f0f2faf8d7a0d14c09","651c1bff6f385036f4234c87","null","null","<p style=""font-size: 60px; font-family: BACS"">LcNUJuUmb</p>","","","","","","","","",""
"html-keyboard-response","204","337874","0.0-12.0-0.34","6092e2aac56871319199b6a5","650c16f0f2faf8d7a0d14c09","651c1bff6f385036f4234c87","null","null","<p style=""font-size: 60px; font-family: BACS"">bcORABb</p>","","","","","","","","",""
"html-keyboard-response","205","338876","0.0-12.0-0.35","6092e2aac56871319199b6a5","650c16f0f2faf8d7a0d14c09","651c1bff6f385036f4234c87","null","null","<p style=""font-size: 60px; font-family: BACS"">JuamluUmb</p>","","","","","","","","",""
"html-keyboard-response","206","339877","0.0-12.0-0.36","6092e2aac56871319199b6a5","650c16f0f2faf8d7a0d14c09","651c1bff6f385036f4234c87","null","null","<p style=""font-size: 60px; font-family: BACS"">bcORKEdl</p>","","","","","","","","",""
"html-keyboard-response","207","340893","0.0-12.0-0.37","6092e2aac56871319199b6a5","650c16f0f2faf8d7a0d14c09","651c1bff6f385036f4234c87","null","null","<p style=""font-size: 60px; font-family: BACS"">JvaArAm</p>","","","","","","","","",""
"html-keyboard-response","208","341898","0.0-12.0-0.38","6092e2aac56871319199b6a5","650c16f0f2faf8d7a0d14c09","651c1bff6f385036f4234c87","null","null","<p style=""font-size: 60px; font-family: BACS"">bcORdRA</p>","","","","","","","","",""
"html-keyboard-response","209","342911","0.0-12.0-0.39","6092e2aac56871319199b6a5","650c16f0f2faf8d7a0d14c09","651c1bff6f385036f4234c87","null","null","<p style=""font-size: 60px; font-family: BACS"">RdPtDABb</p>","","","","","","","","",""
"html-keyboard-response","210","343913","0.0-12.0-0.40","6092e2aac56871319199b6a5","650c16f0f2faf8d7a0d14c09","651c1bff6f385036f4234c87","null","null","<p style=""font-size: 60px; font-family: BACS"">htmhCKEdl</p>","","","","","","","","",""
"html-keyboard-response","211","344929","0.0-12.0-0.41","6092e2aac56871319199b6a5","650c16f0f2faf8d7a0d14c09","651c1bff6f385036f4234c87","null","null","<p style=""font-size: 60px; font-family: BACS"">DCmhYDTk</p>","","","","","","","","",""
"html-keyboard-response","212","345945","0.0-12.0-0.42","6092e2aac56871319199b6a5","650c16f0f2faf8d7a0d14c09","651c1bff6f385036f4234c87","null","null","<p style=""font-size: 60px; font-family: BACS"">OkGYGUa</p>","","","","","","","","",""
"html-keyboard-response","213","346947","0.0-12.0-0.43","6092e2aac56871319199b6a5","650c16f0f2faf8d7a0d14c09","651c1bff6f385036f4234c87","null","null","<p style=""font-size: 60px; font-family: BACS"">OmtlDABb</p>","","","","","","","","",""
"html-keyboard-response","214","347963","0.0-12.0-0.44","6092e2aac56871319199b6a5","650c16f0f2faf8d7a0d14c09","651c1bff6f385036f4234c87","null","null","<p style=""font-size: 60px; font-family: BACS"">htmhCYDTk</p>","","","","","","","","",""
"html-keyboard-response","215","348964","0.0-12.0-0.45","6092e2aac56871319199b6a5","650c16f0f2faf8d7a0d14c09","651c1bff6f385036f4234c87","null","null","<p style=""font-size: 60px; font-family: BACS"">LGkArAm</p>","","","","","","","","",""
"html-keyboard-response","216","349971","0.0-12.0-0.46","6092e2aac56871319199b6a5","650c16f0f2faf8d7a0d14c09","651c1bff6f385036f4234c87","null","null","<p style=""font-size: 60px; font-family: BACS"">LcNUJLUOk</p>","","","","","","","","",""
"html-keyboard-response","217","350980","0.0-12.0-0.47","6092e2aac56871319199b6a5","650c16f0f2faf8d7a0d14c09","651c1bff6f385036f4234c87","null","null","<p style=""font-size: 60px; font-family: BACS"">OJGQGUa</p>","","","","","","","","",""
"html-keyboard-response","218","351983","0.0-12.0-0.48","6092e2aac56871319199b6a5","650c16f0f2faf8d7a0d14c09","651c1bff6f385036f4234c87","null","null","<p style=""font-size: 60px; font-family: BACS"">lTmOKEdl</p>","","","","","","","","",""
"html-keyboard-response","219","353000","0.0-12.0-0.49","6092e2aac56871319199b6a5","650c16f0f2faf8d7a0d14c09","651c1bff6f385036f4234c87","null","null","<p style=""font-size: 60px; font-family: BACS"">JdGmcrdY</p>","","","","","","","","",""
"html-keyboard-response","220","354015","0.0-12.0-0.50","6092e2aac56871319199b6a5","650c16f0f2faf8d7a0d14c09","651c1bff6f385036f4234c87","null","null","<p style=""font-size: 60px; font-family: BACS"">ZkGmYLUOk</p>","","","","","","","","",""
"html-keyboard-response","221","355016","0.0-12.0-0.51","6092e2aac56871319199b6a5","650c16f0f2faf8d7a0d14c09","651c1bff6f385036f4234c87","null","null","<p style=""font-size: 60px; font-family: BACS"">lTmOYDTk</p>","","","","","","","","",""
"html-keyboard-response","222","356033","0.0-12.0-0.52","6092e2aac56871319199b6a5","650c16f0f2faf8d7a0d14c09","651c1bff6f385036f4234c87","null","null","<p style=""font-size: 60px; font-family: BACS"">hBmMCABb</p>","","","","","","","","",""
"html-keyboard-response","223","357035","0.0-12.0-0.53","6092e2aac56871319199b6a5","650c16f0f2faf8d7a0d14c09","651c1bff6f385036f4234c87","null","null","<p style=""font-size: 60px; font-family: BACS"">KTDTBdRA</p>","","","","","","","","",""
"html-keyboard-response","224","358050","0.0-12.0-0.54","6092e2aac56871319199b6a5","650c16f0f2faf8d7a0d14c09","651c1bff6f385036f4234c87","null","null","<p style=""font-size: 60px; font-family: BACS"">OkGYcrdY</p>","","","","","","","","",""
"html-keyboard-response","225","359053","0.0-12.0-0.55","6092e2aac56871319199b6a5","650c16f0f2faf8d7a0d14c09","651c1bff6f385036f4234c87","null","null","<p style=""font-size: 60px; font-family: BACS"">lTmOdRA</p>","","","","","","","","",""
"html-keyboard-response","226","360068","0.0-12.0-0.56","6092e2aac56871319199b6a5","650c16f0f2faf8d7a0d14c09","651c1bff6f385036f4234c87","null","null","<p style=""font-size: 60px; font-family: BACS"">RlAKcYDTk</p>","","","","","","","","",""
"html-keyboard-response","227","361085","0.0-12.0-0.57","6092e2aac56871319199b6a5","650c16f0f2faf8d7a0d14c09","651c1bff6f385036f4234c87","null","null","<p style=""font-size: 60px; font-family: BACS"">UdumduUmb</p>","","","","","","","","",""
"html-keyboard-response","228","362100","0.0-12.0-0.58","6092e2aac56871319199b6a5","650c16f0f2faf8d7a0d14c09","651c1bff6f385036f4234c87","null","null","<p style=""font-size: 60px; font-family: BACS"">KTDTBKEdl</p>","","","","","","","","",""
"html-keyboard-response","229","363107","0.0-12.0-0.59","6092e2aac56871319199b6a5","650c16f0f2faf8d7a0d14c09","651c1bff6f385036f4234c87","null","null","<p style=""font-size: 60px; font-family: BACS"">RlAKcdBC</p>","","","","","","","","",""
"html-keyboard-response","230","364108","0.0-12.0-0.60","6092e2aac56871319199b6a5","650c16f0f2faf8d7a0d14c09","651c1bff6f385036f4234c87","null","null","<p style=""font-size: 60px; font-family: BACS"">NvYJrAm</p>","","","","","","","","",""
"html-keyboard-response","231","365124","0.0-12.0-0.61","6092e2aac56871319199b6a5","650c16f0f2faf8d7a0d14c09","651c1bff6f385036f4234c87","null","null","<p style=""font-size: 60px; font-family: BACS"">hBmMCYDTk</p>","","","","","","","","",""
"html-keyboard-response","232","366140","0.0-12.0-0.62","6092e2aac56871319199b6a5","650c16f0f2faf8d7a0d14c09","651c1bff6f385036f4234c87","null","null","<p style=""font-size: 60px; font-family: BACS"">RdPtDdRA</p>","","","","","","","","",""
"html-keyboard-response","233","367141","0.0-12.0-0.63","6092e2aac56871319199b6a5","650c16f0f2faf8d7a0d14c09","651c1bff6f385036f4234c87","null","null","<p style=""font-size: 60px; font-family: BACS"">UdumdrAm</p>","","","","","","","","",""
"html-keyboard-response","234","368160","0.0-12.0-0.64","6092e2aac56871319199b6a5","650c16f0f2faf8d7a0d14c09","651c1bff6f385036f4234c87","null","null","<p style=""font-size: 60px; font-family: BACS"">htmhCABb</p>","","","","","","","","",""
"html-keyboard-response","235","369176","0.0-12.0-0.65","6092e2aac56871319199b6a5","650c16f0f2faf8d7a0d14c09","651c1bff6f385036f4234c87","null","null","<p style=""font-size: 60px; font-family: BACS"">LcNUJGUa</p>","","","","","","","","",""
"html-keyboard-response","236","370178","0.0-12.0-0.66","6092e2aac56871319199b6a5","650c16f0f2faf8d7a0d14c09","651c1bff6f385036f4234c87","null","null","<p style=""font-size: 60px; font-family: BACS"">OmtlDdBC</p>","","","","","","","","",""
"html-keyboard-response","237","371184","0.0-12.0-0.67","6092e2aac56871319199b6a5","650c16f0f2faf8d7a0d14c09","651c1bff6f385036f4234c87","null","null","<p style=""font-size: 60px; font-family: BACS"">RdPtDKEdl</p>","","","","","","","","",""
"html-keyboard-response","238","372195","0.0-12.0-0.68","6092e2aac56871319199b6a5","650c16f0f2faf8d7a0d14c09","651c1bff6f385036f4234c87","null","null","<p style=""font-size: 60px; font-family: BACS"">KTDTBdBC</p>","","","","","","","","",""
"html-keyboard-response","239","373212","0.0-12.0-0.69","6092e2aac56871319199b6a5","650c16f0f2faf8d7a0d14c09","651c1bff6f385036f4234c87","null","null","<p style=""font-size: 60px; font-family: BACS"">TklDdRA</p>","","","","","","","","",""
"html-keyboard-response","240","374228","0.0-12.0-0.70","6092e2aac56871319199b6a5","650c16f0f2faf8d7a0d14c09","651c1bff6f385036f4234c87","null","null","<p style=""font-size: 60px; font-family: BACS"">OmtlDYDTk</p>","","","","","","","","",""
"html-keyboard-response","241","375229","0.0-12.0-0.71","6092e2aac56871319199b6a5","650c16f0f2faf8d7a0d14c09","651c1bff6f385036f4234c87","null","null","<p style=""font-size: 60px; font-family: BACS"">bcORdBC</p>","","","","","","","","",""
"html-keyboard-response","242","376246","0.0-12.0-0.72","6092e2aac56871319199b6a5","650c16f0f2faf8d7a0d14c09","651c1bff6f385036f4234c87","null","null","<p style=""font-size: 60px; font-family: BACS"">OJGQLUOk</p>","","","","","","","","",""
"html-keyboard-response","243","377263","0.0-12.0-0.73","6092e2aac56871319199b6a5","650c16f0f2faf8d7a0d14c09","651c1bff6f385036f4234c87","null","null","<p style=""font-size: 60px; font-family: BACS"">NvYJcrdY</p>","","","","","","","","",""
"html-keyboard-response","244","378279","0.0-12.0-0.74","6092e2aac56871319199b6a5","650c16f0f2faf8d7a0d14c09","651c1bff6f385036f4234c87","null","null","<p style=""font-size: 60px; font-family: BACS"">lTmOdBC</p>","","","","","","","","",""
"html-keyboard-response","245","379281","0.0-12.0-0.75","6092e2aac56871319199b6a5","650c16f0f2faf8d7a0d14c09","651c1bff6f385036f4234c87","null","null","<p style=""font-size: 60px; font-family: BACS"">LcNUJrAm</p>","","","","","","","","",""
"html-keyboard-response","246","380297","0.0-12.0-0.76","6092e2aac56871319199b6a5","650c16f0f2faf8d7a0d14c09","651c1bff6f385036f4234c87","null","null","<p style=""font-size: 60px; font-family: BACS"">UdumdLUOk</p>","","","","","","","","",""
"html-keyboard-response","247","381302","0.0-12.0-0.77","6092e2aac56871319199b6a5","650c16f0f2faf8d7a0d14c09","651c1bff6f385036f4234c87","null","null","<p style=""font-size: 60px; font-family: BACS"">LGkAcrdY</p>","","","","","","","","",""
"html-keyboard-response","248","382314","0.0-12.0-0.78","6092e2aac56871319199b6a5","650c16f0f2faf8d7a0d14c09","651c1bff6f385036f4234c87","null","null","<p style=""font-size: 60px; font-family: BACS"">hBmMCdRA</p>","","","","","","","","",""
"html-keyboard-response","249","383319","0.0-12.0-0.79","6092e2aac56871319199b6a5","650c16f0f2faf8d7a0d14c09","651c1bff6f385036f4234c87","null","null","<p style=""font-size: 60px; font-family: BACS"">JuamlcrdY</p>","","","","","","","","",""
"html-keyboard-response","250","399432","0.0-13.0","6092e2aac56871319199b6a5","650c16f0f2faf8d7a0d14c09","651c1bff6f385036f4234c87","16112"," ","<p>Great, you've seen the third block of words. You may now take a short break.</p>
      <p>Press the spacebar when you're ready to continue.</p>","","","","","","","","",""
"html-keyboard-response","251","400440","0.0-14.0-0.0","6092e2aac56871319199b6a5","650c16f0f2faf8d7a0d14c09","651c1bff6f385036f4234c87","null","null","<p style=""font-size: 60px; font-family: BACS"">LGkArAm</p>","","","","","","","","",""
"html-keyboard-response","252","401457","0.0-14.0-0.1","6092e2aac56871319199b6a5","650c16f0f2faf8d7a0d14c09","651c1bff6f385036f4234c87","null","null","<p style=""font-size: 60px; font-family: BACS"">TklDYDTk</p>","","","","","","","","",""
"html-keyboard-response","253","402459","0.0-14.0-0.2","6092e2aac56871319199b6a5","650c16f0f2faf8d7a0d14c09","651c1bff6f385036f4234c87","null","null","<p style=""font-size: 60px; font-family: BACS"">bcORdBC</p>","","","","","","","","",""
"html-keyboard-response","254","403475","0.0-14.0-0.3","6092e2aac56871319199b6a5","650c16f0f2faf8d7a0d14c09","651c1bff6f385036f4234c87","null","null","<p style=""font-size: 60px; font-family: BACS"">hBmMCdRA</p>","","","","","","","","",""
"html-keyboard-response","255","404476","0.0-14.0-0.4","6092e2aac56871319199b6a5","650c16f0f2faf8d7a0d14c09","651c1bff6f385036f4234c87","null","null","<p style=""font-size: 60px; font-family: BACS"">KTDTBABb</p>","","","","","","","","",""
"html-keyboard-response","256","405492","0.0-14.0-0.5","6092e2aac56871319199b6a5","650c16f0f2faf8d7a0d14c09","651c1bff6f385036f4234c87","null","null","<p style=""font-size: 60px; font-family: BACS"">JuamlcrdY</p>","","","","","","","","",""
"html-keyboard-response","257","406510","0.0-14.0-0.6","6092e2aac56871319199b6a5","650c16f0f2faf8d7a0d14c09","651c1bff6f385036f4234c87","null","null","<p style=""font-size: 60px; font-family: BACS"">OJGQGUa</p>","","","","","","","","",""
"html-keyboard-response","258","407525","0.0-14.0-0.7","6092e2aac56871319199b6a5","650c16f0f2faf8d7a0d14c09","651c1bff6f385036f4234c87","null","null","<p style=""font-size: 60px; font-family: BACS"">OmtlDABb</p>","","","","","","","","",""
"html-keyboard-response","259","408528","0.0-14.0-0.8","6092e2aac56871319199b6a5","650c16f0f2faf8d7a0d14c09","651c1bff6f385036f4234c87","null","null","<p style=""font-size: 60px; font-family: BACS"">UdumdrAm</p>","","","","","","","","",""
"html-keyboard-response","260","409543","0.0-14.0-0.9","6092e2aac56871319199b6a5","650c16f0f2faf8d7a0d14c09","651c1bff6f385036f4234c87","null","null","<p style=""font-size: 60px; font-family: BACS"">JdGmcrdY</p>","","","","","","","","",""
"html-keyboard-response","261","410561","0.0-14.0-0.10","6092e2aac56871319199b6a5","650c16f0f2faf8d7a0d14c09","651c1bff6f385036f4234c87","null","null","<p style=""font-size: 60px; font-family: BACS"">JvaALUOk</p>","","","","","","","","",""
"html-keyboard-response","262","411577","0.0-14.0-0.11","6092e2aac56871319199b6a5","650c16f0f2faf8d7a0d14c09","651c1bff6f385036f4234c87","null","null","<p style=""font-size: 60px; font-family: BACS"">LcNUJrAm</p>","","","","","","","","",""
"html-keyboard-response","263","412580","0.0-14.0-0.12","6092e2aac56871319199b6a5","650c16f0f2faf8d7a0d14c09","651c1bff6f385036f4234c87","null","null","<p style=""font-size: 60px; font-family: BACS"">lTmOKEdl</p>","","","","","","","","",""
"html-keyboard-response","264","413596","0.0-14.0-0.13","6092e2aac56871319199b6a5","650c16f0f2faf8d7a0d14c09","651c1bff6f385036f4234c87","null","null","<p style=""font-size: 60px; font-family: BACS"">DCmhdRA</p>","","","","","","","","",""
"html-keyboard-response","265","414613","0.0-14.0-0.14","6092e2aac56871319199b6a5","650c16f0f2faf8d7a0d14c09","651c1bff6f385036f4234c87","null","null","<p style=""font-size: 60px; font-family: BACS"">OmtlDYDTk</p>","","","","","","","","",""
"html-keyboard-response","266","415615","0.0-14.0-0.15","6092e2aac56871319199b6a5","650c16f0f2faf8d7a0d14c09","651c1bff6f385036f4234c87","null","null","<p style=""font-size: 60px; font-family: BACS"">TklDKEdl</p>","","","","","","","","",""
"html-keyboard-response","267","416630","0.0-14.0-0.16","6092e2aac56871319199b6a5","650c16f0f2faf8d7a0d14c09","651c1bff6f385036f4234c87","null","null","<p style=""font-size: 60px; font-family: BACS"">NvYJGUa</p>","","","","","","","","",""
"html-keyboard-response","268","417632","0.0-14.0-0.17","6092e2aac56871319199b6a5","650c16f0f2faf8d7a0d14c09","651c1bff6f385036f4234c87","null","null","<p style=""font-size: 60px; font-family: BACS"">OkGYuUmb</p>","","","","","","","","",""
"html-keyboard-response","269","418649","0.0-14.0-0.18","6092e2aac56871319199b6a5","650c16f0f2faf8d7a0d14c09","651c1bff6f385036f4234c87","null","null","<p style=""font-size: 60px; font-family: BACS"">OJGQLUOk</p>","","","","","","","","",""
"html-keyboard-response","270","419665","0.0-14.0-0.19","6092e2aac56871319199b6a5","650c16f0f2faf8d7a0d14c09","651c1bff6f385036f4234c87","null","null","<p style=""font-size: 60px; font-family: BACS"">bcORKEdl</p>","","","","","","","","",""
"html-keyboard-response","271","420682","0.0-14.0-0.20","6092e2aac56871319199b6a5","650c16f0f2faf8d7a0d14c09","651c1bff6f385036f4234c87","null","null","<p style=""font-size: 60px; font-family: BACS"">OkGYcrdY</p>","","","","","","","","",""
"html-keyboard-response","272","421699","0.0-14.0-0.21","6092e2aac56871319199b6a5","650c16f0f2faf8d7a0d14c09","651c1bff6f385036f4234c87","null","null","<p style=""font-size: 60px; font-family: BACS"">hBmMCABb</p>","","","","","","","","",""
"html-keyboard-response","273","422701","0.0-14.0-0.22","6092e2aac56871319199b6a5","650c16f0f2faf8d7a0d14c09","651c1bff6f385036f4234c87","null","null","<p style=""font-size: 60px; font-family: BACS"">OJGQcrdY</p>","","","","","","","","",""
"html-keyboard-response","274","423717","0.0-14.0-0.23","6092e2aac56871319199b6a5","650c16f0f2faf8d7a0d14c09","651c1bff6f385036f4234c87","null","null","<p style=""font-size: 60px; font-family: BACS"">OkGYGUa</p>","","","","","","","","",""
"html-keyboard-response","275","424734","0.0-14.0-0.24","6092e2aac56871319199b6a5","650c16f0f2faf8d7a0d14c09","651c1bff6f385036f4234c87","null","null","<p style=""font-size: 60px; font-family: BACS"">JdGmrAm</p>","","","","","","","","",""
"html-keyboard-response","276","425751","0.0-14.0-0.25","6092e2aac56871319199b6a5","650c16f0f2faf8d7a0d14c09","651c1bff6f385036f4234c87","null","null","<p style=""font-size: 60px; font-family: BACS"">JuamlGUa</p>","","","","","","","","",""
"html-keyboard-response","277","426753","0.0-14.0-0.26","6092e2aac56871319199b6a5","650c16f0f2faf8d7a0d14c09","651c1bff6f385036f4234c87","null","null","<p style=""font-size: 60px; font-family: BACS"">LcNUJLUOk</p>","","","","","","","","",""
"html-keyboard-response","278","427768","0.0-14.0-0.27","6092e2aac56871319199b6a5","650c16f0f2faf8d7a0d14c09","651c1bff6f385036f4234c87","null","null","<p style=""font-size: 60px; font-family: BACS"">lTmOYDTk</p>","","","","","","","","",""
"html-keyboard-response","279","428771","0.0-14.0-0.28","6092e2aac56871319199b6a5","650c16f0f2faf8d7a0d14c09","651c1bff6f385036f4234c87","null","null","<p style=""font-size: 60px; font-family: BACS"">htmhCABb</p>","","","","","","","","",""
"html-keyboard-response","280","429787","0.0-14.0-0.29","6092e2aac56871319199b6a5","650c16f0f2faf8d7a0d14c09","651c1bff6f385036f4234c87","null","null","<p style=""font-size: 60px; font-family: BACS"">JdGmuUmb</p>","","","","","","","","",""
"html-keyboard-response","281","430803","0.0-14.0-0.30","6092e2aac56871319199b6a5","650c16f0f2faf8d7a0d14c09","651c1bff6f385036f4234c87","null","null","<p style=""font-size: 60px; font-family: BACS"">RdPtDdRA</p>","","","","","","","","",""
"html-keyboard-response","282","431805","0.0-14.0-0.31","6092e2aac56871319199b6a5","650c16f0f2faf8d7a0d14c09","651c1bff6f385036f4234c87","null","null","<p style=""font-size: 60px; font-family: BACS"">LGkAuUmb</p>","","","","","","","","",""
"html-keyboard-response","283","432807","0.0-14.0-0.32","6092e2aac56871319199b6a5","650c16f0f2faf8d7a0d14c09","651c1bff6f385036f4234c87","null","null","<p style=""font-size: 60px; font-family: BACS"">UdumdLUOk</p>","","","","","","","","",""
"html-keyboard-response","284","433821","0.0-14.0-0.33","6092e2aac56871319199b6a5","650c16f0f2faf8d7a0d14c09","651c1bff6f385036f4234c87","null","null","<p style=""font-size: 60px; font-family: BACS"">LGkAcrdY</p>","","","","","","","","",""
"html-keyboard-response","285","434823","0.0-14.0-0.34","6092e2aac56871319199b6a5","650c16f0f2faf8d7a0d14c09","651c1bff6f385036f4234c87","null","null","<p style=""font-size: 60px; font-family: BACS"">RdPtDABb</p>","","","","","","","","",""
"html-keyboard-response","286","435839","0.0-14.0-0.35","6092e2aac56871319199b6a5","650c16f0f2faf8d7a0d14c09","651c1bff6f385036f4234c87","null","null","<p style=""font-size: 60px; font-family: BACS"">lTmOdRA</p>","","","","","","","","",""
"html-keyboard-response","287","436856","0.0-14.0-0.36","6092e2aac56871319199b6a5","650c16f0f2faf8d7a0d14c09","651c1bff6f385036f4234c87","null","null","<p style=""font-size: 60px; font-family: BACS"">ZkGmYLUOk</p>","","","","","","","","",""
"html-keyboard-response","288","437858","0.0-14.0-0.37","6092e2aac56871319199b6a5","650c16f0f2faf8d7a0d14c09","651c1bff6f385036f4234c87","null","null","<p style=""font-size: 60px; font-family: BACS"">htmhCYDTk</p>","","","","","","","","",""
"html-keyboard-response","289","438874","0.0-14.0-0.38","6092e2aac56871319199b6a5","650c16f0f2faf8d7a0d14c09","651c1bff6f385036f4234c87","null","null","<p style=""font-size: 60px; font-family: BACS"">LcNUJuUmb</p>","","","","","","","","",""
"html-keyboard-response","290","439875","0.0-14.0-0.39","6092e2aac56871319199b6a5","650c16f0f2faf8d7a0d14c09","651c1bff6f385036f4234c87","null","null","<p style=""font-size: 60px; font-family: BACS"">htmhCKEdl</p>","","","","","","","","",""
"html-keyboard-response","291","440892","0.0-14.0-0.40","6092e2aac56871319199b6a5","650c16f0f2faf8d7a0d14c09","651c1bff6f385036f4234c87","null","null","<p style=""font-size: 60px; font-family: BACS"">UdumdGUa</p>","","","","","","","","",""
"html-keyboard-response","292","441894","0.0-14.0-0.41","6092e2aac56871319199b6a5","650c16f0f2faf8d7a0d14c09","651c1bff6f385036f4234c87","null","null","<p style=""font-size: 60px; font-family: BACS"">bcORdRA</p>","","","","","","","","",""
"html-keyboard-response","293","442908","0.0-14.0-0.42","6092e2aac56871319199b6a5","650c16f0f2faf8d7a0d14c09","651c1bff6f385036f4234c87","null","null","<p style=""font-size: 60px; font-family: BACS"">RlAKcYDTk</p>","","","","","","","","",""
"html-keyboard-response","294","443910","0.0-14.0-0.43","6092e2aac56871319199b6a5","650c16f0f2faf8d7a0d14c09","651c1bff6f385036f4234c87","null","null","<p style=""font-size: 60px; font-family: BACS"">LcNUJGUa</p>","","","","","","","","",""
"html-keyboard-response","295","444927","0.0-14.0-0.44","6092e2aac56871319199b6a5","650c16f0f2faf8d7a0d14c09","651c1bff6f385036f4234c87","null","null","<p style=""font-size: 60px; font-family: BACS"">RdPtDYDTk</p>","","","","","","","","",""
"html-keyboard-response","296","445943","0.0-14.0-0.45","6092e2aac56871319199b6a5","650c16f0f2faf8d7a0d14c09","651c1bff6f385036f4234c87","null","null","<p style=""font-size: 60px; font-family: BACS"">TklDdBC</p>","","","","","","","","",""
"html-keyboard-response","297","446945","0.0-14.0-0.46","6092e2aac56871319199b6a5","650c16f0f2faf8d7a0d14c09","651c1bff6f385036f4234c87","null","null","<p style=""font-size: 60px; font-family: BACS"">LGkAGUa</p>","","","","","","","","",""
"html-keyboard-response","298","447961","0.0-14.0-0.47","6092e2aac56871319199b6a5","650c16f0f2faf8d7a0d14c09","651c1bff6f385036f4234c87","null","null","<p style=""font-size: 60px; font-family: BACS"">RlAKcABb</p>","","","","","","","","",""
"html-keyboard-response","299","448963","0.0-14.0-0.48","6092e2aac56871319199b6a5","650c16f0f2faf8d7a0d14c09","651c1bff6f385036f4234c87","null","null","<p style=""font-size: 60px; font-family: BACS"">JvaArAm</p>","","","","","","","","",""
"html-keyboard-response","300","449979","0.0-14.0-0.49","6092e2aac56871319199b6a5","650c16f0f2faf8d7a0d14c09","651c1bff6f385036f4234c87","null","null","<p style=""font-size: 60px; font-family: BACS"">hBmMCdBC</p>","","","","","","","","",""
"html-keyboard-response","301","450981","0.0-14.0-0.50","6092e2aac56871319199b6a5","650c16f0f2faf8d7a0d14c09","651c1bff6f385036f4234c87","null","null","<p style=""font-size: 60px; font-family: BACS"">UdumduUmb</p>","","","","","","","","",""
"html-keyboard-response","302","451995","0.0-14.0-0.51","6092e2aac56871319199b6a5","650c16f0f2faf8d7a0d14c09","651c1bff6f385036f4234c87","null","null","<p style=""font-size: 60px; font-family: BACS"">htmhCdBC</p>","","","","","","","","",""
"html-keyboard-response","303","452998","0.0-14.0-0.52","6092e2aac56871319199b6a5","650c16f0f2faf8d7a0d14c09","651c1bff6f385036f4234c87","null","null","<p style=""font-size: 60px; font-family: BACS"">ZkGmYuUmb</p>","","","","","","","","",""
"html-keyboard-response","304","454014","0.0-14.0-0.53","6092e2aac56871319199b6a5","650c16f0f2faf8d7a0d14c09","651c1bff6f385036f4234c87","null","null","<p style=""font-size: 60px; font-family: BACS"">bcORABb</p>","","","","","","","","",""
"html-keyboard-response","305","455017","0.0-14.0-0.54","6092e2aac56871319199b6a5","650c16f0f2faf8d7a0d14c09","651c1bff6f385036f4234c87","null","null","<p style=""font-size: 60px; font-family: BACS"">KTDTBKEdl</p>","","","","","","","","",""
"html-keyboard-response","306","456031","0.0-14.0-0.55","6092e2aac56871319199b6a5","650c16f0f2faf8d7a0d14c09","651c1bff6f385036f4234c87","null","null","<p style=""font-size: 60px; font-family: BACS"">JvaAuUmb</p>","","","","","","","","",""
"html-keyboard-response","307","457032","0.0-14.0-0.56","6092e2aac56871319199b6a5","650c16f0f2faf8d7a0d14c09","651c1bff6f385036f4234c87","null","null","<p style=""font-size: 60px; font-family: BACS"">JuamlLUOk</p>","","","","","","","","",""
"html-keyboard-response","308","458048","0.0-14.0-0.57","6092e2aac56871319199b6a5","650c16f0f2faf8d7a0d14c09","651c1bff6f385036f4234c87","null","null","<p style=""font-size: 60px; font-family: BACS"">JvaAcrdY</p>","","","","","","","","",""
"html-keyboard-response","309","459051","0.0-14.0-0.58","6092e2aac56871319199b6a5","650c16f0f2faf8d7a0d14c09","651c1bff6f385036f4234c87","null","null","<p style=""font-size: 60px; font-family: BACS"">TklDdRA</p>","","","","","","","","",""
"html-keyboard-response","310","460058","0.0-14.0-0.59","6092e2aac56871319199b6a5","650c16f0f2faf8d7a0d14c09","651c1bff6f385036f4234c87","null","null","<p style=""font-size: 60px; font-family: BACS"">ZkGmYcrdY</p>","","","","","","","","",""
"html-keyboard-response","311","461067","0.0-14.0-0.60","6092e2aac56871319199b6a5","650c16f0f2faf8d7a0d14c09","651c1bff6f385036f4234c87","null","null","<p style=""font-size: 60px; font-family: BACS"">lTmOdBC</p>","","","","","","","","",""
"html-keyboard-response","312","462069","0.0-14.0-0.61","6092e2aac56871319199b6a5","650c16f0f2faf8d7a0d14c09","651c1bff6f385036f4234c87","null","null","<p style=""font-size: 60px; font-family: BACS"">KTDTBdRA</p>","","","","","","","","",""
"html-keyboard-response","313","463085","0.0-14.0-0.62","6092e2aac56871319199b6a5","650c16f0f2faf8d7a0d14c09","651c1bff6f385036f4234c87","null","null","<p style=""font-size: 60px; font-family: BACS"">DCmhABb</p>","","","","","","","","",""
"html-keyboard-response","314","464087","0.0-14.0-0.63","6092e2aac56871319199b6a5","650c16f0f2faf8d7a0d14c09","651c1bff6f385036f4234c87","null","null","<p style=""font-size: 60px; font-family: BACS"">NvYJrAm</p>","","","","","","","","",""
"html-keyboard-response","315","465101","0.0-14.0-0.64","6092e2aac56871319199b6a5","650c16f0f2faf8d7a0d14c09","651c1bff6f385036f4234c87","null","null","<p style=""font-size: 60px; font-family: BACS"">RdPtDKEdl</p>","","","","","","","","",""
"html-keyboard-response","316","466104","0.0-14.0-0.65","6092e2aac56871319199b6a5","650c16f0f2faf8d7a0d14c09","651c1bff6f385036f4234c87","null","null","<p style=""font-size: 60px; font-family: BACS"">RlAKcdBC</p>","","","","","","","","",""
"html-keyboard-response","317","467105","0.0-14.0-0.66","6092e2aac56871319199b6a5","650c16f0f2faf8d7a0d14c09","651c1bff6f385036f4234c87","null","null","<p style=""font-size: 60px; font-family: BACS"">ZkGmYrAm</p>","","","","","","","","",""
"html-keyboard-response","318","468120","0.0-14.0-0.67","6092e2aac56871319199b6a5","650c16f0f2faf8d7a0d14c09","651c1bff6f385036f4234c87","null","null","<p style=""font-size: 60px; font-family: BACS"">NvYJLUOk</p>","","","","","","","","",""
"html-keyboard-response","319","469137","0.0-14.0-0.68","6092e2aac56871319199b6a5","650c16f0f2faf8d7a0d14c09","651c1bff6f385036f4234c87","null","null","<p style=""font-size: 60px; font-family: BACS"">JdGmGUa</p>","","","","","","","","",""
"html-keyboard-response","320","470154","0.0-14.0-0.69","6092e2aac56871319199b6a5","650c16f0f2faf8d7a0d14c09","651c1bff6f385036f4234c87","null","null","<p style=""font-size: 60px; font-family: BACS"">OmtlDKEdl</p>","","","","","","","","",""
"html-keyboard-response","321","471156","0.0-14.0-0.70","6092e2aac56871319199b6a5","650c16f0f2faf8d7a0d14c09","651c1bff6f385036f4234c87","null","null","<p style=""font-size: 60px; font-family: BACS"">KTDTBdBC</p>","","","","","","","","",""
"html-keyboard-response","322","472172","0.0-14.0-0.71","6092e2aac56871319199b6a5","650c16f0f2faf8d7a0d14c09","651c1bff6f385036f4234c87","null","null","<p style=""font-size: 60px; font-family: BACS"">hBmMCYDTk</p>","","","","","","","","",""
"html-keyboard-response","323","473189","0.0-14.0-0.72","6092e2aac56871319199b6a5","650c16f0f2faf8d7a0d14c09","651c1bff6f385036f4234c87","null","null","<p style=""font-size: 60px; font-family: BACS"">OkGYLUOk</p>","","","","","","","","",""
"html-keyboard-response","324","474207","0.0-14.0-0.73","6092e2aac56871319199b6a5","650c16f0f2faf8d7a0d14c09","651c1bff6f385036f4234c87","null","null","<p style=""font-size: 60px; font-family: BACS"">NvYJcrdY</p>","","","","","","","","",""
"html-keyboard-response","325","475208","0.0-14.0-0.74","6092e2aac56871319199b6a5","650c16f0f2faf8d7a0d14c09","651c1bff6f385036f4234c87","null","null","<p style=""font-size: 60px; font-family: BACS"">RlAKcdRA</p>","","","","","","","","",""
"html-keyboard-response","326","476224","0.0-14.0-0.75","6092e2aac56871319199b6a5","650c16f0f2faf8d7a0d14c09","651c1bff6f385036f4234c87","null","null","<p style=""font-size: 60px; font-family: BACS"">JuamluUmb</p>","","","","","","","","",""
"html-keyboard-response","327","477241","0.0-14.0-0.76","6092e2aac56871319199b6a5","650c16f0f2faf8d7a0d14c09","651c1bff6f385036f4234c87","null","null","<p style=""font-size: 60px; font-family: BACS"">OmtlDdBC</p>","","","","","","","","",""
"html-keyboard-response","328","478243","0.0-14.0-0.77","6092e2aac56871319199b6a5","650c16f0f2faf8d7a0d14c09","651c1bff6f385036f4234c87","null","null","<p style=""font-size: 60px; font-family: BACS"">DCmhKEdl</p>","","","","","","","","",""
"html-keyboard-response","329","479259","0.0-14.0-0.78","6092e2aac56871319199b6a5","650c16f0f2faf8d7a0d14c09","651c1bff6f385036f4234c87","null","null","<p style=""font-size: 60px; font-family: BACS"">OJGQrAm</p>","","","","","","","","",""
"html-keyboard-response","330","480275","0.0-14.0-0.79","6092e2aac56871319199b6a5","650c16f0f2faf8d7a0d14c09","651c1bff6f385036f4234c87","null","null","<p style=""font-size: 60px; font-family: BACS"">DCmhYDTk</p>","","","","","","","","",""
"html-keyboard-response","331","487239","0.0-15.0","6092e2aac56871319199b6a5","650c16f0f2faf8d7a0d14c09","651c1bff6f385036f4234c87","6964"," ","<p>Great, you've seen the fourth block of words. You may now take a short break.</p>
      <p>Press the spacebar when you're ready to continue.</p>","","","","","","","","",""
"html-keyboard-response","332","488244","0.0-16.0-0.0","6092e2aac56871319199b6a5","650c16f0f2faf8d7a0d14c09","651c1bff6f385036f4234c87","null","null","<p style=""font-size: 60px; font-family: BACS"">RlAKcYDTk</p>","","","","","","","","",""
"html-keyboard-response","333","489251","0.0-16.0-0.1","6092e2aac56871319199b6a5","650c16f0f2faf8d7a0d14c09","651c1bff6f385036f4234c87","null","null","<p style=""font-size: 60px; font-family: BACS"">RlAKcYDTk</p>","","","","","","","","",""
"html-keyboard-response","334","490253","0.0-16.0-0.2","6092e2aac56871319199b6a5","650c16f0f2faf8d7a0d14c09","651c1bff6f385036f4234c87","null","null","<p style=""font-size: 60px; font-family: BACS"">RlAKcYDTk</p>","","","","","","","","",""
"html-keyboard-response","335","491264","0.0-16.0-0.3","6092e2aac56871319199b6a5","650c16f0f2faf8d7a0d14c09","651c1bff6f385036f4234c87","null","null","<p style=""font-size: 60px; font-family: BACS"">RlAKcYDTk</p>","","","","","","","","",""
"html-keyboard-response","336","492280","0.0-16.0-0.4","6092e2aac56871319199b6a5","650c16f0f2faf8d7a0d14c09","651c1bff6f385036f4234c87","null","null","<p style=""font-size: 60px; font-family: BACS"">RlAKcYDTk</p>","","","","","","","","",""
"html-keyboard-response","337","493282","0.0-16.0-0.5","6092e2aac56871319199b6a5","650c16f0f2faf8d7a0d14c09","651c1bff6f385036f4234c87","null","null","<p style=""font-size: 60px; font-family: BACS"">RlAKcYDTk</p>","","","","","","","","",""
"html-keyboard-response","338","494298","0.0-16.0-0.6","6092e2aac56871319199b6a5","650c16f0f2faf8d7a0d14c09","651c1bff6f385036f4234c87","null","null","<p style=""font-size: 60px; font-family: BACS"">RlAKcYDTk</p>","","","","","","","","",""
"html-keyboard-response","339","495300","0.0-16.0-0.7","6092e2aac56871319199b6a5","650c16f0f2faf8d7a0d14c09","651c1bff6f385036f4234c87","null","null","<p style=""font-size: 60px; font-family: BACS"">RlAKcYDTk</p>","","","","","","","","",""
"html-keyboard-response","340","496313","0.0-16.0-0.8","6092e2aac56871319199b6a5","650c16f0f2faf8d7a0d14c09","651c1bff6f385036f4234c87","null","null","<p style=""font-size: 60px; font-family: BACS"">RlAKcYDTk</p>","","","","","","","","",""
"html-keyboard-response","341","497317","0.0-16.0-0.9","6092e2aac56871319199b6a5","650c16f0f2faf8d7a0d14c09","651c1bff6f385036f4234c87","null","null","<p style=""font-size: 60px; font-family: BACS"">RlAKcYDTk</p>","","","","","","","","",""
"html-keyboard-response","342","498333","0.0-16.0-0.10","6092e2aac56871319199b6a5","650c16f0f2faf8d7a0d14c09","651c1bff6f385036f4234c87","null","null","<p style=""font-size: 60px; font-family: BACS"">RlAKcYDTk</p>","","","","","","","","",""
"html-keyboard-response","343","499349","0.0-16.0-0.11","6092e2aac56871319199b6a5","650c16f0f2faf8d7a0d14c09","651c1bff6f385036f4234c87","null","null","<p style=""font-size: 60px; font-family: BACS"">RlAKcYDTk</p>","","","","","","","","",""
"html-keyboard-response","344","500367","0.0-16.0-0.12","6092e2aac56871319199b6a5","650c16f0f2faf8d7a0d14c09","651c1bff6f385036f4234c87","null","null","<p style=""font-size: 60px; font-family: BACS"">RlAKcYDTk</p>","","","","","","","","",""
"html-keyboard-response","345","501369","0.0-16.0-0.13","6092e2aac56871319199b6a5","650c16f0f2faf8d7a0d14c09","651c1bff6f385036f4234c87","null","null","<p style=""font-size: 60px; font-family: BACS"">RlAKcYDTk</p>","","","","","","","","",""
"html-keyboard-response","346","502385","0.0-16.0-0.14","6092e2aac56871319199b6a5","650c16f0f2faf8d7a0d14c09","651c1bff6f385036f4234c87","null","null","<p style=""font-size: 60px; font-family: BACS"">RlAKcYDTk</p>","","","","","","","","",""
"html-keyboard-response","347","503402","0.0-16.0-0.15","6092e2aac56871319199b6a5","650c16f0f2faf8d7a0d14c09","651c1bff6f385036f4234c87","null","null","<p style=""font-size: 60px; font-family: BACS"">RlAKcYDTk</p>","","","","","","","","",""
"html-keyboard-response","348","504404","0.0-16.0-0.16","6092e2aac56871319199b6a5","650c16f0f2faf8d7a0d14c09","651c1bff6f385036f4234c87","null","null","<p style=""font-size: 60px; font-family: BACS"">RlAKcYDTk</p>","","","","","","","","",""
"html-keyboard-response","349","505420","0.0-16.0-0.17","6092e2aac56871319199b6a5","650c16f0f2faf8d7a0d14c09","651c1bff6f385036f4234c87","null","null","<p style=""font-size: 60px; font-family: BACS"">RlAKcYDTk</p>","","","","","","","","",""
"html-keyboard-response","350","506436","0.0-16.0-0.18","6092e2aac56871319199b6a5","650c16f0f2faf8d7a0d14c09","651c1bff6f385036f4234c87","null","null","<p style=""font-size: 60px; font-family: BACS"">RlAKcYDTk</p>","","","","","","","","",""
"html-keyboard-response","351","507438","0.0-16.0-0.19","6092e2aac56871319199b6a5","650c16f0f2faf8d7a0d14c09","651c1bff6f385036f4234c87","null","null","<p style=""font-size: 60px; font-family: BACS"">RlAKcYDTk</p>","","","","","","","","",""
"html-keyboard-response","352","508444","0.0-16.0-0.20","6092e2aac56871319199b6a5","650c16f0f2faf8d7a0d14c09","651c1bff6f385036f4234c87","null","null","<p style=""font-size: 60px; font-family: BACS"">RlAKcYDTk</p>","","","","","","","","",""
"html-keyboard-response","353","509455","0.0-16.0-0.21","6092e2aac56871319199b6a5","650c16f0f2faf8d7a0d14c09","651c1bff6f385036f4234c87","null","null","<p style=""font-size: 60px; font-family: BACS"">RlAKcYDTk</p>","","","","","","","","",""
"html-keyboard-response","354","510471","0.0-16.0-0.22","6092e2aac56871319199b6a5","650c16f0f2faf8d7a0d14c09","651c1bff6f385036f4234c87","null","null","<p style=""font-size: 60px; font-family: BACS"">RlAKcYDTk</p>","","","","","","","","",""
"html-keyboard-response","355","511473","0.0-16.0-0.23","6092e2aac56871319199b6a5","650c16f0f2faf8d7a0d14c09","651c1bff6f385036f4234c87","null","null","<p style=""font-size: 60px; font-family: BACS"">RlAKcYDTk</p>","","","","","","","","",""
"html-keyboard-response","356","512489","0.0-16.0-0.24","6092e2aac56871319199b6a5","650c16f0f2faf8d7a0d14c09","651c1bff6f385036f4234c87","null","null","<p style=""font-size: 60px; font-family: BACS"">RlAKcYDTk</p>","","","","","","","","",""
"html-keyboard-response","357","513491","0.0-16.0-0.25","6092e2aac56871319199b6a5","650c16f0f2faf8d7a0d14c09","651c1bff6f385036f4234c87","null","null","<p style=""font-size: 60px; font-family: BACS"">RlAKcYDTk</p>","","","","","","","","",""
"html-keyboard-response","358","514506","0.0-16.0-0.26","6092e2aac56871319199b6a5","650c16f0f2faf8d7a0d14c09","651c1bff6f385036f4234c87","null","null","<p style=""font-size: 60px; font-family: BACS"">RlAKcYDTk</p>","","","","","","","","",""
"html-keyboard-response","359","515508","0.0-16.0-0.27","6092e2aac56871319199b6a5","650c16f0f2faf8d7a0d14c09","651c1bff6f385036f4234c87","null","null","<p style=""font-size: 60px; font-family: BACS"">RlAKcYDTk</p>","","","","","","","","",""
"html-keyboard-response","360","516525","0.0-16.0-0.28","6092e2aac56871319199b6a5","650c16f0f2faf8d7a0d14c09","651c1bff6f385036f4234c87","null","null","<p style=""font-size: 60px; font-family: BACS"">RlAKcYDTk</p>","","","","","","","","",""
"html-keyboard-response","361","517540","0.0-16.0-0.29","6092e2aac56871319199b6a5","650c16f0f2faf8d7a0d14c09","651c1bff6f385036f4234c87","null","null","<p style=""font-size: 60px; font-family: BACS"">RlAKcYDTk</p>","","","","","","","","",""
"html-keyboard-response","362","518549","0.0-16.0-0.30","6092e2aac56871319199b6a5","650c16f0f2faf8d7a0d14c09","651c1bff6f385036f4234c87","null","null","<p style=""font-size: 60px; font-family: BACS"">RlAKcYDTk</p>","","","","","","","","",""
"html-keyboard-response","363","519559","0.0-16.0-0.31","6092e2aac56871319199b6a5","650c16f0f2faf8d7a0d14c09","651c1bff6f385036f4234c87","null","null","<p style=""font-size: 60px; font-family: BACS"">RlAKcYDTk</p>","","","","","","","","",""
"html-keyboard-response","364","520566","0.0-16.0-0.32","6092e2aac56871319199b6a5","650c16f0f2faf8d7a0d14c09","651c1bff6f385036f4234c87","null","null","<p style=""font-size: 60px; font-family: BACS"">RlAKcYDTk</p>","","","","","","","","",""
"html-keyboard-response","365","521578","0.0-16.0-0.33","6092e2aac56871319199b6a5","650c16f0f2faf8d7a0d14c09","651c1bff6f385036f4234c87","null","null","<p style=""font-size: 60px; font-family: BACS"">RlAKcYDTk</p>","","","","","","","","",""
"html-keyboard-response","366","522586","0.0-16.0-0.34","6092e2aac56871319199b6a5","650c16f0f2faf8d7a0d14c09","651c1bff6f385036f4234c87","null","null","<p style=""font-size: 60px; font-family: BACS"">RlAKcYDTk</p>","","","","","","","","",""
"html-keyboard-response","367","523587","0.0-16.0-0.35","6092e2aac56871319199b6a5","650c16f0f2faf8d7a0d14c09","651c1bff6f385036f4234c87","null","null","<p style=""font-size: 60px; font-family: BACS"">RlAKcYDTk</p>","","","","","","","","",""
"html-keyboard-response","368","524597","0.0-16.0-0.36","6092e2aac56871319199b6a5","650c16f0f2faf8d7a0d14c09","651c1bff6f385036f4234c87","null","null","<p style=""font-size: 60px; font-family: BACS"">RlAKcYDTk</p>","","","","","","","","",""
"html-keyboard-response","369","525617","0.0-16.0-0.37","6092e2aac56871319199b6a5","650c16f0f2faf8d7a0d14c09","651c1bff6f385036f4234c87","null","null","<p style=""font-size: 60px; font-family: BACS"">RlAKcYDTk</p>","","","","","","","","",""
"html-keyboard-response","370","526627","0.0-16.0-0.38","6092e2aac56871319199b6a5","650c16f0f2faf8d7a0d14c09","651c1bff6f385036f4234c87","null","null","<p style=""font-size: 60px; font-family: BACS"">RlAKcYDTk</p>","","","","","","","","",""
"html-keyboard-response","371","527647","0.0-16.0-0.39","6092e2aac56871319199b6a5","650c16f0f2faf8d7a0d14c09","651c1bff6f385036f4234c87","null","null","<p style=""font-size: 60px; font-family: BACS"">RlAKcYDTk</p>","","","","","","","","",""
"html-keyboard-response","372","528668","0.0-16.0-0.40","6092e2aac56871319199b6a5","650c16f0f2faf8d7a0d14c09","651c1bff6f385036f4234c87","null","null","<p style=""font-size: 60px; font-family: BACS"">RlAKcYDTk</p>","","","","","","","","",""
"html-keyboard-response","373","529677","0.0-16.0-0.41","6092e2aac56871319199b6a5","650c16f0f2faf8d7a0d14c09","651c1bff6f385036f4234c87","null","null","<p style=""font-size: 60px; font-family: BACS"">RlAKcYDTk</p>","","","","","","","","",""
"html-keyboard-response","374","530697","0.0-16.0-0.42","6092e2aac56871319199b6a5","650c16f0f2faf8d7a0d14c09","651c1bff6f385036f4234c87","null","null","<p style=""font-size: 60px; font-family: BACS"">RlAKcYDTk</p>","","","","","","","","",""
"html-keyboard-response","375","531717","0.0-16.0-0.43","6092e2aac56871319199b6a5","650c16f0f2faf8d7a0d14c09","651c1bff6f385036f4234c87","null","null","<p style=""font-size: 60px; font-family: BACS"">RlAKcYDTk</p>","","","","","","","","",""
"html-keyboard-response","376","532737","0.0-16.0-0.44","6092e2aac56871319199b6a5","650c16f0f2faf8d7a0d14c09","651c1bff6f385036f4234c87","null","null","<p style=""font-size: 60px; font-family: BACS"">RlAKcYDTk</p>","","","","","","","","",""
"html-keyboard-response","377","533747","0.0-16.0-0.45","6092e2aac56871319199b6a5","650c16f0f2faf8d7a0d14c09","651c1bff6f385036f4234c87","null","null","<p style=""font-size: 60px; font-family: BACS"">RlAKcYDTk</p>","","","","","","","","",""
"html-keyboard-response","378","534767","0.0-16.0-0.46","6092e2aac56871319199b6a5","650c16f0f2faf8d7a0d14c09","651c1bff6f385036f4234c87","null","null","<p style=""font-size: 60px; font-family: BACS"">RlAKcYDTk</p>","","","","","","","","",""
"html-keyboard-response","379","535782","0.0-16.0-0.47","6092e2aac56871319199b6a5","650c16f0f2faf8d7a0d14c09","651c1bff6f385036f4234c87","null","null","<p style=""font-size: 60px; font-family: BACS"">RlAKcYDTk</p>","","","","","","","","",""
"html-keyboard-response","380","536787","0.0-16.0-0.48","6092e2aac56871319199b6a5","650c16f0f2faf8d7a0d14c09","651c1bff6f385036f4234c87","null","null","<p style=""font-size: 60px; font-family: BACS"">RlAKcYDTk</p>","","","","","","","","",""
"html-keyboard-response","381","537807","0.0-16.0-0.49","6092e2aac56871319199b6a5","650c16f0f2faf8d7a0d14c09","651c1bff6f385036f4234c87","null","null","<p style=""font-size: 60px; font-family: BACS"">RlAKcYDTk</p>","","","","","","","","",""
"html-keyboard-response","382","538812","0.0-16.0-0.50","6092e2aac56871319199b6a5","650c16f0f2faf8d7a0d14c09","651c1bff6f385036f4234c87","null","null","<p style=""font-size: 60px; font-family: BACS"">RlAKcYDTk</p>","","","","","","","","",""
"html-keyboard-response","383","539818","0.0-16.0-0.51","6092e2aac56871319199b6a5","650c16f0f2faf8d7a0d14c09","651c1bff6f385036f4234c87","null","null","<p style=""font-size: 60px; font-family: BACS"">RlAKcYDTk</p>","","","","","","","","",""
"html-keyboard-response","384","540825","0.0-16.0-0.52","6092e2aac56871319199b6a5","650c16f0f2faf8d7a0d14c09","651c1bff6f385036f4234c87","null","null","<p style=""font-size: 60px; font-family: BACS"">RlAKcYDTk</p>","","","","","","","","",""
"html-keyboard-response","385","541840","0.0-16.0-0.53","6092e2aac56871319199b6a5","650c16f0f2faf8d7a0d14c09","651c1bff6f385036f4234c87","null","null","<p style=""font-size: 60px; font-family: BACS"">RlAKcYDTk</p>","","","","","","","","",""
"html-keyboard-response","386","542851","0.0-16.0-0.54","6092e2aac56871319199b6a5","650c16f0f2faf8d7a0d14c09","651c1bff6f385036f4234c87","null","null","<p style=""font-size: 60px; font-family: BACS"">RlAKcYDTk</p>","","","","","","","","",""
"html-keyboard-response","387","543855","0.0-16.0-0.55","6092e2aac56871319199b6a5","650c16f0f2faf8d7a0d14c09","651c1bff6f385036f4234c87","null","null","<p style=""font-size: 60px; font-family: BACS"">RlAKcYDTk</p>","","","","","","","","",""
"html-keyboard-response","388","544870","0.0-16.0-0.56","6092e2aac56871319199b6a5","650c16f0f2faf8d7a0d14c09","651c1bff6f385036f4234c87","null","null","<p style=""font-size: 60px; font-family: BACS"">RlAKcYDTk</p>","","","","","","","","",""
"html-keyboard-response","389","545873","0.0-16.0-0.57","6092e2aac56871319199b6a5","650c16f0f2faf8d7a0d14c09","651c1bff6f385036f4234c87","null","null","<p style=""font-size: 60px; font-family: BACS"">RlAKcYDTk</p>","","","","","","","","",""
"html-keyboard-response","390","546879","0.0-16.0-0.58","6092e2aac56871319199b6a5","650c16f0f2faf8d7a0d14c09","651c1bff6f385036f4234c87","null","null","<p style=""font-size: 60px; font-family: BACS"">RlAKcYDTk</p>","","","","","","","","",""
"html-keyboard-response","391","547890","0.0-16.0-0.59","6092e2aac56871319199b6a5","650c16f0f2faf8d7a0d14c09","651c1bff6f385036f4234c87","null","null","<p style=""font-size: 60px; font-family: BACS"">RlAKcYDTk</p>","","","","","","","","",""
"html-keyboard-response","392","548905","0.0-16.0-0.60","6092e2aac56871319199b6a5","650c16f0f2faf8d7a0d14c09","651c1bff6f385036f4234c87","null","null","<p style=""font-size: 60px; font-family: BACS"">RlAKcYDTk</p>","","","","","","","","",""
"html-keyboard-response","393","549911","0.0-16.0-0.61","6092e2aac56871319199b6a5","650c16f0f2faf8d7a0d14c09","651c1bff6f385036f4234c87","null","null","<p style=""font-size: 60px; font-family: BACS"">RlAKcYDTk</p>","","","","","","","","",""
"html-keyboard-response","394","550924","0.0-16.0-0.62","6092e2aac56871319199b6a5","650c16f0f2faf8d7a0d14c09","651c1bff6f385036f4234c87","null","null","<p style=""font-size: 60px; font-family: BACS"">RlAKcYDTk</p>","","","","","","","","",""
"html-keyboard-response","395","551931","0.0-16.0-0.63","6092e2aac56871319199b6a5","650c16f0f2faf8d7a0d14c09","651c1bff6f385036f4234c87","null","null","<p style=""font-size: 60px; font-family: BACS"">RlAKcYDTk</p>","","","","","","","","",""
"html-keyboard-response","396","552941","0.0-16.0-0.64","6092e2aac56871319199b6a5","650c16f0f2faf8d7a0d14c09","651c1bff6f385036f4234c87","null","null","<p style=""font-size: 60px; font-family: BACS"">RlAKcYDTk</p>","","","","","","","","",""
"html-keyboard-response","397","553944","0.0-16.0-0.65","6092e2aac56871319199b6a5","650c16f0f2faf8d7a0d14c09","651c1bff6f385036f4234c87","null","null","<p style=""font-size: 60px; font-family: BACS"">RlAKcYDTk</p>","","","","","","","","",""
"html-keyboard-response","398","554948","0.0-16.0-0.66","6092e2aac56871319199b6a5","650c16f0f2faf8d7a0d14c09","651c1bff6f385036f4234c87","null","null","<p style=""font-size: 60px; font-family: BACS"">RlAKcYDTk</p>","","","","","","","","",""
"html-keyboard-response","399","555960","0.0-16.0-0.67","6092e2aac56871319199b6a5","650c16f0f2faf8d7a0d14c09","651c1bff6f385036f4234c87","null","null","<p style=""font-size: 60px; font-family: BACS"">RlAKcYDTk</p>","","","","","","","","",""
