"trial_type","trial_index","time_elapsed","internal_node_id","subject_id","study_id","session_id","rt","response","stimulus","success","item","task","correct_response","testing_condition","correct","target","confound","name"
"pavlovia","0","848","0.0-0.0","5f11c9f84078cd0888177499","650c16f0f2faf8d7a0d14c09","651c1a5972134699e23133d8","","","","","","","","","","","",""
"survey-html-form","1","20587","0.0-1.0","5f11c9f84078cd0888177499","650c16f0f2faf8d7a0d14c09","651c1a5972134699e23133d8","19738","{""ID"":""5f11c9f84078cd0888177499""}","","","","","","","","","",""
"html-keyboard-response","2","62940","0.0-2.0","5f11c9f84078cd0888177499","650c16f0f2faf8d7a0d14c09","651c1a5972134699e23133d8","42351"," ","<p style=""font-size: 15px;"">Before beginning, we ask that you read the consent information and confirm your agreement to participate in the experiment.</p>
      <p style=""font-size: 15px;""> We ask that you remember that this is a research project and that your participation is entirely voluntary. You can stop your participation at any time, without needing to provide any explanation. The study we're asking you to participate in aims at examining how readers process written words. You will be engaged in a session of apprximately 20 minutes, followed by a brief questionnaire. You will have the opportunity to take a few breaks during the experiment. You will be paid £4 for your participation, corresponding to a rate of £8/hour. While this experiment looks at cognitive faculties, this experiment doesn't constitute clinical proof of eventual pathologies.</p>
      <p style=""font-size: 15px;"">All of the information collected thanks to yours and others' participation will be held in a secure password-protected server, and will not be shared with anyone not authorised to view it. Your personal information will be kept with an arbitrary participant ID. Thanks to this data anonymity process, any researcher analysing the data won't be able to track the information back to a specific participant. Therefore, this process will make identifying you impossibile, even when results from the study will be published in scientific reviews, presented at congresses, or at any other public forum. More generally, the collected data will be treated in accordance with the laws on privacy and conformity to the Legislative Degree n. 196 ""Code regarding the protection of personal data"" of the 30th of June 2003 and to the European Regulation 2016/670 (General Data Protection Regulation - GDPR). The Data Protection Officer is Avv. Valentina Carollo, who can be contacted at the following email addresses: <a href=""mailto:dpo@sissa.it"">dpo@sissa.it</a> or <a href=""mailto:rpd@sissa.it"">rpd@sissa.it</a> - PEC: <a href=""mailto:protocollo@pec.sissa.it"">protocollo@pec.sissa.it</a>.</p>
      <p style=""font-size: 15px;""> Before expressing your consent to participate, we would like to remind you again that in case you need explanations on any aspect of the experimental procedure, the researcher is at your disposition (<a href=""mailto:aliebelt@sissa.it"">aliebelt@sissa.it</a>, <a href=""mailto:davide.crepaldi@sissa.it"">davide.crepaldi@sissa.it</a>).</p>
      <p style=""font-size: 15px;"">If you would like to download the informed consent form, you can do so here: <a href=""BASL-Informed_Consent.pdf"" download>informed consent form</a>.</p>
      <p style=""font-size: 15px;"">We ask that you press the spacebar to proceed to the consent section.</p>","","","","","","","","",""
"survey-html-form","3","94591","0.0-3.0","5f11c9f84078cd0888177499","650c16f0f2faf8d7a0d14c09","651c1a5972134699e23133d8","31650","{""consent1"":""YES"",""consent2"":""YES"",""consent3"":""YES"",""consent4"":""YES"",""consent5"":""YES"",""consent6"":""YES""}","","","","","","","","","",""
"fullscreen","4","101505","0.0-4.0","5f11c9f84078cd0888177499","650c16f0f2faf8d7a0d14c09","651c1a5972134699e23133d8","","","","true","","","","","","","",""
"html-keyboard-response","5","133762","0.0-5.0","5f11c9f84078cd0888177499","650c16f0f2faf8d7a0d14c09","651c1a5972134699e23133d8","32255"," ","<p>Welcome, and thank you very much for your time!</p>
      <p>In this experiment, you'll be a language expert who's been asked to take a look at words that Earth has received in its first communication with aliens. Your task, in this first part of the experiment, is to pay close attention to the words you'll be shown; later, world leaders will ask you questions on what you saw. The words will be shown to you quite quickly; it seems that the aliens were in a hurry :-)</p>
      <p>Press the spacebar to continue.<p>","","","","","","","","",""
"html-keyboard-response","6","133814","0.0-6.0","5f11c9f84078cd0888177499","650c16f0f2faf8d7a0d14c09","651c1a5972134699e23133d8","null","null","<p style=""font-size: 120px; font-family: BACS""> </p>","","","","","","","","",""
"html-keyboard-response","7","152198","0.0-7.0","5f11c9f84078cd0888177499","650c16f0f2faf8d7a0d14c09","651c1a5972134699e23133d8","18384"," ","<p>Here is an example of the words you'll see:</p>
      <img src='esempio.png' height='400px'>
      <p>When you're ready to begin, press the spacebar.</p></div>","","","","","","","","",""
"html-keyboard-response","8","153215","0.0-8.0-0.0","5f11c9f84078cd0888177499","650c16f0f2faf8d7a0d14c09","651c1a5972134699e23133d8","null","null","<p style=""font-size: 60px; font-family: BACS"">lKdbcRDM</p>","","","","","","","","",""
"html-keyboard-response","9","154231","0.0-8.0-0.1","5f11c9f84078cd0888177499","650c16f0f2faf8d7a0d14c09","651c1a5972134699e23133d8","null","null","<p style=""font-size: 60px; font-family: BACS"">Qcladmkc</p>","","","","","","","","",""
"html-keyboard-response","10","155243","0.0-8.0-0.2","5f11c9f84078cd0888177499","650c16f0f2faf8d7a0d14c09","651c1a5972134699e23133d8","null","null","<p style=""font-size: 60px; font-family: BACS"">MlthEKBO</p>","","","","","","","","",""
"html-keyboard-response","11","156256","0.0-8.0-0.3","5f11c9f84078cd0888177499","650c16f0f2faf8d7a0d14c09","651c1a5972134699e23133d8","null","null","<p style=""font-size: 60px; font-family: BACS"">dGLAluUmb</p>","","","","","","","","",""
"html-keyboard-response","12","157258","0.0-8.0-0.4","5f11c9f84078cd0888177499","650c16f0f2faf8d7a0d14c09","651c1a5972134699e23133d8","null","null","<p style=""font-size: 60px; font-family: BACS"">COtBDTPOM</p>","","","","","","","","",""
"html-keyboard-response","13","158261","0.0-8.0-0.5","5f11c9f84078cd0888177499","650c16f0f2faf8d7a0d14c09","651c1a5972134699e23133d8","null","null","<p style=""font-size: 60px; font-family: BACS"">lKdbcTRkY</p>","","","","","","","","",""
"html-keyboard-response","14","159278","0.0-8.0-0.6","5f11c9f84078cd0888177499","650c16f0f2faf8d7a0d14c09","651c1a5972134699e23133d8","null","null","<p style=""font-size: 60px; font-family: BACS"">ZJLmrJZr</p>","","","","","","","","",""
"html-keyboard-response","15","160293","0.0-8.0-0.7","5f11c9f84078cd0888177499","650c16f0f2faf8d7a0d14c09","651c1a5972134699e23133d8","null","null","<p style=""font-size: 60px; font-family: BACS"">DBlhTRkY</p>","","","","","","","","",""
"html-keyboard-response","16","161307","0.0-8.0-0.8","5f11c9f84078cd0888177499","650c16f0f2faf8d7a0d14c09","651c1a5972134699e23133d8","null","null","<p style=""font-size: 60px; font-family: BACS"">ckduAJZr</p>","","","","","","","","",""
"html-keyboard-response","17","162318","0.0-8.0-0.9","5f11c9f84078cd0888177499","650c16f0f2faf8d7a0d14c09","651c1a5972134699e23133d8","null","null","<p style=""font-size: 60px; font-family: BACS"">mARMTPOM</p>","","","","","","","","",""
"html-keyboard-response","18","163331","0.0-8.0-0.10","5f11c9f84078cd0888177499","650c16f0f2faf8d7a0d14c09","651c1a5972134699e23133d8","null","null","<p style=""font-size: 60px; font-family: BACS"">lTmOTRkY</p>","","","","","","","","",""
"html-keyboard-response","19","164333","0.0-8.0-0.11","5f11c9f84078cd0888177499","650c16f0f2faf8d7a0d14c09","651c1a5972134699e23133d8","null","null","<p style=""font-size: 60px; font-family: BACS"">NaJbuUmb</p>","","","","","","","","",""
"html-keyboard-response","20","165347","0.0-8.0-0.12","5f11c9f84078cd0888177499","650c16f0f2faf8d7a0d14c09","651c1a5972134699e23133d8","null","null","<p style=""font-size: 60px; font-family: BACS"">PctRCTPOM</p>","","","","","","","","",""
"html-keyboard-response","21","166362","0.0-8.0-0.13","5f11c9f84078cd0888177499","650c16f0f2faf8d7a0d14c09","651c1a5972134699e23133d8","null","null","<p style=""font-size: 60px; font-family: BACS"">QcladuvJ</p>","","","","","","","","",""
"html-keyboard-response","22","167375","0.0-8.0-0.14","5f11c9f84078cd0888177499","650c16f0f2faf8d7a0d14c09","651c1a5972134699e23133d8","null","null","<p style=""font-size: 60px; font-family: BACS"">dRbDbTRK</p>","","","","","","","","",""
"html-keyboard-response","23","168389","0.0-8.0-0.15","5f11c9f84078cd0888177499","650c16f0f2faf8d7a0d14c09","651c1a5972134699e23133d8","null","null","<p style=""font-size: 60px; font-family: BACS"">COtBDTRkY</p>","","","","","","","","",""
"html-keyboard-response","24","169405","0.0-8.0-0.16","5f11c9f84078cd0888177499","650c16f0f2faf8d7a0d14c09","651c1a5972134699e23133d8","null","null","<p style=""font-size: 60px; font-family: BACS"">ZdlOuUmb</p>","","","","","","","","",""
"html-keyboard-response","25","170416","0.0-8.0-0.17","5f11c9f84078cd0888177499","650c16f0f2faf8d7a0d14c09","651c1a5972134699e23133d8","null","null","<p style=""font-size: 60px; font-family: BACS"">dGLAluvJ</p>","","","","","","","","",""
"html-keyboard-response","26","171431","0.0-8.0-0.18","5f11c9f84078cd0888177499","650c16f0f2faf8d7a0d14c09","651c1a5972134699e23133d8","null","null","<p style=""font-size: 60px; font-family: BACS"">ZdlOmkc</p>","","","","","","","","",""
"html-keyboard-response","27","172447","0.0-8.0-0.19","5f11c9f84078cd0888177499","650c16f0f2faf8d7a0d14c09","651c1a5972134699e23133d8","null","null","<p style=""font-size: 60px; font-family: BACS"">ZJLmrmvG</p>","","","","","","","","",""
"html-keyboard-response","28","173461","0.0-8.0-0.20","5f11c9f84078cd0888177499","650c16f0f2faf8d7a0d14c09","651c1a5972134699e23133d8","null","null","<p style=""font-size: 60px; font-family: BACS"">uAkrmkc</p>","","","","","","","","",""
"html-keyboard-response","29","174476","0.0-8.0-0.21","5f11c9f84078cd0888177499","650c16f0f2faf8d7a0d14c09","651c1a5972134699e23133d8","null","null","<p style=""font-size: 60px; font-family: BACS"">QcladuUmb</p>","","","","","","","","",""
"html-keyboard-response","30","175479","0.0-8.0-0.22","5f11c9f84078cd0888177499","650c16f0f2faf8d7a0d14c09","651c1a5972134699e23133d8","null","null","<p style=""font-size: 60px; font-family: BACS"">NaJbmvG</p>","","","","","","","","",""
"html-keyboard-response","31","176493","0.0-8.0-0.23","5f11c9f84078cd0888177499","650c16f0f2faf8d7a0d14c09","651c1a5972134699e23133d8","null","null","<p style=""font-size: 60px; font-family: BACS"">JNkauUmb</p>","","","","","","","","",""
"html-keyboard-response","32","177508","0.0-8.0-0.24","5f11c9f84078cd0888177499","650c16f0f2faf8d7a0d14c09","651c1a5972134699e23133d8","null","null","<p style=""font-size: 60px; font-family: BACS"">DBlhRDM</p>","","","","","","","","",""
"html-keyboard-response","33","178517","0.0-8.0-0.25","5f11c9f84078cd0888177499","650c16f0f2faf8d7a0d14c09","651c1a5972134699e23133d8","null","null","<p style=""font-size: 60px; font-family: BACS"">dRbDbEKBO</p>","","","","","","","","",""
"html-keyboard-response","34","179519","0.0-8.0-0.26","5f11c9f84078cd0888177499","650c16f0f2faf8d7a0d14c09","651c1a5972134699e23133d8","null","null","<p style=""font-size: 60px; font-family: BACS"">bmdABTRkY</p>","","","","","","","","",""
"html-keyboard-response","35","180533","0.0-8.0-0.27","5f11c9f84078cd0888177499","650c16f0f2faf8d7a0d14c09","651c1a5972134699e23133d8","null","null","<p style=""font-size: 60px; font-family: BACS"">NaJbJZr</p>","","","","","","","","",""
"html-keyboard-response","36","181549","0.0-8.0-0.28","5f11c9f84078cd0888177499","650c16f0f2faf8d7a0d14c09","651c1a5972134699e23133d8","null","null","<p style=""font-size: 60px; font-family: BACS"">mARMTRK</p>","","","","","","","","",""
"html-keyboard-response","37","182554","0.0-8.0-0.29","5f11c9f84078cd0888177499","650c16f0f2faf8d7a0d14c09","651c1a5972134699e23133d8","null","null","<p style=""font-size: 60px; font-family: BACS"">dRbDbRDM</p>","","","","","","","","",""
"html-keyboard-response","38","183558","0.0-8.0-0.30","5f11c9f84078cd0888177499","650c16f0f2faf8d7a0d14c09","651c1a5972134699e23133d8","null","null","<p style=""font-size: 60px; font-family: BACS"">ZJLmrmkc</p>","","","","","","","","",""
"html-keyboard-response","39","184573","0.0-8.0-0.31","5f11c9f84078cd0888177499","650c16f0f2faf8d7a0d14c09","651c1a5972134699e23133d8","null","null","<p style=""font-size: 60px; font-family: BACS"">vkYGluUmb</p>","","","","","","","","",""
"html-keyboard-response","40","185590","0.0-8.0-0.32","5f11c9f84078cd0888177499","650c16f0f2faf8d7a0d14c09","651c1a5972134699e23133d8","null","null","<p style=""font-size: 60px; font-family: BACS"">JNkamkc</p>","","","","","","","","",""
"html-keyboard-response","41","186603","0.0-8.0-0.33","5f11c9f84078cd0888177499","650c16f0f2faf8d7a0d14c09","651c1a5972134699e23133d8","null","null","<p style=""font-size: 60px; font-family: BACS"">DRPkYTPOM</p>","","","","","","","","",""
"html-keyboard-response","42","187618","0.0-8.0-0.34","5f11c9f84078cd0888177499","650c16f0f2faf8d7a0d14c09","651c1a5972134699e23133d8","null","null","<p style=""font-size: 60px; font-family: BACS"">vkYGluvJ</p>","","","","","","","","",""
"html-keyboard-response","43","188633","0.0-8.0-0.35","5f11c9f84078cd0888177499","650c16f0f2faf8d7a0d14c09","651c1a5972134699e23133d8","null","null","<p style=""font-size: 60px; font-family: BACS"">lKdbcEKBO</p>","","","","","","","","",""
"html-keyboard-response","44","189648","0.0-8.0-0.36","5f11c9f84078cd0888177499","650c16f0f2faf8d7a0d14c09","651c1a5972134699e23133d8","null","null","<p style=""font-size: 60px; font-family: BACS"">DBlhTRK</p>","","","","","","","","",""
"html-keyboard-response","45","190649","0.0-8.0-0.37","5f11c9f84078cd0888177499","650c16f0f2faf8d7a0d14c09","651c1a5972134699e23133d8","null","null","<p style=""font-size: 60px; font-family: BACS"">dRbDbTRkY</p>","","","","","","","","",""
"html-keyboard-response","46","191665","0.0-8.0-0.38","5f11c9f84078cd0888177499","650c16f0f2faf8d7a0d14c09","651c1a5972134699e23133d8","null","null","<p style=""font-size: 60px; font-family: BACS"">bmdABTRK</p>","","","","","","","","",""
"html-keyboard-response","47","192682","0.0-8.0-0.39","5f11c9f84078cd0888177499","650c16f0f2faf8d7a0d14c09","651c1a5972134699e23133d8","null","null","<p style=""font-size: 60px; font-family: BACS"">vQdOmkc</p>","","","","","","","","",""
"html-keyboard-response","48","193694","0.0-8.0-0.40","5f11c9f84078cd0888177499","650c16f0f2faf8d7a0d14c09","651c1a5972134699e23133d8","null","null","<p style=""font-size: 60px; font-family: BACS"">DBlhEKBO</p>","","","","","","","","",""
"html-keyboard-response","49","194709","0.0-8.0-0.41","5f11c9f84078cd0888177499","650c16f0f2faf8d7a0d14c09","651c1a5972134699e23133d8","null","null","<p style=""font-size: 60px; font-family: BACS"">PctRCRDM</p>","","","","","","","","",""
"html-keyboard-response","50","195722","0.0-8.0-0.42","5f11c9f84078cd0888177499","650c16f0f2faf8d7a0d14c09","651c1a5972134699e23133d8","null","null","<p style=""font-size: 60px; font-family: BACS"">dGLAlmvG</p>","","","","","","","","",""
"html-keyboard-response","51","196735","0.0-8.0-0.43","5f11c9f84078cd0888177499","650c16f0f2faf8d7a0d14c09","651c1a5972134699e23133d8","null","null","<p style=""font-size: 60px; font-family: BACS"">bmdABTPOM</p>","","","","","","","","",""
"html-keyboard-response","52","197748","0.0-8.0-0.44","5f11c9f84078cd0888177499","650c16f0f2faf8d7a0d14c09","651c1a5972134699e23133d8","null","null","<p style=""font-size: 60px; font-family: BACS"">QcladmvG</p>","","","","","","","","",""
"html-keyboard-response","53","198764","0.0-8.0-0.45","5f11c9f84078cd0888177499","650c16f0f2faf8d7a0d14c09","651c1a5972134699e23133d8","null","null","<p style=""font-size: 60px; font-family: BACS"">lTmORDM</p>","","","","","","","","",""
"html-keyboard-response","54","199781","0.0-8.0-0.46","5f11c9f84078cd0888177499","650c16f0f2faf8d7a0d14c09","651c1a5972134699e23133d8","null","null","<p style=""font-size: 60px; font-family: BACS"">vQdOJZr</p>","","","","","","","","",""
"html-keyboard-response","55","200794","0.0-8.0-0.47","5f11c9f84078cd0888177499","650c16f0f2faf8d7a0d14c09","651c1a5972134699e23133d8","null","null","<p style=""font-size: 60px; font-family: BACS"">MlthTRK</p>","","","","","","","","",""
"html-keyboard-response","56","201808","0.0-8.0-0.48","5f11c9f84078cd0888177499","650c16f0f2faf8d7a0d14c09","651c1a5972134699e23133d8","null","null","<p style=""font-size: 60px; font-family: BACS"">JNkamvG</p>","","","","","","","","",""
"html-keyboard-response","57","202821","0.0-8.0-0.49","5f11c9f84078cd0888177499","650c16f0f2faf8d7a0d14c09","651c1a5972134699e23133d8","null","null","<p style=""font-size: 60px; font-family: BACS"">uAkruUmb</p>","","","","","","","","",""
"html-keyboard-response","58","203834","0.0-8.0-0.50","5f11c9f84078cd0888177499","650c16f0f2faf8d7a0d14c09","651c1a5972134699e23133d8","null","null","<p style=""font-size: 60px; font-family: BACS"">PctRCTRK</p>","","","","","","","","",""
"html-keyboard-response","59","204845","0.0-8.0-0.51","5f11c9f84078cd0888177499","650c16f0f2faf8d7a0d14c09","651c1a5972134699e23133d8","null","null","<p style=""font-size: 60px; font-family: BACS"">vkYGlmvG</p>","","","","","","","","",""
"html-keyboard-response","60","205857","0.0-8.0-0.52","5f11c9f84078cd0888177499","650c16f0f2faf8d7a0d14c09","651c1a5972134699e23133d8","null","null","<p style=""font-size: 60px; font-family: BACS"">bmdABRDM</p>","","","","","","","","",""
"html-keyboard-response","61","206860","0.0-8.0-0.53","5f11c9f84078cd0888177499","650c16f0f2faf8d7a0d14c09","651c1a5972134699e23133d8","null","null","<p style=""font-size: 60px; font-family: BACS"">JNkauvJ</p>","","","","","","","","",""
"html-keyboard-response","62","207864","0.0-8.0-0.54","5f11c9f84078cd0888177499","650c16f0f2faf8d7a0d14c09","651c1a5972134699e23133d8","null","null","<p style=""font-size: 60px; font-family: BACS"">lKdbcTPOM</p>","","","","","","","","",""
"html-keyboard-response","63","208869","0.0-8.0-0.55","5f11c9f84078cd0888177499","650c16f0f2faf8d7a0d14c09","651c1a5972134699e23133d8","null","null","<p style=""font-size: 60px; font-family: BACS"">mARMTRkY</p>","","","","","","","","",""
"html-keyboard-response","64","209884","0.0-8.0-0.56","5f11c9f84078cd0888177499","650c16f0f2faf8d7a0d14c09","651c1a5972134699e23133d8","null","null","<p style=""font-size: 60px; font-family: BACS"">uAkruvJ</p>","","","","","","","","",""
"html-keyboard-response","65","210895","0.0-8.0-0.57","5f11c9f84078cd0888177499","650c16f0f2faf8d7a0d14c09","651c1a5972134699e23133d8","null","null","<p style=""font-size: 60px; font-family: BACS"">lTmOEKBO</p>","","","","","","","","",""
"html-keyboard-response","66","211897","0.0-8.0-0.58","5f11c9f84078cd0888177499","650c16f0f2faf8d7a0d14c09","651c1a5972134699e23133d8","null","null","<p style=""font-size: 60px; font-family: BACS"">vkYGlJZr</p>","","","","","","","","",""
"html-keyboard-response","67","212901","0.0-8.0-0.59","5f11c9f84078cd0888177499","650c16f0f2faf8d7a0d14c09","651c1a5972134699e23133d8","null","null","<p style=""font-size: 60px; font-family: BACS"">vQdOuUmb</p>","","","","","","","","",""
"html-keyboard-response","68","213913","0.0-8.0-0.60","5f11c9f84078cd0888177499","650c16f0f2faf8d7a0d14c09","651c1a5972134699e23133d8","null","null","<p style=""font-size: 60px; font-family: BACS"">DRPkYEKBO</p>","","","","","","","","",""
"html-keyboard-response","69","214929","0.0-8.0-0.61","5f11c9f84078cd0888177499","650c16f0f2faf8d7a0d14c09","651c1a5972134699e23133d8","null","null","<p style=""font-size: 60px; font-family: BACS"">ckduAmvG</p>","","","","","","","","",""
"html-keyboard-response","70","215933","0.0-8.0-0.62","5f11c9f84078cd0888177499","650c16f0f2faf8d7a0d14c09","651c1a5972134699e23133d8","null","null","<p style=""font-size: 60px; font-family: BACS"">COtBDEKBO</p>","","","","","","","","",""
"html-keyboard-response","71","216935","0.0-8.0-0.63","5f11c9f84078cd0888177499","650c16f0f2faf8d7a0d14c09","651c1a5972134699e23133d8","null","null","<p style=""font-size: 60px; font-family: BACS"">ckduAuvJ</p>","","","","","","","","",""
"html-keyboard-response","72","217950","0.0-8.0-0.64","5f11c9f84078cd0888177499","650c16f0f2faf8d7a0d14c09","651c1a5972134699e23133d8","null","null","<p style=""font-size: 60px; font-family: BACS"">MlthTPOM</p>","","","","","","","","",""
"html-keyboard-response","73","218966","0.0-8.0-0.65","5f11c9f84078cd0888177499","650c16f0f2faf8d7a0d14c09","651c1a5972134699e23133d8","null","null","<p style=""font-size: 60px; font-family: BACS"">ZJLmruvJ</p>","","","","","","","","",""
"html-keyboard-response","74","219981","0.0-8.0-0.66","5f11c9f84078cd0888177499","650c16f0f2faf8d7a0d14c09","651c1a5972134699e23133d8","null","null","<p style=""font-size: 60px; font-family: BACS"">MlthRDM</p>","","","","","","","","",""
"html-keyboard-response","75","220994","0.0-8.0-0.67","5f11c9f84078cd0888177499","650c16f0f2faf8d7a0d14c09","651c1a5972134699e23133d8","null","null","<p style=""font-size: 60px; font-family: BACS"">vQdOuvJ</p>","","","","","","","","",""
"html-keyboard-response","76","221996","0.0-8.0-0.68","5f11c9f84078cd0888177499","650c16f0f2faf8d7a0d14c09","651c1a5972134699e23133d8","null","null","<p style=""font-size: 60px; font-family: BACS"">DRPkYTRK</p>","","","","","","","","",""
"html-keyboard-response","77","223011","0.0-8.0-0.69","5f11c9f84078cd0888177499","650c16f0f2faf8d7a0d14c09","651c1a5972134699e23133d8","null","null","<p style=""font-size: 60px; font-family: BACS"">lTmOTPOM</p>","","","","","","","","",""
"html-keyboard-response","78","224024","0.0-8.0-0.70","5f11c9f84078cd0888177499","650c16f0f2faf8d7a0d14c09","651c1a5972134699e23133d8","null","null","<p style=""font-size: 60px; font-family: BACS"">ckduAmkc</p>","","","","","","","","",""
"html-keyboard-response","79","225027","0.0-8.0-0.71","5f11c9f84078cd0888177499","650c16f0f2faf8d7a0d14c09","651c1a5972134699e23133d8","null","null","<p style=""font-size: 60px; font-family: BACS"">COtBDTRK</p>","","","","","","","","",""
"html-keyboard-response","80","226039","0.0-8.0-0.72","5f11c9f84078cd0888177499","650c16f0f2faf8d7a0d14c09","651c1a5972134699e23133d8","null","null","<p style=""font-size: 60px; font-family: BACS"">ZdlOJZr</p>","","","","","","","","",""
"html-keyboard-response","81","227043","0.0-8.0-0.73","5f11c9f84078cd0888177499","650c16f0f2faf8d7a0d14c09","651c1a5972134699e23133d8","null","null","<p style=""font-size: 60px; font-family: BACS"">NaJbmkc</p>","","","","","","","","",""
"html-keyboard-response","82","228058","0.0-8.0-0.74","5f11c9f84078cd0888177499","650c16f0f2faf8d7a0d14c09","651c1a5972134699e23133d8","null","null","<p style=""font-size: 60px; font-family: BACS"">dGLAlJZr</p>","","","","","","","","",""
"html-keyboard-response","83","229073","0.0-8.0-0.75","5f11c9f84078cd0888177499","650c16f0f2faf8d7a0d14c09","651c1a5972134699e23133d8","null","null","<p style=""font-size: 60px; font-family: BACS"">ZdlOmvG</p>","","","","","","","","",""
"html-keyboard-response","84","230089","0.0-8.0-0.76","5f11c9f84078cd0888177499","650c16f0f2faf8d7a0d14c09","651c1a5972134699e23133d8","null","null","<p style=""font-size: 60px; font-family: BACS"">mARMEKBO</p>","","","","","","","","",""
"html-keyboard-response","85","231106","0.0-8.0-0.77","5f11c9f84078cd0888177499","650c16f0f2faf8d7a0d14c09","651c1a5972134699e23133d8","null","null","<p style=""font-size: 60px; font-family: BACS"">PctRCTRkY</p>","","","","","","","","",""
"html-keyboard-response","86","232110","0.0-8.0-0.78","5f11c9f84078cd0888177499","650c16f0f2faf8d7a0d14c09","651c1a5972134699e23133d8","null","null","<p style=""font-size: 60px; font-family: BACS"">uAkrJZr</p>","","","","","","","","",""
"html-keyboard-response","87","233127","0.0-8.0-0.79","5f11c9f84078cd0888177499","650c16f0f2faf8d7a0d14c09","651c1a5972134699e23133d8","null","null","<p style=""font-size: 60px; font-family: BACS"">DRPkYRDM</p>","","","","","","","","",""
"html-keyboard-response","88","272960","0.0-9.0","5f11c9f84078cd0888177499","650c16f0f2faf8d7a0d14c09","651c1a5972134699e23133d8","39832"," ","<p>Great, you've seen the first block of words. You may now take a short break.</p>
      <p>Press the spacebar when you're ready to continue.</p>","","","","","","","","",""
"html-keyboard-response","89","273970","0.0-10.0-0.0","5f11c9f84078cd0888177499","650c16f0f2faf8d7a0d14c09","651c1a5972134699e23133d8","null","null","<p style=""font-size: 60px; font-family: BACS"">lTmOTRkY</p>","","","","","","","","",""
"html-keyboard-response","90","274975","0.0-10.0-0.1","5f11c9f84078cd0888177499","650c16f0f2faf8d7a0d14c09","651c1a5972134699e23133d8","null","null","<p style=""font-size: 60px; font-family: BACS"">ZJLmrJZr</p>","","","","","","","","",""
"html-keyboard-response","91","275979","0.0-10.0-0.2","5f11c9f84078cd0888177499","650c16f0f2faf8d7a0d14c09","651c1a5972134699e23133d8","null","null","<p style=""font-size: 60px; font-family: BACS"">JNkamkc</p>","","","","","","","","",""
"html-keyboard-response","92","276993","0.0-10.0-0.3","5f11c9f84078cd0888177499","650c16f0f2faf8d7a0d14c09","651c1a5972134699e23133d8","null","null","<p style=""font-size: 60px; font-family: BACS"">dGLAlJZr</p>","","","","","","","","",""
"html-keyboard-response","93","278008","0.0-10.0-0.4","5f11c9f84078cd0888177499","650c16f0f2faf8d7a0d14c09","651c1a5972134699e23133d8","null","null","<p style=""font-size: 60px; font-family: BACS"">NaJbuUmb</p>","","","","","","","","",""
"html-keyboard-response","94","279011","0.0-10.0-0.5","5f11c9f84078cd0888177499","650c16f0f2faf8d7a0d14c09","651c1a5972134699e23133d8","null","null","<p style=""font-size: 60px; font-family: BACS"">dGLAlmvG</p>","","","","","","","","",""
"html-keyboard-response","95","280027","0.0-10.0-0.6","5f11c9f84078cd0888177499","650c16f0f2faf8d7a0d14c09","651c1a5972134699e23133d8","null","null","<p style=""font-size: 60px; font-family: BACS"">lKdbcTPOM</p>","","","","","","","","",""
"html-keyboard-response","96","281030","0.0-10.0-0.7","5f11c9f84078cd0888177499","650c16f0f2faf8d7a0d14c09","651c1a5972134699e23133d8","null","null","<p style=""font-size: 60px; font-family: BACS"">JNkauvJ</p>","","","","","","","","",""
"html-keyboard-response","97","282033","0.0-10.0-0.8","5f11c9f84078cd0888177499","650c16f0f2faf8d7a0d14c09","651c1a5972134699e23133d8","null","null","<p style=""font-size: 60px; font-family: BACS"">mARMTRkY</p>","","","","","","","","",""
"html-keyboard-response","98","283048","0.0-10.0-0.9","5f11c9f84078cd0888177499","650c16f0f2faf8d7a0d14c09","651c1a5972134699e23133d8","null","null","<p style=""font-size: 60px; font-family: BACS"">PctRCRDM</p>","","","","","","","","",""
"html-keyboard-response","99","284050","0.0-10.0-0.10","5f11c9f84078cd0888177499","650c16f0f2faf8d7a0d14c09","651c1a5972134699e23133d8","null","null","<p style=""font-size: 60px; font-family: BACS"">lKdbcTRkY</p>","","","","","","","","",""
"html-keyboard-response","100","285054","0.0-10.0-0.11","5f11c9f84078cd0888177499","650c16f0f2faf8d7a0d14c09","651c1a5972134699e23133d8","null","null","<p style=""font-size: 60px; font-family: BACS"">QcladuUmb</p>","","","","","","","","",""
"html-keyboard-response","101","286057","0.0-10.0-0.12","5f11c9f84078cd0888177499","650c16f0f2faf8d7a0d14c09","651c1a5972134699e23133d8","null","null","<p style=""font-size: 60px; font-family: BACS"">ckduAuvJ</p>","","","","","","","","",""
"html-keyboard-response","102","287063","0.0-10.0-0.13","5f11c9f84078cd0888177499","650c16f0f2faf8d7a0d14c09","651c1a5972134699e23133d8","null","null","<p style=""font-size: 60px; font-family: BACS"">dGLAluUmb</p>","","","","","","","","",""
"html-keyboard-response","103","288075","0.0-10.0-0.14","5f11c9f84078cd0888177499","650c16f0f2faf8d7a0d14c09","651c1a5972134699e23133d8","null","null","<p style=""font-size: 60px; font-family: BACS"">MlthTRK</p>","","","","","","","","",""
"html-keyboard-response","104","289079","0.0-10.0-0.15","5f11c9f84078cd0888177499","650c16f0f2faf8d7a0d14c09","651c1a5972134699e23133d8","null","null","<p style=""font-size: 60px; font-family: BACS"">DRPkYRDM</p>","","","","","","","","",""
"html-keyboard-response","105","290092","0.0-10.0-0.16","5f11c9f84078cd0888177499","650c16f0f2faf8d7a0d14c09","651c1a5972134699e23133d8","null","null","<p style=""font-size: 60px; font-family: BACS"">PctRCTRkY</p>","","","","","","","","",""
"html-keyboard-response","106","291109","0.0-10.0-0.17","5f11c9f84078cd0888177499","650c16f0f2faf8d7a0d14c09","651c1a5972134699e23133d8","null","null","<p style=""font-size: 60px; font-family: BACS"">uAkruUmb</p>","","","","","","","","",""
"html-keyboard-response","107","292113","0.0-10.0-0.18","5f11c9f84078cd0888177499","650c16f0f2faf8d7a0d14c09","651c1a5972134699e23133d8","null","null","<p style=""font-size: 60px; font-family: BACS"">DRPkYTPOM</p>","","","","","","","","",""
"html-keyboard-response","108","293128","0.0-10.0-0.19","5f11c9f84078cd0888177499","650c16f0f2faf8d7a0d14c09","651c1a5972134699e23133d8","null","null","<p style=""font-size: 60px; font-family: BACS"">vQdOuvJ</p>","","","","","","","","",""
"html-keyboard-response","109","294134","0.0-10.0-0.20","5f11c9f84078cd0888177499","650c16f0f2faf8d7a0d14c09","651c1a5972134699e23133d8","null","null","<p style=""font-size: 60px; font-family: BACS"">vkYGlmvG</p>","","","","","","","","",""
"html-keyboard-response","110","295138","0.0-10.0-0.21","5f11c9f84078cd0888177499","650c16f0f2faf8d7a0d14c09","651c1a5972134699e23133d8","null","null","<p style=""font-size: 60px; font-family: BACS"">lTmOTPOM</p>","","","","","","","","",""
"html-keyboard-response","111","296154","0.0-10.0-0.22","5f11c9f84078cd0888177499","650c16f0f2faf8d7a0d14c09","651c1a5972134699e23133d8","null","null","<p style=""font-size: 60px; font-family: BACS"">ckduAmkc</p>","","","","","","","","",""
"html-keyboard-response","112","297168","0.0-10.0-0.23","5f11c9f84078cd0888177499","650c16f0f2faf8d7a0d14c09","651c1a5972134699e23133d8","null","null","<p style=""font-size: 60px; font-family: BACS"">ZdlOuUmb</p>","","","","","","","","",""
"html-keyboard-response","113","298171","0.0-10.0-0.24","5f11c9f84078cd0888177499","650c16f0f2faf8d7a0d14c09","651c1a5972134699e23133d8","null","null","<p style=""font-size: 60px; font-family: BACS"">NaJbmkc</p>","","","","","","","","",""
"html-keyboard-response","114","299187","0.0-10.0-0.25","5f11c9f84078cd0888177499","650c16f0f2faf8d7a0d14c09","651c1a5972134699e23133d8","null","null","<p style=""font-size: 60px; font-family: BACS"">ZdlOmvG</p>","","","","","","","","",""
"html-keyboard-response","115","300193","0.0-10.0-0.26","5f11c9f84078cd0888177499","650c16f0f2faf8d7a0d14c09","651c1a5972134699e23133d8","null","null","<p style=""font-size: 60px; font-family: BACS"">NaJbJZr</p>","","","","","","","","",""
"html-keyboard-response","116","301196","0.0-10.0-0.27","5f11c9f84078cd0888177499","650c16f0f2faf8d7a0d14c09","651c1a5972134699e23133d8","null","null","<p style=""font-size: 60px; font-family: BACS"">ZJLmrmvG</p>","","","","","","","","",""
"html-keyboard-response","117","302213","0.0-10.0-0.28","5f11c9f84078cd0888177499","650c16f0f2faf8d7a0d14c09","651c1a5972134699e23133d8","null","null","<p style=""font-size: 60px; font-family: BACS"">QcladuvJ</p>","","","","","","","","",""
"html-keyboard-response","118","303217","0.0-10.0-0.29","5f11c9f84078cd0888177499","650c16f0f2faf8d7a0d14c09","651c1a5972134699e23133d8","null","null","<p style=""font-size: 60px; font-family: BACS"">dRbDbEKBO</p>","","","","","","","","",""
"html-keyboard-response","119","304219","0.0-10.0-0.30","5f11c9f84078cd0888177499","650c16f0f2faf8d7a0d14c09","651c1a5972134699e23133d8","null","null","<p style=""font-size: 60px; font-family: BACS"">vQdOJZr</p>","","","","","","","","",""
"html-keyboard-response","120","305222","0.0-10.0-0.31","5f11c9f84078cd0888177499","650c16f0f2faf8d7a0d14c09","651c1a5972134699e23133d8","null","null","<p style=""font-size: 60px; font-family: BACS"">DRPkYTRK</p>","","","","","","","","",""
"html-keyboard-response","121","306236","0.0-10.0-0.32","5f11c9f84078cd0888177499","650c16f0f2faf8d7a0d14c09","651c1a5972134699e23133d8","null","null","<p style=""font-size: 60px; font-family: BACS"">vkYGlJZr</p>","","","","","","","","",""
"html-keyboard-response","122","307253","0.0-10.0-0.33","5f11c9f84078cd0888177499","650c16f0f2faf8d7a0d14c09","651c1a5972134699e23133d8","null","null","<p style=""font-size: 60px; font-family: BACS"">uAkrmkc</p>","","","","","","","","",""
"html-keyboard-response","123","308256","0.0-10.0-0.34","5f11c9f84078cd0888177499","650c16f0f2faf8d7a0d14c09","651c1a5972134699e23133d8","null","null","<p style=""font-size: 60px; font-family: BACS"">lTmOEKBO</p>","","","","","","","","",""
"html-keyboard-response","124","309267","0.0-10.0-0.35","5f11c9f84078cd0888177499","650c16f0f2faf8d7a0d14c09","651c1a5972134699e23133d8","null","null","<p style=""font-size: 60px; font-family: BACS"">uAkrJZr</p>","","","","","","","","",""
"html-keyboard-response","125","310281","0.0-10.0-0.36","5f11c9f84078cd0888177499","650c16f0f2faf8d7a0d14c09","651c1a5972134699e23133d8","null","null","<p style=""font-size: 60px; font-family: BACS"">bmdABRDM</p>","","","","","","","","",""
"html-keyboard-response","126","311294","0.0-10.0-0.37","5f11c9f84078cd0888177499","650c16f0f2faf8d7a0d14c09","651c1a5972134699e23133d8","null","null","<p style=""font-size: 60px; font-family: BACS"">COtBDTPOM</p>","","","","","","","","",""
"html-keyboard-response","127","312299","0.0-10.0-0.38","5f11c9f84078cd0888177499","650c16f0f2faf8d7a0d14c09","651c1a5972134699e23133d8","null","null","<p style=""font-size: 60px; font-family: BACS"">MlthRDM</p>","","","","","","","","",""
"html-keyboard-response","128","313317","0.0-10.0-0.39","5f11c9f84078cd0888177499","650c16f0f2faf8d7a0d14c09","651c1a5972134699e23133d8","null","null","<p style=""font-size: 60px; font-family: BACS"">mARMTPOM</p>","","","","","","","","",""
"html-keyboard-response","129","314325","0.0-10.0-0.40","5f11c9f84078cd0888177499","650c16f0f2faf8d7a0d14c09","651c1a5972134699e23133d8","null","null","<p style=""font-size: 60px; font-family: BACS"">QcladmvG</p>","","","","","","","","",""
"html-keyboard-response","130","315330","0.0-10.0-0.41","5f11c9f84078cd0888177499","650c16f0f2faf8d7a0d14c09","651c1a5972134699e23133d8","null","null","<p style=""font-size: 60px; font-family: BACS"">mARMEKBO</p>","","","","","","","","",""
"html-keyboard-response","131","316345","0.0-10.0-0.42","5f11c9f84078cd0888177499","650c16f0f2faf8d7a0d14c09","651c1a5972134699e23133d8","null","null","<p style=""font-size: 60px; font-family: BACS"">ckduAJZr</p>","","","","","","","","",""
"html-keyboard-response","132","317352","0.0-10.0-0.43","5f11c9f84078cd0888177499","650c16f0f2faf8d7a0d14c09","651c1a5972134699e23133d8","null","null","<p style=""font-size: 60px; font-family: BACS"">MlthEKBO</p>","","","","","","","","",""
"html-keyboard-response","133","318366","0.0-10.0-0.44","5f11c9f84078cd0888177499","650c16f0f2faf8d7a0d14c09","651c1a5972134699e23133d8","null","null","<p style=""font-size: 60px; font-family: BACS"">ZdlOJZr</p>","","","","","","","","",""
"html-keyboard-response","134","319382","0.0-10.0-0.45","5f11c9f84078cd0888177499","650c16f0f2faf8d7a0d14c09","651c1a5972134699e23133d8","null","null","<p style=""font-size: 60px; font-family: BACS"">bmdABTPOM</p>","","","","","","","","",""
"html-keyboard-response","135","320387","0.0-10.0-0.46","5f11c9f84078cd0888177499","650c16f0f2faf8d7a0d14c09","651c1a5972134699e23133d8","null","null","<p style=""font-size: 60px; font-family: BACS"">PctRCTRK</p>","","","","","","","","",""
"html-keyboard-response","136","321389","0.0-10.0-0.47","5f11c9f84078cd0888177499","650c16f0f2faf8d7a0d14c09","651c1a5972134699e23133d8","null","null","<p style=""font-size: 60px; font-family: BACS"">COtBDTRkY</p>","","","","","","","","",""
"html-keyboard-response","137","322392","0.0-10.0-0.48","5f11c9f84078cd0888177499","650c16f0f2faf8d7a0d14c09","651c1a5972134699e23133d8","null","null","<p style=""font-size: 60px; font-family: BACS"">ZJLmrmkc</p>","","","","","","","","",""
"html-keyboard-response","138","323402","0.0-10.0-0.49","5f11c9f84078cd0888177499","650c16f0f2faf8d7a0d14c09","651c1a5972134699e23133d8","null","null","<p style=""font-size: 60px; font-family: BACS"">DBlhTRK</p>","","","","","","","","",""
"html-keyboard-response","139","324416","0.0-10.0-0.50","5f11c9f84078cd0888177499","650c16f0f2faf8d7a0d14c09","651c1a5972134699e23133d8","null","null","<p style=""font-size: 60px; font-family: BACS"">DRPkYEKBO</p>","","","","","","","","",""
"html-keyboard-response","140","325433","0.0-10.0-0.51","5f11c9f84078cd0888177499","650c16f0f2faf8d7a0d14c09","651c1a5972134699e23133d8","null","null","<p style=""font-size: 60px; font-family: BACS"">dRbDbRDM</p>","","","","","","","","",""
"html-keyboard-response","141","326448","0.0-10.0-0.52","5f11c9f84078cd0888177499","650c16f0f2faf8d7a0d14c09","651c1a5972134699e23133d8","null","null","<p style=""font-size: 60px; font-family: BACS"">ZdlOmkc</p>","","","","","","","","",""
"html-keyboard-response","142","327450","0.0-10.0-0.53","5f11c9f84078cd0888177499","650c16f0f2faf8d7a0d14c09","651c1a5972134699e23133d8","null","null","<p style=""font-size: 60px; font-family: BACS"">MlthTPOM</p>","","","","","","","","",""
"html-keyboard-response","143","328464","0.0-10.0-0.54","5f11c9f84078cd0888177499","650c16f0f2faf8d7a0d14c09","651c1a5972134699e23133d8","null","null","<p style=""font-size: 60px; font-family: BACS"">lKdbcRDM</p>","","","","","","","","",""
"html-keyboard-response","144","329478","0.0-10.0-0.55","5f11c9f84078cd0888177499","650c16f0f2faf8d7a0d14c09","651c1a5972134699e23133d8","null","null","<p style=""font-size: 60px; font-family: BACS"">mARMTRK</p>","","","","","","","","",""
"html-keyboard-response","145","330491","0.0-10.0-0.56","5f11c9f84078cd0888177499","650c16f0f2faf8d7a0d14c09","651c1a5972134699e23133d8","null","null","<p style=""font-size: 60px; font-family: BACS"">vkYGluvJ</p>","","","","","","","","",""
"html-keyboard-response","146","331502","0.0-10.0-0.57","5f11c9f84078cd0888177499","650c16f0f2faf8d7a0d14c09","651c1a5972134699e23133d8","null","null","<p style=""font-size: 60px; font-family: BACS"">DBlhEKBO</p>","","","","","","","","",""
"html-keyboard-response","147","332505","0.0-10.0-0.58","5f11c9f84078cd0888177499","650c16f0f2faf8d7a0d14c09","651c1a5972134699e23133d8","null","null","<p style=""font-size: 60px; font-family: BACS"">JNkauUmb</p>","","","","","","","","",""
"html-keyboard-response","148","333519","0.0-10.0-0.59","5f11c9f84078cd0888177499","650c16f0f2faf8d7a0d14c09","651c1a5972134699e23133d8","null","null","<p style=""font-size: 60px; font-family: BACS"">bmdABTRkY</p>","","","","","","","","",""
"html-keyboard-response","149","334532","0.0-10.0-0.60","5f11c9f84078cd0888177499","650c16f0f2faf8d7a0d14c09","651c1a5972134699e23133d8","null","null","<p style=""font-size: 60px; font-family: BACS"">COtBDEKBO</p>","","","","","","","","",""
"html-keyboard-response","150","335546","0.0-10.0-0.61","5f11c9f84078cd0888177499","650c16f0f2faf8d7a0d14c09","651c1a5972134699e23133d8","null","null","<p style=""font-size: 60px; font-family: BACS"">ZJLmruvJ</p>","","","","","","","","",""
"html-keyboard-response","151","336560","0.0-10.0-0.62","5f11c9f84078cd0888177499","650c16f0f2faf8d7a0d14c09","651c1a5972134699e23133d8","null","null","<p style=""font-size: 60px; font-family: BACS"">lTmORDM</p>","","","","","","","","",""
"html-keyboard-response","152","337563","0.0-10.0-0.63","5f11c9f84078cd0888177499","650c16f0f2faf8d7a0d14c09","651c1a5972134699e23133d8","null","null","<p style=""font-size: 60px; font-family: BACS"">ckduAmvG</p>","","","","","","","","",""
"html-keyboard-response","153","338578","0.0-10.0-0.64","5f11c9f84078cd0888177499","650c16f0f2faf8d7a0d14c09","651c1a5972134699e23133d8","null","null","<p style=""font-size: 60px; font-family: BACS"">dRbDbTRkY</p>","","","","","","","","",""
"html-keyboard-response","154","339593","0.0-10.0-0.65","5f11c9f84078cd0888177499","650c16f0f2faf8d7a0d14c09","651c1a5972134699e23133d8","null","null","<p style=""font-size: 60px; font-family: BACS"">lKdbcEKBO</p>","","","","","","","","",""
"html-keyboard-response","155","340608","0.0-10.0-0.66","5f11c9f84078cd0888177499","650c16f0f2faf8d7a0d14c09","651c1a5972134699e23133d8","null","null","<p style=""font-size: 60px; font-family: BACS"">dGLAluvJ</p>","","","","","","","","",""
"html-keyboard-response","156","341619","0.0-10.0-0.67","5f11c9f84078cd0888177499","650c16f0f2faf8d7a0d14c09","651c1a5972134699e23133d8","null","null","<p style=""font-size: 60px; font-family: BACS"">vkYGluUmb</p>","","","","","","","","",""
"html-keyboard-response","157","342624","0.0-10.0-0.68","5f11c9f84078cd0888177499","650c16f0f2faf8d7a0d14c09","651c1a5972134699e23133d8","null","null","<p style=""font-size: 60px; font-family: BACS"">JNkamvG</p>","","","","","","","","",""
"html-keyboard-response","158","343635","0.0-10.0-0.69","5f11c9f84078cd0888177499","650c16f0f2faf8d7a0d14c09","651c1a5972134699e23133d8","null","null","<p style=""font-size: 60px; font-family: BACS"">PctRCTPOM</p>","","","","","","","","",""
"html-keyboard-response","159","344638","0.0-10.0-0.70","5f11c9f84078cd0888177499","650c16f0f2faf8d7a0d14c09","651c1a5972134699e23133d8","null","null","<p style=""font-size: 60px; font-family: BACS"">Qcladmkc</p>","","","","","","","","",""
"html-keyboard-response","160","345640","0.0-10.0-0.71","5f11c9f84078cd0888177499","650c16f0f2faf8d7a0d14c09","651c1a5972134699e23133d8","null","null","<p style=""font-size: 60px; font-family: BACS"">vQdOuUmb</p>","","","","","","","","",""
"html-keyboard-response","161","346642","0.0-10.0-0.72","5f11c9f84078cd0888177499","650c16f0f2faf8d7a0d14c09","651c1a5972134699e23133d8","null","null","<p style=""font-size: 60px; font-family: BACS"">COtBDTRK</p>","","","","","","","","",""
"html-keyboard-response","162","347654","0.0-10.0-0.73","5f11c9f84078cd0888177499","650c16f0f2faf8d7a0d14c09","651c1a5972134699e23133d8","null","null","<p style=""font-size: 60px; font-family: BACS"">NaJbmvG</p>","","","","","","","","",""
"html-keyboard-response","163","348667","0.0-10.0-0.74","5f11c9f84078cd0888177499","650c16f0f2faf8d7a0d14c09","651c1a5972134699e23133d8","null","null","<p style=""font-size: 60px; font-family: BACS"">DBlhRDM</p>","","","","","","","","",""
"html-keyboard-response","164","349681","0.0-10.0-0.75","5f11c9f84078cd0888177499","650c16f0f2faf8d7a0d14c09","651c1a5972134699e23133d8","null","null","<p style=""font-size: 60px; font-family: BACS"">bmdABTRK</p>","","","","","","","","",""
"html-keyboard-response","165","350695","0.0-10.0-0.76","5f11c9f84078cd0888177499","650c16f0f2faf8d7a0d14c09","651c1a5972134699e23133d8","null","null","<p style=""font-size: 60px; font-family: BACS"">DBlhTRkY</p>","","","","","","","","",""
"html-keyboard-response","166","351708","0.0-10.0-0.77","5f11c9f84078cd0888177499","650c16f0f2faf8d7a0d14c09","651c1a5972134699e23133d8","null","null","<p style=""font-size: 60px; font-family: BACS"">vQdOmkc</p>","","","","","","","","",""
"html-keyboard-response","167","352710","0.0-10.0-0.78","5f11c9f84078cd0888177499","650c16f0f2faf8d7a0d14c09","651c1a5972134699e23133d8","null","null","<p style=""font-size: 60px; font-family: BACS"">dRbDbTRK</p>","","","","","","","","",""
"html-keyboard-response","168","353719","0.0-10.0-0.79","5f11c9f84078cd0888177499","650c16f0f2faf8d7a0d14c09","651c1a5972134699e23133d8","null","null","<p style=""font-size: 60px; font-family: BACS"">uAkruvJ</p>","","","","","","","","",""
"html-keyboard-response","169","372974","0.0-11.0","5f11c9f84078cd0888177499","650c16f0f2faf8d7a0d14c09","651c1a5972134699e23133d8","19254"," ","<p>Great, you've seen the second block of words. You may now take a short break.</p>
      <p>Press the spacebar when you're ready to continue.</p>","","","","","","","","",""
"html-keyboard-response","170","373992","0.0-12.0-0.0","5f11c9f84078cd0888177499","650c16f0f2faf8d7a0d14c09","651c1a5972134699e23133d8","null","null","<p style=""font-size: 60px; font-family: BACS"">vkYGluUmb</p>","","","","","","","","",""
"html-keyboard-response","171","375008","0.0-12.0-0.1","5f11c9f84078cd0888177499","650c16f0f2faf8d7a0d14c09","651c1a5972134699e23133d8","null","null","<p style=""font-size: 60px; font-family: BACS"">COtBDTRK</p>","","","","","","","","",""
"html-keyboard-response","172","376009","0.0-12.0-0.2","5f11c9f84078cd0888177499","650c16f0f2faf8d7a0d14c09","651c1a5972134699e23133d8","null","null","<p style=""font-size: 60px; font-family: BACS"">Qcladmkc</p>","","","","","","","","",""
"html-keyboard-response","173","377023","0.0-12.0-0.3","5f11c9f84078cd0888177499","650c16f0f2faf8d7a0d14c09","651c1a5972134699e23133d8","null","null","<p style=""font-size: 60px; font-family: BACS"">dRbDbEKBO</p>","","","","","","","","",""
"html-keyboard-response","174","378027","0.0-12.0-0.4","5f11c9f84078cd0888177499","650c16f0f2faf8d7a0d14c09","651c1a5972134699e23133d8","null","null","<p style=""font-size: 60px; font-family: BACS"">vkYGluvJ</p>","","","","","","","","",""
"html-keyboard-response","175","379035","0.0-12.0-0.5","5f11c9f84078cd0888177499","650c16f0f2faf8d7a0d14c09","651c1a5972134699e23133d8","null","null","<p style=""font-size: 60px; font-family: BACS"">JNkamkc</p>","","","","","","","","",""
"html-keyboard-response","176","380036","0.0-12.0-0.6","5f11c9f84078cd0888177499","650c16f0f2faf8d7a0d14c09","651c1a5972134699e23133d8","null","null","<p style=""font-size: 60px; font-family: BACS"">MlthEKBO</p>","","","","","","","","",""
"html-keyboard-response","177","381039","0.0-12.0-0.7","5f11c9f84078cd0888177499","650c16f0f2faf8d7a0d14c09","651c1a5972134699e23133d8","null","null","<p style=""font-size: 60px; font-family: BACS"">ckduAJZr</p>","","","","","","","","",""
"html-keyboard-response","178","382046","0.0-12.0-0.8","5f11c9f84078cd0888177499","650c16f0f2faf8d7a0d14c09","651c1a5972134699e23133d8","null","null","<p style=""font-size: 60px; font-family: BACS"">lTmOTRkY</p>","","","","","","","","",""
"html-keyboard-response","179","383062","0.0-12.0-0.9","5f11c9f84078cd0888177499","650c16f0f2faf8d7a0d14c09","651c1a5972134699e23133d8","null","null","<p style=""font-size: 60px; font-family: BACS"">PctRCTRK</p>","","","","","","","","",""
"html-keyboard-response","180","384066","0.0-12.0-0.10","5f11c9f84078cd0888177499","650c16f0f2faf8d7a0d14c09","651c1a5972134699e23133d8","null","null","<p style=""font-size: 60px; font-family: BACS"">mARMEKBO</p>","","","","","","","","",""
"html-keyboard-response","181","385085","0.0-12.0-0.11","5f11c9f84078cd0888177499","650c16f0f2faf8d7a0d14c09","651c1a5972134699e23133d8","null","null","<p style=""font-size: 60px; font-family: BACS"">vkYGlJZr</p>","","","","","","","","",""
"html-keyboard-response","182","386097","0.0-12.0-0.12","5f11c9f84078cd0888177499","650c16f0f2faf8d7a0d14c09","651c1a5972134699e23133d8","null","null","<p style=""font-size: 60px; font-family: BACS"">dGLAluvJ</p>","","","","","","","","",""
"html-keyboard-response","183","387100","0.0-12.0-0.13","5f11c9f84078cd0888177499","650c16f0f2faf8d7a0d14c09","651c1a5972134699e23133d8","null","null","<p style=""font-size: 60px; font-family: BACS"">lKdbcEKBO</p>","","","","","","","","",""
"html-keyboard-response","184","388115","0.0-12.0-0.14","5f11c9f84078cd0888177499","650c16f0f2faf8d7a0d14c09","651c1a5972134699e23133d8","null","null","<p style=""font-size: 60px; font-family: BACS"">ZdlOJZr</p>","","","","","","","","",""
"html-keyboard-response","185","389123","0.0-12.0-0.15","5f11c9f84078cd0888177499","650c16f0f2faf8d7a0d14c09","651c1a5972134699e23133d8","null","null","<p style=""font-size: 60px; font-family: BACS"">uAkruvJ</p>","","","","","","","","",""
"html-keyboard-response","186","390139","0.0-12.0-0.16","5f11c9f84078cd0888177499","650c16f0f2faf8d7a0d14c09","651c1a5972134699e23133d8","null","null","<p style=""font-size: 60px; font-family: BACS"">DBlhTRkY</p>","","","","","","","","",""
"html-keyboard-response","187","391155","0.0-12.0-0.17","5f11c9f84078cd0888177499","650c16f0f2faf8d7a0d14c09","651c1a5972134699e23133d8","null","null","<p style=""font-size: 60px; font-family: BACS"">JNkamvG</p>","","","","","","","","",""
"html-keyboard-response","188","392170","0.0-12.0-0.18","5f11c9f84078cd0888177499","650c16f0f2faf8d7a0d14c09","651c1a5972134699e23133d8","null","null","<p style=""font-size: 60px; font-family: BACS"">dGLAluUmb</p>","","","","","","","","",""
"html-keyboard-response","189","393175","0.0-12.0-0.19","5f11c9f84078cd0888177499","650c16f0f2faf8d7a0d14c09","651c1a5972134699e23133d8","null","null","<p style=""font-size: 60px; font-family: BACS"">DRPkYTPOM</p>","","","","","","","","",""
"html-keyboard-response","190","394181","0.0-12.0-0.20","5f11c9f84078cd0888177499","650c16f0f2faf8d7a0d14c09","651c1a5972134699e23133d8","null","null","<p style=""font-size: 60px; font-family: BACS"">mARMTRK</p>","","","","","","","","",""
"html-keyboard-response","191","395183","0.0-12.0-0.21","5f11c9f84078cd0888177499","650c16f0f2faf8d7a0d14c09","651c1a5972134699e23133d8","null","null","<p style=""font-size: 60px; font-family: BACS"">COtBDTPOM</p>","","","","","","","","",""
"html-keyboard-response","192","396197","0.0-12.0-0.22","5f11c9f84078cd0888177499","650c16f0f2faf8d7a0d14c09","651c1a5972134699e23133d8","null","null","<p style=""font-size: 60px; font-family: BACS"">dRbDbTRkY</p>","","","","","","","","",""
"html-keyboard-response","193","397214","0.0-12.0-0.23","5f11c9f84078cd0888177499","650c16f0f2faf8d7a0d14c09","651c1a5972134699e23133d8","null","null","<p style=""font-size: 60px; font-family: BACS"">JNkauvJ</p>","","","","","","","","",""
"html-keyboard-response","194","398218","0.0-12.0-0.24","5f11c9f84078cd0888177499","650c16f0f2faf8d7a0d14c09","651c1a5972134699e23133d8","null","null","<p style=""font-size: 60px; font-family: BACS"">ZdlOuUmb</p>","","","","","","","","",""
"html-keyboard-response","195","399220","0.0-12.0-0.25","5f11c9f84078cd0888177499","650c16f0f2faf8d7a0d14c09","651c1a5972134699e23133d8","null","null","<p style=""font-size: 60px; font-family: BACS"">bmdABTRK</p>","","","","","","","","",""
"html-keyboard-response","196","400234","0.0-12.0-0.26","5f11c9f84078cd0888177499","650c16f0f2faf8d7a0d14c09","651c1a5972134699e23133d8","null","null","<p style=""font-size: 60px; font-family: BACS"">DBlhEKBO</p>","","","","","","","","",""
"html-keyboard-response","197","401248","0.0-12.0-0.27","5f11c9f84078cd0888177499","650c16f0f2faf8d7a0d14c09","651c1a5972134699e23133d8","null","null","<p style=""font-size: 60px; font-family: BACS"">PctRCTPOM</p>","","","","","","","","",""
"html-keyboard-response","198","402251","0.0-12.0-0.28","5f11c9f84078cd0888177499","650c16f0f2faf8d7a0d14c09","651c1a5972134699e23133d8","null","null","<p style=""font-size: 60px; font-family: BACS"">ZdlOmvG</p>","","","","","","","","",""
"html-keyboard-response","199","403267","0.0-12.0-0.29","5f11c9f84078cd0888177499","650c16f0f2faf8d7a0d14c09","651c1a5972134699e23133d8","null","null","<p style=""font-size: 60px; font-family: BACS"">vQdOuUmb</p>","","","","","","","","",""
"html-keyboard-response","200","404270","0.0-12.0-0.30","5f11c9f84078cd0888177499","650c16f0f2faf8d7a0d14c09","651c1a5972134699e23133d8","null","null","<p style=""font-size: 60px; font-family: BACS"">ZJLmrmvG</p>","","","","","","","","",""
"html-keyboard-response","201","405274","0.0-12.0-0.31","5f11c9f84078cd0888177499","650c16f0f2faf8d7a0d14c09","651c1a5972134699e23133d8","null","null","<p style=""font-size: 60px; font-family: BACS"">bmdABTRkY</p>","","","","","","","","",""
"html-keyboard-response","202","406287","0.0-12.0-0.32","5f11c9f84078cd0888177499","650c16f0f2faf8d7a0d14c09","651c1a5972134699e23133d8","null","null","<p style=""font-size: 60px; font-family: BACS"">uAkrJZr</p>","","","","","","","","",""
"html-keyboard-response","203","407303","0.0-12.0-0.33","5f11c9f84078cd0888177499","650c16f0f2faf8d7a0d14c09","651c1a5972134699e23133d8","null","null","<p style=""font-size: 60px; font-family: BACS"">dRbDbRDM</p>","","","","","","","","",""
"html-keyboard-response","204","408305","0.0-12.0-0.34","5f11c9f84078cd0888177499","650c16f0f2faf8d7a0d14c09","651c1a5972134699e23133d8","null","null","<p style=""font-size: 60px; font-family: BACS"">ZJLmrJZr</p>","","","","","","","","",""
"html-keyboard-response","205","409308","0.0-12.0-0.35","5f11c9f84078cd0888177499","650c16f0f2faf8d7a0d14c09","651c1a5972134699e23133d8","null","null","<p style=""font-size: 60px; font-family: BACS"">ZdlOmkc</p>","","","","","","","","",""
"html-keyboard-response","206","410323","0.0-12.0-0.36","5f11c9f84078cd0888177499","650c16f0f2faf8d7a0d14c09","651c1a5972134699e23133d8","null","null","<p style=""font-size: 60px; font-family: BACS"">lTmOTPOM</p>","","","","","","","","",""
"html-keyboard-response","207","411328","0.0-12.0-0.37","5f11c9f84078cd0888177499","650c16f0f2faf8d7a0d14c09","651c1a5972134699e23133d8","null","null","<p style=""font-size: 60px; font-family: BACS"">uAkruUmb</p>","","","","","","","","",""
"html-keyboard-response","208","412342","0.0-12.0-0.38","5f11c9f84078cd0888177499","650c16f0f2faf8d7a0d14c09","651c1a5972134699e23133d8","null","null","<p style=""font-size: 60px; font-family: BACS"">vQdOuvJ</p>","","","","","","","","",""
"html-keyboard-response","209","413356","0.0-12.0-0.39","5f11c9f84078cd0888177499","650c16f0f2faf8d7a0d14c09","651c1a5972134699e23133d8","null","null","<p style=""font-size: 60px; font-family: BACS"">ZJLmrmkc</p>","","","","","","","","",""
"html-keyboard-response","210","414368","0.0-12.0-0.40","5f11c9f84078cd0888177499","650c16f0f2faf8d7a0d14c09","651c1a5972134699e23133d8","null","null","<p style=""font-size: 60px; font-family: BACS"">dGLAlJZr</p>","","","","","","","","",""
"html-keyboard-response","211","415369","0.0-12.0-0.41","5f11c9f84078cd0888177499","650c16f0f2faf8d7a0d14c09","651c1a5972134699e23133d8","null","null","<p style=""font-size: 60px; font-family: BACS"">MlthRDM</p>","","","","","","","","",""
"html-keyboard-response","212","416381","0.0-12.0-0.42","5f11c9f84078cd0888177499","650c16f0f2faf8d7a0d14c09","651c1a5972134699e23133d8","null","null","<p style=""font-size: 60px; font-family: BACS"">mARMTPOM</p>","","","","","","","","",""
"html-keyboard-response","213","417394","0.0-12.0-0.43","5f11c9f84078cd0888177499","650c16f0f2faf8d7a0d14c09","651c1a5972134699e23133d8","null","null","<p style=""font-size: 60px; font-family: BACS"">DBlhRDM</p>","","","","","","","","",""
"html-keyboard-response","214","418412","0.0-12.0-0.44","5f11c9f84078cd0888177499","650c16f0f2faf8d7a0d14c09","651c1a5972134699e23133d8","null","null","<p style=""font-size: 60px; font-family: BACS"">uAkrmkc</p>","","","","","","","","",""
"html-keyboard-response","215","419426","0.0-12.0-0.45","5f11c9f84078cd0888177499","650c16f0f2faf8d7a0d14c09","651c1a5972134699e23133d8","null","null","<p style=""font-size: 60px; font-family: BACS"">NaJbmvG</p>","","","","","","","","",""
"html-keyboard-response","216","420432","0.0-12.0-0.46","5f11c9f84078cd0888177499","650c16f0f2faf8d7a0d14c09","651c1a5972134699e23133d8","null","null","<p style=""font-size: 60px; font-family: BACS"">PctRCRDM</p>","","","","","","","","",""
"html-keyboard-response","217","421448","0.0-12.0-0.47","5f11c9f84078cd0888177499","650c16f0f2faf8d7a0d14c09","651c1a5972134699e23133d8","null","null","<p style=""font-size: 60px; font-family: BACS"">dRbDbTRK</p>","","","","","","","","",""
"html-keyboard-response","218","422458","0.0-12.0-0.48","5f11c9f84078cd0888177499","650c16f0f2faf8d7a0d14c09","651c1a5972134699e23133d8","null","null","<p style=""font-size: 60px; font-family: BACS"">lKdbcRDM</p>","","","","","","","","",""
"html-keyboard-response","219","423464","0.0-12.0-0.49","5f11c9f84078cd0888177499","650c16f0f2faf8d7a0d14c09","651c1a5972134699e23133d8","null","null","<p style=""font-size: 60px; font-family: BACS"">vQdOJZr</p>","","","","","","","","",""
"html-keyboard-response","220","424466","0.0-12.0-0.50","5f11c9f84078cd0888177499","650c16f0f2faf8d7a0d14c09","651c1a5972134699e23133d8","null","null","<p style=""font-size: 60px; font-family: BACS"">JNkauUmb</p>","","","","","","","","",""
"html-keyboard-response","221","425468","0.0-12.0-0.51","5f11c9f84078cd0888177499","650c16f0f2faf8d7a0d14c09","651c1a5972134699e23133d8","null","null","<p style=""font-size: 60px; font-family: BACS"">PctRCTRkY</p>","","","","","","","","",""
"html-keyboard-response","222","426484","0.0-12.0-0.52","5f11c9f84078cd0888177499","650c16f0f2faf8d7a0d14c09","651c1a5972134699e23133d8","null","null","<p style=""font-size: 60px; font-family: BACS"">DRPkYTRK</p>","","","","","","","","",""
"html-keyboard-response","223","427497","0.0-12.0-0.53","5f11c9f84078cd0888177499","650c16f0f2faf8d7a0d14c09","651c1a5972134699e23133d8","null","null","<p style=""font-size: 60px; font-family: BACS"">ckduAmkc</p>","","","","","","","","",""
"html-keyboard-response","224","428499","0.0-12.0-0.54","5f11c9f84078cd0888177499","650c16f0f2faf8d7a0d14c09","651c1a5972134699e23133d8","null","null","<p style=""font-size: 60px; font-family: BACS"">lTmOEKBO</p>","","","","","","","","",""
"html-keyboard-response","225","429510","0.0-12.0-0.55","5f11c9f84078cd0888177499","650c16f0f2faf8d7a0d14c09","651c1a5972134699e23133d8","null","null","<p style=""font-size: 60px; font-family: BACS"">bmdABTPOM</p>","","","","","","","","",""
"html-keyboard-response","226","430526","0.0-12.0-0.56","5f11c9f84078cd0888177499","650c16f0f2faf8d7a0d14c09","651c1a5972134699e23133d8","null","null","<p style=""font-size: 60px; font-family: BACS"">lTmORDM</p>","","","","","","","","",""
"html-keyboard-response","227","431538","0.0-12.0-0.57","5f11c9f84078cd0888177499","650c16f0f2faf8d7a0d14c09","651c1a5972134699e23133d8","null","null","<p style=""font-size: 60px; font-family: BACS"">vQdOmkc</p>","","","","","","","","",""
"html-keyboard-response","228","432552","0.0-12.0-0.58","5f11c9f84078cd0888177499","650c16f0f2faf8d7a0d14c09","651c1a5972134699e23133d8","null","null","<p style=""font-size: 60px; font-family: BACS"">DRPkYEKBO</p>","","","","","","","","",""
"html-keyboard-response","229","433555","0.0-12.0-0.59","5f11c9f84078cd0888177499","650c16f0f2faf8d7a0d14c09","651c1a5972134699e23133d8","null","null","<p style=""font-size: 60px; font-family: BACS"">QcladmvG</p>","","","","","","","","",""
"html-keyboard-response","230","434557","0.0-12.0-0.60","5f11c9f84078cd0888177499","650c16f0f2faf8d7a0d14c09","651c1a5972134699e23133d8","null","null","<p style=""font-size: 60px; font-family: BACS"">MlthTRK</p>","","","","","","","","",""
"html-keyboard-response","231","435568","0.0-12.0-0.61","5f11c9f84078cd0888177499","650c16f0f2faf8d7a0d14c09","651c1a5972134699e23133d8","null","null","<p style=""font-size: 60px; font-family: BACS"">NaJbmkc</p>","","","","","","","","",""
"html-keyboard-response","232","436572","0.0-12.0-0.62","5f11c9f84078cd0888177499","650c16f0f2faf8d7a0d14c09","651c1a5972134699e23133d8","null","null","<p style=""font-size: 60px; font-family: BACS"">vkYGlmvG</p>","","","","","","","","",""
"html-keyboard-response","233","437580","0.0-12.0-0.63","5f11c9f84078cd0888177499","650c16f0f2faf8d7a0d14c09","651c1a5972134699e23133d8","null","null","<p style=""font-size: 60px; font-family: BACS"">mARMTRkY</p>","","","","","","","","",""
"html-keyboard-response","234","438582","0.0-12.0-0.64","5f11c9f84078cd0888177499","650c16f0f2faf8d7a0d14c09","651c1a5972134699e23133d8","null","null","<p style=""font-size: 60px; font-family: BACS"">DBlhTRK</p>","","","","","","","","",""
"html-keyboard-response","235","439594","0.0-12.0-0.65","5f11c9f84078cd0888177499","650c16f0f2faf8d7a0d14c09","651c1a5972134699e23133d8","null","null","<p style=""font-size: 60px; font-family: BACS"">ZJLmruvJ</p>","","","","","","","","",""
"html-keyboard-response","236","440607","0.0-12.0-0.66","5f11c9f84078cd0888177499","650c16f0f2faf8d7a0d14c09","651c1a5972134699e23133d8","null","null","<p style=""font-size: 60px; font-family: BACS"">lKdbcTRkY</p>","","","","","","","","",""
"html-keyboard-response","237","441610","0.0-12.0-0.67","5f11c9f84078cd0888177499","650c16f0f2faf8d7a0d14c09","651c1a5972134699e23133d8","null","null","<p style=""font-size: 60px; font-family: BACS"">ckduAuvJ</p>","","","","","","","","",""
"html-keyboard-response","238","442624","0.0-12.0-0.68","5f11c9f84078cd0888177499","650c16f0f2faf8d7a0d14c09","651c1a5972134699e23133d8","null","null","<p style=""font-size: 60px; font-family: BACS"">DRPkYRDM</p>","","","","","","","","",""
"html-keyboard-response","239","443626","0.0-12.0-0.69","5f11c9f84078cd0888177499","650c16f0f2faf8d7a0d14c09","651c1a5972134699e23133d8","null","null","<p style=""font-size: 60px; font-family: BACS"">dGLAlmvG</p>","","","","","","","","",""
"html-keyboard-response","240","444640","0.0-12.0-0.70","5f11c9f84078cd0888177499","650c16f0f2faf8d7a0d14c09","651c1a5972134699e23133d8","null","null","<p style=""font-size: 60px; font-family: BACS"">NaJbJZr</p>","","","","","","","","",""
"html-keyboard-response","241","445643","0.0-12.0-0.71","5f11c9f84078cd0888177499","650c16f0f2faf8d7a0d14c09","651c1a5972134699e23133d8","null","null","<p style=""font-size: 60px; font-family: BACS"">COtBDTRkY</p>","","","","","","","","",""
"html-keyboard-response","242","446657","0.0-12.0-0.72","5f11c9f84078cd0888177499","650c16f0f2faf8d7a0d14c09","651c1a5972134699e23133d8","null","null","<p style=""font-size: 60px; font-family: BACS"">NaJbuUmb</p>","","","","","","","","",""
"html-keyboard-response","243","447661","0.0-12.0-0.73","5f11c9f84078cd0888177499","650c16f0f2faf8d7a0d14c09","651c1a5972134699e23133d8","null","null","<p style=""font-size: 60px; font-family: BACS"">QcladuvJ</p>","","","","","","","","",""
"html-keyboard-response","244","448666","0.0-12.0-0.74","5f11c9f84078cd0888177499","650c16f0f2faf8d7a0d14c09","651c1a5972134699e23133d8","null","null","<p style=""font-size: 60px; font-family: BACS"">lKdbcTPOM</p>","","","","","","","","",""
"html-keyboard-response","245","449667","0.0-12.0-0.75","5f11c9f84078cd0888177499","650c16f0f2faf8d7a0d14c09","651c1a5972134699e23133d8","null","null","<p style=""font-size: 60px; font-family: BACS"">bmdABRDM</p>","","","","","","","","",""
"html-keyboard-response","246","450680","0.0-12.0-0.76","5f11c9f84078cd0888177499","650c16f0f2faf8d7a0d14c09","651c1a5972134699e23133d8","null","null","<p style=""font-size: 60px; font-family: BACS"">QcladuUmb</p>","","","","","","","","",""
"html-keyboard-response","247","451693","0.0-12.0-0.77","5f11c9f84078cd0888177499","650c16f0f2faf8d7a0d14c09","651c1a5972134699e23133d8","null","null","<p style=""font-size: 60px; font-family: BACS"">COtBDEKBO</p>","","","","","","","","",""
"html-keyboard-response","248","452695","0.0-12.0-0.78","5f11c9f84078cd0888177499","650c16f0f2faf8d7a0d14c09","651c1a5972134699e23133d8","null","null","<p style=""font-size: 60px; font-family: BACS"">MlthTPOM</p>","","","","","","","","",""
"html-keyboard-response","249","453707","0.0-12.0-0.79","5f11c9f84078cd0888177499","650c16f0f2faf8d7a0d14c09","651c1a5972134699e23133d8","null","null","<p style=""font-size: 60px; font-family: BACS"">ckduAmvG</p>","","","","","","","","",""
"html-keyboard-response","250","468421","0.0-13.0","5f11c9f84078cd0888177499","650c16f0f2faf8d7a0d14c09","651c1a5972134699e23133d8","14712"," ","<p>Great, you've seen the third block of words. You may now take a short break.</p>
      <p>Press the spacebar when you're ready to continue.</p>","","","","","","","","",""
"html-keyboard-response","251","469427","0.0-14.0-0.0","5f11c9f84078cd0888177499","650c16f0f2faf8d7a0d14c09","651c1a5972134699e23133d8","null","null","<p style=""font-size: 60px; font-family: BACS"">ZJLmrmvG</p>","","","","","","","","",""
"html-keyboard-response","252","470441","0.0-14.0-0.1","5f11c9f84078cd0888177499","650c16f0f2faf8d7a0d14c09","651c1a5972134699e23133d8","null","null","<p style=""font-size: 60px; font-family: BACS"">ZdlOmkc</p>","","","","","","","","",""
"html-keyboard-response","253","471456","0.0-14.0-0.2","5f11c9f84078cd0888177499","650c16f0f2faf8d7a0d14c09","651c1a5972134699e23133d8","null","null","<p style=""font-size: 60px; font-family: BACS"">vQdOuUmb</p>","","","","","","","","",""
"html-keyboard-response","254","472470","0.0-14.0-0.3","5f11c9f84078cd0888177499","650c16f0f2faf8d7a0d14c09","651c1a5972134699e23133d8","null","null","<p style=""font-size: 60px; font-family: BACS"">ckduAuvJ</p>","","","","","","","","",""
"html-keyboard-response","255","473475","0.0-14.0-0.4","5f11c9f84078cd0888177499","650c16f0f2faf8d7a0d14c09","651c1a5972134699e23133d8","null","null","<p style=""font-size: 60px; font-family: BACS"">ZdlOmvG</p>","","","","","","","","",""
"html-keyboard-response","256","474488","0.0-14.0-0.5","5f11c9f84078cd0888177499","650c16f0f2faf8d7a0d14c09","651c1a5972134699e23133d8","null","null","<p style=""font-size: 60px; font-family: BACS"">NaJbmkc</p>","","","","","","","","",""
"html-keyboard-response","257","475500","0.0-14.0-0.6","5f11c9f84078cd0888177499","650c16f0f2faf8d7a0d14c09","651c1a5972134699e23133d8","null","null","<p style=""font-size: 60px; font-family: BACS"">MlthTRK</p>","","","","","","","","",""
"html-keyboard-response","258","476506","0.0-14.0-0.7","5f11c9f84078cd0888177499","650c16f0f2faf8d7a0d14c09","651c1a5972134699e23133d8","null","null","<p style=""font-size: 60px; font-family: BACS"">uAkruUmb</p>","","","","","","","","",""
"html-keyboard-response","259","477522","0.0-14.0-0.8","5f11c9f84078cd0888177499","650c16f0f2faf8d7a0d14c09","651c1a5972134699e23133d8","null","null","<p style=""font-size: 60px; font-family: BACS"">bmdABTPOM</p>","","","","","","","","",""
"html-keyboard-response","260","478537","0.0-14.0-0.9","5f11c9f84078cd0888177499","650c16f0f2faf8d7a0d14c09","651c1a5972134699e23133d8","null","null","<p style=""font-size: 60px; font-family: BACS"">DRPkYTRK</p>","","","","","","","","",""
"html-keyboard-response","261","479553","0.0-14.0-0.10","5f11c9f84078cd0888177499","650c16f0f2faf8d7a0d14c09","651c1a5972134699e23133d8","null","null","<p style=""font-size: 60px; font-family: BACS"">lKdbcEKBO</p>","","","","","","","","",""
"html-keyboard-response","262","480557","0.0-14.0-0.11","5f11c9f84078cd0888177499","650c16f0f2faf8d7a0d14c09","651c1a5972134699e23133d8","null","null","<p style=""font-size: 60px; font-family: BACS"">vQdOmkc</p>","","","","","","","","",""
"html-keyboard-response","263","481559","0.0-14.0-0.12","5f11c9f84078cd0888177499","650c16f0f2faf8d7a0d14c09","651c1a5972134699e23133d8","null","null","<p style=""font-size: 60px; font-family: BACS"">mARMTPOM</p>","","","","","","","","",""
"html-keyboard-response","264","482569","0.0-14.0-0.13","5f11c9f84078cd0888177499","650c16f0f2faf8d7a0d14c09","651c1a5972134699e23133d8","null","null","<p style=""font-size: 60px; font-family: BACS"">DRPkYRDM</p>","","","","","","","","",""
"html-keyboard-response","265","483572","0.0-14.0-0.14","5f11c9f84078cd0888177499","650c16f0f2faf8d7a0d14c09","651c1a5972134699e23133d8","null","null","<p style=""font-size: 60px; font-family: BACS"">lTmOEKBO</p>","","","","","","","","",""
"html-keyboard-response","266","484587","0.0-14.0-0.15","5f11c9f84078cd0888177499","650c16f0f2faf8d7a0d14c09","651c1a5972134699e23133d8","null","null","<p style=""font-size: 60px; font-family: BACS"">dRbDbTRkY</p>","","","","","","","","",""
"html-keyboard-response","267","485593","0.0-14.0-0.16","5f11c9f84078cd0888177499","650c16f0f2faf8d7a0d14c09","651c1a5972134699e23133d8","null","null","<p style=""font-size: 60px; font-family: BACS"">dGLAlJZr</p>","","","","","","","","",""
"html-keyboard-response","268","486598","0.0-14.0-0.17","5f11c9f84078cd0888177499","650c16f0f2faf8d7a0d14c09","651c1a5972134699e23133d8","null","null","<p style=""font-size: 60px; font-family: BACS"">bmdABTRK</p>","","","","","","","","",""
"html-keyboard-response","269","487613","0.0-14.0-0.18","5f11c9f84078cd0888177499","650c16f0f2faf8d7a0d14c09","651c1a5972134699e23133d8","null","null","<p style=""font-size: 60px; font-family: BACS"">MlthEKBO</p>","","","","","","","","",""
"html-keyboard-response","270","488628","0.0-14.0-0.19","5f11c9f84078cd0888177499","650c16f0f2faf8d7a0d14c09","651c1a5972134699e23133d8","null","null","<p style=""font-size: 60px; font-family: BACS"">JNkamvG</p>","","","","","","","","",""
"html-keyboard-response","271","489643","0.0-14.0-0.20","5f11c9f84078cd0888177499","650c16f0f2faf8d7a0d14c09","651c1a5972134699e23133d8","null","null","<p style=""font-size: 60px; font-family: BACS"">dRbDbEKBO</p>","","","","","","","","",""
"html-keyboard-response","272","490647","0.0-14.0-0.21","5f11c9f84078cd0888177499","650c16f0f2faf8d7a0d14c09","651c1a5972134699e23133d8","null","null","<p style=""font-size: 60px; font-family: BACS"">mARMTRkY</p>","","","","","","","","",""
"html-keyboard-response","273","491650","0.0-14.0-0.22","5f11c9f84078cd0888177499","650c16f0f2faf8d7a0d14c09","651c1a5972134699e23133d8","null","null","<p style=""font-size: 60px; font-family: BACS"">uAkrJZr</p>","","","","","","","","",""
"html-keyboard-response","274","492659","0.0-14.0-0.23","5f11c9f84078cd0888177499","650c16f0f2faf8d7a0d14c09","651c1a5972134699e23133d8","null","null","<p style=""font-size: 60px; font-family: BACS"">Qcladmkc</p>","","","","","","","","",""
"html-keyboard-response","275","493673","0.0-14.0-0.24","5f11c9f84078cd0888177499","650c16f0f2faf8d7a0d14c09","651c1a5972134699e23133d8","null","null","<p style=""font-size: 60px; font-family: BACS"">DRPkYTPOM</p>","","","","","","","","",""
"html-keyboard-response","276","494687","0.0-14.0-0.25","5f11c9f84078cd0888177499","650c16f0f2faf8d7a0d14c09","651c1a5972134699e23133d8","null","null","<p style=""font-size: 60px; font-family: BACS"">vQdOuvJ</p>","","","","","","","","",""
"html-keyboard-response","277","495701","0.0-14.0-0.26","5f11c9f84078cd0888177499","650c16f0f2faf8d7a0d14c09","651c1a5972134699e23133d8","null","null","<p style=""font-size: 60px; font-family: BACS"">DBlhTRkY</p>","","","","","","","","",""
"html-keyboard-response","278","496716","0.0-14.0-0.27","5f11c9f84078cd0888177499","650c16f0f2faf8d7a0d14c09","651c1a5972134699e23133d8","null","null","<p style=""font-size: 60px; font-family: BACS"">ckduAmkc</p>","","","","","","","","",""
"html-keyboard-response","279","497726","0.0-14.0-0.28","5f11c9f84078cd0888177499","650c16f0f2faf8d7a0d14c09","651c1a5972134699e23133d8","null","null","<p style=""font-size: 60px; font-family: BACS"">lTmORDM</p>","","","","","","","","",""
"html-keyboard-response","280","498728","0.0-14.0-0.29","5f11c9f84078cd0888177499","650c16f0f2faf8d7a0d14c09","651c1a5972134699e23133d8","null","null","<p style=""font-size: 60px; font-family: BACS"">NaJbJZr</p>","","","","","","","","",""
"html-keyboard-response","281","499730","0.0-14.0-0.30","5f11c9f84078cd0888177499","650c16f0f2faf8d7a0d14c09","651c1a5972134699e23133d8","null","null","<p style=""font-size: 60px; font-family: BACS"">lTmOTPOM</p>","","","","","","","","",""
"html-keyboard-response","282","500733","0.0-14.0-0.31","5f11c9f84078cd0888177499","650c16f0f2faf8d7a0d14c09","651c1a5972134699e23133d8","null","null","<p style=""font-size: 60px; font-family: BACS"">DRPkYEKBO</p>","","","","","","","","",""
"html-keyboard-response","283","501738","0.0-14.0-0.32","5f11c9f84078cd0888177499","650c16f0f2faf8d7a0d14c09","651c1a5972134699e23133d8","null","null","<p style=""font-size: 60px; font-family: BACS"">JNkauUmb</p>","","","","","","","","",""
"html-keyboard-response","284","502745","0.0-14.0-0.33","5f11c9f84078cd0888177499","650c16f0f2faf8d7a0d14c09","651c1a5972134699e23133d8","null","null","<p style=""font-size: 60px; font-family: BACS"">COtBDEKBO</p>","","","","","","","","",""
"html-keyboard-response","285","503747","0.0-14.0-0.34","5f11c9f84078cd0888177499","650c16f0f2faf8d7a0d14c09","651c1a5972134699e23133d8","null","null","<p style=""font-size: 60px; font-family: BACS"">dGLAluvJ</p>","","","","","","","","",""
"html-keyboard-response","286","504749","0.0-14.0-0.35","5f11c9f84078cd0888177499","650c16f0f2faf8d7a0d14c09","651c1a5972134699e23133d8","null","null","<p style=""font-size: 60px; font-family: BACS"">DBlhEKBO</p>","","","","","","","","",""
"html-keyboard-response","287","505760","0.0-14.0-0.36","5f11c9f84078cd0888177499","650c16f0f2faf8d7a0d14c09","651c1a5972134699e23133d8","null","null","<p style=""font-size: 60px; font-family: BACS"">PctRCTPOM</p>","","","","","","","","",""
"html-keyboard-response","288","506775","0.0-14.0-0.37","5f11c9f84078cd0888177499","650c16f0f2faf8d7a0d14c09","651c1a5972134699e23133d8","null","null","<p style=""font-size: 60px; font-family: BACS"">vkYGlJZr</p>","","","","","","","","",""
"html-keyboard-response","289","507780","0.0-14.0-0.38","5f11c9f84078cd0888177499","650c16f0f2faf8d7a0d14c09","651c1a5972134699e23133d8","null","null","<p style=""font-size: 60px; font-family: BACS"">QcladuUmb</p>","","","","","","","","",""
"html-keyboard-response","290","508784","0.0-14.0-0.39","5f11c9f84078cd0888177499","650c16f0f2faf8d7a0d14c09","651c1a5972134699e23133d8","null","null","<p style=""font-size: 60px; font-family: BACS"">ZJLmrJZr</p>","","","","","","","","",""
"html-keyboard-response","291","509786","0.0-14.0-0.40","5f11c9f84078cd0888177499","650c16f0f2faf8d7a0d14c09","651c1a5972134699e23133d8","null","null","<p style=""font-size: 60px; font-family: BACS"">MlthTPOM</p>","","","","","","","","",""
"html-keyboard-response","292","510792","0.0-14.0-0.41","5f11c9f84078cd0888177499","650c16f0f2faf8d7a0d14c09","651c1a5972134699e23133d8","null","null","<p style=""font-size: 60px; font-family: BACS"">ZJLmruvJ</p>","","","","","","","","",""
"html-keyboard-response","293","511808","0.0-14.0-0.42","5f11c9f84078cd0888177499","650c16f0f2faf8d7a0d14c09","651c1a5972134699e23133d8","null","null","<p style=""font-size: 60px; font-family: BACS"">bmdABRDM</p>","","","","","","","","",""
"html-keyboard-response","294","512811","0.0-14.0-0.43","5f11c9f84078cd0888177499","650c16f0f2faf8d7a0d14c09","651c1a5972134699e23133d8","null","null","<p style=""font-size: 60px; font-family: BACS"">uAkruvJ</p>","","","","","","","","",""
"html-keyboard-response","295","513824","0.0-14.0-0.44","5f11c9f84078cd0888177499","650c16f0f2faf8d7a0d14c09","651c1a5972134699e23133d8","null","null","<p style=""font-size: 60px; font-family: BACS"">lTmOTRkY</p>","","","","","","","","",""
"html-keyboard-response","296","514837","0.0-14.0-0.45","5f11c9f84078cd0888177499","650c16f0f2faf8d7a0d14c09","651c1a5972134699e23133d8","null","null","<p style=""font-size: 60px; font-family: BACS"">JNkamkc</p>","","","","","","","","",""
"html-keyboard-response","297","515848","0.0-14.0-0.46","5f11c9f84078cd0888177499","650c16f0f2faf8d7a0d14c09","651c1a5972134699e23133d8","null","null","<p style=""font-size: 60px; font-family: BACS"">lKdbcRDM</p>","","","","","","","","",""
"html-keyboard-response","298","516858","0.0-14.0-0.47","5f11c9f84078cd0888177499","650c16f0f2faf8d7a0d14c09","651c1a5972134699e23133d8","null","null","<p style=""font-size: 60px; font-family: BACS"">ZJLmrmkc</p>","","","","","","","","",""
"html-keyboard-response","299","517871","0.0-14.0-0.48","5f11c9f84078cd0888177499","650c16f0f2faf8d7a0d14c09","651c1a5972134699e23133d8","null","null","<p style=""font-size: 60px; font-family: BACS"">MlthRDM</p>","","","","","","","","",""
"html-keyboard-response","300","518885","0.0-14.0-0.49","5f11c9f84078cd0888177499","650c16f0f2faf8d7a0d14c09","651c1a5972134699e23133d8","null","null","<p style=""font-size: 60px; font-family: BACS"">COtBDTPOM</p>","","","","","","","","",""
"html-keyboard-response","301","519887","0.0-14.0-0.50","5f11c9f84078cd0888177499","650c16f0f2faf8d7a0d14c09","651c1a5972134699e23133d8","null","null","<p style=""font-size: 60px; font-family: BACS"">NaJbmvG</p>","","","","","","","","",""
"html-keyboard-response","302","520903","0.0-14.0-0.51","5f11c9f84078cd0888177499","650c16f0f2faf8d7a0d14c09","651c1a5972134699e23133d8","null","null","<p style=""font-size: 60px; font-family: BACS"">bmdABTRkY</p>","","","","","","","","",""
"html-keyboard-response","303","521910","0.0-14.0-0.52","5f11c9f84078cd0888177499","650c16f0f2faf8d7a0d14c09","651c1a5972134699e23133d8","null","null","<p style=""font-size: 60px; font-family: BACS"">NaJbuUmb</p>","","","","","","","","",""
"html-keyboard-response","304","522923","0.0-14.0-0.53","5f11c9f84078cd0888177499","650c16f0f2faf8d7a0d14c09","651c1a5972134699e23133d8","null","null","<p style=""font-size: 60px; font-family: BACS"">PctRCRDM</p>","","","","","","","","",""
"html-keyboard-response","305","523939","0.0-14.0-0.54","5f11c9f84078cd0888177499","650c16f0f2faf8d7a0d14c09","651c1a5972134699e23133d8","null","null","<p style=""font-size: 60px; font-family: BACS"">ZdlOuUmb</p>","","","","","","","","",""
"html-keyboard-response","306","524955","0.0-14.0-0.55","5f11c9f84078cd0888177499","650c16f0f2faf8d7a0d14c09","651c1a5972134699e23133d8","null","null","<p style=""font-size: 60px; font-family: BACS"">lKdbcTRkY</p>","","","","","","","","",""
"html-keyboard-response","307","525971","0.0-14.0-0.56","5f11c9f84078cd0888177499","650c16f0f2faf8d7a0d14c09","651c1a5972134699e23133d8","null","null","<p style=""font-size: 60px; font-family: BACS"">ZdlOJZr</p>","","","","","","","","",""
"html-keyboard-response","308","526974","0.0-14.0-0.57","5f11c9f84078cd0888177499","650c16f0f2faf8d7a0d14c09","651c1a5972134699e23133d8","null","null","<p style=""font-size: 60px; font-family: BACS"">vkYGluvJ</p>","","","","","","","","",""
"html-keyboard-response","309","527978","0.0-14.0-0.58","5f11c9f84078cd0888177499","650c16f0f2faf8d7a0d14c09","651c1a5972134699e23133d8","null","null","<p style=""font-size: 60px; font-family: BACS"">ckduAmvG</p>","","","","","","","","",""
"html-keyboard-response","310","528993","0.0-14.0-0.59","5f11c9f84078cd0888177499","650c16f0f2faf8d7a0d14c09","651c1a5972134699e23133d8","null","null","<p style=""font-size: 60px; font-family: BACS"">COtBDTRkY</p>","","","","","","","","",""
"html-keyboard-response","311","529994","0.0-14.0-0.60","5f11c9f84078cd0888177499","650c16f0f2faf8d7a0d14c09","651c1a5972134699e23133d8","null","null","<p style=""font-size: 60px; font-family: BACS"">QcladmvG</p>","","","","","","","","",""
"html-keyboard-response","312","531008","0.0-14.0-0.61","5f11c9f84078cd0888177499","650c16f0f2faf8d7a0d14c09","651c1a5972134699e23133d8","null","null","<p style=""font-size: 60px; font-family: BACS"">dRbDbRDM</p>","","","","","","","","",""
"html-keyboard-response","313","532023","0.0-14.0-0.62","5f11c9f84078cd0888177499","650c16f0f2faf8d7a0d14c09","651c1a5972134699e23133d8","null","null","<p style=""font-size: 60px; font-family: BACS"">vkYGlmvG</p>","","","","","","","","",""
"html-keyboard-response","314","533037","0.0-14.0-0.63","5f11c9f84078cd0888177499","650c16f0f2faf8d7a0d14c09","651c1a5972134699e23133d8","null","null","<p style=""font-size: 60px; font-family: BACS"">mARMEKBO</p>","","","","","","","","",""
"html-keyboard-response","315","534051","0.0-14.0-0.64","5f11c9f84078cd0888177499","650c16f0f2faf8d7a0d14c09","651c1a5972134699e23133d8","null","null","<p style=""font-size: 60px; font-family: BACS"">DBlhRDM</p>","","","","","","","","",""
"html-keyboard-response","316","535064","0.0-14.0-0.65","5f11c9f84078cd0888177499","650c16f0f2faf8d7a0d14c09","651c1a5972134699e23133d8","null","null","<p style=""font-size: 60px; font-family: BACS"">QcladuvJ</p>","","","","","","","","",""
"html-keyboard-response","317","536067","0.0-14.0-0.66","5f11c9f84078cd0888177499","650c16f0f2faf8d7a0d14c09","651c1a5972134699e23133d8","null","null","<p style=""font-size: 60px; font-family: BACS"">PctRCTRkY</p>","","","","","","","","",""
"html-keyboard-response","318","537070","0.0-14.0-0.67","5f11c9f84078cd0888177499","650c16f0f2faf8d7a0d14c09","651c1a5972134699e23133d8","null","null","<p style=""font-size: 60px; font-family: BACS"">DBlhTRK</p>","","","","","","","","",""
"html-keyboard-response","319","538083","0.0-14.0-0.68","5f11c9f84078cd0888177499","650c16f0f2faf8d7a0d14c09","651c1a5972134699e23133d8","null","null","<p style=""font-size: 60px; font-family: BACS"">dGLAlmvG</p>","","","","","","","","",""
"html-keyboard-response","320","539097","0.0-14.0-0.69","5f11c9f84078cd0888177499","650c16f0f2faf8d7a0d14c09","651c1a5972134699e23133d8","null","null","<p style=""font-size: 60px; font-family: BACS"">ckduAJZr</p>","","","","","","","","",""
"html-keyboard-response","321","540100","0.0-14.0-0.70","5f11c9f84078cd0888177499","650c16f0f2faf8d7a0d14c09","651c1a5972134699e23133d8","null","null","<p style=""font-size: 60px; font-family: BACS"">dGLAluUmb</p>","","","","","","","","",""
"html-keyboard-response","322","541117","0.0-14.0-0.71","5f11c9f84078cd0888177499","650c16f0f2faf8d7a0d14c09","651c1a5972134699e23133d8","null","null","<p style=""font-size: 60px; font-family: BACS"">COtBDTRK</p>","","","","","","","","",""
"html-keyboard-response","323","542133","0.0-14.0-0.72","5f11c9f84078cd0888177499","650c16f0f2faf8d7a0d14c09","651c1a5972134699e23133d8","null","null","<p style=""font-size: 60px; font-family: BACS"">lKdbcTPOM</p>","","","","","","","","",""
"html-keyboard-response","324","543150","0.0-14.0-0.73","5f11c9f84078cd0888177499","650c16f0f2faf8d7a0d14c09","651c1a5972134699e23133d8","null","null","<p style=""font-size: 60px; font-family: BACS"">dRbDbTRK</p>","","","","","","","","",""
"html-keyboard-response","325","544165","0.0-14.0-0.74","5f11c9f84078cd0888177499","650c16f0f2faf8d7a0d14c09","651c1a5972134699e23133d8","null","null","<p style=""font-size: 60px; font-family: BACS"">vQdOJZr</p>","","","","","","","","",""
"html-keyboard-response","326","545179","0.0-14.0-0.75","5f11c9f84078cd0888177499","650c16f0f2faf8d7a0d14c09","651c1a5972134699e23133d8","null","null","<p style=""font-size: 60px; font-family: BACS"">PctRCTRK</p>","","","","","","","","",""
"html-keyboard-response","327","546196","0.0-14.0-0.76","5f11c9f84078cd0888177499","650c16f0f2faf8d7a0d14c09","651c1a5972134699e23133d8","null","null","<p style=""font-size: 60px; font-family: BACS"">vkYGluUmb</p>","","","","","","","","",""
"html-keyboard-response","328","547208","0.0-14.0-0.77","5f11c9f84078cd0888177499","650c16f0f2faf8d7a0d14c09","651c1a5972134699e23133d8","null","null","<p style=""font-size: 60px; font-family: BACS"">JNkauvJ</p>","","","","","","","","",""
"html-keyboard-response","329","548224","0.0-14.0-0.78","5f11c9f84078cd0888177499","650c16f0f2faf8d7a0d14c09","651c1a5972134699e23133d8","null","null","<p style=""font-size: 60px; font-family: BACS"">mARMTRK</p>","","","","","","","","",""
"html-keyboard-response","330","549237","0.0-14.0-0.79","5f11c9f84078cd0888177499","650c16f0f2faf8d7a0d14c09","651c1a5972134699e23133d8","null","null","<p style=""font-size: 60px; font-family: BACS"">uAkrmkc</p>","","","","","","","","",""
"html-keyboard-response","331","574062","0.0-15.0","5f11c9f84078cd0888177499","650c16f0f2faf8d7a0d14c09","651c1a5972134699e23133d8","24824"," ","<p>Great, you've seen the fourth block of words. You may now take a short break.</p>
      <p>Press the spacebar when you're ready to continue.</p>","","","","","","","","",""
"html-keyboard-response","332","575065","0.0-16.0-0.0","5f11c9f84078cd0888177499","650c16f0f2faf8d7a0d14c09","651c1a5972134699e23133d8","null","null","<p style=""font-size: 60px; font-family: BACS"">DRPkYRDM</p>","","","","","","","","",""
"html-keyboard-response","333","576080","0.0-16.0-0.1","5f11c9f84078cd0888177499","650c16f0f2faf8d7a0d14c09","651c1a5972134699e23133d8","null","null","<p style=""font-size: 60px; font-family: BACS"">DRPkYRDM</p>","","","","","","","","",""
"html-keyboard-response","334","577096","0.0-16.0-0.2","5f11c9f84078cd0888177499","650c16f0f2faf8d7a0d14c09","651c1a5972134699e23133d8","null","null","<p style=""font-size: 60px; font-family: BACS"">DRPkYRDM</p>","","","","","","","","",""
"html-keyboard-response","335","578098","0.0-16.0-0.3","5f11c9f84078cd0888177499","650c16f0f2faf8d7a0d14c09","651c1a5972134699e23133d8","null","null","<p style=""font-size: 60px; font-family: BACS"">DRPkYRDM</p>","","","","","","","","",""
"html-keyboard-response","336","579099","0.0-16.0-0.4","5f11c9f84078cd0888177499","650c16f0f2faf8d7a0d14c09","651c1a5972134699e23133d8","null","null","<p style=""font-size: 60px; font-family: BACS"">DRPkYRDM</p>","","","","","","","","",""
"html-keyboard-response","337","580114","0.0-16.0-0.5","5f11c9f84078cd0888177499","650c16f0f2faf8d7a0d14c09","651c1a5972134699e23133d8","null","null","<p style=""font-size: 60px; font-family: BACS"">DRPkYRDM</p>","","","","","","","","",""
"html-keyboard-response","338","581117","0.0-16.0-0.6","5f11c9f84078cd0888177499","650c16f0f2faf8d7a0d14c09","651c1a5972134699e23133d8","null","null","<p style=""font-size: 60px; font-family: BACS"">DRPkYRDM</p>","","","","","","","","",""
"html-keyboard-response","339","582132","0.0-16.0-0.7","5f11c9f84078cd0888177499","650c16f0f2faf8d7a0d14c09","651c1a5972134699e23133d8","null","null","<p style=""font-size: 60px; font-family: BACS"">DRPkYRDM</p>","","","","","","","","",""
"html-keyboard-response","340","583134","0.0-16.0-0.8","5f11c9f84078cd0888177499","650c16f0f2faf8d7a0d14c09","651c1a5972134699e23133d8","null","null","<p style=""font-size: 60px; font-family: BACS"">DRPkYRDM</p>","","","","","","","","",""
"html-keyboard-response","341","584139","0.0-16.0-0.9","5f11c9f84078cd0888177499","650c16f0f2faf8d7a0d14c09","651c1a5972134699e23133d8","null","null","<p style=""font-size: 60px; font-family: BACS"">DRPkYRDM</p>","","","","","","","","",""
"html-keyboard-response","342","585154","0.0-16.0-0.10","5f11c9f84078cd0888177499","650c16f0f2faf8d7a0d14c09","651c1a5972134699e23133d8","null","null","<p style=""font-size: 60px; font-family: BACS"">DRPkYRDM</p>","","","","","","","","",""
"html-keyboard-response","343","586166","0.0-16.0-0.11","5f11c9f84078cd0888177499","650c16f0f2faf8d7a0d14c09","651c1a5972134699e23133d8","null","null","<p style=""font-size: 60px; font-family: BACS"">DRPkYRDM</p>","","","","","","","","",""
"html-keyboard-response","344","587167","0.0-16.0-0.12","5f11c9f84078cd0888177499","650c16f0f2faf8d7a0d14c09","651c1a5972134699e23133d8","null","null","<p style=""font-size: 60px; font-family: BACS"">DRPkYRDM</p>","","","","","","","","",""
"html-keyboard-response","345","588169","0.0-16.0-0.13","5f11c9f84078cd0888177499","650c16f0f2faf8d7a0d14c09","651c1a5972134699e23133d8","null","null","<p style=""font-size: 60px; font-family: BACS"">DRPkYRDM</p>","","","","","","","","",""
"html-keyboard-response","346","589185","0.0-16.0-0.14","5f11c9f84078cd0888177499","650c16f0f2faf8d7a0d14c09","651c1a5972134699e23133d8","null","null","<p style=""font-size: 60px; font-family: BACS"">DRPkYRDM</p>","","","","","","","","",""
"html-keyboard-response","347","590201","0.0-16.0-0.15","5f11c9f84078cd0888177499","650c16f0f2faf8d7a0d14c09","651c1a5972134699e23133d8","null","null","<p style=""font-size: 60px; font-family: BACS"">DRPkYRDM</p>","","","","","","","","",""
"html-keyboard-response","348","591216","0.0-16.0-0.16","5f11c9f84078cd0888177499","650c16f0f2faf8d7a0d14c09","651c1a5972134699e23133d8","null","null","<p style=""font-size: 60px; font-family: BACS"">DRPkYRDM</p>","","","","","","","","",""
"html-keyboard-response","349","592233","0.0-16.0-0.17","5f11c9f84078cd0888177499","650c16f0f2faf8d7a0d14c09","651c1a5972134699e23133d8","null","null","<p style=""font-size: 60px; font-family: BACS"">DRPkYRDM</p>","","","","","","","","",""
"html-keyboard-response","350","593247","0.0-16.0-0.18","5f11c9f84078cd0888177499","650c16f0f2faf8d7a0d14c09","651c1a5972134699e23133d8","null","null","<p style=""font-size: 60px; font-family: BACS"">DRPkYRDM</p>","","","","","","","","",""
"html-keyboard-response","351","594262","0.0-16.0-0.19","5f11c9f84078cd0888177499","650c16f0f2faf8d7a0d14c09","651c1a5972134699e23133d8","null","null","<p style=""font-size: 60px; font-family: BACS"">DRPkYRDM</p>","","","","","","","","",""
"html-keyboard-response","352","595273","0.0-16.0-0.20","5f11c9f84078cd0888177499","650c16f0f2faf8d7a0d14c09","651c1a5972134699e23133d8","null","null","<p style=""font-size: 60px; font-family: BACS"">DRPkYRDM</p>","","","","","","","","",""
"html-keyboard-response","353","596287","0.0-16.0-0.21","5f11c9f84078cd0888177499","650c16f0f2faf8d7a0d14c09","651c1a5972134699e23133d8","null","null","<p style=""font-size: 60px; font-family: BACS"">DRPkYRDM</p>","","","","","","","","",""
"html-keyboard-response","354","597303","0.0-16.0-0.22","5f11c9f84078cd0888177499","650c16f0f2faf8d7a0d14c09","651c1a5972134699e23133d8","null","null","<p style=""font-size: 60px; font-family: BACS"">DRPkYRDM</p>","","","","","","","","",""
"html-keyboard-response","355","598319","0.0-16.0-0.23","5f11c9f84078cd0888177499","650c16f0f2faf8d7a0d14c09","651c1a5972134699e23133d8","null","null","<p style=""font-size: 60px; font-family: BACS"">DRPkYRDM</p>","","","","","","","","",""
"html-keyboard-response","356","599324","0.0-16.0-0.24","5f11c9f84078cd0888177499","650c16f0f2faf8d7a0d14c09","651c1a5972134699e23133d8","null","null","<p style=""font-size: 60px; font-family: BACS"">DRPkYRDM</p>","","","","","","","","",""
"html-keyboard-response","357","600338","0.0-16.0-0.25","5f11c9f84078cd0888177499","650c16f0f2faf8d7a0d14c09","651c1a5972134699e23133d8","null","null","<p style=""font-size: 60px; font-family: BACS"">DRPkYRDM</p>","","","","","","","","",""
"html-keyboard-response","358","601342","0.0-16.0-0.26","5f11c9f84078cd0888177499","650c16f0f2faf8d7a0d14c09","651c1a5972134699e23133d8","null","null","<p style=""font-size: 60px; font-family: BACS"">DRPkYRDM</p>","","","","","","","","",""
"html-keyboard-response","359","602358","0.0-16.0-0.27","5f11c9f84078cd0888177499","650c16f0f2faf8d7a0d14c09","651c1a5972134699e23133d8","null","null","<p style=""font-size: 60px; font-family: BACS"">DRPkYRDM</p>","","","","","","","","",""
"html-keyboard-response","360","603362","0.0-16.0-0.28","5f11c9f84078cd0888177499","650c16f0f2faf8d7a0d14c09","651c1a5972134699e23133d8","null","null","<p style=""font-size: 60px; font-family: BACS"">DRPkYRDM</p>","","","","","","","","",""
"html-keyboard-response","361","604377","0.0-16.0-0.29","5f11c9f84078cd0888177499","650c16f0f2faf8d7a0d14c09","651c1a5972134699e23133d8","null","null","<p style=""font-size: 60px; font-family: BACS"">DRPkYRDM</p>","","","","","","","","",""
"html-keyboard-response","362","605393","0.0-16.0-0.30","5f11c9f84078cd0888177499","650c16f0f2faf8d7a0d14c09","651c1a5972134699e23133d8","null","null","<p style=""font-size: 60px; font-family: BACS"">DRPkYRDM</p>","","","","","","","","",""
"html-keyboard-response","363","606401","0.0-16.0-0.31","5f11c9f84078cd0888177499","650c16f0f2faf8d7a0d14c09","651c1a5972134699e23133d8","null","null","<p style=""font-size: 60px; font-family: BACS"">DRPkYRDM</p>","","","","","","","","",""
"html-keyboard-response","364","607414","0.0-16.0-0.32","5f11c9f84078cd0888177499","650c16f0f2faf8d7a0d14c09","651c1a5972134699e23133d8","null","null","<p style=""font-size: 60px; font-family: BACS"">DRPkYRDM</p>","","","","","","","","",""
"html-keyboard-response","365","608415","0.0-16.0-0.33","5f11c9f84078cd0888177499","650c16f0f2faf8d7a0d14c09","651c1a5972134699e23133d8","null","null","<p style=""font-size: 60px; font-family: BACS"">DRPkYRDM</p>","","","","","","","","",""
"html-keyboard-response","366","609430","0.0-16.0-0.34","5f11c9f84078cd0888177499","650c16f0f2faf8d7a0d14c09","651c1a5972134699e23133d8","null","null","<p style=""font-size: 60px; font-family: BACS"">DRPkYRDM</p>","","","","","","","","",""
"html-keyboard-response","367","610446","0.0-16.0-0.35","5f11c9f84078cd0888177499","650c16f0f2faf8d7a0d14c09","651c1a5972134699e23133d8","null","null","<p style=""font-size: 60px; font-family: BACS"">DRPkYRDM</p>","","","","","","","","",""
"html-keyboard-response","368","611447","0.0-16.0-0.36","5f11c9f84078cd0888177499","650c16f0f2faf8d7a0d14c09","651c1a5972134699e23133d8","null","null","<p style=""font-size: 60px; font-family: BACS"">DRPkYRDM</p>","","","","","","","","",""
"html-keyboard-response","369","612459","0.0-16.0-0.37","5f11c9f84078cd0888177499","650c16f0f2faf8d7a0d14c09","651c1a5972134699e23133d8","null","null","<p style=""font-size: 60px; font-family: BACS"">DRPkYRDM</p>","","","","","","","","",""
"html-keyboard-response","370","613475","0.0-16.0-0.38","5f11c9f84078cd0888177499","650c16f0f2faf8d7a0d14c09","651c1a5972134699e23133d8","null","null","<p style=""font-size: 60px; font-family: BACS"">DRPkYRDM</p>","","","","","","","","",""
"html-keyboard-response","371","614491","0.0-16.0-0.39","5f11c9f84078cd0888177499","650c16f0f2faf8d7a0d14c09","651c1a5972134699e23133d8","null","null","<p style=""font-size: 60px; font-family: BACS"">DRPkYRDM</p>","","","","","","","","",""
"html-keyboard-response","372","615505","0.0-16.0-0.40","5f11c9f84078cd0888177499","650c16f0f2faf8d7a0d14c09","651c1a5972134699e23133d8","null","null","<p style=""font-size: 60px; font-family: BACS"">DRPkYRDM</p>","","","","","","","","",""
"html-keyboard-response","373","616508","0.0-16.0-0.41","5f11c9f84078cd0888177499","650c16f0f2faf8d7a0d14c09","651c1a5972134699e23133d8","null","null","<p style=""font-size: 60px; font-family: BACS"">DRPkYRDM</p>","","","","","","","","",""
"html-keyboard-response","374","617513","0.0-16.0-0.42","5f11c9f84078cd0888177499","650c16f0f2faf8d7a0d14c09","651c1a5972134699e23133d8","null","null","<p style=""font-size: 60px; font-family: BACS"">DRPkYRDM</p>","","","","","","","","",""
"html-keyboard-response","375","618515","0.0-16.0-0.43","5f11c9f84078cd0888177499","650c16f0f2faf8d7a0d14c09","651c1a5972134699e23133d8","null","null","<p style=""font-size: 60px; font-family: BACS"">DRPkYRDM</p>","","","","","","","","",""
"html-keyboard-response","376","619517","0.0-16.0-0.44","5f11c9f84078cd0888177499","650c16f0f2faf8d7a0d14c09","651c1a5972134699e23133d8","null","null","<p style=""font-size: 60px; font-family: BACS"">DRPkYRDM</p>","","","","","","","","",""
"html-keyboard-response","377","620530","0.0-16.0-0.45","5f11c9f84078cd0888177499","650c16f0f2faf8d7a0d14c09","651c1a5972134699e23133d8","null","null","<p style=""font-size: 60px; font-family: BACS"">DRPkYRDM</p>","","","","","","","","",""
"html-keyboard-response","378","621546","0.0-16.0-0.46","5f11c9f84078cd0888177499","650c16f0f2faf8d7a0d14c09","651c1a5972134699e23133d8","null","null","<p style=""font-size: 60px; font-family: BACS"">DRPkYRDM</p>","","","","","","","","",""
"html-keyboard-response","379","622560","0.0-16.0-0.47","5f11c9f84078cd0888177499","650c16f0f2faf8d7a0d14c09","651c1a5972134699e23133d8","null","null","<p style=""font-size: 60px; font-family: BACS"">DRPkYRDM</p>","","","","","","","","",""
"html-keyboard-response","380","623576","0.0-16.0-0.48","5f11c9f84078cd0888177499","650c16f0f2faf8d7a0d14c09","651c1a5972134699e23133d8","null","null","<p style=""font-size: 60px; font-family: BACS"">DRPkYRDM</p>","","","","","","","","",""
"html-keyboard-response","381","624579","0.0-16.0-0.49","5f11c9f84078cd0888177499","650c16f0f2faf8d7a0d14c09","651c1a5972134699e23133d8","null","null","<p style=""font-size: 60px; font-family: BACS"">DRPkYRDM</p>","","","","","","","","",""
"html-keyboard-response","382","625593","0.0-16.0-0.50","5f11c9f84078cd0888177499","650c16f0f2faf8d7a0d14c09","651c1a5972134699e23133d8","null","null","<p style=""font-size: 60px; font-family: BACS"">DRPkYRDM</p>","","","","","","","","",""
"html-keyboard-response","383","626593","0.0-16.0-0.51","5f11c9f84078cd0888177499","650c16f0f2faf8d7a0d14c09","651c1a5972134699e23133d8","null","null","<p style=""font-size: 60px; font-family: BACS"">DRPkYRDM</p>","","","","","","","","",""
"html-keyboard-response","384","627610","0.0-16.0-0.52","5f11c9f84078cd0888177499","650c16f0f2faf8d7a0d14c09","651c1a5972134699e23133d8","null","null","<p style=""font-size: 60px; font-family: BACS"">DRPkYRDM</p>","","","","","","","","",""
"html-keyboard-response","385","628627","0.0-16.0-0.53","5f11c9f84078cd0888177499","650c16f0f2faf8d7a0d14c09","651c1a5972134699e23133d8","null","null","<p style=""font-size: 60px; font-family: BACS"">DRPkYRDM</p>","","","","","","","","",""
"html-keyboard-response","386","629640","0.0-16.0-0.54","5f11c9f84078cd0888177499","650c16f0f2faf8d7a0d14c09","651c1a5972134699e23133d8","null","null","<p style=""font-size: 60px; font-family: BACS"">DRPkYRDM</p>","","","","","","","","",""
"html-keyboard-response","387","630656","0.0-16.0-0.55","5f11c9f84078cd0888177499","650c16f0f2faf8d7a0d14c09","651c1a5972134699e23133d8","null","null","<p style=""font-size: 60px; font-family: BACS"">DRPkYRDM</p>","","","","","","","","",""
"html-keyboard-response","388","631671","0.0-16.0-0.56","5f11c9f84078cd0888177499","650c16f0f2faf8d7a0d14c09","651c1a5972134699e23133d8","null","null","<p style=""font-size: 60px; font-family: BACS"">DRPkYRDM</p>","","","","","","","","",""
"html-keyboard-response","389","632685","0.0-16.0-0.57","5f11c9f84078cd0888177499","650c16f0f2faf8d7a0d14c09","651c1a5972134699e23133d8","null","null","<p style=""font-size: 60px; font-family: BACS"">DRPkYRDM</p>","","","","","","","","",""
"html-keyboard-response","390","633699","0.0-16.0-0.58","5f11c9f84078cd0888177499","650c16f0f2faf8d7a0d14c09","651c1a5972134699e23133d8","null","null","<p style=""font-size: 60px; font-family: BACS"">DRPkYRDM</p>","","","","","","","","",""
"html-keyboard-response","391","634715","0.0-16.0-0.59","5f11c9f84078cd0888177499","650c16f0f2faf8d7a0d14c09","651c1a5972134699e23133d8","null","null","<p style=""font-size: 60px; font-family: BACS"">DRPkYRDM</p>","","","","","","","","",""
"html-keyboard-response","392","635728","0.0-16.0-0.60","5f11c9f84078cd0888177499","650c16f0f2faf8d7a0d14c09","651c1a5972134699e23133d8","null","null","<p style=""font-size: 60px; font-family: BACS"">DRPkYRDM</p>","","","","","","","","",""
"html-keyboard-response","393","636730","0.0-16.0-0.61","5f11c9f84078cd0888177499","650c16f0f2faf8d7a0d14c09","651c1a5972134699e23133d8","null","null","<p style=""font-size: 60px; font-family: BACS"">DRPkYRDM</p>","","","","","","","","",""
"html-keyboard-response","394","637742","0.0-16.0-0.62","5f11c9f84078cd0888177499","650c16f0f2faf8d7a0d14c09","651c1a5972134699e23133d8","null","null","<p style=""font-size: 60px; font-family: BACS"">DRPkYRDM</p>","","","","","","","","",""
"html-keyboard-response","395","638746","0.0-16.0-0.63","5f11c9f84078cd0888177499","650c16f0f2faf8d7a0d14c09","651c1a5972134699e23133d8","null","null","<p style=""font-size: 60px; font-family: BACS"">DRPkYRDM</p>","","","","","","","","",""
"html-keyboard-response","396","639748","0.0-16.0-0.64","5f11c9f84078cd0888177499","650c16f0f2faf8d7a0d14c09","651c1a5972134699e23133d8","null","null","<p style=""font-size: 60px; font-family: BACS"">DRPkYRDM</p>","","","","","","","","",""
"html-keyboard-response","397","640752","0.0-16.0-0.65","5f11c9f84078cd0888177499","650c16f0f2faf8d7a0d14c09","651c1a5972134699e23133d8","null","null","<p style=""font-size: 60px; font-family: BACS"">DRPkYRDM</p>","","","","","","","","",""
"html-keyboard-response","398","641754","0.0-16.0-0.66","5f11c9f84078cd0888177499","650c16f0f2faf8d7a0d14c09","651c1a5972134699e23133d8","null","null","<p style=""font-size: 60px; font-family: BACS"">DRPkYRDM</p>","","","","","","","","",""
"html-keyboard-response","399","642761","0.0-16.0-0.67","5f11c9f84078cd0888177499","650c16f0f2faf8d7a0d14c09","651c1a5972134699e23133d8","null","null","<p style=""font-size: 60px; font-family: BACS"">DRPkYRDM</p>","","","","","","","","",""
