trial_type,trial_index,time_elapsed,internal_node_id,subject_id,study_id,session_id,rt,response,stimulus,success,item,task,correct_response,testing_condition,correct,target,confound,name,view_history
pavlovia,0,1184,0.0-0.0,6170821d1e8ffb9c893b28a4,650c16f0f2faf8d7a0d14c09,651c0ac19f10300bf4c9a3d8,,,,,,,,,,,,,
survey-html-form,1,4945,0.0-1.0,6170821d1e8ffb9c893b28a4,650c16f0f2faf8d7a0d14c09,651c0ac19f10300bf4c9a3d8,3761,"{""ID"":""6170821d1e8ffb9c893b28a4""}",,,,,,,,,,,
html-keyboard-response,2,16243,0.0-2.0,6170821d1e8ffb9c893b28a4,650c16f0f2faf8d7a0d14c09,651c0ac19f10300bf4c9a3d8,11296, ,"<p style=""font-size: 15px;"">Before beginning, we ask that you read the consent information and confirm your agreement to participate in the experiment.</p>
      <p style=""font-size: 15px;""> We ask that you remember that this is a research project and that your participation is entirely voluntary. You can stop your participation at any time, without needing to provide any explanation. The study we're asking you to participate in aims at examining how readers process written words. You will be engaged in a session of apprximately 20 minutes, followed by a brief questionnaire. You will have the opportunity to take a few breaks during the experiment. You will be paid £4 for your participation, corresponding to a rate of £8/hour. While this experiment looks at cognitive faculties, this experiment doesn't constitute clinical proof of eventual pathologies.</p>
      <p style=""font-size: 15px;"">All of the information collected thanks to yours and others' participation will be held in a secure password-protected server, and will not be shared with anyone not authorised to view it. Your personal information will be kept with an arbitrary participant ID. Thanks to this data anonymity process, any researcher analysing the data won't be able to track the information back to a specific participant. Therefore, this process will make identifying you impossibile, even when results from the study will be published in scientific reviews, presented at congresses, or at any other public forum. More generally, the collected data will be treated in accordance with the laws on privacy and conformity to the Legislative Degree n. 196 ""Code regarding the protection of personal data"" of the 30th of June 2003 and to the European Regulation 2016/670 (General Data Protection Regulation - GDPR). The Data Protection Officer is Avv. Valentina Carollo, who can be contacted at the following email addresses: <a href=""mailto:dpo@sissa.it"">dpo@sissa.it</a> or <a href=""mailto:rpd@sissa.it"">rpd@sissa.it</a> - PEC: <a href=""mailto:protocollo@pec.sissa.it"">protocollo@pec.sissa.it</a>.</p>
      <p style=""font-size: 15px;""> Before expressing your consent to participate, we would like to remind you again that in case you need explanations on any aspect of the experimental procedure, the researcher is at your disposition (<a href=""mailto:aliebelt@sissa.it"">aliebelt@sissa.it</a>, <a href=""mailto:davide.crepaldi@sissa.it"">davide.crepaldi@sissa.it</a>).</p>
      <p style=""font-size: 15px;"">If you would like to download the informed consent form, you can do so here: <a href=""BASL-Informed_Consent.pdf"" download>informed consent form</a>.</p>
      <p style=""font-size: 15px;"">We ask that you press the spacebar to proceed to the consent section.</p>",,,,,,,,,,
survey-html-form,3,27665,0.0-3.0,6170821d1e8ffb9c893b28a4,650c16f0f2faf8d7a0d14c09,651c0ac19f10300bf4c9a3d8,11421,"{""consent1"":""YES"",""consent2"":""YES"",""consent3"":""YES"",""consent4"":""YES"",""consent5"":""YES"",""consent6"":""YES""}",,,,,,,,,,,
fullscreen,4,36229,0.0-4.0,6170821d1e8ffb9c893b28a4,650c16f0f2faf8d7a0d14c09,651c0ac19f10300bf4c9a3d8,,,,TRUE,,,,,,,,,
html-keyboard-response,5,57834,0.0-5.0,6170821d1e8ffb9c893b28a4,650c16f0f2faf8d7a0d14c09,651c0ac19f10300bf4c9a3d8,21604, ,"<p>Welcome, and thank you very much for your time!</p>
      <p>In this experiment, you'll be a language expert who's been asked to take a look at words that Earth has received in its first communication with aliens. Your task, in this first part of the experiment, is to pay close attention to the words you'll be shown; later, world leaders will ask you questions on what you saw. The words will be shown to you quite quickly; it seems that the aliens were in a hurry :-)</p>
      <p>Press the spacebar to continue.<p>",,,,,,,,,,
html-keyboard-response,6,57900,0.0-6.0,6170821d1e8ffb9c893b28a4,650c16f0f2faf8d7a0d14c09,651c0ac19f10300bf4c9a3d8,null,null,"<p style=""font-size: 120px; font-family: BACS""> </p>",,,,,,,,,,
html-keyboard-response,7,71386,0.0-7.0,6170821d1e8ffb9c893b28a4,650c16f0f2faf8d7a0d14c09,651c0ac19f10300bf4c9a3d8,13485, ,"<p>Here is an example of the words you'll see:</p>
      <img src='esempio.png' height='400px'>
      <p>When you're ready to begin, press the spacebar.</p></div>",,,,,,,,,,
html-keyboard-response,8,72394,0.0-8.0-0.0,6170821d1e8ffb9c893b28a4,650c16f0f2faf8d7a0d14c09,651c0ac19f10300bf4c9a3d8,null,null,"<p style=""font-size: 60px; font-family: BACS"">lYruaYUYa</p>",,,,,,,,,,
html-keyboard-response,9,73406,0.0-8.0-0.1,6170821d1e8ffb9c893b28a4,650c16f0f2faf8d7a0d14c09,651c0ac19f10300bf4c9a3d8,null,null,"<p style=""font-size: 60px; font-family: BACS"">BMEMATbk</p>",,,,,,,,,,
html-keyboard-response,10,74408,0.0-8.0-0.2,6170821d1e8ffb9c893b28a4,650c16f0f2faf8d7a0d14c09,651c0ac19f10300bf4c9a3d8,null,null,"<p style=""font-size: 60px; font-family: BACS"">blMkBCAd</p>",,,,,,,,,,
html-keyboard-response,11,75423,0.0-8.0-0.3,6170821d1e8ffb9c893b28a4,650c16f0f2faf8d7a0d14c09,651c0ac19f10300bf4c9a3d8,null,null,"<p style=""font-size: 60px; font-family: BACS"">BMEMARCdc</p>",,,,,,,,,,
html-keyboard-response,12,76439,0.0-8.0-0.4,6170821d1e8ffb9c893b28a4,650c16f0f2faf8d7a0d14c09,651c0ac19f10300bf4c9a3d8,null,null,"<p style=""font-size: 60px; font-family: BACS"">adkrNmAG</p>",,,,,,,,,,
html-keyboard-response,13,77454,0.0-8.0-0.5,6170821d1e8ffb9c893b28a4,650c16f0f2faf8d7a0d14c09,651c0ac19f10300bf4c9a3d8,null,null,"<p style=""font-size: 60px; font-family: BACS"">TObCORCdc</p>",,,,,,,,,,
html-keyboard-response,14,78459,0.0-8.0-0.6,6170821d1e8ffb9c893b28a4,650c16f0f2faf8d7a0d14c09,651c0ac19f10300bf4c9a3d8,null,null,"<p style=""font-size: 60px; font-family: BACS"">DcPTcDOk</p>",,,,,,,,,,
html-keyboard-response,15,79474,0.0-8.0-0.7,6170821d1e8ffb9c893b28a4,650c16f0f2faf8d7a0d14c09,651c0ac19f10300bf4c9a3d8,null,null,"<p style=""font-size: 60px; font-family: BACS"">blMkRCdc</p>",,,,,,,,,,
html-keyboard-response,16,80488,0.0-8.0-0.8,6170821d1e8ffb9c893b28a4,650c16f0f2faf8d7a0d14c09,651c0ac19f10300bf4c9a3d8,null,null,"<p style=""font-size: 60px; font-family: BACS"">hbmATbk</p>",,,,,,,,,,
html-keyboard-response,17,81490,0.0-8.0-0.9,6170821d1e8ffb9c893b28a4,650c16f0f2faf8d7a0d14c09,651c0ac19f10300bf4c9a3d8,null,null,"<p style=""font-size: 60px; font-family: BACS"">TObCOBCAd</p>",,,,,,,,,,
html-keyboard-response,18,82491,0.0-8.0-0.10,6170821d1e8ffb9c893b28a4,650c16f0f2faf8d7a0d14c09,651c0ac19f10300bf4c9a3d8,null,null,"<p style=""font-size: 60px; font-family: BACS"">NbacAYUYa</p>",,,,,,,,,,
html-keyboard-response,19,83506,0.0-8.0-0.11,6170821d1e8ffb9c893b28a4,650c16f0f2faf8d7a0d14c09,651c0ac19f10300bf4c9a3d8,null,null,"<p style=""font-size: 60px; font-family: BACS"">laYmrmkc</p>",,,,,,,,,,
html-keyboard-response,20,84523,0.0-8.0-0.12,6170821d1e8ffb9c893b28a4,650c16f0f2faf8d7a0d14c09,651c0ac19f10300bf4c9a3d8,null,null,"<p style=""font-size: 60px; font-family: BACS"">blMkTbk</p>",,,,,,,,,,
html-keyboard-response,21,85539,0.0-8.0-0.13,6170821d1e8ffb9c893b28a4,650c16f0f2faf8d7a0d14c09,651c0ac19f10300bf4c9a3d8,null,null,"<p style=""font-size: 60px; font-family: BACS"">ldAamkc</p>",,,,,,,,,,
html-keyboard-response,22,86540,0.0-8.0-0.14,6170821d1e8ffb9c893b28a4,650c16f0f2faf8d7a0d14c09,651c0ac19f10300bf4c9a3d8,null,null,"<p style=""font-size: 60px; font-family: BACS"">YOaAbvAvb</p>",,,,,,,,,,
html-keyboard-response,23,87556,0.0-8.0-0.15,6170821d1e8ffb9c893b28a4,650c16f0f2faf8d7a0d14c09,651c0ac19f10300bf4c9a3d8,null,null,"<p style=""font-size: 60px; font-family: BACS"">DcPTcTbk</p>",,,,,,,,,,
html-keyboard-response,24,88557,0.0-8.0-0.16,6170821d1e8ffb9c893b28a4,650c16f0f2faf8d7a0d14c09,651c0ac19f10300bf4c9a3d8,null,null,"<p style=""font-size: 60px; font-family: BACS"">BdtACYht</p>",,,,,,,,,,
html-keyboard-response,25,89559,0.0-8.0-0.17,6170821d1e8ffb9c893b28a4,650c16f0f2faf8d7a0d14c09,651c0ac19f10300bf4c9a3d8,null,null,"<p style=""font-size: 60px; font-family: BACS"">ldAaYUYa</p>",,,,,,,,,,
html-keyboard-response,26,90574,0.0-8.0-0.18,6170821d1e8ffb9c893b28a4,650c16f0f2faf8d7a0d14c09,651c0ac19f10300bf4c9a3d8,null,null,"<p style=""font-size: 60px; font-family: BACS"">lYruamkc</p>",,,,,,,,,,
html-keyboard-response,27,91575,0.0-8.0-0.19,6170821d1e8ffb9c893b28a4,650c16f0f2faf8d7a0d14c09,651c0ac19f10300bf4c9a3d8,null,null,"<p style=""font-size: 60px; font-family: BACS"">BMEMAYht</p>",,,,,,,,,,
html-keyboard-response,28,92591,0.0-8.0-0.20,6170821d1e8ffb9c893b28a4,650c16f0f2faf8d7a0d14c09,651c0ac19f10300bf4c9a3d8,null,null,"<p style=""font-size: 60px; font-family: BACS"">NbacANmAG</p>",,,,,,,,,,
html-keyboard-response,29,93592,0.0-8.0-0.21,6170821d1e8ffb9c893b28a4,650c16f0f2faf8d7a0d14c09,651c0ac19f10300bf4c9a3d8,null,null,"<p style=""font-size: 60px; font-family: BACS"">hlbtbTbk</p>",,,,,,,,,,
html-keyboard-response,30,94605,0.0-8.0-0.22,6170821d1e8ffb9c893b28a4,650c16f0f2faf8d7a0d14c09,651c0ac19f10300bf4c9a3d8,null,null,"<p style=""font-size: 60px; font-family: BACS"">uQkrdJZr</p>",,,,,,,,,,
html-keyboard-response,31,95607,0.0-8.0-0.23,6170821d1e8ffb9c893b28a4,650c16f0f2faf8d7a0d14c09,651c0ac19f10300bf4c9a3d8,null,null,"<p style=""font-size: 60px; font-family: BACS"">laYmrvAvb</p>",,,,,,,,,,
html-keyboard-response,32,96608,0.0-8.0-0.24,6170821d1e8ffb9c893b28a4,650c16f0f2faf8d7a0d14c09,651c0ac19f10300bf4c9a3d8,null,null,"<p style=""font-size: 60px; font-family: BACS"">hbmARCdc</p>",,,,,,,,,,
html-keyboard-response,33,97609,0.0-8.0-0.25,6170821d1e8ffb9c893b28a4,650c16f0f2faf8d7a0d14c09,651c0ac19f10300bf4c9a3d8,null,null,"<p style=""font-size: 60px; font-family: BACS"">lYruavAvb</p>",,,,,,,,,,
html-keyboard-response,34,98612,0.0-8.0-0.26,6170821d1e8ffb9c893b28a4,650c16f0f2faf8d7a0d14c09,651c0ac19f10300bf4c9a3d8,null,null,"<p style=""font-size: 60px; font-family: BACS"">ldAaNmAG</p>",,,,,,,,,,
html-keyboard-response,35,99624,0.0-8.0-0.27,6170821d1e8ffb9c893b28a4,650c16f0f2faf8d7a0d14c09,651c0ac19f10300bf4c9a3d8,null,null,"<p style=""font-size: 60px; font-family: BACS"">adkrJZr</p>",,,,,,,,,,
html-keyboard-response,36,100627,0.0-8.0-0.28,6170821d1e8ffb9c893b28a4,650c16f0f2faf8d7a0d14c09,651c0ac19f10300bf4c9a3d8,null,null,"<p style=""font-size: 60px; font-family: BACS"">dRhtDOk</p>",,,,,,,,,,
html-keyboard-response,37,101638,0.0-8.0-0.29,6170821d1e8ffb9c893b28a4,650c16f0f2faf8d7a0d14c09,651c0ac19f10300bf4c9a3d8,null,null,"<p style=""font-size: 60px; font-family: BACS"">NbmQUmkc</p>",,,,,,,,,,
html-keyboard-response,38,102642,0.0-8.0-0.30,6170821d1e8ffb9c893b28a4,650c16f0f2faf8d7a0d14c09,651c0ac19f10300bf4c9a3d8,null,null,"<p style=""font-size: 60px; font-family: BACS"">lbBDEDOk</p>",,,,,,,,,,
html-keyboard-response,39,103656,0.0-8.0-0.31,6170821d1e8ffb9c893b28a4,650c16f0f2faf8d7a0d14c09,651c0ac19f10300bf4c9a3d8,null,null,"<p style=""font-size: 60px; font-family: BACS"">mUOcOmkc</p>",,,,,,,,,,
html-keyboard-response,40,104657,0.0-8.0-0.32,6170821d1e8ffb9c893b28a4,650c16f0f2faf8d7a0d14c09,651c0ac19f10300bf4c9a3d8,null,null,"<p style=""font-size: 60px; font-family: BACS"">uQkrdYUYa</p>",,,,,,,,,,
html-keyboard-response,41,105673,0.0-8.0-0.33,6170821d1e8ffb9c893b28a4,650c16f0f2faf8d7a0d14c09,651c0ac19f10300bf4c9a3d8,null,null,"<p style=""font-size: 60px; font-family: BACS"">DcPTcYht</p>",,,,,,,,,,
html-keyboard-response,42,106675,0.0-8.0-0.34,6170821d1e8ffb9c893b28a4,650c16f0f2faf8d7a0d14c09,651c0ac19f10300bf4c9a3d8,null,null,"<p style=""font-size: 60px; font-family: BACS"">bYuQmkc</p>",,,,,,,,,,
html-keyboard-response,43,107686,0.0-8.0-0.35,6170821d1e8ffb9c893b28a4,650c16f0f2faf8d7a0d14c09,651c0ac19f10300bf4c9a3d8,null,null,"<p style=""font-size: 60px; font-family: BACS"">mUOcOJZr</p>",,,,,,,,,,
html-keyboard-response,44,108690,0.0-8.0-0.36,6170821d1e8ffb9c893b28a4,650c16f0f2faf8d7a0d14c09,651c0ac19f10300bf4c9a3d8,null,null,"<p style=""font-size: 60px; font-family: BACS"">hlbtbBCAd</p>",,,,,,,,,,
html-keyboard-response,45,109694,0.0-8.0-0.37,6170821d1e8ffb9c893b28a4,650c16f0f2faf8d7a0d14c09,651c0ac19f10300bf4c9a3d8,null,null,"<p style=""font-size: 60px; font-family: BACS"">ldAaJZr</p>",,,,,,,,,,
html-keyboard-response,46,110705,0.0-8.0-0.38,6170821d1e8ffb9c893b28a4,650c16f0f2faf8d7a0d14c09,651c0ac19f10300bf4c9a3d8,null,null,"<p style=""font-size: 60px; font-family: BACS"">YOaAbNmAG</p>",,,,,,,,,,
html-keyboard-response,47,111707,0.0-8.0-0.39,6170821d1e8ffb9c893b28a4,650c16f0f2faf8d7a0d14c09,651c0ac19f10300bf4c9a3d8,null,null,"<p style=""font-size: 60px; font-family: BACS"">laYmrJZr</p>",,,,,,,,,,
html-keyboard-response,48,112716,0.0-8.0-0.40,6170821d1e8ffb9c893b28a4,650c16f0f2faf8d7a0d14c09,651c0ac19f10300bf4c9a3d8,null,null,"<p style=""font-size: 60px; font-family: BACS"">lbBDEYht</p>",,,,,,,,,,
html-keyboard-response,49,113724,0.0-8.0-0.41,6170821d1e8ffb9c893b28a4,650c16f0f2faf8d7a0d14c09,651c0ac19f10300bf4c9a3d8,null,null,"<p style=""font-size: 60px; font-family: BACS"">NbacAvAvb</p>",,,,,,,,,,
html-keyboard-response,50,114736,0.0-8.0-0.42,6170821d1e8ffb9c893b28a4,650c16f0f2faf8d7a0d14c09,651c0ac19f10300bf4c9a3d8,null,null,"<p style=""font-size: 60px; font-family: BACS"">bYuQNmAG</p>",,,,,,,,,,
html-keyboard-response,51,115748,0.0-8.0-0.43,6170821d1e8ffb9c893b28a4,650c16f0f2faf8d7a0d14c09,651c0ac19f10300bf4c9a3d8,null,null,"<p style=""font-size: 60px; font-family: BACS"">hbmABCAd</p>",,,,,,,,,,
html-keyboard-response,52,116758,0.0-8.0-0.44,6170821d1e8ffb9c893b28a4,650c16f0f2faf8d7a0d14c09,651c0ac19f10300bf4c9a3d8,null,null,"<p style=""font-size: 60px; font-family: BACS"">NbmQUYUYa</p>",,,,,,,,,,
html-keyboard-response,53,117767,0.0-8.0-0.45,6170821d1e8ffb9c893b28a4,650c16f0f2faf8d7a0d14c09,651c0ac19f10300bf4c9a3d8,null,null,"<p style=""font-size: 60px; font-family: BACS"">hbmAYht</p>",,,,,,,,,,
html-keyboard-response,54,118775,0.0-8.0-0.46,6170821d1e8ffb9c893b28a4,650c16f0f2faf8d7a0d14c09,651c0ac19f10300bf4c9a3d8,null,null,"<p style=""font-size: 60px; font-family: BACS"">NbacAmkc</p>",,,,,,,,,,
html-keyboard-response,55,119791,0.0-8.0-0.47,6170821d1e8ffb9c893b28a4,650c16f0f2faf8d7a0d14c09,651c0ac19f10300bf4c9a3d8,null,null,"<p style=""font-size: 60px; font-family: BACS"">uQkrdNmAG</p>",,,,,,,,,,
html-keyboard-response,56,120802,0.0-8.0-0.48,6170821d1e8ffb9c893b28a4,650c16f0f2faf8d7a0d14c09,651c0ac19f10300bf4c9a3d8,null,null,"<p style=""font-size: 60px; font-family: BACS"">hlbtbRCdc</p>",,,,,,,,,,
html-keyboard-response,57,121818,0.0-8.0-0.49,6170821d1e8ffb9c893b28a4,650c16f0f2faf8d7a0d14c09,651c0ac19f10300bf4c9a3d8,null,null,"<p style=""font-size: 60px; font-family: BACS"">lbBDETbk</p>",,,,,,,,,,
html-keyboard-response,58,122824,0.0-8.0-0.50,6170821d1e8ffb9c893b28a4,650c16f0f2faf8d7a0d14c09,651c0ac19f10300bf4c9a3d8,null,null,"<p style=""font-size: 60px; font-family: BACS"">adkrmkc</p>",,,,,,,,,,
html-keyboard-response,59,123836,0.0-8.0-0.51,6170821d1e8ffb9c893b28a4,650c16f0f2faf8d7a0d14c09,651c0ac19f10300bf4c9a3d8,null,null,"<p style=""font-size: 60px; font-family: BACS"">bYuQJZr</p>",,,,,,,,,,
html-keyboard-response,60,124841,0.0-8.0-0.52,6170821d1e8ffb9c893b28a4,650c16f0f2faf8d7a0d14c09,651c0ac19f10300bf4c9a3d8,null,null,"<p style=""font-size: 60px; font-family: BACS"">hlbtbDOk</p>",,,,,,,,,,
html-keyboard-response,61,125858,0.0-8.0-0.53,6170821d1e8ffb9c893b28a4,650c16f0f2faf8d7a0d14c09,651c0ac19f10300bf4c9a3d8,null,null,"<p style=""font-size: 60px; font-family: BACS"">dClOCRCdc</p>",,,,,,,,,,
html-keyboard-response,62,126872,0.0-8.0-0.54,6170821d1e8ffb9c893b28a4,650c16f0f2faf8d7a0d14c09,651c0ac19f10300bf4c9a3d8,null,null,"<p style=""font-size: 60px; font-family: BACS"">NbmQUvAvb</p>",,,,,,,,,,
html-keyboard-response,63,127888,0.0-8.0-0.55,6170821d1e8ffb9c893b28a4,650c16f0f2faf8d7a0d14c09,651c0ac19f10300bf4c9a3d8,null,null,"<p style=""font-size: 60px; font-family: BACS"">YOaAbYUYa</p>",,,,,,,,,,
html-keyboard-response,64,128890,0.0-8.0-0.56,6170821d1e8ffb9c893b28a4,650c16f0f2faf8d7a0d14c09,651c0ac19f10300bf4c9a3d8,null,null,"<p style=""font-size: 60px; font-family: BACS"">dRhtYht</p>",,,,,,,,,,
html-keyboard-response,65,129904,0.0-8.0-0.57,6170821d1e8ffb9c893b28a4,650c16f0f2faf8d7a0d14c09,651c0ac19f10300bf4c9a3d8,null,null,"<p style=""font-size: 60px; font-family: BACS"">uQkrdvAvb</p>",,,,,,,,,,
html-keyboard-response,66,130907,0.0-8.0-0.58,6170821d1e8ffb9c893b28a4,650c16f0f2faf8d7a0d14c09,651c0ac19f10300bf4c9a3d8,null,null,"<p style=""font-size: 60px; font-family: BACS"">TObCOYht</p>",,,,,,,,,,
html-keyboard-response,67,131909,0.0-8.0-0.59,6170821d1e8ffb9c893b28a4,650c16f0f2faf8d7a0d14c09,651c0ac19f10300bf4c9a3d8,null,null,"<p style=""font-size: 60px; font-family: BACS"">mUOcONmAG</p>",,,,,,,,,,
html-keyboard-response,68,132919,0.0-8.0-0.60,6170821d1e8ffb9c893b28a4,650c16f0f2faf8d7a0d14c09,651c0ac19f10300bf4c9a3d8,null,null,"<p style=""font-size: 60px; font-family: BACS"">TObCODOk</p>",,,,,,,,,,
html-keyboard-response,69,133931,0.0-8.0-0.61,6170821d1e8ffb9c893b28a4,650c16f0f2faf8d7a0d14c09,651c0ac19f10300bf4c9a3d8,null,null,"<p style=""font-size: 60px; font-family: BACS"">NbmQUNmAG</p>",,,,,,,,,,
html-keyboard-response,70,134940,0.0-8.0-0.62,6170821d1e8ffb9c893b28a4,650c16f0f2faf8d7a0d14c09,651c0ac19f10300bf4c9a3d8,null,null,"<p style=""font-size: 60px; font-family: BACS"">mUOcOvAvb</p>",,,,,,,,,,
html-keyboard-response,71,135942,0.0-8.0-0.63,6170821d1e8ffb9c893b28a4,650c16f0f2faf8d7a0d14c09,651c0ac19f10300bf4c9a3d8,null,null,"<p style=""font-size: 60px; font-family: BACS"">BMEMADOk</p>",,,,,,,,,,
html-keyboard-response,72,136956,0.0-8.0-0.64,6170821d1e8ffb9c893b28a4,650c16f0f2faf8d7a0d14c09,651c0ac19f10300bf4c9a3d8,null,null,"<p style=""font-size: 60px; font-family: BACS"">dClOCTbk</p>",,,,,,,,,,
html-keyboard-response,73,137959,0.0-8.0-0.65,6170821d1e8ffb9c893b28a4,650c16f0f2faf8d7a0d14c09,651c0ac19f10300bf4c9a3d8,null,null,"<p style=""font-size: 60px; font-family: BACS"">lbBDEBCAd</p>",,,,,,,,,,
html-keyboard-response,74,138962,0.0-8.0-0.66,6170821d1e8ffb9c893b28a4,650c16f0f2faf8d7a0d14c09,651c0ac19f10300bf4c9a3d8,null,null,"<p style=""font-size: 60px; font-family: BACS"">YOaAbJZr</p>",,,,,,,,,,
html-keyboard-response,75,139972,0.0-8.0-0.67,6170821d1e8ffb9c893b28a4,650c16f0f2faf8d7a0d14c09,651c0ac19f10300bf4c9a3d8,null,null,"<p style=""font-size: 60px; font-family: BACS"">DcPTcRCdc</p>",,,,,,,,,,
html-keyboard-response,76,140982,0.0-8.0-0.68,6170821d1e8ffb9c893b28a4,650c16f0f2faf8d7a0d14c09,651c0ac19f10300bf4c9a3d8,null,null,"<p style=""font-size: 60px; font-family: BACS"">dClOCBCAd</p>",,,,,,,,,,
html-keyboard-response,77,141990,0.0-8.0-0.69,6170821d1e8ffb9c893b28a4,650c16f0f2faf8d7a0d14c09,651c0ac19f10300bf4c9a3d8,null,null,"<p style=""font-size: 60px; font-family: BACS"">BdtACDOk</p>",,,,,,,,,,
html-keyboard-response,78,142991,0.0-8.0-0.70,6170821d1e8ffb9c893b28a4,650c16f0f2faf8d7a0d14c09,651c0ac19f10300bf4c9a3d8,null,null,"<p style=""font-size: 60px; font-family: BACS"">dRhtTbk</p>",,,,,,,,,,
html-keyboard-response,79,144003,0.0-8.0-0.71,6170821d1e8ffb9c893b28a4,650c16f0f2faf8d7a0d14c09,651c0ac19f10300bf4c9a3d8,null,null,"<p style=""font-size: 60px; font-family: BACS"">laYmrYUYa</p>",,,,,,,,,,
html-keyboard-response,80,145007,0.0-8.0-0.72,6170821d1e8ffb9c893b28a4,650c16f0f2faf8d7a0d14c09,651c0ac19f10300bf4c9a3d8,null,null,"<p style=""font-size: 60px; font-family: BACS"">dRhtBCAd</p>",,,,,,,,,,
html-keyboard-response,81,146023,0.0-8.0-0.73,6170821d1e8ffb9c893b28a4,650c16f0f2faf8d7a0d14c09,651c0ac19f10300bf4c9a3d8,null,null,"<p style=""font-size: 60px; font-family: BACS"">lYruaJZr</p>",,,,,,,,,,
html-keyboard-response,82,147026,0.0-8.0-0.74,6170821d1e8ffb9c893b28a4,650c16f0f2faf8d7a0d14c09,651c0ac19f10300bf4c9a3d8,null,null,"<p style=""font-size: 60px; font-family: BACS"">blMkDOk</p>",,,,,,,,,,
html-keyboard-response,83,148042,0.0-8.0-0.75,6170821d1e8ffb9c893b28a4,650c16f0f2faf8d7a0d14c09,651c0ac19f10300bf4c9a3d8,null,null,"<p style=""font-size: 60px; font-family: BACS"">bYuQvAvb</p>",,,,,,,,,,
html-keyboard-response,84,149057,0.0-8.0-0.76,6170821d1e8ffb9c893b28a4,650c16f0f2faf8d7a0d14c09,651c0ac19f10300bf4c9a3d8,null,null,"<p style=""font-size: 60px; font-family: BACS"">BdtACRCdc</p>",,,,,,,,,,
html-keyboard-response,85,150059,0.0-8.0-0.77,6170821d1e8ffb9c893b28a4,650c16f0f2faf8d7a0d14c09,651c0ac19f10300bf4c9a3d8,null,null,"<p style=""font-size: 60px; font-family: BACS"">adkrYUYa</p>",,,,,,,,,,
html-keyboard-response,86,151069,0.0-8.0-0.78,6170821d1e8ffb9c893b28a4,650c16f0f2faf8d7a0d14c09,651c0ac19f10300bf4c9a3d8,null,null,"<p style=""font-size: 60px; font-family: BACS"">dClOCYht</p>",,,,,,,,,,
html-keyboard-response,87,152075,0.0-8.0-0.79,6170821d1e8ffb9c893b28a4,650c16f0f2faf8d7a0d14c09,651c0ac19f10300bf4c9a3d8,null,null,"<p style=""font-size: 60px; font-family: BACS"">BdtACBCAd</p>",,,,,,,,,,
html-keyboard-response,88,160841,0.0-9.0,6170821d1e8ffb9c893b28a4,650c16f0f2faf8d7a0d14c09,651c0ac19f10300bf4c9a3d8,8765, ,"<p>Great, you've seen the first block of words. You may now take a short break.</p>
      <p>Press the spacebar when you're ready to continue.</p>",,,,,,,,,,
html-keyboard-response,89,161871,0.0-10.0-0.0,6170821d1e8ffb9c893b28a4,650c16f0f2faf8d7a0d14c09,651c0ac19f10300bf4c9a3d8,null,null,"<p style=""font-size: 60px; font-family: BACS"">dRhtDOk</p>",,,,,,,,,,
html-keyboard-response,90,162874,0.0-10.0-0.1,6170821d1e8ffb9c893b28a4,650c16f0f2faf8d7a0d14c09,651c0ac19f10300bf4c9a3d8,null,null,"<p style=""font-size: 60px; font-family: BACS"">dClOCYht</p>",,,,,,,,,,
html-keyboard-response,91,163891,0.0-10.0-0.2,6170821d1e8ffb9c893b28a4,650c16f0f2faf8d7a0d14c09,651c0ac19f10300bf4c9a3d8,null,null,"<p style=""font-size: 60px; font-family: BACS"">NbacANmAG</p>",,,,,,,,,,
html-keyboard-response,92,164905,0.0-10.0-0.3,6170821d1e8ffb9c893b28a4,650c16f0f2faf8d7a0d14c09,651c0ac19f10300bf4c9a3d8,null,null,"<p style=""font-size: 60px; font-family: BACS"">dRhtYht</p>",,,,,,,,,,
html-keyboard-response,93,165909,0.0-10.0-0.4,6170821d1e8ffb9c893b28a4,650c16f0f2faf8d7a0d14c09,651c0ac19f10300bf4c9a3d8,null,null,"<p style=""font-size: 60px; font-family: BACS"">lYruamkc</p>",,,,,,,,,,
html-keyboard-response,94,166924,0.0-10.0-0.5,6170821d1e8ffb9c893b28a4,650c16f0f2faf8d7a0d14c09,651c0ac19f10300bf4c9a3d8,null,null,"<p style=""font-size: 60px; font-family: BACS"">NbmQUYUYa</p>",,,,,,,,,,
html-keyboard-response,95,167924,0.0-10.0-0.6,6170821d1e8ffb9c893b28a4,650c16f0f2faf8d7a0d14c09,651c0ac19f10300bf4c9a3d8,null,null,"<p style=""font-size: 60px; font-family: BACS"">DcPTcDOk</p>",,,,,,,,,,
html-keyboard-response,96,168940,0.0-10.0-0.7,6170821d1e8ffb9c893b28a4,650c16f0f2faf8d7a0d14c09,651c0ac19f10300bf4c9a3d8,null,null,"<p style=""font-size: 60px; font-family: BACS"">BMEMAYht</p>",,,,,,,,,,
html-keyboard-response,97,169947,0.0-10.0-0.8,6170821d1e8ffb9c893b28a4,650c16f0f2faf8d7a0d14c09,651c0ac19f10300bf4c9a3d8,null,null,"<p style=""font-size: 60px; font-family: BACS"">dClOCBCAd</p>",,,,,,,,,,
html-keyboard-response,98,170957,0.0-10.0-0.9,6170821d1e8ffb9c893b28a4,650c16f0f2faf8d7a0d14c09,651c0ac19f10300bf4c9a3d8,null,null,"<p style=""font-size: 60px; font-family: BACS"">BMEMATbk</p>",,,,,,,,,,
html-keyboard-response,99,171958,0.0-10.0-0.10,6170821d1e8ffb9c893b28a4,650c16f0f2faf8d7a0d14c09,651c0ac19f10300bf4c9a3d8,null,null,"<p style=""font-size: 60px; font-family: BACS"">dRhtBCAd</p>",,,,,,,,,,
html-keyboard-response,100,172973,0.0-10.0-0.11,6170821d1e8ffb9c893b28a4,650c16f0f2faf8d7a0d14c09,651c0ac19f10300bf4c9a3d8,null,null,"<p style=""font-size: 60px; font-family: BACS"">BdtACYht</p>",,,,,,,,,,
html-keyboard-response,101,173989,0.0-10.0-0.12,6170821d1e8ffb9c893b28a4,650c16f0f2faf8d7a0d14c09,651c0ac19f10300bf4c9a3d8,null,null,"<p style=""font-size: 60px; font-family: BACS"">bYuQJZr</p>",,,,,,,,,,
html-keyboard-response,102,174991,0.0-10.0-0.13,6170821d1e8ffb9c893b28a4,650c16f0f2faf8d7a0d14c09,651c0ac19f10300bf4c9a3d8,null,null,"<p style=""font-size: 60px; font-family: BACS"">laYmrmkc</p>",,,,,,,,,,
html-keyboard-response,103,176006,0.0-10.0-0.14,6170821d1e8ffb9c893b28a4,650c16f0f2faf8d7a0d14c09,651c0ac19f10300bf4c9a3d8,null,null,"<p style=""font-size: 60px; font-family: BACS"">lbBDEDOk</p>",,,,,,,,,,
html-keyboard-response,104,177007,0.0-10.0-0.15,6170821d1e8ffb9c893b28a4,650c16f0f2faf8d7a0d14c09,651c0ac19f10300bf4c9a3d8,null,null,"<p style=""font-size: 60px; font-family: BACS"">NbacAmkc</p>",,,,,,,,,,
html-keyboard-response,105,178022,0.0-10.0-0.16,6170821d1e8ffb9c893b28a4,650c16f0f2faf8d7a0d14c09,651c0ac19f10300bf4c9a3d8,null,null,"<p style=""font-size: 60px; font-family: BACS"">DcPTcYht</p>",,,,,,,,,,
html-keyboard-response,106,179025,0.0-10.0-0.17,6170821d1e8ffb9c893b28a4,650c16f0f2faf8d7a0d14c09,651c0ac19f10300bf4c9a3d8,null,null,"<p style=""font-size: 60px; font-family: BACS"">adkrJZr</p>",,,,,,,,,,
html-keyboard-response,107,180041,0.0-10.0-0.18,6170821d1e8ffb9c893b28a4,650c16f0f2faf8d7a0d14c09,651c0ac19f10300bf4c9a3d8,null,null,"<p style=""font-size: 60px; font-family: BACS"">YOaAbNmAG</p>",,,,,,,,,,
html-keyboard-response,108,181053,0.0-10.0-0.19,6170821d1e8ffb9c893b28a4,650c16f0f2faf8d7a0d14c09,651c0ac19f10300bf4c9a3d8,null,null,"<p style=""font-size: 60px; font-family: BACS"">mUOcOvAvb</p>",,,,,,,,,,
html-keyboard-response,109,182059,0.0-10.0-0.20,6170821d1e8ffb9c893b28a4,650c16f0f2faf8d7a0d14c09,651c0ac19f10300bf4c9a3d8,null,null,"<p style=""font-size: 60px; font-family: BACS"">hbmAYht</p>",,,,,,,,,,
html-keyboard-response,110,183074,0.0-10.0-0.21,6170821d1e8ffb9c893b28a4,650c16f0f2faf8d7a0d14c09,651c0ac19f10300bf4c9a3d8,null,null,"<p style=""font-size: 60px; font-family: BACS"">lYruaYUYa</p>",,,,,,,,,,
html-keyboard-response,111,184076,0.0-10.0-0.22,6170821d1e8ffb9c893b28a4,650c16f0f2faf8d7a0d14c09,651c0ac19f10300bf4c9a3d8,null,null,"<p style=""font-size: 60px; font-family: BACS"">DcPTcRCdc</p>",,,,,,,,,,
html-keyboard-response,112,185088,0.0-10.0-0.23,6170821d1e8ffb9c893b28a4,650c16f0f2faf8d7a0d14c09,651c0ac19f10300bf4c9a3d8,null,null,"<p style=""font-size: 60px; font-family: BACS"">adkrmkc</p>",,,,,,,,,,
html-keyboard-response,113,186091,0.0-10.0-0.24,6170821d1e8ffb9c893b28a4,650c16f0f2faf8d7a0d14c09,651c0ac19f10300bf4c9a3d8,null,null,"<p style=""font-size: 60px; font-family: BACS"">blMkBCAd</p>",,,,,,,,,,
html-keyboard-response,114,187108,0.0-10.0-0.25,6170821d1e8ffb9c893b28a4,650c16f0f2faf8d7a0d14c09,651c0ac19f10300bf4c9a3d8,null,null,"<p style=""font-size: 60px; font-family: BACS"">YOaAbvAvb</p>",,,,,,,,,,
html-keyboard-response,115,188123,0.0-10.0-0.26,6170821d1e8ffb9c893b28a4,650c16f0f2faf8d7a0d14c09,651c0ac19f10300bf4c9a3d8,null,null,"<p style=""font-size: 60px; font-family: BACS"">mUOcONmAG</p>",,,,,,,,,,
html-keyboard-response,116,189132,0.0-10.0-0.27,6170821d1e8ffb9c893b28a4,650c16f0f2faf8d7a0d14c09,651c0ac19f10300bf4c9a3d8,null,null,"<p style=""font-size: 60px; font-family: BACS"">hlbtbTbk</p>",,,,,,,,,,
html-keyboard-response,117,190138,0.0-10.0-0.28,6170821d1e8ffb9c893b28a4,650c16f0f2faf8d7a0d14c09,651c0ac19f10300bf4c9a3d8,null,null,"<p style=""font-size: 60px; font-family: BACS"">mUOcOJZr</p>",,,,,,,,,,
html-keyboard-response,118,191141,0.0-10.0-0.29,6170821d1e8ffb9c893b28a4,650c16f0f2faf8d7a0d14c09,651c0ac19f10300bf4c9a3d8,null,null,"<p style=""font-size: 60px; font-family: BACS"">NbmQUNmAG</p>",,,,,,,,,,
html-keyboard-response,119,192156,0.0-10.0-0.30,6170821d1e8ffb9c893b28a4,650c16f0f2faf8d7a0d14c09,651c0ac19f10300bf4c9a3d8,null,null,"<p style=""font-size: 60px; font-family: BACS"">ldAaYUYa</p>",,,,,,,,,,
html-keyboard-response,120,193172,0.0-10.0-0.31,6170821d1e8ffb9c893b28a4,650c16f0f2faf8d7a0d14c09,651c0ac19f10300bf4c9a3d8,null,null,"<p style=""font-size: 60px; font-family: BACS"">bYuQmkc</p>",,,,,,,,,,
html-keyboard-response,121,194176,0.0-10.0-0.32,6170821d1e8ffb9c893b28a4,650c16f0f2faf8d7a0d14c09,651c0ac19f10300bf4c9a3d8,null,null,"<p style=""font-size: 60px; font-family: BACS"">ldAaJZr</p>",,,,,,,,,,
html-keyboard-response,122,195189,0.0-10.0-0.33,6170821d1e8ffb9c893b28a4,650c16f0f2faf8d7a0d14c09,651c0ac19f10300bf4c9a3d8,null,null,"<p style=""font-size: 60px; font-family: BACS"">blMkTbk</p>",,,,,,,,,,
html-keyboard-response,123,196190,0.0-10.0-0.34,6170821d1e8ffb9c893b28a4,650c16f0f2faf8d7a0d14c09,651c0ac19f10300bf4c9a3d8,null,null,"<p style=""font-size: 60px; font-family: BACS"">lYruavAvb</p>",,,,,,,,,,
html-keyboard-response,124,197206,0.0-10.0-0.35,6170821d1e8ffb9c893b28a4,650c16f0f2faf8d7a0d14c09,651c0ac19f10300bf4c9a3d8,null,null,"<p style=""font-size: 60px; font-family: BACS"">uQkrdNmAG</p>",,,,,,,,,,
html-keyboard-response,125,198223,0.0-10.0-0.36,6170821d1e8ffb9c893b28a4,650c16f0f2faf8d7a0d14c09,651c0ac19f10300bf4c9a3d8,null,null,"<p style=""font-size: 60px; font-family: BACS"">blMkRCdc</p>",,,,,,,,,,
html-keyboard-response,126,199224,0.0-10.0-0.37,6170821d1e8ffb9c893b28a4,650c16f0f2faf8d7a0d14c09,651c0ac19f10300bf4c9a3d8,null,null,"<p style=""font-size: 60px; font-family: BACS"">laYmrJZr</p>",,,,,,,,,,
html-keyboard-response,127,200240,0.0-10.0-0.38,6170821d1e8ffb9c893b28a4,650c16f0f2faf8d7a0d14c09,651c0ac19f10300bf4c9a3d8,null,null,"<p style=""font-size: 60px; font-family: BACS"">hlbtbDOk</p>",,,,,,,,,,
html-keyboard-response,128,201246,0.0-10.0-0.39,6170821d1e8ffb9c893b28a4,650c16f0f2faf8d7a0d14c09,651c0ac19f10300bf4c9a3d8,null,null,"<p style=""font-size: 60px; font-family: BACS"">NbacAvAvb</p>",,,,,,,,,,
html-keyboard-response,129,202257,0.0-10.0-0.40,6170821d1e8ffb9c893b28a4,650c16f0f2faf8d7a0d14c09,651c0ac19f10300bf4c9a3d8,null,null,"<p style=""font-size: 60px; font-family: BACS"">lbBDEYht</p>",,,,,,,,,,
html-keyboard-response,130,203258,0.0-10.0-0.41,6170821d1e8ffb9c893b28a4,650c16f0f2faf8d7a0d14c09,651c0ac19f10300bf4c9a3d8,null,null,"<p style=""font-size: 60px; font-family: BACS"">BMEMADOk</p>",,,,,,,,,,
html-keyboard-response,131,204262,0.0-10.0-0.42,6170821d1e8ffb9c893b28a4,650c16f0f2faf8d7a0d14c09,651c0ac19f10300bf4c9a3d8,null,null,"<p style=""font-size: 60px; font-family: BACS"">dRhtTbk</p>",,,,,,,,,,
html-keyboard-response,132,205273,0.0-10.0-0.43,6170821d1e8ffb9c893b28a4,650c16f0f2faf8d7a0d14c09,651c0ac19f10300bf4c9a3d8,null,null,"<p style=""font-size: 60px; font-family: BACS"">TObCOYht</p>",,,,,,,,,,
html-keyboard-response,133,206273,0.0-10.0-0.44,6170821d1e8ffb9c893b28a4,650c16f0f2faf8d7a0d14c09,651c0ac19f10300bf4c9a3d8,null,null,"<p style=""font-size: 60px; font-family: BACS"">BdtACDOk</p>",,,,,,,,,,
html-keyboard-response,134,207277,0.0-10.0-0.45,6170821d1e8ffb9c893b28a4,650c16f0f2faf8d7a0d14c09,651c0ac19f10300bf4c9a3d8,null,null,"<p style=""font-size: 60px; font-family: BACS"">DcPTcTbk</p>",,,,,,,,,,
html-keyboard-response,135,208289,0.0-10.0-0.46,6170821d1e8ffb9c893b28a4,650c16f0f2faf8d7a0d14c09,651c0ac19f10300bf4c9a3d8,null,null,"<p style=""font-size: 60px; font-family: BACS"">blMkDOk</p>",,,,,,,,,,
html-keyboard-response,136,209290,0.0-10.0-0.47,6170821d1e8ffb9c893b28a4,650c16f0f2faf8d7a0d14c09,651c0ac19f10300bf4c9a3d8,null,null,"<p style=""font-size: 60px; font-family: BACS"">dClOCRCdc</p>",,,,,,,,,,
html-keyboard-response,137,210305,0.0-10.0-0.48,6170821d1e8ffb9c893b28a4,650c16f0f2faf8d7a0d14c09,651c0ac19f10300bf4c9a3d8,null,null,"<p style=""font-size: 60px; font-family: BACS"">bYuQNmAG</p>",,,,,,,,,,
html-keyboard-response,138,211306,0.0-10.0-0.49,6170821d1e8ffb9c893b28a4,650c16f0f2faf8d7a0d14c09,651c0ac19f10300bf4c9a3d8,null,null,"<p style=""font-size: 60px; font-family: BACS"">NbmQUmkc</p>",,,,,,,,,,
html-keyboard-response,139,212337,0.0-10.0-0.50,6170821d1e8ffb9c893b28a4,650c16f0f2faf8d7a0d14c09,651c0ac19f10300bf4c9a3d8,null,null,"<p style=""font-size: 60px; font-family: BACS"">uQkrdYUYa</p>",,,,,,,,,,
html-keyboard-response,140,213343,0.0-10.0-0.51,6170821d1e8ffb9c893b28a4,650c16f0f2faf8d7a0d14c09,651c0ac19f10300bf4c9a3d8,null,null,"<p style=""font-size: 60px; font-family: BACS"">BdtACBCAd</p>",,,,,,,,,,
html-keyboard-response,141,214355,0.0-10.0-0.52,6170821d1e8ffb9c893b28a4,650c16f0f2faf8d7a0d14c09,651c0ac19f10300bf4c9a3d8,null,null,"<p style=""font-size: 60px; font-family: BACS"">adkrYUYa</p>",,,,,,,,,,
html-keyboard-response,142,215357,0.0-10.0-0.53,6170821d1e8ffb9c893b28a4,650c16f0f2faf8d7a0d14c09,651c0ac19f10300bf4c9a3d8,null,null,"<p style=""font-size: 60px; font-family: BACS"">dClOCTbk</p>",,,,,,,,,,
html-keyboard-response,143,216360,0.0-10.0-0.54,6170821d1e8ffb9c893b28a4,650c16f0f2faf8d7a0d14c09,651c0ac19f10300bf4c9a3d8,null,null,"<p style=""font-size: 60px; font-family: BACS"">YOaAbJZr</p>",,,,,,,,,,
html-keyboard-response,144,217374,0.0-10.0-0.55,6170821d1e8ffb9c893b28a4,650c16f0f2faf8d7a0d14c09,651c0ac19f10300bf4c9a3d8,null,null,"<p style=""font-size: 60px; font-family: BACS"">uQkrdvAvb</p>",,,,,,,,,,
html-keyboard-response,145,218389,0.0-10.0-0.56,6170821d1e8ffb9c893b28a4,650c16f0f2faf8d7a0d14c09,651c0ac19f10300bf4c9a3d8,null,null,"<p style=""font-size: 60px; font-family: BACS"">BdtACRCdc</p>",,,,,,,,,,
html-keyboard-response,146,219390,0.0-10.0-0.57,6170821d1e8ffb9c893b28a4,650c16f0f2faf8d7a0d14c09,651c0ac19f10300bf4c9a3d8,null,null,"<p style=""font-size: 60px; font-family: BACS"">hlbtbBCAd</p>",,,,,,,,,,
html-keyboard-response,147,220404,0.0-10.0-0.58,6170821d1e8ffb9c893b28a4,650c16f0f2faf8d7a0d14c09,651c0ac19f10300bf4c9a3d8,null,null,"<p style=""font-size: 60px; font-family: BACS"">ldAamkc</p>",,,,,,,,,,
html-keyboard-response,148,221406,0.0-10.0-0.59,6170821d1e8ffb9c893b28a4,650c16f0f2faf8d7a0d14c09,651c0ac19f10300bf4c9a3d8,null,null,"<p style=""font-size: 60px; font-family: BACS"">lbBDEBCAd</p>",,,,,,,,,,
html-keyboard-response,149,222423,0.0-10.0-0.60,6170821d1e8ffb9c893b28a4,650c16f0f2faf8d7a0d14c09,651c0ac19f10300bf4c9a3d8,null,null,"<p style=""font-size: 60px; font-family: BACS"">hlbtbRCdc</p>",,,,,,,,,,
html-keyboard-response,150,223424,0.0-10.0-0.61,6170821d1e8ffb9c893b28a4,650c16f0f2faf8d7a0d14c09,651c0ac19f10300bf4c9a3d8,null,null,"<p style=""font-size: 60px; font-family: BACS"">NbacAYUYa</p>",,,,,,,,,,
html-keyboard-response,151,224426,0.0-10.0-0.62,6170821d1e8ffb9c893b28a4,650c16f0f2faf8d7a0d14c09,651c0ac19f10300bf4c9a3d8,null,null,"<p style=""font-size: 60px; font-family: BACS"">laYmrvAvb</p>",,,,,,,,,,
html-keyboard-response,152,225438,0.0-10.0-0.63,6170821d1e8ffb9c893b28a4,650c16f0f2faf8d7a0d14c09,651c0ac19f10300bf4c9a3d8,null,null,"<p style=""font-size: 60px; font-family: BACS"">hbmABCAd</p>",,,,,,,,,,
html-keyboard-response,153,226441,0.0-10.0-0.64,6170821d1e8ffb9c893b28a4,650c16f0f2faf8d7a0d14c09,651c0ac19f10300bf4c9a3d8,null,null,"<p style=""font-size: 60px; font-family: BACS"">YOaAbYUYa</p>",,,,,,,,,,
html-keyboard-response,154,227452,0.0-10.0-0.65,6170821d1e8ffb9c893b28a4,650c16f0f2faf8d7a0d14c09,651c0ac19f10300bf4c9a3d8,null,null,"<p style=""font-size: 60px; font-family: BACS"">ldAaNmAG</p>",,,,,,,,,,
html-keyboard-response,155,228458,0.0-10.0-0.66,6170821d1e8ffb9c893b28a4,650c16f0f2faf8d7a0d14c09,651c0ac19f10300bf4c9a3d8,null,null,"<p style=""font-size: 60px; font-family: BACS"">mUOcOmkc</p>",,,,,,,,,,
html-keyboard-response,156,229459,0.0-10.0-0.67,6170821d1e8ffb9c893b28a4,650c16f0f2faf8d7a0d14c09,651c0ac19f10300bf4c9a3d8,null,null,"<p style=""font-size: 60px; font-family: BACS"">hbmATbk</p>",,,,,,,,,,
html-keyboard-response,157,230471,0.0-10.0-0.68,6170821d1e8ffb9c893b28a4,650c16f0f2faf8d7a0d14c09,651c0ac19f10300bf4c9a3d8,null,null,"<p style=""font-size: 60px; font-family: BACS"">BMEMARCdc</p>",,,,,,,,,,
html-keyboard-response,158,231474,0.0-10.0-0.69,6170821d1e8ffb9c893b28a4,650c16f0f2faf8d7a0d14c09,651c0ac19f10300bf4c9a3d8,null,null,"<p style=""font-size: 60px; font-family: BACS"">lbBDETbk</p>",,,,,,,,,,
html-keyboard-response,159,232489,0.0-10.0-0.70,6170821d1e8ffb9c893b28a4,650c16f0f2faf8d7a0d14c09,651c0ac19f10300bf4c9a3d8,null,null,"<p style=""font-size: 60px; font-family: BACS"">NbmQUvAvb</p>",,,,,,,,,,
html-keyboard-response,160,233491,0.0-10.0-0.71,6170821d1e8ffb9c893b28a4,650c16f0f2faf8d7a0d14c09,651c0ac19f10300bf4c9a3d8,null,null,"<p style=""font-size: 60px; font-family: BACS"">TObCORCdc</p>",,,,,,,,,,
html-keyboard-response,161,234506,0.0-10.0-0.72,6170821d1e8ffb9c893b28a4,650c16f0f2faf8d7a0d14c09,651c0ac19f10300bf4c9a3d8,null,null,"<p style=""font-size: 60px; font-family: BACS"">lYruaJZr</p>",,,,,,,,,,
html-keyboard-response,162,235508,0.0-10.0-0.73,6170821d1e8ffb9c893b28a4,650c16f0f2faf8d7a0d14c09,651c0ac19f10300bf4c9a3d8,null,null,"<p style=""font-size: 60px; font-family: BACS"">TObCODOk</p>",,,,,,,,,,
html-keyboard-response,163,236524,0.0-10.0-0.74,6170821d1e8ffb9c893b28a4,650c16f0f2faf8d7a0d14c09,651c0ac19f10300bf4c9a3d8,null,null,"<p style=""font-size: 60px; font-family: BACS"">adkrNmAG</p>",,,,,,,,,,
html-keyboard-response,164,237525,0.0-10.0-0.75,6170821d1e8ffb9c893b28a4,650c16f0f2faf8d7a0d14c09,651c0ac19f10300bf4c9a3d8,null,null,"<p style=""font-size: 60px; font-family: BACS"">TObCOBCAd</p>",,,,,,,,,,
html-keyboard-response,165,238533,0.0-10.0-0.76,6170821d1e8ffb9c893b28a4,650c16f0f2faf8d7a0d14c09,651c0ac19f10300bf4c9a3d8,null,null,"<p style=""font-size: 60px; font-family: BACS"">uQkrdJZr</p>",,,,,,,,,,
html-keyboard-response,166,239542,0.0-10.0-0.77,6170821d1e8ffb9c893b28a4,650c16f0f2faf8d7a0d14c09,651c0ac19f10300bf4c9a3d8,null,null,"<p style=""font-size: 60px; font-family: BACS"">bYuQvAvb</p>",,,,,,,,,,
html-keyboard-response,167,240557,0.0-10.0-0.78,6170821d1e8ffb9c893b28a4,650c16f0f2faf8d7a0d14c09,651c0ac19f10300bf4c9a3d8,null,null,"<p style=""font-size: 60px; font-family: BACS"">laYmrYUYa</p>",,,,,,,,,,
html-keyboard-response,168,241567,0.0-10.0-0.79,6170821d1e8ffb9c893b28a4,650c16f0f2faf8d7a0d14c09,651c0ac19f10300bf4c9a3d8,null,null,"<p style=""font-size: 60px; font-family: BACS"">hbmARCdc</p>",,,,,,,,,,
html-keyboard-response,169,246561,0.0-11.0,6170821d1e8ffb9c893b28a4,650c16f0f2faf8d7a0d14c09,651c0ac19f10300bf4c9a3d8,4994, ,"<p>Great, you've seen the second block of words. You may now take a short break.</p>
      <p>Press the spacebar when you're ready to continue.</p>",,,,,,,,,,
html-keyboard-response,170,247574,0.0-12.0-0.0,6170821d1e8ffb9c893b28a4,650c16f0f2faf8d7a0d14c09,651c0ac19f10300bf4c9a3d8,null,null,"<p style=""font-size: 60px; font-family: BACS"">lYruamkc</p>",,,,,,,,,,
html-keyboard-response,171,248576,0.0-12.0-0.1,6170821d1e8ffb9c893b28a4,650c16f0f2faf8d7a0d14c09,651c0ac19f10300bf4c9a3d8,null,null,"<p style=""font-size: 60px; font-family: BACS"">adkrNmAG</p>",,,,,,,,,,
html-keyboard-response,172,249592,0.0-12.0-0.2,6170821d1e8ffb9c893b28a4,650c16f0f2faf8d7a0d14c09,651c0ac19f10300bf4c9a3d8,null,null,"<p style=""font-size: 60px; font-family: BACS"">TObCOBCAd</p>",,,,,,,,,,
html-keyboard-response,173,250608,0.0-12.0-0.3,6170821d1e8ffb9c893b28a4,650c16f0f2faf8d7a0d14c09,651c0ac19f10300bf4c9a3d8,null,null,"<p style=""font-size: 60px; font-family: BACS"">mUOcOmkc</p>",,,,,,,,,,
html-keyboard-response,174,251609,0.0-12.0-0.4,6170821d1e8ffb9c893b28a4,650c16f0f2faf8d7a0d14c09,651c0ac19f10300bf4c9a3d8,null,null,"<p style=""font-size: 60px; font-family: BACS"">hbmAYht</p>",,,,,,,,,,
html-keyboard-response,175,252625,0.0-12.0-0.5,6170821d1e8ffb9c893b28a4,650c16f0f2faf8d7a0d14c09,651c0ac19f10300bf4c9a3d8,null,null,"<p style=""font-size: 60px; font-family: BACS"">NbmQUYUYa</p>",,,,,,,,,,
html-keyboard-response,176,253641,0.0-12.0-0.6,6170821d1e8ffb9c893b28a4,650c16f0f2faf8d7a0d14c09,651c0ac19f10300bf4c9a3d8,null,null,"<p style=""font-size: 60px; font-family: BACS"">uQkrdJZr</p>",,,,,,,,,,
html-keyboard-response,177,254642,0.0-12.0-0.7,6170821d1e8ffb9c893b28a4,650c16f0f2faf8d7a0d14c09,651c0ac19f10300bf4c9a3d8,null,null,"<p style=""font-size: 60px; font-family: BACS"">dRhtDOk</p>",,,,,,,,,,
html-keyboard-response,178,255658,0.0-12.0-0.8,6170821d1e8ffb9c893b28a4,650c16f0f2faf8d7a0d14c09,651c0ac19f10300bf4c9a3d8,null,null,"<p style=""font-size: 60px; font-family: BACS"">uQkrdNmAG</p>",,,,,,,,,,
html-keyboard-response,179,256674,0.0-12.0-0.9,6170821d1e8ffb9c893b28a4,650c16f0f2faf8d7a0d14c09,651c0ac19f10300bf4c9a3d8,null,null,"<p style=""font-size: 60px; font-family: BACS"">TObCODOk</p>",,,,,,,,,,
html-keyboard-response,180,257676,0.0-12.0-0.10,6170821d1e8ffb9c893b28a4,650c16f0f2faf8d7a0d14c09,651c0ac19f10300bf4c9a3d8,null,null,"<p style=""font-size: 60px; font-family: BACS"">NbmQUmkc</p>",,,,,,,,,,
html-keyboard-response,181,258691,0.0-12.0-0.11,6170821d1e8ffb9c893b28a4,650c16f0f2faf8d7a0d14c09,651c0ac19f10300bf4c9a3d8,null,null,"<p style=""font-size: 60px; font-family: BACS"">dClOCBCAd</p>",,,,,,,,,,
html-keyboard-response,182,259692,0.0-12.0-0.12,6170821d1e8ffb9c893b28a4,650c16f0f2faf8d7a0d14c09,651c0ac19f10300bf4c9a3d8,null,null,"<p style=""font-size: 60px; font-family: BACS"">adkrmkc</p>",,,,,,,,,,
html-keyboard-response,183,260708,0.0-12.0-0.13,6170821d1e8ffb9c893b28a4,650c16f0f2faf8d7a0d14c09,651c0ac19f10300bf4c9a3d8,null,null,"<p style=""font-size: 60px; font-family: BACS"">bYuQNmAG</p>",,,,,,,,,,
html-keyboard-response,184,261723,0.0-12.0-0.14,6170821d1e8ffb9c893b28a4,650c16f0f2faf8d7a0d14c09,651c0ac19f10300bf4c9a3d8,null,null,"<p style=""font-size: 60px; font-family: BACS"">hlbtbTbk</p>",,,,,,,,,,
html-keyboard-response,185,262726,0.0-12.0-0.15,6170821d1e8ffb9c893b28a4,650c16f0f2faf8d7a0d14c09,651c0ac19f10300bf4c9a3d8,null,null,"<p style=""font-size: 60px; font-family: BACS"">bYuQmkc</p>",,,,,,,,,,
html-keyboard-response,186,263741,0.0-12.0-0.16,6170821d1e8ffb9c893b28a4,650c16f0f2faf8d7a0d14c09,651c0ac19f10300bf4c9a3d8,null,null,"<p style=""font-size: 60px; font-family: BACS"">hbmABCAd</p>",,,,,,,,,,
html-keyboard-response,187,264757,0.0-12.0-0.17,6170821d1e8ffb9c893b28a4,650c16f0f2faf8d7a0d14c09,651c0ac19f10300bf4c9a3d8,null,null,"<p style=""font-size: 60px; font-family: BACS"">lbBDEYht</p>",,,,,,,,,,
html-keyboard-response,188,265759,0.0-12.0-0.18,6170821d1e8ffb9c893b28a4,650c16f0f2faf8d7a0d14c09,651c0ac19f10300bf4c9a3d8,null,null,"<p style=""font-size: 60px; font-family: BACS"">mUOcOvAvb</p>",,,,,,,,,,
html-keyboard-response,189,266774,0.0-12.0-0.19,6170821d1e8ffb9c893b28a4,650c16f0f2faf8d7a0d14c09,651c0ac19f10300bf4c9a3d8,null,null,"<p style=""font-size: 60px; font-family: BACS"">hlbtbRCdc</p>",,,,,,,,,,
html-keyboard-response,190,267775,0.0-12.0-0.20,6170821d1e8ffb9c893b28a4,650c16f0f2faf8d7a0d14c09,651c0ac19f10300bf4c9a3d8,null,null,"<p style=""font-size: 60px; font-family: BACS"">BMEMAYht</p>",,,,,,,,,,
html-keyboard-response,191,268791,0.0-12.0-0.21,6170821d1e8ffb9c893b28a4,650c16f0f2faf8d7a0d14c09,651c0ac19f10300bf4c9a3d8,null,null,"<p style=""font-size: 60px; font-family: BACS"">YOaAbvAvb</p>",,,,,,,,,,
html-keyboard-response,192,269793,0.0-12.0-0.22,6170821d1e8ffb9c893b28a4,650c16f0f2faf8d7a0d14c09,651c0ac19f10300bf4c9a3d8,null,null,"<p style=""font-size: 60px; font-family: BACS"">BMEMATbk</p>",,,,,,,,,,
html-keyboard-response,193,270808,0.0-12.0-0.23,6170821d1e8ffb9c893b28a4,650c16f0f2faf8d7a0d14c09,651c0ac19f10300bf4c9a3d8,null,null,"<p style=""font-size: 60px; font-family: BACS"">TObCORCdc</p>",,,,,,,,,,
html-keyboard-response,194,271824,0.0-12.0-0.24,6170821d1e8ffb9c893b28a4,650c16f0f2faf8d7a0d14c09,651c0ac19f10300bf4c9a3d8,null,null,"<p style=""font-size: 60px; font-family: BACS"">blMkBCAd</p>",,,,,,,,,,
html-keyboard-response,195,272825,0.0-12.0-0.25,6170821d1e8ffb9c893b28a4,650c16f0f2faf8d7a0d14c09,651c0ac19f10300bf4c9a3d8,null,null,"<p style=""font-size: 60px; font-family: BACS"">adkrJZr</p>",,,,,,,,,,
html-keyboard-response,196,273841,0.0-12.0-0.26,6170821d1e8ffb9c893b28a4,650c16f0f2faf8d7a0d14c09,651c0ac19f10300bf4c9a3d8,null,null,"<p style=""font-size: 60px; font-family: BACS"">BdtACYht</p>",,,,,,,,,,
html-keyboard-response,197,274842,0.0-12.0-0.27,6170821d1e8ffb9c893b28a4,650c16f0f2faf8d7a0d14c09,651c0ac19f10300bf4c9a3d8,null,null,"<p style=""font-size: 60px; font-family: BACS"">ldAaNmAG</p>",,,,,,,,,,
html-keyboard-response,198,275857,0.0-12.0-0.28,6170821d1e8ffb9c893b28a4,650c16f0f2faf8d7a0d14c09,651c0ac19f10300bf4c9a3d8,null,null,"<p style=""font-size: 60px; font-family: BACS"">dRhtTbk</p>",,,,,,,,,,
html-keyboard-response,199,276874,0.0-12.0-0.29,6170821d1e8ffb9c893b28a4,650c16f0f2faf8d7a0d14c09,651c0ac19f10300bf4c9a3d8,null,null,"<p style=""font-size: 60px; font-family: BACS"">BdtACBCAd</p>",,,,,,,,,,
html-keyboard-response,200,277887,0.0-12.0-0.30,6170821d1e8ffb9c893b28a4,650c16f0f2faf8d7a0d14c09,651c0ac19f10300bf4c9a3d8,null,null,"<p style=""font-size: 60px; font-family: BACS"">dClOCRCdc</p>",,,,,,,,,,
html-keyboard-response,201,278892,0.0-12.0-0.31,6170821d1e8ffb9c893b28a4,650c16f0f2faf8d7a0d14c09,651c0ac19f10300bf4c9a3d8,null,null,"<p style=""font-size: 60px; font-family: BACS"">NbacAvAvb</p>",,,,,,,,,,
html-keyboard-response,202,279906,0.0-12.0-0.32,6170821d1e8ffb9c893b28a4,650c16f0f2faf8d7a0d14c09,651c0ac19f10300bf4c9a3d8,null,null,"<p style=""font-size: 60px; font-family: BACS"">YOaAbYUYa</p>",,,,,,,,,,
html-keyboard-response,203,280908,0.0-12.0-0.33,6170821d1e8ffb9c893b28a4,650c16f0f2faf8d7a0d14c09,651c0ac19f10300bf4c9a3d8,null,null,"<p style=""font-size: 60px; font-family: BACS"">NbacAmkc</p>",,,,,,,,,,
html-keyboard-response,204,281924,0.0-12.0-0.34,6170821d1e8ffb9c893b28a4,650c16f0f2faf8d7a0d14c09,651c0ac19f10300bf4c9a3d8,null,null,"<p style=""font-size: 60px; font-family: BACS"">hlbtbDOk</p>",,,,,,,,,,
html-keyboard-response,205,282924,0.0-12.0-0.35,6170821d1e8ffb9c893b28a4,650c16f0f2faf8d7a0d14c09,651c0ac19f10300bf4c9a3d8,null,null,"<p style=""font-size: 60px; font-family: BACS"">blMkRCdc</p>",,,,,,,,,,
html-keyboard-response,206,283925,0.0-12.0-0.36,6170821d1e8ffb9c893b28a4,650c16f0f2faf8d7a0d14c09,651c0ac19f10300bf4c9a3d8,null,null,"<p style=""font-size: 60px; font-family: BACS"">mUOcOJZr</p>",,,,,,,,,,
html-keyboard-response,207,284942,0.0-12.0-0.37,6170821d1e8ffb9c893b28a4,650c16f0f2faf8d7a0d14c09,651c0ac19f10300bf4c9a3d8,null,null,"<p style=""font-size: 60px; font-family: BACS"">dRhtYht</p>",,,,,,,,,,
html-keyboard-response,208,285958,0.0-12.0-0.38,6170821d1e8ffb9c893b28a4,650c16f0f2faf8d7a0d14c09,651c0ac19f10300bf4c9a3d8,null,null,"<p style=""font-size: 60px; font-family: BACS"">lYruaJZr</p>",,,,,,,,,,
html-keyboard-response,209,286959,0.0-12.0-0.39,6170821d1e8ffb9c893b28a4,650c16f0f2faf8d7a0d14c09,651c0ac19f10300bf4c9a3d8,null,null,"<p style=""font-size: 60px; font-family: BACS"">ldAamkc</p>",,,,,,,,,,
html-keyboard-response,210,287973,0.0-12.0-0.40,6170821d1e8ffb9c893b28a4,650c16f0f2faf8d7a0d14c09,651c0ac19f10300bf4c9a3d8,null,null,"<p style=""font-size: 60px; font-family: BACS"">BdtACRCdc</p>",,,,,,,,,,
html-keyboard-response,211,288989,0.0-12.0-0.41,6170821d1e8ffb9c893b28a4,650c16f0f2faf8d7a0d14c09,651c0ac19f10300bf4c9a3d8,null,null,"<p style=""font-size: 60px; font-family: BACS"">lYruaYUYa</p>",,,,,,,,,,
html-keyboard-response,212,289993,0.0-12.0-0.42,6170821d1e8ffb9c893b28a4,650c16f0f2faf8d7a0d14c09,651c0ac19f10300bf4c9a3d8,null,null,"<p style=""font-size: 60px; font-family: BACS"">BMEMARCdc</p>",,,,,,,,,,
html-keyboard-response,213,291008,0.0-12.0-0.43,6170821d1e8ffb9c893b28a4,650c16f0f2faf8d7a0d14c09,651c0ac19f10300bf4c9a3d8,null,null,"<p style=""font-size: 60px; font-family: BACS"">dRhtBCAd</p>",,,,,,,,,,
html-keyboard-response,214,292011,0.0-12.0-0.44,6170821d1e8ffb9c893b28a4,650c16f0f2faf8d7a0d14c09,651c0ac19f10300bf4c9a3d8,null,null,"<p style=""font-size: 60px; font-family: BACS"">dClOCYht</p>",,,,,,,,,,
html-keyboard-response,215,293022,0.0-12.0-0.45,6170821d1e8ffb9c893b28a4,650c16f0f2faf8d7a0d14c09,651c0ac19f10300bf4c9a3d8,null,null,"<p style=""font-size: 60px; font-family: BACS"">hlbtbBCAd</p>",,,,,,,,,,
html-keyboard-response,216,294025,0.0-12.0-0.46,6170821d1e8ffb9c893b28a4,650c16f0f2faf8d7a0d14c09,651c0ac19f10300bf4c9a3d8,null,null,"<p style=""font-size: 60px; font-family: BACS"">YOaAbJZr</p>",,,,,,,,,,
html-keyboard-response,217,295041,0.0-12.0-0.47,6170821d1e8ffb9c893b28a4,650c16f0f2faf8d7a0d14c09,651c0ac19f10300bf4c9a3d8,null,null,"<p style=""font-size: 60px; font-family: BACS"">bYuQvAvb</p>",,,,,,,,,,
html-keyboard-response,218,296046,0.0-12.0-0.48,6170821d1e8ffb9c893b28a4,650c16f0f2faf8d7a0d14c09,651c0ac19f10300bf4c9a3d8,null,null,"<p style=""font-size: 60px; font-family: BACS"">laYmrYUYa</p>",,,,,,,,,,
html-keyboard-response,219,297057,0.0-12.0-0.49,6170821d1e8ffb9c893b28a4,650c16f0f2faf8d7a0d14c09,651c0ac19f10300bf4c9a3d8,null,null,"<p style=""font-size: 60px; font-family: BACS"">NbacANmAG</p>",,,,,,,,,,
html-keyboard-response,220,298058,0.0-12.0-0.50,6170821d1e8ffb9c893b28a4,650c16f0f2faf8d7a0d14c09,651c0ac19f10300bf4c9a3d8,null,null,"<p style=""font-size: 60px; font-family: BACS"">ldAaYUYa</p>",,,,,,,,,,
html-keyboard-response,221,299074,0.0-12.0-0.51,6170821d1e8ffb9c893b28a4,650c16f0f2faf8d7a0d14c09,651c0ac19f10300bf4c9a3d8,null,null,"<p style=""font-size: 60px; font-family: BACS"">laYmrvAvb</p>",,,,,,,,,,
html-keyboard-response,222,300075,0.0-12.0-0.52,6170821d1e8ffb9c893b28a4,650c16f0f2faf8d7a0d14c09,651c0ac19f10300bf4c9a3d8,null,null,"<p style=""font-size: 60px; font-family: BACS"">uQkrdYUYa</p>",,,,,,,,,,
html-keyboard-response,223,301091,0.0-12.0-0.53,6170821d1e8ffb9c893b28a4,650c16f0f2faf8d7a0d14c09,651c0ac19f10300bf4c9a3d8,null,null,"<p style=""font-size: 60px; font-family: BACS"">bYuQJZr</p>",,,,,,,,,,
html-keyboard-response,224,302107,0.0-12.0-0.54,6170821d1e8ffb9c893b28a4,650c16f0f2faf8d7a0d14c09,651c0ac19f10300bf4c9a3d8,null,null,"<p style=""font-size: 60px; font-family: BACS"">laYmrmkc</p>",,,,,,,,,,
html-keyboard-response,225,303124,0.0-12.0-0.55,6170821d1e8ffb9c893b28a4,650c16f0f2faf8d7a0d14c09,651c0ac19f10300bf4c9a3d8,null,null,"<p style=""font-size: 60px; font-family: BACS"">lbBDETbk</p>",,,,,,,,,,
html-keyboard-response,226,304125,0.0-12.0-0.56,6170821d1e8ffb9c893b28a4,650c16f0f2faf8d7a0d14c09,651c0ac19f10300bf4c9a3d8,null,null,"<p style=""font-size: 60px; font-family: BACS"">adkrYUYa</p>",,,,,,,,,,
html-keyboard-response,227,305141,0.0-12.0-0.57,6170821d1e8ffb9c893b28a4,650c16f0f2faf8d7a0d14c09,651c0ac19f10300bf4c9a3d8,null,null,"<p style=""font-size: 60px; font-family: BACS"">lbBDEBCAd</p>",,,,,,,,,,
html-keyboard-response,228,306143,0.0-12.0-0.58,6170821d1e8ffb9c893b28a4,650c16f0f2faf8d7a0d14c09,651c0ac19f10300bf4c9a3d8,null,null,"<p style=""font-size: 60px; font-family: BACS"">BdtACDOk</p>",,,,,,,,,,
html-keyboard-response,229,307157,0.0-12.0-0.59,6170821d1e8ffb9c893b28a4,650c16f0f2faf8d7a0d14c09,651c0ac19f10300bf4c9a3d8,null,null,"<p style=""font-size: 60px; font-family: BACS"">blMkTbk</p>",,,,,,,,,,
html-keyboard-response,230,308158,0.0-12.0-0.60,6170821d1e8ffb9c893b28a4,650c16f0f2faf8d7a0d14c09,651c0ac19f10300bf4c9a3d8,null,null,"<p style=""font-size: 60px; font-family: BACS"">hbmARCdc</p>",,,,,,,,,,
html-keyboard-response,231,309174,0.0-12.0-0.61,6170821d1e8ffb9c893b28a4,650c16f0f2faf8d7a0d14c09,651c0ac19f10300bf4c9a3d8,null,null,"<p style=""font-size: 60px; font-family: BACS"">NbmQUNmAG</p>",,,,,,,,,,
html-keyboard-response,232,310175,0.0-12.0-0.62,6170821d1e8ffb9c893b28a4,650c16f0f2faf8d7a0d14c09,651c0ac19f10300bf4c9a3d8,null,null,"<p style=""font-size: 60px; font-family: BACS"">DcPTcRCdc</p>",,,,,,,,,,
html-keyboard-response,233,311190,0.0-12.0-0.63,6170821d1e8ffb9c893b28a4,650c16f0f2faf8d7a0d14c09,651c0ac19f10300bf4c9a3d8,null,null,"<p style=""font-size: 60px; font-family: BACS"">NbacAYUYa</p>",,,,,,,,,,
html-keyboard-response,234,312192,0.0-12.0-0.64,6170821d1e8ffb9c893b28a4,650c16f0f2faf8d7a0d14c09,651c0ac19f10300bf4c9a3d8,null,null,"<p style=""font-size: 60px; font-family: BACS"">blMkDOk</p>",,,,,,,,,,
html-keyboard-response,235,313193,0.0-12.0-0.65,6170821d1e8ffb9c893b28a4,650c16f0f2faf8d7a0d14c09,651c0ac19f10300bf4c9a3d8,null,null,"<p style=""font-size: 60px; font-family: BACS"">lYruavAvb</p>",,,,,,,,,,
html-keyboard-response,236,314207,0.0-12.0-0.66,6170821d1e8ffb9c893b28a4,650c16f0f2faf8d7a0d14c09,651c0ac19f10300bf4c9a3d8,null,null,"<p style=""font-size: 60px; font-family: BACS"">DcPTcDOk</p>",,,,,,,,,,
html-keyboard-response,237,315208,0.0-12.0-0.67,6170821d1e8ffb9c893b28a4,650c16f0f2faf8d7a0d14c09,651c0ac19f10300bf4c9a3d8,null,null,"<p style=""font-size: 60px; font-family: BACS"">laYmrJZr</p>",,,,,,,,,,
html-keyboard-response,238,316210,0.0-12.0-0.68,6170821d1e8ffb9c893b28a4,650c16f0f2faf8d7a0d14c09,651c0ac19f10300bf4c9a3d8,null,null,"<p style=""font-size: 60px; font-family: BACS"">mUOcONmAG</p>",,,,,,,,,,
html-keyboard-response,239,317223,0.0-12.0-0.69,6170821d1e8ffb9c893b28a4,650c16f0f2faf8d7a0d14c09,651c0ac19f10300bf4c9a3d8,null,null,"<p style=""font-size: 60px; font-family: BACS"">dClOCTbk</p>",,,,,,,,,,
html-keyboard-response,240,318226,0.0-12.0-0.70,6170821d1e8ffb9c893b28a4,650c16f0f2faf8d7a0d14c09,651c0ac19f10300bf4c9a3d8,null,null,"<p style=""font-size: 60px; font-family: BACS"">lbBDEDOk</p>",,,,,,,,,,
html-keyboard-response,241,319241,0.0-12.0-0.71,6170821d1e8ffb9c893b28a4,650c16f0f2faf8d7a0d14c09,651c0ac19f10300bf4c9a3d8,null,null,"<p style=""font-size: 60px; font-family: BACS"">TObCOYht</p>",,,,,,,,,,
html-keyboard-response,242,320258,0.0-12.0-0.72,6170821d1e8ffb9c893b28a4,650c16f0f2faf8d7a0d14c09,651c0ac19f10300bf4c9a3d8,null,null,"<p style=""font-size: 60px; font-family: BACS"">YOaAbNmAG</p>",,,,,,,,,,
html-keyboard-response,243,321260,0.0-12.0-0.73,6170821d1e8ffb9c893b28a4,650c16f0f2faf8d7a0d14c09,651c0ac19f10300bf4c9a3d8,null,null,"<p style=""font-size: 60px; font-family: BACS"">uQkrdvAvb</p>",,,,,,,,,,
html-keyboard-response,244,322275,0.0-12.0-0.74,6170821d1e8ffb9c893b28a4,650c16f0f2faf8d7a0d14c09,651c0ac19f10300bf4c9a3d8,null,null,"<p style=""font-size: 60px; font-family: BACS"">hbmATbk</p>",,,,,,,,,,
html-keyboard-response,245,323276,0.0-12.0-0.75,6170821d1e8ffb9c893b28a4,650c16f0f2faf8d7a0d14c09,651c0ac19f10300bf4c9a3d8,null,null,"<p style=""font-size: 60px; font-family: BACS"">DcPTcYht</p>",,,,,,,,,,
html-keyboard-response,246,324292,0.0-12.0-0.76,6170821d1e8ffb9c893b28a4,650c16f0f2faf8d7a0d14c09,651c0ac19f10300bf4c9a3d8,null,null,"<p style=""font-size: 60px; font-family: BACS"">ldAaJZr</p>",,,,,,,,,,
html-keyboard-response,247,325308,0.0-12.0-0.77,6170821d1e8ffb9c893b28a4,650c16f0f2faf8d7a0d14c09,651c0ac19f10300bf4c9a3d8,null,null,"<p style=""font-size: 60px; font-family: BACS"">BMEMADOk</p>",,,,,,,,,,
html-keyboard-response,248,326310,0.0-12.0-0.78,6170821d1e8ffb9c893b28a4,650c16f0f2faf8d7a0d14c09,651c0ac19f10300bf4c9a3d8,null,null,"<p style=""font-size: 60px; font-family: BACS"">DcPTcTbk</p>",,,,,,,,,,
html-keyboard-response,249,327325,0.0-12.0-0.79,6170821d1e8ffb9c893b28a4,650c16f0f2faf8d7a0d14c09,651c0ac19f10300bf4c9a3d8,null,null,"<p style=""font-size: 60px; font-family: BACS"">NbmQUvAvb</p>",,,,,,,,,,
html-keyboard-response,250,363707,0.0-13.0,6170821d1e8ffb9c893b28a4,650c16f0f2faf8d7a0d14c09,651c0ac19f10300bf4c9a3d8,36381, ,"<p>Great, you've seen the third block of words. You may now take a short break.</p>
      <p>Press the spacebar when you're ready to continue.</p>",,,,,,,,,,
html-keyboard-response,251,364710,0.0-14.0-0.0,6170821d1e8ffb9c893b28a4,650c16f0f2faf8d7a0d14c09,651c0ac19f10300bf4c9a3d8,null,null,"<p style=""font-size: 60px; font-family: BACS"">dRhtBCAd</p>",,,,,,,,,,
html-keyboard-response,252,365725,0.0-14.0-0.1,6170821d1e8ffb9c893b28a4,650c16f0f2faf8d7a0d14c09,651c0ac19f10300bf4c9a3d8,null,null,"<p style=""font-size: 60px; font-family: BACS"">blMkRCdc</p>",,,,,,,,,,
html-keyboard-response,253,366741,0.0-14.0-0.2,6170821d1e8ffb9c893b28a4,650c16f0f2faf8d7a0d14c09,651c0ac19f10300bf4c9a3d8,null,null,"<p style=""font-size: 60px; font-family: BACS"">mUOcOmkc</p>",,,,,,,,,,
html-keyboard-response,254,367746,0.0-14.0-0.3,6170821d1e8ffb9c893b28a4,650c16f0f2faf8d7a0d14c09,651c0ac19f10300bf4c9a3d8,null,null,"<p style=""font-size: 60px; font-family: BACS"">lbBDEDOk</p>",,,,,,,,,,
html-keyboard-response,255,368759,0.0-14.0-0.4,6170821d1e8ffb9c893b28a4,650c16f0f2faf8d7a0d14c09,651c0ac19f10300bf4c9a3d8,null,null,"<p style=""font-size: 60px; font-family: BACS"">adkrmkc</p>",,,,,,,,,,
html-keyboard-response,256,369775,0.0-14.0-0.5,6170821d1e8ffb9c893b28a4,650c16f0f2faf8d7a0d14c09,651c0ac19f10300bf4c9a3d8,null,null,"<p style=""font-size: 60px; font-family: BACS"">BdtACDOk</p>",,,,,,,,,,
html-keyboard-response,257,370776,0.0-14.0-0.6,6170821d1e8ffb9c893b28a4,650c16f0f2faf8d7a0d14c09,651c0ac19f10300bf4c9a3d8,null,null,"<p style=""font-size: 60px; font-family: BACS"">lYruamkc</p>",,,,,,,,,,
html-keyboard-response,258,371789,0.0-14.0-0.7,6170821d1e8ffb9c893b28a4,650c16f0f2faf8d7a0d14c09,651c0ac19f10300bf4c9a3d8,null,null,"<p style=""font-size: 60px; font-family: BACS"">TObCODOk</p>",,,,,,,,,,
html-keyboard-response,259,372793,0.0-14.0-0.8,6170821d1e8ffb9c893b28a4,650c16f0f2faf8d7a0d14c09,651c0ac19f10300bf4c9a3d8,null,null,"<p style=""font-size: 60px; font-family: BACS"">bYuQJZr</p>",,,,,,,,,,
html-keyboard-response,260,373808,0.0-14.0-0.9,6170821d1e8ffb9c893b28a4,650c16f0f2faf8d7a0d14c09,651c0ac19f10300bf4c9a3d8,null,null,"<p style=""font-size: 60px; font-family: BACS"">DcPTcRCdc</p>",,,,,,,,,,
html-keyboard-response,261,374809,0.0-14.0-0.10,6170821d1e8ffb9c893b28a4,650c16f0f2faf8d7a0d14c09,651c0ac19f10300bf4c9a3d8,null,null,"<p style=""font-size: 60px; font-family: BACS"">bYuQvAvb</p>",,,,,,,,,,
html-keyboard-response,262,375824,0.0-14.0-0.11,6170821d1e8ffb9c893b28a4,650c16f0f2faf8d7a0d14c09,651c0ac19f10300bf4c9a3d8,null,null,"<p style=""font-size: 60px; font-family: BACS"">hlbtbBCAd</p>",,,,,,,,,,
html-keyboard-response,263,376838,0.0-14.0-0.12,6170821d1e8ffb9c893b28a4,650c16f0f2faf8d7a0d14c09,651c0ac19f10300bf4c9a3d8,null,null,"<p style=""font-size: 60px; font-family: BACS"">mUOcONmAG</p>",,,,,,,,,,
html-keyboard-response,264,377842,0.0-14.0-0.13,6170821d1e8ffb9c893b28a4,650c16f0f2faf8d7a0d14c09,651c0ac19f10300bf4c9a3d8,null,null,"<p style=""font-size: 60px; font-family: BACS"">lbBDEBCAd</p>",,,,,,,,,,
html-keyboard-response,265,378859,0.0-14.0-0.14,6170821d1e8ffb9c893b28a4,650c16f0f2faf8d7a0d14c09,651c0ac19f10300bf4c9a3d8,null,null,"<p style=""font-size: 60px; font-family: BACS"">uQkrdJZr</p>",,,,,,,,,,
html-keyboard-response,266,379865,0.0-14.0-0.15,6170821d1e8ffb9c893b28a4,650c16f0f2faf8d7a0d14c09,651c0ac19f10300bf4c9a3d8,null,null,"<p style=""font-size: 60px; font-family: BACS"">BMEMARCdc</p>",,,,,,,,,,
html-keyboard-response,267,380876,0.0-14.0-0.16,6170821d1e8ffb9c893b28a4,650c16f0f2faf8d7a0d14c09,651c0ac19f10300bf4c9a3d8,null,null,"<p style=""font-size: 60px; font-family: BACS"">DcPTcDOk</p>",,,,,,,,,,
html-keyboard-response,268,381890,0.0-14.0-0.17,6170821d1e8ffb9c893b28a4,650c16f0f2faf8d7a0d14c09,651c0ac19f10300bf4c9a3d8,null,null,"<p style=""font-size: 60px; font-family: BACS"">blMkBCAd</p>",,,,,,,,,,
html-keyboard-response,269,382892,0.0-14.0-0.18,6170821d1e8ffb9c893b28a4,650c16f0f2faf8d7a0d14c09,651c0ac19f10300bf4c9a3d8,null,null,"<p style=""font-size: 60px; font-family: BACS"">NbacAvAvb</p>",,,,,,,,,,
html-keyboard-response,270,383893,0.0-14.0-0.19,6170821d1e8ffb9c893b28a4,650c16f0f2faf8d7a0d14c09,651c0ac19f10300bf4c9a3d8,null,null,"<p style=""font-size: 60px; font-family: BACS"">uQkrdNmAG</p>",,,,,,,,,,
html-keyboard-response,271,384909,0.0-14.0-0.20,6170821d1e8ffb9c893b28a4,650c16f0f2faf8d7a0d14c09,651c0ac19f10300bf4c9a3d8,null,null,"<p style=""font-size: 60px; font-family: BACS"">DcPTcYht</p>",,,,,,,,,,
html-keyboard-response,272,385924,0.0-14.0-0.21,6170821d1e8ffb9c893b28a4,650c16f0f2faf8d7a0d14c09,651c0ac19f10300bf4c9a3d8,null,null,"<p style=""font-size: 60px; font-family: BACS"">uQkrdvAvb</p>",,,,,,,,,,
html-keyboard-response,273,386927,0.0-14.0-0.22,6170821d1e8ffb9c893b28a4,650c16f0f2faf8d7a0d14c09,651c0ac19f10300bf4c9a3d8,null,null,"<p style=""font-size: 60px; font-family: BACS"">blMkTbk</p>",,,,,,,,,,
html-keyboard-response,274,387941,0.0-14.0-0.23,6170821d1e8ffb9c893b28a4,650c16f0f2faf8d7a0d14c09,651c0ac19f10300bf4c9a3d8,null,null,"<p style=""font-size: 60px; font-family: BACS"">YOaAbJZr</p>",,,,,,,,,,
html-keyboard-response,275,388944,0.0-14.0-0.24,6170821d1e8ffb9c893b28a4,650c16f0f2faf8d7a0d14c09,651c0ac19f10300bf4c9a3d8,null,null,"<p style=""font-size: 60px; font-family: BACS"">lYruavAvb</p>",,,,,,,,,,
html-keyboard-response,276,389960,0.0-14.0-0.25,6170821d1e8ffb9c893b28a4,650c16f0f2faf8d7a0d14c09,651c0ac19f10300bf4c9a3d8,null,null,"<p style=""font-size: 60px; font-family: BACS"">BdtACYht</p>",,,,,,,,,,
html-keyboard-response,277,390975,0.0-14.0-0.26,6170821d1e8ffb9c893b28a4,650c16f0f2faf8d7a0d14c09,651c0ac19f10300bf4c9a3d8,null,null,"<p style=""font-size: 60px; font-family: BACS"">hlbtbRCdc</p>",,,,,,,,,,
html-keyboard-response,278,391982,0.0-14.0-0.27,6170821d1e8ffb9c893b28a4,650c16f0f2faf8d7a0d14c09,651c0ac19f10300bf4c9a3d8,null,null,"<p style=""font-size: 60px; font-family: BACS"">BMEMAYht</p>",,,,,,,,,,
html-keyboard-response,279,392992,0.0-14.0-0.28,6170821d1e8ffb9c893b28a4,650c16f0f2faf8d7a0d14c09,651c0ac19f10300bf4c9a3d8,null,null,"<p style=""font-size: 60px; font-family: BACS"">laYmrJZr</p>",,,,,,,,,,
html-keyboard-response,280,393994,0.0-14.0-0.29,6170821d1e8ffb9c893b28a4,650c16f0f2faf8d7a0d14c09,651c0ac19f10300bf4c9a3d8,null,null,"<p style=""font-size: 60px; font-family: BACS"">YOaAbvAvb</p>",,,,,,,,,,
html-keyboard-response,281,395009,0.0-14.0-0.30,6170821d1e8ffb9c893b28a4,650c16f0f2faf8d7a0d14c09,651c0ac19f10300bf4c9a3d8,null,null,"<p style=""font-size: 60px; font-family: BACS"">lbBDEYht</p>",,,,,,,,,,
html-keyboard-response,282,396009,0.0-14.0-0.31,6170821d1e8ffb9c893b28a4,650c16f0f2faf8d7a0d14c09,651c0ac19f10300bf4c9a3d8,null,null,"<p style=""font-size: 60px; font-family: BACS"">bYuQmkc</p>",,,,,,,,,,
html-keyboard-response,283,397024,0.0-14.0-0.32,6170821d1e8ffb9c893b28a4,650c16f0f2faf8d7a0d14c09,651c0ac19f10300bf4c9a3d8,null,null,"<p style=""font-size: 60px; font-family: BACS"">dClOCBCAd</p>",,,,,,,,,,
html-keyboard-response,284,398026,0.0-14.0-0.33,6170821d1e8ffb9c893b28a4,650c16f0f2faf8d7a0d14c09,651c0ac19f10300bf4c9a3d8,null,null,"<p style=""font-size: 60px; font-family: BACS"">adkrYUYa</p>",,,,,,,,,,
html-keyboard-response,285,399042,0.0-14.0-0.34,6170821d1e8ffb9c893b28a4,650c16f0f2faf8d7a0d14c09,651c0ac19f10300bf4c9a3d8,null,null,"<p style=""font-size: 60px; font-family: BACS"">dRhtYht</p>",,,,,,,,,,
html-keyboard-response,286,400043,0.0-14.0-0.35,6170821d1e8ffb9c893b28a4,650c16f0f2faf8d7a0d14c09,651c0ac19f10300bf4c9a3d8,null,null,"<p style=""font-size: 60px; font-family: BACS"">NbmQUvAvb</p>",,,,,,,,,,
html-keyboard-response,287,401045,0.0-14.0-0.36,6170821d1e8ffb9c893b28a4,650c16f0f2faf8d7a0d14c09,651c0ac19f10300bf4c9a3d8,null,null,"<p style=""font-size: 60px; font-family: BACS"">lbBDETbk</p>",,,,,,,,,,
html-keyboard-response,288,402059,0.0-14.0-0.37,6170821d1e8ffb9c893b28a4,650c16f0f2faf8d7a0d14c09,651c0ac19f10300bf4c9a3d8,null,null,"<p style=""font-size: 60px; font-family: BACS"">ldAaNmAG</p>",,,,,,,,,,
html-keyboard-response,289,403060,0.0-14.0-0.38,6170821d1e8ffb9c893b28a4,650c16f0f2faf8d7a0d14c09,651c0ac19f10300bf4c9a3d8,null,null,"<p style=""font-size: 60px; font-family: BACS"">TObCOBCAd</p>",,,,,,,,,,
html-keyboard-response,290,404075,0.0-14.0-0.39,6170821d1e8ffb9c893b28a4,650c16f0f2faf8d7a0d14c09,651c0ac19f10300bf4c9a3d8,null,null,"<p style=""font-size: 60px; font-family: BACS"">dClOCTbk</p>",,,,,,,,,,
html-keyboard-response,291,405076,0.0-14.0-0.40,6170821d1e8ffb9c893b28a4,650c16f0f2faf8d7a0d14c09,651c0ac19f10300bf4c9a3d8,null,null,"<p style=""font-size: 60px; font-family: BACS"">ldAaYUYa</p>",,,,,,,,,,
html-keyboard-response,292,406092,0.0-14.0-0.41,6170821d1e8ffb9c893b28a4,650c16f0f2faf8d7a0d14c09,651c0ac19f10300bf4c9a3d8,null,null,"<p style=""font-size: 60px; font-family: BACS"">dClOCYht</p>",,,,,,,,,,
html-keyboard-response,293,407093,0.0-14.0-0.42,6170821d1e8ffb9c893b28a4,650c16f0f2faf8d7a0d14c09,651c0ac19f10300bf4c9a3d8,null,null,"<p style=""font-size: 60px; font-family: BACS"">DcPTcTbk</p>",,,,,,,,,,
html-keyboard-response,294,408109,0.0-14.0-0.43,6170821d1e8ffb9c893b28a4,650c16f0f2faf8d7a0d14c09,651c0ac19f10300bf4c9a3d8,null,null,"<p style=""font-size: 60px; font-family: BACS"">NbacAmkc</p>",,,,,,,,,,
html-keyboard-response,295,409126,0.0-14.0-0.44,6170821d1e8ffb9c893b28a4,650c16f0f2faf8d7a0d14c09,651c0ac19f10300bf4c9a3d8,null,null,"<p style=""font-size: 60px; font-family: BACS"">TObCOYht</p>",,,,,,,,,,
html-keyboard-response,296,410126,0.0-14.0-0.45,6170821d1e8ffb9c893b28a4,650c16f0f2faf8d7a0d14c09,651c0ac19f10300bf4c9a3d8,null,null,"<p style=""font-size: 60px; font-family: BACS"">lYruaJZr</p>",,,,,,,,,,
html-keyboard-response,297,411142,0.0-14.0-0.46,6170821d1e8ffb9c893b28a4,650c16f0f2faf8d7a0d14c09,651c0ac19f10300bf4c9a3d8,null,null,"<p style=""font-size: 60px; font-family: BACS"">dRhtTbk</p>",,,,,,,,,,
html-keyboard-response,298,412143,0.0-14.0-0.47,6170821d1e8ffb9c893b28a4,650c16f0f2faf8d7a0d14c09,651c0ac19f10300bf4c9a3d8,null,null,"<p style=""font-size: 60px; font-family: BACS"">NbmQUNmAG</p>",,,,,,,,,,
html-keyboard-response,299,413159,0.0-14.0-0.48,6170821d1e8ffb9c893b28a4,650c16f0f2faf8d7a0d14c09,651c0ac19f10300bf4c9a3d8,null,null,"<p style=""font-size: 60px; font-family: BACS"">lYruaYUYa</p>",,,,,,,,,,
html-keyboard-response,300,414160,0.0-14.0-0.49,6170821d1e8ffb9c893b28a4,650c16f0f2faf8d7a0d14c09,651c0ac19f10300bf4c9a3d8,null,null,"<p style=""font-size: 60px; font-family: BACS"">hbmATbk</p>",,,,,,,,,,
html-keyboard-response,301,415172,0.0-14.0-0.50,6170821d1e8ffb9c893b28a4,650c16f0f2faf8d7a0d14c09,651c0ac19f10300bf4c9a3d8,null,null,"<p style=""font-size: 60px; font-family: BACS"">ldAaJZr</p>",,,,,,,,,,
html-keyboard-response,302,416176,0.0-14.0-0.51,6170821d1e8ffb9c893b28a4,650c16f0f2faf8d7a0d14c09,651c0ac19f10300bf4c9a3d8,null,null,"<p style=""font-size: 60px; font-family: BACS"">TObCORCdc</p>",,,,,,,,,,
html-keyboard-response,303,417192,0.0-14.0-0.52,6170821d1e8ffb9c893b28a4,650c16f0f2faf8d7a0d14c09,651c0ac19f10300bf4c9a3d8,null,null,"<p style=""font-size: 60px; font-family: BACS"">NbmQUmkc</p>",,,,,,,,,,
html-keyboard-response,304,418193,0.0-14.0-0.53,6170821d1e8ffb9c893b28a4,650c16f0f2faf8d7a0d14c09,651c0ac19f10300bf4c9a3d8,null,null,"<p style=""font-size: 60px; font-family: BACS"">laYmrvAvb</p>",,,,,,,,,,
html-keyboard-response,305,419204,0.0-14.0-0.54,6170821d1e8ffb9c893b28a4,650c16f0f2faf8d7a0d14c09,651c0ac19f10300bf4c9a3d8,null,null,"<p style=""font-size: 60px; font-family: BACS"">NbacAYUYa</p>",,,,,,,,,,
html-keyboard-response,306,420209,0.0-14.0-0.55,6170821d1e8ffb9c893b28a4,650c16f0f2faf8d7a0d14c09,651c0ac19f10300bf4c9a3d8,null,null,"<p style=""font-size: 60px; font-family: BACS"">mUOcOJZr</p>",,,,,,,,,,
html-keyboard-response,307,421210,0.0-14.0-0.56,6170821d1e8ffb9c893b28a4,650c16f0f2faf8d7a0d14c09,651c0ac19f10300bf4c9a3d8,null,null,"<p style=""font-size: 60px; font-family: BACS"">hbmAYht</p>",,,,,,,,,,
html-keyboard-response,308,422225,0.0-14.0-0.57,6170821d1e8ffb9c893b28a4,650c16f0f2faf8d7a0d14c09,651c0ac19f10300bf4c9a3d8,null,null,"<p style=""font-size: 60px; font-family: BACS"">ldAamkc</p>",,,,,,,,,,
html-keyboard-response,309,423227,0.0-14.0-0.58,6170821d1e8ffb9c893b28a4,650c16f0f2faf8d7a0d14c09,651c0ac19f10300bf4c9a3d8,null,null,"<p style=""font-size: 60px; font-family: BACS"">hbmARCdc</p>",,,,,,,,,,
html-keyboard-response,310,424228,0.0-14.0-0.59,6170821d1e8ffb9c893b28a4,650c16f0f2faf8d7a0d14c09,651c0ac19f10300bf4c9a3d8,null,null,"<p style=""font-size: 60px; font-family: BACS"">laYmrmkc</p>",,,,,,,,,,
html-keyboard-response,311,425230,0.0-14.0-0.60,6170821d1e8ffb9c893b28a4,650c16f0f2faf8d7a0d14c09,651c0ac19f10300bf4c9a3d8,null,null,"<p style=""font-size: 60px; font-family: BACS"">mUOcOvAvb</p>",,,,,,,,,,
html-keyboard-response,312,426243,0.0-14.0-0.61,6170821d1e8ffb9c893b28a4,650c16f0f2faf8d7a0d14c09,651c0ac19f10300bf4c9a3d8,null,null,"<p style=""font-size: 60px; font-family: BACS"">NbmQUYUYa</p>",,,,,,,,,,
html-keyboard-response,313,427259,0.0-14.0-0.62,6170821d1e8ffb9c893b28a4,650c16f0f2faf8d7a0d14c09,651c0ac19f10300bf4c9a3d8,null,null,"<p style=""font-size: 60px; font-family: BACS"">BdtACBCAd</p>",,,,,,,,,,
html-keyboard-response,314,428270,0.0-14.0-0.63,6170821d1e8ffb9c893b28a4,650c16f0f2faf8d7a0d14c09,651c0ac19f10300bf4c9a3d8,null,null,"<p style=""font-size: 60px; font-family: BACS"">hlbtbDOk</p>",,,,,,,,,,
html-keyboard-response,315,429276,0.0-14.0-0.64,6170821d1e8ffb9c893b28a4,650c16f0f2faf8d7a0d14c09,651c0ac19f10300bf4c9a3d8,null,null,"<p style=""font-size: 60px; font-family: BACS"">YOaAbNmAG</p>",,,,,,,,,,
html-keyboard-response,316,430277,0.0-14.0-0.65,6170821d1e8ffb9c893b28a4,650c16f0f2faf8d7a0d14c09,651c0ac19f10300bf4c9a3d8,null,null,"<p style=""font-size: 60px; font-family: BACS"">BMEMADOk</p>",,,,,,,,,,
html-keyboard-response,317,431292,0.0-14.0-0.66,6170821d1e8ffb9c893b28a4,650c16f0f2faf8d7a0d14c09,651c0ac19f10300bf4c9a3d8,null,null,"<p style=""font-size: 60px; font-family: BACS"">adkrNmAG</p>",,,,,,,,,,
html-keyboard-response,318,432293,0.0-14.0-0.67,6170821d1e8ffb9c893b28a4,650c16f0f2faf8d7a0d14c09,651c0ac19f10300bf4c9a3d8,null,null,"<p style=""font-size: 60px; font-family: BACS"">hlbtbTbk</p>",,,,,,,,,,
html-keyboard-response,319,433309,0.0-14.0-0.68,6170821d1e8ffb9c893b28a4,650c16f0f2faf8d7a0d14c09,651c0ac19f10300bf4c9a3d8,null,null,"<p style=""font-size: 60px; font-family: BACS"">bYuQNmAG</p>",,,,,,,,,,
html-keyboard-response,320,434325,0.0-14.0-0.69,6170821d1e8ffb9c893b28a4,650c16f0f2faf8d7a0d14c09,651c0ac19f10300bf4c9a3d8,null,null,"<p style=""font-size: 60px; font-family: BACS"">dClOCRCdc</p>",,,,,,,,,,
html-keyboard-response,321,435339,0.0-14.0-0.70,6170821d1e8ffb9c893b28a4,650c16f0f2faf8d7a0d14c09,651c0ac19f10300bf4c9a3d8,null,null,"<p style=""font-size: 60px; font-family: BACS"">blMkDOk</p>",,,,,,,,,,
html-keyboard-response,322,436343,0.0-14.0-0.71,6170821d1e8ffb9c893b28a4,650c16f0f2faf8d7a0d14c09,651c0ac19f10300bf4c9a3d8,null,null,"<p style=""font-size: 60px; font-family: BACS"">NbacANmAG</p>",,,,,,,,,,
html-keyboard-response,323,437359,0.0-14.0-0.72,6170821d1e8ffb9c893b28a4,650c16f0f2faf8d7a0d14c09,651c0ac19f10300bf4c9a3d8,null,null,"<p style=""font-size: 60px; font-family: BACS"">dRhtDOk</p>",,,,,,,,,,
html-keyboard-response,324,438375,0.0-14.0-0.73,6170821d1e8ffb9c893b28a4,650c16f0f2faf8d7a0d14c09,651c0ac19f10300bf4c9a3d8,null,null,"<p style=""font-size: 60px; font-family: BACS"">adkrJZr</p>",,,,,,,,,,
html-keyboard-response,325,439377,0.0-14.0-0.74,6170821d1e8ffb9c893b28a4,650c16f0f2faf8d7a0d14c09,651c0ac19f10300bf4c9a3d8,null,null,"<p style=""font-size: 60px; font-family: BACS"">laYmrYUYa</p>",,,,,,,,,,
html-keyboard-response,326,440393,0.0-14.0-0.75,6170821d1e8ffb9c893b28a4,650c16f0f2faf8d7a0d14c09,651c0ac19f10300bf4c9a3d8,null,null,"<p style=""font-size: 60px; font-family: BACS"">BMEMATbk</p>",,,,,,,,,,
html-keyboard-response,327,441394,0.0-14.0-0.76,6170821d1e8ffb9c893b28a4,650c16f0f2faf8d7a0d14c09,651c0ac19f10300bf4c9a3d8,null,null,"<p style=""font-size: 60px; font-family: BACS"">YOaAbYUYa</p>",,,,,,,,,,
html-keyboard-response,328,442409,0.0-14.0-0.77,6170821d1e8ffb9c893b28a4,650c16f0f2faf8d7a0d14c09,651c0ac19f10300bf4c9a3d8,null,null,"<p style=""font-size: 60px; font-family: BACS"">BdtACRCdc</p>",,,,,,,,,,
html-keyboard-response,329,443411,0.0-14.0-0.78,6170821d1e8ffb9c893b28a4,650c16f0f2faf8d7a0d14c09,651c0ac19f10300bf4c9a3d8,null,null,"<p style=""font-size: 60px; font-family: BACS"">hbmABCAd</p>",,,,,,,,,,
html-keyboard-response,330,444426,0.0-14.0-0.79,6170821d1e8ffb9c893b28a4,650c16f0f2faf8d7a0d14c09,651c0ac19f10300bf4c9a3d8,null,null,"<p style=""font-size: 60px; font-family: BACS"">uQkrdYUYa</p>",,,,,,,,,,
html-keyboard-response,331,450723,0.0-15.0,6170821d1e8ffb9c893b28a4,650c16f0f2faf8d7a0d14c09,651c0ac19f10300bf4c9a3d8,6296, ,"<p>Great, you've seen the fourth block of words. You may now take a short break.</p>
      <p>Press the spacebar when you're ready to continue.</p>",,,,,,,,,,
html-keyboard-response,332,451727,0.0-16.0-0.0,6170821d1e8ffb9c893b28a4,650c16f0f2faf8d7a0d14c09,651c0ac19f10300bf4c9a3d8,null,null,"<p style=""font-size: 60px; font-family: BACS"">BdtACBCAd</p>",,,,,,,,,,
html-keyboard-response,333,452743,0.0-16.0-0.1,6170821d1e8ffb9c893b28a4,650c16f0f2faf8d7a0d14c09,651c0ac19f10300bf4c9a3d8,null,null,"<p style=""font-size: 60px; font-family: BACS"">BdtACBCAd</p>",,,,,,,,,,
html-keyboard-response,334,453744,0.0-16.0-0.2,6170821d1e8ffb9c893b28a4,650c16f0f2faf8d7a0d14c09,651c0ac19f10300bf4c9a3d8,null,null,"<p style=""font-size: 60px; font-family: BACS"">BdtACBCAd</p>",,,,,,,,,,
html-keyboard-response,335,454760,0.0-16.0-0.3,6170821d1e8ffb9c893b28a4,650c16f0f2faf8d7a0d14c09,651c0ac19f10300bf4c9a3d8,null,null,"<p style=""font-size: 60px; font-family: BACS"">BdtACBCAd</p>",,,,,,,,,,
html-keyboard-response,336,455775,0.0-16.0-0.4,6170821d1e8ffb9c893b28a4,650c16f0f2faf8d7a0d14c09,651c0ac19f10300bf4c9a3d8,null,null,"<p style=""font-size: 60px; font-family: BACS"">BdtACBCAd</p>",,,,,,,,,,
html-keyboard-response,337,456777,0.0-16.0-0.5,6170821d1e8ffb9c893b28a4,650c16f0f2faf8d7a0d14c09,651c0ac19f10300bf4c9a3d8,null,null,"<p style=""font-size: 60px; font-family: BACS"">BdtACBCAd</p>",,,,,,,,,,
html-keyboard-response,338,457778,0.0-16.0-0.6,6170821d1e8ffb9c893b28a4,650c16f0f2faf8d7a0d14c09,651c0ac19f10300bf4c9a3d8,null,null,"<p style=""font-size: 60px; font-family: BACS"">BdtACBCAd</p>",,,,,,,,,,
html-keyboard-response,339,458794,0.0-16.0-0.7,6170821d1e8ffb9c893b28a4,650c16f0f2faf8d7a0d14c09,651c0ac19f10300bf4c9a3d8,null,null,"<p style=""font-size: 60px; font-family: BACS"">BdtACBCAd</p>",,,,,,,,,,
html-keyboard-response,340,459810,0.0-16.0-0.8,6170821d1e8ffb9c893b28a4,650c16f0f2faf8d7a0d14c09,651c0ac19f10300bf4c9a3d8,null,null,"<p style=""font-size: 60px; font-family: BACS"">BdtACBCAd</p>",,,,,,,,,,
html-keyboard-response,341,460826,0.0-16.0-0.9,6170821d1e8ffb9c893b28a4,650c16f0f2faf8d7a0d14c09,651c0ac19f10300bf4c9a3d8,null,null,"<p style=""font-size: 60px; font-family: BACS"">BdtACBCAd</p>",,,,,,,,,,
html-keyboard-response,342,461827,0.0-16.0-0.10,6170821d1e8ffb9c893b28a4,650c16f0f2faf8d7a0d14c09,651c0ac19f10300bf4c9a3d8,null,null,"<p style=""font-size: 60px; font-family: BACS"">BdtACBCAd</p>",,,,,,,,,,
html-keyboard-response,343,462843,0.0-16.0-0.11,6170821d1e8ffb9c893b28a4,650c16f0f2faf8d7a0d14c09,651c0ac19f10300bf4c9a3d8,null,null,"<p style=""font-size: 60px; font-family: BACS"">BdtACBCAd</p>",,,,,,,,,,
html-keyboard-response,344,463845,0.0-16.0-0.12,6170821d1e8ffb9c893b28a4,650c16f0f2faf8d7a0d14c09,651c0ac19f10300bf4c9a3d8,null,null,"<p style=""font-size: 60px; font-family: BACS"">BdtACBCAd</p>",,,,,,,,,,
html-keyboard-response,345,464860,0.0-16.0-0.13,6170821d1e8ffb9c893b28a4,650c16f0f2faf8d7a0d14c09,651c0ac19f10300bf4c9a3d8,null,null,"<p style=""font-size: 60px; font-family: BACS"">BdtACBCAd</p>",,,,,,,,,,
html-keyboard-response,346,465876,0.0-16.0-0.14,6170821d1e8ffb9c893b28a4,650c16f0f2faf8d7a0d14c09,651c0ac19f10300bf4c9a3d8,null,null,"<p style=""font-size: 60px; font-family: BACS"">BdtACBCAd</p>",,,,,,,,,,
html-keyboard-response,347,466892,0.0-16.0-0.15,6170821d1e8ffb9c893b28a4,650c16f0f2faf8d7a0d14c09,651c0ac19f10300bf4c9a3d8,null,null,"<p style=""font-size: 60px; font-family: BACS"">BdtACBCAd</p>",,,,,,,,,,
html-keyboard-response,348,467909,0.0-16.0-0.16,6170821d1e8ffb9c893b28a4,650c16f0f2faf8d7a0d14c09,651c0ac19f10300bf4c9a3d8,null,null,"<p style=""font-size: 60px; font-family: BACS"">BdtACBCAd</p>",,,,,,,,,,
html-keyboard-response,349,468910,0.0-16.0-0.17,6170821d1e8ffb9c893b28a4,650c16f0f2faf8d7a0d14c09,651c0ac19f10300bf4c9a3d8,null,null,"<p style=""font-size: 60px; font-family: BACS"">BdtACBCAd</p>",,,,,,,,,,
html-keyboard-response,350,469926,0.0-16.0-0.18,6170821d1e8ffb9c893b28a4,650c16f0f2faf8d7a0d14c09,651c0ac19f10300bf4c9a3d8,null,null,"<p style=""font-size: 60px; font-family: BACS"">BdtACBCAd</p>",,,,,,,,,,
html-keyboard-response,351,470928,0.0-16.0-0.19,6170821d1e8ffb9c893b28a4,650c16f0f2faf8d7a0d14c09,651c0ac19f10300bf4c9a3d8,null,null,"<p style=""font-size: 60px; font-family: BACS"">BdtACBCAd</p>",,,,,,,,,,
html-keyboard-response,352,471931,0.0-16.0-0.20,6170821d1e8ffb9c893b28a4,650c16f0f2faf8d7a0d14c09,651c0ac19f10300bf4c9a3d8,null,null,"<p style=""font-size: 60px; font-family: BACS"">BdtACBCAd</p>",,,,,,,,,,
html-keyboard-response,353,472942,0.0-16.0-0.21,6170821d1e8ffb9c893b28a4,650c16f0f2faf8d7a0d14c09,651c0ac19f10300bf4c9a3d8,null,null,"<p style=""font-size: 60px; font-family: BACS"">BdtACBCAd</p>",,,,,,,,,,
html-keyboard-response,354,473951,0.0-16.0-0.22,6170821d1e8ffb9c893b28a4,650c16f0f2faf8d7a0d14c09,651c0ac19f10300bf4c9a3d8,null,null,"<p style=""font-size: 60px; font-family: BACS"">BdtACBCAd</p>",,,,,,,,,,
html-keyboard-response,355,474960,0.0-16.0-0.23,6170821d1e8ffb9c893b28a4,650c16f0f2faf8d7a0d14c09,651c0ac19f10300bf4c9a3d8,null,null,"<p style=""font-size: 60px; font-family: BACS"">BdtACBCAd</p>",,,,,,,,,,
html-keyboard-response,356,475970,0.0-16.0-0.24,6170821d1e8ffb9c893b28a4,650c16f0f2faf8d7a0d14c09,651c0ac19f10300bf4c9a3d8,null,null,"<p style=""font-size: 60px; font-family: BACS"">BdtACBCAd</p>",,,,,,,,,,
html-keyboard-response,357,476977,0.0-16.0-0.25,6170821d1e8ffb9c893b28a4,650c16f0f2faf8d7a0d14c09,651c0ac19f10300bf4c9a3d8,null,null,"<p style=""font-size: 60px; font-family: BACS"">BdtACBCAd</p>",,,,,,,,,,
html-keyboard-response,358,477993,0.0-16.0-0.26,6170821d1e8ffb9c893b28a4,650c16f0f2faf8d7a0d14c09,651c0ac19f10300bf4c9a3d8,null,null,"<p style=""font-size: 60px; font-family: BACS"">BdtACBCAd</p>",,,,,,,,,,
html-keyboard-response,359,479009,0.0-16.0-0.27,6170821d1e8ffb9c893b28a4,650c16f0f2faf8d7a0d14c09,651c0ac19f10300bf4c9a3d8,null,null,"<p style=""font-size: 60px; font-family: BACS"">BdtACBCAd</p>",,,,,,,,,,
html-keyboard-response,360,480026,0.0-16.0-0.28,6170821d1e8ffb9c893b28a4,650c16f0f2faf8d7a0d14c09,651c0ac19f10300bf4c9a3d8,null,null,"<p style=""font-size: 60px; font-family: BACS"">BdtACBCAd</p>",,,,,,,,,,
html-keyboard-response,361,481028,0.0-16.0-0.29,6170821d1e8ffb9c893b28a4,650c16f0f2faf8d7a0d14c09,651c0ac19f10300bf4c9a3d8,null,null,"<p style=""font-size: 60px; font-family: BACS"">BdtACBCAd</p>",,,,,,,,,,
html-keyboard-response,362,482043,0.0-16.0-0.30,6170821d1e8ffb9c893b28a4,650c16f0f2faf8d7a0d14c09,651c0ac19f10300bf4c9a3d8,null,null,"<p style=""font-size: 60px; font-family: BACS"">BdtACBCAd</p>",,,,,,,,,,
html-keyboard-response,363,483059,0.0-16.0-0.31,6170821d1e8ffb9c893b28a4,650c16f0f2faf8d7a0d14c09,651c0ac19f10300bf4c9a3d8,null,null,"<p style=""font-size: 60px; font-family: BACS"">BdtACBCAd</p>",,,,,,,,,,
html-keyboard-response,364,484061,0.0-16.0-0.32,6170821d1e8ffb9c893b28a4,650c16f0f2faf8d7a0d14c09,651c0ac19f10300bf4c9a3d8,null,null,"<p style=""font-size: 60px; font-family: BACS"">BdtACBCAd</p>",,,,,,,,,,
html-keyboard-response,365,485076,0.0-16.0-0.33,6170821d1e8ffb9c893b28a4,650c16f0f2faf8d7a0d14c09,651c0ac19f10300bf4c9a3d8,null,null,"<p style=""font-size: 60px; font-family: BACS"">BdtACBCAd</p>",,,,,,,,,,
html-keyboard-response,366,486078,0.0-16.0-0.34,6170821d1e8ffb9c893b28a4,650c16f0f2faf8d7a0d14c09,651c0ac19f10300bf4c9a3d8,null,null,"<p style=""font-size: 60px; font-family: BACS"">BdtACBCAd</p>",,,,,,,,,,
html-keyboard-response,367,487093,0.0-16.0-0.35,6170821d1e8ffb9c893b28a4,650c16f0f2faf8d7a0d14c09,651c0ac19f10300bf4c9a3d8,null,null,"<p style=""font-size: 60px; font-family: BACS"">BdtACBCAd</p>",,,,,,,,,,
html-keyboard-response,368,488095,0.0-16.0-0.36,6170821d1e8ffb9c893b28a4,650c16f0f2faf8d7a0d14c09,651c0ac19f10300bf4c9a3d8,null,null,"<p style=""font-size: 60px; font-family: BACS"">BdtACBCAd</p>",,,,,,,,,,
html-keyboard-response,369,489110,0.0-16.0-0.37,6170821d1e8ffb9c893b28a4,650c16f0f2faf8d7a0d14c09,651c0ac19f10300bf4c9a3d8,null,null,"<p style=""font-size: 60px; font-family: BACS"">BdtACBCAd</p>",,,,,,,,,,
html-keyboard-response,370,490126,0.0-16.0-0.38,6170821d1e8ffb9c893b28a4,650c16f0f2faf8d7a0d14c09,651c0ac19f10300bf4c9a3d8,null,null,"<p style=""font-size: 60px; font-family: BACS"">BdtACBCAd</p>",,,,,,,,,,
html-keyboard-response,371,491127,0.0-16.0-0.39,6170821d1e8ffb9c893b28a4,650c16f0f2faf8d7a0d14c09,651c0ac19f10300bf4c9a3d8,null,null,"<p style=""font-size: 60px; font-family: BACS"">BdtACBCAd</p>",,,,,,,,,,
html-keyboard-response,372,492143,0.0-16.0-0.40,6170821d1e8ffb9c893b28a4,650c16f0f2faf8d7a0d14c09,651c0ac19f10300bf4c9a3d8,null,null,"<p style=""font-size: 60px; font-family: BACS"">BdtACBCAd</p>",,,,,,,,,,
html-keyboard-response,373,493159,0.0-16.0-0.41,6170821d1e8ffb9c893b28a4,650c16f0f2faf8d7a0d14c09,651c0ac19f10300bf4c9a3d8,null,null,"<p style=""font-size: 60px; font-family: BACS"">BdtACBCAd</p>",,,,,,,,,,
html-keyboard-response,374,494162,0.0-16.0-0.42,6170821d1e8ffb9c893b28a4,650c16f0f2faf8d7a0d14c09,651c0ac19f10300bf4c9a3d8,null,null,"<p style=""font-size: 60px; font-family: BACS"">BdtACBCAd</p>",,,,,,,,,,
html-keyboard-response,375,495177,0.0-16.0-0.43,6170821d1e8ffb9c893b28a4,650c16f0f2faf8d7a0d14c09,651c0ac19f10300bf4c9a3d8,null,null,"<p style=""font-size: 60px; font-family: BACS"">BdtACBCAd</p>",,,,,,,,,,
html-keyboard-response,376,496193,0.0-16.0-0.44,6170821d1e8ffb9c893b28a4,650c16f0f2faf8d7a0d14c09,651c0ac19f10300bf4c9a3d8,null,null,"<p style=""font-size: 60px; font-family: BACS"">BdtACBCAd</p>",,,,,,,,,,
html-keyboard-response,377,497194,0.0-16.0-0.45,6170821d1e8ffb9c893b28a4,650c16f0f2faf8d7a0d14c09,651c0ac19f10300bf4c9a3d8,null,null,"<p style=""font-size: 60px; font-family: BACS"">BdtACBCAd</p>",,,,,,,,,,
html-keyboard-response,378,498209,0.0-16.0-0.46,6170821d1e8ffb9c893b28a4,650c16f0f2faf8d7a0d14c09,651c0ac19f10300bf4c9a3d8,null,null,"<p style=""font-size: 60px; font-family: BACS"">BdtACBCAd</p>",,,,,,,,,,
html-keyboard-response,379,499227,0.0-16.0-0.47,6170821d1e8ffb9c893b28a4,650c16f0f2faf8d7a0d14c09,651c0ac19f10300bf4c9a3d8,null,null,"<p style=""font-size: 60px; font-family: BACS"">BdtACBCAd</p>",,,,,,,,,,
html-keyboard-response,380,500229,0.0-16.0-0.48,6170821d1e8ffb9c893b28a4,650c16f0f2faf8d7a0d14c09,651c0ac19f10300bf4c9a3d8,null,null,"<p style=""font-size: 60px; font-family: BACS"">BdtACBCAd</p>",,,,,,,,,,
html-keyboard-response,381,501244,0.0-16.0-0.49,6170821d1e8ffb9c893b28a4,650c16f0f2faf8d7a0d14c09,651c0ac19f10300bf4c9a3d8,null,null,"<p style=""font-size: 60px; font-family: BACS"">BdtACBCAd</p>",,,,,,,,,,
html-keyboard-response,382,502246,0.0-16.0-0.50,6170821d1e8ffb9c893b28a4,650c16f0f2faf8d7a0d14c09,651c0ac19f10300bf4c9a3d8,null,null,"<p style=""font-size: 60px; font-family: BACS"">BdtACBCAd</p>",,,,,,,,,,
html-keyboard-response,383,503260,0.0-16.0-0.51,6170821d1e8ffb9c893b28a4,650c16f0f2faf8d7a0d14c09,651c0ac19f10300bf4c9a3d8,null,null,"<p style=""font-size: 60px; font-family: BACS"">BdtACBCAd</p>",,,,,,,,,,
html-keyboard-response,384,504263,0.0-16.0-0.52,6170821d1e8ffb9c893b28a4,650c16f0f2faf8d7a0d14c09,651c0ac19f10300bf4c9a3d8,null,null,"<p style=""font-size: 60px; font-family: BACS"">BdtACBCAd</p>",,,,,,,,,,
html-keyboard-response,385,505277,0.0-16.0-0.53,6170821d1e8ffb9c893b28a4,650c16f0f2faf8d7a0d14c09,651c0ac19f10300bf4c9a3d8,null,null,"<p style=""font-size: 60px; font-family: BACS"">BdtACBCAd</p>",,,,,,,,,,
html-keyboard-response,386,506279,0.0-16.0-0.54,6170821d1e8ffb9c893b28a4,650c16f0f2faf8d7a0d14c09,651c0ac19f10300bf4c9a3d8,null,null,"<p style=""font-size: 60px; font-family: BACS"">BdtACBCAd</p>",,,,,,,,,,
html-keyboard-response,387,507296,0.0-16.0-0.55,6170821d1e8ffb9c893b28a4,650c16f0f2faf8d7a0d14c09,651c0ac19f10300bf4c9a3d8,null,null,"<p style=""font-size: 60px; font-family: BACS"">BdtACBCAd</p>",,,,,,,,,,
html-keyboard-response,388,508311,0.0-16.0-0.56,6170821d1e8ffb9c893b28a4,650c16f0f2faf8d7a0d14c09,651c0ac19f10300bf4c9a3d8,null,null,"<p style=""font-size: 60px; font-family: BACS"">BdtACBCAd</p>",,,,,,,,,,
html-keyboard-response,389,509327,0.0-16.0-0.57,6170821d1e8ffb9c893b28a4,650c16f0f2faf8d7a0d14c09,651c0ac19f10300bf4c9a3d8,null,null,"<p style=""font-size: 60px; font-family: BACS"">BdtACBCAd</p>",,,,,,,,,,
html-keyboard-response,390,510328,0.0-16.0-0.58,6170821d1e8ffb9c893b28a4,650c16f0f2faf8d7a0d14c09,651c0ac19f10300bf4c9a3d8,null,null,"<p style=""font-size: 60px; font-family: BACS"">BdtACBCAd</p>",,,,,,,,,,
html-keyboard-response,391,511344,0.0-16.0-0.59,6170821d1e8ffb9c893b28a4,650c16f0f2faf8d7a0d14c09,651c0ac19f10300bf4c9a3d8,null,null,"<p style=""font-size: 60px; font-family: BACS"">BdtACBCAd</p>",,,,,,,,,,
html-keyboard-response,392,512346,0.0-16.0-0.60,6170821d1e8ffb9c893b28a4,650c16f0f2faf8d7a0d14c09,651c0ac19f10300bf4c9a3d8,null,null,"<p style=""font-size: 60px; font-family: BACS"">BdtACBCAd</p>",,,,,,,,,,
html-keyboard-response,393,513362,0.0-16.0-0.61,6170821d1e8ffb9c893b28a4,650c16f0f2faf8d7a0d14c09,651c0ac19f10300bf4c9a3d8,null,null,"<p style=""font-size: 60px; font-family: BACS"">BdtACBCAd</p>",,,,,,,,,,
html-keyboard-response,394,514383,0.0-16.0-0.62,6170821d1e8ffb9c893b28a4,650c16f0f2faf8d7a0d14c09,651c0ac19f10300bf4c9a3d8,null,null,"<p style=""font-size: 60px; font-family: BACS"">BdtACBCAd</p>",,,,,,,,,,
html-keyboard-response,395,515395,0.0-16.0-0.63,6170821d1e8ffb9c893b28a4,650c16f0f2faf8d7a0d14c09,651c0ac19f10300bf4c9a3d8,null,null,"<p style=""font-size: 60px; font-family: BACS"">BdtACBCAd</p>",,,,,,,,,,
html-keyboard-response,396,516411,0.0-16.0-0.64,6170821d1e8ffb9c893b28a4,650c16f0f2faf8d7a0d14c09,651c0ac19f10300bf4c9a3d8,null,null,"<p style=""font-size: 60px; font-family: BACS"">BdtACBCAd</p>",,,,,,,,,,
html-keyboard-response,397,517412,0.0-16.0-0.65,6170821d1e8ffb9c893b28a4,650c16f0f2faf8d7a0d14c09,651c0ac19f10300bf4c9a3d8,null,null,"<p style=""font-size: 60px; font-family: BACS"">BdtACBCAd</p>",,,,,,,,,,
html-keyboard-response,398,518428,0.0-16.0-0.66,6170821d1e8ffb9c893b28a4,650c16f0f2faf8d7a0d14c09,651c0ac19f10300bf4c9a3d8,null,null,"<p style=""font-size: 60px; font-family: BACS"">BdtACBCAd</p>",,,,,,,,,,
html-keyboard-response,399,519444,0.0-16.0-0.67,6170821d1e8ffb9c893b28a4,650c16f0f2faf8d7a0d14c09,651c0ac19f10300bf4c9a3d8,null,null,"<p style=""font-size: 60px; font-family: BACS"">BdtACBCAd</p>",,,,,,,,,,
html-keyboard-response,400,520446,0.0-16.0-0.68,6170821d1e8ffb9c893b28a4,650c16f0f2faf8d7a0d14c09,651c0ac19f10300bf4c9a3d8,null,null,"<p style=""font-size: 60px; font-family: BACS"">BdtACBCAd</p>",,,,,,,,,,
html-keyboard-response,401,521460,0.0-16.0-0.69,6170821d1e8ffb9c893b28a4,650c16f0f2faf8d7a0d14c09,651c0ac19f10300bf4c9a3d8,null,null,"<p style=""font-size: 60px; font-family: BACS"">BdtACBCAd</p>",,,,,,,,,,
html-keyboard-response,402,522474,0.0-16.0-0.70,6170821d1e8ffb9c893b28a4,650c16f0f2faf8d7a0d14c09,651c0ac19f10300bf4c9a3d8,null,null,"<p style=""font-size: 60px; font-family: BACS"">BdtACBCAd</p>",,,,,,,,,,
html-keyboard-response,403,523479,0.0-16.0-0.71,6170821d1e8ffb9c893b28a4,650c16f0f2faf8d7a0d14c09,651c0ac19f10300bf4c9a3d8,null,null,"<p style=""font-size: 60px; font-family: BACS"">BdtACBCAd</p>",,,,,,,,,,
html-keyboard-response,404,524495,0.0-16.0-0.72,6170821d1e8ffb9c893b28a4,650c16f0f2faf8d7a0d14c09,651c0ac19f10300bf4c9a3d8,null,null,"<p style=""font-size: 60px; font-family: BACS"">BdtACBCAd</p>",,,,,,,,,,
html-keyboard-response,405,525496,0.0-16.0-0.73,6170821d1e8ffb9c893b28a4,650c16f0f2faf8d7a0d14c09,651c0ac19f10300bf4c9a3d8,null,null,"<p style=""font-size: 60px; font-family: BACS"">BdtACBCAd</p>",,,,,,,,,,
html-keyboard-response,406,526511,0.0-16.0-0.74,6170821d1e8ffb9c893b28a4,650c16f0f2faf8d7a0d14c09,651c0ac19f10300bf4c9a3d8,null,null,"<p style=""font-size: 60px; font-family: BACS"">BdtACBCAd</p>",,,,,,,,,,
html-keyboard-response,407,527513,0.0-16.0-0.75,6170821d1e8ffb9c893b28a4,650c16f0f2faf8d7a0d14c09,651c0ac19f10300bf4c9a3d8,null,null,"<p style=""font-size: 60px; font-family: BACS"">BdtACBCAd</p>",,,,,,,,,,
html-keyboard-response,408,528529,0.0-16.0-0.76,6170821d1e8ffb9c893b28a4,650c16f0f2faf8d7a0d14c09,651c0ac19f10300bf4c9a3d8,null,null,"<p style=""font-size: 60px; font-family: BACS"">BdtACBCAd</p>",,,,,,,,,,
html-keyboard-response,409,529545,0.0-16.0-0.77,6170821d1e8ffb9c893b28a4,650c16f0f2faf8d7a0d14c09,651c0ac19f10300bf4c9a3d8,null,null,"<p style=""font-size: 60px; font-family: BACS"">BdtACBCAd</p>",,,,,,,,,,
html-keyboard-response,410,530546,0.0-16.0-0.78,6170821d1e8ffb9c893b28a4,650c16f0f2faf8d7a0d14c09,651c0ac19f10300bf4c9a3d8,null,null,"<p style=""font-size: 60px; font-family: BACS"">BdtACBCAd</p>",,,,,,,,,,
html-keyboard-response,411,531562,0.0-16.0-0.79,6170821d1e8ffb9c893b28a4,650c16f0f2faf8d7a0d14c09,651c0ac19f10300bf4c9a3d8,null,null,"<p style=""font-size: 60px; font-family: BACS"">BdtACBCAd</p>",,,,,,,,,,
html-keyboard-response,412,538629,0.0-17.0,6170821d1e8ffb9c893b28a4,650c16f0f2faf8d7a0d14c09,651c0ac19f10300bf4c9a3d8,7067, ,"<p>Great, you've seen the fifth block of words. You may now take a short break.</p>
      <p>Press the spacebar when you're ready to continue.</p>",,,,,,,,,,
html-keyboard-response,413,539630,0.0-18.0-0.0,6170821d1e8ffb9c893b28a4,650c16f0f2faf8d7a0d14c09,651c0ac19f10300bf4c9a3d8,null,null,"<p style=""font-size: 60px; font-family: BACS"">BdtACBCAd</p>",,,,,,,,,,
html-keyboard-response,414,540645,0.0-18.0-0.1,6170821d1e8ffb9c893b28a4,650c16f0f2faf8d7a0d14c09,651c0ac19f10300bf4c9a3d8,null,null,"<p style=""font-size: 60px; font-family: BACS"">hbmATbk</p>",,,,,,,,,,
html-keyboard-response,415,541646,0.0-18.0-0.2,6170821d1e8ffb9c893b28a4,650c16f0f2faf8d7a0d14c09,651c0ac19f10300bf4c9a3d8,null,null,"<p style=""font-size: 60px; font-family: BACS"">BdtACDOk</p>",,,,,,,,,,
html-keyboard-response,416,542661,0.0-18.0-0.3,6170821d1e8ffb9c893b28a4,650c16f0f2faf8d7a0d14c09,651c0ac19f10300bf4c9a3d8,null,null,"<p style=""font-size: 60px; font-family: BACS"">YOaAbYUYa</p>",,,,,,,,,,
html-keyboard-response,417,543662,0.0-18.0-0.4,6170821d1e8ffb9c893b28a4,650c16f0f2faf8d7a0d14c09,651c0ac19f10300bf4c9a3d8,null,null,"<p style=""font-size: 60px; font-family: BACS"">mUOcOJZr</p>",,,,,,,,,,
html-keyboard-response,418,544678,0.0-18.0-0.5,6170821d1e8ffb9c893b28a4,650c16f0f2faf8d7a0d14c09,651c0ac19f10300bf4c9a3d8,null,null,"<p style=""font-size: 60px; font-family: BACS"">DcPTcRCdc</p>",,,,,,,,,,
html-keyboard-response,419,545680,0.0-18.0-0.6,6170821d1e8ffb9c893b28a4,650c16f0f2faf8d7a0d14c09,651c0ac19f10300bf4c9a3d8,null,null,"<p style=""font-size: 60px; font-family: BACS"">uQkrdYUYa</p>",,,,,,,,,,
html-keyboard-response,420,546696,0.0-18.0-0.7,6170821d1e8ffb9c893b28a4,650c16f0f2faf8d7a0d14c09,651c0ac19f10300bf4c9a3d8,null,null,"<p style=""font-size: 60px; font-family: BACS"">lbBDETbk</p>",,,,,,,,,,
html-keyboard-response,421,547712,0.0-18.0-0.8,6170821d1e8ffb9c893b28a4,650c16f0f2faf8d7a0d14c09,651c0ac19f10300bf4c9a3d8,null,null,"<p style=""font-size: 60px; font-family: BACS"">YOaAbJZr</p>",,,,,,,,,,
html-keyboard-response,422,548728,0.0-18.0-0.9,6170821d1e8ffb9c893b28a4,650c16f0f2faf8d7a0d14c09,651c0ac19f10300bf4c9a3d8,null,null,"<p style=""font-size: 60px; font-family: BACS"">dClOCTbk</p>",,,,,,,,,,
html-keyboard-response,423,549745,0.0-18.0-0.10,6170821d1e8ffb9c893b28a4,650c16f0f2faf8d7a0d14c09,651c0ac19f10300bf4c9a3d8,null,null,"<p style=""font-size: 60px; font-family: BACS"">NbacAmkc</p>",,,,,,,,,,
html-keyboard-response,424,550761,0.0-18.0-0.11,6170821d1e8ffb9c893b28a4,650c16f0f2faf8d7a0d14c09,651c0ac19f10300bf4c9a3d8,null,null,"<p style=""font-size: 60px; font-family: BACS"">mUOcONmAG</p>",,,,,,,,,,
html-keyboard-response,425,551762,0.0-18.0-0.12,6170821d1e8ffb9c893b28a4,650c16f0f2faf8d7a0d14c09,651c0ac19f10300bf4c9a3d8,null,null,"<p style=""font-size: 60px; font-family: BACS"">lYruavAvb</p>",,,,,,,,,,
html-keyboard-response,426,552779,0.0-18.0-0.13,6170821d1e8ffb9c893b28a4,650c16f0f2faf8d7a0d14c09,651c0ac19f10300bf4c9a3d8,null,null,"<p style=""font-size: 60px; font-family: BACS"">mUOcOmkc</p>",,,,,,,,,,
html-keyboard-response,427,553779,0.0-18.0-0.14,6170821d1e8ffb9c893b28a4,650c16f0f2faf8d7a0d14c09,651c0ac19f10300bf4c9a3d8,null,null,"<p style=""font-size: 60px; font-family: BACS"">TObCODOk</p>",,,,,,,,,,
html-keyboard-response,428,554795,0.0-18.0-0.15,6170821d1e8ffb9c893b28a4,650c16f0f2faf8d7a0d14c09,651c0ac19f10300bf4c9a3d8,null,null,"<p style=""font-size: 60px; font-family: BACS"">NbacANmAG</p>",,,,,,,,,,
html-keyboard-response,429,555796,0.0-18.0-0.16,6170821d1e8ffb9c893b28a4,650c16f0f2faf8d7a0d14c09,651c0ac19f10300bf4c9a3d8,null,null,"<p style=""font-size: 60px; font-family: BACS"">adkrJZr</p>",,,,,,,,,,
html-keyboard-response,430,556797,0.0-18.0-0.17,6170821d1e8ffb9c893b28a4,650c16f0f2faf8d7a0d14c09,651c0ac19f10300bf4c9a3d8,null,null,"<p style=""font-size: 60px; font-family: BACS"">dRhtTbk</p>",,,,,,,,,,
html-keyboard-response,431,557811,0.0-18.0-0.18,6170821d1e8ffb9c893b28a4,650c16f0f2faf8d7a0d14c09,651c0ac19f10300bf4c9a3d8,null,null,"<p style=""font-size: 60px; font-family: BACS"">hbmAYht</p>",,,,,,,,,,
html-keyboard-response,432,558812,0.0-18.0-0.19,6170821d1e8ffb9c893b28a4,650c16f0f2faf8d7a0d14c09,651c0ac19f10300bf4c9a3d8,null,null,"<p style=""font-size: 60px; font-family: BACS"">NbacAvAvb</p>",,,,,,,,,,
html-keyboard-response,433,559829,0.0-18.0-0.20,6170821d1e8ffb9c893b28a4,650c16f0f2faf8d7a0d14c09,651c0ac19f10300bf4c9a3d8,null,null,"<p style=""font-size: 60px; font-family: BACS"">BMEMAYht</p>",,,,,,,,,,
html-keyboard-response,434,560830,0.0-18.0-0.21,6170821d1e8ffb9c893b28a4,650c16f0f2faf8d7a0d14c09,651c0ac19f10300bf4c9a3d8,null,null,"<p style=""font-size: 60px; font-family: BACS"">dClOCRCdc</p>",,,,,,,,,,
html-keyboard-response,435,561846,0.0-18.0-0.22,6170821d1e8ffb9c893b28a4,650c16f0f2faf8d7a0d14c09,651c0ac19f10300bf4c9a3d8,null,null,"<p style=""font-size: 60px; font-family: BACS"">uQkrdJZr</p>",,,,,,,,,,
html-keyboard-response,436,562846,0.0-18.0-0.23,6170821d1e8ffb9c893b28a4,650c16f0f2faf8d7a0d14c09,651c0ac19f10300bf4c9a3d8,null,null,"<p style=""font-size: 60px; font-family: BACS"">TObCORCdc</p>",,,,,,,,,,
html-keyboard-response,437,563863,0.0-18.0-0.24,6170821d1e8ffb9c893b28a4,650c16f0f2faf8d7a0d14c09,651c0ac19f10300bf4c9a3d8,null,null,"<p style=""font-size: 60px; font-family: BACS"">blMkBCAd</p>",,,,,,,,,,
html-keyboard-response,438,564879,0.0-18.0-0.25,6170821d1e8ffb9c893b28a4,650c16f0f2faf8d7a0d14c09,651c0ac19f10300bf4c9a3d8,null,null,"<p style=""font-size: 60px; font-family: BACS"">BdtACRCdc</p>",,,,,,,,,,
html-keyboard-response,439,565896,0.0-18.0-0.26,6170821d1e8ffb9c893b28a4,650c16f0f2faf8d7a0d14c09,651c0ac19f10300bf4c9a3d8,null,null,"<p style=""font-size: 60px; font-family: BACS"">hlbtbTbk</p>",,,,,,,,,,
html-keyboard-response,440,566912,0.0-18.0-0.27,6170821d1e8ffb9c893b28a4,650c16f0f2faf8d7a0d14c09,651c0ac19f10300bf4c9a3d8,null,null,"<p style=""font-size: 60px; font-family: BACS"">lYruamkc</p>",,,,,,,,,,
html-keyboard-response,441,567913,0.0-18.0-0.28,6170821d1e8ffb9c893b28a4,650c16f0f2faf8d7a0d14c09,651c0ac19f10300bf4c9a3d8,null,null,"<p style=""font-size: 60px; font-family: BACS"">ldAaNmAG</p>",,,,,,,,,,
html-keyboard-response,442,568929,0.0-18.0-0.29,6170821d1e8ffb9c893b28a4,650c16f0f2faf8d7a0d14c09,651c0ac19f10300bf4c9a3d8,null,null,"<p style=""font-size: 60px; font-family: BACS"">adkrYUYa</p>",,,,,,,,,,
html-keyboard-response,443,569946,0.0-18.0-0.30,6170821d1e8ffb9c893b28a4,650c16f0f2faf8d7a0d14c09,651c0ac19f10300bf4c9a3d8,null,null,"<p style=""font-size: 60px; font-family: BACS"">BMEMATbk</p>",,,,,,,,,,
html-keyboard-response,444,570947,0.0-18.0-0.31,6170821d1e8ffb9c893b28a4,650c16f0f2faf8d7a0d14c09,651c0ac19f10300bf4c9a3d8,null,null,"<p style=""font-size: 60px; font-family: BACS"">laYmrmkc</p>",,,,,,,,,,
html-keyboard-response,445,571962,0.0-18.0-0.32,6170821d1e8ffb9c893b28a4,650c16f0f2faf8d7a0d14c09,651c0ac19f10300bf4c9a3d8,null,null,"<p style=""font-size: 60px; font-family: BACS"">ldAaYUYa</p>",,,,,,,,,,
html-keyboard-response,446,572974,0.0-18.0-0.33,6170821d1e8ffb9c893b28a4,650c16f0f2faf8d7a0d14c09,651c0ac19f10300bf4c9a3d8,null,null,"<p style=""font-size: 60px; font-family: BACS"">NbmQUNmAG</p>",,,,,,,,,,
html-keyboard-response,447,573980,0.0-18.0-0.34,6170821d1e8ffb9c893b28a4,650c16f0f2faf8d7a0d14c09,651c0ac19f10300bf4c9a3d8,null,null,"<p style=""font-size: 60px; font-family: BACS"">laYmrYUYa</p>",,,,,,,,,,
html-keyboard-response,448,574984,0.0-18.0-0.35,6170821d1e8ffb9c893b28a4,650c16f0f2faf8d7a0d14c09,651c0ac19f10300bf4c9a3d8,null,null,"<p style=""font-size: 60px; font-family: BACS"">blMkDOk</p>",,,,,,,,,,
html-keyboard-response,449,575996,0.0-18.0-0.36,6170821d1e8ffb9c893b28a4,650c16f0f2faf8d7a0d14c09,651c0ac19f10300bf4c9a3d8,null,null,"<p style=""font-size: 60px; font-family: BACS"">bYuQmkc</p>",,,,,,,,,,
html-keyboard-response,450,577012,0.0-18.0-0.37,6170821d1e8ffb9c893b28a4,650c16f0f2faf8d7a0d14c09,651c0ac19f10300bf4c9a3d8,null,null,"<p style=""font-size: 60px; font-family: BACS"">dClOCYht</p>",,,,,,,,,,
html-keyboard-response,451,578014,0.0-18.0-0.38,6170821d1e8ffb9c893b28a4,650c16f0f2faf8d7a0d14c09,651c0ac19f10300bf4c9a3d8,null,null,"<p style=""font-size: 60px; font-family: BACS"">DcPTcDOk</p>",,,,,,,,,,
html-keyboard-response,452,579015,0.0-18.0-0.39,6170821d1e8ffb9c893b28a4,650c16f0f2faf8d7a0d14c09,651c0ac19f10300bf4c9a3d8,null,null,"<p style=""font-size: 60px; font-family: BACS"">hbmABCAd</p>",,,,,,,,,,
html-keyboard-response,453,580029,0.0-18.0-0.40,6170821d1e8ffb9c893b28a4,650c16f0f2faf8d7a0d14c09,651c0ac19f10300bf4c9a3d8,null,null,"<p style=""font-size: 60px; font-family: BACS"">bYuQJZr</p>",,,,,,,,,,
html-keyboard-response,454,581030,0.0-18.0-0.41,6170821d1e8ffb9c893b28a4,650c16f0f2faf8d7a0d14c09,651c0ac19f10300bf4c9a3d8,null,null,"<p style=""font-size: 60px; font-family: BACS"">BMEMARCdc</p>",,,,,,,,,,
html-keyboard-response,455,582046,0.0-18.0-0.42,6170821d1e8ffb9c893b28a4,650c16f0f2faf8d7a0d14c09,651c0ac19f10300bf4c9a3d8,null,null,"<p style=""font-size: 60px; font-family: BACS"">blMkTbk</p>",,,,,,,,,,
html-keyboard-response,456,583062,0.0-18.0-0.43,6170821d1e8ffb9c893b28a4,650c16f0f2faf8d7a0d14c09,651c0ac19f10300bf4c9a3d8,null,null,"<p style=""font-size: 60px; font-family: BACS"">ldAaJZr</p>",,,,,,,,,,
html-keyboard-response,457,584064,0.0-18.0-0.44,6170821d1e8ffb9c893b28a4,650c16f0f2faf8d7a0d14c09,651c0ac19f10300bf4c9a3d8,null,null,"<p style=""font-size: 60px; font-family: BACS"">bYuQNmAG</p>",,,,,,,,,,
html-keyboard-response,458,585079,0.0-18.0-0.45,6170821d1e8ffb9c893b28a4,650c16f0f2faf8d7a0d14c09,651c0ac19f10300bf4c9a3d8,null,null,"<p style=""font-size: 60px; font-family: BACS"">DcPTcTbk</p>",,,,,,,,,,
html-keyboard-response,459,586096,0.0-18.0-0.46,6170821d1e8ffb9c893b28a4,650c16f0f2faf8d7a0d14c09,651c0ac19f10300bf4c9a3d8,null,null,"<p style=""font-size: 60px; font-family: BACS"">NbacAYUYa</p>",,,,,,,,,,
html-keyboard-response,460,587097,0.0-18.0-0.47,6170821d1e8ffb9c893b28a4,650c16f0f2faf8d7a0d14c09,651c0ac19f10300bf4c9a3d8,null,null,"<p style=""font-size: 60px; font-family: BACS"">lYruaJZr</p>",,,,,,,,,,
html-keyboard-response,461,588098,0.0-18.0-0.48,6170821d1e8ffb9c893b28a4,650c16f0f2faf8d7a0d14c09,651c0ac19f10300bf4c9a3d8,null,null,"<p style=""font-size: 60px; font-family: BACS"">NbmQUmkc</p>",,,,,,,,,,
html-keyboard-response,462,589108,0.0-18.0-0.49,6170821d1e8ffb9c893b28a4,650c16f0f2faf8d7a0d14c09,651c0ac19f10300bf4c9a3d8,null,null,"<p style=""font-size: 60px; font-family: BACS"">mUOcOvAvb</p>",,,,,,,,,,
html-keyboard-response,463,590112,0.0-18.0-0.50,6170821d1e8ffb9c893b28a4,650c16f0f2faf8d7a0d14c09,651c0ac19f10300bf4c9a3d8,null,null,"<p style=""font-size: 60px; font-family: BACS"">NbmQUYUYa</p>",,,,,,,,,,
html-keyboard-response,464,591129,0.0-18.0-0.51,6170821d1e8ffb9c893b28a4,650c16f0f2faf8d7a0d14c09,651c0ac19f10300bf4c9a3d8,null,null,"<p style=""font-size: 60px; font-family: BACS"">BdtACYht</p>",,,,,,,,,,
html-keyboard-response,465,592142,0.0-18.0-0.52,6170821d1e8ffb9c893b28a4,650c16f0f2faf8d7a0d14c09,651c0ac19f10300bf4c9a3d8,null,null,"<p style=""font-size: 60px; font-family: BACS"">NbmQUvAvb</p>",,,,,,,,,,
html-keyboard-response,466,593148,0.0-18.0-0.53,6170821d1e8ffb9c893b28a4,650c16f0f2faf8d7a0d14c09,651c0ac19f10300bf4c9a3d8,null,null,"<p style=""font-size: 60px; font-family: BACS"">dRhtYht</p>",,,,,,,,,,
html-keyboard-response,467,594162,0.0-18.0-0.54,6170821d1e8ffb9c893b28a4,650c16f0f2faf8d7a0d14c09,651c0ac19f10300bf4c9a3d8,null,null,"<p style=""font-size: 60px; font-family: BACS"">YOaAbNmAG</p>",,,,,,,,,,
