"trial_type","trial_index","time_elapsed","internal_node_id","subject_id","study_id","session_id","rt","response","stimulus","success","item","task","correct_response","testing_condition","correct","target","confound","name"
"pavlovia","0","745","0.0-0.0","5efd2964d36f63162f263795","650c16f0f2faf8d7a0d14c09","651c1add79d600d539e23bde","","","","","","","","","","","",""
"survey-html-form","1","79389","0.0-1.0","5efd2964d36f63162f263795","650c16f0f2faf8d7a0d14c09","651c1add79d600d539e23bde","78642","{""ID"":""5efd2964d36f63162f263795""}","","","","","","","","","",""
"html-keyboard-response","2","85743","0.0-2.0","5efd2964d36f63162f263795","650c16f0f2faf8d7a0d14c09","651c1add79d600d539e23bde","6353"," ","<p style=""font-size: 15px;"">Before beginning, we ask that you read the consent information and confirm your agreement to participate in the experiment.</p>
      <p style=""font-size: 15px;""> We ask that you remember that this is a research project and that your participation is entirely voluntary. You can stop your participation at any time, without needing to provide any explanation. The study we're asking you to participate in aims at examining how readers process written words. You will be engaged in a session of apprximately 20 minutes, followed by a brief questionnaire. You will have the opportunity to take a few breaks during the experiment. You will be paid £4 for your participation, corresponding to a rate of £8/hour. While this experiment looks at cognitive faculties, this experiment doesn't constitute clinical proof of eventual pathologies.</p>
      <p style=""font-size: 15px;"">All of the information collected thanks to yours and others' participation will be held in a secure password-protected server, and will not be shared with anyone not authorised to view it. Your personal information will be kept with an arbitrary participant ID. Thanks to this data anonymity process, any researcher analysing the data won't be able to track the information back to a specific participant. Therefore, this process will make identifying you impossibile, even when results from the study will be published in scientific reviews, presented at congresses, or at any other public forum. More generally, the collected data will be treated in accordance with the laws on privacy and conformity to the Legislative Degree n. 196 ""Code regarding the protection of personal data"" of the 30th of June 2003 and to the European Regulation 2016/670 (General Data Protection Regulation - GDPR). The Data Protection Officer is Avv. Valentina Carollo, who can be contacted at the following email addresses: <a href=""mailto:dpo@sissa.it"">dpo@sissa.it</a> or <a href=""mailto:rpd@sissa.it"">rpd@sissa.it</a> - PEC: <a href=""mailto:protocollo@pec.sissa.it"">protocollo@pec.sissa.it</a>.</p>
      <p style=""font-size: 15px;""> Before expressing your consent to participate, we would like to remind you again that in case you need explanations on any aspect of the experimental procedure, the researcher is at your disposition (<a href=""mailto:aliebelt@sissa.it"">aliebelt@sissa.it</a>, <a href=""mailto:davide.crepaldi@sissa.it"">davide.crepaldi@sissa.it</a>).</p>
      <p style=""font-size: 15px;"">If you would like to download the informed consent form, you can do so here: <a href=""BASL-Informed_Consent.pdf"" download>informed consent form</a>.</p>
      <p style=""font-size: 15px;"">We ask that you press the spacebar to proceed to the consent section.</p>","","","","","","","","",""
"survey-html-form","3","98683","0.0-3.0","5efd2964d36f63162f263795","650c16f0f2faf8d7a0d14c09","651c1add79d600d539e23bde","12939","{""consent1"":""YES"",""consent2"":""YES"",""consent3"":""YES"",""consent4"":""YES"",""consent5"":""YES"",""consent6"":""YES""}","","","","","","","","","",""
"fullscreen","4","105681","0.0-4.0","5efd2964d36f63162f263795","650c16f0f2faf8d7a0d14c09","651c1add79d600d539e23bde","","","","true","","","","","","","",""
"html-keyboard-response","5","116134","0.0-5.0","5efd2964d36f63162f263795","650c16f0f2faf8d7a0d14c09","651c1add79d600d539e23bde","10453"," ","<p>Welcome, and thank you very much for your time!</p>
      <p>In this experiment, you'll be a language expert who's been asked to take a look at words that Earth has received in its first communication with aliens. Your task, in this first part of the experiment, is to pay close attention to the words you'll be shown; later, world leaders will ask you questions on what you saw. The words will be shown to you quite quickly; it seems that the aliens were in a hurry :-)</p>
      <p>Press the spacebar to continue.<p>","","","","","","","","",""
"html-keyboard-response","6","116198","0.0-6.0","5efd2964d36f63162f263795","650c16f0f2faf8d7a0d14c09","651c1add79d600d539e23bde","null","null","<p style=""font-size: 120px; font-family: BACS""> </p>","","","","","","","","",""
"html-keyboard-response","7","118406","0.0-7.0","5efd2964d36f63162f263795","650c16f0f2faf8d7a0d14c09","651c1add79d600d539e23bde","2208"," ","<p>Here is an example of the words you'll see:</p>
      <img src='esempio.png' height='400px'>
      <p>When you're ready to begin, press the spacebar.</p></div>","","","","","","","","",""
"html-keyboard-response","8","119415","0.0-8.0-0.0","5efd2964d36f63162f263795","650c16f0f2faf8d7a0d14c09","651c1add79d600d539e23bde","null","null","<p style=""font-size: 60px; font-family: BACS"">kNuacYUv</p>","","","","","","","","",""
"html-keyboard-response","9","120419","0.0-8.0-0.1","5efd2964d36f63162f263795","650c16f0f2faf8d7a0d14c09","651c1add79d600d539e23bde","null","null","<p style=""font-size: 60px; font-family: BACS"">ZcGdNJUG</p>","","","","","","","","",""
"html-keyboard-response","10","121435","0.0-8.0-0.2","5efd2964d36f63162f263795","650c16f0f2faf8d7a0d14c09","651c1add79d600d539e23bde","null","null","<p style=""font-size: 60px; font-family: BACS"">OQarQcYUv</p>","","","","","","","","",""
"html-keyboard-response","11","122448","0.0-8.0-0.3","5efd2964d36f63162f263795","650c16f0f2faf8d7a0d14c09","651c1add79d600d539e23bde","null","null","<p style=""font-size: 60px; font-family: BACS"">laYmrYZJO</p>","","","","","","","","",""
"html-keyboard-response","12","123461","0.0-8.0-0.4","5efd2964d36f63162f263795","650c16f0f2faf8d7a0d14c09","651c1add79d600d539e23bde","null","null","<p style=""font-size: 60px; font-family: BACS"">PEtEkMEC</p>","","","","","","","","",""
"html-keyboard-response","13","124475","0.0-8.0-0.5","5efd2964d36f63162f263795","650c16f0f2faf8d7a0d14c09","651c1add79d600d539e23bde","null","null","<p style=""font-size: 60px; font-family: BACS"">kNuamLJ</p>","","","","","","","","",""
"html-keyboard-response","14","125481","0.0-8.0-0.6","5efd2964d36f63162f263795","650c16f0f2faf8d7a0d14c09","651c1add79d600d539e23bde","null","null","<p style=""font-size: 60px; font-family: BACS"">GumLlYZJO</p>","","","","","","","","",""
"html-keyboard-response","15","126493","0.0-8.0-0.7","5efd2964d36f63162f263795","650c16f0f2faf8d7a0d14c09","651c1add79d600d539e23bde","null","null","<p style=""font-size: 60px; font-family: BACS"">DBklkMEC</p>","","","","","","","","",""
"html-keyboard-response","16","127508","0.0-8.0-0.8","5efd2964d36f63162f263795","650c16f0f2faf8d7a0d14c09","651c1add79d600d539e23bde","null","null","<p style=""font-size: 60px; font-family: BACS"">TdTDTRkY</p>","","","","","","","","",""
"html-keyboard-response","17","128517","0.0-8.0-0.9","5efd2964d36f63162f263795","650c16f0f2faf8d7a0d14c09","651c1add79d600d539e23bde","null","null","<p style=""font-size: 60px; font-family: BACS"">ZcGdNcYUv</p>","","","","","","","","",""
"html-keyboard-response","18","129527","0.0-8.0-0.10","5efd2964d36f63162f263795","650c16f0f2faf8d7a0d14c09","651c1add79d600d539e23bde","null","null","<p style=""font-size: 60px; font-family: BACS"">JZOAkJUG</p>","","","","","","","","",""
"html-keyboard-response","19","130540","0.0-8.0-0.11","5efd2964d36f63162f263795","650c16f0f2faf8d7a0d14c09","651c1add79d600d539e23bde","null","null","<p style=""font-size: 60px; font-family: BACS"">RYtkcMCkm</p>","","","","","","","","",""
"html-keyboard-response","20","131545","0.0-8.0-0.12","5efd2964d36f63162f263795","650c16f0f2faf8d7a0d14c09","651c1add79d600d539e23bde","null","null","<p style=""font-size: 60px; font-family: BACS"">JZOAkcYUv</p>","","","","","","","","",""
"html-keyboard-response","21","132560","0.0-8.0-0.13","5efd2964d36f63162f263795","650c16f0f2faf8d7a0d14c09","651c1add79d600d539e23bde","null","null","<p style=""font-size: 60px; font-family: BACS"">OQarQuUY</p>","","","","","","","","",""
"html-keyboard-response","22","133576","0.0-8.0-0.14","5efd2964d36f63162f263795","650c16f0f2faf8d7a0d14c09","651c1add79d600d539e23bde","null","null","<p style=""font-size: 60px; font-family: BACS"">TdTDkKE</p>","","","","","","","","",""
"html-keyboard-response","23","134588","0.0-8.0-0.15","5efd2964d36f63162f263795","650c16f0f2faf8d7a0d14c09","651c1add79d600d539e23bde","null","null","<p style=""font-size: 60px; font-family: BACS"">ZcGdNuUY</p>","","","","","","","","",""
"html-keyboard-response","24","135603","0.0-8.0-0.16","5efd2964d36f63162f263795","650c16f0f2faf8d7a0d14c09","651c1add79d600d539e23bde","null","null","<p style=""font-size: 60px; font-family: BACS"">RYtkcYBO</p>","","","","","","","","",""
"html-keyboard-response","25","136618","0.0-8.0-0.17","5efd2964d36f63162f263795","650c16f0f2faf8d7a0d14c09","651c1add79d600d539e23bde","null","null","<p style=""font-size: 60px; font-family: BACS"">ZcGdNYZJO</p>","","","","","","","","",""
"html-keyboard-response","26","137633","0.0-8.0-0.18","5efd2964d36f63162f263795","650c16f0f2faf8d7a0d14c09","651c1add79d600d539e23bde","null","null","<p style=""font-size: 60px; font-family: BACS"">kcdOtTRkY</p>","","","","","","","","",""
"html-keyboard-response","27","138648","0.0-8.0-0.19","5efd2964d36f63162f263795","650c16f0f2faf8d7a0d14c09","651c1add79d600d539e23bde","null","null","<p style=""font-size: 60px; font-family: BACS"">EltMBMCkm</p>","","","","","","","","",""
"html-keyboard-response","28","139649","0.0-8.0-0.20","5efd2964d36f63162f263795","650c16f0f2faf8d7a0d14c09","651c1add79d600d539e23bde","null","null","<p style=""font-size: 60px; font-family: BACS"">OQarQYZJO</p>","","","","","","","","",""
"html-keyboard-response","29","140654","0.0-8.0-0.21","5efd2964d36f63162f263795","650c16f0f2faf8d7a0d14c09","651c1add79d600d539e23bde","null","null","<p style=""font-size: 60px; font-family: BACS"">OAmGrcYUv</p>","","","","","","","","",""
"html-keyboard-response","30","141664","0.0-8.0-0.22","5efd2964d36f63162f263795","650c16f0f2faf8d7a0d14c09","651c1add79d600d539e23bde","null","null","<p style=""font-size: 60px; font-family: BACS"">DBklYBO</p>","","","","","","","","",""
"html-keyboard-response","31","142671","0.0-8.0-0.23","5efd2964d36f63162f263795","650c16f0f2faf8d7a0d14c09","651c1add79d600d539e23bde","null","null","<p style=""font-size: 60px; font-family: BACS"">JZOAkuUY</p>","","","","","","","","",""
"html-keyboard-response","32","143683","0.0-8.0-0.24","5efd2964d36f63162f263795","650c16f0f2faf8d7a0d14c09","651c1add79d600d539e23bde","null","null","<p style=""font-size: 60px; font-family: BACS"">GumLlmLJ</p>","","","","","","","","",""
"html-keyboard-response","33","144695","0.0-8.0-0.25","5efd2964d36f63162f263795","650c16f0f2faf8d7a0d14c09","651c1add79d600d539e23bde","null","null","<p style=""font-size: 60px; font-family: BACS"">QcladcYUv</p>","","","","","","","","",""
"html-keyboard-response","34","145710","0.0-8.0-0.26","5efd2964d36f63162f263795","650c16f0f2faf8d7a0d14c09","651c1add79d600d539e23bde","null","null","<p style=""font-size: 60px; font-family: BACS"">RYtkckKE</p>","","","","","","","","",""
"html-keyboard-response","35","146715","0.0-8.0-0.27","5efd2964d36f63162f263795","650c16f0f2faf8d7a0d14c09","651c1add79d600d539e23bde","null","null","<p style=""font-size: 60px; font-family: BACS"">laYmrmLJ</p>","","","","","","","","",""
"html-keyboard-response","36","147730","0.0-8.0-0.28","5efd2964d36f63162f263795","650c16f0f2faf8d7a0d14c09","651c1add79d600d539e23bde","null","null","<p style=""font-size: 60px; font-family: BACS"">DBklMCkm</p>","","","","","","","","",""
"html-keyboard-response","37","148743","0.0-8.0-0.29","5efd2964d36f63162f263795","650c16f0f2faf8d7a0d14c09","651c1add79d600d539e23bde","null","null","<p style=""font-size: 60px; font-family: BACS"">ZdNmUuUY</p>","","","","","","","","",""
"html-keyboard-response","38","149746","0.0-8.0-0.30","5efd2964d36f63162f263795","650c16f0f2faf8d7a0d14c09","651c1add79d600d539e23bde","null","null","<p style=""font-size: 60px; font-family: BACS"">JZOAkmLJ</p>","","","","","","","","",""
"html-keyboard-response","39","150759","0.0-8.0-0.31","5efd2964d36f63162f263795","650c16f0f2faf8d7a0d14c09","651c1add79d600d539e23bde","null","null","<p style=""font-size: 60px; font-family: BACS"">lCbcmMCkm</p>","","","","","","","","",""
"html-keyboard-response","40","151762","0.0-8.0-0.32","5efd2964d36f63162f263795","650c16f0f2faf8d7a0d14c09","651c1add79d600d539e23bde","null","null","<p style=""font-size: 60px; font-family: BACS"">OQarQJUG</p>","","","","","","","","",""
"html-keyboard-response","41","152776","0.0-8.0-0.33","5efd2964d36f63162f263795","650c16f0f2faf8d7a0d14c09","651c1add79d600d539e23bde","null","null","<p style=""font-size: 60px; font-family: BACS"">ZdNmUcYUv</p>","","","","","","","","",""
"html-keyboard-response","42","153779","0.0-8.0-0.34","5efd2964d36f63162f263795","650c16f0f2faf8d7a0d14c09","651c1add79d600d539e23bde","null","null","<p style=""font-size: 60px; font-family: BACS"">lBlEkMEC</p>","","","","","","","","",""
"html-keyboard-response","43","154794","0.0-8.0-0.35","5efd2964d36f63162f263795","650c16f0f2faf8d7a0d14c09","651c1add79d600d539e23bde","null","null","<p style=""font-size: 60px; font-family: BACS"">kNuaYZJO</p>","","","","","","","","",""
"html-keyboard-response","44","155810","0.0-8.0-0.36","5efd2964d36f63162f263795","650c16f0f2faf8d7a0d14c09","651c1add79d600d539e23bde","null","null","<p style=""font-size: 60px; font-family: BACS"">GumLluUY</p>","","","","","","","","",""
"html-keyboard-response","45","156826","0.0-8.0-0.37","5efd2964d36f63162f263795","650c16f0f2faf8d7a0d14c09","651c1add79d600d539e23bde","null","null","<p style=""font-size: 60px; font-family: BACS"">lCbcmkMEC</p>","","","","","","","","",""
"html-keyboard-response","46","157837","0.0-8.0-0.38","5efd2964d36f63162f263795","650c16f0f2faf8d7a0d14c09","651c1add79d600d539e23bde","null","null","<p style=""font-size: 60px; font-family: BACS"">PEtETRkY</p>","","","","","","","","",""
"html-keyboard-response","47","158842","0.0-8.0-0.39","5efd2964d36f63162f263795","650c16f0f2faf8d7a0d14c09","651c1add79d600d539e23bde","null","null","<p style=""font-size: 60px; font-family: BACS"">QcladmLJ</p>","","","","","","","","",""
"html-keyboard-response","48","159857","0.0-8.0-0.40","5efd2964d36f63162f263795","650c16f0f2faf8d7a0d14c09","651c1add79d600d539e23bde","null","null","<p style=""font-size: 60px; font-family: BACS"">RYtkcTRkY</p>","","","","","","","","",""
"html-keyboard-response","49","160870","0.0-8.0-0.41","5efd2964d36f63162f263795","650c16f0f2faf8d7a0d14c09","651c1add79d600d539e23bde","null","null","<p style=""font-size: 60px; font-family: BACS"">laYmrcYUv</p>","","","","","","","","",""
"html-keyboard-response","50","161874","0.0-8.0-0.42","5efd2964d36f63162f263795","650c16f0f2faf8d7a0d14c09","651c1add79d600d539e23bde","null","null","<p style=""font-size: 60px; font-family: BACS"">AlQaQYZJO</p>","","","","","","","","",""
"html-keyboard-response","51","162888","0.0-8.0-0.43","5efd2964d36f63162f263795","650c16f0f2faf8d7a0d14c09","651c1add79d600d539e23bde","null","null","<p style=""font-size: 60px; font-family: BACS"">BlmclTRkY</p>","","","","","","","","",""
"html-keyboard-response","52","163897","0.0-8.0-0.44","5efd2964d36f63162f263795","650c16f0f2faf8d7a0d14c09","651c1add79d600d539e23bde","null","null","<p style=""font-size: 60px; font-family: BACS"">ZdNmUJUG</p>","","","","","","","","",""
"html-keyboard-response","53","164902","0.0-8.0-0.45","5efd2964d36f63162f263795","650c16f0f2faf8d7a0d14c09","651c1add79d600d539e23bde","null","null","<p style=""font-size: 60px; font-family: BACS"">lBlEMCkm</p>","","","","","","","","",""
"html-keyboard-response","54","165918","0.0-8.0-0.46","5efd2964d36f63162f263795","650c16f0f2faf8d7a0d14c09","651c1add79d600d539e23bde","null","null","<p style=""font-size: 60px; font-family: BACS"">kNuauUY</p>","","","","","","","","",""
"html-keyboard-response","55","166919","0.0-8.0-0.47","5efd2964d36f63162f263795","650c16f0f2faf8d7a0d14c09","651c1add79d600d539e23bde","null","null","<p style=""font-size: 60px; font-family: BACS"">lCbcmYBO</p>","","","","","","","","",""
"html-keyboard-response","56","167932","0.0-8.0-0.48","5efd2964d36f63162f263795","650c16f0f2faf8d7a0d14c09","651c1add79d600d539e23bde","null","null","<p style=""font-size: 60px; font-family: BACS"">QcladuUY</p>","","","","","","","","",""
"html-keyboard-response","57","168942","0.0-8.0-0.49","5efd2964d36f63162f263795","650c16f0f2faf8d7a0d14c09","651c1add79d600d539e23bde","null","null","<p style=""font-size: 60px; font-family: BACS"">TdTDkMEC</p>","","","","","","","","",""
"html-keyboard-response","58","169950","0.0-8.0-0.50","5efd2964d36f63162f263795","650c16f0f2faf8d7a0d14c09","651c1add79d600d539e23bde","null","null","<p style=""font-size: 60px; font-family: BACS"">kCRmTRkY</p>","","","","","","","","",""
"html-keyboard-response","59","170963","0.0-8.0-0.51","5efd2964d36f63162f263795","650c16f0f2faf8d7a0d14c09","651c1add79d600d539e23bde","null","null","<p style=""font-size: 60px; font-family: BACS"">EltMBYBO</p>","","","","","","","","",""
"html-keyboard-response","60","171978","0.0-8.0-0.52","5efd2964d36f63162f263795","650c16f0f2faf8d7a0d14c09","651c1add79d600d539e23bde","null","null","<p style=""font-size: 60px; font-family: BACS"">AlQaQmLJ</p>","","","","","","","","",""
"html-keyboard-response","61","172990","0.0-8.0-0.53","5efd2964d36f63162f263795","650c16f0f2faf8d7a0d14c09","651c1add79d600d539e23bde","null","null","<p style=""font-size: 60px; font-family: BACS"">OAmGrJUG</p>","","","","","","","","",""
"html-keyboard-response","62","173995","0.0-8.0-0.54","5efd2964d36f63162f263795","650c16f0f2faf8d7a0d14c09","651c1add79d600d539e23bde","null","null","<p style=""font-size: 60px; font-family: BACS"">BlmclYBO</p>","","","","","","","","",""
"html-keyboard-response","63","175010","0.0-8.0-0.55","5efd2964d36f63162f263795","650c16f0f2faf8d7a0d14c09","651c1add79d600d539e23bde","null","null","<p style=""font-size: 60px; font-family: BACS"">PEtEkKE</p>","","","","","","","","",""
"html-keyboard-response","64","176021","0.0-8.0-0.56","5efd2964d36f63162f263795","650c16f0f2faf8d7a0d14c09","651c1add79d600d539e23bde","null","null","<p style=""font-size: 60px; font-family: BACS"">kCRmkMEC</p>","","","","","","","","",""
"html-keyboard-response","65","177027","0.0-8.0-0.57","5efd2964d36f63162f263795","650c16f0f2faf8d7a0d14c09","651c1add79d600d539e23bde","null","null","<p style=""font-size: 60px; font-family: BACS"">AlQaQuUY</p>","","","","","","","","",""
"html-keyboard-response","66","178041","0.0-8.0-0.58","5efd2964d36f63162f263795","650c16f0f2faf8d7a0d14c09","651c1add79d600d539e23bde","null","null","<p style=""font-size: 60px; font-family: BACS"">TdTDYBO</p>","","","","","","","","",""
"html-keyboard-response","67","179043","0.0-8.0-0.59","5efd2964d36f63162f263795","650c16f0f2faf8d7a0d14c09","651c1add79d600d539e23bde","null","null","<p style=""font-size: 60px; font-family: BACS"">OAmGrYZJO</p>","","","","","","","","",""
"html-keyboard-response","68","180053","0.0-8.0-0.60","5efd2964d36f63162f263795","650c16f0f2faf8d7a0d14c09","651c1add79d600d539e23bde","null","null","<p style=""font-size: 60px; font-family: BACS"">PEtEMCkm</p>","","","","","","","","",""
"html-keyboard-response","69","181061","0.0-8.0-0.61","5efd2964d36f63162f263795","650c16f0f2faf8d7a0d14c09","651c1add79d600d539e23bde","null","null","<p style=""font-size: 60px; font-family: BACS"">BlmclkKE</p>","","","","","","","","",""
"html-keyboard-response","70","182077","0.0-8.0-0.62","5efd2964d36f63162f263795","650c16f0f2faf8d7a0d14c09","651c1add79d600d539e23bde","null","null","<p style=""font-size: 60px; font-family: BACS"">GumLlJUG</p>","","","","","","","","",""
"html-keyboard-response","71","183091","0.0-8.0-0.63","5efd2964d36f63162f263795","650c16f0f2faf8d7a0d14c09","651c1add79d600d539e23bde","null","null","<p style=""font-size: 60px; font-family: BACS"">lBlEYBO</p>","","","","","","","","",""
"html-keyboard-response","72","184094","0.0-8.0-0.64","5efd2964d36f63162f263795","650c16f0f2faf8d7a0d14c09","651c1add79d600d539e23bde","null","null","<p style=""font-size: 60px; font-family: BACS"">OAmGrmLJ</p>","","","","","","","","",""
"html-keyboard-response","73","185108","0.0-8.0-0.65","5efd2964d36f63162f263795","650c16f0f2faf8d7a0d14c09","651c1add79d600d539e23bde","null","null","<p style=""font-size: 60px; font-family: BACS"">kCRmMCkm</p>","","","","","","","","",""
"html-keyboard-response","74","186121","0.0-8.0-0.66","5efd2964d36f63162f263795","650c16f0f2faf8d7a0d14c09","651c1add79d600d539e23bde","null","null","<p style=""font-size: 60px; font-family: BACS"">EltMBTRkY</p>","","","","","","","","",""
"html-keyboard-response","75","187135","0.0-8.0-0.67","5efd2964d36f63162f263795","650c16f0f2faf8d7a0d14c09","651c1add79d600d539e23bde","null","null","<p style=""font-size: 60px; font-family: BACS"">kcdOtkKE</p>","","","","","","","","",""
"html-keyboard-response","76","188147","0.0-8.0-0.68","5efd2964d36f63162f263795","650c16f0f2faf8d7a0d14c09","651c1add79d600d539e23bde","null","null","<p style=""font-size: 60px; font-family: BACS"">BlmclkMEC</p>","","","","","","","","",""
"html-keyboard-response","77","189148","0.0-8.0-0.69","5efd2964d36f63162f263795","650c16f0f2faf8d7a0d14c09","651c1add79d600d539e23bde","null","null","<p style=""font-size: 60px; font-family: BACS"">kCRmkKE</p>","","","","","","","","",""
"html-keyboard-response","78","190152","0.0-8.0-0.70","5efd2964d36f63162f263795","650c16f0f2faf8d7a0d14c09","651c1add79d600d539e23bde","null","null","<p style=""font-size: 60px; font-family: BACS"">kcdOtYBO</p>","","","","","","","","",""
"html-keyboard-response","79","191164","0.0-8.0-0.71","5efd2964d36f63162f263795","650c16f0f2faf8d7a0d14c09","651c1add79d600d539e23bde","null","null","<p style=""font-size: 60px; font-family: BACS"">lCbcmkKE</p>","","","","","","","","",""
"html-keyboard-response","80","192178","0.0-8.0-0.72","5efd2964d36f63162f263795","650c16f0f2faf8d7a0d14c09","651c1add79d600d539e23bde","null","null","<p style=""font-size: 60px; font-family: BACS"">EltMBkMEC</p>","","","","","","","","",""
"html-keyboard-response","81","193182","0.0-8.0-0.73","5efd2964d36f63162f263795","650c16f0f2faf8d7a0d14c09","651c1add79d600d539e23bde","null","null","<p style=""font-size: 60px; font-family: BACS"">QcladYZJO</p>","","","","","","","","",""
"html-keyboard-response","82","194195","0.0-8.0-0.74","5efd2964d36f63162f263795","650c16f0f2faf8d7a0d14c09","651c1add79d600d539e23bde","null","null","<p style=""font-size: 60px; font-family: BACS"">laYmrJUG</p>","","","","","","","","",""
"html-keyboard-response","83","195199","0.0-8.0-0.75","5efd2964d36f63162f263795","650c16f0f2faf8d7a0d14c09","651c1add79d600d539e23bde","null","null","<p style=""font-size: 60px; font-family: BACS"">ZdNmUmLJ</p>","","","","","","","","",""
"html-keyboard-response","84","196214","0.0-8.0-0.76","5efd2964d36f63162f263795","650c16f0f2faf8d7a0d14c09","651c1add79d600d539e23bde","null","null","<p style=""font-size: 60px; font-family: BACS"">lBlEkKE</p>","","","","","","","","",""
"html-keyboard-response","85","197229","0.0-8.0-0.77","5efd2964d36f63162f263795","650c16f0f2faf8d7a0d14c09","651c1add79d600d539e23bde","null","null","<p style=""font-size: 60px; font-family: BACS"">AlQaQJUG</p>","","","","","","","","",""
"html-keyboard-response","86","198243","0.0-8.0-0.78","5efd2964d36f63162f263795","650c16f0f2faf8d7a0d14c09","651c1add79d600d539e23bde","null","null","<p style=""font-size: 60px; font-family: BACS"">DBklTRkY</p>","","","","","","","","",""
"html-keyboard-response","87","199258","0.0-8.0-0.79","5efd2964d36f63162f263795","650c16f0f2faf8d7a0d14c09","651c1add79d600d539e23bde","null","null","<p style=""font-size: 60px; font-family: BACS"">kcdOtMCkm</p>","","","","","","","","",""
"html-keyboard-response","88","334742","0.0-9.0","5efd2964d36f63162f263795","650c16f0f2faf8d7a0d14c09","651c1add79d600d539e23bde","135484"," ","<p>Great, you've seen the first block of words. You may now take a short break.</p>
      <p>Press the spacebar when you're ready to continue.</p>","","","","","","","","",""
"html-keyboard-response","89","335757","0.0-10.0-0.0","5efd2964d36f63162f263795","650c16f0f2faf8d7a0d14c09","651c1add79d600d539e23bde","null","null","<p style=""font-size: 60px; font-family: BACS"">kCRmkKE</p>","","","","","","","","",""
"html-keyboard-response","90","336763","0.0-10.0-0.1","5efd2964d36f63162f263795","650c16f0f2faf8d7a0d14c09","651c1add79d600d539e23bde","null","null","<p style=""font-size: 60px; font-family: BACS"">JZOAkmLJ</p>","","","","","","","","",""
"html-keyboard-response","91","337778","0.0-10.0-0.2","5efd2964d36f63162f263795","650c16f0f2faf8d7a0d14c09","651c1add79d600d539e23bde","null","null","<p style=""font-size: 60px; font-family: BACS"">RYtkcYBO</p>","","","","","","","","",""
"html-keyboard-response","92","338786","0.0-10.0-0.3","5efd2964d36f63162f263795","650c16f0f2faf8d7a0d14c09","651c1add79d600d539e23bde","null","null","<p style=""font-size: 60px; font-family: BACS"">QcladcYUv</p>","","","","","","","","",""
"html-keyboard-response","93","339788","0.0-10.0-0.4","5efd2964d36f63162f263795","650c16f0f2faf8d7a0d14c09","651c1add79d600d539e23bde","null","null","<p style=""font-size: 60px; font-family: BACS"">JZOAkJUG</p>","","","","","","","","",""
"html-keyboard-response","94","340797","0.0-10.0-0.5","5efd2964d36f63162f263795","650c16f0f2faf8d7a0d14c09","651c1add79d600d539e23bde","null","null","<p style=""font-size: 60px; font-family: BACS"">lCbcmYBO</p>","","","","","","","","",""
"html-keyboard-response","95","341808","0.0-10.0-0.6","5efd2964d36f63162f263795","650c16f0f2faf8d7a0d14c09","651c1add79d600d539e23bde","null","null","<p style=""font-size: 60px; font-family: BACS"">TdTDkKE</p>","","","","","","","","",""
"html-keyboard-response","96","342809","0.0-10.0-0.7","5efd2964d36f63162f263795","650c16f0f2faf8d7a0d14c09","651c1add79d600d539e23bde","null","null","<p style=""font-size: 60px; font-family: BACS"">AlQaQmLJ</p>","","","","","","","","",""
"html-keyboard-response","97","343823","0.0-10.0-0.8","5efd2964d36f63162f263795","650c16f0f2faf8d7a0d14c09","651c1add79d600d539e23bde","null","null","<p style=""font-size: 60px; font-family: BACS"">ZcGdNcYUv</p>","","","","","","","","",""
"html-keyboard-response","98","344824","0.0-10.0-0.9","5efd2964d36f63162f263795","650c16f0f2faf8d7a0d14c09","651c1add79d600d539e23bde","null","null","<p style=""font-size: 60px; font-family: BACS"">kNuaYZJO</p>","","","","","","","","",""
"html-keyboard-response","99","345840","0.0-10.0-0.10","5efd2964d36f63162f263795","650c16f0f2faf8d7a0d14c09","651c1add79d600d539e23bde","null","null","<p style=""font-size: 60px; font-family: BACS"">JZOAkuUY</p>","","","","","","","","",""
"html-keyboard-response","100","346843","0.0-10.0-0.11","5efd2964d36f63162f263795","650c16f0f2faf8d7a0d14c09","651c1add79d600d539e23bde","null","null","<p style=""font-size: 60px; font-family: BACS"">ZdNmUJUG</p>","","","","","","","","",""
"html-keyboard-response","101","347857","0.0-10.0-0.12","5efd2964d36f63162f263795","650c16f0f2faf8d7a0d14c09","651c1add79d600d539e23bde","null","null","<p style=""font-size: 60px; font-family: BACS"">DBklYBO</p>","","","","","","","","",""
"html-keyboard-response","102","348873","0.0-10.0-0.13","5efd2964d36f63162f263795","650c16f0f2faf8d7a0d14c09","651c1add79d600d539e23bde","null","null","<p style=""font-size: 60px; font-family: BACS"">kCRmMCkm</p>","","","","","","","","",""
"html-keyboard-response","103","349885","0.0-10.0-0.14","5efd2964d36f63162f263795","650c16f0f2faf8d7a0d14c09","651c1add79d600d539e23bde","null","null","<p style=""font-size: 60px; font-family: BACS"">GumLlmLJ</p>","","","","","","","","",""
"html-keyboard-response","104","350887","0.0-10.0-0.15","5efd2964d36f63162f263795","650c16f0f2faf8d7a0d14c09","651c1add79d600d539e23bde","null","null","<p style=""font-size: 60px; font-family: BACS"">TdTDYBO</p>","","","","","","","","",""
"html-keyboard-response","105","351902","0.0-10.0-0.16","5efd2964d36f63162f263795","650c16f0f2faf8d7a0d14c09","651c1add79d600d539e23bde","null","null","<p style=""font-size: 60px; font-family: BACS"">kcdOtMCkm</p>","","","","","","","","",""
"html-keyboard-response","106","352916","0.0-10.0-0.17","5efd2964d36f63162f263795","650c16f0f2faf8d7a0d14c09","651c1add79d600d539e23bde","null","null","<p style=""font-size: 60px; font-family: BACS"">OAmGrYZJO</p>","","","","","","","","",""
"html-keyboard-response","107","353924","0.0-10.0-0.18","5efd2964d36f63162f263795","650c16f0f2faf8d7a0d14c09","651c1add79d600d539e23bde","null","null","<p style=""font-size: 60px; font-family: BACS"">kCRmTRkY</p>","","","","","","","","",""
"html-keyboard-response","108","354933","0.0-10.0-0.19","5efd2964d36f63162f263795","650c16f0f2faf8d7a0d14c09","651c1add79d600d539e23bde","null","null","<p style=""font-size: 60px; font-family: BACS"">kcdOtkKE</p>","","","","","","","","",""
"html-keyboard-response","109","355935","0.0-10.0-0.20","5efd2964d36f63162f263795","650c16f0f2faf8d7a0d14c09","651c1add79d600d539e23bde","null","null","<p style=""font-size: 60px; font-family: BACS"">lCbcmMCkm</p>","","","","","","","","",""
"html-keyboard-response","110","356950","0.0-10.0-0.21","5efd2964d36f63162f263795","650c16f0f2faf8d7a0d14c09","651c1add79d600d539e23bde","null","null","<p style=""font-size: 60px; font-family: BACS"">ZcGdNJUG</p>","","","","","","","","",""
"html-keyboard-response","111","357960","0.0-10.0-0.22","5efd2964d36f63162f263795","650c16f0f2faf8d7a0d14c09","651c1add79d600d539e23bde","null","null","<p style=""font-size: 60px; font-family: BACS"">DBklMCkm</p>","","","","","","","","",""
"html-keyboard-response","112","358962","0.0-10.0-0.23","5efd2964d36f63162f263795","650c16f0f2faf8d7a0d14c09","651c1add79d600d539e23bde","null","null","<p style=""font-size: 60px; font-family: BACS"">PEtETRkY</p>","","","","","","","","",""
"html-keyboard-response","113","359967","0.0-10.0-0.24","5efd2964d36f63162f263795","650c16f0f2faf8d7a0d14c09","651c1add79d600d539e23bde","null","null","<p style=""font-size: 60px; font-family: BACS"">GumLluUY</p>","","","","","","","","",""
"html-keyboard-response","114","360982","0.0-10.0-0.25","5efd2964d36f63162f263795","650c16f0f2faf8d7a0d14c09","651c1add79d600d539e23bde","null","null","<p style=""font-size: 60px; font-family: BACS"">lCbcmkMEC</p>","","","","","","","","",""
"html-keyboard-response","115","361996","0.0-10.0-0.26","5efd2964d36f63162f263795","650c16f0f2faf8d7a0d14c09","651c1add79d600d539e23bde","null","null","<p style=""font-size: 60px; font-family: BACS"">TdTDTRkY</p>","","","","","","","","",""
"html-keyboard-response","116","362997","0.0-10.0-0.27","5efd2964d36f63162f263795","650c16f0f2faf8d7a0d14c09","651c1add79d600d539e23bde","null","null","<p style=""font-size: 60px; font-family: BACS"">QcladYZJO</p>","","","","","","","","",""
"html-keyboard-response","117","364011","0.0-10.0-0.28","5efd2964d36f63162f263795","650c16f0f2faf8d7a0d14c09","651c1add79d600d539e23bde","null","null","<p style=""font-size: 60px; font-family: BACS"">RYtkcMCkm</p>","","","","","","","","",""
"html-keyboard-response","118","365013","0.0-10.0-0.29","5efd2964d36f63162f263795","650c16f0f2faf8d7a0d14c09","651c1add79d600d539e23bde","null","null","<p style=""font-size: 60px; font-family: BACS"">ZdNmUmLJ</p>","","","","","","","","",""
"html-keyboard-response","119","366029","0.0-10.0-0.30","5efd2964d36f63162f263795","650c16f0f2faf8d7a0d14c09","651c1add79d600d539e23bde","null","null","<p style=""font-size: 60px; font-family: BACS"">JZOAkcYUv</p>","","","","","","","","",""
"html-keyboard-response","120","367045","0.0-10.0-0.31","5efd2964d36f63162f263795","650c16f0f2faf8d7a0d14c09","651c1add79d600d539e23bde","null","null","<p style=""font-size: 60px; font-family: BACS"">kCRmkMEC</p>","","","","","","","","",""
"html-keyboard-response","121","368058","0.0-10.0-0.32","5efd2964d36f63162f263795","650c16f0f2faf8d7a0d14c09","651c1add79d600d539e23bde","null","null","<p style=""font-size: 60px; font-family: BACS"">AlQaQYZJO</p>","","","","","","","","",""
"html-keyboard-response","122","369072","0.0-10.0-0.33","5efd2964d36f63162f263795","650c16f0f2faf8d7a0d14c09","651c1add79d600d539e23bde","null","null","<p style=""font-size: 60px; font-family: BACS"">RYtkcTRkY</p>","","","","","","","","",""
"html-keyboard-response","123","370089","0.0-10.0-0.34","5efd2964d36f63162f263795","650c16f0f2faf8d7a0d14c09","651c1add79d600d539e23bde","null","null","<p style=""font-size: 60px; font-family: BACS"">lBlEkKE</p>","","","","","","","","",""
"html-keyboard-response","124","371091","0.0-10.0-0.35","5efd2964d36f63162f263795","650c16f0f2faf8d7a0d14c09","651c1add79d600d539e23bde","null","null","<p style=""font-size: 60px; font-family: BACS"">ZcGdNuUY</p>","","","","","","","","",""
"html-keyboard-response","125","372092","0.0-10.0-0.36","5efd2964d36f63162f263795","650c16f0f2faf8d7a0d14c09","651c1add79d600d539e23bde","null","null","<p style=""font-size: 60px; font-family: BACS"">BlmclTRkY</p>","","","","","","","","",""
"html-keyboard-response","126","373102","0.0-10.0-0.37","5efd2964d36f63162f263795","650c16f0f2faf8d7a0d14c09","651c1add79d600d539e23bde","null","null","<p style=""font-size: 60px; font-family: BACS"">GumLlJUG</p>","","","","","","","","",""
"html-keyboard-response","127","374117","0.0-10.0-0.38","5efd2964d36f63162f263795","650c16f0f2faf8d7a0d14c09","651c1add79d600d539e23bde","null","null","<p style=""font-size: 60px; font-family: BACS"">QcladmLJ</p>","","","","","","","","",""
"html-keyboard-response","128","375133","0.0-10.0-0.39","5efd2964d36f63162f263795","650c16f0f2faf8d7a0d14c09","651c1add79d600d539e23bde","null","null","<p style=""font-size: 60px; font-family: BACS"">RYtkckKE</p>","","","","","","","","",""
"html-keyboard-response","129","376140","0.0-10.0-0.40","5efd2964d36f63162f263795","650c16f0f2faf8d7a0d14c09","651c1add79d600d539e23bde","null","null","<p style=""font-size: 60px; font-family: BACS"">kcdOtYBO</p>","","","","","","","","",""
"html-keyboard-response","130","377149","0.0-10.0-0.41","5efd2964d36f63162f263795","650c16f0f2faf8d7a0d14c09","651c1add79d600d539e23bde","null","null","<p style=""font-size: 60px; font-family: BACS"">kNuauUY</p>","","","","","","","","",""
"html-keyboard-response","131","378164","0.0-10.0-0.42","5efd2964d36f63162f263795","650c16f0f2faf8d7a0d14c09","651c1add79d600d539e23bde","null","null","<p style=""font-size: 60px; font-family: BACS"">BlmclkKE</p>","","","","","","","","",""
"html-keyboard-response","132","379179","0.0-10.0-0.43","5efd2964d36f63162f263795","650c16f0f2faf8d7a0d14c09","651c1add79d600d539e23bde","null","null","<p style=""font-size: 60px; font-family: BACS"">kNuacYUv</p>","","","","","","","","",""
"html-keyboard-response","133","380194","0.0-10.0-0.44","5efd2964d36f63162f263795","650c16f0f2faf8d7a0d14c09","651c1add79d600d539e23bde","null","null","<p style=""font-size: 60px; font-family: BACS"">TdTDkMEC</p>","","","","","","","","",""
"html-keyboard-response","134","381198","0.0-10.0-0.45","5efd2964d36f63162f263795","650c16f0f2faf8d7a0d14c09","651c1add79d600d539e23bde","null","null","<p style=""font-size: 60px; font-family: BACS"">ZcGdNYZJO</p>","","","","","","","","",""
"html-keyboard-response","135","382201","0.0-10.0-0.46","5efd2964d36f63162f263795","650c16f0f2faf8d7a0d14c09","651c1add79d600d539e23bde","null","null","<p style=""font-size: 60px; font-family: BACS"">OQarQcYUv</p>","","","","","","","","",""
"html-keyboard-response","136","383215","0.0-10.0-0.47","5efd2964d36f63162f263795","650c16f0f2faf8d7a0d14c09","651c1add79d600d539e23bde","null","null","<p style=""font-size: 60px; font-family: BACS"">OAmGrJUG</p>","","","","","","","","",""
"html-keyboard-response","137","384229","0.0-10.0-0.48","5efd2964d36f63162f263795","650c16f0f2faf8d7a0d14c09","651c1add79d600d539e23bde","null","null","<p style=""font-size: 60px; font-family: BACS"">kcdOtTRkY</p>","","","","","","","","",""
"html-keyboard-response","138","385243","0.0-10.0-0.49","5efd2964d36f63162f263795","650c16f0f2faf8d7a0d14c09","651c1add79d600d539e23bde","null","null","<p style=""font-size: 60px; font-family: BACS"">laYmrJUG</p>","","","","","","","","",""
"html-keyboard-response","139","386258","0.0-10.0-0.50","5efd2964d36f63162f263795","650c16f0f2faf8d7a0d14c09","651c1add79d600d539e23bde","null","null","<p style=""font-size: 60px; font-family: BACS"">GumLlYZJO</p>","","","","","","","","",""
"html-keyboard-response","140","387265","0.0-10.0-0.51","5efd2964d36f63162f263795","650c16f0f2faf8d7a0d14c09","651c1add79d600d539e23bde","null","null","<p style=""font-size: 60px; font-family: BACS"">BlmclkMEC</p>","","","","","","","","",""
"html-keyboard-response","141","388276","0.0-10.0-0.52","5efd2964d36f63162f263795","650c16f0f2faf8d7a0d14c09","651c1add79d600d539e23bde","null","null","<p style=""font-size: 60px; font-family: BACS"">lBlEYBO</p>","","","","","","","","",""
"html-keyboard-response","142","389279","0.0-10.0-0.53","5efd2964d36f63162f263795","650c16f0f2faf8d7a0d14c09","651c1add79d600d539e23bde","null","null","<p style=""font-size: 60px; font-family: BACS"">PEtEMCkm</p>","","","","","","","","",""
"html-keyboard-response","143","390296","0.0-10.0-0.54","5efd2964d36f63162f263795","650c16f0f2faf8d7a0d14c09","651c1add79d600d539e23bde","null","null","<p style=""font-size: 60px; font-family: BACS"">QcladuUY</p>","","","","","","","","",""
"html-keyboard-response","144","391307","0.0-10.0-0.55","5efd2964d36f63162f263795","650c16f0f2faf8d7a0d14c09","651c1add79d600d539e23bde","null","null","<p style=""font-size: 60px; font-family: BACS"">PEtEkMEC</p>","","","","","","","","",""
"html-keyboard-response","145","392323","0.0-10.0-0.56","5efd2964d36f63162f263795","650c16f0f2faf8d7a0d14c09","651c1add79d600d539e23bde","null","null","<p style=""font-size: 60px; font-family: BACS"">ZdNmUcYUv</p>","","","","","","","","",""
"html-keyboard-response","146","393325","0.0-10.0-0.57","5efd2964d36f63162f263795","650c16f0f2faf8d7a0d14c09","651c1add79d600d539e23bde","null","null","<p style=""font-size: 60px; font-family: BACS"">OAmGrmLJ</p>","","","","","","","","",""
"html-keyboard-response","147","394326","0.0-10.0-0.58","5efd2964d36f63162f263795","650c16f0f2faf8d7a0d14c09","651c1add79d600d539e23bde","null","null","<p style=""font-size: 60px; font-family: BACS"">lCbcmkKE</p>","","","","","","","","",""
"html-keyboard-response","148","395343","0.0-10.0-0.59","5efd2964d36f63162f263795","650c16f0f2faf8d7a0d14c09","651c1add79d600d539e23bde","null","null","<p style=""font-size: 60px; font-family: BACS"">BlmclYBO</p>","","","","","","","","",""
"html-keyboard-response","149","396357","0.0-10.0-0.60","5efd2964d36f63162f263795","650c16f0f2faf8d7a0d14c09","651c1add79d600d539e23bde","null","null","<p style=""font-size: 60px; font-family: BACS"">laYmrmLJ</p>","","","","","","","","",""
"html-keyboard-response","150","397372","0.0-10.0-0.61","5efd2964d36f63162f263795","650c16f0f2faf8d7a0d14c09","651c1add79d600d539e23bde","null","null","<p style=""font-size: 60px; font-family: BACS"">AlQaQuUY</p>","","","","","","","","",""
"html-keyboard-response","151","398388","0.0-10.0-0.62","5efd2964d36f63162f263795","650c16f0f2faf8d7a0d14c09","651c1add79d600d539e23bde","null","null","<p style=""font-size: 60px; font-family: BACS"">kNuamLJ</p>","","","","","","","","",""
"html-keyboard-response","152","399400","0.0-10.0-0.63","5efd2964d36f63162f263795","650c16f0f2faf8d7a0d14c09","651c1add79d600d539e23bde","null","null","<p style=""font-size: 60px; font-family: BACS"">OAmGrcYUv</p>","","","","","","","","",""
"html-keyboard-response","153","400405","0.0-10.0-0.64","5efd2964d36f63162f263795","650c16f0f2faf8d7a0d14c09","651c1add79d600d539e23bde","null","null","<p style=""font-size: 60px; font-family: BACS"">AlQaQJUG</p>","","","","","","","","",""
"html-keyboard-response","154","401406","0.0-10.0-0.65","5efd2964d36f63162f263795","650c16f0f2faf8d7a0d14c09","651c1add79d600d539e23bde","null","null","<p style=""font-size: 60px; font-family: BACS"">laYmrcYUv</p>","","","","","","","","",""
"html-keyboard-response","155","402418","0.0-10.0-0.66","5efd2964d36f63162f263795","650c16f0f2faf8d7a0d14c09","651c1add79d600d539e23bde","null","null","<p style=""font-size: 60px; font-family: BACS"">lBlEkMEC</p>","","","","","","","","",""
"html-keyboard-response","156","403432","0.0-10.0-0.67","5efd2964d36f63162f263795","650c16f0f2faf8d7a0d14c09","651c1add79d600d539e23bde","null","null","<p style=""font-size: 60px; font-family: BACS"">DBklTRkY</p>","","","","","","","","",""
"html-keyboard-response","157","404433","0.0-10.0-0.68","5efd2964d36f63162f263795","650c16f0f2faf8d7a0d14c09","651c1add79d600d539e23bde","null","null","<p style=""font-size: 60px; font-family: BACS"">EltMBMCkm</p>","","","","","","","","",""
"html-keyboard-response","158","405435","0.0-10.0-0.69","5efd2964d36f63162f263795","650c16f0f2faf8d7a0d14c09","651c1add79d600d539e23bde","null","null","<p style=""font-size: 60px; font-family: BACS"">PEtEkKE</p>","","","","","","","","",""
"html-keyboard-response","159","406449","0.0-10.0-0.70","5efd2964d36f63162f263795","650c16f0f2faf8d7a0d14c09","651c1add79d600d539e23bde","null","null","<p style=""font-size: 60px; font-family: BACS"">laYmrYZJO</p>","","","","","","","","",""
"html-keyboard-response","160","407463","0.0-10.0-0.71","5efd2964d36f63162f263795","650c16f0f2faf8d7a0d14c09","651c1add79d600d539e23bde","null","null","<p style=""font-size: 60px; font-family: BACS"">OQarQJUG</p>","","","","","","","","",""
"html-keyboard-response","161","408467","0.0-10.0-0.72","5efd2964d36f63162f263795","650c16f0f2faf8d7a0d14c09","651c1add79d600d539e23bde","null","null","<p style=""font-size: 60px; font-family: BACS"">DBklkMEC</p>","","","","","","","","",""
"html-keyboard-response","162","409480","0.0-10.0-0.73","5efd2964d36f63162f263795","650c16f0f2faf8d7a0d14c09","651c1add79d600d539e23bde","null","null","<p style=""font-size: 60px; font-family: BACS"">lBlEMCkm</p>","","","","","","","","",""
"html-keyboard-response","163","410481","0.0-10.0-0.74","5efd2964d36f63162f263795","650c16f0f2faf8d7a0d14c09","651c1add79d600d539e23bde","null","null","<p style=""font-size: 60px; font-family: BACS"">OQarQYZJO</p>","","","","","","","","",""
"html-keyboard-response","164","411494","0.0-10.0-0.75","5efd2964d36f63162f263795","650c16f0f2faf8d7a0d14c09","651c1add79d600d539e23bde","null","null","<p style=""font-size: 60px; font-family: BACS"">EltMBTRkY</p>","","","","","","","","",""
"html-keyboard-response","165","412497","0.0-10.0-0.76","5efd2964d36f63162f263795","650c16f0f2faf8d7a0d14c09","651c1add79d600d539e23bde","null","null","<p style=""font-size: 60px; font-family: BACS"">OQarQuUY</p>","","","","","","","","",""
"html-keyboard-response","166","413498","0.0-10.0-0.77","5efd2964d36f63162f263795","650c16f0f2faf8d7a0d14c09","651c1add79d600d539e23bde","null","null","<p style=""font-size: 60px; font-family: BACS"">EltMBYBO</p>","","","","","","","","",""
"html-keyboard-response","167","414510","0.0-10.0-0.78","5efd2964d36f63162f263795","650c16f0f2faf8d7a0d14c09","651c1add79d600d539e23bde","null","null","<p style=""font-size: 60px; font-family: BACS"">ZdNmUuUY</p>","","","","","","","","",""
"html-keyboard-response","168","415514","0.0-10.0-0.79","5efd2964d36f63162f263795","650c16f0f2faf8d7a0d14c09","651c1add79d600d539e23bde","null","null","<p style=""font-size: 60px; font-family: BACS"">EltMBkMEC</p>","","","","","","","","",""
"html-keyboard-response","169","429950","0.0-11.0","5efd2964d36f63162f263795","650c16f0f2faf8d7a0d14c09","651c1add79d600d539e23bde","14435"," ","<p>Great, you've seen the second block of words. You may now take a short break.</p>
      <p>Press the spacebar when you're ready to continue.</p>","","","","","","","","",""
"html-keyboard-response","170","430964","0.0-12.0-0.0","5efd2964d36f63162f263795","650c16f0f2faf8d7a0d14c09","651c1add79d600d539e23bde","null","null","<p style=""font-size: 60px; font-family: BACS"">kNuacYUv</p>","","","","","","","","",""
"html-keyboard-response","171","431966","0.0-12.0-0.1","5efd2964d36f63162f263795","650c16f0f2faf8d7a0d14c09","651c1add79d600d539e23bde","null","null","<p style=""font-size: 60px; font-family: BACS"">ZcGdNuUY</p>","","","","","","","","",""
"html-keyboard-response","172","432968","0.0-12.0-0.2","5efd2964d36f63162f263795","650c16f0f2faf8d7a0d14c09","651c1add79d600d539e23bde","null","null","<p style=""font-size: 60px; font-family: BACS"">PEtEkKE</p>","","","","","","","","",""
"html-keyboard-response","173","433982","0.0-12.0-0.3","5efd2964d36f63162f263795","650c16f0f2faf8d7a0d14c09","651c1add79d600d539e23bde","null","null","<p style=""font-size: 60px; font-family: BACS"">RYtkcYBO</p>","","","","","","","","",""
"html-keyboard-response","174","434994","0.0-12.0-0.4","5efd2964d36f63162f263795","650c16f0f2faf8d7a0d14c09","651c1add79d600d539e23bde","null","null","<p style=""font-size: 60px; font-family: BACS"">AlQaQJUG</p>","","","","","","","","",""
"html-keyboard-response","175","435996","0.0-12.0-0.5","5efd2964d36f63162f263795","650c16f0f2faf8d7a0d14c09","651c1add79d600d539e23bde","null","null","<p style=""font-size: 60px; font-family: BACS"">lCbcmkMEC</p>","","","","","","","","",""
"html-keyboard-response","176","437008","0.0-12.0-0.6","5efd2964d36f63162f263795","650c16f0f2faf8d7a0d14c09","651c1add79d600d539e23bde","null","null","<p style=""font-size: 60px; font-family: BACS"">OQarQYZJO</p>","","","","","","","","",""
"html-keyboard-response","177","438013","0.0-12.0-0.7","5efd2964d36f63162f263795","650c16f0f2faf8d7a0d14c09","651c1add79d600d539e23bde","null","null","<p style=""font-size: 60px; font-family: BACS"">DBklTRkY</p>","","","","","","","","",""
"html-keyboard-response","178","439027","0.0-12.0-0.8","5efd2964d36f63162f263795","650c16f0f2faf8d7a0d14c09","651c1add79d600d539e23bde","null","null","<p style=""font-size: 60px; font-family: BACS"">AlQaQmLJ</p>","","","","","","","","",""
"html-keyboard-response","179","440042","0.0-12.0-0.9","5efd2964d36f63162f263795","650c16f0f2faf8d7a0d14c09","651c1add79d600d539e23bde","null","null","<p style=""font-size: 60px; font-family: BACS"">BlmclkKE</p>","","","","","","","","",""
"html-keyboard-response","180","441047","0.0-12.0-0.10","5efd2964d36f63162f263795","650c16f0f2faf8d7a0d14c09","651c1add79d600d539e23bde","null","null","<p style=""font-size: 60px; font-family: BACS"">AlQaQuUY</p>","","","","","","","","",""
"html-keyboard-response","181","442061","0.0-12.0-0.11","5efd2964d36f63162f263795","650c16f0f2faf8d7a0d14c09","651c1add79d600d539e23bde","null","null","<p style=""font-size: 60px; font-family: BACS"">PEtEMCkm</p>","","","","","","","","",""
"html-keyboard-response","182","443072","0.0-12.0-0.12","5efd2964d36f63162f263795","650c16f0f2faf8d7a0d14c09","651c1add79d600d539e23bde","null","null","<p style=""font-size: 60px; font-family: BACS"">QcladYZJO</p>","","","","","","","","",""
"html-keyboard-response","183","444087","0.0-12.0-0.13","5efd2964d36f63162f263795","650c16f0f2faf8d7a0d14c09","651c1add79d600d539e23bde","null","null","<p style=""font-size: 60px; font-family: BACS"">kNuauUY</p>","","","","","","","","",""
"html-keyboard-response","184","445099","0.0-12.0-0.14","5efd2964d36f63162f263795","650c16f0f2faf8d7a0d14c09","651c1add79d600d539e23bde","null","null","<p style=""font-size: 60px; font-family: BACS"">OAmGrYZJO</p>","","","","","","","","",""
"html-keyboard-response","185","446107","0.0-12.0-0.15","5efd2964d36f63162f263795","650c16f0f2faf8d7a0d14c09","651c1add79d600d539e23bde","null","null","<p style=""font-size: 60px; font-family: BACS"">PEtETRkY</p>","","","","","","","","",""
"html-keyboard-response","186","447121","0.0-12.0-0.16","5efd2964d36f63162f263795","650c16f0f2faf8d7a0d14c09","651c1add79d600d539e23bde","null","null","<p style=""font-size: 60px; font-family: BACS"">ZcGdNcYUv</p>","","","","","","","","",""
"html-keyboard-response","187","448124","0.0-12.0-0.17","5efd2964d36f63162f263795","650c16f0f2faf8d7a0d14c09","651c1add79d600d539e23bde","null","null","<p style=""font-size: 60px; font-family: BACS"">TdTDkMEC</p>","","","","","","","","",""
"html-keyboard-response","188","449135","0.0-12.0-0.18","5efd2964d36f63162f263795","650c16f0f2faf8d7a0d14c09","651c1add79d600d539e23bde","null","null","<p style=""font-size: 60px; font-family: BACS"">OAmGrmLJ</p>","","","","","","","","",""
"html-keyboard-response","189","450149","0.0-12.0-0.19","5efd2964d36f63162f263795","650c16f0f2faf8d7a0d14c09","651c1add79d600d539e23bde","null","null","<p style=""font-size: 60px; font-family: BACS"">ZcGdNYZJO</p>","","","","","","","","",""
"html-keyboard-response","190","451153","0.0-12.0-0.20","5efd2964d36f63162f263795","650c16f0f2faf8d7a0d14c09","651c1add79d600d539e23bde","null","null","<p style=""font-size: 60px; font-family: BACS"">ZdNmUuUY</p>","","","","","","","","",""
"html-keyboard-response","191","452164","0.0-12.0-0.21","5efd2964d36f63162f263795","650c16f0f2faf8d7a0d14c09","651c1add79d600d539e23bde","null","null","<p style=""font-size: 60px; font-family: BACS"">OAmGrJUG</p>","","","","","","","","",""
"html-keyboard-response","192","453167","0.0-12.0-0.22","5efd2964d36f63162f263795","650c16f0f2faf8d7a0d14c09","651c1add79d600d539e23bde","null","null","<p style=""font-size: 60px; font-family: BACS"">JZOAkcYUv</p>","","","","","","","","",""
"html-keyboard-response","193","454169","0.0-12.0-0.23","5efd2964d36f63162f263795","650c16f0f2faf8d7a0d14c09","651c1add79d600d539e23bde","null","null","<p style=""font-size: 60px; font-family: BACS"">laYmrmLJ</p>","","","","","","","","",""
"html-keyboard-response","194","455183","0.0-12.0-0.24","5efd2964d36f63162f263795","650c16f0f2faf8d7a0d14c09","651c1add79d600d539e23bde","null","null","<p style=""font-size: 60px; font-family: BACS"">OQarQuUY</p>","","","","","","","","",""
"html-keyboard-response","195","456198","0.0-12.0-0.25","5efd2964d36f63162f263795","650c16f0f2faf8d7a0d14c09","651c1add79d600d539e23bde","null","null","<p style=""font-size: 60px; font-family: BACS"">QcladcYUv</p>","","","","","","","","",""
"html-keyboard-response","196","457202","0.0-12.0-0.26","5efd2964d36f63162f263795","650c16f0f2faf8d7a0d14c09","651c1add79d600d539e23bde","null","null","<p style=""font-size: 60px; font-family: BACS"">kCRmTRkY</p>","","","","","","","","",""
"html-keyboard-response","197","458212","0.0-12.0-0.27","5efd2964d36f63162f263795","650c16f0f2faf8d7a0d14c09","651c1add79d600d539e23bde","null","null","<p style=""font-size: 60px; font-family: BACS"">laYmrYZJO</p>","","","","","","","","",""
"html-keyboard-response","198","459227","0.0-12.0-0.28","5efd2964d36f63162f263795","650c16f0f2faf8d7a0d14c09","651c1add79d600d539e23bde","null","null","<p style=""font-size: 60px; font-family: BACS"">QcladmLJ</p>","","","","","","","","",""
"html-keyboard-response","199","460243","0.0-12.0-0.29","5efd2964d36f63162f263795","650c16f0f2faf8d7a0d14c09","651c1add79d600d539e23bde","null","null","<p style=""font-size: 60px; font-family: BACS"">PEtEkMEC</p>","","","","","","","","",""
"html-keyboard-response","200","461256","0.0-12.0-0.30","5efd2964d36f63162f263795","650c16f0f2faf8d7a0d14c09","651c1add79d600d539e23bde","null","null","<p style=""font-size: 60px; font-family: BACS"">GumLlYZJO</p>","","","","","","","","",""
"html-keyboard-response","201","462264","0.0-12.0-0.31","5efd2964d36f63162f263795","650c16f0f2faf8d7a0d14c09","651c1add79d600d539e23bde","null","null","<p style=""font-size: 60px; font-family: BACS"">lBlEkMEC</p>","","","","","","","","",""
"html-keyboard-response","202","463279","0.0-12.0-0.32","5efd2964d36f63162f263795","650c16f0f2faf8d7a0d14c09","651c1add79d600d539e23bde","null","null","<p style=""font-size: 60px; font-family: BACS"">lCbcmMCkm</p>","","","","","","","","",""
"html-keyboard-response","203","464291","0.0-12.0-0.33","5efd2964d36f63162f263795","650c16f0f2faf8d7a0d14c09","651c1add79d600d539e23bde","null","null","<p style=""font-size: 60px; font-family: BACS"">QcladuUY</p>","","","","","","","","",""
"html-keyboard-response","204","465296","0.0-12.0-0.34","5efd2964d36f63162f263795","650c16f0f2faf8d7a0d14c09","651c1add79d600d539e23bde","null","null","<p style=""font-size: 60px; font-family: BACS"">BlmclTRkY</p>","","","","","","","","",""
"html-keyboard-response","205","466311","0.0-12.0-0.35","5efd2964d36f63162f263795","650c16f0f2faf8d7a0d14c09","651c1add79d600d539e23bde","null","null","<p style=""font-size: 60px; font-family: BACS"">kcdOtYBO</p>","","","","","","","","",""
"html-keyboard-response","206","467323","0.0-12.0-0.36","5efd2964d36f63162f263795","650c16f0f2faf8d7a0d14c09","651c1add79d600d539e23bde","null","null","<p style=""font-size: 60px; font-family: BACS"">GumLluUY</p>","","","","","","","","",""
"html-keyboard-response","207","468327","0.0-12.0-0.37","5efd2964d36f63162f263795","650c16f0f2faf8d7a0d14c09","651c1add79d600d539e23bde","null","null","<p style=""font-size: 60px; font-family: BACS"">kcdOtkKE</p>","","","","","","","","",""
"html-keyboard-response","208","469341","0.0-12.0-0.38","5efd2964d36f63162f263795","650c16f0f2faf8d7a0d14c09","651c1add79d600d539e23bde","null","null","<p style=""font-size: 60px; font-family: BACS"">lBlEYBO</p>","","","","","","","","",""
"html-keyboard-response","209","470358","0.0-12.0-0.39","5efd2964d36f63162f263795","650c16f0f2faf8d7a0d14c09","651c1add79d600d539e23bde","null","null","<p style=""font-size: 60px; font-family: BACS"">GumLlJUG</p>","","","","","","","","",""
"html-keyboard-response","210","471374","0.0-12.0-0.40","5efd2964d36f63162f263795","650c16f0f2faf8d7a0d14c09","651c1add79d600d539e23bde","null","null","<p style=""font-size: 60px; font-family: BACS"">OAmGrcYUv</p>","","","","","","","","",""
"html-keyboard-response","211","472387","0.0-12.0-0.41","5efd2964d36f63162f263795","650c16f0f2faf8d7a0d14c09","651c1add79d600d539e23bde","null","null","<p style=""font-size: 60px; font-family: BACS"">JZOAkJUG</p>","","","","","","","","",""
"html-keyboard-response","212","473388","0.0-12.0-0.42","5efd2964d36f63162f263795","650c16f0f2faf8d7a0d14c09","651c1add79d600d539e23bde","null","null","<p style=""font-size: 60px; font-family: BACS"">BlmclYBO</p>","","","","","","","","",""
"html-keyboard-response","213","474404","0.0-12.0-0.43","5efd2964d36f63162f263795","650c16f0f2faf8d7a0d14c09","651c1add79d600d539e23bde","null","null","<p style=""font-size: 60px; font-family: BACS"">EltMBTRkY</p>","","","","","","","","",""
"html-keyboard-response","214","475419","0.0-12.0-0.44","5efd2964d36f63162f263795","650c16f0f2faf8d7a0d14c09","651c1add79d600d539e23bde","null","null","<p style=""font-size: 60px; font-family: BACS"">DBklkMEC</p>","","","","","","","","",""
"html-keyboard-response","215","476435","0.0-12.0-0.45","5efd2964d36f63162f263795","650c16f0f2faf8d7a0d14c09","651c1add79d600d539e23bde","null","null","<p style=""font-size: 60px; font-family: BACS"">kcdOtMCkm</p>","","","","","","","","",""
"html-keyboard-response","216","477450","0.0-12.0-0.46","5efd2964d36f63162f263795","650c16f0f2faf8d7a0d14c09","651c1add79d600d539e23bde","null","null","<p style=""font-size: 60px; font-family: BACS"">AlQaQYZJO</p>","","","","","","","","",""
"html-keyboard-response","217","478465","0.0-12.0-0.47","5efd2964d36f63162f263795","650c16f0f2faf8d7a0d14c09","651c1add79d600d539e23bde","null","null","<p style=""font-size: 60px; font-family: BACS"">ZdNmUcYUv</p>","","","","","","","","",""
"html-keyboard-response","218","479467","0.0-12.0-0.48","5efd2964d36f63162f263795","650c16f0f2faf8d7a0d14c09","651c1add79d600d539e23bde","null","null","<p style=""font-size: 60px; font-family: BACS"">kCRmkMEC</p>","","","","","","","","",""
"html-keyboard-response","219","480482","0.0-12.0-0.49","5efd2964d36f63162f263795","650c16f0f2faf8d7a0d14c09","651c1add79d600d539e23bde","null","null","<p style=""font-size: 60px; font-family: BACS"">kNuaYZJO</p>","","","","","","","","",""
"html-keyboard-response","220","481496","0.0-12.0-0.50","5efd2964d36f63162f263795","650c16f0f2faf8d7a0d14c09","651c1add79d600d539e23bde","null","null","<p style=""font-size: 60px; font-family: BACS"">laYmrcYUv</p>","","","","","","","","",""
"html-keyboard-response","221","482500","0.0-12.0-0.51","5efd2964d36f63162f263795","650c16f0f2faf8d7a0d14c09","651c1add79d600d539e23bde","null","null","<p style=""font-size: 60px; font-family: BACS"">BlmclkMEC</p>","","","","","","","","",""
"html-keyboard-response","222","483508","0.0-12.0-0.52","5efd2964d36f63162f263795","650c16f0f2faf8d7a0d14c09","651c1add79d600d539e23bde","null","null","<p style=""font-size: 60px; font-family: BACS"">lBlEkKE</p>","","","","","","","","",""
"html-keyboard-response","223","484523","0.0-12.0-0.53","5efd2964d36f63162f263795","650c16f0f2faf8d7a0d14c09","651c1add79d600d539e23bde","null","null","<p style=""font-size: 60px; font-family: BACS"">RYtkcMCkm</p>","","","","","","","","",""
"html-keyboard-response","224","485529","0.0-12.0-0.54","5efd2964d36f63162f263795","650c16f0f2faf8d7a0d14c09","651c1add79d600d539e23bde","null","null","<p style=""font-size: 60px; font-family: BACS"">EltMBYBO</p>","","","","","","","","",""
"html-keyboard-response","225","486544","0.0-12.0-0.55","5efd2964d36f63162f263795","650c16f0f2faf8d7a0d14c09","651c1add79d600d539e23bde","null","null","<p style=""font-size: 60px; font-family: BACS"">TdTDkKE</p>","","","","","","","","",""
"html-keyboard-response","226","487558","0.0-12.0-0.56","5efd2964d36f63162f263795","650c16f0f2faf8d7a0d14c09","651c1add79d600d539e23bde","null","null","<p style=""font-size: 60px; font-family: BACS"">ZdNmUmLJ</p>","","","","","","","","",""
"html-keyboard-response","227","488573","0.0-12.0-0.57","5efd2964d36f63162f263795","650c16f0f2faf8d7a0d14c09","651c1add79d600d539e23bde","null","null","<p style=""font-size: 60px; font-family: BACS"">TdTDYBO</p>","","","","","","","","",""
"html-keyboard-response","228","489584","0.0-12.0-0.58","5efd2964d36f63162f263795","650c16f0f2faf8d7a0d14c09","651c1add79d600d539e23bde","null","null","<p style=""font-size: 60px; font-family: BACS"">DBklMCkm</p>","","","","","","","","",""
"html-keyboard-response","229","490595","0.0-12.0-0.59","5efd2964d36f63162f263795","650c16f0f2faf8d7a0d14c09","651c1add79d600d539e23bde","null","null","<p style=""font-size: 60px; font-family: BACS"">JZOAkmLJ</p>","","","","","","","","",""
"html-keyboard-response","230","491607","0.0-12.0-0.60","5efd2964d36f63162f263795","650c16f0f2faf8d7a0d14c09","651c1add79d600d539e23bde","null","null","<p style=""font-size: 60px; font-family: BACS"">kcdOtTRkY</p>","","","","","","","","",""
"html-keyboard-response","231","492609","0.0-12.0-0.61","5efd2964d36f63162f263795","650c16f0f2faf8d7a0d14c09","651c1add79d600d539e23bde","null","null","<p style=""font-size: 60px; font-family: BACS"">ZdNmUJUG</p>","","","","","","","","",""
"html-keyboard-response","232","493618","0.0-12.0-0.62","5efd2964d36f63162f263795","650c16f0f2faf8d7a0d14c09","651c1add79d600d539e23bde","null","null","<p style=""font-size: 60px; font-family: BACS"">kNuamLJ</p>","","","","","","","","",""
"html-keyboard-response","233","494634","0.0-12.0-0.63","5efd2964d36f63162f263795","650c16f0f2faf8d7a0d14c09","651c1add79d600d539e23bde","null","null","<p style=""font-size: 60px; font-family: BACS"">lBlEMCkm</p>","","","","","","","","",""
"html-keyboard-response","234","495646","0.0-12.0-0.64","5efd2964d36f63162f263795","650c16f0f2faf8d7a0d14c09","651c1add79d600d539e23bde","null","null","<p style=""font-size: 60px; font-family: BACS"">lCbcmkKE</p>","","","","","","","","",""
"html-keyboard-response","235","496655","0.0-12.0-0.65","5efd2964d36f63162f263795","650c16f0f2faf8d7a0d14c09","651c1add79d600d539e23bde","null","null","<p style=""font-size: 60px; font-family: BACS"">laYmrJUG</p>","","","","","","","","",""
"html-keyboard-response","236","497670","0.0-12.0-0.66","5efd2964d36f63162f263795","650c16f0f2faf8d7a0d14c09","651c1add79d600d539e23bde","null","null","<p style=""font-size: 60px; font-family: BACS"">EltMBMCkm</p>","","","","","","","","",""
"html-keyboard-response","237","498686","0.0-12.0-0.67","5efd2964d36f63162f263795","650c16f0f2faf8d7a0d14c09","651c1add79d600d539e23bde","null","null","<p style=""font-size: 60px; font-family: BACS"">RYtkckKE</p>","","","","","","","","",""
"html-keyboard-response","238","499694","0.0-12.0-0.68","5efd2964d36f63162f263795","650c16f0f2faf8d7a0d14c09","651c1add79d600d539e23bde","null","null","<p style=""font-size: 60px; font-family: BACS"">EltMBkMEC</p>","","","","","","","","",""
"html-keyboard-response","239","500699","0.0-12.0-0.69","5efd2964d36f63162f263795","650c16f0f2faf8d7a0d14c09","651c1add79d600d539e23bde","null","null","<p style=""font-size: 60px; font-family: BACS"">RYtkcTRkY</p>","","","","","","","","",""
"html-keyboard-response","240","501713","0.0-12.0-0.70","5efd2964d36f63162f263795","650c16f0f2faf8d7a0d14c09","651c1add79d600d539e23bde","null","null","<p style=""font-size: 60px; font-family: BACS"">kCRmkKE</p>","","","","","","","","",""
"html-keyboard-response","241","502717","0.0-12.0-0.71","5efd2964d36f63162f263795","650c16f0f2faf8d7a0d14c09","651c1add79d600d539e23bde","null","null","<p style=""font-size: 60px; font-family: BACS"">ZcGdNJUG</p>","","","","","","","","",""
"html-keyboard-response","242","503731","0.0-12.0-0.72","5efd2964d36f63162f263795","650c16f0f2faf8d7a0d14c09","651c1add79d600d539e23bde","null","null","<p style=""font-size: 60px; font-family: BACS"">kCRmMCkm</p>","","","","","","","","",""
"html-keyboard-response","243","504743","0.0-12.0-0.73","5efd2964d36f63162f263795","650c16f0f2faf8d7a0d14c09","651c1add79d600d539e23bde","null","null","<p style=""font-size: 60px; font-family: BACS"">TdTDTRkY</p>","","","","","","","","",""
"html-keyboard-response","244","505756","0.0-12.0-0.74","5efd2964d36f63162f263795","650c16f0f2faf8d7a0d14c09","651c1add79d600d539e23bde","null","null","<p style=""font-size: 60px; font-family: BACS"">DBklYBO</p>","","","","","","","","",""
"html-keyboard-response","245","506764","0.0-12.0-0.75","5efd2964d36f63162f263795","650c16f0f2faf8d7a0d14c09","651c1add79d600d539e23bde","null","null","<p style=""font-size: 60px; font-family: BACS"">OQarQcYUv</p>","","","","","","","","",""
"html-keyboard-response","246","507778","0.0-12.0-0.76","5efd2964d36f63162f263795","650c16f0f2faf8d7a0d14c09","651c1add79d600d539e23bde","null","null","<p style=""font-size: 60px; font-family: BACS"">lCbcmYBO</p>","","","","","","","","",""
"html-keyboard-response","247","508781","0.0-12.0-0.77","5efd2964d36f63162f263795","650c16f0f2faf8d7a0d14c09","651c1add79d600d539e23bde","null","null","<p style=""font-size: 60px; font-family: BACS"">GumLlmLJ</p>","","","","","","","","",""
"html-keyboard-response","248","509795","0.0-12.0-0.78","5efd2964d36f63162f263795","650c16f0f2faf8d7a0d14c09","651c1add79d600d539e23bde","null","null","<p style=""font-size: 60px; font-family: BACS"">OQarQJUG</p>","","","","","","","","",""
"html-keyboard-response","249","510808","0.0-12.0-0.79","5efd2964d36f63162f263795","650c16f0f2faf8d7a0d14c09","651c1add79d600d539e23bde","null","null","<p style=""font-size: 60px; font-family: BACS"">JZOAkuUY</p>","","","","","","","","",""
"html-keyboard-response","250","512430","0.0-13.0","5efd2964d36f63162f263795","650c16f0f2faf8d7a0d14c09","651c1add79d600d539e23bde","1622"," ","<p>Great, you've seen the third block of words. You may now take a short break.</p>
      <p>Press the spacebar when you're ready to continue.</p>","","","","","","","","",""
"html-keyboard-response","251","513434","0.0-14.0-0.0","5efd2964d36f63162f263795","650c16f0f2faf8d7a0d14c09","651c1add79d600d539e23bde","null","null","<p style=""font-size: 60px; font-family: BACS"">OAmGrcYUv</p>","","","","","","","","",""
"html-keyboard-response","252","514435","0.0-14.0-0.1","5efd2964d36f63162f263795","650c16f0f2faf8d7a0d14c09","651c1add79d600d539e23bde","null","null","<p style=""font-size: 60px; font-family: BACS"">lCbcmkMEC</p>","","","","","","","","",""
"html-keyboard-response","253","515450","0.0-14.0-0.2","5efd2964d36f63162f263795","650c16f0f2faf8d7a0d14c09","651c1add79d600d539e23bde","null","null","<p style=""font-size: 60px; font-family: BACS"">GumLlmLJ</p>","","","","","","","","",""
"html-keyboard-response","254","516451","0.0-14.0-0.3","5efd2964d36f63162f263795","650c16f0f2faf8d7a0d14c09","651c1add79d600d539e23bde","null","null","<p style=""font-size: 60px; font-family: BACS"">kcdOtTRkY</p>","","","","","","","","",""
"html-keyboard-response","255","517464","0.0-14.0-0.4","5efd2964d36f63162f263795","650c16f0f2faf8d7a0d14c09","651c1add79d600d539e23bde","null","null","<p style=""font-size: 60px; font-family: BACS"">QcladYZJO</p>","","","","","","","","",""
"html-keyboard-response","256","518475","0.0-14.0-0.5","5efd2964d36f63162f263795","650c16f0f2faf8d7a0d14c09","651c1add79d600d539e23bde","null","null","<p style=""font-size: 60px; font-family: BACS"">JZOAkuUY</p>","","","","","","","","",""
"html-keyboard-response","257","519480","0.0-14.0-0.6","5efd2964d36f63162f263795","650c16f0f2faf8d7a0d14c09","651c1add79d600d539e23bde","null","null","<p style=""font-size: 60px; font-family: BACS"">AlQaQYZJO</p>","","","","","","","","",""
"html-keyboard-response","258","520494","0.0-14.0-0.7","5efd2964d36f63162f263795","650c16f0f2faf8d7a0d14c09","651c1add79d600d539e23bde","null","null","<p style=""font-size: 60px; font-family: BACS"">lCbcmkKE</p>","","","","","","","","",""
"html-keyboard-response","259","521509","0.0-14.0-0.8","5efd2964d36f63162f263795","650c16f0f2faf8d7a0d14c09","651c1add79d600d539e23bde","null","null","<p style=""font-size: 60px; font-family: BACS"">laYmrJUG</p>","","","","","","","","",""
"html-keyboard-response","260","522512","0.0-14.0-0.9","5efd2964d36f63162f263795","650c16f0f2faf8d7a0d14c09","651c1add79d600d539e23bde","null","null","<p style=""font-size: 60px; font-family: BACS"">lBlEMCkm</p>","","","","","","","","",""
"html-keyboard-response","261","523527","0.0-14.0-0.10","5efd2964d36f63162f263795","650c16f0f2faf8d7a0d14c09","651c1add79d600d539e23bde","null","null","<p style=""font-size: 60px; font-family: BACS"">TdTDkKE</p>","","","","","","","","",""
"html-keyboard-response","262","524542","0.0-14.0-0.11","5efd2964d36f63162f263795","650c16f0f2faf8d7a0d14c09","651c1add79d600d539e23bde","null","null","<p style=""font-size: 60px; font-family: BACS"">ZcGdNJUG</p>","","","","","","","","",""
"html-keyboard-response","263","525545","0.0-14.0-0.12","5efd2964d36f63162f263795","650c16f0f2faf8d7a0d14c09","651c1add79d600d539e23bde","null","null","<p style=""font-size: 60px; font-family: BACS"">laYmrYZJO</p>","","","","","","","","",""
"html-keyboard-response","264","526558","0.0-14.0-0.13","5efd2964d36f63162f263795","650c16f0f2faf8d7a0d14c09","651c1add79d600d539e23bde","null","null","<p style=""font-size: 60px; font-family: BACS"">EltMBMCkm</p>","","","","","","","","",""
"html-keyboard-response","265","527573","0.0-14.0-0.14","5efd2964d36f63162f263795","650c16f0f2faf8d7a0d14c09","651c1add79d600d539e23bde","null","null","<p style=""font-size: 60px; font-family: BACS"">JZOAkJUG</p>","","","","","","","","",""
"html-keyboard-response","266","528573","0.0-14.0-0.15","5efd2964d36f63162f263795","650c16f0f2faf8d7a0d14c09","651c1add79d600d539e23bde","null","null","<p style=""font-size: 60px; font-family: BACS"">AlQaQuUY</p>","","","","","","","","",""
"html-keyboard-response","267","529587","0.0-14.0-0.16","5efd2964d36f63162f263795","650c16f0f2faf8d7a0d14c09","651c1add79d600d539e23bde","null","null","<p style=""font-size: 60px; font-family: BACS"">GumLlJUG</p>","","","","","","","","",""
"html-keyboard-response","268","530593","0.0-14.0-0.17","5efd2964d36f63162f263795","650c16f0f2faf8d7a0d14c09","651c1add79d600d539e23bde","null","null","<p style=""font-size: 60px; font-family: BACS"">kcdOtMCkm</p>","","","","","","","","",""
"html-keyboard-response","269","531607","0.0-14.0-0.18","5efd2964d36f63162f263795","650c16f0f2faf8d7a0d14c09","651c1add79d600d539e23bde","null","null","<p style=""font-size: 60px; font-family: BACS"">ZcGdNYZJO</p>","","","","","","","","",""
"html-keyboard-response","270","532623","0.0-14.0-0.19","5efd2964d36f63162f263795","650c16f0f2faf8d7a0d14c09","651c1add79d600d539e23bde","null","null","<p style=""font-size: 60px; font-family: BACS"">ZdNmUuUY</p>","","","","","","","","",""
"html-keyboard-response","271","533635","0.0-14.0-0.20","5efd2964d36f63162f263795","650c16f0f2faf8d7a0d14c09","651c1add79d600d539e23bde","null","null","<p style=""font-size: 60px; font-family: BACS"">PEtETRkY</p>","","","","","","","","",""
"html-keyboard-response","272","534650","0.0-14.0-0.21","5efd2964d36f63162f263795","650c16f0f2faf8d7a0d14c09","651c1add79d600d539e23bde","null","null","<p style=""font-size: 60px; font-family: BACS"">OAmGrmLJ</p>","","","","","","","","",""
"html-keyboard-response","273","535665","0.0-14.0-0.22","5efd2964d36f63162f263795","650c16f0f2faf8d7a0d14c09","651c1add79d600d539e23bde","null","null","<p style=""font-size: 60px; font-family: BACS"">RYtkcMCkm</p>","","","","","","","","",""
"html-keyboard-response","274","536680","0.0-14.0-0.23","5efd2964d36f63162f263795","650c16f0f2faf8d7a0d14c09","651c1add79d600d539e23bde","null","null","<p style=""font-size: 60px; font-family: BACS"">kNuaYZJO</p>","","","","","","","","",""
"html-keyboard-response","275","537685","0.0-14.0-0.24","5efd2964d36f63162f263795","650c16f0f2faf8d7a0d14c09","651c1add79d600d539e23bde","null","null","<p style=""font-size: 60px; font-family: BACS"">RYtkcTRkY</p>","","","","","","","","",""
"html-keyboard-response","276","538686","0.0-14.0-0.25","5efd2964d36f63162f263795","650c16f0f2faf8d7a0d14c09","651c1add79d600d539e23bde","null","null","<p style=""font-size: 60px; font-family: BACS"">kcdOtkKE</p>","","","","","","","","",""
"html-keyboard-response","277","539698","0.0-14.0-0.26","5efd2964d36f63162f263795","650c16f0f2faf8d7a0d14c09","651c1add79d600d539e23bde","null","null","<p style=""font-size: 60px; font-family: BACS"">ZcGdNuUY</p>","","","","","","","","",""
"html-keyboard-response","278","540714","0.0-14.0-0.27","5efd2964d36f63162f263795","650c16f0f2faf8d7a0d14c09","651c1add79d600d539e23bde","null","null","<p style=""font-size: 60px; font-family: BACS"">kCRmMCkm</p>","","","","","","","","",""
"html-keyboard-response","279","541718","0.0-14.0-0.28","5efd2964d36f63162f263795","650c16f0f2faf8d7a0d14c09","651c1add79d600d539e23bde","null","null","<p style=""font-size: 60px; font-family: BACS"">BlmclYBO</p>","","","","","","","","",""
"html-keyboard-response","280","542733","0.0-14.0-0.29","5efd2964d36f63162f263795","650c16f0f2faf8d7a0d14c09","651c1add79d600d539e23bde","null","null","<p style=""font-size: 60px; font-family: BACS"">QcladcYUv</p>","","","","","","","","",""
"html-keyboard-response","281","543748","0.0-14.0-0.30","5efd2964d36f63162f263795","650c16f0f2faf8d7a0d14c09","651c1add79d600d539e23bde","null","null","<p style=""font-size: 60px; font-family: BACS"">DBklMCkm</p>","","","","","","","","",""
"html-keyboard-response","282","544762","0.0-14.0-0.31","5efd2964d36f63162f263795","650c16f0f2faf8d7a0d14c09","651c1add79d600d539e23bde","null","null","<p style=""font-size: 60px; font-family: BACS"">JZOAkcYUv</p>","","","","","","","","",""
"html-keyboard-response","283","545775","0.0-14.0-0.32","5efd2964d36f63162f263795","650c16f0f2faf8d7a0d14c09","651c1add79d600d539e23bde","null","null","<p style=""font-size: 60px; font-family: BACS"">BlmclkMEC</p>","","","","","","","","",""
"html-keyboard-response","284","546778","0.0-14.0-0.33","5efd2964d36f63162f263795","650c16f0f2faf8d7a0d14c09","651c1add79d600d539e23bde","null","null","<p style=""font-size: 60px; font-family: BACS"">OAmGrYZJO</p>","","","","","","","","",""
"html-keyboard-response","285","547793","0.0-14.0-0.34","5efd2964d36f63162f263795","650c16f0f2faf8d7a0d14c09","651c1add79d600d539e23bde","null","null","<p style=""font-size: 60px; font-family: BACS"">QcladmLJ</p>","","","","","","","","",""
"html-keyboard-response","286","548808","0.0-14.0-0.35","5efd2964d36f63162f263795","650c16f0f2faf8d7a0d14c09","651c1add79d600d539e23bde","null","null","<p style=""font-size: 60px; font-family: BACS"">EltMBTRkY</p>","","","","","","","","",""
"html-keyboard-response","287","549820","0.0-14.0-0.36","5efd2964d36f63162f263795","650c16f0f2faf8d7a0d14c09","651c1add79d600d539e23bde","null","null","<p style=""font-size: 60px; font-family: BACS"">kNuacYUv</p>","","","","","","","","",""
"html-keyboard-response","288","550833","0.0-14.0-0.37","5efd2964d36f63162f263795","650c16f0f2faf8d7a0d14c09","651c1add79d600d539e23bde","null","null","<p style=""font-size: 60px; font-family: BACS"">kcdOtYBO</p>","","","","","","","","",""
"html-keyboard-response","289","551842","0.0-14.0-0.38","5efd2964d36f63162f263795","650c16f0f2faf8d7a0d14c09","651c1add79d600d539e23bde","null","null","<p style=""font-size: 60px; font-family: BACS"">OAmGrJUG</p>","","","","","","","","",""
"html-keyboard-response","290","552858","0.0-14.0-0.39","5efd2964d36f63162f263795","650c16f0f2faf8d7a0d14c09","651c1add79d600d539e23bde","null","null","<p style=""font-size: 60px; font-family: BACS"">kNuamLJ</p>","","","","","","","","",""
"html-keyboard-response","291","553870","0.0-14.0-0.40","5efd2964d36f63162f263795","650c16f0f2faf8d7a0d14c09","651c1add79d600d539e23bde","null","null","<p style=""font-size: 60px; font-family: BACS"">DBklkMEC</p>","","","","","","","","",""
"html-keyboard-response","292","554885","0.0-14.0-0.41","5efd2964d36f63162f263795","650c16f0f2faf8d7a0d14c09","651c1add79d600d539e23bde","null","null","<p style=""font-size: 60px; font-family: BACS"">kNuauUY</p>","","","","","","","","",""
"html-keyboard-response","293","555891","0.0-14.0-0.42","5efd2964d36f63162f263795","650c16f0f2faf8d7a0d14c09","651c1add79d600d539e23bde","null","null","<p style=""font-size: 60px; font-family: BACS"">TdTDTRkY</p>","","","","","","","","",""
"html-keyboard-response","294","556904","0.0-14.0-0.43","5efd2964d36f63162f263795","650c16f0f2faf8d7a0d14c09","651c1add79d600d539e23bde","null","null","<p style=""font-size: 60px; font-family: BACS"">AlQaQmLJ</p>","","","","","","","","",""
"html-keyboard-response","295","557914","0.0-14.0-0.44","5efd2964d36f63162f263795","650c16f0f2faf8d7a0d14c09","651c1add79d600d539e23bde","null","null","<p style=""font-size: 60px; font-family: BACS"">OQarQYZJO</p>","","","","","","","","",""
"html-keyboard-response","296","558929","0.0-14.0-0.45","5efd2964d36f63162f263795","650c16f0f2faf8d7a0d14c09","651c1add79d600d539e23bde","null","null","<p style=""font-size: 60px; font-family: BACS"">JZOAkmLJ</p>","","","","","","","","",""
"html-keyboard-response","297","559936","0.0-14.0-0.46","5efd2964d36f63162f263795","650c16f0f2faf8d7a0d14c09","651c1add79d600d539e23bde","null","null","<p style=""font-size: 60px; font-family: BACS"">DBklYBO</p>","","","","","","","","",""
"html-keyboard-response","298","560950","0.0-14.0-0.47","5efd2964d36f63162f263795","650c16f0f2faf8d7a0d14c09","651c1add79d600d539e23bde","null","null","<p style=""font-size: 60px; font-family: BACS"">kCRmkMEC</p>","","","","","","","","",""
"html-keyboard-response","299","561966","0.0-14.0-0.48","5efd2964d36f63162f263795","650c16f0f2faf8d7a0d14c09","651c1add79d600d539e23bde","null","null","<p style=""font-size: 60px; font-family: BACS"">GumLlYZJO</p>","","","","","","","","",""
"html-keyboard-response","300","562982","0.0-14.0-0.49","5efd2964d36f63162f263795","650c16f0f2faf8d7a0d14c09","651c1add79d600d539e23bde","null","null","<p style=""font-size: 60px; font-family: BACS"">lBlEYBO</p>","","","","","","","","",""
"html-keyboard-response","301","563995","0.0-14.0-0.50","5efd2964d36f63162f263795","650c16f0f2faf8d7a0d14c09","651c1add79d600d539e23bde","null","null","<p style=""font-size: 60px; font-family: BACS"">RYtkckKE</p>","","","","","","","","",""
"html-keyboard-response","302","565010","0.0-14.0-0.51","5efd2964d36f63162f263795","650c16f0f2faf8d7a0d14c09","651c1add79d600d539e23bde","null","null","<p style=""font-size: 60px; font-family: BACS"">EltMBkMEC</p>","","","","","","","","",""
"html-keyboard-response","303","566024","0.0-14.0-0.52","5efd2964d36f63162f263795","650c16f0f2faf8d7a0d14c09","651c1add79d600d539e23bde","null","null","<p style=""font-size: 60px; font-family: BACS"">BlmclTRkY</p>","","","","","","","","",""
"html-keyboard-response","304","567030","0.0-14.0-0.53","5efd2964d36f63162f263795","650c16f0f2faf8d7a0d14c09","651c1add79d600d539e23bde","null","null","<p style=""font-size: 60px; font-family: BACS"">PEtEkKE</p>","","","","","","","","",""
"html-keyboard-response","305","568043","0.0-14.0-0.54","5efd2964d36f63162f263795","650c16f0f2faf8d7a0d14c09","651c1add79d600d539e23bde","null","null","<p style=""font-size: 60px; font-family: BACS"">OQarQuUY</p>","","","","","","","","",""
"html-keyboard-response","306","569045","0.0-14.0-0.55","5efd2964d36f63162f263795","650c16f0f2faf8d7a0d14c09","651c1add79d600d539e23bde","null","null","<p style=""font-size: 60px; font-family: BACS"">ZdNmUcYUv</p>","","","","","","","","",""
"html-keyboard-response","307","570058","0.0-14.0-0.56","5efd2964d36f63162f263795","650c16f0f2faf8d7a0d14c09","651c1add79d600d539e23bde","null","null","<p style=""font-size: 60px; font-family: BACS"">BlmclkKE</p>","","","","","","","","",""
"html-keyboard-response","308","571061","0.0-14.0-0.57","5efd2964d36f63162f263795","650c16f0f2faf8d7a0d14c09","651c1add79d600d539e23bde","null","null","<p style=""font-size: 60px; font-family: BACS"">GumLluUY</p>","","","","","","","","",""
"html-keyboard-response","309","572077","0.0-14.0-0.58","5efd2964d36f63162f263795","650c16f0f2faf8d7a0d14c09","651c1add79d600d539e23bde","null","null","<p style=""font-size: 60px; font-family: BACS"">lCbcmMCkm</p>","","","","","","","","",""
"html-keyboard-response","310","573088","0.0-14.0-0.59","5efd2964d36f63162f263795","650c16f0f2faf8d7a0d14c09","651c1add79d600d539e23bde","null","null","<p style=""font-size: 60px; font-family: BACS"">OQarQJUG</p>","","","","","","","","",""
"html-keyboard-response","311","574092","0.0-14.0-0.60","5efd2964d36f63162f263795","650c16f0f2faf8d7a0d14c09","651c1add79d600d539e23bde","null","null","<p style=""font-size: 60px; font-family: BACS"">QcladuUY</p>","","","","","","","","",""
"html-keyboard-response","312","575106","0.0-14.0-0.61","5efd2964d36f63162f263795","650c16f0f2faf8d7a0d14c09","651c1add79d600d539e23bde","null","null","<p style=""font-size: 60px; font-family: BACS"">PEtEMCkm</p>","","","","","","","","",""
"html-keyboard-response","313","576107","0.0-14.0-0.62","5efd2964d36f63162f263795","650c16f0f2faf8d7a0d14c09","651c1add79d600d539e23bde","null","null","<p style=""font-size: 60px; font-family: BACS"">laYmrmLJ</p>","","","","","","","","",""
"html-keyboard-response","314","577110","0.0-14.0-0.63","5efd2964d36f63162f263795","650c16f0f2faf8d7a0d14c09","651c1add79d600d539e23bde","null","null","<p style=""font-size: 60px; font-family: BACS"">TdTDkMEC</p>","","","","","","","","",""
"html-keyboard-response","315","578120","0.0-14.0-0.64","5efd2964d36f63162f263795","650c16f0f2faf8d7a0d14c09","651c1add79d600d539e23bde","null","null","<p style=""font-size: 60px; font-family: BACS"">ZcGdNcYUv</p>","","","","","","","","",""
"html-keyboard-response","316","579135","0.0-14.0-0.65","5efd2964d36f63162f263795","650c16f0f2faf8d7a0d14c09","651c1add79d600d539e23bde","null","null","<p style=""font-size: 60px; font-family: BACS"">kCRmkKE</p>","","","","","","","","",""
"html-keyboard-response","317","580149","0.0-14.0-0.66","5efd2964d36f63162f263795","650c16f0f2faf8d7a0d14c09","651c1add79d600d539e23bde","null","null","<p style=""font-size: 60px; font-family: BACS"">ZdNmUmLJ</p>","","","","","","","","",""
"html-keyboard-response","318","581166","0.0-14.0-0.67","5efd2964d36f63162f263795","650c16f0f2faf8d7a0d14c09","651c1add79d600d539e23bde","null","null","<p style=""font-size: 60px; font-family: BACS"">lBlEkKE</p>","","","","","","","","",""
"html-keyboard-response","319","582170","0.0-14.0-0.68","5efd2964d36f63162f263795","650c16f0f2faf8d7a0d14c09","651c1add79d600d539e23bde","null","null","<p style=""font-size: 60px; font-family: BACS"">TdTDYBO</p>","","","","","","","","",""
"html-keyboard-response","320","583184","0.0-14.0-0.69","5efd2964d36f63162f263795","650c16f0f2faf8d7a0d14c09","651c1add79d600d539e23bde","null","null","<p style=""font-size: 60px; font-family: BACS"">ZdNmUJUG</p>","","","","","","","","",""
"html-keyboard-response","321","584198","0.0-14.0-0.70","5efd2964d36f63162f263795","650c16f0f2faf8d7a0d14c09","651c1add79d600d539e23bde","null","null","<p style=""font-size: 60px; font-family: BACS"">lBlEkMEC</p>","","","","","","","","",""
"html-keyboard-response","322","585201","0.0-14.0-0.71","5efd2964d36f63162f263795","650c16f0f2faf8d7a0d14c09","651c1add79d600d539e23bde","null","null","<p style=""font-size: 60px; font-family: BACS"">DBklTRkY</p>","","","","","","","","",""
"html-keyboard-response","323","586218","0.0-14.0-0.72","5efd2964d36f63162f263795","650c16f0f2faf8d7a0d14c09","651c1add79d600d539e23bde","null","null","<p style=""font-size: 60px; font-family: BACS"">EltMBYBO</p>","","","","","","","","",""
"html-keyboard-response","324","587229","0.0-14.0-0.73","5efd2964d36f63162f263795","650c16f0f2faf8d7a0d14c09","651c1add79d600d539e23bde","null","null","<p style=""font-size: 60px; font-family: BACS"">kCRmTRkY</p>","","","","","","","","",""
"html-keyboard-response","325","588232","0.0-14.0-0.74","5efd2964d36f63162f263795","650c16f0f2faf8d7a0d14c09","651c1add79d600d539e23bde","null","null","<p style=""font-size: 60px; font-family: BACS"">PEtEkMEC</p>","","","","","","","","",""
"html-keyboard-response","326","589247","0.0-14.0-0.75","5efd2964d36f63162f263795","650c16f0f2faf8d7a0d14c09","651c1add79d600d539e23bde","null","null","<p style=""font-size: 60px; font-family: BACS"">RYtkcYBO</p>","","","","","","","","",""
"html-keyboard-response","327","590259","0.0-14.0-0.76","5efd2964d36f63162f263795","650c16f0f2faf8d7a0d14c09","651c1add79d600d539e23bde","null","null","<p style=""font-size: 60px; font-family: BACS"">laYmrcYUv</p>","","","","","","","","",""
"html-keyboard-response","328","591273","0.0-14.0-0.77","5efd2964d36f63162f263795","650c16f0f2faf8d7a0d14c09","651c1add79d600d539e23bde","null","null","<p style=""font-size: 60px; font-family: BACS"">lCbcmYBO</p>","","","","","","","","",""
"html-keyboard-response","329","592281","0.0-14.0-0.78","5efd2964d36f63162f263795","650c16f0f2faf8d7a0d14c09","651c1add79d600d539e23bde","null","null","<p style=""font-size: 60px; font-family: BACS"">OQarQcYUv</p>","","","","","","","","",""
"html-keyboard-response","330","593295","0.0-14.0-0.79","5efd2964d36f63162f263795","650c16f0f2faf8d7a0d14c09","651c1add79d600d539e23bde","null","null","<p style=""font-size: 60px; font-family: BACS"">AlQaQJUG</p>","","","","","","","","",""
"html-keyboard-response","331","758238","0.0-15.0","5efd2964d36f63162f263795","650c16f0f2faf8d7a0d14c09","651c1add79d600d539e23bde","164943"," ","<p>Great, you've seen the fourth block of words. You may now take a short break.</p>
      <p>Press the spacebar when you're ready to continue.</p>","","","","","","","","",""
"html-keyboard-response","332","759247","0.0-16.0-0.0","5efd2964d36f63162f263795","650c16f0f2faf8d7a0d14c09","651c1add79d600d539e23bde","null","null","<p style=""font-size: 60px; font-family: BACS"">kcdOtMCkm</p>","","","","","","","","",""
"html-keyboard-response","333","760250","0.0-16.0-0.1","5efd2964d36f63162f263795","650c16f0f2faf8d7a0d14c09","651c1add79d600d539e23bde","null","null","<p style=""font-size: 60px; font-family: BACS"">kcdOtMCkm</p>","","","","","","","","",""
"html-keyboard-response","334","761262","0.0-16.0-0.2","5efd2964d36f63162f263795","650c16f0f2faf8d7a0d14c09","651c1add79d600d539e23bde","null","null","<p style=""font-size: 60px; font-family: BACS"">kcdOtMCkm</p>","","","","","","","","",""
"html-keyboard-response","335","762264","0.0-16.0-0.3","5efd2964d36f63162f263795","650c16f0f2faf8d7a0d14c09","651c1add79d600d539e23bde","null","null","<p style=""font-size: 60px; font-family: BACS"">kcdOtMCkm</p>","","","","","","","","",""
"html-keyboard-response","336","763276","0.0-16.0-0.4","5efd2964d36f63162f263795","650c16f0f2faf8d7a0d14c09","651c1add79d600d539e23bde","null","null","<p style=""font-size: 60px; font-family: BACS"">kcdOtMCkm</p>","","","","","","","","",""
"html-keyboard-response","337","764280","0.0-16.0-0.5","5efd2964d36f63162f263795","650c16f0f2faf8d7a0d14c09","651c1add79d600d539e23bde","null","null","<p style=""font-size: 60px; font-family: BACS"">kcdOtMCkm</p>","","","","","","","","",""
"html-keyboard-response","338","765291","0.0-16.0-0.6","5efd2964d36f63162f263795","650c16f0f2faf8d7a0d14c09","651c1add79d600d539e23bde","null","null","<p style=""font-size: 60px; font-family: BACS"">kcdOtMCkm</p>","","","","","","","","",""
"html-keyboard-response","339","766293","0.0-16.0-0.7","5efd2964d36f63162f263795","650c16f0f2faf8d7a0d14c09","651c1add79d600d539e23bde","null","null","<p style=""font-size: 60px; font-family: BACS"">kcdOtMCkm</p>","","","","","","","","",""
"html-keyboard-response","340","767295","0.0-16.0-0.8","5efd2964d36f63162f263795","650c16f0f2faf8d7a0d14c09","651c1add79d600d539e23bde","null","null","<p style=""font-size: 60px; font-family: BACS"">kcdOtMCkm</p>","","","","","","","","",""
"html-keyboard-response","341","768307","0.0-16.0-0.9","5efd2964d36f63162f263795","650c16f0f2faf8d7a0d14c09","651c1add79d600d539e23bde","null","null","<p style=""font-size: 60px; font-family: BACS"">kcdOtMCkm</p>","","","","","","","","",""
"html-keyboard-response","342","769323","0.0-16.0-0.10","5efd2964d36f63162f263795","650c16f0f2faf8d7a0d14c09","651c1add79d600d539e23bde","null","null","<p style=""font-size: 60px; font-family: BACS"">kcdOtMCkm</p>","","","","","","","","",""
"html-keyboard-response","343","770327","0.0-16.0-0.11","5efd2964d36f63162f263795","650c16f0f2faf8d7a0d14c09","651c1add79d600d539e23bde","null","null","<p style=""font-size: 60px; font-family: BACS"">kcdOtMCkm</p>","","","","","","","","",""
"html-keyboard-response","344","771339","0.0-16.0-0.12","5efd2964d36f63162f263795","650c16f0f2faf8d7a0d14c09","651c1add79d600d539e23bde","null","null","<p style=""font-size: 60px; font-family: BACS"">kcdOtMCkm</p>","","","","","","","","",""
"html-keyboard-response","345","772341","0.0-16.0-0.13","5efd2964d36f63162f263795","650c16f0f2faf8d7a0d14c09","651c1add79d600d539e23bde","null","null","<p style=""font-size: 60px; font-family: BACS"">kcdOtMCkm</p>","","","","","","","","",""
"html-keyboard-response","346","773352","0.0-16.0-0.14","5efd2964d36f63162f263795","650c16f0f2faf8d7a0d14c09","651c1add79d600d539e23bde","null","null","<p style=""font-size: 60px; font-family: BACS"">kcdOtMCkm</p>","","","","","","","","",""
"html-keyboard-response","347","774366","0.0-16.0-0.15","5efd2964d36f63162f263795","650c16f0f2faf8d7a0d14c09","651c1add79d600d539e23bde","null","null","<p style=""font-size: 60px; font-family: BACS"">kcdOtMCkm</p>","","","","","","","","",""
"html-keyboard-response","348","775373","0.0-16.0-0.16","5efd2964d36f63162f263795","650c16f0f2faf8d7a0d14c09","651c1add79d600d539e23bde","null","null","<p style=""font-size: 60px; font-family: BACS"">kcdOtMCkm</p>","","","","","","","","",""
"html-keyboard-response","349","776388","0.0-16.0-0.17","5efd2964d36f63162f263795","650c16f0f2faf8d7a0d14c09","651c1add79d600d539e23bde","null","null","<p style=""font-size: 60px; font-family: BACS"">kcdOtMCkm</p>","","","","","","","","",""
"html-keyboard-response","350","777389","0.0-16.0-0.18","5efd2964d36f63162f263795","650c16f0f2faf8d7a0d14c09","651c1add79d600d539e23bde","null","null","<p style=""font-size: 60px; font-family: BACS"">kcdOtMCkm</p>","","","","","","","","",""
"html-keyboard-response","351","778405","0.0-16.0-0.19","5efd2964d36f63162f263795","650c16f0f2faf8d7a0d14c09","651c1add79d600d539e23bde","null","null","<p style=""font-size: 60px; font-family: BACS"">kcdOtMCkm</p>","","","","","","","","",""
"html-keyboard-response","352","779417","0.0-16.0-0.20","5efd2964d36f63162f263795","650c16f0f2faf8d7a0d14c09","651c1add79d600d539e23bde","null","null","<p style=""font-size: 60px; font-family: BACS"">kcdOtMCkm</p>","","","","","","","","",""
"html-keyboard-response","353","780420","0.0-16.0-0.21","5efd2964d36f63162f263795","650c16f0f2faf8d7a0d14c09","651c1add79d600d539e23bde","null","null","<p style=""font-size: 60px; font-family: BACS"">kcdOtMCkm</p>","","","","","","","","",""
"html-keyboard-response","354","781432","0.0-16.0-0.22","5efd2964d36f63162f263795","650c16f0f2faf8d7a0d14c09","651c1add79d600d539e23bde","null","null","<p style=""font-size: 60px; font-family: BACS"">kcdOtMCkm</p>","","","","","","","","",""
"html-keyboard-response","355","782443","0.0-16.0-0.23","5efd2964d36f63162f263795","650c16f0f2faf8d7a0d14c09","651c1add79d600d539e23bde","null","null","<p style=""font-size: 60px; font-family: BACS"">kcdOtMCkm</p>","","","","","","","","",""
"html-keyboard-response","356","783449","0.0-16.0-0.24","5efd2964d36f63162f263795","650c16f0f2faf8d7a0d14c09","651c1add79d600d539e23bde","null","null","<p style=""font-size: 60px; font-family: BACS"">kcdOtMCkm</p>","","","","","","","","",""
"html-keyboard-response","357","784450","0.0-16.0-0.25","5efd2964d36f63162f263795","650c16f0f2faf8d7a0d14c09","651c1add79d600d539e23bde","null","null","<p style=""font-size: 60px; font-family: BACS"">kcdOtMCkm</p>","","","","","","","","",""
"html-keyboard-response","358","785451","0.0-16.0-0.26","5efd2964d36f63162f263795","650c16f0f2faf8d7a0d14c09","651c1add79d600d539e23bde","null","null","<p style=""font-size: 60px; font-family: BACS"">kcdOtMCkm</p>","","","","","","","","",""
"html-keyboard-response","359","786466","0.0-16.0-0.27","5efd2964d36f63162f263795","650c16f0f2faf8d7a0d14c09","651c1add79d600d539e23bde","null","null","<p style=""font-size: 60px; font-family: BACS"">kcdOtMCkm</p>","","","","","","","","",""
"html-keyboard-response","360","787482","0.0-16.0-0.28","5efd2964d36f63162f263795","650c16f0f2faf8d7a0d14c09","651c1add79d600d539e23bde","null","null","<p style=""font-size: 60px; font-family: BACS"">kcdOtMCkm</p>","","","","","","","","",""
"html-keyboard-response","361","788484","0.0-16.0-0.29","5efd2964d36f63162f263795","650c16f0f2faf8d7a0d14c09","651c1add79d600d539e23bde","null","null","<p style=""font-size: 60px; font-family: BACS"">kcdOtMCkm</p>","","","","","","","","",""
"html-keyboard-response","362","789494","0.0-16.0-0.30","5efd2964d36f63162f263795","650c16f0f2faf8d7a0d14c09","651c1add79d600d539e23bde","null","null","<p style=""font-size: 60px; font-family: BACS"">kcdOtMCkm</p>","","","","","","","","",""
"html-keyboard-response","363","790508","0.0-16.0-0.31","5efd2964d36f63162f263795","650c16f0f2faf8d7a0d14c09","651c1add79d600d539e23bde","null","null","<p style=""font-size: 60px; font-family: BACS"">kcdOtMCkm</p>","","","","","","","","",""
"html-keyboard-response","364","791510","0.0-16.0-0.32","5efd2964d36f63162f263795","650c16f0f2faf8d7a0d14c09","651c1add79d600d539e23bde","null","null","<p style=""font-size: 60px; font-family: BACS"">kcdOtMCkm</p>","","","","","","","","",""
"html-keyboard-response","365","792521","0.0-16.0-0.33","5efd2964d36f63162f263795","650c16f0f2faf8d7a0d14c09","651c1add79d600d539e23bde","null","null","<p style=""font-size: 60px; font-family: BACS"">kcdOtMCkm</p>","","","","","","","","",""
"html-keyboard-response","366","793530","0.0-16.0-0.34","5efd2964d36f63162f263795","650c16f0f2faf8d7a0d14c09","651c1add79d600d539e23bde","null","null","<p style=""font-size: 60px; font-family: BACS"">kcdOtMCkm</p>","","","","","","","","",""
"html-keyboard-response","367","794542","0.0-16.0-0.35","5efd2964d36f63162f263795","650c16f0f2faf8d7a0d14c09","651c1add79d600d539e23bde","null","null","<p style=""font-size: 60px; font-family: BACS"">kcdOtMCkm</p>","","","","","","","","",""
"html-keyboard-response","368","795554","0.0-16.0-0.36","5efd2964d36f63162f263795","650c16f0f2faf8d7a0d14c09","651c1add79d600d539e23bde","null","null","<p style=""font-size: 60px; font-family: BACS"">kcdOtMCkm</p>","","","","","","","","",""
"html-keyboard-response","369","796558","0.0-16.0-0.37","5efd2964d36f63162f263795","650c16f0f2faf8d7a0d14c09","651c1add79d600d539e23bde","null","null","<p style=""font-size: 60px; font-family: BACS"">kcdOtMCkm</p>","","","","","","","","",""
"html-keyboard-response","370","797575","0.0-16.0-0.38","5efd2964d36f63162f263795","650c16f0f2faf8d7a0d14c09","651c1add79d600d539e23bde","null","null","<p style=""font-size: 60px; font-family: BACS"">kcdOtMCkm</p>","","","","","","","","",""
"html-keyboard-response","371","798588","0.0-16.0-0.39","5efd2964d36f63162f263795","650c16f0f2faf8d7a0d14c09","651c1add79d600d539e23bde","null","null","<p style=""font-size: 60px; font-family: BACS"">kcdOtMCkm</p>","","","","","","","","",""
"html-keyboard-response","372","799604","0.0-16.0-0.40","5efd2964d36f63162f263795","650c16f0f2faf8d7a0d14c09","651c1add79d600d539e23bde","null","null","<p style=""font-size: 60px; font-family: BACS"">kcdOtMCkm</p>","","","","","","","","",""
"html-keyboard-response","373","800618","0.0-16.0-0.41","5efd2964d36f63162f263795","650c16f0f2faf8d7a0d14c09","651c1add79d600d539e23bde","null","null","<p style=""font-size: 60px; font-family: BACS"">kcdOtMCkm</p>","","","","","","","","",""
"html-keyboard-response","374","801632","0.0-16.0-0.42","5efd2964d36f63162f263795","650c16f0f2faf8d7a0d14c09","651c1add79d600d539e23bde","null","null","<p style=""font-size: 60px; font-family: BACS"">kcdOtMCkm</p>","","","","","","","","",""
"html-keyboard-response","375","802637","0.0-16.0-0.43","5efd2964d36f63162f263795","650c16f0f2faf8d7a0d14c09","651c1add79d600d539e23bde","null","null","<p style=""font-size: 60px; font-family: BACS"">kcdOtMCkm</p>","","","","","","","","",""
"html-keyboard-response","376","803651","0.0-16.0-0.44","5efd2964d36f63162f263795","650c16f0f2faf8d7a0d14c09","651c1add79d600d539e23bde","null","null","<p style=""font-size: 60px; font-family: BACS"">kcdOtMCkm</p>","","","","","","","","",""
"html-keyboard-response","377","804654","0.0-16.0-0.45","5efd2964d36f63162f263795","650c16f0f2faf8d7a0d14c09","651c1add79d600d539e23bde","null","null","<p style=""font-size: 60px; font-family: BACS"">kcdOtMCkm</p>","","","","","","","","",""
"html-keyboard-response","378","805667","0.0-16.0-0.46","5efd2964d36f63162f263795","650c16f0f2faf8d7a0d14c09","651c1add79d600d539e23bde","null","null","<p style=""font-size: 60px; font-family: BACS"">kcdOtMCkm</p>","","","","","","","","",""
"html-keyboard-response","379","806669","0.0-16.0-0.47","5efd2964d36f63162f263795","650c16f0f2faf8d7a0d14c09","651c1add79d600d539e23bde","null","null","<p style=""font-size: 60px; font-family: BACS"">kcdOtMCkm</p>","","","","","","","","",""
"html-keyboard-response","380","807671","0.0-16.0-0.48","5efd2964d36f63162f263795","650c16f0f2faf8d7a0d14c09","651c1add79d600d539e23bde","null","null","<p style=""font-size: 60px; font-family: BACS"">kcdOtMCkm</p>","","","","","","","","",""
"html-keyboard-response","381","808683","0.0-16.0-0.49","5efd2964d36f63162f263795","650c16f0f2faf8d7a0d14c09","651c1add79d600d539e23bde","null","null","<p style=""font-size: 60px; font-family: BACS"">kcdOtMCkm</p>","","","","","","","","",""
"html-keyboard-response","382","809700","0.0-16.0-0.50","5efd2964d36f63162f263795","650c16f0f2faf8d7a0d14c09","651c1add79d600d539e23bde","null","null","<p style=""font-size: 60px; font-family: BACS"">kcdOtMCkm</p>","","","","","","","","",""
"html-keyboard-response","383","810703","0.0-16.0-0.51","5efd2964d36f63162f263795","650c16f0f2faf8d7a0d14c09","651c1add79d600d539e23bde","null","null","<p style=""font-size: 60px; font-family: BACS"">kcdOtMCkm</p>","","","","","","","","",""
"html-keyboard-response","384","811716","0.0-16.0-0.52","5efd2964d36f63162f263795","650c16f0f2faf8d7a0d14c09","651c1add79d600d539e23bde","null","null","<p style=""font-size: 60px; font-family: BACS"">kcdOtMCkm</p>","","","","","","","","",""
"html-keyboard-response","385","812729","0.0-16.0-0.53","5efd2964d36f63162f263795","650c16f0f2faf8d7a0d14c09","651c1add79d600d539e23bde","null","null","<p style=""font-size: 60px; font-family: BACS"">kcdOtMCkm</p>","","","","","","","","",""
"html-keyboard-response","386","813732","0.0-16.0-0.54","5efd2964d36f63162f263795","650c16f0f2faf8d7a0d14c09","651c1add79d600d539e23bde","null","null","<p style=""font-size: 60px; font-family: BACS"">kcdOtMCkm</p>","","","","","","","","",""
"html-keyboard-response","387","814748","0.0-16.0-0.55","5efd2964d36f63162f263795","650c16f0f2faf8d7a0d14c09","651c1add79d600d539e23bde","null","null","<p style=""font-size: 60px; font-family: BACS"">kcdOtMCkm</p>","","","","","","","","",""
"html-keyboard-response","388","815761","0.0-16.0-0.56","5efd2964d36f63162f263795","650c16f0f2faf8d7a0d14c09","651c1add79d600d539e23bde","null","null","<p style=""font-size: 60px; font-family: BACS"">kcdOtMCkm</p>","","","","","","","","",""
"html-keyboard-response","389","816765","0.0-16.0-0.57","5efd2964d36f63162f263795","650c16f0f2faf8d7a0d14c09","651c1add79d600d539e23bde","null","null","<p style=""font-size: 60px; font-family: BACS"">kcdOtMCkm</p>","","","","","","","","",""
"html-keyboard-response","390","817779","0.0-16.0-0.58","5efd2964d36f63162f263795","650c16f0f2faf8d7a0d14c09","651c1add79d600d539e23bde","null","null","<p style=""font-size: 60px; font-family: BACS"">kcdOtMCkm</p>","","","","","","","","",""
"html-keyboard-response","391","818792","0.0-16.0-0.59","5efd2964d36f63162f263795","650c16f0f2faf8d7a0d14c09","651c1add79d600d539e23bde","null","null","<p style=""font-size: 60px; font-family: BACS"">kcdOtMCkm</p>","","","","","","","","",""
"html-keyboard-response","392","819794","0.0-16.0-0.60","5efd2964d36f63162f263795","650c16f0f2faf8d7a0d14c09","651c1add79d600d539e23bde","null","null","<p style=""font-size: 60px; font-family: BACS"">kcdOtMCkm</p>","","","","","","","","",""
"html-keyboard-response","393","820810","0.0-16.0-0.61","5efd2964d36f63162f263795","650c16f0f2faf8d7a0d14c09","651c1add79d600d539e23bde","null","null","<p style=""font-size: 60px; font-family: BACS"">kcdOtMCkm</p>","","","","","","","","",""
"html-keyboard-response","394","821823","0.0-16.0-0.62","5efd2964d36f63162f263795","650c16f0f2faf8d7a0d14c09","651c1add79d600d539e23bde","null","null","<p style=""font-size: 60px; font-family: BACS"">kcdOtMCkm</p>","","","","","","","","",""
"html-keyboard-response","395","822827","0.0-16.0-0.63","5efd2964d36f63162f263795","650c16f0f2faf8d7a0d14c09","651c1add79d600d539e23bde","null","null","<p style=""font-size: 60px; font-family: BACS"">kcdOtMCkm</p>","","","","","","","","",""
"html-keyboard-response","396","823840","0.0-16.0-0.64","5efd2964d36f63162f263795","650c16f0f2faf8d7a0d14c09","651c1add79d600d539e23bde","null","null","<p style=""font-size: 60px; font-family: BACS"">kcdOtMCkm</p>","","","","","","","","",""
"html-keyboard-response","397","824842","0.0-16.0-0.65","5efd2964d36f63162f263795","650c16f0f2faf8d7a0d14c09","651c1add79d600d539e23bde","null","null","<p style=""font-size: 60px; font-family: BACS"">kcdOtMCkm</p>","","","","","","","","",""
"html-keyboard-response","398","825850","0.0-16.0-0.66","5efd2964d36f63162f263795","650c16f0f2faf8d7a0d14c09","651c1add79d600d539e23bde","null","null","<p style=""font-size: 60px; font-family: BACS"">kcdOtMCkm</p>","","","","","","","","",""
"html-keyboard-response","399","826858","0.0-16.0-0.67","5efd2964d36f63162f263795","650c16f0f2faf8d7a0d14c09","651c1add79d600d539e23bde","null","null","<p style=""font-size: 60px; font-family: BACS"">kcdOtMCkm</p>","","","","","","","","",""
