"trial_type","trial_index","time_elapsed","internal_node_id","subject_id","study_id","session_id","rt","response","stimulus","success","item","task","correct_response","correct","target","confound","name"
"pavlovia","0","8323","0.0-0.0","613d091096ca434d703f77c5","64b003020eef62ee308107cc","64b10bd20f5721e9bb714b97","","","","","","","","","","",""
"survey-html-form","1","15180","0.0-1.0","613d091096ca434d703f77c5","64b003020eef62ee308107cc","64b10bd20f5721e9bb714b97","6853","{""ID"":""613d091096ca434d703f77c5""}","","","","","","","","",""
"html-keyboard-response","2","18049","0.0-2.0","613d091096ca434d703f77c5","64b003020eef62ee308107cc","64b10bd20f5721e9bb714b97","2867"," ","<p style=""font-size: 15px;"">Prima di cominciare, le chiediamo di leggere il modulo di consenso informato e confermare la sua volontà di partecipare all'esperimento.</p>
      <p style=""font-size: 15px;""> La preghiamo di ricordare che questo è un progetto di ricerca e che la sua partecipazione è completamente volontaria. Lei si potra' ritirare in qualunque momento, senza necessariamente dover dare alcuna spiegazione. Lo studio al quale Le si chiede di partecipare ha lo scopo di esaminare come i lettori elaborano le parole scritte. La somministrazione delle prove è individuale. Lei sarà impegnato in una sessione di lavoro della durata media di 10 minuti, e un questionario di 10 minuti. L’ordine delle prove ed il loro svolgimento sono stabiliti in modo tale da evitare un eventuale affaticamento. Tutte le prove saranno precedute da un breve addestramento in modo tale che abbia la possibilità di familiarizzare con il compito. Sono previste alcune pause nel corso dello svolgimento dell’esperimento. Una ricompensa di £4 (£8 per ora) Le verrà consegnata al termine della sessione di testing. Nonostante il testing preveda delle prove cognitive, il presente esperimento non costituisce una prova clinica che permetta la diagnosi di eventuali patologie.</p>
      <p style=""font-size: 15px;"">Tutti i dati raccolti grazie alla partecipazione Sua e di altre persone volontarie saranno custoditi in server sicuri e protetti da password, e non sarà consentito ad alcuna persona non autorizzata di accedervi. Le Sue informazioni personali saranno conservate separatamente dai risultati della presente ricerca, cui saranno associati soltanto attraverso un ID arbitrario. Grazie a questo processo di anonimizzazione dei dati, a nessun ricercatore sarà possibile analizzare i risultati sapendo da quale specifico partecipante essi provengono. Inoltre, questa procedura renderà impossibile la Sua identificazione anche nel momento in cui i risultati della ricerca fossero pubblicati su riviste scientifiche, o presentati a congressi o in qualsiasi altro pubblico consesso. Più in generale, i dati raccolti saranno trattati in accordo con le leggi sulla privacy e in conformità al Decreto Legislativo 30 giugno 2003 n. 196 “Codice in materia di protezione dei dati personali” e al Regolamento Europeo 2016/679 (General Data Protection Regulation - GDPR). Il Responsabile della protezione dei dati (RPD) è l’Avv. Valentina Carollo che può essere contattato ai seguenti indirizzi email: <a href=""mailto:dpo@sissa.it"">dpo@sissa.it</a> oppure <a href=""mailto:rpd@sissa.it"">rpd@sissa.it</a> - PEC: <a href=""mailto:protocollo@pec.sissa.it"">protocollo@pec.sissa.it</a>.</p>
      <p style=""font-size: 15px;""> Prima di esprimere il suo consenso alla partecipazione, Le ricordiamo ancora che in caso Lei abbia bisogno di delucidazioni su qualunque aspetto della procedura sperimentale, il ricercatore è a Sua completa disposizione (<a href=""mailto:aliebelt@sissa.it"">aliebelt@sissa.it</a>, <a href=""mailto:davide.crepaldi@sissa.it"">davide.crepaldi@sissa.it</a>).</p>
      <p style=""font-size: 15px;"">Se vuole scaricare il modulo di consenso informato, clicca qui: <a href=""BASL_modulo_consenso.pdf"" download>modulo di consenso</a>.</p>
      <p style=""font-size: 15px;""> Le chiediamo di premere la barra per continuare al consenso.</p>","","","","","","","",""
"survey-html-form","3","26479","0.0-3.0","613d091096ca434d703f77c5","64b003020eef62ee308107cc","64b10bd20f5721e9bb714b97","8428","{""consent1"":""YES"",""consent2"":""YES"",""consent3"":""YES"",""consent4"":""YES"",""consent5"":""YES"",""consent6"":""YES""}","","","","","","","","",""
"fullscreen","4","32946","0.0-4.0","613d091096ca434d703f77c5","64b003020eef62ee308107cc","64b10bd20f5721e9bb714b97","","","","true","","","","","","",""
"html-keyboard-response","5","50289","0.0-5.0","613d091096ca434d703f77c5","64b003020eef62ee308107cc","64b10bd20f5721e9bb714b97","17341"," ","<p>Benvenuta/o, e grazie mille del tuo tempo!</p>
      <p>In questo esperimento sarai un esperto/un'esperta di linguaggio cui è stato chiesto di dare un'occhiata ad alcuni messaggi che la Terra ha ricevuto dallo spazio. Il tuo compito, in questa prima parte dell'esperimento, sarà di fare molta attenzione alle parole che ti verranno mostrate; più tardi, i leader del mondo ti chiederanno qualche informazione su quello che hai visto. Le parole si susseguiranno abbastanza velocemente; sembra che questi alieni abbiano una certa fretta :-) </p>
      <p>Per favore, chiama lo sperimentatore se ha qualche domanda.</p><p>Premi la barra per continuare.</p>","","","","","","","",""
"html-keyboard-response","6","63233","0.0-6.0","613d091096ca434d703f77c5","64b003020eef62ee308107cc","64b10bd20f5721e9bb714b97","12942"," ","<p>Ecco un esempio delle parole che vedrai:</p>
      <img src='esempio.png' height='400px'>
      <p>Quando sei pronti per iniziare, premi la barra.</p></div>","","","","","","","",""
"html-keyboard-response","7","64242","0.0-7.0-0.0","613d091096ca434d703f77c5","64b003020eef62ee308107cc","64b10bd20f5721e9bb714b97","null","null","<p style=""font-size: 60px; font-family: BACS"">AdDbDOAK</p>","","","","","","","",""
"html-keyboard-response","8","65247","0.0-7.0-0.1","613d091096ca434d703f77c5","64b003020eef62ee308107cc","64b10bd20f5721e9bb714b97","null","null","<p style=""font-size: 60px; font-family: BACS"">YOaAbmLJ</p>","","","","","","","",""
"html-keyboard-response","9","66261","0.0-7.0-0.2","613d091096ca434d703f77c5","64b003020eef62ee308107cc","64b10bd20f5721e9bb714b97","null","null","<p style=""font-size: 60px; font-family: BACS"">ODBDADOAK</p>","","","","","","","",""
"html-keyboard-response","10","67268","0.0-7.0-0.3","613d091096ca434d703f77c5","64b003020eef62ee308107cc","64b10bd20f5721e9bb714b97","null","null","<p style=""font-size: 60px; font-family: BACS"">bvkrYZJO</p>","","","","","","","",""
"html-keyboard-response","11","68276","0.0-7.0-0.4","613d091096ca434d703f77c5","64b003020eef62ee308107cc","64b10bd20f5721e9bb714b97","null","null","<p style=""font-size: 60px; font-family: BACS"">dvNvAmLJ</p>","","","","","","","",""
"html-keyboard-response","12","69279","0.0-7.0-0.5","613d091096ca434d703f77c5","64b003020eef62ee308107cc","64b10bd20f5721e9bb714b97","null","null","<p style=""font-size: 60px; font-family: BACS"">hYDmtDKP</p>","","","","","","","",""
"html-keyboard-response","13","70282","0.0-7.0-0.6","613d091096ca434d703f77c5","64b003020eef62ee308107cc","64b10bd20f5721e9bb714b97","null","null","<p style=""font-size: 60px; font-family: BACS"">OAmGrmZb</p>","","","","","","","",""
"html-keyboard-response","14","71290","0.0-7.0-0.7","613d091096ca434d703f77c5","64b003020eef62ee308107cc","64b10bd20f5721e9bb714b97","null","null","<p style=""font-size: 60px; font-family: BACS"">UdYUQmLJ</p>","","","","","","","",""
"html-keyboard-response","15","72298","0.0-7.0-0.8","613d091096ca434d703f77c5","64b003020eef62ee308107cc","64b10bd20f5721e9bb714b97","null","null","<p style=""font-size: 60px; font-family: BACS"">PEtEDOAK</p>","","","","","","","",""
"html-keyboard-response","16","73308","0.0-7.0-0.9","613d091096ca434d703f77c5","64b003020eef62ee308107cc","64b10bd20f5721e9bb714b97","null","null","<p style=""font-size: 60px; font-family: BACS"">ODBDAlMck</p>","","","","","","","",""
"html-keyboard-response","17","74321","0.0-7.0-0.10","613d091096ca434d703f77c5","64b003020eef62ee308107cc","64b10bd20f5721e9bb714b97","null","null","<p style=""font-size: 60px; font-family: BACS"">blMkDOAK</p>","","","","","","","",""
"html-keyboard-response","18","75323","0.0-7.0-0.11","613d091096ca434d703f77c5","64b003020eef62ee308107cc","64b10bd20f5721e9bb714b97","null","null","<p style=""font-size: 60px; font-family: BACS"">RKYklMck</p>","","","","","","","",""
"html-keyboard-response","19","76335","0.0-7.0-0.12","613d091096ca434d703f77c5","64b003020eef62ee308107cc","64b10bd20f5721e9bb714b97","null","null","<p style=""font-size: 60px; font-family: BACS"">AdDbPMYm</p>","","","","","","","",""
"html-keyboard-response","20","77337","0.0-7.0-0.13","613d091096ca434d703f77c5","64b003020eef62ee308107cc","64b10bd20f5721e9bb714b97","null","null","<p style=""font-size: 60px; font-family: BACS"">uvaUmLJ</p>","","","","","","","",""
"html-keyboard-response","21","78341","0.0-7.0-0.14","613d091096ca434d703f77c5","64b003020eef62ee308107cc","64b10bd20f5721e9bb714b97","null","null","<p style=""font-size: 60px; font-family: BACS"">tDPRkDKP</p>","","","","","","","",""
"html-keyboard-response","22","79353","0.0-7.0-0.15","613d091096ca434d703f77c5","64b003020eef62ee308107cc","64b10bd20f5721e9bb714b97","null","null","<p style=""font-size: 60px; font-family: BACS"">blMkPMYm</p>","","","","","","","",""
"html-keyboard-response","23","80375","0.0-7.0-0.16","613d091096ca434d703f77c5","64b003020eef62ee308107cc","64b10bd20f5721e9bb714b97","null","null","<p style=""font-size: 60px; font-family: BACS"">laYmrmZb</p>","","","","","","","",""
"html-keyboard-response","24","81376","0.0-7.0-0.17","613d091096ca434d703f77c5","64b003020eef62ee308107cc","64b10bd20f5721e9bb714b97","null","null","<p style=""font-size: 60px; font-family: BACS"">YOaAbYkZ</p>","","","","","","","",""
"html-keyboard-response","25","82389","0.0-7.0-0.18","613d091096ca434d703f77c5","64b003020eef62ee308107cc","64b10bd20f5721e9bb714b97","null","null","<p style=""font-size: 60px; font-family: BACS"">UdYUQcbm</p>","","","","","","","",""
"html-keyboard-response","26","83390","0.0-7.0-0.19","613d091096ca434d703f77c5","64b003020eef62ee308107cc","64b10bd20f5721e9bb714b97","null","null","<p style=""font-size: 60px; font-family: BACS"">uvaUYkZ</p>","","","","","","","",""
"html-keyboard-response","27","84391","0.0-7.0-0.20","613d091096ca434d703f77c5","64b003020eef62ee308107cc","64b10bd20f5721e9bb714b97","null","null","<p style=""font-size: 60px; font-family: BACS"">bvkrmZb</p>","","","","","","","",""
"html-keyboard-response","28","85396","0.0-7.0-0.21","613d091096ca434d703f77c5","64b003020eef62ee308107cc","64b10bd20f5721e9bb714b97","null","null","<p style=""font-size: 60px; font-family: BACS"">LdQvYZJO</p>","","","","","","","",""
"html-keyboard-response","29","86410","0.0-7.0-0.22","613d091096ca434d703f77c5","64b003020eef62ee308107cc","64b10bd20f5721e9bb714b97","null","null","<p style=""font-size: 60px; font-family: BACS"">uvaUmZb</p>","","","","","","","",""
"html-keyboard-response","30","87411","0.0-7.0-0.23","613d091096ca434d703f77c5","64b003020eef62ee308107cc","64b10bd20f5721e9bb714b97","null","null","<p style=""font-size: 60px; font-family: BACS"">lRckAlMck</p>","","","","","","","",""
"html-keyboard-response","31","88424","0.0-7.0-0.24","613d091096ca434d703f77c5","64b003020eef62ee308107cc","64b10bd20f5721e9bb714b97","null","null","<p style=""font-size: 60px; font-family: BACS"">tDPRkKOYC</p>","","","","","","","",""
"html-keyboard-response","32","89438","0.0-7.0-0.25","613d091096ca434d703f77c5","64b003020eef62ee308107cc","64b10bd20f5721e9bb714b97","null","null","<p style=""font-size: 60px; font-family: BACS"">hYDmtDOAK</p>","","","","","","","",""
"html-keyboard-response","33","90439","0.0-7.0-0.26","613d091096ca434d703f77c5","64b003020eef62ee308107cc","64b10bd20f5721e9bb714b97","null","null","<p style=""font-size: 60px; font-family: BACS"">LdQvmLJ</p>","","","","","","","",""
"html-keyboard-response","34","91440","0.0-7.0-0.27","613d091096ca434d703f77c5","64b003020eef62ee308107cc","64b10bd20f5721e9bb714b97","null","null","<p style=""font-size: 60px; font-family: BACS"">YlCPBKOYC</p>","","","","","","","",""
"html-keyboard-response","35","92440","0.0-7.0-0.28","613d091096ca434d703f77c5","64b003020eef62ee308107cc","64b10bd20f5721e9bb714b97","null","null","<p style=""font-size: 60px; font-family: BACS"">laYmrYkZ</p>","","","","","","","",""
"html-keyboard-response","36","93442","0.0-7.0-0.29","613d091096ca434d703f77c5","64b003020eef62ee308107cc","64b10bd20f5721e9bb714b97","null","null","<p style=""font-size: 60px; font-family: BACS"">AdDbDKP</p>","","","","","","","",""
"html-keyboard-response","37","94445","0.0-7.0-0.30","613d091096ca434d703f77c5","64b003020eef62ee308107cc","64b10bd20f5721e9bb714b97","null","null","<p style=""font-size: 60px; font-family: BACS"">LuNZYZJO</p>","","","","","","","",""
"html-keyboard-response","38","95457","0.0-7.0-0.31","613d091096ca434d703f77c5","64b003020eef62ee308107cc","64b10bd20f5721e9bb714b97","null","null","<p style=""font-size: 60px; font-family: BACS"">ODBDADKP</p>","","","","","","","",""
"html-keyboard-response","39","96459","0.0-7.0-0.32","613d091096ca434d703f77c5","64b003020eef62ee308107cc","64b10bd20f5721e9bb714b97","null","null","<p style=""font-size: 60px; font-family: BACS"">blMklMck</p>","","","","","","","",""
"html-keyboard-response","40","97460","0.0-7.0-0.33","613d091096ca434d703f77c5","64b003020eef62ee308107cc","64b10bd20f5721e9bb714b97","null","null","<p style=""font-size: 60px; font-family: BACS"">aNYmbcbm</p>","","","","","","","",""
"html-keyboard-response","41","98465","0.0-7.0-0.34","613d091096ca434d703f77c5","64b003020eef62ee308107cc","64b10bd20f5721e9bb714b97","null","null","<p style=""font-size: 60px; font-family: BACS"">YlCPBPMYm</p>","","","","","","","",""
"html-keyboard-response","42","99474","0.0-7.0-0.35","613d091096ca434d703f77c5","64b003020eef62ee308107cc","64b10bd20f5721e9bb714b97","null","null","<p style=""font-size: 60px; font-family: BACS"">UdYUQYkZ</p>","","","","","","","",""
"html-keyboard-response","43","100488","0.0-7.0-0.36","613d091096ca434d703f77c5","64b003020eef62ee308107cc","64b10bd20f5721e9bb714b97","null","null","<p style=""font-size: 60px; font-family: BACS"">hlctEPMYm</p>","","","","","","","",""
"html-keyboard-response","44","101502","0.0-7.0-0.37","613d091096ca434d703f77c5","64b003020eef62ee308107cc","64b10bd20f5721e9bb714b97","null","null","<p style=""font-size: 60px; font-family: BACS"">blMkKOYC</p>","","","","","","","",""
"html-keyboard-response","45","102507","0.0-7.0-0.38","613d091096ca434d703f77c5","64b003020eef62ee308107cc","64b10bd20f5721e9bb714b97","null","null","<p style=""font-size: 60px; font-family: BACS"">lRckADOAK</p>","","","","","","","",""
"html-keyboard-response","46","103513","0.0-7.0-0.39","613d091096ca434d703f77c5","64b003020eef62ee308107cc","64b10bd20f5721e9bb714b97","null","null","<p style=""font-size: 60px; font-family: BACS"">UdYUQmZb</p>","","","","","","","",""
"html-keyboard-response","47","104520","0.0-7.0-0.40","613d091096ca434d703f77c5","64b003020eef62ee308107cc","64b10bd20f5721e9bb714b97","null","null","<p style=""font-size: 60px; font-family: BACS"">RKYkDKP</p>","","","","","","","",""
"html-keyboard-response","48","105527","0.0-7.0-0.41","613d091096ca434d703f77c5","64b003020eef62ee308107cc","64b10bd20f5721e9bb714b97","null","null","<p style=""font-size: 60px; font-family: BACS"">lRckAKOYC</p>","","","","","","","",""
"html-keyboard-response","49","106537","0.0-7.0-0.42","613d091096ca434d703f77c5","64b003020eef62ee308107cc","64b10bd20f5721e9bb714b97","null","null","<p style=""font-size: 60px; font-family: BACS"">dvNvAmZb</p>","","","","","","","",""
"html-keyboard-response","50","107538","0.0-7.0-0.43","613d091096ca434d703f77c5","64b003020eef62ee308107cc","64b10bd20f5721e9bb714b97","null","null","<p style=""font-size: 60px; font-family: BACS"">hlctEDKP</p>","","","","","","","",""
"html-keyboard-response","51","108546","0.0-7.0-0.44","613d091096ca434d703f77c5","64b003020eef62ee308107cc","64b10bd20f5721e9bb714b97","null","null","<p style=""font-size: 60px; font-family: BACS"">LdQvYkZ</p>","","","","","","","",""
"html-keyboard-response","52","109548","0.0-7.0-0.45","613d091096ca434d703f77c5","64b003020eef62ee308107cc","64b10bd20f5721e9bb714b97","null","null","<p style=""font-size: 60px; font-family: BACS"">ODBDAKOYC</p>","","","","","","","",""
"html-keyboard-response","53","110559","0.0-7.0-0.46","613d091096ca434d703f77c5","64b003020eef62ee308107cc","64b10bd20f5721e9bb714b97","null","null","<p style=""font-size: 60px; font-family: BACS"">hlctElMck</p>","","","","","","","",""
"html-keyboard-response","54","111573","0.0-7.0-0.47","613d091096ca434d703f77c5","64b003020eef62ee308107cc","64b10bd20f5721e9bb714b97","null","null","<p style=""font-size: 60px; font-family: BACS"">bvkrcbm</p>","","","","","","","",""
"html-keyboard-response","55","112585","0.0-7.0-0.48","613d091096ca434d703f77c5","64b003020eef62ee308107cc","64b10bd20f5721e9bb714b97","null","null","<p style=""font-size: 60px; font-family: BACS"">YlCPBDOAK</p>","","","","","","","",""
"html-keyboard-response","56","113595","0.0-7.0-0.49","613d091096ca434d703f77c5","64b003020eef62ee308107cc","64b10bd20f5721e9bb714b97","null","null","<p style=""font-size: 60px; font-family: BACS"">bvkrYkZ</p>","","","","","","","",""
"html-keyboard-response","57","114600","0.0-7.0-0.50","613d091096ca434d703f77c5","64b003020eef62ee308107cc","64b10bd20f5721e9bb714b97","null","null","<p style=""font-size: 60px; font-family: BACS"">RKYkPMYm</p>","","","","","","","",""
"html-keyboard-response","58","115608","0.0-7.0-0.51","613d091096ca434d703f77c5","64b003020eef62ee308107cc","64b10bd20f5721e9bb714b97","null","null","<p style=""font-size: 60px; font-family: BACS"">LuNZmZb</p>","","","","","","","",""
"html-keyboard-response","59","116614","0.0-7.0-0.52","613d091096ca434d703f77c5","64b003020eef62ee308107cc","64b10bd20f5721e9bb714b97","null","null","<p style=""font-size: 60px; font-family: BACS"">tDPRklMck</p>","","","","","","","",""
"html-keyboard-response","60","117620","0.0-7.0-0.53","613d091096ca434d703f77c5","64b003020eef62ee308107cc","64b10bd20f5721e9bb714b97","null","null","<p style=""font-size: 60px; font-family: BACS"">LuNZmLJ</p>","","","","","","","",""
"html-keyboard-response","61","118621","0.0-7.0-0.54","613d091096ca434d703f77c5","64b003020eef62ee308107cc","64b10bd20f5721e9bb714b97","null","null","<p style=""font-size: 60px; font-family: BACS"">laYmrcbm</p>","","","","","","","",""
"html-keyboard-response","62","119627","0.0-7.0-0.55","613d091096ca434d703f77c5","64b003020eef62ee308107cc","64b10bd20f5721e9bb714b97","null","null","<p style=""font-size: 60px; font-family: BACS"">PEtEPMYm</p>","","","","","","","",""
"html-keyboard-response","63","120637","0.0-7.0-0.56","613d091096ca434d703f77c5","64b003020eef62ee308107cc","64b10bd20f5721e9bb714b97","null","null","<p style=""font-size: 60px; font-family: BACS"">OAmGrmLJ</p>","","","","","","","",""
"html-keyboard-response","64","121638","0.0-7.0-0.57","613d091096ca434d703f77c5","64b003020eef62ee308107cc","64b10bd20f5721e9bb714b97","null","null","<p style=""font-size: 60px; font-family: BACS"">RKYkKOYC</p>","","","","","","","",""
"html-keyboard-response","65","122647","0.0-7.0-0.58","613d091096ca434d703f77c5","64b003020eef62ee308107cc","64b10bd20f5721e9bb714b97","null","null","<p style=""font-size: 60px; font-family: BACS"">laYmrYZJO</p>","","","","","","","",""
"html-keyboard-response","66","123660","0.0-7.0-0.59","613d091096ca434d703f77c5","64b003020eef62ee308107cc","64b10bd20f5721e9bb714b97","null","null","<p style=""font-size: 60px; font-family: BACS"">hlctEDOAK</p>","","","","","","","",""
"html-keyboard-response","67","124662","0.0-7.0-0.60","613d091096ca434d703f77c5","64b003020eef62ee308107cc","64b10bd20f5721e9bb714b97","null","null","<p style=""font-size: 60px; font-family: BACS"">AdDbKOYC</p>","","","","","","","",""
"html-keyboard-response","68","125667","0.0-7.0-0.61","613d091096ca434d703f77c5","64b003020eef62ee308107cc","64b10bd20f5721e9bb714b97","null","null","<p style=""font-size: 60px; font-family: BACS"">LuNZYkZ</p>","","","","","","","",""
"html-keyboard-response","69","126673","0.0-7.0-0.62","613d091096ca434d703f77c5","64b003020eef62ee308107cc","64b10bd20f5721e9bb714b97","null","null","<p style=""font-size: 60px; font-family: BACS"">LdQvcbm</p>","","","","","","","",""
"html-keyboard-response","70","127683","0.0-7.0-0.63","613d091096ca434d703f77c5","64b003020eef62ee308107cc","64b10bd20f5721e9bb714b97","null","null","<p style=""font-size: 60px; font-family: BACS"">uvaUYZJO</p>","","","","","","","",""
"html-keyboard-response","71","128693","0.0-7.0-0.64","613d091096ca434d703f77c5","64b003020eef62ee308107cc","64b10bd20f5721e9bb714b97","null","null","<p style=""font-size: 60px; font-family: BACS"">hYDmtPMYm</p>","","","","","","","",""
"html-keyboard-response","72","129701","0.0-7.0-0.65","613d091096ca434d703f77c5","64b003020eef62ee308107cc","64b10bd20f5721e9bb714b97","null","null","<p style=""font-size: 60px; font-family: BACS"">YlCPBDKP</p>","","","","","","","",""
"html-keyboard-response","73","130709","0.0-7.0-0.66","613d091096ca434d703f77c5","64b003020eef62ee308107cc","64b10bd20f5721e9bb714b97","null","null","<p style=""font-size: 60px; font-family: BACS"">dvNvAYkZ</p>","","","","","","","",""
"html-keyboard-response","74","131717","0.0-7.0-0.67","613d091096ca434d703f77c5","64b003020eef62ee308107cc","64b10bd20f5721e9bb714b97","null","null","<p style=""font-size: 60px; font-family: BACS"">tDPRkPMYm</p>","","","","","","","",""
"html-keyboard-response","75","132722","0.0-7.0-0.68","613d091096ca434d703f77c5","64b003020eef62ee308107cc","64b10bd20f5721e9bb714b97","null","null","<p style=""font-size: 60px; font-family: BACS"">aNYmbmZb</p>","","","","","","","",""
"html-keyboard-response","76","133724","0.0-7.0-0.69","613d091096ca434d703f77c5","64b003020eef62ee308107cc","64b10bd20f5721e9bb714b97","null","null","<p style=""font-size: 60px; font-family: BACS"">PEtElMck</p>","","","","","","","",""
"html-keyboard-response","77","134727","0.0-7.0-0.70","613d091096ca434d703f77c5","64b003020eef62ee308107cc","64b10bd20f5721e9bb714b97","null","null","<p style=""font-size: 60px; font-family: BACS"">OAmGrcbm</p>","","","","","","","",""
"html-keyboard-response","78","135728","0.0-7.0-0.71","613d091096ca434d703f77c5","64b003020eef62ee308107cc","64b10bd20f5721e9bb714b97","null","null","<p style=""font-size: 60px; font-family: BACS"">aNYmbmLJ</p>","","","","","","","",""
"html-keyboard-response","79","136734","0.0-7.0-0.72","613d091096ca434d703f77c5","64b003020eef62ee308107cc","64b10bd20f5721e9bb714b97","null","null","<p style=""font-size: 60px; font-family: BACS"">YOaAbcbm</p>","","","","","","","",""
"html-keyboard-response","80","137745","0.0-7.0-0.73","613d091096ca434d703f77c5","64b003020eef62ee308107cc","64b10bd20f5721e9bb714b97","null","null","<p style=""font-size: 60px; font-family: BACS"">hYDmtlMck</p>","","","","","","","",""
"html-keyboard-response","81","138757","0.0-7.0-0.74","613d091096ca434d703f77c5","64b003020eef62ee308107cc","64b10bd20f5721e9bb714b97","null","null","<p style=""font-size: 60px; font-family: BACS"">lRckADKP</p>","","","","","","","",""
"html-keyboard-response","82","139760","0.0-7.0-0.75","613d091096ca434d703f77c5","64b003020eef62ee308107cc","64b10bd20f5721e9bb714b97","null","null","<p style=""font-size: 60px; font-family: BACS"">OAmGrYZJO</p>","","","","","","","",""
"html-keyboard-response","83","140772","0.0-7.0-0.76","613d091096ca434d703f77c5","64b003020eef62ee308107cc","64b10bd20f5721e9bb714b97","null","null","<p style=""font-size: 60px; font-family: BACS"">dvNvAcbm</p>","","","","","","","",""
"html-keyboard-response","84","141786","0.0-7.0-0.77","613d091096ca434d703f77c5","64b003020eef62ee308107cc","64b10bd20f5721e9bb714b97","null","null","<p style=""font-size: 60px; font-family: BACS"">YOaAbYZJO</p>","","","","","","","",""
"html-keyboard-response","85","142796","0.0-7.0-0.78","613d091096ca434d703f77c5","64b003020eef62ee308107cc","64b10bd20f5721e9bb714b97","null","null","<p style=""font-size: 60px; font-family: BACS"">PEtEKOYC</p>","","","","","","","",""
"html-keyboard-response","86","143805","0.0-7.0-0.79","613d091096ca434d703f77c5","64b003020eef62ee308107cc","64b10bd20f5721e9bb714b97","null","null","<p style=""font-size: 60px; font-family: BACS"">aNYmbYZJO</p>","","","","","","","",""
"html-keyboard-response","87","152576","0.0-8.0","613d091096ca434d703f77c5","64b003020eef62ee308107cc","64b10bd20f5721e9bb714b97","8771"," ","<p>Ottimo, hai visto il primo blocco di parole. Ora puoi prenderti una piccola pausa.</p>
      <p>Premi la barra quando sei pronta/o per riprendere.</p>","","","","","","","",""
"html-keyboard-response","88","153579","0.0-9.0-0.0","613d091096ca434d703f77c5","64b003020eef62ee308107cc","64b10bd20f5721e9bb714b97","null","null","<p style=""font-size: 60px; font-family: BACS"">tDPRkPMYm</p>","","","","","","","",""
"html-keyboard-response","89","154593","0.0-9.0-0.1","613d091096ca434d703f77c5","64b003020eef62ee308107cc","64b10bd20f5721e9bb714b97","null","null","<p style=""font-size: 60px; font-family: BACS"">bvkrmZb</p>","","","","","","","",""
"html-keyboard-response","90","155602","0.0-9.0-0.2","613d091096ca434d703f77c5","64b003020eef62ee308107cc","64b10bd20f5721e9bb714b97","null","null","<p style=""font-size: 60px; font-family: BACS"">ODBDAKOYC</p>","","","","","","","",""
"html-keyboard-response","91","156612","0.0-9.0-0.3","613d091096ca434d703f77c5","64b003020eef62ee308107cc","64b10bd20f5721e9bb714b97","null","null","<p style=""font-size: 60px; font-family: BACS"">LdQvYZJO</p>","","","","","","","",""
"html-keyboard-response","92","157613","0.0-9.0-0.4","613d091096ca434d703f77c5","64b003020eef62ee308107cc","64b10bd20f5721e9bb714b97","null","null","<p style=""font-size: 60px; font-family: BACS"">uvaUmZb</p>","","","","","","","",""
"html-keyboard-response","93","158623","0.0-9.0-0.5","613d091096ca434d703f77c5","64b003020eef62ee308107cc","64b10bd20f5721e9bb714b97","null","null","<p style=""font-size: 60px; font-family: BACS"">YlCPBKOYC</p>","","","","","","","",""
"html-keyboard-response","94","159639","0.0-9.0-0.6","613d091096ca434d703f77c5","64b003020eef62ee308107cc","64b10bd20f5721e9bb714b97","null","null","<p style=""font-size: 60px; font-family: BACS"">dvNvAcbm</p>","","","","","","","",""
"html-keyboard-response","95","160649","0.0-9.0-0.7","613d091096ca434d703f77c5","64b003020eef62ee308107cc","64b10bd20f5721e9bb714b97","null","null","<p style=""font-size: 60px; font-family: BACS"">blMkDOAK</p>","","","","","","","",""
"html-keyboard-response","96","161658","0.0-9.0-0.8","613d091096ca434d703f77c5","64b003020eef62ee308107cc","64b10bd20f5721e9bb714b97","null","null","<p style=""font-size: 60px; font-family: BACS"">PEtElMck</p>","","","","","","","",""
"html-keyboard-response","97","162665","0.0-9.0-0.9","613d091096ca434d703f77c5","64b003020eef62ee308107cc","64b10bd20f5721e9bb714b97","null","null","<p style=""font-size: 60px; font-family: BACS"">AdDbKOYC</p>","","","","","","","",""
"html-keyboard-response","98","163670","0.0-9.0-0.10","613d091096ca434d703f77c5","64b003020eef62ee308107cc","64b10bd20f5721e9bb714b97","null","null","<p style=""font-size: 60px; font-family: BACS"">UdYUQmZb</p>","","","","","","","",""
"html-keyboard-response","99","164675","0.0-9.0-0.11","613d091096ca434d703f77c5","64b003020eef62ee308107cc","64b10bd20f5721e9bb714b97","null","null","<p style=""font-size: 60px; font-family: BACS"">LuNZYZJO</p>","","","","","","","",""
"html-keyboard-response","100","165689","0.0-9.0-0.12","613d091096ca434d703f77c5","64b003020eef62ee308107cc","64b10bd20f5721e9bb714b97","null","null","<p style=""font-size: 60px; font-family: BACS"">hYDmtPMYm</p>","","","","","","","",""
"html-keyboard-response","101","166694","0.0-9.0-0.13","613d091096ca434d703f77c5","64b003020eef62ee308107cc","64b10bd20f5721e9bb714b97","null","null","<p style=""font-size: 60px; font-family: BACS"">bvkrYZJO</p>","","","","","","","",""
"html-keyboard-response","102","167700","0.0-9.0-0.14","613d091096ca434d703f77c5","64b003020eef62ee308107cc","64b10bd20f5721e9bb714b97","null","null","<p style=""font-size: 60px; font-family: BACS"">LuNZYkZ</p>","","","","","","","",""
"html-keyboard-response","103","168714","0.0-9.0-0.15","613d091096ca434d703f77c5","64b003020eef62ee308107cc","64b10bd20f5721e9bb714b97","null","null","<p style=""font-size: 60px; font-family: BACS"">laYmrYZJO</p>","","","","","","","",""
"html-keyboard-response","104","169717","0.0-9.0-0.16","613d091096ca434d703f77c5","64b003020eef62ee308107cc","64b10bd20f5721e9bb714b97","null","null","<p style=""font-size: 60px; font-family: BACS"">aNYmbmZb</p>","","","","","","","",""
"html-keyboard-response","105","170728","0.0-9.0-0.17","613d091096ca434d703f77c5","64b003020eef62ee308107cc","64b10bd20f5721e9bb714b97","null","null","<p style=""font-size: 60px; font-family: BACS"">RKYkDKP</p>","","","","","","","",""
"html-keyboard-response","106","171742","0.0-9.0-0.18","613d091096ca434d703f77c5","64b003020eef62ee308107cc","64b10bd20f5721e9bb714b97","null","null","<p style=""font-size: 60px; font-family: BACS"">aNYmbmLJ</p>","","","","","","","",""
"html-keyboard-response","107","172743","0.0-9.0-0.19","613d091096ca434d703f77c5","64b003020eef62ee308107cc","64b10bd20f5721e9bb714b97","null","null","<p style=""font-size: 60px; font-family: BACS"">blMkPMYm</p>","","","","","","","",""
"html-keyboard-response","108","173749","0.0-9.0-0.20","613d091096ca434d703f77c5","64b003020eef62ee308107cc","64b10bd20f5721e9bb714b97","null","null","<p style=""font-size: 60px; font-family: BACS"">YlCPBDOAK</p>","","","","","","","",""
"html-keyboard-response","109","174753","0.0-9.0-0.21","613d091096ca434d703f77c5","64b003020eef62ee308107cc","64b10bd20f5721e9bb714b97","null","null","<p style=""font-size: 60px; font-family: BACS"">ODBDADKP</p>","","","","","","","",""
"html-keyboard-response","110","175759","0.0-9.0-0.22","613d091096ca434d703f77c5","64b003020eef62ee308107cc","64b10bd20f5721e9bb714b97","null","null","<p style=""font-size: 60px; font-family: BACS"">lRckADOAK</p>","","","","","","","",""
"html-keyboard-response","111","176764","0.0-9.0-0.23","613d091096ca434d703f77c5","64b003020eef62ee308107cc","64b10bd20f5721e9bb714b97","null","null","<p style=""font-size: 60px; font-family: BACS"">UdYUQcbm</p>","","","","","","","",""
"html-keyboard-response","112","177777","0.0-9.0-0.24","613d091096ca434d703f77c5","64b003020eef62ee308107cc","64b10bd20f5721e9bb714b97","null","null","<p style=""font-size: 60px; font-family: BACS"">uvaUYkZ</p>","","","","","","","",""
"html-keyboard-response","113","178787","0.0-9.0-0.25","613d091096ca434d703f77c5","64b003020eef62ee308107cc","64b10bd20f5721e9bb714b97","null","null","<p style=""font-size: 60px; font-family: BACS"">ODBDAlMck</p>","","","","","","","",""
"html-keyboard-response","114","179789","0.0-9.0-0.26","613d091096ca434d703f77c5","64b003020eef62ee308107cc","64b10bd20f5721e9bb714b97","null","null","<p style=""font-size: 60px; font-family: BACS"">UdYUQYkZ</p>","","","","","","","",""
"html-keyboard-response","115","180790","0.0-9.0-0.27","613d091096ca434d703f77c5","64b003020eef62ee308107cc","64b10bd20f5721e9bb714b97","null","null","<p style=""font-size: 60px; font-family: BACS"">LdQvmLJ</p>","","","","","","","",""
"html-keyboard-response","116","181803","0.0-9.0-0.28","613d091096ca434d703f77c5","64b003020eef62ee308107cc","64b10bd20f5721e9bb714b97","null","null","<p style=""font-size: 60px; font-family: BACS"">hlctEPMYm</p>","","","","","","","",""
"html-keyboard-response","117","182812","0.0-9.0-0.29","613d091096ca434d703f77c5","64b003020eef62ee308107cc","64b10bd20f5721e9bb714b97","null","null","<p style=""font-size: 60px; font-family: BACS"">bvkrYkZ</p>","","","","","","","",""
"html-keyboard-response","118","183821","0.0-9.0-0.30","613d091096ca434d703f77c5","64b003020eef62ee308107cc","64b10bd20f5721e9bb714b97","null","null","<p style=""font-size: 60px; font-family: BACS"">YOaAbcbm</p>","","","","","","","",""
"html-keyboard-response","119","184824","0.0-9.0-0.31","613d091096ca434d703f77c5","64b003020eef62ee308107cc","64b10bd20f5721e9bb714b97","null","null","<p style=""font-size: 60px; font-family: BACS"">ODBDADOAK</p>","","","","","","","",""
"html-keyboard-response","120","185837","0.0-9.0-0.32","613d091096ca434d703f77c5","64b003020eef62ee308107cc","64b10bd20f5721e9bb714b97","null","null","<p style=""font-size: 60px; font-family: BACS"">OAmGrcbm</p>","","","","","","","",""
"html-keyboard-response","121","186839","0.0-9.0-0.33","613d091096ca434d703f77c5","64b003020eef62ee308107cc","64b10bd20f5721e9bb714b97","null","null","<p style=""font-size: 60px; font-family: BACS"">dvNvAmLJ</p>","","","","","","","",""
"html-keyboard-response","122","187844","0.0-9.0-0.34","613d091096ca434d703f77c5","64b003020eef62ee308107cc","64b10bd20f5721e9bb714b97","null","null","<p style=""font-size: 60px; font-family: BACS"">hlctElMck</p>","","","","","","","",""
"html-keyboard-response","123","188853","0.0-9.0-0.35","613d091096ca434d703f77c5","64b003020eef62ee308107cc","64b10bd20f5721e9bb714b97","null","null","<p style=""font-size: 60px; font-family: BACS"">tDPRkKOYC</p>","","","","","","","",""
"html-keyboard-response","124","189868","0.0-9.0-0.36","613d091096ca434d703f77c5","64b003020eef62ee308107cc","64b10bd20f5721e9bb714b97","null","null","<p style=""font-size: 60px; font-family: BACS"">LdQvcbm</p>","","","","","","","",""
"html-keyboard-response","125","190873","0.0-9.0-0.37","613d091096ca434d703f77c5","64b003020eef62ee308107cc","64b10bd20f5721e9bb714b97","null","null","<p style=""font-size: 60px; font-family: BACS"">YlCPBPMYm</p>","","","","","","","",""
"html-keyboard-response","126","191886","0.0-9.0-0.38","613d091096ca434d703f77c5","64b003020eef62ee308107cc","64b10bd20f5721e9bb714b97","null","null","<p style=""font-size: 60px; font-family: BACS"">RKYklMck</p>","","","","","","","",""
"html-keyboard-response","127","192892","0.0-9.0-0.39","613d091096ca434d703f77c5","64b003020eef62ee308107cc","64b10bd20f5721e9bb714b97","null","null","<p style=""font-size: 60px; font-family: BACS"">LuNZmZb</p>","","","","","","","",""
"html-keyboard-response","128","193905","0.0-9.0-0.40","613d091096ca434d703f77c5","64b003020eef62ee308107cc","64b10bd20f5721e9bb714b97","null","null","<p style=""font-size: 60px; font-family: BACS"">laYmrYkZ</p>","","","","","","","",""
"html-keyboard-response","129","194920","0.0-9.0-0.41","613d091096ca434d703f77c5","64b003020eef62ee308107cc","64b10bd20f5721e9bb714b97","null","null","<p style=""font-size: 60px; font-family: BACS"">PEtEDOAK</p>","","","","","","","",""
"html-keyboard-response","130","195932","0.0-9.0-0.42","613d091096ca434d703f77c5","64b003020eef62ee308107cc","64b10bd20f5721e9bb714b97","null","null","<p style=""font-size: 60px; font-family: BACS"">LdQvYkZ</p>","","","","","","","",""
"html-keyboard-response","131","196946","0.0-9.0-0.43","613d091096ca434d703f77c5","64b003020eef62ee308107cc","64b10bd20f5721e9bb714b97","null","null","<p style=""font-size: 60px; font-family: BACS"">RKYkKOYC</p>","","","","","","","",""
"html-keyboard-response","132","197947","0.0-9.0-0.44","613d091096ca434d703f77c5","64b003020eef62ee308107cc","64b10bd20f5721e9bb714b97","null","null","<p style=""font-size: 60px; font-family: BACS"">lRckAlMck</p>","","","","","","","",""
"html-keyboard-response","133","198953","0.0-9.0-0.45","613d091096ca434d703f77c5","64b003020eef62ee308107cc","64b10bd20f5721e9bb714b97","null","null","<p style=""font-size: 60px; font-family: BACS"">uvaUmLJ</p>","","","","","","","",""
"html-keyboard-response","134","199964","0.0-9.0-0.46","613d091096ca434d703f77c5","64b003020eef62ee308107cc","64b10bd20f5721e9bb714b97","null","null","<p style=""font-size: 60px; font-family: BACS"">hlctEDKP</p>","","","","","","","",""
"html-keyboard-response","135","200969","0.0-9.0-0.47","613d091096ca434d703f77c5","64b003020eef62ee308107cc","64b10bd20f5721e9bb714b97","null","null","<p style=""font-size: 60px; font-family: BACS"">RKYkPMYm</p>","","","","","","","",""
"html-keyboard-response","136","201981","0.0-9.0-0.48","613d091096ca434d703f77c5","64b003020eef62ee308107cc","64b10bd20f5721e9bb714b97","null","null","<p style=""font-size: 60px; font-family: BACS"">uvaUYZJO</p>","","","","","","","",""
"html-keyboard-response","137","202983","0.0-9.0-0.49","613d091096ca434d703f77c5","64b003020eef62ee308107cc","64b10bd20f5721e9bb714b97","null","null","<p style=""font-size: 60px; font-family: BACS"">tDPRkDKP</p>","","","","","","","",""
"html-keyboard-response","138","203983","0.0-9.0-0.50","613d091096ca434d703f77c5","64b003020eef62ee308107cc","64b10bd20f5721e9bb714b97","null","null","<p style=""font-size: 60px; font-family: BACS"">laYmrmZb</p>","","","","","","","",""
"html-keyboard-response","139","204988","0.0-9.0-0.51","613d091096ca434d703f77c5","64b003020eef62ee308107cc","64b10bd20f5721e9bb714b97","null","null","<p style=""font-size: 60px; font-family: BACS"">hYDmtlMck</p>","","","","","","","",""
"html-keyboard-response","140","205997","0.0-9.0-0.52","613d091096ca434d703f77c5","64b003020eef62ee308107cc","64b10bd20f5721e9bb714b97","null","null","<p style=""font-size: 60px; font-family: BACS"">LuNZmLJ</p>","","","","","","","",""
"html-keyboard-response","141","207008","0.0-9.0-0.53","613d091096ca434d703f77c5","64b003020eef62ee308107cc","64b10bd20f5721e9bb714b97","null","null","<p style=""font-size: 60px; font-family: BACS"">blMklMck</p>","","","","","","","",""
"html-keyboard-response","142","208021","0.0-9.0-0.54","613d091096ca434d703f77c5","64b003020eef62ee308107cc","64b10bd20f5721e9bb714b97","null","null","<p style=""font-size: 60px; font-family: BACS"">YOaAbYkZ</p>","","","","","","","",""
"html-keyboard-response","143","209023","0.0-9.0-0.55","613d091096ca434d703f77c5","64b003020eef62ee308107cc","64b10bd20f5721e9bb714b97","null","null","<p style=""font-size: 60px; font-family: BACS"">YlCPBDKP</p>","","","","","","","",""
"html-keyboard-response","144","210036","0.0-9.0-0.56","613d091096ca434d703f77c5","64b003020eef62ee308107cc","64b10bd20f5721e9bb714b97","null","null","<p style=""font-size: 60px; font-family: BACS"">tDPRklMck</p>","","","","","","","",""
"html-keyboard-response","145","211045","0.0-9.0-0.57","613d091096ca434d703f77c5","64b003020eef62ee308107cc","64b10bd20f5721e9bb714b97","null","null","<p style=""font-size: 60px; font-family: BACS"">hYDmtDOAK</p>","","","","","","","",""
"html-keyboard-response","146","212055","0.0-9.0-0.58","613d091096ca434d703f77c5","64b003020eef62ee308107cc","64b10bd20f5721e9bb714b97","null","null","<p style=""font-size: 60px; font-family: BACS"">bvkrcbm</p>","","","","","","","",""
"html-keyboard-response","147","213064","0.0-9.0-0.59","613d091096ca434d703f77c5","64b003020eef62ee308107cc","64b10bd20f5721e9bb714b97","null","null","<p style=""font-size: 60px; font-family: BACS"">dvNvAmZb</p>","","","","","","","",""
"html-keyboard-response","148","214068","0.0-9.0-0.60","613d091096ca434d703f77c5","64b003020eef62ee308107cc","64b10bd20f5721e9bb714b97","null","null","<p style=""font-size: 60px; font-family: BACS"">AdDbDOAK</p>","","","","","","","",""
"html-keyboard-response","149","215077","0.0-9.0-0.61","613d091096ca434d703f77c5","64b003020eef62ee308107cc","64b10bd20f5721e9bb714b97","null","null","<p style=""font-size: 60px; font-family: BACS"">PEtEPMYm</p>","","","","","","","",""
"html-keyboard-response","150","216092","0.0-9.0-0.62","613d091096ca434d703f77c5","64b003020eef62ee308107cc","64b10bd20f5721e9bb714b97","null","null","<p style=""font-size: 60px; font-family: BACS"">hYDmtDKP</p>","","","","","","","",""
"html-keyboard-response","151","217100","0.0-9.0-0.63","613d091096ca434d703f77c5","64b003020eef62ee308107cc","64b10bd20f5721e9bb714b97","null","null","<p style=""font-size: 60px; font-family: BACS"">AdDbPMYm</p>","","","","","","","",""
"html-keyboard-response","152","218106","0.0-9.0-0.64","613d091096ca434d703f77c5","64b003020eef62ee308107cc","64b10bd20f5721e9bb714b97","null","null","<p style=""font-size: 60px; font-family: BACS"">UdYUQmLJ</p>","","","","","","","",""
"html-keyboard-response","153","219112","0.0-9.0-0.65","613d091096ca434d703f77c5","64b003020eef62ee308107cc","64b10bd20f5721e9bb714b97","null","null","<p style=""font-size: 60px; font-family: BACS"">AdDbDKP</p>","","","","","","","",""
"html-keyboard-response","154","220121","0.0-9.0-0.66","613d091096ca434d703f77c5","64b003020eef62ee308107cc","64b10bd20f5721e9bb714b97","null","null","<p style=""font-size: 60px; font-family: BACS"">aNYmbcbm</p>","","","","","","","",""
"html-keyboard-response","155","221129","0.0-9.0-0.67","613d091096ca434d703f77c5","64b003020eef62ee308107cc","64b10bd20f5721e9bb714b97","null","null","<p style=""font-size: 60px; font-family: BACS"">PEtEKOYC</p>","","","","","","","",""
"html-keyboard-response","156","222135","0.0-9.0-0.68","613d091096ca434d703f77c5","64b003020eef62ee308107cc","64b10bd20f5721e9bb714b97","null","null","<p style=""font-size: 60px; font-family: BACS"">aNYmbYZJO</p>","","","","","","","",""
"html-keyboard-response","157","223144","0.0-9.0-0.69","613d091096ca434d703f77c5","64b003020eef62ee308107cc","64b10bd20f5721e9bb714b97","null","null","<p style=""font-size: 60px; font-family: BACS"">lRckADKP</p>","","","","","","","",""
"html-keyboard-response","158","224158","0.0-9.0-0.70","613d091096ca434d703f77c5","64b003020eef62ee308107cc","64b10bd20f5721e9bb714b97","null","null","<p style=""font-size: 60px; font-family: BACS"">dvNvAYkZ</p>","","","","","","","",""
"html-keyboard-response","159","225163","0.0-9.0-0.71","613d091096ca434d703f77c5","64b003020eef62ee308107cc","64b10bd20f5721e9bb714b97","null","null","<p style=""font-size: 60px; font-family: BACS"">OAmGrYZJO</p>","","","","","","","",""
"html-keyboard-response","160","226169","0.0-9.0-0.72","613d091096ca434d703f77c5","64b003020eef62ee308107cc","64b10bd20f5721e9bb714b97","null","null","<p style=""font-size: 60px; font-family: BACS"">YOaAbmLJ</p>","","","","","","","",""
"html-keyboard-response","161","227179","0.0-9.0-0.73","613d091096ca434d703f77c5","64b003020eef62ee308107cc","64b10bd20f5721e9bb714b97","null","null","<p style=""font-size: 60px; font-family: BACS"">laYmrcbm</p>","","","","","","","",""
"html-keyboard-response","162","228188","0.0-9.0-0.74","613d091096ca434d703f77c5","64b003020eef62ee308107cc","64b10bd20f5721e9bb714b97","null","null","<p style=""font-size: 60px; font-family: BACS"">OAmGrmLJ</p>","","","","","","","",""
"html-keyboard-response","163","229202","0.0-9.0-0.75","613d091096ca434d703f77c5","64b003020eef62ee308107cc","64b10bd20f5721e9bb714b97","null","null","<p style=""font-size: 60px; font-family: BACS"">blMkKOYC</p>","","","","","","","",""
"html-keyboard-response","164","230205","0.0-9.0-0.76","613d091096ca434d703f77c5","64b003020eef62ee308107cc","64b10bd20f5721e9bb714b97","null","null","<p style=""font-size: 60px; font-family: BACS"">hlctEDOAK</p>","","","","","","","",""
"html-keyboard-response","165","231207","0.0-9.0-0.77","613d091096ca434d703f77c5","64b003020eef62ee308107cc","64b10bd20f5721e9bb714b97","null","null","<p style=""font-size: 60px; font-family: BACS"">lRckAKOYC</p>","","","","","","","",""
"html-keyboard-response","166","232208","0.0-9.0-0.78","613d091096ca434d703f77c5","64b003020eef62ee308107cc","64b10bd20f5721e9bb714b97","null","null","<p style=""font-size: 60px; font-family: BACS"">YOaAbYZJO</p>","","","","","","","",""
"html-keyboard-response","167","233213","0.0-9.0-0.79","613d091096ca434d703f77c5","64b003020eef62ee308107cc","64b10bd20f5721e9bb714b97","null","null","<p style=""font-size: 60px; font-family: BACS"">OAmGrmZb</p>","","","","","","","",""
"html-keyboard-response","168","256018","0.0-10.0","613d091096ca434d703f77c5","64b003020eef62ee308107cc","64b10bd20f5721e9bb714b97","22803"," ","<p>Ottimo, hai visto il secondo blocco di parole. Ora puoi prenderti una piccola pausa.</p>
      <p>Premi la barra quando sei pronta/o per riprendere.</p>","","","","","","","",""
"html-keyboard-response","169","257028","0.0-11.0-0.0","613d091096ca434d703f77c5","64b003020eef62ee308107cc","64b10bd20f5721e9bb714b97","null","null","<p style=""font-size: 60px; font-family: BACS"">RKYkDKP</p>","","","","","","","",""
"html-keyboard-response","170","258038","0.0-11.0-0.1","613d091096ca434d703f77c5","64b003020eef62ee308107cc","64b10bd20f5721e9bb714b97","null","null","<p style=""font-size: 60px; font-family: BACS"">YOaAbYkZ</p>","","","","","","","",""
"html-keyboard-response","171","259041","0.0-11.0-0.2","613d091096ca434d703f77c5","64b003020eef62ee308107cc","64b10bd20f5721e9bb714b97","null","null","<p style=""font-size: 60px; font-family: BACS"">blMkKOYC</p>","","","","","","","",""
"html-keyboard-response","172","260051","0.0-11.0-0.3","613d091096ca434d703f77c5","64b003020eef62ee308107cc","64b10bd20f5721e9bb714b97","null","null","<p style=""font-size: 60px; font-family: BACS"">dvNvAcbm</p>","","","","","","","",""
"html-keyboard-response","173","261065","0.0-11.0-0.4","613d091096ca434d703f77c5","64b003020eef62ee308107cc","64b10bd20f5721e9bb714b97","null","null","<p style=""font-size: 60px; font-family: BACS"">LuNZYZJO</p>","","","","","","","",""
"html-keyboard-response","174","262079","0.0-11.0-0.5","613d091096ca434d703f77c5","64b003020eef62ee308107cc","64b10bd20f5721e9bb714b97","null","null","<p style=""font-size: 60px; font-family: BACS"">AdDbDKP</p>","","","","","","","",""
"html-keyboard-response","175","263085","0.0-11.0-0.6","613d091096ca434d703f77c5","64b003020eef62ee308107cc","64b10bd20f5721e9bb714b97","null","null","<p style=""font-size: 60px; font-family: BACS"">hlctEPMYm</p>","","","","","","","",""
"html-keyboard-response","176","264110","0.0-11.0-0.7","613d091096ca434d703f77c5","64b003020eef62ee308107cc","64b10bd20f5721e9bb714b97","null","null","<p style=""font-size: 60px; font-family: BACS"">dvNvAYkZ</p>","","","","","","","",""
"html-keyboard-response","177","265124","0.0-11.0-0.8","613d091096ca434d703f77c5","64b003020eef62ee308107cc","64b10bd20f5721e9bb714b97","null","null","<p style=""font-size: 60px; font-family: BACS"">OAmGrmLJ</p>","","","","","","","",""
"html-keyboard-response","178","266125","0.0-11.0-0.9","613d091096ca434d703f77c5","64b003020eef62ee308107cc","64b10bd20f5721e9bb714b97","null","null","<p style=""font-size: 60px; font-family: BACS"">YOaAbYZJO</p>","","","","","","","",""
"html-keyboard-response","179","267125","0.0-11.0-0.10","613d091096ca434d703f77c5","64b003020eef62ee308107cc","64b10bd20f5721e9bb714b97","null","null","<p style=""font-size: 60px; font-family: BACS"">hYDmtDOAK</p>","","","","","","","",""
"html-keyboard-response","180","268126","0.0-11.0-0.11","613d091096ca434d703f77c5","64b003020eef62ee308107cc","64b10bd20f5721e9bb714b97","null","null","<p style=""font-size: 60px; font-family: BACS"">OAmGrYZJO</p>","","","","","","","",""
"html-keyboard-response","181","269126","0.0-11.0-0.12","613d091096ca434d703f77c5","64b003020eef62ee308107cc","64b10bd20f5721e9bb714b97","null","null","<p style=""font-size: 60px; font-family: BACS"">YlCPBKOYC</p>","","","","","","","",""
"html-keyboard-response","182","270127","0.0-11.0-0.13","613d091096ca434d703f77c5","64b003020eef62ee308107cc","64b10bd20f5721e9bb714b97","null","null","<p style=""font-size: 60px; font-family: BACS"">YOaAbcbm</p>","","","","","","","",""
"html-keyboard-response","183","271141","0.0-11.0-0.14","613d091096ca434d703f77c5","64b003020eef62ee308107cc","64b10bd20f5721e9bb714b97","null","null","<p style=""font-size: 60px; font-family: BACS"">hYDmtPMYm</p>","","","","","","","",""
"html-keyboard-response","184","272142","0.0-11.0-0.15","613d091096ca434d703f77c5","64b003020eef62ee308107cc","64b10bd20f5721e9bb714b97","null","null","<p style=""font-size: 60px; font-family: BACS"">OAmGrmZb</p>","","","","","","","",""
"html-keyboard-response","185","273142","0.0-11.0-0.16","613d091096ca434d703f77c5","64b003020eef62ee308107cc","64b10bd20f5721e9bb714b97","null","null","<p style=""font-size: 60px; font-family: BACS"">uvaUYZJO</p>","","","","","","","",""
"html-keyboard-response","186","274146","0.0-11.0-0.17","613d091096ca434d703f77c5","64b003020eef62ee308107cc","64b10bd20f5721e9bb714b97","null","null","<p style=""font-size: 60px; font-family: BACS"">laYmrcbm</p>","","","","","","","",""
"html-keyboard-response","187","275150","0.0-11.0-0.18","613d091096ca434d703f77c5","64b003020eef62ee308107cc","64b10bd20f5721e9bb714b97","null","null","<p style=""font-size: 60px; font-family: BACS"">aNYmbYZJO</p>","","","","","","","",""
"html-keyboard-response","188","276161","0.0-11.0-0.19","613d091096ca434d703f77c5","64b003020eef62ee308107cc","64b10bd20f5721e9bb714b97","null","null","<p style=""font-size: 60px; font-family: BACS"">LdQvmLJ</p>","","","","","","","",""
"html-keyboard-response","189","277175","0.0-11.0-0.20","613d091096ca434d703f77c5","64b003020eef62ee308107cc","64b10bd20f5721e9bb714b97","null","null","<p style=""font-size: 60px; font-family: BACS"">laYmrYkZ</p>","","","","","","","",""
"html-keyboard-response","190","278178","0.0-11.0-0.21","613d091096ca434d703f77c5","64b003020eef62ee308107cc","64b10bd20f5721e9bb714b97","null","null","<p style=""font-size: 60px; font-family: BACS"">blMkDOAK</p>","","","","","","","",""
"html-keyboard-response","191","279194","0.0-11.0-0.22","613d091096ca434d703f77c5","64b003020eef62ee308107cc","64b10bd20f5721e9bb714b97","null","null","<p style=""font-size: 60px; font-family: BACS"">UdYUQYkZ</p>","","","","","","","",""
"html-keyboard-response","192","280197","0.0-11.0-0.23","613d091096ca434d703f77c5","64b003020eef62ee308107cc","64b10bd20f5721e9bb714b97","null","null","<p style=""font-size: 60px; font-family: BACS"">YlCPBPMYm</p>","","","","","","","",""
"html-keyboard-response","193","281214","0.0-11.0-0.24","613d091096ca434d703f77c5","64b003020eef62ee308107cc","64b10bd20f5721e9bb714b97","null","null","<p style=""font-size: 60px; font-family: BACS"">lRckAlMck</p>","","","","","","","",""
"html-keyboard-response","194","282225","0.0-11.0-0.25","613d091096ca434d703f77c5","64b003020eef62ee308107cc","64b10bd20f5721e9bb714b97","null","null","<p style=""font-size: 60px; font-family: BACS"">UdYUQcbm</p>","","","","","","","",""
"html-keyboard-response","195","283236","0.0-11.0-0.26","613d091096ca434d703f77c5","64b003020eef62ee308107cc","64b10bd20f5721e9bb714b97","null","null","<p style=""font-size: 60px; font-family: BACS"">PEtElMck</p>","","","","","","","",""
"html-keyboard-response","196","284244","0.0-11.0-0.27","613d091096ca434d703f77c5","64b003020eef62ee308107cc","64b10bd20f5721e9bb714b97","null","null","<p style=""font-size: 60px; font-family: BACS"">tDPRkDKP</p>","","","","","","","",""
"html-keyboard-response","197","285249","0.0-11.0-0.28","613d091096ca434d703f77c5","64b003020eef62ee308107cc","64b10bd20f5721e9bb714b97","null","null","<p style=""font-size: 60px; font-family: BACS"">LuNZmLJ</p>","","","","","","","",""
"html-keyboard-response","198","286250","0.0-11.0-0.29","613d091096ca434d703f77c5","64b003020eef62ee308107cc","64b10bd20f5721e9bb714b97","null","null","<p style=""font-size: 60px; font-family: BACS"">AdDbKOYC</p>","","","","","","","",""
"html-keyboard-response","199","287260","0.0-11.0-0.30","613d091096ca434d703f77c5","64b003020eef62ee308107cc","64b10bd20f5721e9bb714b97","null","null","<p style=""font-size: 60px; font-family: BACS"">tDPRkPMYm</p>","","","","","","","",""
"html-keyboard-response","200","288274","0.0-11.0-0.31","613d091096ca434d703f77c5","64b003020eef62ee308107cc","64b10bd20f5721e9bb714b97","null","null","<p style=""font-size: 60px; font-family: BACS"">LdQvYkZ</p>","","","","","","","",""
"html-keyboard-response","201","289288","0.0-11.0-0.32","613d091096ca434d703f77c5","64b003020eef62ee308107cc","64b10bd20f5721e9bb714b97","null","null","<p style=""font-size: 60px; font-family: BACS"">hYDmtlMck</p>","","","","","","","",""
"html-keyboard-response","202","290300","0.0-11.0-0.33","613d091096ca434d703f77c5","64b003020eef62ee308107cc","64b10bd20f5721e9bb714b97","null","null","<p style=""font-size: 60px; font-family: BACS"">laYmrmZb</p>","","","","","","","",""
"html-keyboard-response","203","291314","0.0-11.0-0.34","613d091096ca434d703f77c5","64b003020eef62ee308107cc","64b10bd20f5721e9bb714b97","null","null","<p style=""font-size: 60px; font-family: BACS"">ODBDAKOYC</p>","","","","","","","",""
"html-keyboard-response","204","292320","0.0-11.0-0.35","613d091096ca434d703f77c5","64b003020eef62ee308107cc","64b10bd20f5721e9bb714b97","null","null","<p style=""font-size: 60px; font-family: BACS"">YOaAbmLJ</p>","","","","","","","",""
"html-keyboard-response","205","293321","0.0-11.0-0.36","613d091096ca434d703f77c5","64b003020eef62ee308107cc","64b10bd20f5721e9bb714b97","null","null","<p style=""font-size: 60px; font-family: BACS"">RKYkPMYm</p>","","","","","","","",""
"html-keyboard-response","206","294328","0.0-11.0-0.37","613d091096ca434d703f77c5","64b003020eef62ee308107cc","64b10bd20f5721e9bb714b97","null","null","<p style=""font-size: 60px; font-family: BACS"">hlctEDOAK</p>","","","","","","","",""
"html-keyboard-response","207","295343","0.0-11.0-0.38","613d091096ca434d703f77c5","64b003020eef62ee308107cc","64b10bd20f5721e9bb714b97","null","null","<p style=""font-size: 60px; font-family: BACS"">blMkPMYm</p>","","","","","","","",""
"html-keyboard-response","208","296359","0.0-11.0-0.39","613d091096ca434d703f77c5","64b003020eef62ee308107cc","64b10bd20f5721e9bb714b97","null","null","<p style=""font-size: 60px; font-family: BACS"">tDPRklMck</p>","","","","","","","",""
"html-keyboard-response","209","297366","0.0-11.0-0.40","613d091096ca434d703f77c5","64b003020eef62ee308107cc","64b10bd20f5721e9bb714b97","null","null","<p style=""font-size: 60px; font-family: BACS"">ODBDADOAK</p>","","","","","","","",""
"html-keyboard-response","210","298380","0.0-11.0-0.41","613d091096ca434d703f77c5","64b003020eef62ee308107cc","64b10bd20f5721e9bb714b97","null","null","<p style=""font-size: 60px; font-family: BACS"">LdQvcbm</p>","","","","","","","",""
"html-keyboard-response","211","299394","0.0-11.0-0.42","613d091096ca434d703f77c5","64b003020eef62ee308107cc","64b10bd20f5721e9bb714b97","null","null","<p style=""font-size: 60px; font-family: BACS"">aNYmbmZb</p>","","","","","","","",""
"html-keyboard-response","212","300407","0.0-11.0-0.43","613d091096ca434d703f77c5","64b003020eef62ee308107cc","64b10bd20f5721e9bb714b97","null","null","<p style=""font-size: 60px; font-family: BACS"">bvkrYZJO</p>","","","","","","","",""
"html-keyboard-response","213","301423","0.0-11.0-0.44","613d091096ca434d703f77c5","64b003020eef62ee308107cc","64b10bd20f5721e9bb714b97","null","null","<p style=""font-size: 60px; font-family: BACS"">AdDbDOAK</p>","","","","","","","",""
"html-keyboard-response","214","302435","0.0-11.0-0.45","613d091096ca434d703f77c5","64b003020eef62ee308107cc","64b10bd20f5721e9bb714b97","null","null","<p style=""font-size: 60px; font-family: BACS"">lRckADKP</p>","","","","","","","",""
"html-keyboard-response","215","303440","0.0-11.0-0.46","613d091096ca434d703f77c5","64b003020eef62ee308107cc","64b10bd20f5721e9bb714b97","null","null","<p style=""font-size: 60px; font-family: BACS"">RKYkKOYC</p>","","","","","","","",""
"html-keyboard-response","216","304454","0.0-11.0-0.47","613d091096ca434d703f77c5","64b003020eef62ee308107cc","64b10bd20f5721e9bb714b97","null","null","<p style=""font-size: 60px; font-family: BACS"">uvaUmLJ</p>","","","","","","","",""
"html-keyboard-response","217","305461","0.0-11.0-0.48","613d091096ca434d703f77c5","64b003020eef62ee308107cc","64b10bd20f5721e9bb714b97","null","null","<p style=""font-size: 60px; font-family: BACS"">AdDbPMYm</p>","","","","","","","",""
"html-keyboard-response","218","306469","0.0-11.0-0.49","613d091096ca434d703f77c5","64b003020eef62ee308107cc","64b10bd20f5721e9bb714b97","null","null","<p style=""font-size: 60px; font-family: BACS"">UdYUQmZb</p>","","","","","","","",""
"html-keyboard-response","219","307471","0.0-11.0-0.50","613d091096ca434d703f77c5","64b003020eef62ee308107cc","64b10bd20f5721e9bb714b97","null","null","<p style=""font-size: 60px; font-family: BACS"">YlCPBDOAK</p>","","","","","","","",""
"html-keyboard-response","220","308482","0.0-11.0-0.51","613d091096ca434d703f77c5","64b003020eef62ee308107cc","64b10bd20f5721e9bb714b97","null","null","<p style=""font-size: 60px; font-family: BACS"">LuNZmZb</p>","","","","","","","",""
"html-keyboard-response","221","309489","0.0-11.0-0.52","613d091096ca434d703f77c5","64b003020eef62ee308107cc","64b10bd20f5721e9bb714b97","null","null","<p style=""font-size: 60px; font-family: BACS"">aNYmbcbm</p>","","","","","","","",""
"html-keyboard-response","222","310502","0.0-11.0-0.53","613d091096ca434d703f77c5","64b003020eef62ee308107cc","64b10bd20f5721e9bb714b97","null","null","<p style=""font-size: 60px; font-family: BACS"">uvaUYkZ</p>","","","","","","","",""
"html-keyboard-response","223","311512","0.0-11.0-0.54","613d091096ca434d703f77c5","64b003020eef62ee308107cc","64b10bd20f5721e9bb714b97","null","null","<p style=""font-size: 60px; font-family: BACS"">hYDmtDKP</p>","","","","","","","",""
"html-keyboard-response","224","312513","0.0-11.0-0.55","613d091096ca434d703f77c5","64b003020eef62ee308107cc","64b10bd20f5721e9bb714b97","null","null","<p style=""font-size: 60px; font-family: BACS"">bvkrmZb</p>","","","","","","","",""
"html-keyboard-response","225","313522","0.0-11.0-0.56","613d091096ca434d703f77c5","64b003020eef62ee308107cc","64b10bd20f5721e9bb714b97","null","null","<p style=""font-size: 60px; font-family: BACS"">laYmrYZJO</p>","","","","","","","",""
"html-keyboard-response","226","314527","0.0-11.0-0.57","613d091096ca434d703f77c5","64b003020eef62ee308107cc","64b10bd20f5721e9bb714b97","null","null","<p style=""font-size: 60px; font-family: BACS"">hlctEDKP</p>","","","","","","","",""
"html-keyboard-response","227","315534","0.0-11.0-0.58","613d091096ca434d703f77c5","64b003020eef62ee308107cc","64b10bd20f5721e9bb714b97","null","null","<p style=""font-size: 60px; font-family: BACS"">bvkrcbm</p>","","","","","","","",""
"html-keyboard-response","228","316541","0.0-11.0-0.59","613d091096ca434d703f77c5","64b003020eef62ee308107cc","64b10bd20f5721e9bb714b97","null","null","<p style=""font-size: 60px; font-family: BACS"">blMklMck</p>","","","","","","","",""
"html-keyboard-response","229","317542","0.0-11.0-0.60","613d091096ca434d703f77c5","64b003020eef62ee308107cc","64b10bd20f5721e9bb714b97","null","null","<p style=""font-size: 60px; font-family: BACS"">LdQvYZJO</p>","","","","","","","",""
"html-keyboard-response","230","318550","0.0-11.0-0.61","613d091096ca434d703f77c5","64b003020eef62ee308107cc","64b10bd20f5721e9bb714b97","null","null","<p style=""font-size: 60px; font-family: BACS"">UdYUQmLJ</p>","","","","","","","",""
"html-keyboard-response","231","319557","0.0-11.0-0.62","613d091096ca434d703f77c5","64b003020eef62ee308107cc","64b10bd20f5721e9bb714b97","null","null","<p style=""font-size: 60px; font-family: BACS"">hlctElMck</p>","","","","","","","",""
"html-keyboard-response","232","320564","0.0-11.0-0.63","613d091096ca434d703f77c5","64b003020eef62ee308107cc","64b10bd20f5721e9bb714b97","null","null","<p style=""font-size: 60px; font-family: BACS"">lRckADOAK</p>","","","","","","","",""
"html-keyboard-response","233","321576","0.0-11.0-0.64","613d091096ca434d703f77c5","64b003020eef62ee308107cc","64b10bd20f5721e9bb714b97","null","null","<p style=""font-size: 60px; font-family: BACS"">dvNvAmLJ</p>","","","","","","","",""
"html-keyboard-response","234","322580","0.0-11.0-0.65","613d091096ca434d703f77c5","64b003020eef62ee308107cc","64b10bd20f5721e9bb714b97","null","null","<p style=""font-size: 60px; font-family: BACS"">lRckAKOYC</p>","","","","","","","",""
"html-keyboard-response","235","323595","0.0-11.0-0.66","613d091096ca434d703f77c5","64b003020eef62ee308107cc","64b10bd20f5721e9bb714b97","null","null","<p style=""font-size: 60px; font-family: BACS"">OAmGrcbm</p>","","","","","","","",""
"html-keyboard-response","236","324599","0.0-11.0-0.67","613d091096ca434d703f77c5","64b003020eef62ee308107cc","64b10bd20f5721e9bb714b97","null","null","<p style=""font-size: 60px; font-family: BACS"">PEtEKOYC</p>","","","","","","","",""
"html-keyboard-response","237","325603","0.0-11.0-0.68","613d091096ca434d703f77c5","64b003020eef62ee308107cc","64b10bd20f5721e9bb714b97","null","null","<p style=""font-size: 60px; font-family: BACS"">aNYmbmLJ</p>","","","","","","","",""
"html-keyboard-response","238","326617","0.0-11.0-0.69","613d091096ca434d703f77c5","64b003020eef62ee308107cc","64b10bd20f5721e9bb714b97","null","null","<p style=""font-size: 60px; font-family: BACS"">RKYklMck</p>","","","","","","","",""
"html-keyboard-response","239","327626","0.0-11.0-0.70","613d091096ca434d703f77c5","64b003020eef62ee308107cc","64b10bd20f5721e9bb714b97","null","null","<p style=""font-size: 60px; font-family: BACS"">tDPRkKOYC</p>","","","","","","","",""
"html-keyboard-response","240","328634","0.0-11.0-0.71","613d091096ca434d703f77c5","64b003020eef62ee308107cc","64b10bd20f5721e9bb714b97","null","null","<p style=""font-size: 60px; font-family: BACS"">YlCPBDKP</p>","","","","","","","",""
"html-keyboard-response","241","329640","0.0-11.0-0.72","613d091096ca434d703f77c5","64b003020eef62ee308107cc","64b10bd20f5721e9bb714b97","null","null","<p style=""font-size: 60px; font-family: BACS"">PEtEPMYm</p>","","","","","","","",""
"html-keyboard-response","242","330649","0.0-11.0-0.73","613d091096ca434d703f77c5","64b003020eef62ee308107cc","64b10bd20f5721e9bb714b97","null","null","<p style=""font-size: 60px; font-family: BACS"">uvaUmZb</p>","","","","","","","",""
"html-keyboard-response","243","331651","0.0-11.0-0.74","613d091096ca434d703f77c5","64b003020eef62ee308107cc","64b10bd20f5721e9bb714b97","null","null","<p style=""font-size: 60px; font-family: BACS"">PEtEDOAK</p>","","","","","","","",""
"html-keyboard-response","244","332653","0.0-11.0-0.75","613d091096ca434d703f77c5","64b003020eef62ee308107cc","64b10bd20f5721e9bb714b97","null","null","<p style=""font-size: 60px; font-family: BACS"">ODBDADKP</p>","","","","","","","",""
"html-keyboard-response","245","333672","0.0-11.0-0.76","613d091096ca434d703f77c5","64b003020eef62ee308107cc","64b10bd20f5721e9bb714b97","null","null","<p style=""font-size: 60px; font-family: BACS"">dvNvAmZb</p>","","","","","","","",""
"html-keyboard-response","246","334685","0.0-11.0-0.77","613d091096ca434d703f77c5","64b003020eef62ee308107cc","64b10bd20f5721e9bb714b97","null","null","<p style=""font-size: 60px; font-family: BACS"">bvkrYkZ</p>","","","","","","","",""
"html-keyboard-response","247","335698","0.0-11.0-0.78","613d091096ca434d703f77c5","64b003020eef62ee308107cc","64b10bd20f5721e9bb714b97","null","null","<p style=""font-size: 60px; font-family: BACS"">ODBDAlMck</p>","","","","","","","",""
"html-keyboard-response","248","336705","0.0-11.0-0.79","613d091096ca434d703f77c5","64b003020eef62ee308107cc","64b10bd20f5721e9bb714b97","null","null","<p style=""font-size: 60px; font-family: BACS"">LuNZYkZ</p>","","","","","","","",""
"html-keyboard-response","249","412478","0.0-12.0","613d091096ca434d703f77c5","64b003020eef62ee308107cc","64b10bd20f5721e9bb714b97","75771"," ","<p>Ottimo, hai visto il terzo blocco di parole. Ora puoi prenderti una piccola pausa.</p>
      <p>Premi la barra quando sei pronta/o per riprendere.</p>","","","","","","","",""
"html-keyboard-response","250","413491","0.0-13.0-0.0","613d091096ca434d703f77c5","64b003020eef62ee308107cc","64b10bd20f5721e9bb714b97","null","null","<p style=""font-size: 60px; font-family: BACS"">tDPRklMck</p>","","","","","","","",""
"html-keyboard-response","251","414492","0.0-13.0-0.1","613d091096ca434d703f77c5","64b003020eef62ee308107cc","64b10bd20f5721e9bb714b97","null","null","<p style=""font-size: 60px; font-family: BACS"">uvaUmZb</p>","","","","","","","",""
"html-keyboard-response","252","415505","0.0-13.0-0.2","613d091096ca434d703f77c5","64b003020eef62ee308107cc","64b10bd20f5721e9bb714b97","null","null","<p style=""font-size: 60px; font-family: BACS"">laYmrcbm</p>","","","","","","","",""
"html-keyboard-response","253","416506","0.0-13.0-0.3","613d091096ca434d703f77c5","64b003020eef62ee308107cc","64b10bd20f5721e9bb714b97","null","null","<p style=""font-size: 60px; font-family: BACS"">bvkrmZb</p>","","","","","","","",""
"html-keyboard-response","254","417509","0.0-13.0-0.4","613d091096ca434d703f77c5","64b003020eef62ee308107cc","64b10bd20f5721e9bb714b97","null","null","<p style=""font-size: 60px; font-family: BACS"">PEtEKOYC</p>","","","","","","","",""
"html-keyboard-response","255","418515","0.0-13.0-0.5","613d091096ca434d703f77c5","64b003020eef62ee308107cc","64b10bd20f5721e9bb714b97","null","null","<p style=""font-size: 60px; font-family: BACS"">hYDmtlMck</p>","","","","","","","",""
"html-keyboard-response","256","419520","0.0-13.0-0.6","613d091096ca434d703f77c5","64b003020eef62ee308107cc","64b10bd20f5721e9bb714b97","null","null","<p style=""font-size: 60px; font-family: BACS"">PEtEPMYm</p>","","","","","","","",""
"html-keyboard-response","257","420520","0.0-13.0-0.7","613d091096ca434d703f77c5","64b003020eef62ee308107cc","64b10bd20f5721e9bb714b97","null","null","<p style=""font-size: 60px; font-family: BACS"">aNYmbmLJ</p>","","","","","","","",""
"html-keyboard-response","258","421534","0.0-13.0-0.8","613d091096ca434d703f77c5","64b003020eef62ee308107cc","64b10bd20f5721e9bb714b97","null","null","<p style=""font-size: 60px; font-family: BACS"">YlCPBDOAK</p>","","","","","","","",""
"html-keyboard-response","259","422535","0.0-13.0-0.9","613d091096ca434d703f77c5","64b003020eef62ee308107cc","64b10bd20f5721e9bb714b97","null","null","<p style=""font-size: 60px; font-family: BACS"">LdQvcbm</p>","","","","","","","",""
"html-keyboard-response","260","423552","0.0-13.0-0.10","613d091096ca434d703f77c5","64b003020eef62ee308107cc","64b10bd20f5721e9bb714b97","null","null","<p style=""font-size: 60px; font-family: BACS"">RKYkKOYC</p>","","","","","","","",""
"html-keyboard-response","261","424567","0.0-13.0-0.11","613d091096ca434d703f77c5","64b003020eef62ee308107cc","64b10bd20f5721e9bb714b97","null","null","<p style=""font-size: 60px; font-family: BACS"">LuNZYkZ</p>","","","","","","","",""
"html-keyboard-response","262","425578","0.0-13.0-0.12","613d091096ca434d703f77c5","64b003020eef62ee308107cc","64b10bd20f5721e9bb714b97","null","null","<p style=""font-size: 60px; font-family: BACS"">UdYUQcbm</p>","","","","","","","",""
"html-keyboard-response","263","426588","0.0-13.0-0.13","613d091096ca434d703f77c5","64b003020eef62ee308107cc","64b10bd20f5721e9bb714b97","null","null","<p style=""font-size: 60px; font-family: BACS"">hYDmtDOAK</p>","","","","","","","",""
"html-keyboard-response","264","427598","0.0-13.0-0.14","613d091096ca434d703f77c5","64b003020eef62ee308107cc","64b10bd20f5721e9bb714b97","null","null","<p style=""font-size: 60px; font-family: BACS"">hlctElMck</p>","","","","","","","",""
"html-keyboard-response","265","428608","0.0-13.0-0.15","613d091096ca434d703f77c5","64b003020eef62ee308107cc","64b10bd20f5721e9bb714b97","null","null","<p style=""font-size: 60px; font-family: BACS"">bvkrYZJO</p>","","","","","","","",""
"html-keyboard-response","266","429620","0.0-13.0-0.16","613d091096ca434d703f77c5","64b003020eef62ee308107cc","64b10bd20f5721e9bb714b97","null","null","<p style=""font-size: 60px; font-family: BACS"">tDPRkKOYC</p>","","","","","","","",""
"html-keyboard-response","267","430631","0.0-13.0-0.17","613d091096ca434d703f77c5","64b003020eef62ee308107cc","64b10bd20f5721e9bb714b97","null","null","<p style=""font-size: 60px; font-family: BACS"">OAmGrcbm</p>","","","","","","","",""
"html-keyboard-response","268","431642","0.0-13.0-0.18","613d091096ca434d703f77c5","64b003020eef62ee308107cc","64b10bd20f5721e9bb714b97","null","null","<p style=""font-size: 60px; font-family: BACS"">lRckAlMck</p>","","","","","","","",""
"html-keyboard-response","269","432656","0.0-13.0-0.19","613d091096ca434d703f77c5","64b003020eef62ee308107cc","64b10bd20f5721e9bb714b97","null","null","<p style=""font-size: 60px; font-family: BACS"">AdDbPMYm</p>","","","","","","","",""
"html-keyboard-response","270","433668","0.0-13.0-0.20","613d091096ca434d703f77c5","64b003020eef62ee308107cc","64b10bd20f5721e9bb714b97","null","null","<p style=""font-size: 60px; font-family: BACS"">dvNvAcbm</p>","","","","","","","",""
"html-keyboard-response","271","434677","0.0-13.0-0.21","613d091096ca434d703f77c5","64b003020eef62ee308107cc","64b10bd20f5721e9bb714b97","null","null","<p style=""font-size: 60px; font-family: BACS"">LdQvmLJ</p>","","","","","","","",""
"html-keyboard-response","272","435685","0.0-13.0-0.22","613d091096ca434d703f77c5","64b003020eef62ee308107cc","64b10bd20f5721e9bb714b97","null","null","<p style=""font-size: 60px; font-family: BACS"">bvkrYkZ</p>","","","","","","","",""
"html-keyboard-response","273","436696","0.0-13.0-0.23","613d091096ca434d703f77c5","64b003020eef62ee308107cc","64b10bd20f5721e9bb714b97","null","null","<p style=""font-size: 60px; font-family: BACS"">tDPRkPMYm</p>","","","","","","","",""
"html-keyboard-response","274","437706","0.0-13.0-0.24","613d091096ca434d703f77c5","64b003020eef62ee308107cc","64b10bd20f5721e9bb714b97","null","null","<p style=""font-size: 60px; font-family: BACS"">LuNZYZJO</p>","","","","","","","",""
"html-keyboard-response","275","438713","0.0-13.0-0.25","613d091096ca434d703f77c5","64b003020eef62ee308107cc","64b10bd20f5721e9bb714b97","null","null","<p style=""font-size: 60px; font-family: BACS"">RKYkPMYm</p>","","","","","","","",""
"html-keyboard-response","276","439724","0.0-13.0-0.26","613d091096ca434d703f77c5","64b003020eef62ee308107cc","64b10bd20f5721e9bb714b97","null","null","<p style=""font-size: 60px; font-family: BACS"">YOaAbmLJ</p>","","","","","","","",""
"html-keyboard-response","277","440725","0.0-13.0-0.27","613d091096ca434d703f77c5","64b003020eef62ee308107cc","64b10bd20f5721e9bb714b97","null","null","<p style=""font-size: 60px; font-family: BACS"">bvkrcbm</p>","","","","","","","",""
"html-keyboard-response","278","441726","0.0-13.0-0.28","613d091096ca434d703f77c5","64b003020eef62ee308107cc","64b10bd20f5721e9bb714b97","null","null","<p style=""font-size: 60px; font-family: BACS"">UdYUQYkZ</p>","","","","","","","",""
"html-keyboard-response","279","442731","0.0-13.0-0.29","613d091096ca434d703f77c5","64b003020eef62ee308107cc","64b10bd20f5721e9bb714b97","null","null","<p style=""font-size: 60px; font-family: BACS"">YlCPBPMYm</p>","","","","","","","",""
"html-keyboard-response","280","443736","0.0-13.0-0.30","613d091096ca434d703f77c5","64b003020eef62ee308107cc","64b10bd20f5721e9bb714b97","null","null","<p style=""font-size: 60px; font-family: BACS"">ODBDADOAK</p>","","","","","","","",""
"html-keyboard-response","281","444748","0.0-13.0-0.31","613d091096ca434d703f77c5","64b003020eef62ee308107cc","64b10bd20f5721e9bb714b97","null","null","<p style=""font-size: 60px; font-family: BACS"">blMklMck</p>","","","","","","","",""
"html-keyboard-response","282","445751","0.0-13.0-0.32","613d091096ca434d703f77c5","64b003020eef62ee308107cc","64b10bd20f5721e9bb714b97","null","null","<p style=""font-size: 60px; font-family: BACS"">hlctEPMYm</p>","","","","","","","",""
"html-keyboard-response","283","446758","0.0-13.0-0.33","613d091096ca434d703f77c5","64b003020eef62ee308107cc","64b10bd20f5721e9bb714b97","null","null","<p style=""font-size: 60px; font-family: BACS"">OAmGrYZJO</p>","","","","","","","",""
"html-keyboard-response","284","447771","0.0-13.0-0.34","613d091096ca434d703f77c5","64b003020eef62ee308107cc","64b10bd20f5721e9bb714b97","null","null","<p style=""font-size: 60px; font-family: BACS"">uvaUYkZ</p>","","","","","","","",""
"html-keyboard-response","285","448775","0.0-13.0-0.35","613d091096ca434d703f77c5","64b003020eef62ee308107cc","64b10bd20f5721e9bb714b97","null","null","<p style=""font-size: 60px; font-family: BACS"">dvNvAmLJ</p>","","","","","","","",""
"html-keyboard-response","286","449782","0.0-13.0-0.36","613d091096ca434d703f77c5","64b003020eef62ee308107cc","64b10bd20f5721e9bb714b97","null","null","<p style=""font-size: 60px; font-family: BACS"">PEtElMck</p>","","","","","","","",""
"html-keyboard-response","287","450791","0.0-13.0-0.37","613d091096ca434d703f77c5","64b003020eef62ee308107cc","64b10bd20f5721e9bb714b97","null","null","<p style=""font-size: 60px; font-family: BACS"">LuNZmZb</p>","","","","","","","",""
"html-keyboard-response","288","451793","0.0-13.0-0.38","613d091096ca434d703f77c5","64b003020eef62ee308107cc","64b10bd20f5721e9bb714b97","null","null","<p style=""font-size: 60px; font-family: BACS"">YOaAbYkZ</p>","","","","","","","",""
"html-keyboard-response","289","452805","0.0-13.0-0.39","613d091096ca434d703f77c5","64b003020eef62ee308107cc","64b10bd20f5721e9bb714b97","null","null","<p style=""font-size: 60px; font-family: BACS"">aNYmbmZb</p>","","","","","","","",""
"html-keyboard-response","290","453818","0.0-13.0-0.40","613d091096ca434d703f77c5","64b003020eef62ee308107cc","64b10bd20f5721e9bb714b97","null","null","<p style=""font-size: 60px; font-family: BACS"">YlCPBKOYC</p>","","","","","","","",""
"html-keyboard-response","291","454822","0.0-13.0-0.41","613d091096ca434d703f77c5","64b003020eef62ee308107cc","64b10bd20f5721e9bb714b97","null","null","<p style=""font-size: 60px; font-family: BACS"">ODBDAlMck</p>","","","","","","","",""
"html-keyboard-response","292","455832","0.0-13.0-0.42","613d091096ca434d703f77c5","64b003020eef62ee308107cc","64b10bd20f5721e9bb714b97","null","null","<p style=""font-size: 60px; font-family: BACS"">uvaUYZJO</p>","","","","","","","",""
"html-keyboard-response","293","456842","0.0-13.0-0.43","613d091096ca434d703f77c5","64b003020eef62ee308107cc","64b10bd20f5721e9bb714b97","null","null","<p style=""font-size: 60px; font-family: BACS"">tDPRkDKP</p>","","","","","","","",""
"html-keyboard-response","294","457853","0.0-13.0-0.44","613d091096ca434d703f77c5","64b003020eef62ee308107cc","64b10bd20f5721e9bb714b97","null","null","<p style=""font-size: 60px; font-family: BACS"">ODBDAKOYC</p>","","","","","","","",""
"html-keyboard-response","295","458867","0.0-13.0-0.45","613d091096ca434d703f77c5","64b003020eef62ee308107cc","64b10bd20f5721e9bb714b97","null","null","<p style=""font-size: 60px; font-family: BACS"">aNYmbYZJO</p>","","","","","","","",""
"html-keyboard-response","296","459876","0.0-13.0-0.46","613d091096ca434d703f77c5","64b003020eef62ee308107cc","64b10bd20f5721e9bb714b97","null","null","<p style=""font-size: 60px; font-family: BACS"">LuNZmLJ</p>","","","","","","","",""
"html-keyboard-response","297","460886","0.0-13.0-0.47","613d091096ca434d703f77c5","64b003020eef62ee308107cc","64b10bd20f5721e9bb714b97","null","null","<p style=""font-size: 60px; font-family: BACS"">hlctEDOAK</p>","","","","","","","",""
"html-keyboard-response","298","461894","0.0-13.0-0.48","613d091096ca434d703f77c5","64b003020eef62ee308107cc","64b10bd20f5721e9bb714b97","null","null","<p style=""font-size: 60px; font-family: BACS"">YOaAbcbm</p>","","","","","","","",""
"html-keyboard-response","299","462901","0.0-13.0-0.49","613d091096ca434d703f77c5","64b003020eef62ee308107cc","64b10bd20f5721e9bb714b97","null","null","<p style=""font-size: 60px; font-family: BACS"">lRckADOAK</p>","","","","","","","",""
"html-keyboard-response","300","463911","0.0-13.0-0.50","613d091096ca434d703f77c5","64b003020eef62ee308107cc","64b10bd20f5721e9bb714b97","null","null","<p style=""font-size: 60px; font-family: BACS"">laYmrYkZ</p>","","","","","","","",""
"html-keyboard-response","301","464922","0.0-13.0-0.51","613d091096ca434d703f77c5","64b003020eef62ee308107cc","64b10bd20f5721e9bb714b97","null","null","<p style=""font-size: 60px; font-family: BACS"">dvNvAmZb</p>","","","","","","","",""
"html-keyboard-response","302","465932","0.0-13.0-0.52","613d091096ca434d703f77c5","64b003020eef62ee308107cc","64b10bd20f5721e9bb714b97","null","null","<p style=""font-size: 60px; font-family: BACS"">hYDmtPMYm</p>","","","","","","","",""
"html-keyboard-response","303","466946","0.0-13.0-0.53","613d091096ca434d703f77c5","64b003020eef62ee308107cc","64b10bd20f5721e9bb714b97","null","null","<p style=""font-size: 60px; font-family: BACS"">OAmGrmLJ</p>","","","","","","","",""
"html-keyboard-response","304","467952","0.0-13.0-0.54","613d091096ca434d703f77c5","64b003020eef62ee308107cc","64b10bd20f5721e9bb714b97","null","null","<p style=""font-size: 60px; font-family: BACS"">blMkPMYm</p>","","","","","","","",""
"html-keyboard-response","305","468962","0.0-13.0-0.55","613d091096ca434d703f77c5","64b003020eef62ee308107cc","64b10bd20f5721e9bb714b97","null","null","<p style=""font-size: 60px; font-family: BACS"">LdQvYZJO</p>","","","","","","","",""
"html-keyboard-response","306","469978","0.0-13.0-0.56","613d091096ca434d703f77c5","64b003020eef62ee308107cc","64b10bd20f5721e9bb714b97","null","null","<p style=""font-size: 60px; font-family: BACS"">UdYUQmZb</p>","","","","","","","",""
"html-keyboard-response","307","470986","0.0-13.0-0.57","613d091096ca434d703f77c5","64b003020eef62ee308107cc","64b10bd20f5721e9bb714b97","null","null","<p style=""font-size: 60px; font-family: BACS"">RKYkDKP</p>","","","","","","","",""
"html-keyboard-response","308","471994","0.0-13.0-0.58","613d091096ca434d703f77c5","64b003020eef62ee308107cc","64b10bd20f5721e9bb714b97","null","null","<p style=""font-size: 60px; font-family: BACS"">uvaUmLJ</p>","","","","","","","",""
"html-keyboard-response","309","472999","0.0-13.0-0.59","613d091096ca434d703f77c5","64b003020eef62ee308107cc","64b10bd20f5721e9bb714b97","null","null","<p style=""font-size: 60px; font-family: BACS"">hlctEDKP</p>","","","","","","","",""
"html-keyboard-response","310","474004","0.0-13.0-0.60","613d091096ca434d703f77c5","64b003020eef62ee308107cc","64b10bd20f5721e9bb714b97","null","null","<p style=""font-size: 60px; font-family: BACS"">laYmrmZb</p>","","","","","","","",""
"html-keyboard-response","311","475014","0.0-13.0-0.61","613d091096ca434d703f77c5","64b003020eef62ee308107cc","64b10bd20f5721e9bb714b97","null","null","<p style=""font-size: 60px; font-family: BACS"">AdDbDOAK</p>","","","","","","","",""
"html-keyboard-response","312","476027","0.0-13.0-0.62","613d091096ca434d703f77c5","64b003020eef62ee308107cc","64b10bd20f5721e9bb714b97","null","null","<p style=""font-size: 60px; font-family: BACS"">laYmrYZJO</p>","","","","","","","",""
"html-keyboard-response","313","477028","0.0-13.0-0.63","613d091096ca434d703f77c5","64b003020eef62ee308107cc","64b10bd20f5721e9bb714b97","null","null","<p style=""font-size: 60px; font-family: BACS"">AdDbKOYC</p>","","","","","","","",""
"html-keyboard-response","314","478034","0.0-13.0-0.64","613d091096ca434d703f77c5","64b003020eef62ee308107cc","64b10bd20f5721e9bb714b97","null","null","<p style=""font-size: 60px; font-family: BACS"">RKYklMck</p>","","","","","","","",""
"html-keyboard-response","315","479038","0.0-13.0-0.65","613d091096ca434d703f77c5","64b003020eef62ee308107cc","64b10bd20f5721e9bb714b97","null","null","<p style=""font-size: 60px; font-family: BACS"">YlCPBDKP</p>","","","","","","","",""
"html-keyboard-response","316","480041","0.0-13.0-0.66","613d091096ca434d703f77c5","64b003020eef62ee308107cc","64b10bd20f5721e9bb714b97","null","null","<p style=""font-size: 60px; font-family: BACS"">PEtEDOAK</p>","","","","","","","",""
"html-keyboard-response","317","481045","0.0-13.0-0.67","613d091096ca434d703f77c5","64b003020eef62ee308107cc","64b10bd20f5721e9bb714b97","null","null","<p style=""font-size: 60px; font-family: BACS"">OAmGrmZb</p>","","","","","","","",""
"html-keyboard-response","318","482056","0.0-13.0-0.68","613d091096ca434d703f77c5","64b003020eef62ee308107cc","64b10bd20f5721e9bb714b97","null","null","<p style=""font-size: 60px; font-family: BACS"">YOaAbYZJO</p>","","","","","","","",""
"html-keyboard-response","319","483063","0.0-13.0-0.69","613d091096ca434d703f77c5","64b003020eef62ee308107cc","64b10bd20f5721e9bb714b97","null","null","<p style=""font-size: 60px; font-family: BACS"">aNYmbcbm</p>","","","","","","","",""
"html-keyboard-response","320","484073","0.0-13.0-0.70","613d091096ca434d703f77c5","64b003020eef62ee308107cc","64b10bd20f5721e9bb714b97","null","null","<p style=""font-size: 60px; font-family: BACS"">lRckADKP</p>","","","","","","","",""
"html-keyboard-response","321","485086","0.0-13.0-0.71","613d091096ca434d703f77c5","64b003020eef62ee308107cc","64b10bd20f5721e9bb714b97","null","null","<p style=""font-size: 60px; font-family: BACS"">blMkDOAK</p>","","","","","","","",""
"html-keyboard-response","322","486097","0.0-13.0-0.72","613d091096ca434d703f77c5","64b003020eef62ee308107cc","64b10bd20f5721e9bb714b97","null","null","<p style=""font-size: 60px; font-family: BACS"">UdYUQmLJ</p>","","","","","","","",""
"html-keyboard-response","323","487106","0.0-13.0-0.73","613d091096ca434d703f77c5","64b003020eef62ee308107cc","64b10bd20f5721e9bb714b97","null","null","<p style=""font-size: 60px; font-family: BACS"">LdQvYkZ</p>","","","","","","","",""
"html-keyboard-response","324","488109","0.0-13.0-0.74","613d091096ca434d703f77c5","64b003020eef62ee308107cc","64b10bd20f5721e9bb714b97","null","null","<p style=""font-size: 60px; font-family: BACS"">hYDmtDKP</p>","","","","","","","",""
"html-keyboard-response","325","489112","0.0-13.0-0.75","613d091096ca434d703f77c5","64b003020eef62ee308107cc","64b10bd20f5721e9bb714b97","null","null","<p style=""font-size: 60px; font-family: BACS"">dvNvAYkZ</p>","","","","","","","",""
"html-keyboard-response","326","490117","0.0-13.0-0.76","613d091096ca434d703f77c5","64b003020eef62ee308107cc","64b10bd20f5721e9bb714b97","null","null","<p style=""font-size: 60px; font-family: BACS"">lRckAKOYC</p>","","","","","","","",""
"html-keyboard-response","327","491129","0.0-13.0-0.77","613d091096ca434d703f77c5","64b003020eef62ee308107cc","64b10bd20f5721e9bb714b97","null","null","<p style=""font-size: 60px; font-family: BACS"">AdDbDKP</p>","","","","","","","",""
"html-keyboard-response","328","492135","0.0-13.0-0.78","613d091096ca434d703f77c5","64b003020eef62ee308107cc","64b10bd20f5721e9bb714b97","null","null","<p style=""font-size: 60px; font-family: BACS"">blMkKOYC</p>","","","","","","","",""
"html-keyboard-response","329","493143","0.0-13.0-0.79","613d091096ca434d703f77c5","64b003020eef62ee308107cc","64b10bd20f5721e9bb714b97","null","null","<p style=""font-size: 60px; font-family: BACS"">ODBDADKP</p>","","","","","","","",""
"html-keyboard-response","330","494461","0.0-14.0","613d091096ca434d703f77c5","64b003020eef62ee308107cc","64b10bd20f5721e9bb714b97","1318"," ","<p>Ottimo, hai visto il quarto blocco di parole. Ora puoi prenderti una piccola pausa.</p>
      <p>Premi la barra quando sei pronta/o per riprendere.</p>","","","","","","","",""
"html-keyboard-response","331","495465","0.0-15.0-0.0","613d091096ca434d703f77c5","64b003020eef62ee308107cc","64b10bd20f5721e9bb714b97","null","null","<p style=""font-size: 60px; font-family: BACS"">aNYmbYZJO</p>","","","","","","","",""
"html-keyboard-response","332","496468","0.0-15.0-0.1","613d091096ca434d703f77c5","64b003020eef62ee308107cc","64b10bd20f5721e9bb714b97","null","null","<p style=""font-size: 60px; font-family: BACS"">aNYmbYZJO</p>","","","","","","","",""
"html-keyboard-response","333","497480","0.0-15.0-0.2","613d091096ca434d703f77c5","64b003020eef62ee308107cc","64b10bd20f5721e9bb714b97","null","null","<p style=""font-size: 60px; font-family: BACS"">aNYmbYZJO</p>","","","","","","","",""
"html-keyboard-response","334","498491","0.0-15.0-0.3","613d091096ca434d703f77c5","64b003020eef62ee308107cc","64b10bd20f5721e9bb714b97","null","null","<p style=""font-size: 60px; font-family: BACS"">aNYmbYZJO</p>","","","","","","","",""
"html-keyboard-response","335","499505","0.0-15.0-0.4","613d091096ca434d703f77c5","64b003020eef62ee308107cc","64b10bd20f5721e9bb714b97","null","null","<p style=""font-size: 60px; font-family: BACS"">aNYmbYZJO</p>","","","","","","","",""
"html-keyboard-response","336","500520","0.0-15.0-0.5","613d091096ca434d703f77c5","64b003020eef62ee308107cc","64b10bd20f5721e9bb714b97","null","null","<p style=""font-size: 60px; font-family: BACS"">aNYmbYZJO</p>","","","","","","","",""
"html-keyboard-response","337","501533","0.0-15.0-0.6","613d091096ca434d703f77c5","64b003020eef62ee308107cc","64b10bd20f5721e9bb714b97","null","null","<p style=""font-size: 60px; font-family: BACS"">aNYmbYZJO</p>","","","","","","","",""
"html-keyboard-response","338","502539","0.0-15.0-0.7","613d091096ca434d703f77c5","64b003020eef62ee308107cc","64b10bd20f5721e9bb714b97","null","null","<p style=""font-size: 60px; font-family: BACS"">aNYmbYZJO</p>","","","","","","","",""
"html-keyboard-response","339","503549","0.0-15.0-0.8","613d091096ca434d703f77c5","64b003020eef62ee308107cc","64b10bd20f5721e9bb714b97","null","null","<p style=""font-size: 60px; font-family: BACS"">aNYmbYZJO</p>","","","","","","","",""
"html-keyboard-response","340","504552","0.0-15.0-0.9","613d091096ca434d703f77c5","64b003020eef62ee308107cc","64b10bd20f5721e9bb714b97","null","null","<p style=""font-size: 60px; font-family: BACS"">aNYmbYZJO</p>","","","","","","","",""
"html-keyboard-response","341","505563","0.0-15.0-0.10","613d091096ca434d703f77c5","64b003020eef62ee308107cc","64b10bd20f5721e9bb714b97","null","null","<p style=""font-size: 60px; font-family: BACS"">aNYmbYZJO</p>","","","","","","","",""
"html-keyboard-response","342","506568","0.0-15.0-0.11","613d091096ca434d703f77c5","64b003020eef62ee308107cc","64b10bd20f5721e9bb714b97","null","null","<p style=""font-size: 60px; font-family: BACS"">aNYmbYZJO</p>","","","","","","","",""
"html-keyboard-response","343","507582","0.0-15.0-0.12","613d091096ca434d703f77c5","64b003020eef62ee308107cc","64b10bd20f5721e9bb714b97","null","null","<p style=""font-size: 60px; font-family: BACS"">aNYmbYZJO</p>","","","","","","","",""
"html-keyboard-response","344","508587","0.0-15.0-0.13","613d091096ca434d703f77c5","64b003020eef62ee308107cc","64b10bd20f5721e9bb714b97","null","null","<p style=""font-size: 60px; font-family: BACS"">aNYmbYZJO</p>","","","","","","","",""
"html-keyboard-response","345","509592","0.0-15.0-0.14","613d091096ca434d703f77c5","64b003020eef62ee308107cc","64b10bd20f5721e9bb714b97","null","null","<p style=""font-size: 60px; font-family: BACS"">aNYmbYZJO</p>","","","","","","","",""
"html-keyboard-response","346","510594","0.0-15.0-0.15","613d091096ca434d703f77c5","64b003020eef62ee308107cc","64b10bd20f5721e9bb714b97","null","null","<p style=""font-size: 60px; font-family: BACS"">aNYmbYZJO</p>","","","","","","","",""
"html-keyboard-response","347","511601","0.0-15.0-0.16","613d091096ca434d703f77c5","64b003020eef62ee308107cc","64b10bd20f5721e9bb714b97","null","null","<p style=""font-size: 60px; font-family: BACS"">aNYmbYZJO</p>","","","","","","","",""
"html-keyboard-response","348","512613","0.0-15.0-0.17","613d091096ca434d703f77c5","64b003020eef62ee308107cc","64b10bd20f5721e9bb714b97","null","null","<p style=""font-size: 60px; font-family: BACS"">aNYmbYZJO</p>","","","","","","","",""
"html-keyboard-response","349","513623","0.0-15.0-0.18","613d091096ca434d703f77c5","64b003020eef62ee308107cc","64b10bd20f5721e9bb714b97","null","null","<p style=""font-size: 60px; font-family: BACS"">aNYmbYZJO</p>","","","","","","","",""
"html-keyboard-response","350","514639","0.0-15.0-0.19","613d091096ca434d703f77c5","64b003020eef62ee308107cc","64b10bd20f5721e9bb714b97","null","null","<p style=""font-size: 60px; font-family: BACS"">aNYmbYZJO</p>","","","","","","","",""
"html-keyboard-response","351","515640","0.0-15.0-0.20","613d091096ca434d703f77c5","64b003020eef62ee308107cc","64b10bd20f5721e9bb714b97","null","null","<p style=""font-size: 60px; font-family: BACS"">aNYmbYZJO</p>","","","","","","","",""
"html-keyboard-response","352","516641","0.0-15.0-0.21","613d091096ca434d703f77c5","64b003020eef62ee308107cc","64b10bd20f5721e9bb714b97","null","null","<p style=""font-size: 60px; font-family: BACS"">aNYmbYZJO</p>","","","","","","","",""
"html-keyboard-response","353","517642","0.0-15.0-0.22","613d091096ca434d703f77c5","64b003020eef62ee308107cc","64b10bd20f5721e9bb714b97","null","null","<p style=""font-size: 60px; font-family: BACS"">aNYmbYZJO</p>","","","","","","","",""
"html-keyboard-response","354","518642","0.0-15.0-0.23","613d091096ca434d703f77c5","64b003020eef62ee308107cc","64b10bd20f5721e9bb714b97","null","null","<p style=""font-size: 60px; font-family: BACS"">aNYmbYZJO</p>","","","","","","","",""
"html-keyboard-response","355","519643","0.0-15.0-0.24","613d091096ca434d703f77c5","64b003020eef62ee308107cc","64b10bd20f5721e9bb714b97","null","null","<p style=""font-size: 60px; font-family: BACS"">aNYmbYZJO</p>","","","","","","","",""
"html-keyboard-response","356","520644","0.0-15.0-0.25","613d091096ca434d703f77c5","64b003020eef62ee308107cc","64b10bd20f5721e9bb714b97","null","null","<p style=""font-size: 60px; font-family: BACS"">aNYmbYZJO</p>","","","","","","","",""
"html-keyboard-response","357","521645","0.0-15.0-0.26","613d091096ca434d703f77c5","64b003020eef62ee308107cc","64b10bd20f5721e9bb714b97","null","null","<p style=""font-size: 60px; font-family: BACS"">aNYmbYZJO</p>","","","","","","","",""
"html-keyboard-response","358","522658","0.0-15.0-0.27","613d091096ca434d703f77c5","64b003020eef62ee308107cc","64b10bd20f5721e9bb714b97","null","null","<p style=""font-size: 60px; font-family: BACS"">aNYmbYZJO</p>","","","","","","","",""
"html-keyboard-response","359","523659","0.0-15.0-0.28","613d091096ca434d703f77c5","64b003020eef62ee308107cc","64b10bd20f5721e9bb714b97","null","null","<p style=""font-size: 60px; font-family: BACS"">aNYmbYZJO</p>","","","","","","","",""
"html-keyboard-response","360","524660","0.0-15.0-0.29","613d091096ca434d703f77c5","64b003020eef62ee308107cc","64b10bd20f5721e9bb714b97","null","null","<p style=""font-size: 60px; font-family: BACS"">aNYmbYZJO</p>","","","","","","","",""
"html-keyboard-response","361","525662","0.0-15.0-0.30","613d091096ca434d703f77c5","64b003020eef62ee308107cc","64b10bd20f5721e9bb714b97","null","null","<p style=""font-size: 60px; font-family: BACS"">aNYmbYZJO</p>","","","","","","","",""
"html-keyboard-response","362","526662","0.0-15.0-0.31","613d091096ca434d703f77c5","64b003020eef62ee308107cc","64b10bd20f5721e9bb714b97","null","null","<p style=""font-size: 60px; font-family: BACS"">aNYmbYZJO</p>","","","","","","","",""
"html-keyboard-response","363","527662","0.0-15.0-0.32","613d091096ca434d703f77c5","64b003020eef62ee308107cc","64b10bd20f5721e9bb714b97","null","null","<p style=""font-size: 60px; font-family: BACS"">aNYmbYZJO</p>","","","","","","","",""
"html-keyboard-response","364","528668","0.0-15.0-0.33","613d091096ca434d703f77c5","64b003020eef62ee308107cc","64b10bd20f5721e9bb714b97","null","null","<p style=""font-size: 60px; font-family: BACS"">aNYmbYZJO</p>","","","","","","","",""
"html-keyboard-response","365","529673","0.0-15.0-0.34","613d091096ca434d703f77c5","64b003020eef62ee308107cc","64b10bd20f5721e9bb714b97","null","null","<p style=""font-size: 60px; font-family: BACS"">aNYmbYZJO</p>","","","","","","","",""
"html-keyboard-response","366","530674","0.0-15.0-0.35","613d091096ca434d703f77c5","64b003020eef62ee308107cc","64b10bd20f5721e9bb714b97","null","null","<p style=""font-size: 60px; font-family: BACS"">aNYmbYZJO</p>","","","","","","","",""
"html-keyboard-response","367","531674","0.0-15.0-0.36","613d091096ca434d703f77c5","64b003020eef62ee308107cc","64b10bd20f5721e9bb714b97","null","null","<p style=""font-size: 60px; font-family: BACS"">aNYmbYZJO</p>","","","","","","","",""
"html-keyboard-response","368","532675","0.0-15.0-0.37","613d091096ca434d703f77c5","64b003020eef62ee308107cc","64b10bd20f5721e9bb714b97","null","null","<p style=""font-size: 60px; font-family: BACS"">aNYmbYZJO</p>","","","","","","","",""
"html-keyboard-response","369","533677","0.0-15.0-0.38","613d091096ca434d703f77c5","64b003020eef62ee308107cc","64b10bd20f5721e9bb714b97","null","null","<p style=""font-size: 60px; font-family: BACS"">aNYmbYZJO</p>","","","","","","","",""
"html-keyboard-response","370","534690","0.0-15.0-0.39","613d091096ca434d703f77c5","64b003020eef62ee308107cc","64b10bd20f5721e9bb714b97","null","null","<p style=""font-size: 60px; font-family: BACS"">aNYmbYZJO</p>","","","","","","","",""
"html-keyboard-response","371","535690","0.0-15.0-0.40","613d091096ca434d703f77c5","64b003020eef62ee308107cc","64b10bd20f5721e9bb714b97","null","null","<p style=""font-size: 60px; font-family: BACS"">aNYmbYZJO</p>","","","","","","","",""
"html-keyboard-response","372","536704","0.0-15.0-0.41","613d091096ca434d703f77c5","64b003020eef62ee308107cc","64b10bd20f5721e9bb714b97","null","null","<p style=""font-size: 60px; font-family: BACS"">aNYmbYZJO</p>","","","","","","","",""
"html-keyboard-response","373","537705","0.0-15.0-0.42","613d091096ca434d703f77c5","64b003020eef62ee308107cc","64b10bd20f5721e9bb714b97","null","null","<p style=""font-size: 60px; font-family: BACS"">aNYmbYZJO</p>","","","","","","","",""
"html-keyboard-response","374","538706","0.0-15.0-0.43","613d091096ca434d703f77c5","64b003020eef62ee308107cc","64b10bd20f5721e9bb714b97","null","null","<p style=""font-size: 60px; font-family: BACS"">aNYmbYZJO</p>","","","","","","","",""
"html-keyboard-response","375","539707","0.0-15.0-0.44","613d091096ca434d703f77c5","64b003020eef62ee308107cc","64b10bd20f5721e9bb714b97","null","null","<p style=""font-size: 60px; font-family: BACS"">aNYmbYZJO</p>","","","","","","","",""
"html-keyboard-response","376","540707","0.0-15.0-0.45","613d091096ca434d703f77c5","64b003020eef62ee308107cc","64b10bd20f5721e9bb714b97","null","null","<p style=""font-size: 60px; font-family: BACS"">aNYmbYZJO</p>","","","","","","","",""
"html-keyboard-response","377","541708","0.0-15.0-0.46","613d091096ca434d703f77c5","64b003020eef62ee308107cc","64b10bd20f5721e9bb714b97","null","null","<p style=""font-size: 60px; font-family: BACS"">aNYmbYZJO</p>","","","","","","","",""
"html-keyboard-response","378","542709","0.0-15.0-0.47","613d091096ca434d703f77c5","64b003020eef62ee308107cc","64b10bd20f5721e9bb714b97","null","null","<p style=""font-size: 60px; font-family: BACS"">aNYmbYZJO</p>","","","","","","","",""
"html-keyboard-response","379","543710","0.0-15.0-0.48","613d091096ca434d703f77c5","64b003020eef62ee308107cc","64b10bd20f5721e9bb714b97","null","null","<p style=""font-size: 60px; font-family: BACS"">aNYmbYZJO</p>","","","","","","","",""
"html-keyboard-response","380","544714","0.0-15.0-0.49","613d091096ca434d703f77c5","64b003020eef62ee308107cc","64b10bd20f5721e9bb714b97","null","null","<p style=""font-size: 60px; font-family: BACS"">aNYmbYZJO</p>","","","","","","","",""
"html-keyboard-response","381","545716","0.0-15.0-0.50","613d091096ca434d703f77c5","64b003020eef62ee308107cc","64b10bd20f5721e9bb714b97","null","null","<p style=""font-size: 60px; font-family: BACS"">aNYmbYZJO</p>","","","","","","","",""
"html-keyboard-response","382","546717","0.0-15.0-0.51","613d091096ca434d703f77c5","64b003020eef62ee308107cc","64b10bd20f5721e9bb714b97","null","null","<p style=""font-size: 60px; font-family: BACS"">aNYmbYZJO</p>","","","","","","","",""
"html-keyboard-response","383","547717","0.0-15.0-0.52","613d091096ca434d703f77c5","64b003020eef62ee308107cc","64b10bd20f5721e9bb714b97","null","null","<p style=""font-size: 60px; font-family: BACS"">aNYmbYZJO</p>","","","","","","","",""
"html-keyboard-response","384","548718","0.0-15.0-0.53","613d091096ca434d703f77c5","64b003020eef62ee308107cc","64b10bd20f5721e9bb714b97","null","null","<p style=""font-size: 60px; font-family: BACS"">aNYmbYZJO</p>","","","","","","","",""
"html-keyboard-response","385","549719","0.0-15.0-0.54","613d091096ca434d703f77c5","64b003020eef62ee308107cc","64b10bd20f5721e9bb714b97","null","null","<p style=""font-size: 60px; font-family: BACS"">aNYmbYZJO</p>","","","","","","","",""
"html-keyboard-response","386","550732","0.0-15.0-0.55","613d091096ca434d703f77c5","64b003020eef62ee308107cc","64b10bd20f5721e9bb714b97","null","null","<p style=""font-size: 60px; font-family: BACS"">aNYmbYZJO</p>","","","","","","","",""
"html-keyboard-response","387","551734","0.0-15.0-0.56","613d091096ca434d703f77c5","64b003020eef62ee308107cc","64b10bd20f5721e9bb714b97","null","null","<p style=""font-size: 60px; font-family: BACS"">aNYmbYZJO</p>","","","","","","","",""
"html-keyboard-response","388","552735","0.0-15.0-0.57","613d091096ca434d703f77c5","64b003020eef62ee308107cc","64b10bd20f5721e9bb714b97","null","null","<p style=""font-size: 60px; font-family: BACS"">aNYmbYZJO</p>","","","","","","","",""
"html-keyboard-response","389","553736","0.0-15.0-0.58","613d091096ca434d703f77c5","64b003020eef62ee308107cc","64b10bd20f5721e9bb714b97","null","null","<p style=""font-size: 60px; font-family: BACS"">aNYmbYZJO</p>","","","","","","","",""
"html-keyboard-response","390","554741","0.0-15.0-0.59","613d091096ca434d703f77c5","64b003020eef62ee308107cc","64b10bd20f5721e9bb714b97","null","null","<p style=""font-size: 60px; font-family: BACS"">aNYmbYZJO</p>","","","","","","","",""
"html-keyboard-response","391","555743","0.0-15.0-0.60","613d091096ca434d703f77c5","64b003020eef62ee308107cc","64b10bd20f5721e9bb714b97","null","null","<p style=""font-size: 60px; font-family: BACS"">aNYmbYZJO</p>","","","","","","","",""
"html-keyboard-response","392","556745","0.0-15.0-0.61","613d091096ca434d703f77c5","64b003020eef62ee308107cc","64b10bd20f5721e9bb714b97","null","null","<p style=""font-size: 60px; font-family: BACS"">aNYmbYZJO</p>","","","","","","","",""
"html-keyboard-response","393","557758","0.0-15.0-0.62","613d091096ca434d703f77c5","64b003020eef62ee308107cc","64b10bd20f5721e9bb714b97","null","null","<p style=""font-size: 60px; font-family: BACS"">aNYmbYZJO</p>","","","","","","","",""
"html-keyboard-response","394","558772","0.0-15.0-0.63","613d091096ca434d703f77c5","64b003020eef62ee308107cc","64b10bd20f5721e9bb714b97","null","null","<p style=""font-size: 60px; font-family: BACS"">aNYmbYZJO</p>","","","","","","","",""
"html-keyboard-response","395","559775","0.0-15.0-0.64","613d091096ca434d703f77c5","64b003020eef62ee308107cc","64b10bd20f5721e9bb714b97","null","null","<p style=""font-size: 60px; font-family: BACS"">aNYmbYZJO</p>","","","","","","","",""
"html-keyboard-response","396","560781","0.0-15.0-0.65","613d091096ca434d703f77c5","64b003020eef62ee308107cc","64b10bd20f5721e9bb714b97","null","null","<p style=""font-size: 60px; font-family: BACS"">aNYmbYZJO</p>","","","","","","","",""
"html-keyboard-response","397","561786","0.0-15.0-0.66","613d091096ca434d703f77c5","64b003020eef62ee308107cc","64b10bd20f5721e9bb714b97","null","null","<p style=""font-size: 60px; font-family: BACS"">aNYmbYZJO</p>","","","","","","","",""
"html-keyboard-response","398","562788","0.0-15.0-0.67","613d091096ca434d703f77c5","64b003020eef62ee308107cc","64b10bd20f5721e9bb714b97","null","null","<p style=""font-size: 60px; font-family: BACS"">aNYmbYZJO</p>","","","","","","","",""
"html-keyboard-response","399","563797","0.0-15.0-0.68","613d091096ca434d703f77c5","64b003020eef62ee308107cc","64b10bd20f5721e9bb714b97","null","null","<p style=""font-size: 60px; font-family: BACS"">aNYmbYZJO</p>","","","","","","","",""
"html-keyboard-response","400","564803","0.0-15.0-0.69","613d091096ca434d703f77c5","64b003020eef62ee308107cc","64b10bd20f5721e9bb714b97","null","null","<p style=""font-size: 60px; font-family: BACS"">aNYmbYZJO</p>","","","","","","","",""
"html-keyboard-response","401","565810","0.0-15.0-0.70","613d091096ca434d703f77c5","64b003020eef62ee308107cc","64b10bd20f5721e9bb714b97","null","null","<p style=""font-size: 60px; font-family: BACS"">aNYmbYZJO</p>","","","","","","","",""
