"trial_type","trial_index","time_elapsed","internal_node_id","subject_id","study_id","session_id","rt","response","stimulus","success","item","task","correct_response","testing_condition","correct","target","confound","name"
"pavlovia","0","1165","0.0-0.0","6093cacf9a39751eedd55916","650c16f0f2faf8d7a0d14c09","651c1df2a4af61b043313480","","","","","","","","","","","",""
"survey-html-form","1","8539","0.0-1.0","6093cacf9a39751eedd55916","650c16f0f2faf8d7a0d14c09","651c1df2a4af61b043313480","7365","{""ID"":""6093cacf9a39751eedd55916""}","","","","","","","","","",""
"html-keyboard-response","2","16362","0.0-2.0","6093cacf9a39751eedd55916","650c16f0f2faf8d7a0d14c09","651c1df2a4af61b043313480","7822"," ","<p style=""font-size: 15px;"">Before beginning, we ask that you read the consent information and confirm your agreement to participate in the experiment.</p>
      <p style=""font-size: 15px;""> We ask that you remember that this is a research project and that your participation is entirely voluntary. You can stop your participation at any time, without needing to provide any explanation. The study we're asking you to participate in aims at examining how readers process written words. You will be engaged in a session of apprximately 20 minutes, followed by a brief questionnaire. You will have the opportunity to take a few breaks during the experiment. You will be paid £4 for your participation, corresponding to a rate of £8/hour. While this experiment looks at cognitive faculties, this experiment doesn't constitute clinical proof of eventual pathologies.</p>
      <p style=""font-size: 15px;"">All of the information collected thanks to yours and others' participation will be held in a secure password-protected server, and will not be shared with anyone not authorised to view it. Your personal information will be kept with an arbitrary participant ID. Thanks to this data anonymity process, any researcher analysing the data won't be able to track the information back to a specific participant. Therefore, this process will make identifying you impossibile, even when results from the study will be published in scientific reviews, presented at congresses, or at any other public forum. More generally, the collected data will be treated in accordance with the laws on privacy and conformity to the Legislative Degree n. 196 ""Code regarding the protection of personal data"" of the 30th of June 2003 and to the European Regulation 2016/670 (General Data Protection Regulation - GDPR). The Data Protection Officer is Avv. Valentina Carollo, who can be contacted at the following email addresses: <a href=""mailto:dpo@sissa.it"">dpo@sissa.it</a> or <a href=""mailto:rpd@sissa.it"">rpd@sissa.it</a> - PEC: <a href=""mailto:protocollo@pec.sissa.it"">protocollo@pec.sissa.it</a>.</p>
      <p style=""font-size: 15px;""> Before expressing your consent to participate, we would like to remind you again that in case you need explanations on any aspect of the experimental procedure, the researcher is at your disposition (<a href=""mailto:aliebelt@sissa.it"">aliebelt@sissa.it</a>, <a href=""mailto:davide.crepaldi@sissa.it"">davide.crepaldi@sissa.it</a>).</p>
      <p style=""font-size: 15px;"">If you would like to download the informed consent form, you can do so here: <a href=""BASL-Informed_Consent.pdf"" download>informed consent form</a>.</p>
      <p style=""font-size: 15px;"">We ask that you press the spacebar to proceed to the consent section.</p>","","","","","","","","",""
"survey-html-form","3","24406","0.0-3.0","6093cacf9a39751eedd55916","650c16f0f2faf8d7a0d14c09","651c1df2a4af61b043313480","8043","{""consent1"":""YES"",""consent2"":""YES"",""consent3"":""YES"",""consent4"":""YES"",""consent5"":""YES"",""consent6"":""YES""}","","","","","","","","","",""
"fullscreen","4","31593","0.0-4.0","6093cacf9a39751eedd55916","650c16f0f2faf8d7a0d14c09","651c1df2a4af61b043313480","","","","true","","","","","","","",""
"html-keyboard-response","5","42920","0.0-5.0","6093cacf9a39751eedd55916","650c16f0f2faf8d7a0d14c09","651c1df2a4af61b043313480","11326"," ","<p>Welcome, and thank you very much for your time!</p>
      <p>In this experiment, you'll be a language expert who's been asked to take a look at words that Earth has received in its first communication with aliens. Your task, in this first part of the experiment, is to pay close attention to the words you'll be shown; later, world leaders will ask you questions on what you saw. The words will be shown to you quite quickly; it seems that the aliens were in a hurry :-)</p>
      <p>Press the spacebar to continue.<p>","","","","","","","","",""
"html-keyboard-response","6","42971","0.0-6.0","6093cacf9a39751eedd55916","650c16f0f2faf8d7a0d14c09","651c1df2a4af61b043313480","null","null","<p style=""font-size: 120px; font-family: BACS""> </p>","","","","","","","","",""
"html-keyboard-response","7","50701","0.0-7.0","6093cacf9a39751eedd55916","650c16f0f2faf8d7a0d14c09","651c1df2a4af61b043313480","7729"," ","<p>Here is an example of the words you'll see:</p>
      <img src='esempio.png' height='400px'>
      <p>When you're ready to begin, press the spacebar.</p></div>","","","","","","","","",""
"html-keyboard-response","8","51714","0.0-8.0-0.0","6093cacf9a39751eedd55916","650c16f0f2faf8d7a0d14c09","651c1df2a4af61b043313480","null","null","<p style=""font-size: 60px; font-family: BACS"">JmNkQvlZ</p>","","","","","","","","",""
"html-keyboard-response","9","52731","0.0-8.0-0.1","6093cacf9a39751eedd55916","650c16f0f2faf8d7a0d14c09","651c1df2a4af61b043313480","null","null","<p style=""font-size: 60px; font-family: BACS"">DhMtBRDh</p>","","","","","","","","",""
"html-keyboard-response","10","53748","0.0-8.0-0.2","6093cacf9a39751eedd55916","650c16f0f2faf8d7a0d14c09","651c1df2a4af61b043313480","null","null","<p style=""font-size: 60px; font-family: BACS"">dkLlArv</p>","","","","","","","","",""
"html-keyboard-response","11","54764","0.0-8.0-0.3","6093cacf9a39751eedd55916","650c16f0f2faf8d7a0d14c09","651c1df2a4af61b043313480","null","null","<p style=""font-size: 60px; font-family: BACS"">DkTCPbAMO</p>","","","","","","","","",""
"html-keyboard-response","12","55766","0.0-8.0-0.4","6093cacf9a39751eedd55916","650c16f0f2faf8d7a0d14c09","651c1df2a4af61b043313480","null","null","<p style=""font-size: 60px; font-family: BACS"">ZNLOvArv</p>","","","","","","","","",""
"html-keyboard-response","13","56782","0.0-8.0-0.5","6093cacf9a39751eedd55916","650c16f0f2faf8d7a0d14c09","651c1df2a4af61b043313480","null","null","<p style=""font-size: 60px; font-family: BACS"">DhCPTAm</p>","","","","","","","","",""
"html-keyboard-response","14","57782","0.0-8.0-0.6","6093cacf9a39751eedd55916","650c16f0f2faf8d7a0d14c09","651c1df2a4af61b043313480","null","null","<p style=""font-size: 60px; font-family: BACS"">bdUNuAZbl</p>","","","","","","","","",""
"html-keyboard-response","15","58784","0.0-8.0-0.7","6093cacf9a39751eedd55916","650c16f0f2faf8d7a0d14c09","651c1df2a4af61b043313480","null","null","<p style=""font-size: 60px; font-family: BACS"">bAdkYht</p>","","","","","","","","",""
"html-keyboard-response","16","59785","0.0-8.0-0.8","6093cacf9a39751eedd55916","650c16f0f2faf8d7a0d14c09","651c1df2a4af61b043313480","null","null","<p style=""font-size: 60px; font-family: BACS"">rbYbuArv</p>","","","","","","","","",""
"html-keyboard-response","17","60799","0.0-8.0-0.9","6093cacf9a39751eedd55916","650c16f0f2faf8d7a0d14c09","651c1df2a4af61b043313480","null","null","<p style=""font-size: 60px; font-family: BACS"">YlYcBRDh</p>","","","","","","","","",""
"html-keyboard-response","18","61802","0.0-8.0-0.10","6093cacf9a39751eedd55916","650c16f0f2faf8d7a0d14c09","651c1df2a4af61b043313480","null","null","<p style=""font-size: 60px; font-family: BACS"">MBKRETPOM</p>","","","","","","","","",""
"html-keyboard-response","19","62817","0.0-8.0-0.11","6093cacf9a39751eedd55916","650c16f0f2faf8d7a0d14c09","651c1df2a4af61b043313480","null","null","<p style=""font-size: 60px; font-family: BACS"">ZNLOvQru</p>","","","","","","","","",""
"html-keyboard-response","20","63834","0.0-8.0-0.12","6093cacf9a39751eedd55916","650c16f0f2faf8d7a0d14c09","651c1df2a4af61b043313480","null","null","<p style=""font-size: 60px; font-family: BACS"">MhKdbAMO</p>","","","","","","","","",""
"html-keyboard-response","21","64836","0.0-8.0-0.13","6093cacf9a39751eedd55916","650c16f0f2faf8d7a0d14c09","651c1df2a4af61b043313480","null","null","<p style=""font-size: 60px; font-family: BACS"">ArQuQru</p>","","","","","","","","",""
"html-keyboard-response","22","65851","0.0-8.0-0.14","6093cacf9a39751eedd55916","650c16f0f2faf8d7a0d14c09","651c1df2a4af61b043313480","null","null","<p style=""font-size: 60px; font-family: BACS"">tRdMYht</p>","","","","","","","","",""
"html-keyboard-response","23","66852","0.0-8.0-0.15","6093cacf9a39751eedd55916","650c16f0f2faf8d7a0d14c09","651c1df2a4af61b043313480","null","null","<p style=""font-size: 60px; font-family: BACS"">ALGZQvlZ</p>","","","","","","","","",""
"html-keyboard-response","24","67854","0.0-8.0-0.16","6093cacf9a39751eedd55916","650c16f0f2faf8d7a0d14c09","651c1df2a4af61b043313480","null","null","<p style=""font-size: 60px; font-family: BACS"">TDKhBRDh</p>","","","","","","","","",""
"html-keyboard-response","25","68869","0.0-8.0-0.17","6093cacf9a39751eedd55916","650c16f0f2faf8d7a0d14c09","651c1df2a4af61b043313480","null","null","<p style=""font-size: 60px; font-family: BACS"">JmNkQru</p>","","","","","","","","",""
"html-keyboard-response","26","69871","0.0-8.0-0.18","6093cacf9a39751eedd55916","650c16f0f2faf8d7a0d14c09","651c1df2a4af61b043313480","null","null","<p style=""font-size: 60px; font-family: BACS"">DhCPbAMO</p>","","","","","","","","",""
"html-keyboard-response","27","70886","0.0-8.0-0.19","6093cacf9a39751eedd55916","650c16f0f2faf8d7a0d14c09","651c1df2a4af61b043313480","null","null","<p style=""font-size: 60px; font-family: BACS"">bAdkTPOM</p>","","","","","","","","",""
"html-keyboard-response","28","71888","0.0-8.0-0.20","6093cacf9a39751eedd55916","650c16f0f2faf8d7a0d14c09","651c1df2a4af61b043313480","null","null","<p style=""font-size: 60px; font-family: BACS"">ZNLOvOcN</p>","","","","","","","","",""
"html-keyboard-response","29","72891","0.0-8.0-0.21","6093cacf9a39751eedd55916","650c16f0f2faf8d7a0d14c09","651c1df2a4af61b043313480","null","null","<p style=""font-size: 60px; font-family: BACS"">TDKhbAMO</p>","","","","","","","","",""
"html-keyboard-response","30","73904","0.0-8.0-0.22","6093cacf9a39751eedd55916","650c16f0f2faf8d7a0d14c09","651c1df2a4af61b043313480","null","null","<p style=""font-size: 60px; font-family: BACS"">bAdkBRDh</p>","","","","","","","","",""
"html-keyboard-response","31","74908","0.0-8.0-0.23","6093cacf9a39751eedd55916","650c16f0f2faf8d7a0d14c09","651c1df2a4af61b043313480","null","null","<p style=""font-size: 60px; font-family: BACS"">ArQuAZbl</p>","","","","","","","","",""
"html-keyboard-response","32","75911","0.0-8.0-0.24","6093cacf9a39751eedd55916","650c16f0f2faf8d7a0d14c09","651c1df2a4af61b043313480","null","null","<p style=""font-size: 60px; font-family: BACS"">DhMtTAm</p>","","","","","","","","",""
"html-keyboard-response","33","76925","0.0-8.0-0.25","6093cacf9a39751eedd55916","650c16f0f2faf8d7a0d14c09","651c1df2a4af61b043313480","null","null","<p style=""font-size: 60px; font-family: BACS"">rbYbuQvlZ</p>","","","","","","","","",""
"html-keyboard-response","34","77927","0.0-8.0-0.26","6093cacf9a39751eedd55916","650c16f0f2faf8d7a0d14c09","651c1df2a4af61b043313480","null","null","<p style=""font-size: 60px; font-family: BACS"">GZJYQru</p>","","","","","","","","",""
"html-keyboard-response","35","78940","0.0-8.0-0.27","6093cacf9a39751eedd55916","650c16f0f2faf8d7a0d14c09","651c1df2a4af61b043313480","null","null","<p style=""font-size: 60px; font-family: BACS"">DhCPYht</p>","","","","","","","","",""
"html-keyboard-response","36","79944","0.0-8.0-0.28","6093cacf9a39751eedd55916","650c16f0f2faf8d7a0d14c09","651c1df2a4af61b043313480","null","null","<p style=""font-size: 60px; font-family: BACS"">rbYbuOcN</p>","","","","","","","","",""
"html-keyboard-response","37","80959","0.0-8.0-0.29","6093cacf9a39751eedd55916","650c16f0f2faf8d7a0d14c09","651c1df2a4af61b043313480","null","null","<p style=""font-size: 60px; font-family: BACS"">ckLALArv</p>","","","","","","","","",""
"html-keyboard-response","38","81961","0.0-8.0-0.30","6093cacf9a39751eedd55916","650c16f0f2faf8d7a0d14c09","651c1df2a4af61b043313480","null","null","<p style=""font-size: 60px; font-family: BACS"">tRdMTPOM</p>","","","","","","","","",""
"html-keyboard-response","39","82976","0.0-8.0-0.31","6093cacf9a39751eedd55916","650c16f0f2faf8d7a0d14c09","651c1df2a4af61b043313480","null","null","<p style=""font-size: 60px; font-family: BACS"">ArQuQvlZ</p>","","","","","","","","",""
"html-keyboard-response","40","83979","0.0-8.0-0.32","6093cacf9a39751eedd55916","650c16f0f2faf8d7a0d14c09","651c1df2a4af61b043313480","null","null","<p style=""font-size: 60px; font-family: BACS"">DhMtYht</p>","","","","","","","","",""
"html-keyboard-response","41","84993","0.0-8.0-0.33","6093cacf9a39751eedd55916","650c16f0f2faf8d7a0d14c09","651c1df2a4af61b043313480","null","null","<p style=""font-size: 60px; font-family: BACS"">GZJYOcN</p>","","","","","","","","",""
"html-keyboard-response","42","85995","0.0-8.0-0.34","6093cacf9a39751eedd55916","650c16f0f2faf8d7a0d14c09","651c1df2a4af61b043313480","null","null","<p style=""font-size: 60px; font-family: BACS"">MBKREBRDh</p>","","","","","","","","",""
"html-keyboard-response","43","87011","0.0-8.0-0.35","6093cacf9a39751eedd55916","650c16f0f2faf8d7a0d14c09","651c1df2a4af61b043313480","null","null","<p style=""font-size: 60px; font-family: BACS"">tRdMbAMO</p>","","","","","","","","",""
"html-keyboard-response","44","88027","0.0-8.0-0.36","6093cacf9a39751eedd55916","650c16f0f2faf8d7a0d14c09","651c1df2a4af61b043313480","null","null","<p style=""font-size: 60px; font-family: BACS"">MhKdTAm</p>","","","","","","","","",""
"html-keyboard-response","45","89028","0.0-8.0-0.37","6093cacf9a39751eedd55916","650c16f0f2faf8d7a0d14c09","651c1df2a4af61b043313480","null","null","<p style=""font-size: 60px; font-family: BACS"">ALGZOcN</p>","","","","","","","","",""
"html-keyboard-response","46","90044","0.0-8.0-0.38","6093cacf9a39751eedd55916","650c16f0f2faf8d7a0d14c09","651c1df2a4af61b043313480","null","null","<p style=""font-size: 60px; font-family: BACS"">YlYcbAMO</p>","","","","","","","","",""
"html-keyboard-response","47","91046","0.0-8.0-0.39","6093cacf9a39751eedd55916","650c16f0f2faf8d7a0d14c09","651c1df2a4af61b043313480","null","null","<p style=""font-size: 60px; font-family: BACS"">rvUbQvlZ</p>","","","","","","","","",""
"html-keyboard-response","48","92061","0.0-8.0-0.40","6093cacf9a39751eedd55916","650c16f0f2faf8d7a0d14c09","651c1df2a4af61b043313480","null","null","<p style=""font-size: 60px; font-family: BACS"">DhCPTPOM</p>","","","","","","","","",""
"html-keyboard-response","49","93064","0.0-8.0-0.41","6093cacf9a39751eedd55916","650c16f0f2faf8d7a0d14c09","651c1df2a4af61b043313480","null","null","<p style=""font-size: 60px; font-family: BACS"">TDKhTAm</p>","","","","","","","","",""
"html-keyboard-response","50","94078","0.0-8.0-0.42","6093cacf9a39751eedd55916","650c16f0f2faf8d7a0d14c09","651c1df2a4af61b043313480","null","null","<p style=""font-size: 60px; font-family: BACS"">MBKREbAMO</p>","","","","","","","","",""
"html-keyboard-response","51","95080","0.0-8.0-0.43","6093cacf9a39751eedd55916","650c16f0f2faf8d7a0d14c09","651c1df2a4af61b043313480","null","null","<p style=""font-size: 60px; font-family: BACS"">bdUNuQvlZ</p>","","","","","","","","",""
"html-keyboard-response","52","96096","0.0-8.0-0.44","6093cacf9a39751eedd55916","650c16f0f2faf8d7a0d14c09","651c1df2a4af61b043313480","null","null","<p style=""font-size: 60px; font-family: BACS"">OcYMTPOM</p>","","","","","","","","",""
"html-keyboard-response","53","97098","0.0-8.0-0.45","6093cacf9a39751eedd55916","650c16f0f2faf8d7a0d14c09","651c1df2a4af61b043313480","null","null","<p style=""font-size: 60px; font-family: BACS"">dkLlQru</p>","","","","","","","","",""
"html-keyboard-response","54","98114","0.0-8.0-0.46","6093cacf9a39751eedd55916","650c16f0f2faf8d7a0d14c09","651c1df2a4af61b043313480","null","null","<p style=""font-size: 60px; font-family: BACS"">ckLALAZbl</p>","","","","","","","","",""
"html-keyboard-response","55","99130","0.0-8.0-0.47","6093cacf9a39751eedd55916","650c16f0f2faf8d7a0d14c09","651c1df2a4af61b043313480","null","null","<p style=""font-size: 60px; font-family: BACS"">GZJYQvlZ</p>","","","","","","","","",""
"html-keyboard-response","56","100132","0.0-8.0-0.48","6093cacf9a39751eedd55916","650c16f0f2faf8d7a0d14c09","651c1df2a4af61b043313480","null","null","<p style=""font-size: 60px; font-family: BACS"">rvUbOcN</p>","","","","","","","","",""
"html-keyboard-response","57","101134","0.0-8.0-0.49","6093cacf9a39751eedd55916","650c16f0f2faf8d7a0d14c09","651c1df2a4af61b043313480","null","null","<p style=""font-size: 60px; font-family: BACS"">dkLlQvlZ</p>","","","","","","","","",""
"html-keyboard-response","58","102150","0.0-8.0-0.50","6093cacf9a39751eedd55916","650c16f0f2faf8d7a0d14c09","651c1df2a4af61b043313480","null","null","<p style=""font-size: 60px; font-family: BACS"">DkTCPTAm</p>","","","","","","","","",""
"html-keyboard-response","59","103151","0.0-8.0-0.51","6093cacf9a39751eedd55916","650c16f0f2faf8d7a0d14c09","651c1df2a4af61b043313480","null","null","<p style=""font-size: 60px; font-family: BACS"">MhKdBRDh</p>","","","","","","","","",""
"html-keyboard-response","60","104167","0.0-8.0-0.52","6093cacf9a39751eedd55916","650c16f0f2faf8d7a0d14c09","651c1df2a4af61b043313480","null","null","<p style=""font-size: 60px; font-family: BACS"">DkTCPYht</p>","","","","","","","","",""
"html-keyboard-response","61","105183","0.0-8.0-0.53","6093cacf9a39751eedd55916","650c16f0f2faf8d7a0d14c09","651c1df2a4af61b043313480","null","null","<p style=""font-size: 60px; font-family: BACS"">rvUbArv</p>","","","","","","","","",""
"html-keyboard-response","62","106184","0.0-8.0-0.54","6093cacf9a39751eedd55916","650c16f0f2faf8d7a0d14c09","651c1df2a4af61b043313480","null","null","<p style=""font-size: 60px; font-family: BACS"">YlYcYht</p>","","","","","","","","",""
"html-keyboard-response","63","107201","0.0-8.0-0.55","6093cacf9a39751eedd55916","650c16f0f2faf8d7a0d14c09","651c1df2a4af61b043313480","null","null","<p style=""font-size: 60px; font-family: BACS"">ckLALOcN</p>","","","","","","","","",""
"html-keyboard-response","64","108202","0.0-8.0-0.56","6093cacf9a39751eedd55916","650c16f0f2faf8d7a0d14c09","651c1df2a4af61b043313480","null","null","<p style=""font-size: 60px; font-family: BACS"">ALGZArv</p>","","","","","","","","",""
"html-keyboard-response","65","109218","0.0-8.0-0.57","6093cacf9a39751eedd55916","650c16f0f2faf8d7a0d14c09","651c1df2a4af61b043313480","null","null","<p style=""font-size: 60px; font-family: BACS"">JmNkAZbl</p>","","","","","","","","",""
"html-keyboard-response","66","110234","0.0-8.0-0.58","6093cacf9a39751eedd55916","650c16f0f2faf8d7a0d14c09","651c1df2a4af61b043313480","null","null","<p style=""font-size: 60px; font-family: BACS"">OcYMTAm</p>","","","","","","","","",""
"html-keyboard-response","67","111236","0.0-8.0-0.59","6093cacf9a39751eedd55916","650c16f0f2faf8d7a0d14c09","651c1df2a4af61b043313480","null","null","<p style=""font-size: 60px; font-family: BACS"">bdUNuQru</p>","","","","","","","","",""
"html-keyboard-response","68","112252","0.0-8.0-0.60","6093cacf9a39751eedd55916","650c16f0f2faf8d7a0d14c09","651c1df2a4af61b043313480","null","null","<p style=""font-size: 60px; font-family: BACS"">GZJYAZbl</p>","","","","","","","","",""
"html-keyboard-response","69","113254","0.0-8.0-0.61","6093cacf9a39751eedd55916","650c16f0f2faf8d7a0d14c09","651c1df2a4af61b043313480","null","null","<p style=""font-size: 60px; font-family: BACS"">MhKdTPOM</p>","","","","","","","","",""
"html-keyboard-response","70","114256","0.0-8.0-0.62","6093cacf9a39751eedd55916","650c16f0f2faf8d7a0d14c09","651c1df2a4af61b043313480","null","null","<p style=""font-size: 60px; font-family: BACS"">ArQuOcN</p>","","","","","","","","",""
"html-keyboard-response","71","115270","0.0-8.0-0.63","6093cacf9a39751eedd55916","650c16f0f2faf8d7a0d14c09","651c1df2a4af61b043313480","null","null","<p style=""font-size: 60px; font-family: BACS"">TDKhTPOM</p>","","","","","","","","",""
"html-keyboard-response","72","116273","0.0-8.0-0.64","6093cacf9a39751eedd55916","650c16f0f2faf8d7a0d14c09","651c1df2a4af61b043313480","null","null","<p style=""font-size: 60px; font-family: BACS"">ckLALQru</p>","","","","","","","","",""
"html-keyboard-response","73","117288","0.0-8.0-0.65","6093cacf9a39751eedd55916","650c16f0f2faf8d7a0d14c09","651c1df2a4af61b043313480","null","null","<p style=""font-size: 60px; font-family: BACS"">dkLlOcN</p>","","","","","","","","",""
"html-keyboard-response","74","118289","0.0-8.0-0.66","6093cacf9a39751eedd55916","650c16f0f2faf8d7a0d14c09","651c1df2a4af61b043313480","null","null","<p style=""font-size: 60px; font-family: BACS"">JmNkArv</p>","","","","","","","","",""
"html-keyboard-response","75","119290","0.0-8.0-0.67","6093cacf9a39751eedd55916","650c16f0f2faf8d7a0d14c09","651c1df2a4af61b043313480","null","null","<p style=""font-size: 60px; font-family: BACS"">ZNLOvAZbl</p>","","","","","","","","",""
"html-keyboard-response","76","120305","0.0-8.0-0.68","6093cacf9a39751eedd55916","650c16f0f2faf8d7a0d14c09","651c1df2a4af61b043313480","null","null","<p style=""font-size: 60px; font-family: BACS"">MBKREYht</p>","","","","","","","","",""
"html-keyboard-response","77","121307","0.0-8.0-0.69","6093cacf9a39751eedd55916","650c16f0f2faf8d7a0d14c09","651c1df2a4af61b043313480","null","null","<p style=""font-size: 60px; font-family: BACS"">OcYMBRDh</p>","","","","","","","","",""
"html-keyboard-response","78","122323","0.0-8.0-0.70","6093cacf9a39751eedd55916","650c16f0f2faf8d7a0d14c09","651c1df2a4af61b043313480","null","null","<p style=""font-size: 60px; font-family: BACS"">DkTCPTPOM</p>","","","","","","","","",""
"html-keyboard-response","79","123340","0.0-8.0-0.71","6093cacf9a39751eedd55916","650c16f0f2faf8d7a0d14c09","651c1df2a4af61b043313480","null","null","<p style=""font-size: 60px; font-family: BACS"">rbYbuAZbl</p>","","","","","","","","",""
"html-keyboard-response","80","124341","0.0-8.0-0.72","6093cacf9a39751eedd55916","650c16f0f2faf8d7a0d14c09","651c1df2a4af61b043313480","null","null","<p style=""font-size: 60px; font-family: BACS"">DhMtbAMO</p>","","","","","","","","",""
"html-keyboard-response","81","125357","0.0-8.0-0.73","6093cacf9a39751eedd55916","650c16f0f2faf8d7a0d14c09","651c1df2a4af61b043313480","null","null","<p style=""font-size: 60px; font-family: BACS"">bdUNuArv</p>","","","","","","","","",""
"html-keyboard-response","82","126358","0.0-8.0-0.74","6093cacf9a39751eedd55916","650c16f0f2faf8d7a0d14c09","651c1df2a4af61b043313480","null","null","<p style=""font-size: 60px; font-family: BACS"">bAdkTAm</p>","","","","","","","","",""
"html-keyboard-response","83","127361","0.0-8.0-0.75","6093cacf9a39751eedd55916","650c16f0f2faf8d7a0d14c09","651c1df2a4af61b043313480","null","null","<p style=""font-size: 60px; font-family: BACS"">rvUbAZbl</p>","","","","","","","","",""
"html-keyboard-response","84","128375","0.0-8.0-0.76","6093cacf9a39751eedd55916","650c16f0f2faf8d7a0d14c09","651c1df2a4af61b043313480","null","null","<p style=""font-size: 60px; font-family: BACS"">YlYcTAm</p>","","","","","","","","",""
"html-keyboard-response","85","129390","0.0-8.0-0.77","6093cacf9a39751eedd55916","650c16f0f2faf8d7a0d14c09","651c1df2a4af61b043313480","null","null","<p style=""font-size: 60px; font-family: BACS"">tRdMBRDh</p>","","","","","","","","",""
"html-keyboard-response","86","130398","0.0-8.0-0.78","6093cacf9a39751eedd55916","650c16f0f2faf8d7a0d14c09","651c1df2a4af61b043313480","null","null","<p style=""font-size: 60px; font-family: BACS"">OcYMYht</p>","","","","","","","","",""
"html-keyboard-response","87","131410","0.0-8.0-0.79","6093cacf9a39751eedd55916","650c16f0f2faf8d7a0d14c09","651c1df2a4af61b043313480","null","null","<p style=""font-size: 60px; font-family: BACS"">ALGZQru</p>","","","","","","","","",""
"html-keyboard-response","88","135692","0.0-9.0","6093cacf9a39751eedd55916","650c16f0f2faf8d7a0d14c09","651c1df2a4af61b043313480","4281"," ","<p>Great, you've seen the first block of words. You may now take a short break.</p>
      <p>Press the spacebar when you're ready to continue.</p>","","","","","","","","",""
"html-keyboard-response","89","136696","0.0-10.0-0.0","6093cacf9a39751eedd55916","650c16f0f2faf8d7a0d14c09","651c1df2a4af61b043313480","null","null","<p style=""font-size: 60px; font-family: BACS"">DhMtBRDh</p>","","","","","","","","",""
"html-keyboard-response","90","137711","0.0-10.0-0.1","6093cacf9a39751eedd55916","650c16f0f2faf8d7a0d14c09","651c1df2a4af61b043313480","null","null","<p style=""font-size: 60px; font-family: BACS"">tRdMTPOM</p>","","","","","","","","",""
"html-keyboard-response","91","138714","0.0-10.0-0.2","6093cacf9a39751eedd55916","650c16f0f2faf8d7a0d14c09","651c1df2a4af61b043313480","null","null","<p style=""font-size: 60px; font-family: BACS"">rbYbuArv</p>","","","","","","","","",""
"html-keyboard-response","92","139729","0.0-10.0-0.3","6093cacf9a39751eedd55916","650c16f0f2faf8d7a0d14c09","651c1df2a4af61b043313480","null","null","<p style=""font-size: 60px; font-family: BACS"">dkLlQvlZ</p>","","","","","","","","",""
"html-keyboard-response","93","140731","0.0-10.0-0.4","6093cacf9a39751eedd55916","650c16f0f2faf8d7a0d14c09","651c1df2a4af61b043313480","null","null","<p style=""font-size: 60px; font-family: BACS"">ckLALAZbl</p>","","","","","","","","",""
"html-keyboard-response","94","141747","0.0-10.0-0.5","6093cacf9a39751eedd55916","650c16f0f2faf8d7a0d14c09","651c1df2a4af61b043313480","null","null","<p style=""font-size: 60px; font-family: BACS"">ArQuOcN</p>","","","","","","","","",""
"html-keyboard-response","95","142764","0.0-10.0-0.6","6093cacf9a39751eedd55916","650c16f0f2faf8d7a0d14c09","651c1df2a4af61b043313480","null","null","<p style=""font-size: 60px; font-family: BACS"">ZNLOvQru</p>","","","","","","","","",""
"html-keyboard-response","96","143766","0.0-10.0-0.7","6093cacf9a39751eedd55916","650c16f0f2faf8d7a0d14c09","651c1df2a4af61b043313480","null","null","<p style=""font-size: 60px; font-family: BACS"">TDKhTAm</p>","","","","","","","","",""
"html-keyboard-response","97","144783","0.0-10.0-0.8","6093cacf9a39751eedd55916","650c16f0f2faf8d7a0d14c09","651c1df2a4af61b043313480","null","null","<p style=""font-size: 60px; font-family: BACS"">rbYbuOcN</p>","","","","","","","","",""
"html-keyboard-response","98","145799","0.0-10.0-0.9","6093cacf9a39751eedd55916","650c16f0f2faf8d7a0d14c09","651c1df2a4af61b043313480","null","null","<p style=""font-size: 60px; font-family: BACS"">rvUbArv</p>","","","","","","","","",""
"html-keyboard-response","99","146800","0.0-10.0-0.10","6093cacf9a39751eedd55916","650c16f0f2faf8d7a0d14c09","651c1df2a4af61b043313480","null","null","<p style=""font-size: 60px; font-family: BACS"">DhCPTPOM</p>","","","","","","","","",""
"html-keyboard-response","100","147817","0.0-10.0-0.11","6093cacf9a39751eedd55916","650c16f0f2faf8d7a0d14c09","651c1df2a4af61b043313480","null","null","<p style=""font-size: 60px; font-family: BACS"">DkTCPbAMO</p>","","","","","","","","",""
"html-keyboard-response","101","148833","0.0-10.0-0.12","6093cacf9a39751eedd55916","650c16f0f2faf8d7a0d14c09","651c1df2a4af61b043313480","null","null","<p style=""font-size: 60px; font-family: BACS"">DhMtTAm</p>","","","","","","","","",""
"html-keyboard-response","102","149835","0.0-10.0-0.13","6093cacf9a39751eedd55916","650c16f0f2faf8d7a0d14c09","651c1df2a4af61b043313480","null","null","<p style=""font-size: 60px; font-family: BACS"">GZJYOcN</p>","","","","","","","","",""
"html-keyboard-response","103","150851","0.0-10.0-0.14","6093cacf9a39751eedd55916","650c16f0f2faf8d7a0d14c09","651c1df2a4af61b043313480","null","null","<p style=""font-size: 60px; font-family: BACS"">ALGZArv</p>","","","","","","","","",""
"html-keyboard-response","104","151853","0.0-10.0-0.15","6093cacf9a39751eedd55916","650c16f0f2faf8d7a0d14c09","651c1df2a4af61b043313480","null","null","<p style=""font-size: 60px; font-family: BACS"">JmNkQru</p>","","","","","","","","",""
"html-keyboard-response","105","152868","0.0-10.0-0.16","6093cacf9a39751eedd55916","650c16f0f2faf8d7a0d14c09","651c1df2a4af61b043313480","null","null","<p style=""font-size: 60px; font-family: BACS"">DhMtbAMO</p>","","","","","","","","",""
"html-keyboard-response","106","153870","0.0-10.0-0.17","6093cacf9a39751eedd55916","650c16f0f2faf8d7a0d14c09","651c1df2a4af61b043313480","null","null","<p style=""font-size: 60px; font-family: BACS"">YlYcTAm</p>","","","","","","","","",""
"html-keyboard-response","107","154884","0.0-10.0-0.18","6093cacf9a39751eedd55916","650c16f0f2faf8d7a0d14c09","651c1df2a4af61b043313480","null","null","<p style=""font-size: 60px; font-family: BACS"">tRdMbAMO</p>","","","","","","","","",""
"html-keyboard-response","108","155887","0.0-10.0-0.19","6093cacf9a39751eedd55916","650c16f0f2faf8d7a0d14c09","651c1df2a4af61b043313480","null","null","<p style=""font-size: 60px; font-family: BACS"">TDKhTPOM</p>","","","","","","","","",""
"html-keyboard-response","109","156903","0.0-10.0-0.20","6093cacf9a39751eedd55916","650c16f0f2faf8d7a0d14c09","651c1df2a4af61b043313480","null","null","<p style=""font-size: 60px; font-family: BACS"">rvUbQvlZ</p>","","","","","","","","",""
"html-keyboard-response","110","157906","0.0-10.0-0.21","6093cacf9a39751eedd55916","650c16f0f2faf8d7a0d14c09","651c1df2a4af61b043313480","null","null","<p style=""font-size: 60px; font-family: BACS"">bdUNuAZbl</p>","","","","","","","","",""
"html-keyboard-response","111","158921","0.0-10.0-0.22","6093cacf9a39751eedd55916","650c16f0f2faf8d7a0d14c09","651c1df2a4af61b043313480","null","null","<p style=""font-size: 60px; font-family: BACS"">tRdMBRDh</p>","","","","","","","","",""
"html-keyboard-response","112","159923","0.0-10.0-0.23","6093cacf9a39751eedd55916","650c16f0f2faf8d7a0d14c09","651c1df2a4af61b043313480","null","null","<p style=""font-size: 60px; font-family: BACS"">dkLlQru</p>","","","","","","","","",""
"html-keyboard-response","113","160938","0.0-10.0-0.24","6093cacf9a39751eedd55916","650c16f0f2faf8d7a0d14c09","651c1df2a4af61b043313480","null","null","<p style=""font-size: 60px; font-family: BACS"">GZJYAZbl</p>","","","","","","","","",""
"html-keyboard-response","114","161939","0.0-10.0-0.25","6093cacf9a39751eedd55916","650c16f0f2faf8d7a0d14c09","651c1df2a4af61b043313480","null","null","<p style=""font-size: 60px; font-family: BACS"">bAdkBRDh</p>","","","","","","","","",""
"html-keyboard-response","115","162955","0.0-10.0-0.26","6093cacf9a39751eedd55916","650c16f0f2faf8d7a0d14c09","651c1df2a4af61b043313480","null","null","<p style=""font-size: 60px; font-family: BACS"">JmNkArv</p>","","","","","","","","",""
"html-keyboard-response","116","163957","0.0-10.0-0.27","6093cacf9a39751eedd55916","650c16f0f2faf8d7a0d14c09","651c1df2a4af61b043313480","null","null","<p style=""font-size: 60px; font-family: BACS"">ArQuAZbl</p>","","","","","","","","",""
"html-keyboard-response","117","164973","0.0-10.0-0.28","6093cacf9a39751eedd55916","650c16f0f2faf8d7a0d14c09","651c1df2a4af61b043313480","null","null","<p style=""font-size: 60px; font-family: BACS"">YlYcYht</p>","","","","","","","","",""
"html-keyboard-response","118","165974","0.0-10.0-0.29","6093cacf9a39751eedd55916","650c16f0f2faf8d7a0d14c09","651c1df2a4af61b043313480","null","null","<p style=""font-size: 60px; font-family: BACS"">MhKdTPOM</p>","","","","","","","","",""
"html-keyboard-response","119","166976","0.0-10.0-0.30","6093cacf9a39751eedd55916","650c16f0f2faf8d7a0d14c09","651c1df2a4af61b043313480","null","null","<p style=""font-size: 60px; font-family: BACS"">ArQuQvlZ</p>","","","","","","","","",""
"html-keyboard-response","120","167991","0.0-10.0-0.31","6093cacf9a39751eedd55916","650c16f0f2faf8d7a0d14c09","651c1df2a4af61b043313480","null","null","<p style=""font-size: 60px; font-family: BACS"">bAdkTAm</p>","","","","","","","","",""
"html-keyboard-response","121","168992","0.0-10.0-0.32","6093cacf9a39751eedd55916","650c16f0f2faf8d7a0d14c09","651c1df2a4af61b043313480","null","null","<p style=""font-size: 60px; font-family: BACS"">MBKREYht</p>","","","","","","","","",""
"html-keyboard-response","122","169993","0.0-10.0-0.33","6093cacf9a39751eedd55916","650c16f0f2faf8d7a0d14c09","651c1df2a4af61b043313480","null","null","<p style=""font-size: 60px; font-family: BACS"">ckLALOcN</p>","","","","","","","","",""
"html-keyboard-response","123","170994","0.0-10.0-0.34","6093cacf9a39751eedd55916","650c16f0f2faf8d7a0d14c09","651c1df2a4af61b043313480","null","null","<p style=""font-size: 60px; font-family: BACS"">MBKREbAMO</p>","","","","","","","","",""
"html-keyboard-response","124","171996","0.0-10.0-0.35","6093cacf9a39751eedd55916","650c16f0f2faf8d7a0d14c09","651c1df2a4af61b043313480","null","null","<p style=""font-size: 60px; font-family: BACS"">DkTCPYht</p>","","","","","","","","",""
"html-keyboard-response","125","172998","0.0-10.0-0.36","6093cacf9a39751eedd55916","650c16f0f2faf8d7a0d14c09","651c1df2a4af61b043313480","null","null","<p style=""font-size: 60px; font-family: BACS"">ckLALArv</p>","","","","","","","","",""
"html-keyboard-response","126","173999","0.0-10.0-0.37","6093cacf9a39751eedd55916","650c16f0f2faf8d7a0d14c09","651c1df2a4af61b043313480","null","null","<p style=""font-size: 60px; font-family: BACS"">MhKdTAm</p>","","","","","","","","",""
"html-keyboard-response","127","175010","0.0-10.0-0.38","6093cacf9a39751eedd55916","650c16f0f2faf8d7a0d14c09","651c1df2a4af61b043313480","null","null","<p style=""font-size: 60px; font-family: BACS"">bdUNuArv</p>","","","","","","","","",""
"html-keyboard-response","128","176012","0.0-10.0-0.39","6093cacf9a39751eedd55916","650c16f0f2faf8d7a0d14c09","651c1df2a4af61b043313480","null","null","<p style=""font-size: 60px; font-family: BACS"">OcYMTPOM</p>","","","","","","","","",""
"html-keyboard-response","129","177029","0.0-10.0-0.40","6093cacf9a39751eedd55916","650c16f0f2faf8d7a0d14c09","651c1df2a4af61b043313480","null","null","<p style=""font-size: 60px; font-family: BACS"">rbYbuQvlZ</p>","","","","","","","","",""
"html-keyboard-response","130","178045","0.0-10.0-0.41","6093cacf9a39751eedd55916","650c16f0f2faf8d7a0d14c09","651c1df2a4af61b043313480","null","null","<p style=""font-size: 60px; font-family: BACS"">rvUbOcN</p>","","","","","","","","",""
"html-keyboard-response","131","179061","0.0-10.0-0.42","6093cacf9a39751eedd55916","650c16f0f2faf8d7a0d14c09","651c1df2a4af61b043313480","null","null","<p style=""font-size: 60px; font-family: BACS"">TDKhBRDh</p>","","","","","","","","",""
"html-keyboard-response","132","180064","0.0-10.0-0.43","6093cacf9a39751eedd55916","650c16f0f2faf8d7a0d14c09","651c1df2a4af61b043313480","null","null","<p style=""font-size: 60px; font-family: BACS"">DhCPbAMO</p>","","","","","","","","",""
"html-keyboard-response","133","181079","0.0-10.0-0.44","6093cacf9a39751eedd55916","650c16f0f2faf8d7a0d14c09","651c1df2a4af61b043313480","null","null","<p style=""font-size: 60px; font-family: BACS"">JmNkAZbl</p>","","","","","","","","",""
"html-keyboard-response","134","182080","0.0-10.0-0.45","6093cacf9a39751eedd55916","650c16f0f2faf8d7a0d14c09","651c1df2a4af61b043313480","null","null","<p style=""font-size: 60px; font-family: BACS"">OcYMTAm</p>","","","","","","","","",""
"html-keyboard-response","135","183097","0.0-10.0-0.46","6093cacf9a39751eedd55916","650c16f0f2faf8d7a0d14c09","651c1df2a4af61b043313480","null","null","<p style=""font-size: 60px; font-family: BACS"">bdUNuQvlZ</p>","","","","","","","","",""
"html-keyboard-response","136","184098","0.0-10.0-0.47","6093cacf9a39751eedd55916","650c16f0f2faf8d7a0d14c09","651c1df2a4af61b043313480","null","null","<p style=""font-size: 60px; font-family: BACS"">OcYMBRDh</p>","","","","","","","","",""
"html-keyboard-response","137","185114","0.0-10.0-0.48","6093cacf9a39751eedd55916","650c16f0f2faf8d7a0d14c09","651c1df2a4af61b043313480","null","null","<p style=""font-size: 60px; font-family: BACS"">dkLlOcN</p>","","","","","","","","",""
"html-keyboard-response","138","186116","0.0-10.0-0.49","6093cacf9a39751eedd55916","650c16f0f2faf8d7a0d14c09","651c1df2a4af61b043313480","null","null","<p style=""font-size: 60px; font-family: BACS"">rbYbuAZbl</p>","","","","","","","","",""
"html-keyboard-response","139","187132","0.0-10.0-0.50","6093cacf9a39751eedd55916","650c16f0f2faf8d7a0d14c09","651c1df2a4af61b043313480","null","null","<p style=""font-size: 60px; font-family: BACS"">TDKhbAMO</p>","","","","","","","","",""
"html-keyboard-response","140","188148","0.0-10.0-0.51","6093cacf9a39751eedd55916","650c16f0f2faf8d7a0d14c09","651c1df2a4af61b043313480","null","null","<p style=""font-size: 60px; font-family: BACS"">GZJYQvlZ</p>","","","","","","","","",""
"html-keyboard-response","141","189150","0.0-10.0-0.52","6093cacf9a39751eedd55916","650c16f0f2faf8d7a0d14c09","651c1df2a4af61b043313480","null","null","<p style=""font-size: 60px; font-family: BACS"">DkTCPTAm</p>","","","","","","","","",""
"html-keyboard-response","142","190166","0.0-10.0-0.53","6093cacf9a39751eedd55916","650c16f0f2faf8d7a0d14c09","651c1df2a4af61b043313480","null","null","<p style=""font-size: 60px; font-family: BACS"">DhMtYht</p>","","","","","","","","",""
"html-keyboard-response","143","191168","0.0-10.0-0.54","6093cacf9a39751eedd55916","650c16f0f2faf8d7a0d14c09","651c1df2a4af61b043313480","null","null","<p style=""font-size: 60px; font-family: BACS"">ckLALQru</p>","","","","","","","","",""
"html-keyboard-response","144","192184","0.0-10.0-0.55","6093cacf9a39751eedd55916","650c16f0f2faf8d7a0d14c09","651c1df2a4af61b043313480","null","null","<p style=""font-size: 60px; font-family: BACS"">dkLlArv</p>","","","","","","","","",""
"html-keyboard-response","145","193185","0.0-10.0-0.56","6093cacf9a39751eedd55916","650c16f0f2faf8d7a0d14c09","651c1df2a4af61b043313480","null","null","<p style=""font-size: 60px; font-family: BACS"">DhCPTAm</p>","","","","","","","","",""
"html-keyboard-response","146","194201","0.0-10.0-0.57","6093cacf9a39751eedd55916","650c16f0f2faf8d7a0d14c09","651c1df2a4af61b043313480","null","null","<p style=""font-size: 60px; font-family: BACS"">rvUbAZbl</p>","","","","","","","","",""
"html-keyboard-response","147","195217","0.0-10.0-0.58","6093cacf9a39751eedd55916","650c16f0f2faf8d7a0d14c09","651c1df2a4af61b043313480","null","null","<p style=""font-size: 60px; font-family: BACS"">MhKdBRDh</p>","","","","","","","","",""
"html-keyboard-response","148","196218","0.0-10.0-0.59","6093cacf9a39751eedd55916","650c16f0f2faf8d7a0d14c09","651c1df2a4af61b043313480","null","null","<p style=""font-size: 60px; font-family: BACS"">ArQuQru</p>","","","","","","","","",""
"html-keyboard-response","149","197235","0.0-10.0-0.60","6093cacf9a39751eedd55916","650c16f0f2faf8d7a0d14c09","651c1df2a4af61b043313480","null","null","<p style=""font-size: 60px; font-family: BACS"">ALGZQvlZ</p>","","","","","","","","",""
"html-keyboard-response","150","198238","0.0-10.0-0.61","6093cacf9a39751eedd55916","650c16f0f2faf8d7a0d14c09","651c1df2a4af61b043313480","null","null","<p style=""font-size: 60px; font-family: BACS"">ZNLOvOcN</p>","","","","","","","","",""
"html-keyboard-response","151","199253","0.0-10.0-0.62","6093cacf9a39751eedd55916","650c16f0f2faf8d7a0d14c09","651c1df2a4af61b043313480","null","null","<p style=""font-size: 60px; font-family: BACS"">MBKREBRDh</p>","","","","","","","","",""
"html-keyboard-response","152","200256","0.0-10.0-0.63","6093cacf9a39751eedd55916","650c16f0f2faf8d7a0d14c09","651c1df2a4af61b043313480","null","null","<p style=""font-size: 60px; font-family: BACS"">ZNLOvAZbl</p>","","","","","","","","",""
"html-keyboard-response","153","201270","0.0-10.0-0.64","6093cacf9a39751eedd55916","650c16f0f2faf8d7a0d14c09","651c1df2a4af61b043313480","null","null","<p style=""font-size: 60px; font-family: BACS"">YlYcbAMO</p>","","","","","","","","",""
"html-keyboard-response","154","202272","0.0-10.0-0.65","6093cacf9a39751eedd55916","650c16f0f2faf8d7a0d14c09","651c1df2a4af61b043313480","null","null","<p style=""font-size: 60px; font-family: BACS"">bAdkYht</p>","","","","","","","","",""
"html-keyboard-response","155","203288","0.0-10.0-0.66","6093cacf9a39751eedd55916","650c16f0f2faf8d7a0d14c09","651c1df2a4af61b043313480","null","null","<p style=""font-size: 60px; font-family: BACS"">JmNkQvlZ</p>","","","","","","","","",""
"html-keyboard-response","156","204304","0.0-10.0-0.67","6093cacf9a39751eedd55916","650c16f0f2faf8d7a0d14c09","651c1df2a4af61b043313480","null","null","<p style=""font-size: 60px; font-family: BACS"">tRdMYht</p>","","","","","","","","",""
"html-keyboard-response","157","205306","0.0-10.0-0.68","6093cacf9a39751eedd55916","650c16f0f2faf8d7a0d14c09","651c1df2a4af61b043313480","null","null","<p style=""font-size: 60px; font-family: BACS"">MBKRETPOM</p>","","","","","","","","",""
"html-keyboard-response","158","206322","0.0-10.0-0.69","6093cacf9a39751eedd55916","650c16f0f2faf8d7a0d14c09","651c1df2a4af61b043313480","null","null","<p style=""font-size: 60px; font-family: BACS"">MhKdbAMO</p>","","","","","","","","",""
"html-keyboard-response","159","207338","0.0-10.0-0.70","6093cacf9a39751eedd55916","650c16f0f2faf8d7a0d14c09","651c1df2a4af61b043313480","null","null","<p style=""font-size: 60px; font-family: BACS"">YlYcBRDh</p>","","","","","","","","",""
"html-keyboard-response","160","208340","0.0-10.0-0.71","6093cacf9a39751eedd55916","650c16f0f2faf8d7a0d14c09","651c1df2a4af61b043313480","null","null","<p style=""font-size: 60px; font-family: BACS"">bAdkTPOM</p>","","","","","","","","",""
"html-keyboard-response","161","209341","0.0-10.0-0.72","6093cacf9a39751eedd55916","650c16f0f2faf8d7a0d14c09","651c1df2a4af61b043313480","null","null","<p style=""font-size: 60px; font-family: BACS"">GZJYQru</p>","","","","","","","","",""
"html-keyboard-response","162","210356","0.0-10.0-0.73","6093cacf9a39751eedd55916","650c16f0f2faf8d7a0d14c09","651c1df2a4af61b043313480","null","null","<p style=""font-size: 60px; font-family: BACS"">DhCPYht</p>","","","","","","","","",""
"html-keyboard-response","163","211358","0.0-10.0-0.74","6093cacf9a39751eedd55916","650c16f0f2faf8d7a0d14c09","651c1df2a4af61b043313480","null","null","<p style=""font-size: 60px; font-family: BACS"">ZNLOvArv</p>","","","","","","","","",""
"html-keyboard-response","164","212375","0.0-10.0-0.75","6093cacf9a39751eedd55916","650c16f0f2faf8d7a0d14c09","651c1df2a4af61b043313480","null","null","<p style=""font-size: 60px; font-family: BACS"">ALGZOcN</p>","","","","","","","","",""
"html-keyboard-response","165","213392","0.0-10.0-0.76","6093cacf9a39751eedd55916","650c16f0f2faf8d7a0d14c09","651c1df2a4af61b043313480","null","null","<p style=""font-size: 60px; font-family: BACS"">DkTCPTPOM</p>","","","","","","","","",""
"html-keyboard-response","166","214407","0.0-10.0-0.77","6093cacf9a39751eedd55916","650c16f0f2faf8d7a0d14c09","651c1df2a4af61b043313480","null","null","<p style=""font-size: 60px; font-family: BACS"">bdUNuQru</p>","","","","","","","","",""
"html-keyboard-response","167","215410","0.0-10.0-0.78","6093cacf9a39751eedd55916","650c16f0f2faf8d7a0d14c09","651c1df2a4af61b043313480","null","null","<p style=""font-size: 60px; font-family: BACS"">OcYMYht</p>","","","","","","","","",""
"html-keyboard-response","168","216425","0.0-10.0-0.79","6093cacf9a39751eedd55916","650c16f0f2faf8d7a0d14c09","651c1df2a4af61b043313480","null","null","<p style=""font-size: 60px; font-family: BACS"">ALGZQru</p>","","","","","","","","",""
"html-keyboard-response","169","271707","0.0-11.0","6093cacf9a39751eedd55916","650c16f0f2faf8d7a0d14c09","651c1df2a4af61b043313480","55286"," ","<p>Great, you've seen the second block of words. You may now take a short break.</p>
      <p>Press the spacebar when you're ready to continue.</p>","","","","","","","","",""
"html-keyboard-response","170","272711","0.0-12.0-0.0","6093cacf9a39751eedd55916","650c16f0f2faf8d7a0d14c09","651c1df2a4af61b043313480","null","null","<p style=""font-size: 60px; font-family: BACS"">dkLlQru</p>","","","","","","","","",""
"html-keyboard-response","171","273727","0.0-12.0-0.1","6093cacf9a39751eedd55916","650c16f0f2faf8d7a0d14c09","651c1df2a4af61b043313480","null","null","<p style=""font-size: 60px; font-family: BACS"">YlYcYht</p>","","","","","","","","",""
"html-keyboard-response","172","274743","0.0-12.0-0.2","6093cacf9a39751eedd55916","650c16f0f2faf8d7a0d14c09","651c1df2a4af61b043313480","null","null","<p style=""font-size: 60px; font-family: BACS"">JmNkQvlZ</p>","","","","","","","","",""
"html-keyboard-response","173","275745","0.0-12.0-0.3","6093cacf9a39751eedd55916","650c16f0f2faf8d7a0d14c09","651c1df2a4af61b043313480","null","null","<p style=""font-size: 60px; font-family: BACS"">ALGZQru</p>","","","","","","","","",""
"html-keyboard-response","174","276746","0.0-12.0-0.4","6093cacf9a39751eedd55916","650c16f0f2faf8d7a0d14c09","651c1df2a4af61b043313480","null","null","<p style=""font-size: 60px; font-family: BACS"">ckLALArv</p>","","","","","","","","",""
"html-keyboard-response","175","277762","0.0-12.0-0.5","6093cacf9a39751eedd55916","650c16f0f2faf8d7a0d14c09","651c1df2a4af61b043313480","null","null","<p style=""font-size: 60px; font-family: BACS"">OcYMTPOM</p>","","","","","","","","",""
"html-keyboard-response","176","278778","0.0-12.0-0.6","6093cacf9a39751eedd55916","650c16f0f2faf8d7a0d14c09","651c1df2a4af61b043313480","null","null","<p style=""font-size: 60px; font-family: BACS"">DhCPYht</p>","","","","","","","","",""
"html-keyboard-response","177","279781","0.0-12.0-0.7","6093cacf9a39751eedd55916","650c16f0f2faf8d7a0d14c09","651c1df2a4af61b043313480","null","null","<p style=""font-size: 60px; font-family: BACS"">MhKdBRDh</p>","","","","","","","","",""
"html-keyboard-response","178","280797","0.0-12.0-0.8","6093cacf9a39751eedd55916","650c16f0f2faf8d7a0d14c09","651c1df2a4af61b043313480","null","null","<p style=""font-size: 60px; font-family: BACS"">rbYbuAZbl</p>","","","","","","","","",""
"html-keyboard-response","179","281813","0.0-12.0-0.9","6093cacf9a39751eedd55916","650c16f0f2faf8d7a0d14c09","651c1df2a4af61b043313480","null","null","<p style=""font-size: 60px; font-family: BACS"">JmNkQru</p>","","","","","","","","",""
"html-keyboard-response","180","282815","0.0-12.0-0.10","6093cacf9a39751eedd55916","650c16f0f2faf8d7a0d14c09","651c1df2a4af61b043313480","null","null","<p style=""font-size: 60px; font-family: BACS"">tRdMbAMO</p>","","","","","","","","",""
"html-keyboard-response","181","283831","0.0-12.0-0.11","6093cacf9a39751eedd55916","650c16f0f2faf8d7a0d14c09","651c1df2a4af61b043313480","null","null","<p style=""font-size: 60px; font-family: BACS"">JmNkArv</p>","","","","","","","","",""
"html-keyboard-response","182","284848","0.0-12.0-0.12","6093cacf9a39751eedd55916","650c16f0f2faf8d7a0d14c09","651c1df2a4af61b043313480","null","null","<p style=""font-size: 60px; font-family: BACS"">MBKRETPOM</p>","","","","","","","","",""
"html-keyboard-response","183","285850","0.0-12.0-0.13","6093cacf9a39751eedd55916","650c16f0f2faf8d7a0d14c09","651c1df2a4af61b043313480","null","null","<p style=""font-size: 60px; font-family: BACS"">MhKdTAm</p>","","","","","","","","",""
"html-keyboard-response","184","286866","0.0-12.0-0.14","6093cacf9a39751eedd55916","650c16f0f2faf8d7a0d14c09","651c1df2a4af61b043313480","null","null","<p style=""font-size: 60px; font-family: BACS"">GZJYOcN</p>","","","","","","","","",""
"html-keyboard-response","185","287881","0.0-12.0-0.15","6093cacf9a39751eedd55916","650c16f0f2faf8d7a0d14c09","651c1df2a4af61b043313480","null","null","<p style=""font-size: 60px; font-family: BACS"">tRdMBRDh</p>","","","","","","","","",""
"html-keyboard-response","186","288883","0.0-12.0-0.16","6093cacf9a39751eedd55916","650c16f0f2faf8d7a0d14c09","651c1df2a4af61b043313480","null","null","<p style=""font-size: 60px; font-family: BACS"">MhKdbAMO</p>","","","","","","","","",""
"html-keyboard-response","187","289885","0.0-12.0-0.17","6093cacf9a39751eedd55916","650c16f0f2faf8d7a0d14c09","651c1df2a4af61b043313480","null","null","<p style=""font-size: 60px; font-family: BACS"">GZJYAZbl</p>","","","","","","","","",""
"html-keyboard-response","188","290899","0.0-12.0-0.18","6093cacf9a39751eedd55916","650c16f0f2faf8d7a0d14c09","651c1df2a4af61b043313480","null","null","<p style=""font-size: 60px; font-family: BACS"">DkTCPbAMO</p>","","","","","","","","",""
"html-keyboard-response","189","291902","0.0-12.0-0.19","6093cacf9a39751eedd55916","650c16f0f2faf8d7a0d14c09","651c1df2a4af61b043313480","null","null","<p style=""font-size: 60px; font-family: BACS"">TDKhTAm</p>","","","","","","","","",""
"html-keyboard-response","190","292917","0.0-12.0-0.20","6093cacf9a39751eedd55916","650c16f0f2faf8d7a0d14c09","651c1df2a4af61b043313480","null","null","<p style=""font-size: 60px; font-family: BACS"">rbYbuArv</p>","","","","","","","","",""
"html-keyboard-response","191","293933","0.0-12.0-0.21","6093cacf9a39751eedd55916","650c16f0f2faf8d7a0d14c09","651c1df2a4af61b043313480","null","null","<p style=""font-size: 60px; font-family: BACS"">ZNLOvOcN</p>","","","","","","","","",""
"html-keyboard-response","192","294936","0.0-12.0-0.22","6093cacf9a39751eedd55916","650c16f0f2faf8d7a0d14c09","651c1df2a4af61b043313480","null","null","<p style=""font-size: 60px; font-family: BACS"">ALGZArv</p>","","","","","","","","",""
"html-keyboard-response","193","295952","0.0-12.0-0.23","6093cacf9a39751eedd55916","650c16f0f2faf8d7a0d14c09","651c1df2a4af61b043313480","null","null","<p style=""font-size: 60px; font-family: BACS"">bdUNuQru</p>","","","","","","","","",""
"html-keyboard-response","194","296956","0.0-12.0-0.24","6093cacf9a39751eedd55916","650c16f0f2faf8d7a0d14c09","651c1df2a4af61b043313480","null","null","<p style=""font-size: 60px; font-family: BACS"">tRdMTPOM</p>","","","","","","","","",""
"html-keyboard-response","195","297970","0.0-12.0-0.25","6093cacf9a39751eedd55916","650c16f0f2faf8d7a0d14c09","651c1df2a4af61b043313480","null","null","<p style=""font-size: 60px; font-family: BACS"">DhMtTAm</p>","","","","","","","","",""
"html-keyboard-response","196","298971","0.0-12.0-0.26","6093cacf9a39751eedd55916","650c16f0f2faf8d7a0d14c09","651c1df2a4af61b043313480","null","null","<p style=""font-size: 60px; font-family: BACS"">MBKREBRDh</p>","","","","","","","","",""
"html-keyboard-response","197","299986","0.0-12.0-0.27","6093cacf9a39751eedd55916","650c16f0f2faf8d7a0d14c09","651c1df2a4af61b043313480","null","null","<p style=""font-size: 60px; font-family: BACS"">DhCPbAMO</p>","","","","","","","","",""
"html-keyboard-response","198","300988","0.0-12.0-0.28","6093cacf9a39751eedd55916","650c16f0f2faf8d7a0d14c09","651c1df2a4af61b043313480","null","null","<p style=""font-size: 60px; font-family: BACS"">OcYMTAm</p>","","","","","","","","",""
"html-keyboard-response","199","301989","0.0-12.0-0.29","6093cacf9a39751eedd55916","650c16f0f2faf8d7a0d14c09","651c1df2a4af61b043313480","null","null","<p style=""font-size: 60px; font-family: BACS"">ArQuOcN</p>","","","","","","","","",""
"html-keyboard-response","200","302994","0.0-12.0-0.30","6093cacf9a39751eedd55916","650c16f0f2faf8d7a0d14c09","651c1df2a4af61b043313480","null","null","<p style=""font-size: 60px; font-family: BACS"">GZJYQru</p>","","","","","","","","",""
"html-keyboard-response","201","304004","0.0-12.0-0.31","6093cacf9a39751eedd55916","650c16f0f2faf8d7a0d14c09","651c1df2a4af61b043313480","null","null","<p style=""font-size: 60px; font-family: BACS"">DhMtbAMO</p>","","","","","","","","",""
"html-keyboard-response","202","305007","0.0-12.0-0.32","6093cacf9a39751eedd55916","650c16f0f2faf8d7a0d14c09","651c1df2a4af61b043313480","null","null","<p style=""font-size: 60px; font-family: BACS"">MhKdTPOM</p>","","","","","","","","",""
"html-keyboard-response","203","306023","0.0-12.0-0.33","6093cacf9a39751eedd55916","650c16f0f2faf8d7a0d14c09","651c1df2a4af61b043313480","null","null","<p style=""font-size: 60px; font-family: BACS"">rvUbQvlZ</p>","","","","","","","","",""
"html-keyboard-response","204","307039","0.0-12.0-0.34","6093cacf9a39751eedd55916","650c16f0f2faf8d7a0d14c09","651c1df2a4af61b043313480","null","null","<p style=""font-size: 60px; font-family: BACS"">ArQuAZbl</p>","","","","","","","","",""
"html-keyboard-response","205","308056","0.0-12.0-0.35","6093cacf9a39751eedd55916","650c16f0f2faf8d7a0d14c09","651c1df2a4af61b043313480","null","null","<p style=""font-size: 60px; font-family: BACS"">bAdkBRDh</p>","","","","","","","","",""
"html-keyboard-response","206","309059","0.0-12.0-0.36","6093cacf9a39751eedd55916","650c16f0f2faf8d7a0d14c09","651c1df2a4af61b043313480","null","null","<p style=""font-size: 60px; font-family: BACS"">YlYcbAMO</p>","","","","","","","","",""
"html-keyboard-response","207","310074","0.0-12.0-0.37","6093cacf9a39751eedd55916","650c16f0f2faf8d7a0d14c09","651c1df2a4af61b043313480","null","null","<p style=""font-size: 60px; font-family: BACS"">DkTCPTAm</p>","","","","","","","","",""
"html-keyboard-response","208","311075","0.0-12.0-0.38","6093cacf9a39751eedd55916","650c16f0f2faf8d7a0d14c09","651c1df2a4af61b043313480","null","null","<p style=""font-size: 60px; font-family: BACS"">TDKhTPOM</p>","","","","","","","","",""
"html-keyboard-response","209","312087","0.0-12.0-0.39","6093cacf9a39751eedd55916","650c16f0f2faf8d7a0d14c09","651c1df2a4af61b043313480","null","null","<p style=""font-size: 60px; font-family: BACS"">dkLlArv</p>","","","","","","","","",""
"html-keyboard-response","210","313092","0.0-12.0-0.40","6093cacf9a39751eedd55916","650c16f0f2faf8d7a0d14c09","651c1df2a4af61b043313480","null","null","<p style=""font-size: 60px; font-family: BACS"">GZJYQvlZ</p>","","","","","","","","",""
"html-keyboard-response","211","314109","0.0-12.0-0.41","6093cacf9a39751eedd55916","650c16f0f2faf8d7a0d14c09","651c1df2a4af61b043313480","null","null","<p style=""font-size: 60px; font-family: BACS"">TDKhBRDh</p>","","","","","","","","",""
"html-keyboard-response","212","315125","0.0-12.0-0.42","6093cacf9a39751eedd55916","650c16f0f2faf8d7a0d14c09","651c1df2a4af61b043313480","null","null","<p style=""font-size: 60px; font-family: BACS"">bdUNuArv</p>","","","","","","","","",""
"html-keyboard-response","213","316127","0.0-12.0-0.43","6093cacf9a39751eedd55916","650c16f0f2faf8d7a0d14c09","651c1df2a4af61b043313480","null","null","<p style=""font-size: 60px; font-family: BACS"">ckLALAZbl</p>","","","","","","","","",""
"html-keyboard-response","214","317143","0.0-12.0-0.44","6093cacf9a39751eedd55916","650c16f0f2faf8d7a0d14c09","651c1df2a4af61b043313480","null","null","<p style=""font-size: 60px; font-family: BACS"">ALGZOcN</p>","","","","","","","","",""
"html-keyboard-response","215","318145","0.0-12.0-0.45","6093cacf9a39751eedd55916","650c16f0f2faf8d7a0d14c09","651c1df2a4af61b043313480","null","null","<p style=""font-size: 60px; font-family: BACS"">rbYbuQvlZ</p>","","","","","","","","",""
"html-keyboard-response","216","319146","0.0-12.0-0.46","6093cacf9a39751eedd55916","650c16f0f2faf8d7a0d14c09","651c1df2a4af61b043313480","null","null","<p style=""font-size: 60px; font-family: BACS"">DhCPTPOM</p>","","","","","","","","",""
"html-keyboard-response","217","320161","0.0-12.0-0.47","6093cacf9a39751eedd55916","650c16f0f2faf8d7a0d14c09","651c1df2a4af61b043313480","null","null","<p style=""font-size: 60px; font-family: BACS"">DkTCPYht</p>","","","","","","","","",""
"html-keyboard-response","218","321168","0.0-12.0-0.48","6093cacf9a39751eedd55916","650c16f0f2faf8d7a0d14c09","651c1df2a4af61b043313480","null","null","<p style=""font-size: 60px; font-family: BACS"">DhMtBRDh</p>","","","","","","","","",""
"html-keyboard-response","219","322179","0.0-12.0-0.49","6093cacf9a39751eedd55916","650c16f0f2faf8d7a0d14c09","651c1df2a4af61b043313480","null","null","<p style=""font-size: 60px; font-family: BACS"">rvUbOcN</p>","","","","","","","","",""
"html-keyboard-response","220","323196","0.0-12.0-0.50","6093cacf9a39751eedd55916","650c16f0f2faf8d7a0d14c09","651c1df2a4af61b043313480","null","null","<p style=""font-size: 60px; font-family: BACS"">ckLALQru</p>","","","","","","","","",""
"html-keyboard-response","221","324197","0.0-12.0-0.51","6093cacf9a39751eedd55916","650c16f0f2faf8d7a0d14c09","651c1df2a4af61b043313480","null","null","<p style=""font-size: 60px; font-family: BACS"">dkLlQvlZ</p>","","","","","","","","",""
"html-keyboard-response","222","325213","0.0-12.0-0.52","6093cacf9a39751eedd55916","650c16f0f2faf8d7a0d14c09","651c1df2a4af61b043313480","null","null","<p style=""font-size: 60px; font-family: BACS"">TDKhbAMO</p>","","","","","","","","",""
"html-keyboard-response","223","326230","0.0-12.0-0.53","6093cacf9a39751eedd55916","650c16f0f2faf8d7a0d14c09","651c1df2a4af61b043313480","null","null","<p style=""font-size: 60px; font-family: BACS"">bAdkTPOM</p>","","","","","","","","",""
"html-keyboard-response","224","327232","0.0-12.0-0.54","6093cacf9a39751eedd55916","650c16f0f2faf8d7a0d14c09","651c1df2a4af61b043313480","null","null","<p style=""font-size: 60px; font-family: BACS"">OcYMBRDh</p>","","","","","","","","",""
"html-keyboard-response","225","328233","0.0-12.0-0.55","6093cacf9a39751eedd55916","650c16f0f2faf8d7a0d14c09","651c1df2a4af61b043313480","null","null","<p style=""font-size: 60px; font-family: BACS"">ArQuQvlZ</p>","","","","","","","","",""
"html-keyboard-response","226","329248","0.0-12.0-0.56","6093cacf9a39751eedd55916","650c16f0f2faf8d7a0d14c09","651c1df2a4af61b043313480","null","null","<p style=""font-size: 60px; font-family: BACS"">DhMtYht</p>","","","","","","","","",""
"html-keyboard-response","227","330249","0.0-12.0-0.57","6093cacf9a39751eedd55916","650c16f0f2faf8d7a0d14c09","651c1df2a4af61b043313480","null","null","<p style=""font-size: 60px; font-family: BACS"">bAdkTAm</p>","","","","","","","","",""
"html-keyboard-response","228","331265","0.0-12.0-0.58","6093cacf9a39751eedd55916","650c16f0f2faf8d7a0d14c09","651c1df2a4af61b043313480","null","null","<p style=""font-size: 60px; font-family: BACS"">OcYMYht</p>","","","","","","","","",""
"html-keyboard-response","229","332271","0.0-12.0-0.59","6093cacf9a39751eedd55916","650c16f0f2faf8d7a0d14c09","651c1df2a4af61b043313480","null","null","<p style=""font-size: 60px; font-family: BACS"">bdUNuQvlZ</p>","","","","","","","","",""
"html-keyboard-response","230","333287","0.0-12.0-0.60","6093cacf9a39751eedd55916","650c16f0f2faf8d7a0d14c09","651c1df2a4af61b043313480","null","null","<p style=""font-size: 60px; font-family: BACS"">ZNLOvArv</p>","","","","","","","","",""
"html-keyboard-response","231","334289","0.0-12.0-0.61","6093cacf9a39751eedd55916","650c16f0f2faf8d7a0d14c09","651c1df2a4af61b043313480","null","null","<p style=""font-size: 60px; font-family: BACS"">MBKREYht</p>","","","","","","","","",""
"html-keyboard-response","232","335305","0.0-12.0-0.62","6093cacf9a39751eedd55916","650c16f0f2faf8d7a0d14c09","651c1df2a4af61b043313480","null","null","<p style=""font-size: 60px; font-family: BACS"">ZNLOvAZbl</p>","","","","","","","","",""
"html-keyboard-response","233","336307","0.0-12.0-0.63","6093cacf9a39751eedd55916","650c16f0f2faf8d7a0d14c09","651c1df2a4af61b043313480","null","null","<p style=""font-size: 60px; font-family: BACS"">ALGZQvlZ</p>","","","","","","","","",""
"html-keyboard-response","234","337321","0.0-12.0-0.64","6093cacf9a39751eedd55916","650c16f0f2faf8d7a0d14c09","651c1df2a4af61b043313480","null","null","<p style=""font-size: 60px; font-family: BACS"">MBKREbAMO</p>","","","","","","","","",""
"html-keyboard-response","235","338324","0.0-12.0-0.65","6093cacf9a39751eedd55916","650c16f0f2faf8d7a0d14c09","651c1df2a4af61b043313480","null","null","<p style=""font-size: 60px; font-family: BACS"">rbYbuOcN</p>","","","","","","","","",""
"html-keyboard-response","236","339339","0.0-12.0-0.66","6093cacf9a39751eedd55916","650c16f0f2faf8d7a0d14c09","651c1df2a4af61b043313480","null","null","<p style=""font-size: 60px; font-family: BACS"">tRdMYht</p>","","","","","","","","",""
"html-keyboard-response","237","340342","0.0-12.0-0.67","6093cacf9a39751eedd55916","650c16f0f2faf8d7a0d14c09","651c1df2a4af61b043313480","null","null","<p style=""font-size: 60px; font-family: BACS"">DhCPTAm</p>","","","","","","","","",""
"html-keyboard-response","238","341356","0.0-12.0-0.68","6093cacf9a39751eedd55916","650c16f0f2faf8d7a0d14c09","651c1df2a4af61b043313480","null","null","<p style=""font-size: 60px; font-family: BACS"">ckLALOcN</p>","","","","","","","","",""
"html-keyboard-response","239","342359","0.0-12.0-0.69","6093cacf9a39751eedd55916","650c16f0f2faf8d7a0d14c09","651c1df2a4af61b043313480","null","null","<p style=""font-size: 60px; font-family: BACS"">rvUbArv</p>","","","","","","","","",""
"html-keyboard-response","240","343375","0.0-12.0-0.70","6093cacf9a39751eedd55916","650c16f0f2faf8d7a0d14c09","651c1df2a4af61b043313480","null","null","<p style=""font-size: 60px; font-family: BACS"">bdUNuAZbl</p>","","","","","","","","",""
"html-keyboard-response","241","344376","0.0-12.0-0.71","6093cacf9a39751eedd55916","650c16f0f2faf8d7a0d14c09","651c1df2a4af61b043313480","null","null","<p style=""font-size: 60px; font-family: BACS"">bAdkYht</p>","","","","","","","","",""
"html-keyboard-response","242","345391","0.0-12.0-0.72","6093cacf9a39751eedd55916","650c16f0f2faf8d7a0d14c09","651c1df2a4af61b043313480","null","null","<p style=""font-size: 60px; font-family: BACS"">ZNLOvQru</p>","","","","","","","","",""
"html-keyboard-response","243","346408","0.0-12.0-0.73","6093cacf9a39751eedd55916","650c16f0f2faf8d7a0d14c09","651c1df2a4af61b043313480","null","null","<p style=""font-size: 60px; font-family: BACS"">YlYcBRDh</p>","","","","","","","","",""
"html-keyboard-response","244","347409","0.0-12.0-0.74","6093cacf9a39751eedd55916","650c16f0f2faf8d7a0d14c09","651c1df2a4af61b043313480","null","null","<p style=""font-size: 60px; font-family: BACS"">rvUbAZbl</p>","","","","","","","","",""
"html-keyboard-response","245","348412","0.0-12.0-0.75","6093cacf9a39751eedd55916","650c16f0f2faf8d7a0d14c09","651c1df2a4af61b043313480","null","null","<p style=""font-size: 60px; font-family: BACS"">DkTCPTPOM</p>","","","","","","","","",""
"html-keyboard-response","246","349426","0.0-12.0-0.76","6093cacf9a39751eedd55916","650c16f0f2faf8d7a0d14c09","651c1df2a4af61b043313480","null","null","<p style=""font-size: 60px; font-family: BACS"">YlYcTAm</p>","","","","","","","","",""
"html-keyboard-response","247","350427","0.0-12.0-0.77","6093cacf9a39751eedd55916","650c16f0f2faf8d7a0d14c09","651c1df2a4af61b043313480","null","null","<p style=""font-size: 60px; font-family: BACS"">dkLlOcN</p>","","","","","","","","",""
"html-keyboard-response","248","351444","0.0-12.0-0.78","6093cacf9a39751eedd55916","650c16f0f2faf8d7a0d14c09","651c1df2a4af61b043313480","null","null","<p style=""font-size: 60px; font-family: BACS"">JmNkAZbl</p>","","","","","","","","",""
"html-keyboard-response","249","352460","0.0-12.0-0.79","6093cacf9a39751eedd55916","650c16f0f2faf8d7a0d14c09","651c1df2a4af61b043313480","null","null","<p style=""font-size: 60px; font-family: BACS"">ArQuQru</p>","","","","","","","","",""
"html-keyboard-response","250","470282","0.0-13.0","6093cacf9a39751eedd55916","650c16f0f2faf8d7a0d14c09","651c1df2a4af61b043313480","117834"," ","<p>Great, you've seen the third block of words. You may now take a short break.</p>
      <p>Press the spacebar when you're ready to continue.</p>","","","","","","","","",""
"html-keyboard-response","251","471294","0.0-14.0-0.0","6093cacf9a39751eedd55916","650c16f0f2faf8d7a0d14c09","651c1df2a4af61b043313480","null","null","<p style=""font-size: 60px; font-family: BACS"">ALGZOcN</p>","","","","","","","","",""
"html-keyboard-response","252","472296","0.0-14.0-0.1","6093cacf9a39751eedd55916","650c16f0f2faf8d7a0d14c09","651c1df2a4af61b043313480","null","null","<p style=""font-size: 60px; font-family: BACS"">OcYMBRDh</p>","","","","","","","","",""
"html-keyboard-response","253","473311","0.0-14.0-0.2","6093cacf9a39751eedd55916","650c16f0f2faf8d7a0d14c09","651c1df2a4af61b043313480","null","null","<p style=""font-size: 60px; font-family: BACS"">DhCPTAm</p>","","","","","","","","",""
"html-keyboard-response","254","474327","0.0-14.0-0.3","6093cacf9a39751eedd55916","650c16f0f2faf8d7a0d14c09","651c1df2a4af61b043313480","null","null","<p style=""font-size: 60px; font-family: BACS"">DkTCPYht</p>","","","","","","","","",""
"html-keyboard-response","255","475329","0.0-14.0-0.4","6093cacf9a39751eedd55916","650c16f0f2faf8d7a0d14c09","651c1df2a4af61b043313480","null","null","<p style=""font-size: 60px; font-family: BACS"">JmNkArv</p>","","","","","","","","",""
"html-keyboard-response","256","476346","0.0-14.0-0.5","6093cacf9a39751eedd55916","650c16f0f2faf8d7a0d14c09","651c1df2a4af61b043313480","null","null","<p style=""font-size: 60px; font-family: BACS"">ArQuOcN</p>","","","","","","","","",""
"html-keyboard-response","257","477361","0.0-14.0-0.6","6093cacf9a39751eedd55916","650c16f0f2faf8d7a0d14c09","651c1df2a4af61b043313480","null","null","<p style=""font-size: 60px; font-family: BACS"">rbYbuQvlZ</p>","","","","","","","","",""
"html-keyboard-response","258","478363","0.0-14.0-0.7","6093cacf9a39751eedd55916","650c16f0f2faf8d7a0d14c09","651c1df2a4af61b043313480","null","null","<p style=""font-size: 60px; font-family: BACS"">bdUNuQru</p>","","","","","","","","",""
"html-keyboard-response","259","479364","0.0-14.0-0.8","6093cacf9a39751eedd55916","650c16f0f2faf8d7a0d14c09","651c1df2a4af61b043313480","null","null","<p style=""font-size: 60px; font-family: BACS"">ALGZArv</p>","","","","","","","","",""
"html-keyboard-response","260","480380","0.0-14.0-0.9","6093cacf9a39751eedd55916","650c16f0f2faf8d7a0d14c09","651c1df2a4af61b043313480","null","null","<p style=""font-size: 60px; font-family: BACS"">GZJYQvlZ</p>","","","","","","","","",""
"html-keyboard-response","261","481381","0.0-14.0-0.10","6093cacf9a39751eedd55916","650c16f0f2faf8d7a0d14c09","651c1df2a4af61b043313480","null","null","<p style=""font-size: 60px; font-family: BACS"">rbYbuAZbl</p>","","","","","","","","",""
"html-keyboard-response","262","482398","0.0-14.0-0.11","6093cacf9a39751eedd55916","650c16f0f2faf8d7a0d14c09","651c1df2a4af61b043313480","null","null","<p style=""font-size: 60px; font-family: BACS"">dkLlQru</p>","","","","","","","","",""
"html-keyboard-response","263","483413","0.0-14.0-0.12","6093cacf9a39751eedd55916","650c16f0f2faf8d7a0d14c09","651c1df2a4af61b043313480","null","null","<p style=""font-size: 60px; font-family: BACS"">bAdkTAm</p>","","","","","","","","",""
"html-keyboard-response","264","484416","0.0-14.0-0.13","6093cacf9a39751eedd55916","650c16f0f2faf8d7a0d14c09","651c1df2a4af61b043313480","null","null","<p style=""font-size: 60px; font-family: BACS"">ArQuQru</p>","","","","","","","","",""
"html-keyboard-response","265","485432","0.0-14.0-0.14","6093cacf9a39751eedd55916","650c16f0f2faf8d7a0d14c09","651c1df2a4af61b043313480","null","null","<p style=""font-size: 60px; font-family: BACS"">YlYcYht</p>","","","","","","","","",""
"html-keyboard-response","266","486448","0.0-14.0-0.15","6093cacf9a39751eedd55916","650c16f0f2faf8d7a0d14c09","651c1df2a4af61b043313480","null","null","<p style=""font-size: 60px; font-family: BACS"">rvUbQvlZ</p>","","","","","","","","",""
"html-keyboard-response","267","487449","0.0-14.0-0.16","6093cacf9a39751eedd55916","650c16f0f2faf8d7a0d14c09","651c1df2a4af61b043313480","null","null","<p style=""font-size: 60px; font-family: BACS"">TDKhTAm</p>","","","","","","","","",""
"html-keyboard-response","268","488465","0.0-14.0-0.17","6093cacf9a39751eedd55916","650c16f0f2faf8d7a0d14c09","651c1df2a4af61b043313480","null","null","<p style=""font-size: 60px; font-family: BACS"">YlYcBRDh</p>","","","","","","","","",""
"html-keyboard-response","269","489467","0.0-14.0-0.18","6093cacf9a39751eedd55916","650c16f0f2faf8d7a0d14c09","651c1df2a4af61b043313480","null","null","<p style=""font-size: 60px; font-family: BACS"">ZNLOvQru</p>","","","","","","","","",""
"html-keyboard-response","270","490469","0.0-14.0-0.19","6093cacf9a39751eedd55916","650c16f0f2faf8d7a0d14c09","651c1df2a4af61b043313480","null","null","<p style=""font-size: 60px; font-family: BACS"">rbYbuArv</p>","","","","","","","","",""
"html-keyboard-response","271","491484","0.0-14.0-0.20","6093cacf9a39751eedd55916","650c16f0f2faf8d7a0d14c09","651c1df2a4af61b043313480","null","null","<p style=""font-size: 60px; font-family: BACS"">tRdMbAMO</p>","","","","","","","","",""
"html-keyboard-response","272","492500","0.0-14.0-0.21","6093cacf9a39751eedd55916","650c16f0f2faf8d7a0d14c09","651c1df2a4af61b043313480","null","null","<p style=""font-size: 60px; font-family: BACS"">ZNLOvOcN</p>","","","","","","","","",""
"html-keyboard-response","273","493502","0.0-14.0-0.22","6093cacf9a39751eedd55916","650c16f0f2faf8d7a0d14c09","651c1df2a4af61b043313480","null","null","<p style=""font-size: 60px; font-family: BACS"">DkTCPTAm</p>","","","","","","","","",""
"html-keyboard-response","274","494518","0.0-14.0-0.23","6093cacf9a39751eedd55916","650c16f0f2faf8d7a0d14c09","651c1df2a4af61b043313480","null","null","<p style=""font-size: 60px; font-family: BACS"">ckLALQru</p>","","","","","","","","",""
"html-keyboard-response","275","495520","0.0-14.0-0.24","6093cacf9a39751eedd55916","650c16f0f2faf8d7a0d14c09","651c1df2a4af61b043313480","null","null","<p style=""font-size: 60px; font-family: BACS"">JmNkAZbl</p>","","","","","","","","",""
"html-keyboard-response","276","496536","0.0-14.0-0.25","6093cacf9a39751eedd55916","650c16f0f2faf8d7a0d14c09","651c1df2a4af61b043313480","null","null","<p style=""font-size: 60px; font-family: BACS"">bAdkTPOM</p>","","","","","","","","",""
"html-keyboard-response","277","497538","0.0-14.0-0.26","6093cacf9a39751eedd55916","650c16f0f2faf8d7a0d14c09","651c1df2a4af61b043313480","null","null","<p style=""font-size: 60px; font-family: BACS"">OcYMYht</p>","","","","","","","","",""
"html-keyboard-response","278","498553","0.0-14.0-0.27","6093cacf9a39751eedd55916","650c16f0f2faf8d7a0d14c09","651c1df2a4af61b043313480","null","null","<p style=""font-size: 60px; font-family: BACS"">JmNkQvlZ</p>","","","","","","","","",""
"html-keyboard-response","279","499554","0.0-14.0-0.28","6093cacf9a39751eedd55916","650c16f0f2faf8d7a0d14c09","651c1df2a4af61b043313480","null","null","<p style=""font-size: 60px; font-family: BACS"">DhMtBRDh</p>","","","","","","","","",""
"html-keyboard-response","280","500570","0.0-14.0-0.29","6093cacf9a39751eedd55916","650c16f0f2faf8d7a0d14c09","651c1df2a4af61b043313480","null","null","<p style=""font-size: 60px; font-family: BACS"">GZJYOcN</p>","","","","","","","","",""
"html-keyboard-response","281","501573","0.0-14.0-0.30","6093cacf9a39751eedd55916","650c16f0f2faf8d7a0d14c09","651c1df2a4af61b043313480","null","null","<p style=""font-size: 60px; font-family: BACS"">bdUNuAZbl</p>","","","","","","","","",""
"html-keyboard-response","282","502589","0.0-14.0-0.31","6093cacf9a39751eedd55916","650c16f0f2faf8d7a0d14c09","651c1df2a4af61b043313480","null","null","<p style=""font-size: 60px; font-family: BACS"">GZJYQru</p>","","","","","","","","",""
"html-keyboard-response","283","503603","0.0-14.0-0.32","6093cacf9a39751eedd55916","650c16f0f2faf8d7a0d14c09","651c1df2a4af61b043313480","null","null","<p style=""font-size: 60px; font-family: BACS"">MhKdTAm</p>","","","","","","","","",""
"html-keyboard-response","284","504607","0.0-14.0-0.33","6093cacf9a39751eedd55916","650c16f0f2faf8d7a0d14c09","651c1df2a4af61b043313480","null","null","<p style=""font-size: 60px; font-family: BACS"">ALGZQvlZ</p>","","","","","","","","",""
"html-keyboard-response","285","505623","0.0-14.0-0.34","6093cacf9a39751eedd55916","650c16f0f2faf8d7a0d14c09","651c1df2a4af61b043313480","null","null","<p style=""font-size: 60px; font-family: BACS"">MhKdbAMO</p>","","","","","","","","",""
"html-keyboard-response","286","506625","0.0-14.0-0.35","6093cacf9a39751eedd55916","650c16f0f2faf8d7a0d14c09","651c1df2a4af61b043313480","null","null","<p style=""font-size: 60px; font-family: BACS"">rvUbOcN</p>","","","","","","","","",""
"html-keyboard-response","287","507640","0.0-14.0-0.36","6093cacf9a39751eedd55916","650c16f0f2faf8d7a0d14c09","651c1df2a4af61b043313480","null","null","<p style=""font-size: 60px; font-family: BACS"">YlYcTAm</p>","","","","","","","","",""
"html-keyboard-response","288","508642","0.0-14.0-0.37","6093cacf9a39751eedd55916","650c16f0f2faf8d7a0d14c09","651c1df2a4af61b043313480","null","null","<p style=""font-size: 60px; font-family: BACS"">GZJYAZbl</p>","","","","","","","","",""
"html-keyboard-response","289","509659","0.0-14.0-0.38","6093cacf9a39751eedd55916","650c16f0f2faf8d7a0d14c09","651c1df2a4af61b043313480","null","null","<p style=""font-size: 60px; font-family: BACS"">MhKdTPOM</p>","","","","","","","","",""
"html-keyboard-response","290","510675","0.0-14.0-0.39","6093cacf9a39751eedd55916","650c16f0f2faf8d7a0d14c09","651c1df2a4af61b043313480","null","null","<p style=""font-size: 60px; font-family: BACS"">DkTCPbAMO</p>","","","","","","","","",""
"html-keyboard-response","291","511677","0.0-14.0-0.40","6093cacf9a39751eedd55916","650c16f0f2faf8d7a0d14c09","651c1df2a4af61b043313480","null","null","<p style=""font-size: 60px; font-family: BACS"">rvUbAZbl</p>","","","","","","","","",""
"html-keyboard-response","292","512692","0.0-14.0-0.41","6093cacf9a39751eedd55916","650c16f0f2faf8d7a0d14c09","651c1df2a4af61b043313480","null","null","<p style=""font-size: 60px; font-family: BACS"">OcYMTAm</p>","","","","","","","","",""
"html-keyboard-response","293","513709","0.0-14.0-0.42","6093cacf9a39751eedd55916","650c16f0f2faf8d7a0d14c09","651c1df2a4af61b043313480","null","null","<p style=""font-size: 60px; font-family: BACS"">ckLALAZbl</p>","","","","","","","","",""
"html-keyboard-response","294","514711","0.0-14.0-0.43","6093cacf9a39751eedd55916","650c16f0f2faf8d7a0d14c09","651c1df2a4af61b043313480","null","null","<p style=""font-size: 60px; font-family: BACS"">DhMtbAMO</p>","","","","","","","","",""
"html-keyboard-response","295","515726","0.0-14.0-0.44","6093cacf9a39751eedd55916","650c16f0f2faf8d7a0d14c09","651c1df2a4af61b043313480","null","null","<p style=""font-size: 60px; font-family: BACS"">JmNkQru</p>","","","","","","","","",""
"html-keyboard-response","296","516729","0.0-14.0-0.45","6093cacf9a39751eedd55916","650c16f0f2faf8d7a0d14c09","651c1df2a4af61b043313480","null","null","<p style=""font-size: 60px; font-family: BACS"">DhCPYht</p>","","","","","","","","",""
"html-keyboard-response","297","517729","0.0-14.0-0.46","6093cacf9a39751eedd55916","650c16f0f2faf8d7a0d14c09","651c1df2a4af61b043313480","null","null","<p style=""font-size: 60px; font-family: BACS"">ArQuAZbl</p>","","","","","","","","",""
"html-keyboard-response","298","518745","0.0-14.0-0.47","6093cacf9a39751eedd55916","650c16f0f2faf8d7a0d14c09","651c1df2a4af61b043313480","null","null","<p style=""font-size: 60px; font-family: BACS"">bdUNuQvlZ</p>","","","","","","","","",""
"html-keyboard-response","299","519762","0.0-14.0-0.48","6093cacf9a39751eedd55916","650c16f0f2faf8d7a0d14c09","651c1df2a4af61b043313480","null","null","<p style=""font-size: 60px; font-family: BACS"">TDKhBRDh</p>","","","","","","","","",""
"html-keyboard-response","300","520778","0.0-14.0-0.49","6093cacf9a39751eedd55916","650c16f0f2faf8d7a0d14c09","651c1df2a4af61b043313480","null","null","<p style=""font-size: 60px; font-family: BACS"">rbYbuOcN</p>","","","","","","","","",""
"html-keyboard-response","301","521780","0.0-14.0-0.50","6093cacf9a39751eedd55916","650c16f0f2faf8d7a0d14c09","651c1df2a4af61b043313480","null","null","<p style=""font-size: 60px; font-family: BACS"">bAdkYht</p>","","","","","","","","",""
"html-keyboard-response","302","522796","0.0-14.0-0.51","6093cacf9a39751eedd55916","650c16f0f2faf8d7a0d14c09","651c1df2a4af61b043313480","null","null","<p style=""font-size: 60px; font-family: BACS"">DhMtTAm</p>","","","","","","","","",""
"html-keyboard-response","303","523812","0.0-14.0-0.52","6093cacf9a39751eedd55916","650c16f0f2faf8d7a0d14c09","651c1df2a4af61b043313480","null","null","<p style=""font-size: 60px; font-family: BACS"">dkLlArv</p>","","","","","","","","",""
"html-keyboard-response","304","524829","0.0-14.0-0.53","6093cacf9a39751eedd55916","650c16f0f2faf8d7a0d14c09","651c1df2a4af61b043313480","null","null","<p style=""font-size: 60px; font-family: BACS"">DkTCPTPOM</p>","","","","","","","","",""
"html-keyboard-response","305","525846","0.0-14.0-0.54","6093cacf9a39751eedd55916","650c16f0f2faf8d7a0d14c09","651c1df2a4af61b043313480","null","null","<p style=""font-size: 60px; font-family: BACS"">ALGZQru</p>","","","","","","","","",""
"html-keyboard-response","306","526848","0.0-14.0-0.55","6093cacf9a39751eedd55916","650c16f0f2faf8d7a0d14c09","651c1df2a4af61b043313480","null","null","<p style=""font-size: 60px; font-family: BACS"">ckLALOcN</p>","","","","","","","","",""
"html-keyboard-response","307","527849","0.0-14.0-0.56","6093cacf9a39751eedd55916","650c16f0f2faf8d7a0d14c09","651c1df2a4af61b043313480","null","null","<p style=""font-size: 60px; font-family: BACS"">dkLlQvlZ</p>","","","","","","","","",""
"html-keyboard-response","308","528864","0.0-14.0-0.57","6093cacf9a39751eedd55916","650c16f0f2faf8d7a0d14c09","651c1df2a4af61b043313480","null","null","<p style=""font-size: 60px; font-family: BACS"">MBKRETPOM</p>","","","","","","","","",""
"html-keyboard-response","309","529867","0.0-14.0-0.58","6093cacf9a39751eedd55916","650c16f0f2faf8d7a0d14c09","651c1df2a4af61b043313480","null","null","<p style=""font-size: 60px; font-family: BACS"">bAdkBRDh</p>","","","","","","","","",""
"html-keyboard-response","310","530888","0.0-14.0-0.59","6093cacf9a39751eedd55916","650c16f0f2faf8d7a0d14c09","651c1df2a4af61b043313480","null","null","<p style=""font-size: 60px; font-family: BACS"">YlYcbAMO</p>","","","","","","","","",""
"html-keyboard-response","311","531896","0.0-14.0-0.60","6093cacf9a39751eedd55916","650c16f0f2faf8d7a0d14c09","651c1df2a4af61b043313480","null","null","<p style=""font-size: 60px; font-family: BACS"">bdUNuArv</p>","","","","","","","","",""
"html-keyboard-response","312","532899","0.0-14.0-0.61","6093cacf9a39751eedd55916","650c16f0f2faf8d7a0d14c09","651c1df2a4af61b043313480","null","null","<p style=""font-size: 60px; font-family: BACS"">DhCPTPOM</p>","","","","","","","","",""
"html-keyboard-response","313","533914","0.0-14.0-0.62","6093cacf9a39751eedd55916","650c16f0f2faf8d7a0d14c09","651c1df2a4af61b043313480","null","null","<p style=""font-size: 60px; font-family: BACS"">tRdMYht</p>","","","","","","","","",""
"html-keyboard-response","314","534930","0.0-14.0-0.63","6093cacf9a39751eedd55916","650c16f0f2faf8d7a0d14c09","651c1df2a4af61b043313480","null","null","<p style=""font-size: 60px; font-family: BACS"">TDKhTPOM</p>","","","","","","","","",""
"html-keyboard-response","315","535932","0.0-14.0-0.64","6093cacf9a39751eedd55916","650c16f0f2faf8d7a0d14c09","651c1df2a4af61b043313480","null","null","<p style=""font-size: 60px; font-family: BACS"">MBKREbAMO</p>","","","","","","","","",""
"html-keyboard-response","316","536933","0.0-14.0-0.65","6093cacf9a39751eedd55916","650c16f0f2faf8d7a0d14c09","651c1df2a4af61b043313480","null","null","<p style=""font-size: 60px; font-family: BACS"">dkLlOcN</p>","","","","","","","","",""
"html-keyboard-response","317","537948","0.0-14.0-0.66","6093cacf9a39751eedd55916","650c16f0f2faf8d7a0d14c09","651c1df2a4af61b043313480","null","null","<p style=""font-size: 60px; font-family: BACS"">DhMtYht</p>","","","","","","","","",""
"html-keyboard-response","318","538951","0.0-14.0-0.67","6093cacf9a39751eedd55916","650c16f0f2faf8d7a0d14c09","651c1df2a4af61b043313480","null","null","<p style=""font-size: 60px; font-family: BACS"">ckLALArv</p>","","","","","","","","",""
"html-keyboard-response","319","539967","0.0-14.0-0.68","6093cacf9a39751eedd55916","650c16f0f2faf8d7a0d14c09","651c1df2a4af61b043313480","null","null","<p style=""font-size: 60px; font-family: BACS"">ZNLOvAZbl</p>","","","","","","","","",""
"html-keyboard-response","320","540982","0.0-14.0-0.69","6093cacf9a39751eedd55916","650c16f0f2faf8d7a0d14c09","651c1df2a4af61b043313480","null","null","<p style=""font-size: 60px; font-family: BACS"">MBKREBRDh</p>","","","","","","","","",""
"html-keyboard-response","321","541985","0.0-14.0-0.70","6093cacf9a39751eedd55916","650c16f0f2faf8d7a0d14c09","651c1df2a4af61b043313480","null","null","<p style=""font-size: 60px; font-family: BACS"">TDKhbAMO</p>","","","","","","","","",""
"html-keyboard-response","322","542988","0.0-14.0-0.71","6093cacf9a39751eedd55916","650c16f0f2faf8d7a0d14c09","651c1df2a4af61b043313480","null","null","<p style=""font-size: 60px; font-family: BACS"">MhKdBRDh</p>","","","","","","","","",""
"html-keyboard-response","323","543990","0.0-14.0-0.72","6093cacf9a39751eedd55916","650c16f0f2faf8d7a0d14c09","651c1df2a4af61b043313480","null","null","<p style=""font-size: 60px; font-family: BACS"">OcYMTPOM</p>","","","","","","","","",""
"html-keyboard-response","324","545001","0.0-14.0-0.73","6093cacf9a39751eedd55916","650c16f0f2faf8d7a0d14c09","651c1df2a4af61b043313480","null","null","<p style=""font-size: 60px; font-family: BACS"">DhCPbAMO</p>","","","","","","","","",""
"html-keyboard-response","325","546004","0.0-14.0-0.74","6093cacf9a39751eedd55916","650c16f0f2faf8d7a0d14c09","651c1df2a4af61b043313480","null","null","<p style=""font-size: 60px; font-family: BACS"">tRdMBRDh</p>","","","","","","","","",""
"html-keyboard-response","326","547020","0.0-14.0-0.75","6093cacf9a39751eedd55916","650c16f0f2faf8d7a0d14c09","651c1df2a4af61b043313480","null","null","<p style=""font-size: 60px; font-family: BACS"">ZNLOvArv</p>","","","","","","","","",""
"html-keyboard-response","327","548036","0.0-14.0-0.76","6093cacf9a39751eedd55916","650c16f0f2faf8d7a0d14c09","651c1df2a4af61b043313480","null","null","<p style=""font-size: 60px; font-family: BACS"">ArQuQvlZ</p>","","","","","","","","",""
"html-keyboard-response","328","549037","0.0-14.0-0.77","6093cacf9a39751eedd55916","650c16f0f2faf8d7a0d14c09","651c1df2a4af61b043313480","null","null","<p style=""font-size: 60px; font-family: BACS"">tRdMTPOM</p>","","","","","","","","",""
"html-keyboard-response","329","550053","0.0-14.0-0.78","6093cacf9a39751eedd55916","650c16f0f2faf8d7a0d14c09","651c1df2a4af61b043313480","null","null","<p style=""font-size: 60px; font-family: BACS"">MBKREYht</p>","","","","","","","","",""
"html-keyboard-response","330","551055","0.0-14.0-0.79","6093cacf9a39751eedd55916","650c16f0f2faf8d7a0d14c09","651c1df2a4af61b043313480","null","null","<p style=""font-size: 60px; font-family: BACS"">rvUbArv</p>","","","","","","","","",""
"html-keyboard-response","331","619808","0.0-15.0","6093cacf9a39751eedd55916","650c16f0f2faf8d7a0d14c09","651c1df2a4af61b043313480","68755"," ","<p>Great, you've seen the fourth block of words. You may now take a short break.</p>
      <p>Press the spacebar when you're ready to continue.</p>","","","","","","","","",""
"html-keyboard-response","332","620811","0.0-16.0-0.0","6093cacf9a39751eedd55916","650c16f0f2faf8d7a0d14c09","651c1df2a4af61b043313480","null","null","<p style=""font-size: 60px; font-family: BACS"">ALGZQru</p>","","","","","","","","",""
"html-keyboard-response","333","621813","0.0-16.0-0.1","6093cacf9a39751eedd55916","650c16f0f2faf8d7a0d14c09","651c1df2a4af61b043313480","null","null","<p style=""font-size: 60px; font-family: BACS"">ALGZQru</p>","","","","","","","","",""
"html-keyboard-response","334","622829","0.0-16.0-0.2","6093cacf9a39751eedd55916","650c16f0f2faf8d7a0d14c09","651c1df2a4af61b043313480","null","null","<p style=""font-size: 60px; font-family: BACS"">ALGZQru</p>","","","","","","","","",""
"html-keyboard-response","335","623830","0.0-16.0-0.3","6093cacf9a39751eedd55916","650c16f0f2faf8d7a0d14c09","651c1df2a4af61b043313480","null","null","<p style=""font-size: 60px; font-family: BACS"">ALGZQru</p>","","","","","","","","",""
"html-keyboard-response","336","624845","0.0-16.0-0.4","6093cacf9a39751eedd55916","650c16f0f2faf8d7a0d14c09","651c1df2a4af61b043313480","null","null","<p style=""font-size: 60px; font-family: BACS"">ALGZQru</p>","","","","","","","","",""
"html-keyboard-response","337","625847","0.0-16.0-0.5","6093cacf9a39751eedd55916","650c16f0f2faf8d7a0d14c09","651c1df2a4af61b043313480","null","null","<p style=""font-size: 60px; font-family: BACS"">ALGZQru</p>","","","","","","","","",""
"html-keyboard-response","338","626863","0.0-16.0-0.6","6093cacf9a39751eedd55916","650c16f0f2faf8d7a0d14c09","651c1df2a4af61b043313480","null","null","<p style=""font-size: 60px; font-family: BACS"">ALGZQru</p>","","","","","","","","",""
"html-keyboard-response","339","627880","0.0-16.0-0.7","6093cacf9a39751eedd55916","650c16f0f2faf8d7a0d14c09","651c1df2a4af61b043313480","null","null","<p style=""font-size: 60px; font-family: BACS"">ALGZQru</p>","","","","","","","","",""
"html-keyboard-response","340","628885","0.0-16.0-0.8","6093cacf9a39751eedd55916","650c16f0f2faf8d7a0d14c09","651c1df2a4af61b043313480","null","null","<p style=""font-size: 60px; font-family: BACS"">ALGZQru</p>","","","","","","","","",""
"html-keyboard-response","341","629900","0.0-16.0-0.9","6093cacf9a39751eedd55916","650c16f0f2faf8d7a0d14c09","651c1df2a4af61b043313480","null","null","<p style=""font-size: 60px; font-family: BACS"">ALGZQru</p>","","","","","","","","",""
"html-keyboard-response","342","630901","0.0-16.0-0.10","6093cacf9a39751eedd55916","650c16f0f2faf8d7a0d14c09","651c1df2a4af61b043313480","null","null","<p style=""font-size: 60px; font-family: BACS"">ALGZQru</p>","","","","","","","","",""
"html-keyboard-response","343","631903","0.0-16.0-0.11","6093cacf9a39751eedd55916","650c16f0f2faf8d7a0d14c09","651c1df2a4af61b043313480","null","null","<p style=""font-size: 60px; font-family: BACS"">ALGZQru</p>","","","","","","","","",""
"html-keyboard-response","344","632917","0.0-16.0-0.12","6093cacf9a39751eedd55916","650c16f0f2faf8d7a0d14c09","651c1df2a4af61b043313480","null","null","<p style=""font-size: 60px; font-family: BACS"">ALGZQru</p>","","","","","","","","",""
"html-keyboard-response","345","633919","0.0-16.0-0.13","6093cacf9a39751eedd55916","650c16f0f2faf8d7a0d14c09","651c1df2a4af61b043313480","null","null","<p style=""font-size: 60px; font-family: BACS"">ALGZQru</p>","","","","","","","","",""
"html-keyboard-response","346","634936","0.0-16.0-0.14","6093cacf9a39751eedd55916","650c16f0f2faf8d7a0d14c09","651c1df2a4af61b043313480","null","null","<p style=""font-size: 60px; font-family: BACS"">ALGZQru</p>","","","","","","","","",""
"html-keyboard-response","347","635952","0.0-16.0-0.15","6093cacf9a39751eedd55916","650c16f0f2faf8d7a0d14c09","651c1df2a4af61b043313480","null","null","<p style=""font-size: 60px; font-family: BACS"">ALGZQru</p>","","","","","","","","",""
"html-keyboard-response","348","636969","0.0-16.0-0.16","6093cacf9a39751eedd55916","650c16f0f2faf8d7a0d14c09","651c1df2a4af61b043313480","null","null","<p style=""font-size: 60px; font-family: BACS"">ALGZQru</p>","","","","","","","","",""
"html-keyboard-response","349","637971","0.0-16.0-0.17","6093cacf9a39751eedd55916","650c16f0f2faf8d7a0d14c09","651c1df2a4af61b043313480","null","null","<p style=""font-size: 60px; font-family: BACS"">ALGZQru</p>","","","","","","","","",""
"html-keyboard-response","350","638988","0.0-16.0-0.18","6093cacf9a39751eedd55916","650c16f0f2faf8d7a0d14c09","651c1df2a4af61b043313480","null","null","<p style=""font-size: 60px; font-family: BACS"">ALGZQru</p>","","","","","","","","",""
"html-keyboard-response","351","639989","0.0-16.0-0.19","6093cacf9a39751eedd55916","650c16f0f2faf8d7a0d14c09","651c1df2a4af61b043313480","null","null","<p style=""font-size: 60px; font-family: BACS"">ALGZQru</p>","","","","","","","","",""
"html-keyboard-response","352","640992","0.0-16.0-0.20","6093cacf9a39751eedd55916","650c16f0f2faf8d7a0d14c09","651c1df2a4af61b043313480","null","null","<p style=""font-size: 60px; font-family: BACS"">ALGZQru</p>","","","","","","","","",""
"html-keyboard-response","353","641993","0.0-16.0-0.21","6093cacf9a39751eedd55916","650c16f0f2faf8d7a0d14c09","651c1df2a4af61b043313480","null","null","<p style=""font-size: 60px; font-family: BACS"">ALGZQru</p>","","","","","","","","",""
"html-keyboard-response","354","643006","0.0-16.0-0.22","6093cacf9a39751eedd55916","650c16f0f2faf8d7a0d14c09","651c1df2a4af61b043313480","null","null","<p style=""font-size: 60px; font-family: BACS"">ALGZQru</p>","","","","","","","","",""
"html-keyboard-response","355","644021","0.0-16.0-0.23","6093cacf9a39751eedd55916","650c16f0f2faf8d7a0d14c09","651c1df2a4af61b043313480","null","null","<p style=""font-size: 60px; font-family: BACS"">ALGZQru</p>","","","","","","","","",""
"html-keyboard-response","356","645038","0.0-16.0-0.24","6093cacf9a39751eedd55916","650c16f0f2faf8d7a0d14c09","651c1df2a4af61b043313480","null","null","<p style=""font-size: 60px; font-family: BACS"">ALGZQru</p>","","","","","","","","",""
"html-keyboard-response","357","646042","0.0-16.0-0.25","6093cacf9a39751eedd55916","650c16f0f2faf8d7a0d14c09","651c1df2a4af61b043313480","null","null","<p style=""font-size: 60px; font-family: BACS"">ALGZQru</p>","","","","","","","","",""
"html-keyboard-response","358","647058","0.0-16.0-0.26","6093cacf9a39751eedd55916","650c16f0f2faf8d7a0d14c09","651c1df2a4af61b043313480","null","null","<p style=""font-size: 60px; font-family: BACS"">ALGZQru</p>","","","","","","","","",""
"html-keyboard-response","359","648059","0.0-16.0-0.27","6093cacf9a39751eedd55916","650c16f0f2faf8d7a0d14c09","651c1df2a4af61b043313480","null","null","<p style=""font-size: 60px; font-family: BACS"">ALGZQru</p>","","","","","","","","",""
"html-keyboard-response","360","649074","0.0-16.0-0.28","6093cacf9a39751eedd55916","650c16f0f2faf8d7a0d14c09","651c1df2a4af61b043313480","null","null","<p style=""font-size: 60px; font-family: BACS"">ALGZQru</p>","","","","","","","","",""
"html-keyboard-response","361","650091","0.0-16.0-0.29","6093cacf9a39751eedd55916","650c16f0f2faf8d7a0d14c09","651c1df2a4af61b043313480","null","null","<p style=""font-size: 60px; font-family: BACS"">ALGZQru</p>","","","","","","","","",""
"html-keyboard-response","362","651092","0.0-16.0-0.30","6093cacf9a39751eedd55916","650c16f0f2faf8d7a0d14c09","651c1df2a4af61b043313480","null","null","<p style=""font-size: 60px; font-family: BACS"">ALGZQru</p>","","","","","","","","",""
"html-keyboard-response","363","652109","0.0-16.0-0.31","6093cacf9a39751eedd55916","650c16f0f2faf8d7a0d14c09","651c1df2a4af61b043313480","null","null","<p style=""font-size: 60px; font-family: BACS"">ALGZQru</p>","","","","","","","","",""
"html-keyboard-response","364","653123","0.0-16.0-0.32","6093cacf9a39751eedd55916","650c16f0f2faf8d7a0d14c09","651c1df2a4af61b043313480","null","null","<p style=""font-size: 60px; font-family: BACS"">ALGZQru</p>","","","","","","","","",""
"html-keyboard-response","365","654125","0.0-16.0-0.33","6093cacf9a39751eedd55916","650c16f0f2faf8d7a0d14c09","651c1df2a4af61b043313480","null","null","<p style=""font-size: 60px; font-family: BACS"">ALGZQru</p>","","","","","","","","",""
"html-keyboard-response","366","655142","0.0-16.0-0.34","6093cacf9a39751eedd55916","650c16f0f2faf8d7a0d14c09","651c1df2a4af61b043313480","null","null","<p style=""font-size: 60px; font-family: BACS"">ALGZQru</p>","","","","","","","","",""
"html-keyboard-response","367","656158","0.0-16.0-0.35","6093cacf9a39751eedd55916","650c16f0f2faf8d7a0d14c09","651c1df2a4af61b043313480","null","null","<p style=""font-size: 60px; font-family: BACS"">ALGZQru</p>","","","","","","","","",""
"html-keyboard-response","368","657159","0.0-16.0-0.36","6093cacf9a39751eedd55916","650c16f0f2faf8d7a0d14c09","651c1df2a4af61b043313480","null","null","<p style=""font-size: 60px; font-family: BACS"">ALGZQru</p>","","","","","","","","",""
"html-keyboard-response","369","658175","0.0-16.0-0.37","6093cacf9a39751eedd55916","650c16f0f2faf8d7a0d14c09","651c1df2a4af61b043313480","null","null","<p style=""font-size: 60px; font-family: BACS"">ALGZQru</p>","","","","","","","","",""
"html-keyboard-response","370","659177","0.0-16.0-0.38","6093cacf9a39751eedd55916","650c16f0f2faf8d7a0d14c09","651c1df2a4af61b043313480","null","null","<p style=""font-size: 60px; font-family: BACS"">ALGZQru</p>","","","","","","","","",""
"html-keyboard-response","371","660193","0.0-16.0-0.39","6093cacf9a39751eedd55916","650c16f0f2faf8d7a0d14c09","651c1df2a4af61b043313480","null","null","<p style=""font-size: 60px; font-family: BACS"">ALGZQru</p>","","","","","","","","",""
"html-keyboard-response","372","661209","0.0-16.0-0.40","6093cacf9a39751eedd55916","650c16f0f2faf8d7a0d14c09","651c1df2a4af61b043313480","null","null","<p style=""font-size: 60px; font-family: BACS"">ALGZQru</p>","","","","","","","","",""
"html-keyboard-response","373","662210","0.0-16.0-0.41","6093cacf9a39751eedd55916","650c16f0f2faf8d7a0d14c09","651c1df2a4af61b043313480","null","null","<p style=""font-size: 60px; font-family: BACS"">ALGZQru</p>","","","","","","","","",""
"html-keyboard-response","374","663227","0.0-16.0-0.42","6093cacf9a39751eedd55916","650c16f0f2faf8d7a0d14c09","651c1df2a4af61b043313480","null","null","<p style=""font-size: 60px; font-family: BACS"">ALGZQru</p>","","","","","","","","",""
"html-keyboard-response","375","664229","0.0-16.0-0.43","6093cacf9a39751eedd55916","650c16f0f2faf8d7a0d14c09","651c1df2a4af61b043313480","null","null","<p style=""font-size: 60px; font-family: BACS"">ALGZQru</p>","","","","","","","","",""
"html-keyboard-response","376","665244","0.0-16.0-0.44","6093cacf9a39751eedd55916","650c16f0f2faf8d7a0d14c09","651c1df2a4af61b043313480","null","null","<p style=""font-size: 60px; font-family: BACS"">ALGZQru</p>","","","","","","","","",""
"html-keyboard-response","377","666246","0.0-16.0-0.45","6093cacf9a39751eedd55916","650c16f0f2faf8d7a0d14c09","651c1df2a4af61b043313480","null","null","<p style=""font-size: 60px; font-family: BACS"">ALGZQru</p>","","","","","","","","",""
"html-keyboard-response","378","667262","0.0-16.0-0.46","6093cacf9a39751eedd55916","650c16f0f2faf8d7a0d14c09","651c1df2a4af61b043313480","null","null","<p style=""font-size: 60px; font-family: BACS"">ALGZQru</p>","","","","","","","","",""
"html-keyboard-response","379","668278","0.0-16.0-0.47","6093cacf9a39751eedd55916","650c16f0f2faf8d7a0d14c09","651c1df2a4af61b043313480","null","null","<p style=""font-size: 60px; font-family: BACS"">ALGZQru</p>","","","","","","","","",""
"html-keyboard-response","380","669281","0.0-16.0-0.48","6093cacf9a39751eedd55916","650c16f0f2faf8d7a0d14c09","651c1df2a4af61b043313480","null","null","<p style=""font-size: 60px; font-family: BACS"">ALGZQru</p>","","","","","","","","",""
"html-keyboard-response","381","670296","0.0-16.0-0.49","6093cacf9a39751eedd55916","650c16f0f2faf8d7a0d14c09","651c1df2a4af61b043313480","null","null","<p style=""font-size: 60px; font-family: BACS"">ALGZQru</p>","","","","","","","","",""
"html-keyboard-response","382","671312","0.0-16.0-0.50","6093cacf9a39751eedd55916","650c16f0f2faf8d7a0d14c09","651c1df2a4af61b043313480","null","null","<p style=""font-size: 60px; font-family: BACS"">ALGZQru</p>","","","","","","","","",""
"html-keyboard-response","383","672315","0.0-16.0-0.51","6093cacf9a39751eedd55916","650c16f0f2faf8d7a0d14c09","651c1df2a4af61b043313480","null","null","<p style=""font-size: 60px; font-family: BACS"">ALGZQru</p>","","","","","","","","",""
"html-keyboard-response","384","673331","0.0-16.0-0.52","6093cacf9a39751eedd55916","650c16f0f2faf8d7a0d14c09","651c1df2a4af61b043313480","null","null","<p style=""font-size: 60px; font-family: BACS"">ALGZQru</p>","","","","","","","","",""
"html-keyboard-response","385","674348","0.0-16.0-0.53","6093cacf9a39751eedd55916","650c16f0f2faf8d7a0d14c09","651c1df2a4af61b043313480","null","null","<p style=""font-size: 60px; font-family: BACS"">ALGZQru</p>","","","","","","","","",""
"html-keyboard-response","386","675350","0.0-16.0-0.54","6093cacf9a39751eedd55916","650c16f0f2faf8d7a0d14c09","651c1df2a4af61b043313480","null","null","<p style=""font-size: 60px; font-family: BACS"">ALGZQru</p>","","","","","","","","",""
"html-keyboard-response","387","676366","0.0-16.0-0.55","6093cacf9a39751eedd55916","650c16f0f2faf8d7a0d14c09","651c1df2a4af61b043313480","null","null","<p style=""font-size: 60px; font-family: BACS"">ALGZQru</p>","","","","","","","","",""
"html-keyboard-response","388","677368","0.0-16.0-0.56","6093cacf9a39751eedd55916","650c16f0f2faf8d7a0d14c09","651c1df2a4af61b043313480","null","null","<p style=""font-size: 60px; font-family: BACS"">ALGZQru</p>","","","","","","","","",""
"html-keyboard-response","389","678382","0.0-16.0-0.57","6093cacf9a39751eedd55916","650c16f0f2faf8d7a0d14c09","651c1df2a4af61b043313480","null","null","<p style=""font-size: 60px; font-family: BACS"">ALGZQru</p>","","","","","","","","",""
"html-keyboard-response","390","679385","0.0-16.0-0.58","6093cacf9a39751eedd55916","650c16f0f2faf8d7a0d14c09","651c1df2a4af61b043313480","null","null","<p style=""font-size: 60px; font-family: BACS"">ALGZQru</p>","","","","","","","","",""
"html-keyboard-response","391","680402","0.0-16.0-0.59","6093cacf9a39751eedd55916","650c16f0f2faf8d7a0d14c09","651c1df2a4af61b043313480","null","null","<p style=""font-size: 60px; font-family: BACS"">ALGZQru</p>","","","","","","","","",""
"html-keyboard-response","392","681404","0.0-16.0-0.60","6093cacf9a39751eedd55916","650c16f0f2faf8d7a0d14c09","651c1df2a4af61b043313480","null","null","<p style=""font-size: 60px; font-family: BACS"">ALGZQru</p>","","","","","","","","",""
"html-keyboard-response","393","682420","0.0-16.0-0.61","6093cacf9a39751eedd55916","650c16f0f2faf8d7a0d14c09","651c1df2a4af61b043313480","null","null","<p style=""font-size: 60px; font-family: BACS"">ALGZQru</p>","","","","","","","","",""
"html-keyboard-response","394","683422","0.0-16.0-0.62","6093cacf9a39751eedd55916","650c16f0f2faf8d7a0d14c09","651c1df2a4af61b043313480","null","null","<p style=""font-size: 60px; font-family: BACS"">ALGZQru</p>","","","","","","","","",""
"html-keyboard-response","395","684423","0.0-16.0-0.63","6093cacf9a39751eedd55916","650c16f0f2faf8d7a0d14c09","651c1df2a4af61b043313480","null","null","<p style=""font-size: 60px; font-family: BACS"">ALGZQru</p>","","","","","","","","",""
"html-keyboard-response","396","685439","0.0-16.0-0.64","6093cacf9a39751eedd55916","650c16f0f2faf8d7a0d14c09","651c1df2a4af61b043313480","null","null","<p style=""font-size: 60px; font-family: BACS"">ALGZQru</p>","","","","","","","","",""
"html-keyboard-response","397","686440","0.0-16.0-0.65","6093cacf9a39751eedd55916","650c16f0f2faf8d7a0d14c09","651c1df2a4af61b043313480","null","null","<p style=""font-size: 60px; font-family: BACS"">ALGZQru</p>","","","","","","","","",""
"html-keyboard-response","398","687456","0.0-16.0-0.66","6093cacf9a39751eedd55916","650c16f0f2faf8d7a0d14c09","651c1df2a4af61b043313480","null","null","<p style=""font-size: 60px; font-family: BACS"">ALGZQru</p>","","","","","","","","",""
"html-keyboard-response","399","688457","0.0-16.0-0.67","6093cacf9a39751eedd55916","650c16f0f2faf8d7a0d14c09","651c1df2a4af61b043313480","null","null","<p style=""font-size: 60px; font-family: BACS"">ALGZQru</p>","","","","","","","","",""
"html-keyboard-response","400","689474","0.0-16.0-0.68","6093cacf9a39751eedd55916","650c16f0f2faf8d7a0d14c09","651c1df2a4af61b043313480","null","null","<p style=""font-size: 60px; font-family: BACS"">ALGZQru</p>","","","","","","","","",""
