trial_type,trial_index,time_elapsed,internal_node_id,subject_id,study_id,session_id,rt,response,stimulus,success,item,task,correct_response,testing_condition,correct,target,confound,name,view_history
pavlovia,0,4489,0.0-0.0,60e3b18d3d4205b4c52ada56,650c16f0f2faf8d7a0d14c09,651c1d5fa6015b6a932f0045,,,,,,,,,,,,,
survey-html-form,1,11193,0.0-1.0,60e3b18d3d4205b4c52ada56,650c16f0f2faf8d7a0d14c09,651c1d5fa6015b6a932f0045,6698,"{""ID"":""60e3b18d3d4205b4c52ada56""}",,,,,,,,,,,
html-keyboard-response,2,170297,0.0-2.0,60e3b18d3d4205b4c52ada56,650c16f0f2faf8d7a0d14c09,651c1d5fa6015b6a932f0045,159073, ,"<p style=""font-size: 15px;"">Before beginning, we ask that you read the consent information and confirm your agreement to participate in the experiment.</p>
      <p style=""font-size: 15px;""> We ask that you remember that this is a research project and that your participation is entirely voluntary. You can stop your participation at any time, without needing to provide any explanation. The study we're asking you to participate in aims at examining how readers process written words. You will be engaged in a session of apprximately 20 minutes, followed by a brief questionnaire. You will have the opportunity to take a few breaks during the experiment. You will be paid £4 for your participation, corresponding to a rate of £8/hour. While this experiment looks at cognitive faculties, this experiment doesn't constitute clinical proof of eventual pathologies.</p>
      <p style=""font-size: 15px;"">All of the information collected thanks to yours and others' participation will be held in a secure password-protected server, and will not be shared with anyone not authorised to view it. Your personal information will be kept with an arbitrary participant ID. Thanks to this data anonymity process, any researcher analysing the data won't be able to track the information back to a specific participant. Therefore, this process will make identifying you impossibile, even when results from the study will be published in scientific reviews, presented at congresses, or at any other public forum. More generally, the collected data will be treated in accordance with the laws on privacy and conformity to the Legislative Degree n. 196 ""Code regarding the protection of personal data"" of the 30th of June 2003 and to the European Regulation 2016/670 (General Data Protection Regulation - GDPR). The Data Protection Officer is Avv. Valentina Carollo, who can be contacted at the following email addresses: <a href=""mailto:dpo@sissa.it"">dpo@sissa.it</a> or <a href=""mailto:rpd@sissa.it"">rpd@sissa.it</a> - PEC: <a href=""mailto:protocollo@pec.sissa.it"">protocollo@pec.sissa.it</a>.</p>
      <p style=""font-size: 15px;""> Before expressing your consent to participate, we would like to remind you again that in case you need explanations on any aspect of the experimental procedure, the researcher is at your disposition (<a href=""mailto:aliebelt@sissa.it"">aliebelt@sissa.it</a>, <a href=""mailto:davide.crepaldi@sissa.it"">davide.crepaldi@sissa.it</a>).</p>
      <p style=""font-size: 15px;"">If you would like to download the informed consent form, you can do so here: <a href=""BASL-Informed_Consent.pdf"" download>informed consent form</a>.</p>
      <p style=""font-size: 15px;"">We ask that you press the spacebar to proceed to the consent section.</p>",,,,,,,,,,
survey-html-form,3,197905,0.0-3.0,60e3b18d3d4205b4c52ada56,650c16f0f2faf8d7a0d14c09,651c1d5fa6015b6a932f0045,27549,"{""consent1"":""YES"",""consent2"":""YES"",""consent3"":""YES"",""consent4"":""YES"",""consent5"":""YES"",""consent6"":""YES""}",,,,,,,,,,,
fullscreen,4,209726,0.0-4.0,60e3b18d3d4205b4c52ada56,650c16f0f2faf8d7a0d14c09,651c1d5fa6015b6a932f0045,,,,TRUE,,,,,,,,,
html-keyboard-response,5,262985,0.0-5.0,60e3b18d3d4205b4c52ada56,650c16f0f2faf8d7a0d14c09,651c1d5fa6015b6a932f0045,53252, ,"<p>Welcome, and thank you very much for your time!</p>
      <p>In this experiment, you'll be a language expert who's been asked to take a look at words that Earth has received in its first communication with aliens. Your task, in this first part of the experiment, is to pay close attention to the words you'll be shown; later, world leaders will ask you questions on what you saw. The words will be shown to you quite quickly; it seems that the aliens were in a hurry :-)</p>
      <p>Press the spacebar to continue.<p>",,,,,,,,,,
html-keyboard-response,6,263039,0.0-6.0,60e3b18d3d4205b4c52ada56,650c16f0f2faf8d7a0d14c09,651c1d5fa6015b6a932f0045,null,null,"<p style=""font-size: 120px; font-family: BACS""> </p>",,,,,,,,,,
html-keyboard-response,7,305089,0.0-7.0,60e3b18d3d4205b4c52ada56,650c16f0f2faf8d7a0d14c09,651c1d5fa6015b6a932f0045,42047, ,"<p>Here is an example of the words you'll see:</p>
      <img src='esempio.png' height='400px'>
      <p>When you're ready to begin, press the spacebar.</p></div>",,,,,,,,,,
html-keyboard-response,8,306095,0.0-8.0-0.0,60e3b18d3d4205b4c52ada56,650c16f0f2faf8d7a0d14c09,651c1d5fa6015b6a932f0045,null,null,"<p style=""font-size: 60px; font-family: BACS"">CRdBdhEct</p>",,,,,,,,,,
html-keyboard-response,9,307099,0.0-8.0-0.1,60e3b18d3d4205b4c52ada56,650c16f0f2faf8d7a0d14c09,651c1d5fa6015b6a932f0045,null,null,"<p style=""font-size: 60px; font-family: BACS"">hlbtbKOYC</p>",,,,,,,,,,
html-keyboard-response,10,308101,0.0-8.0-0.2,60e3b18d3d4205b4c52ada56,650c16f0f2faf8d7a0d14c09,651c1d5fa6015b6a932f0045,null,null,"<p style=""font-size: 60px; font-family: BACS"">GQrcZvkL</p>",,,,,,,,,,
html-keyboard-response,11,309105,0.0-8.0-0.3,60e3b18d3d4205b4c52ada56,650c16f0f2faf8d7a0d14c09,651c1d5fa6015b6a932f0045,null,null,"<p style=""font-size: 60px; font-family: BACS"">mdlaGUOA</p>",,,,,,,,,,
html-keyboard-response,12,310108,0.0-8.0-0.4,60e3b18d3d4205b4c52ada56,650c16f0f2faf8d7a0d14c09,651c1d5fa6015b6a932f0045,null,null,"<p style=""font-size: 60px; font-family: BACS"">AMkCEKBO</p>",,,,,,,,,,
html-keyboard-response,13,311112,0.0-8.0-0.5,60e3b18d3d4205b4c52ada56,650c16f0f2faf8d7a0d14c09,651c1d5fa6015b6a932f0045,null,null,"<p style=""font-size: 60px; font-family: BACS"">adYrcYmb</p>",,,,,,,,,,
html-keyboard-response,14,312116,0.0-8.0-0.6,60e3b18d3d4205b4c52ada56,650c16f0f2faf8d7a0d14c09,651c1d5fa6015b6a932f0045,null,null,"<p style=""font-size: 60px; font-family: BACS"">mdlauZc</p>",,,,,,,,,,
html-keyboard-response,15,313119,0.0-8.0-0.7,60e3b18d3d4205b4c52ada56,650c16f0f2faf8d7a0d14c09,651c1d5fa6015b6a932f0045,null,null,"<p style=""font-size: 60px; font-family: BACS"">hChYKlkD</p>",,,,,,,,,,
html-keyboard-response,16,314122,0.0-8.0-0.8,60e3b18d3d4205b4c52ada56,650c16f0f2faf8d7a0d14c09,651c1d5fa6015b6a932f0045,null,null,"<p style=""font-size: 60px; font-family: BACS"">YOZNuZc</p>",,,,,,,,,,
html-keyboard-response,17,315125,0.0-8.0-0.9,60e3b18d3d4205b4c52ada56,650c16f0f2faf8d7a0d14c09,651c1d5fa6015b6a932f0045,null,null,"<p style=""font-size: 60px; font-family: BACS"">mdlaZvkL</p>",,,,,,,,,,
html-keyboard-response,18,316128,0.0-8.0-0.10,60e3b18d3d4205b4c52ada56,650c16f0f2faf8d7a0d14c09,651c1d5fa6015b6a932f0045,null,null,"<p style=""font-size: 60px; font-family: BACS"">PDPhlAdYl</p>",,,,,,,,,,
html-keyboard-response,19,317131,0.0-8.0-0.11,60e3b18d3d4205b4c52ada56,650c16f0f2faf8d7a0d14c09,651c1d5fa6015b6a932f0045,null,null,"<p style=""font-size: 60px; font-family: BACS"">RYtkchEct</p>",,,,,,,,,,
html-keyboard-response,20,318134,0.0-8.0-0.12,60e3b18d3d4205b4c52ada56,650c16f0f2faf8d7a0d14c09,651c1d5fa6015b6a932f0045,null,null,"<p style=""font-size: 60px; font-family: BACS"">OLJblYmb</p>",,,,,,,,,,
html-keyboard-response,21,319137,0.0-8.0-0.13,60e3b18d3d4205b4c52ada56,650c16f0f2faf8d7a0d14c09,651c1d5fa6015b6a932f0045,null,null,"<p style=""font-size: 60px; font-family: BACS"">auYAkLcO</p>",,,,,,,,,,
html-keyboard-response,22,320140,0.0-8.0-0.14,60e3b18d3d4205b4c52ada56,650c16f0f2faf8d7a0d14c09,651c1d5fa6015b6a932f0045,null,null,"<p style=""font-size: 60px; font-family: BACS"">hlbtbAdYl</p>",,,,,,,,,,
html-keyboard-response,23,321143,0.0-8.0-0.15,60e3b18d3d4205b4c52ada56,650c16f0f2faf8d7a0d14c09,651c1d5fa6015b6a932f0045,null,null,"<p style=""font-size: 60px; font-family: BACS"">bROCEKBO</p>",,,,,,,,,,
html-keyboard-response,24,322146,0.0-8.0-0.16,60e3b18d3d4205b4c52ada56,650c16f0f2faf8d7a0d14c09,651c1d5fa6015b6a932f0045,null,null,"<p style=""font-size: 60px; font-family: BACS"">AMkCAdYl</p>",,,,,,,,,,
html-keyboard-response,25,323148,0.0-8.0-0.17,60e3b18d3d4205b4c52ada56,650c16f0f2faf8d7a0d14c09,651c1d5fa6015b6a932f0045,null,null,"<p style=""font-size: 60px; font-family: BACS"">kGlULcO</p>",,,,,,,,,,
html-keyboard-response,26,324151,0.0-8.0-0.18,60e3b18d3d4205b4c52ada56,650c16f0f2faf8d7a0d14c09,651c1d5fa6015b6a932f0045,null,null,"<p style=""font-size: 60px; font-family: BACS"">PDPhlKOYC</p>",,,,,,,,,,
html-keyboard-response,27,325154,0.0-8.0-0.19,60e3b18d3d4205b4c52ada56,650c16f0f2faf8d7a0d14c09,651c1d5fa6015b6a932f0045,null,null,"<p style=""font-size: 60px; font-family: BACS"">auYAkuZc</p>",,,,,,,,,,
html-keyboard-response,28,326157,0.0-8.0-0.20,60e3b18d3d4205b4c52ada56,650c16f0f2faf8d7a0d14c09,651c1d5fa6015b6a932f0045,null,null,"<p style=""font-size: 60px; font-family: BACS"">YOZNGUOA</p>",,,,,,,,,,
html-keyboard-response,29,327160,0.0-8.0-0.21,60e3b18d3d4205b4c52ada56,650c16f0f2faf8d7a0d14c09,651c1d5fa6015b6a932f0045,null,null,"<p style=""font-size: 60px; font-family: BACS"">mZUrQLcO</p>",,,,,,,,,,
html-keyboard-response,30,328164,0.0-8.0-0.22,60e3b18d3d4205b4c52ada56,650c16f0f2faf8d7a0d14c09,651c1d5fa6015b6a932f0045,null,null,"<p style=""font-size: 60px; font-family: BACS"">YOZNYmb</p>",,,,,,,,,,
html-keyboard-response,31,329167,0.0-8.0-0.23,60e3b18d3d4205b4c52ada56,650c16f0f2faf8d7a0d14c09,651c1d5fa6015b6a932f0045,null,null,"<p style=""font-size: 60px; font-family: BACS"">kZUbLcO</p>",,,,,,,,,,
html-keyboard-response,32,330169,0.0-8.0-0.24,60e3b18d3d4205b4c52ada56,650c16f0f2faf8d7a0d14c09,651c1d5fa6015b6a932f0045,null,null,"<p style=""font-size: 60px; font-family: BACS"">kGlUuZc</p>",,,,,,,,,,
html-keyboard-response,33,331172,0.0-8.0-0.25,60e3b18d3d4205b4c52ada56,650c16f0f2faf8d7a0d14c09,651c1d5fa6015b6a932f0045,null,null,"<p style=""font-size: 60px; font-family: BACS"">hlbtbKlkD</p>",,,,,,,,,,
html-keyboard-response,34,332175,0.0-8.0-0.26,60e3b18d3d4205b4c52ada56,650c16f0f2faf8d7a0d14c09,651c1d5fa6015b6a932f0045,null,null,"<p style=""font-size: 60px; font-family: BACS"">BEPOKOYC</p>",,,,,,,,,,
html-keyboard-response,35,333178,0.0-8.0-0.27,60e3b18d3d4205b4c52ada56,650c16f0f2faf8d7a0d14c09,651c1d5fa6015b6a932f0045,null,null,"<p style=""font-size: 60px; font-family: BACS"">kGlUYmb</p>",,,,,,,,,,
html-keyboard-response,36,334181,0.0-8.0-0.28,60e3b18d3d4205b4c52ada56,650c16f0f2faf8d7a0d14c09,651c1d5fa6015b6a932f0045,null,null,"<p style=""font-size: 60px; font-family: BACS"">AMkCKlkD</p>",,,,,,,,,,
html-keyboard-response,37,335185,0.0-8.0-0.29,60e3b18d3d4205b4c52ada56,650c16f0f2faf8d7a0d14c09,651c1d5fa6015b6a932f0045,null,null,"<p style=""font-size: 60px; font-family: BACS"">YOZNZvkL</p>",,,,,,,,,,
html-keyboard-response,38,336188,0.0-8.0-0.30,60e3b18d3d4205b4c52ada56,650c16f0f2faf8d7a0d14c09,651c1d5fa6015b6a932f0045,null,null,"<p style=""font-size: 60px; font-family: BACS"">hChYEKBO</p>",,,,,,,,,,
html-keyboard-response,39,337191,0.0-8.0-0.31,60e3b18d3d4205b4c52ada56,650c16f0f2faf8d7a0d14c09,651c1d5fa6015b6a932f0045,null,null,"<p style=""font-size: 60px; font-family: BACS"">rvOvUGUOA</p>",,,,,,,,,,
html-keyboard-response,40,338194,0.0-8.0-0.32,60e3b18d3d4205b4c52ada56,650c16f0f2faf8d7a0d14c09,651c1d5fa6015b6a932f0045,null,null,"<p style=""font-size: 60px; font-family: BACS"">DcPTcEKBO</p>",,,,,,,,,,
html-keyboard-response,41,339197,0.0-8.0-0.33,60e3b18d3d4205b4c52ada56,650c16f0f2faf8d7a0d14c09,651c1d5fa6015b6a932f0045,null,null,"<p style=""font-size: 60px; font-family: BACS"">hTtBbKlkD</p>",,,,,,,,,,
html-keyboard-response,42,340200,0.0-8.0-0.34,60e3b18d3d4205b4c52ada56,650c16f0f2faf8d7a0d14c09,651c1d5fa6015b6a932f0045,null,null,"<p style=""font-size: 60px; font-family: BACS"">adYrcZvkL</p>",,,,,,,,,,
html-keyboard-response,43,341203,0.0-8.0-0.35,60e3b18d3d4205b4c52ada56,650c16f0f2faf8d7a0d14c09,651c1d5fa6015b6a932f0045,null,null,"<p style=""font-size: 60px; font-family: BACS"">BEPOKlkD</p>",,,,,,,,,,
html-keyboard-response,44,342207,0.0-8.0-0.36,60e3b18d3d4205b4c52ada56,650c16f0f2faf8d7a0d14c09,651c1d5fa6015b6a932f0045,null,null,"<p style=""font-size: 60px; font-family: BACS"">RYtkcEKBO</p>",,,,,,,,,,
html-keyboard-response,45,343210,0.0-8.0-0.37,60e3b18d3d4205b4c52ada56,650c16f0f2faf8d7a0d14c09,651c1d5fa6015b6a932f0045,null,null,"<p style=""font-size: 60px; font-family: BACS"">kGlUGUOA</p>",,,,,,,,,,
html-keyboard-response,46,344213,0.0-8.0-0.38,60e3b18d3d4205b4c52ada56,650c16f0f2faf8d7a0d14c09,651c1d5fa6015b6a932f0045,null,null,"<p style=""font-size: 60px; font-family: BACS"">bROCKOYC</p>",,,,,,,,,,
html-keyboard-response,47,345216,0.0-8.0-0.39,60e3b18d3d4205b4c52ada56,650c16f0f2faf8d7a0d14c09,651c1d5fa6015b6a932f0045,null,null,"<p style=""font-size: 60px; font-family: BACS"">rvOvUuZc</p>",,,,,,,,,,
html-keyboard-response,48,346220,0.0-8.0-0.40,60e3b18d3d4205b4c52ada56,650c16f0f2faf8d7a0d14c09,651c1d5fa6015b6a932f0045,null,null,"<p style=""font-size: 60px; font-family: BACS"">CRdBdEKBO</p>",,,,,,,,,,
html-keyboard-response,49,347223,0.0-8.0-0.41,60e3b18d3d4205b4c52ada56,650c16f0f2faf8d7a0d14c09,651c1d5fa6015b6a932f0045,null,null,"<p style=""font-size: 60px; font-family: BACS"">RYtkcKlkD</p>",,,,,,,,,,
html-keyboard-response,50,348226,0.0-8.0-0.42,60e3b18d3d4205b4c52ada56,650c16f0f2faf8d7a0d14c09,651c1d5fa6015b6a932f0045,null,null,"<p style=""font-size: 60px; font-family: BACS"">OLJblGUOA</p>",,,,,,,,,,
html-keyboard-response,51,349229,0.0-8.0-0.43,60e3b18d3d4205b4c52ada56,650c16f0f2faf8d7a0d14c09,651c1d5fa6015b6a932f0045,null,null,"<p style=""font-size: 60px; font-family: BACS"">RYtkcKOYC</p>",,,,,,,,,,
html-keyboard-response,52,350231,0.0-8.0-0.44,60e3b18d3d4205b4c52ada56,650c16f0f2faf8d7a0d14c09,651c1d5fa6015b6a932f0045,null,null,"<p style=""font-size: 60px; font-family: BACS"">rvOvUZvkL</p>",,,,,,,,,,
html-keyboard-response,53,351234,0.0-8.0-0.45,60e3b18d3d4205b4c52ada56,650c16f0f2faf8d7a0d14c09,651c1d5fa6015b6a932f0045,null,null,"<p style=""font-size: 60px; font-family: BACS"">hTtBbEKBO</p>",,,,,,,,,,
html-keyboard-response,54,352238,0.0-8.0-0.46,60e3b18d3d4205b4c52ada56,650c16f0f2faf8d7a0d14c09,651c1d5fa6015b6a932f0045,null,null,"<p style=""font-size: 60px; font-family: BACS"">hChYhEct</p>",,,,,,,,,,
html-keyboard-response,55,353248,0.0-8.0-0.47,60e3b18d3d4205b4c52ada56,650c16f0f2faf8d7a0d14c09,651c1d5fa6015b6a932f0045,null,null,"<p style=""font-size: 60px; font-family: BACS"">CRdBdAdYl</p>",,,,,,,,,,
html-keyboard-response,56,354252,0.0-8.0-0.48,60e3b18d3d4205b4c52ada56,650c16f0f2faf8d7a0d14c09,651c1d5fa6015b6a932f0045,null,null,"<p style=""font-size: 60px; font-family: BACS"">AMkChEct</p>",,,,,,,,,,
html-keyboard-response,57,355255,0.0-8.0-0.49,60e3b18d3d4205b4c52ada56,650c16f0f2faf8d7a0d14c09,651c1d5fa6015b6a932f0045,null,null,"<p style=""font-size: 60px; font-family: BACS"">GQrcYmb</p>",,,,,,,,,,
html-keyboard-response,58,356258,0.0-8.0-0.50,60e3b18d3d4205b4c52ada56,650c16f0f2faf8d7a0d14c09,651c1d5fa6015b6a932f0045,null,null,"<p style=""font-size: 60px; font-family: BACS"">bROCAdYl</p>",,,,,,,,,,
html-keyboard-response,59,357261,0.0-8.0-0.51,60e3b18d3d4205b4c52ada56,650c16f0f2faf8d7a0d14c09,651c1d5fa6015b6a932f0045,null,null,"<p style=""font-size: 60px; font-family: BACS"">BEPOEKBO</p>",,,,,,,,,,
html-keyboard-response,60,358264,0.0-8.0-0.52,60e3b18d3d4205b4c52ada56,650c16f0f2faf8d7a0d14c09,651c1d5fa6015b6a932f0045,null,null,"<p style=""font-size: 60px; font-family: BACS"">adYrcLcO</p>",,,,,,,,,,
html-keyboard-response,61,359266,0.0-8.0-0.53,60e3b18d3d4205b4c52ada56,650c16f0f2faf8d7a0d14c09,651c1d5fa6015b6a932f0045,null,null,"<p style=""font-size: 60px; font-family: BACS"">mZUrQGUOA</p>",,,,,,,,,,
html-keyboard-response,62,360269,0.0-8.0-0.54,60e3b18d3d4205b4c52ada56,650c16f0f2faf8d7a0d14c09,651c1d5fa6015b6a932f0045,null,null,"<p style=""font-size: 60px; font-family: BACS"">kZUbYmb</p>",,,,,,,,,,
html-keyboard-response,63,361273,0.0-8.0-0.55,60e3b18d3d4205b4c52ada56,650c16f0f2faf8d7a0d14c09,651c1d5fa6015b6a932f0045,null,null,"<p style=""font-size: 60px; font-family: BACS"">PDPhlhEct</p>",,,,,,,,,,
html-keyboard-response,64,362276,0.0-8.0-0.56,60e3b18d3d4205b4c52ada56,650c16f0f2faf8d7a0d14c09,651c1d5fa6015b6a932f0045,null,null,"<p style=""font-size: 60px; font-family: BACS"">OLJblZvkL</p>",,,,,,,,,,
html-keyboard-response,65,363279,0.0-8.0-0.57,60e3b18d3d4205b4c52ada56,650c16f0f2faf8d7a0d14c09,651c1d5fa6015b6a932f0045,null,null,"<p style=""font-size: 60px; font-family: BACS"">PDPhlKlkD</p>",,,,,,,,,,
html-keyboard-response,66,364283,0.0-8.0-0.58,60e3b18d3d4205b4c52ada56,650c16f0f2faf8d7a0d14c09,651c1d5fa6015b6a932f0045,null,null,"<p style=""font-size: 60px; font-family: BACS"">BEPOAdYl</p>",,,,,,,,,,
html-keyboard-response,67,365286,0.0-8.0-0.59,60e3b18d3d4205b4c52ada56,650c16f0f2faf8d7a0d14c09,651c1d5fa6015b6a932f0045,null,null,"<p style=""font-size: 60px; font-family: BACS"">kZUbGUOA</p>",,,,,,,,,,
html-keyboard-response,68,366289,0.0-8.0-0.60,60e3b18d3d4205b4c52ada56,650c16f0f2faf8d7a0d14c09,651c1d5fa6015b6a932f0045,null,null,"<p style=""font-size: 60px; font-family: BACS"">OLJblLcO</p>",,,,,,,,,,
html-keyboard-response,69,367291,0.0-8.0-0.61,60e3b18d3d4205b4c52ada56,650c16f0f2faf8d7a0d14c09,651c1d5fa6015b6a932f0045,null,null,"<p style=""font-size: 60px; font-family: BACS"">DcPTcKOYC</p>",,,,,,,,,,
html-keyboard-response,70,368293,0.0-8.0-0.62,60e3b18d3d4205b4c52ada56,650c16f0f2faf8d7a0d14c09,651c1d5fa6015b6a932f0045,null,null,"<p style=""font-size: 60px; font-family: BACS"">mZUrQYmb</p>",,,,,,,,,,
html-keyboard-response,71,369296,0.0-8.0-0.63,60e3b18d3d4205b4c52ada56,650c16f0f2faf8d7a0d14c09,651c1d5fa6015b6a932f0045,null,null,"<p style=""font-size: 60px; font-family: BACS"">hTtBbAdYl</p>",,,,,,,,,,
html-keyboard-response,72,370299,0.0-8.0-0.64,60e3b18d3d4205b4c52ada56,650c16f0f2faf8d7a0d14c09,651c1d5fa6015b6a932f0045,null,null,"<p style=""font-size: 60px; font-family: BACS"">mZUrQZvkL</p>",,,,,,,,,,
html-keyboard-response,73,371301,0.0-8.0-0.65,60e3b18d3d4205b4c52ada56,650c16f0f2faf8d7a0d14c09,651c1d5fa6015b6a932f0045,null,null,"<p style=""font-size: 60px; font-family: BACS"">hChYAdYl</p>",,,,,,,,,,
html-keyboard-response,74,372304,0.0-8.0-0.66,60e3b18d3d4205b4c52ada56,650c16f0f2faf8d7a0d14c09,651c1d5fa6015b6a932f0045,null,null,"<p style=""font-size: 60px; font-family: BACS"">bROChEct</p>",,,,,,,,,,
html-keyboard-response,75,373307,0.0-8.0-0.67,60e3b18d3d4205b4c52ada56,650c16f0f2faf8d7a0d14c09,651c1d5fa6015b6a932f0045,null,null,"<p style=""font-size: 60px; font-family: BACS"">CRdBdKOYC</p>",,,,,,,,,,
html-keyboard-response,76,374310,0.0-8.0-0.68,60e3b18d3d4205b4c52ada56,650c16f0f2faf8d7a0d14c09,651c1d5fa6015b6a932f0045,null,null,"<p style=""font-size: 60px; font-family: BACS"">mdlaYmb</p>",,,,,,,,,,
html-keyboard-response,77,375313,0.0-8.0-0.69,60e3b18d3d4205b4c52ada56,650c16f0f2faf8d7a0d14c09,651c1d5fa6015b6a932f0045,null,null,"<p style=""font-size: 60px; font-family: BACS"">hTtBbKOYC</p>",,,,,,,,,,
html-keyboard-response,78,376316,0.0-8.0-0.70,60e3b18d3d4205b4c52ada56,650c16f0f2faf8d7a0d14c09,651c1d5fa6015b6a932f0045,null,null,"<p style=""font-size: 60px; font-family: BACS"">auYAkGUOA</p>",,,,,,,,,,
html-keyboard-response,79,377319,0.0-8.0-0.71,60e3b18d3d4205b4c52ada56,650c16f0f2faf8d7a0d14c09,651c1d5fa6015b6a932f0045,null,null,"<p style=""font-size: 60px; font-family: BACS"">kZUbuZc</p>",,,,,,,,,,
html-keyboard-response,80,378322,0.0-8.0-0.72,60e3b18d3d4205b4c52ada56,650c16f0f2faf8d7a0d14c09,651c1d5fa6015b6a932f0045,null,null,"<p style=""font-size: 60px; font-family: BACS"">rvOvULcO</p>",,,,,,,,,,
html-keyboard-response,81,379325,0.0-8.0-0.73,60e3b18d3d4205b4c52ada56,650c16f0f2faf8d7a0d14c09,651c1d5fa6015b6a932f0045,null,null,"<p style=""font-size: 60px; font-family: BACS"">auYAkZvkL</p>",,,,,,,,,,
html-keyboard-response,82,380328,0.0-8.0-0.74,60e3b18d3d4205b4c52ada56,650c16f0f2faf8d7a0d14c09,651c1d5fa6015b6a932f0045,null,null,"<p style=""font-size: 60px; font-family: BACS"">GQrcuZc</p>",,,,,,,,,,
html-keyboard-response,83,381332,0.0-8.0-0.75,60e3b18d3d4205b4c52ada56,650c16f0f2faf8d7a0d14c09,651c1d5fa6015b6a932f0045,null,null,"<p style=""font-size: 60px; font-family: BACS"">hlbtbhEct</p>",,,,,,,,,,
html-keyboard-response,84,382334,0.0-8.0-0.76,60e3b18d3d4205b4c52ada56,650c16f0f2faf8d7a0d14c09,651c1d5fa6015b6a932f0045,null,null,"<p style=""font-size: 60px; font-family: BACS"">DcPTcKlkD</p>",,,,,,,,,,
html-keyboard-response,85,383337,0.0-8.0-0.77,60e3b18d3d4205b4c52ada56,650c16f0f2faf8d7a0d14c09,651c1d5fa6015b6a932f0045,null,null,"<p style=""font-size: 60px; font-family: BACS"">adYrcuZc</p>",,,,,,,,,,
html-keyboard-response,86,384341,0.0-8.0-0.78,60e3b18d3d4205b4c52ada56,650c16f0f2faf8d7a0d14c09,651c1d5fa6015b6a932f0045,null,null,"<p style=""font-size: 60px; font-family: BACS"">DcPTchEct</p>",,,,,,,,,,
html-keyboard-response,87,385343,0.0-8.0-0.79,60e3b18d3d4205b4c52ada56,650c16f0f2faf8d7a0d14c09,651c1d5fa6015b6a932f0045,null,null,"<p style=""font-size: 60px; font-family: BACS"">GQrcLcO</p>",,,,,,,,,,
html-keyboard-response,88,397359,0.0-9.0,60e3b18d3d4205b4c52ada56,650c16f0f2faf8d7a0d14c09,651c1d5fa6015b6a932f0045,12013, ,"<p>Great, you've seen the first block of words. You may now take a short break.</p>
      <p>Press the spacebar when you're ready to continue.</p>",,,,,,,,,,
html-keyboard-response,89,398361,0.0-10.0-0.0,60e3b18d3d4205b4c52ada56,650c16f0f2faf8d7a0d14c09,651c1d5fa6015b6a932f0045,null,null,"<p style=""font-size: 60px; font-family: BACS"">mZUrQYmb</p>",,,,,,,,,,
html-keyboard-response,90,399365,0.0-10.0-0.1,60e3b18d3d4205b4c52ada56,650c16f0f2faf8d7a0d14c09,651c1d5fa6015b6a932f0045,null,null,"<p style=""font-size: 60px; font-family: BACS"">hlbtbhEct</p>",,,,,,,,,,
html-keyboard-response,91,400367,0.0-10.0-0.2,60e3b18d3d4205b4c52ada56,650c16f0f2faf8d7a0d14c09,651c1d5fa6015b6a932f0045,null,null,"<p style=""font-size: 60px; font-family: BACS"">mZUrQLcO</p>",,,,,,,,,,
html-keyboard-response,92,401370,0.0-10.0-0.3,60e3b18d3d4205b4c52ada56,650c16f0f2faf8d7a0d14c09,651c1d5fa6015b6a932f0045,null,null,"<p style=""font-size: 60px; font-family: BACS"">RYtkcKOYC</p>",,,,,,,,,,
html-keyboard-response,93,402373,0.0-10.0-0.4,60e3b18d3d4205b4c52ada56,650c16f0f2faf8d7a0d14c09,651c1d5fa6015b6a932f0045,null,null,"<p style=""font-size: 60px; font-family: BACS"">PDPhlKlkD</p>",,,,,,,,,,
html-keyboard-response,94,403375,0.0-10.0-0.5,60e3b18d3d4205b4c52ada56,650c16f0f2faf8d7a0d14c09,651c1d5fa6015b6a932f0045,null,null,"<p style=""font-size: 60px; font-family: BACS"">rvOvUGUOA</p>",,,,,,,,,,
html-keyboard-response,95,404378,0.0-10.0-0.6,60e3b18d3d4205b4c52ada56,650c16f0f2faf8d7a0d14c09,651c1d5fa6015b6a932f0045,null,null,"<p style=""font-size: 60px; font-family: BACS"">AMkCAdYl</p>",,,,,,,,,,
html-keyboard-response,96,405381,0.0-10.0-0.7,60e3b18d3d4205b4c52ada56,650c16f0f2faf8d7a0d14c09,651c1d5fa6015b6a932f0045,null,null,"<p style=""font-size: 60px; font-family: BACS"">YOZNuZc</p>",,,,,,,,,,
html-keyboard-response,97,406384,0.0-10.0-0.8,60e3b18d3d4205b4c52ada56,650c16f0f2faf8d7a0d14c09,651c1d5fa6015b6a932f0045,null,null,"<p style=""font-size: 60px; font-family: BACS"">GQrcYmb</p>",,,,,,,,,,
html-keyboard-response,98,407387,0.0-10.0-0.9,60e3b18d3d4205b4c52ada56,650c16f0f2faf8d7a0d14c09,651c1d5fa6015b6a932f0045,null,null,"<p style=""font-size: 60px; font-family: BACS"">DcPTchEct</p>",,,,,,,,,,
html-keyboard-response,99,408389,0.0-10.0-0.10,60e3b18d3d4205b4c52ada56,650c16f0f2faf8d7a0d14c09,651c1d5fa6015b6a932f0045,null,null,"<p style=""font-size: 60px; font-family: BACS"">kGlULcO</p>",,,,,,,,,,
html-keyboard-response,100,409391,0.0-10.0-0.11,60e3b18d3d4205b4c52ada56,650c16f0f2faf8d7a0d14c09,651c1d5fa6015b6a932f0045,null,null,"<p style=""font-size: 60px; font-family: BACS"">OLJblZvkL</p>",,,,,,,,,,
html-keyboard-response,101,410393,0.0-10.0-0.12,60e3b18d3d4205b4c52ada56,650c16f0f2faf8d7a0d14c09,651c1d5fa6015b6a932f0045,null,null,"<p style=""font-size: 60px; font-family: BACS"">adYrcuZc</p>",,,,,,,,,,
html-keyboard-response,102,411396,0.0-10.0-0.13,60e3b18d3d4205b4c52ada56,650c16f0f2faf8d7a0d14c09,651c1d5fa6015b6a932f0045,null,null,"<p style=""font-size: 60px; font-family: BACS"">OLJblLcO</p>",,,,,,,,,,
html-keyboard-response,103,412399,0.0-10.0-0.14,60e3b18d3d4205b4c52ada56,650c16f0f2faf8d7a0d14c09,651c1d5fa6015b6a932f0045,null,null,"<p style=""font-size: 60px; font-family: BACS"">adYrcZvkL</p>",,,,,,,,,,
html-keyboard-response,104,413402,0.0-10.0-0.15,60e3b18d3d4205b4c52ada56,650c16f0f2faf8d7a0d14c09,651c1d5fa6015b6a932f0045,null,null,"<p style=""font-size: 60px; font-family: BACS"">BEPOKlkD</p>",,,,,,,,,,
html-keyboard-response,105,414405,0.0-10.0-0.16,60e3b18d3d4205b4c52ada56,650c16f0f2faf8d7a0d14c09,651c1d5fa6015b6a932f0045,null,null,"<p style=""font-size: 60px; font-family: BACS"">hTtBbAdYl</p>",,,,,,,,,,
html-keyboard-response,106,415408,0.0-10.0-0.17,60e3b18d3d4205b4c52ada56,650c16f0f2faf8d7a0d14c09,651c1d5fa6015b6a932f0045,null,null,"<p style=""font-size: 60px; font-family: BACS"">adYrcYmb</p>",,,,,,,,,,
html-keyboard-response,107,416410,0.0-10.0-0.18,60e3b18d3d4205b4c52ada56,650c16f0f2faf8d7a0d14c09,651c1d5fa6015b6a932f0045,null,null,"<p style=""font-size: 60px; font-family: BACS"">kGlUGUOA</p>",,,,,,,,,,
html-keyboard-response,108,417413,0.0-10.0-0.19,60e3b18d3d4205b4c52ada56,650c16f0f2faf8d7a0d14c09,651c1d5fa6015b6a932f0045,null,null,"<p style=""font-size: 60px; font-family: BACS"">hChYAdYl</p>",,,,,,,,,,
html-keyboard-response,109,418416,0.0-10.0-0.20,60e3b18d3d4205b4c52ada56,650c16f0f2faf8d7a0d14c09,651c1d5fa6015b6a932f0045,null,null,"<p style=""font-size: 60px; font-family: BACS"">kZUbGUOA</p>",,,,,,,,,,
html-keyboard-response,110,419423,0.0-10.0-0.21,60e3b18d3d4205b4c52ada56,650c16f0f2faf8d7a0d14c09,651c1d5fa6015b6a932f0045,null,null,"<p style=""font-size: 60px; font-family: BACS"">bROCKOYC</p>",,,,,,,,,,
html-keyboard-response,111,420426,0.0-10.0-0.22,60e3b18d3d4205b4c52ada56,650c16f0f2faf8d7a0d14c09,651c1d5fa6015b6a932f0045,null,null,"<p style=""font-size: 60px; font-family: BACS"">hlbtbKlkD</p>",,,,,,,,,,
html-keyboard-response,112,421429,0.0-10.0-0.23,60e3b18d3d4205b4c52ada56,650c16f0f2faf8d7a0d14c09,651c1d5fa6015b6a932f0045,null,null,"<p style=""font-size: 60px; font-family: BACS"">mdlauZc</p>",,,,,,,,,,
html-keyboard-response,113,422432,0.0-10.0-0.24,60e3b18d3d4205b4c52ada56,650c16f0f2faf8d7a0d14c09,651c1d5fa6015b6a932f0045,null,null,"<p style=""font-size: 60px; font-family: BACS"">hTtBbKlkD</p>",,,,,,,,,,
html-keyboard-response,114,423436,0.0-10.0-0.25,60e3b18d3d4205b4c52ada56,650c16f0f2faf8d7a0d14c09,651c1d5fa6015b6a932f0045,null,null,"<p style=""font-size: 60px; font-family: BACS"">bROCEKBO</p>",,,,,,,,,,
html-keyboard-response,115,424440,0.0-10.0-0.26,60e3b18d3d4205b4c52ada56,650c16f0f2faf8d7a0d14c09,651c1d5fa6015b6a932f0045,null,null,"<p style=""font-size: 60px; font-family: BACS"">RYtkcKlkD</p>",,,,,,,,,,
html-keyboard-response,116,425443,0.0-10.0-0.27,60e3b18d3d4205b4c52ada56,650c16f0f2faf8d7a0d14c09,651c1d5fa6015b6a932f0045,null,null,"<p style=""font-size: 60px; font-family: BACS"">GQrcZvkL</p>",,,,,,,,,,
html-keyboard-response,117,426446,0.0-10.0-0.28,60e3b18d3d4205b4c52ada56,650c16f0f2faf8d7a0d14c09,651c1d5fa6015b6a932f0045,null,null,"<p style=""font-size: 60px; font-family: BACS"">PDPhlhEct</p>",,,,,,,,,,
html-keyboard-response,118,427448,0.0-10.0-0.29,60e3b18d3d4205b4c52ada56,650c16f0f2faf8d7a0d14c09,651c1d5fa6015b6a932f0045,null,null,"<p style=""font-size: 60px; font-family: BACS"">mZUrQZvkL</p>",,,,,,,,,,
html-keyboard-response,119,428453,0.0-10.0-0.30,60e3b18d3d4205b4c52ada56,650c16f0f2faf8d7a0d14c09,651c1d5fa6015b6a932f0045,null,null,"<p style=""font-size: 60px; font-family: BACS"">hlbtbKOYC</p>",,,,,,,,,,
html-keyboard-response,120,429455,0.0-10.0-0.31,60e3b18d3d4205b4c52ada56,650c16f0f2faf8d7a0d14c09,651c1d5fa6015b6a932f0045,null,null,"<p style=""font-size: 60px; font-family: BACS"">bROChEct</p>",,,,,,,,,,
html-keyboard-response,121,430458,0.0-10.0-0.32,60e3b18d3d4205b4c52ada56,650c16f0f2faf8d7a0d14c09,651c1d5fa6015b6a932f0045,null,null,"<p style=""font-size: 60px; font-family: BACS"">hlbtbAdYl</p>",,,,,,,,,,
html-keyboard-response,122,431461,0.0-10.0-0.33,60e3b18d3d4205b4c52ada56,650c16f0f2faf8d7a0d14c09,651c1d5fa6015b6a932f0045,null,null,"<p style=""font-size: 60px; font-family: BACS"">CRdBdhEct</p>",,,,,,,,,,
html-keyboard-response,123,432463,0.0-10.0-0.34,60e3b18d3d4205b4c52ada56,650c16f0f2faf8d7a0d14c09,651c1d5fa6015b6a932f0045,null,null,"<p style=""font-size: 60px; font-family: BACS"">YOZNYmb</p>",,,,,,,,,,
html-keyboard-response,124,433466,0.0-10.0-0.35,60e3b18d3d4205b4c52ada56,650c16f0f2faf8d7a0d14c09,651c1d5fa6015b6a932f0045,null,null,"<p style=""font-size: 60px; font-family: BACS"">rvOvUZvkL</p>",,,,,,,,,,
html-keyboard-response,125,434469,0.0-10.0-0.36,60e3b18d3d4205b4c52ada56,650c16f0f2faf8d7a0d14c09,651c1d5fa6015b6a932f0045,null,null,"<p style=""font-size: 60px; font-family: BACS"">CRdBdKOYC</p>",,,,,,,,,,
html-keyboard-response,126,435472,0.0-10.0-0.37,60e3b18d3d4205b4c52ada56,650c16f0f2faf8d7a0d14c09,651c1d5fa6015b6a932f0045,null,null,"<p style=""font-size: 60px; font-family: BACS"">bROCAdYl</p>",,,,,,,,,,
html-keyboard-response,127,436475,0.0-10.0-0.38,60e3b18d3d4205b4c52ada56,650c16f0f2faf8d7a0d14c09,651c1d5fa6015b6a932f0045,null,null,"<p style=""font-size: 60px; font-family: BACS"">AMkChEct</p>",,,,,,,,,,
html-keyboard-response,128,437477,0.0-10.0-0.39,60e3b18d3d4205b4c52ada56,650c16f0f2faf8d7a0d14c09,651c1d5fa6015b6a932f0045,null,null,"<p style=""font-size: 60px; font-family: BACS"">BEPOAdYl</p>",,,,,,,,,,
html-keyboard-response,129,438480,0.0-10.0-0.40,60e3b18d3d4205b4c52ada56,650c16f0f2faf8d7a0d14c09,651c1d5fa6015b6a932f0045,null,null,"<p style=""font-size: 60px; font-family: BACS"">RYtkcEKBO</p>",,,,,,,,,,
html-keyboard-response,130,439482,0.0-10.0-0.41,60e3b18d3d4205b4c52ada56,650c16f0f2faf8d7a0d14c09,651c1d5fa6015b6a932f0045,null,null,"<p style=""font-size: 60px; font-family: BACS"">kZUbuZc</p>",,,,,,,,,,
html-keyboard-response,131,440485,0.0-10.0-0.42,60e3b18d3d4205b4c52ada56,650c16f0f2faf8d7a0d14c09,651c1d5fa6015b6a932f0045,null,null,"<p style=""font-size: 60px; font-family: BACS"">PDPhlAdYl</p>",,,,,,,,,,
html-keyboard-response,132,441488,0.0-10.0-0.43,60e3b18d3d4205b4c52ada56,650c16f0f2faf8d7a0d14c09,651c1d5fa6015b6a932f0045,null,null,"<p style=""font-size: 60px; font-family: BACS"">auYAkGUOA</p>",,,,,,,,,,
html-keyboard-response,133,442491,0.0-10.0-0.44,60e3b18d3d4205b4c52ada56,650c16f0f2faf8d7a0d14c09,651c1d5fa6015b6a932f0045,null,null,"<p style=""font-size: 60px; font-family: BACS"">mdlaZvkL</p>",,,,,,,,,,
html-keyboard-response,134,443494,0.0-10.0-0.45,60e3b18d3d4205b4c52ada56,650c16f0f2faf8d7a0d14c09,651c1d5fa6015b6a932f0045,null,null,"<p style=""font-size: 60px; font-family: BACS"">mZUrQGUOA</p>",,,,,,,,,,
html-keyboard-response,135,444497,0.0-10.0-0.46,60e3b18d3d4205b4c52ada56,650c16f0f2faf8d7a0d14c09,651c1d5fa6015b6a932f0045,null,null,"<p style=""font-size: 60px; font-family: BACS"">rvOvUuZc</p>",,,,,,,,,,
html-keyboard-response,136,445500,0.0-10.0-0.47,60e3b18d3d4205b4c52ada56,650c16f0f2faf8d7a0d14c09,651c1d5fa6015b6a932f0045,null,null,"<p style=""font-size: 60px; font-family: BACS"">kZUbYmb</p>",,,,,,,,,,
html-keyboard-response,137,446503,0.0-10.0-0.48,60e3b18d3d4205b4c52ada56,650c16f0f2faf8d7a0d14c09,651c1d5fa6015b6a932f0045,null,null,"<p style=""font-size: 60px; font-family: BACS"">hChYEKBO</p>",,,,,,,,,,
html-keyboard-response,138,447506,0.0-10.0-0.49,60e3b18d3d4205b4c52ada56,650c16f0f2faf8d7a0d14c09,651c1d5fa6015b6a932f0045,null,null,"<p style=""font-size: 60px; font-family: BACS"">GQrcuZc</p>",,,,,,,,,,
html-keyboard-response,139,448508,0.0-10.0-0.50,60e3b18d3d4205b4c52ada56,650c16f0f2faf8d7a0d14c09,651c1d5fa6015b6a932f0045,null,null,"<p style=""font-size: 60px; font-family: BACS"">hTtBbKOYC</p>",,,,,,,,,,
html-keyboard-response,140,449512,0.0-10.0-0.51,60e3b18d3d4205b4c52ada56,650c16f0f2faf8d7a0d14c09,651c1d5fa6015b6a932f0045,null,null,"<p style=""font-size: 60px; font-family: BACS"">YOZNZvkL</p>",,,,,,,,,,
html-keyboard-response,141,450515,0.0-10.0-0.52,60e3b18d3d4205b4c52ada56,650c16f0f2faf8d7a0d14c09,651c1d5fa6015b6a932f0045,null,null,"<p style=""font-size: 60px; font-family: BACS"">GQrcLcO</p>",,,,,,,,,,
html-keyboard-response,142,451518,0.0-10.0-0.53,60e3b18d3d4205b4c52ada56,650c16f0f2faf8d7a0d14c09,651c1d5fa6015b6a932f0045,null,null,"<p style=""font-size: 60px; font-family: BACS"">auYAkuZc</p>",,,,,,,,,,
html-keyboard-response,143,452521,0.0-10.0-0.54,60e3b18d3d4205b4c52ada56,650c16f0f2faf8d7a0d14c09,651c1d5fa6015b6a932f0045,null,null,"<p style=""font-size: 60px; font-family: BACS"">BEPOKOYC</p>",,,,,,,,,,
html-keyboard-response,144,453524,0.0-10.0-0.55,60e3b18d3d4205b4c52ada56,650c16f0f2faf8d7a0d14c09,651c1d5fa6015b6a932f0045,null,null,"<p style=""font-size: 60px; font-family: BACS"">auYAkLcO</p>",,,,,,,,,,
html-keyboard-response,145,454527,0.0-10.0-0.56,60e3b18d3d4205b4c52ada56,650c16f0f2faf8d7a0d14c09,651c1d5fa6015b6a932f0045,null,null,"<p style=""font-size: 60px; font-family: BACS"">PDPhlKOYC</p>",,,,,,,,,,
html-keyboard-response,146,455529,0.0-10.0-0.57,60e3b18d3d4205b4c52ada56,650c16f0f2faf8d7a0d14c09,651c1d5fa6015b6a932f0045,null,null,"<p style=""font-size: 60px; font-family: BACS"">CRdBdEKBO</p>",,,,,,,,,,
html-keyboard-response,147,456533,0.0-10.0-0.58,60e3b18d3d4205b4c52ada56,650c16f0f2faf8d7a0d14c09,651c1d5fa6015b6a932f0045,null,null,"<p style=""font-size: 60px; font-family: BACS"">kGlUYmb</p>",,,,,,,,,,
html-keyboard-response,148,457536,0.0-10.0-0.59,60e3b18d3d4205b4c52ada56,650c16f0f2faf8d7a0d14c09,651c1d5fa6015b6a932f0045,null,null,"<p style=""font-size: 60px; font-family: BACS"">OLJblGUOA</p>",,,,,,,,,,
html-keyboard-response,149,458539,0.0-10.0-0.60,60e3b18d3d4205b4c52ada56,650c16f0f2faf8d7a0d14c09,651c1d5fa6015b6a932f0045,null,null,"<p style=""font-size: 60px; font-family: BACS"">rvOvULcO</p>",,,,,,,,,,
html-keyboard-response,150,459542,0.0-10.0-0.61,60e3b18d3d4205b4c52ada56,650c16f0f2faf8d7a0d14c09,651c1d5fa6015b6a932f0045,null,null,"<p style=""font-size: 60px; font-family: BACS"">auYAkZvkL</p>",,,,,,,,,,
html-keyboard-response,151,460545,0.0-10.0-0.62,60e3b18d3d4205b4c52ada56,650c16f0f2faf8d7a0d14c09,651c1d5fa6015b6a932f0045,null,null,"<p style=""font-size: 60px; font-family: BACS"">DcPTcEKBO</p>",,,,,,,,,,
html-keyboard-response,152,461548,0.0-10.0-0.63,60e3b18d3d4205b4c52ada56,650c16f0f2faf8d7a0d14c09,651c1d5fa6015b6a932f0045,null,null,"<p style=""font-size: 60px; font-family: BACS"">hChYKlkD</p>",,,,,,,,,,
html-keyboard-response,153,462551,0.0-10.0-0.64,60e3b18d3d4205b4c52ada56,650c16f0f2faf8d7a0d14c09,651c1d5fa6015b6a932f0045,null,null,"<p style=""font-size: 60px; font-family: BACS"">AMkCEKBO</p>",,,,,,,,,,
html-keyboard-response,154,463554,0.0-10.0-0.65,60e3b18d3d4205b4c52ada56,650c16f0f2faf8d7a0d14c09,651c1d5fa6015b6a932f0045,null,null,"<p style=""font-size: 60px; font-family: BACS"">YOZNGUOA</p>",,,,,,,,,,
html-keyboard-response,155,464556,0.0-10.0-0.66,60e3b18d3d4205b4c52ada56,650c16f0f2faf8d7a0d14c09,651c1d5fa6015b6a932f0045,null,null,"<p style=""font-size: 60px; font-family: BACS"">kGlUuZc</p>",,,,,,,,,,
html-keyboard-response,156,465559,0.0-10.0-0.67,60e3b18d3d4205b4c52ada56,650c16f0f2faf8d7a0d14c09,651c1d5fa6015b6a932f0045,null,null,"<p style=""font-size: 60px; font-family: BACS"">mdlaGUOA</p>",,,,,,,,,,
html-keyboard-response,157,466562,0.0-10.0-0.68,60e3b18d3d4205b4c52ada56,650c16f0f2faf8d7a0d14c09,651c1d5fa6015b6a932f0045,null,null,"<p style=""font-size: 60px; font-family: BACS"">hTtBbEKBO</p>",,,,,,,,,,
html-keyboard-response,158,467565,0.0-10.0-0.69,60e3b18d3d4205b4c52ada56,650c16f0f2faf8d7a0d14c09,651c1d5fa6015b6a932f0045,null,null,"<p style=""font-size: 60px; font-family: BACS"">CRdBdAdYl</p>",,,,,,,,,,
html-keyboard-response,159,468567,0.0-10.0-0.70,60e3b18d3d4205b4c52ada56,650c16f0f2faf8d7a0d14c09,651c1d5fa6015b6a932f0045,null,null,"<p style=""font-size: 60px; font-family: BACS"">OLJblYmb</p>",,,,,,,,,,
html-keyboard-response,160,469569,0.0-10.0-0.71,60e3b18d3d4205b4c52ada56,650c16f0f2faf8d7a0d14c09,651c1d5fa6015b6a932f0045,null,null,"<p style=""font-size: 60px; font-family: BACS"">RYtkchEct</p>",,,,,,,,,,
html-keyboard-response,161,470572,0.0-10.0-0.72,60e3b18d3d4205b4c52ada56,650c16f0f2faf8d7a0d14c09,651c1d5fa6015b6a932f0045,null,null,"<p style=""font-size: 60px; font-family: BACS"">AMkCKlkD</p>",,,,,,,,,,
html-keyboard-response,162,471575,0.0-10.0-0.73,60e3b18d3d4205b4c52ada56,650c16f0f2faf8d7a0d14c09,651c1d5fa6015b6a932f0045,null,null,"<p style=""font-size: 60px; font-family: BACS"">DcPTcKOYC</p>",,,,,,,,,,
html-keyboard-response,163,472578,0.0-10.0-0.74,60e3b18d3d4205b4c52ada56,650c16f0f2faf8d7a0d14c09,651c1d5fa6015b6a932f0045,null,null,"<p style=""font-size: 60px; font-family: BACS"">mdlaYmb</p>",,,,,,,,,,
html-keyboard-response,164,473581,0.0-10.0-0.75,60e3b18d3d4205b4c52ada56,650c16f0f2faf8d7a0d14c09,651c1d5fa6015b6a932f0045,null,null,"<p style=""font-size: 60px; font-family: BACS"">DcPTcKlkD</p>",,,,,,,,,,
html-keyboard-response,165,474584,0.0-10.0-0.76,60e3b18d3d4205b4c52ada56,650c16f0f2faf8d7a0d14c09,651c1d5fa6015b6a932f0045,null,null,"<p style=""font-size: 60px; font-family: BACS"">adYrcLcO</p>",,,,,,,,,,
html-keyboard-response,166,475586,0.0-10.0-0.77,60e3b18d3d4205b4c52ada56,650c16f0f2faf8d7a0d14c09,651c1d5fa6015b6a932f0045,null,null,"<p style=""font-size: 60px; font-family: BACS"">hChYhEct</p>",,,,,,,,,,
html-keyboard-response,167,476589,0.0-10.0-0.78,60e3b18d3d4205b4c52ada56,650c16f0f2faf8d7a0d14c09,651c1d5fa6015b6a932f0045,null,null,"<p style=""font-size: 60px; font-family: BACS"">BEPOEKBO</p>",,,,,,,,,,
html-keyboard-response,168,477593,0.0-10.0-0.79,60e3b18d3d4205b4c52ada56,650c16f0f2faf8d7a0d14c09,651c1d5fa6015b6a932f0045,null,null,"<p style=""font-size: 60px; font-family: BACS"">kZUbLcO</p>",,,,,,,,,,
html-keyboard-response,169,485735,0.0-11.0,60e3b18d3d4205b4c52ada56,650c16f0f2faf8d7a0d14c09,651c1d5fa6015b6a932f0045,8140, ,"<p>Great, you've seen the second block of words. You may now take a short break.</p>
      <p>Press the spacebar when you're ready to continue.</p>",,,,,,,,,,
html-keyboard-response,170,486737,0.0-12.0-0.0,60e3b18d3d4205b4c52ada56,650c16f0f2faf8d7a0d14c09,651c1d5fa6015b6a932f0045,null,null,"<p style=""font-size: 60px; font-family: BACS"">AMkChEct</p>",,,,,,,,,,
html-keyboard-response,171,487739,0.0-12.0-0.1,60e3b18d3d4205b4c52ada56,650c16f0f2faf8d7a0d14c09,651c1d5fa6015b6a932f0045,null,null,"<p style=""font-size: 60px; font-family: BACS"">adYrcuZc</p>",,,,,,,,,,
html-keyboard-response,172,488742,0.0-12.0-0.2,60e3b18d3d4205b4c52ada56,650c16f0f2faf8d7a0d14c09,651c1d5fa6015b6a932f0045,null,null,"<p style=""font-size: 60px; font-family: BACS"">DcPTcKOYC</p>",,,,,,,,,,
html-keyboard-response,173,489745,0.0-12.0-0.3,60e3b18d3d4205b4c52ada56,650c16f0f2faf8d7a0d14c09,651c1d5fa6015b6a932f0045,null,null,"<p style=""font-size: 60px; font-family: BACS"">hlbtbKlkD</p>",,,,,,,,,,
html-keyboard-response,174,490748,0.0-12.0-0.4,60e3b18d3d4205b4c52ada56,650c16f0f2faf8d7a0d14c09,651c1d5fa6015b6a932f0045,null,null,"<p style=""font-size: 60px; font-family: BACS"">auYAkuZc</p>",,,,,,,,,,
html-keyboard-response,175,491751,0.0-12.0-0.5,60e3b18d3d4205b4c52ada56,650c16f0f2faf8d7a0d14c09,651c1d5fa6015b6a932f0045,null,null,"<p style=""font-size: 60px; font-family: BACS"">RYtkcKlkD</p>",,,,,,,,,,
html-keyboard-response,176,492753,0.0-12.0-0.6,60e3b18d3d4205b4c52ada56,650c16f0f2faf8d7a0d14c09,651c1d5fa6015b6a932f0045,null,null,"<p style=""font-size: 60px; font-family: BACS"">hChYAdYl</p>",,,,,,,,,,
html-keyboard-response,177,493756,0.0-12.0-0.7,60e3b18d3d4205b4c52ada56,650c16f0f2faf8d7a0d14c09,651c1d5fa6015b6a932f0045,null,null,"<p style=""font-size: 60px; font-family: BACS"">hlbtbhEct</p>",,,,,,,,,,
html-keyboard-response,178,494759,0.0-12.0-0.8,60e3b18d3d4205b4c52ada56,650c16f0f2faf8d7a0d14c09,651c1d5fa6015b6a932f0045,null,null,"<p style=""font-size: 60px; font-family: BACS"">auYAkZvkL</p>",,,,,,,,,,
html-keyboard-response,179,495762,0.0-12.0-0.9,60e3b18d3d4205b4c52ada56,650c16f0f2faf8d7a0d14c09,651c1d5fa6015b6a932f0045,null,null,"<p style=""font-size: 60px; font-family: BACS"">bROCAdYl</p>",,,,,,,,,,
html-keyboard-response,180,496765,0.0-12.0-0.10,60e3b18d3d4205b4c52ada56,650c16f0f2faf8d7a0d14c09,651c1d5fa6015b6a932f0045,null,null,"<p style=""font-size: 60px; font-family: BACS"">kZUbuZc</p>",,,,,,,,,,
html-keyboard-response,181,497768,0.0-12.0-0.11,60e3b18d3d4205b4c52ada56,650c16f0f2faf8d7a0d14c09,651c1d5fa6015b6a932f0045,null,null,"<p style=""font-size: 60px; font-family: BACS"">BEPOKlkD</p>",,,,,,,,,,
html-keyboard-response,182,498771,0.0-12.0-0.12,60e3b18d3d4205b4c52ada56,650c16f0f2faf8d7a0d14c09,651c1d5fa6015b6a932f0045,null,null,"<p style=""font-size: 60px; font-family: BACS"">PDPhlKOYC</p>",,,,,,,,,,
html-keyboard-response,183,499773,0.0-12.0-0.13,60e3b18d3d4205b4c52ada56,650c16f0f2faf8d7a0d14c09,651c1d5fa6015b6a932f0045,null,null,"<p style=""font-size: 60px; font-family: BACS"">AMkCEKBO</p>",,,,,,,,,,
html-keyboard-response,184,500777,0.0-12.0-0.14,60e3b18d3d4205b4c52ada56,650c16f0f2faf8d7a0d14c09,651c1d5fa6015b6a932f0045,null,null,"<p style=""font-size: 60px; font-family: BACS"">CRdBdhEct</p>",,,,,,,,,,
html-keyboard-response,185,501780,0.0-12.0-0.15,60e3b18d3d4205b4c52ada56,650c16f0f2faf8d7a0d14c09,651c1d5fa6015b6a932f0045,null,null,"<p style=""font-size: 60px; font-family: BACS"">BEPOKOYC</p>",,,,,,,,,,
html-keyboard-response,186,502783,0.0-12.0-0.16,60e3b18d3d4205b4c52ada56,650c16f0f2faf8d7a0d14c09,651c1d5fa6015b6a932f0045,null,null,"<p style=""font-size: 60px; font-family: BACS"">hChYKlkD</p>",,,,,,,,,,
html-keyboard-response,187,503785,0.0-12.0-0.17,60e3b18d3d4205b4c52ada56,650c16f0f2faf8d7a0d14c09,651c1d5fa6015b6a932f0045,null,null,"<p style=""font-size: 60px; font-family: BACS"">GQrcZvkL</p>",,,,,,,,,,
html-keyboard-response,188,504789,0.0-12.0-0.18,60e3b18d3d4205b4c52ada56,650c16f0f2faf8d7a0d14c09,651c1d5fa6015b6a932f0045,null,null,"<p style=""font-size: 60px; font-family: BACS"">CRdBdAdYl</p>",,,,,,,,,,
html-keyboard-response,189,505790,0.0-12.0-0.19,60e3b18d3d4205b4c52ada56,650c16f0f2faf8d7a0d14c09,651c1d5fa6015b6a932f0045,null,null,"<p style=""font-size: 60px; font-family: BACS"">auYAkGUOA</p>",,,,,,,,,,
html-keyboard-response,190,506792,0.0-12.0-0.20,60e3b18d3d4205b4c52ada56,650c16f0f2faf8d7a0d14c09,651c1d5fa6015b6a932f0045,null,null,"<p style=""font-size: 60px; font-family: BACS"">hChYhEct</p>",,,,,,,,,,
html-keyboard-response,191,507796,0.0-12.0-0.21,60e3b18d3d4205b4c52ada56,650c16f0f2faf8d7a0d14c09,651c1d5fa6015b6a932f0045,null,null,"<p style=""font-size: 60px; font-family: BACS"">bROCKOYC</p>",,,,,,,,,,
html-keyboard-response,192,508799,0.0-12.0-0.22,60e3b18d3d4205b4c52ada56,650c16f0f2faf8d7a0d14c09,651c1d5fa6015b6a932f0045,null,null,"<p style=""font-size: 60px; font-family: BACS"">auYAkLcO</p>",,,,,,,,,,
html-keyboard-response,193,509803,0.0-12.0-0.23,60e3b18d3d4205b4c52ada56,650c16f0f2faf8d7a0d14c09,651c1d5fa6015b6a932f0045,null,null,"<p style=""font-size: 60px; font-family: BACS"">PDPhlhEct</p>",,,,,,,,,,
html-keyboard-response,194,510806,0.0-12.0-0.24,60e3b18d3d4205b4c52ada56,650c16f0f2faf8d7a0d14c09,651c1d5fa6015b6a932f0045,null,null,"<p style=""font-size: 60px; font-family: BACS"">AMkCKlkD</p>",,,,,,,,,,
html-keyboard-response,195,511809,0.0-12.0-0.25,60e3b18d3d4205b4c52ada56,650c16f0f2faf8d7a0d14c09,651c1d5fa6015b6a932f0045,null,null,"<p style=""font-size: 60px; font-family: BACS"">rvOvUGUOA</p>",,,,,,,,,,
html-keyboard-response,196,512812,0.0-12.0-0.26,60e3b18d3d4205b4c52ada56,650c16f0f2faf8d7a0d14c09,651c1d5fa6015b6a932f0045,null,null,"<p style=""font-size: 60px; font-family: BACS"">hTtBbEKBO</p>",,,,,,,,,,
html-keyboard-response,197,513816,0.0-12.0-0.27,60e3b18d3d4205b4c52ada56,650c16f0f2faf8d7a0d14c09,651c1d5fa6015b6a932f0045,null,null,"<p style=""font-size: 60px; font-family: BACS"">kGlUuZc</p>",,,,,,,,,,
html-keyboard-response,198,514819,0.0-12.0-0.28,60e3b18d3d4205b4c52ada56,650c16f0f2faf8d7a0d14c09,651c1d5fa6015b6a932f0045,null,null,"<p style=""font-size: 60px; font-family: BACS"">YOZNYmb</p>",,,,,,,,,,
html-keyboard-response,199,515822,0.0-12.0-0.29,60e3b18d3d4205b4c52ada56,650c16f0f2faf8d7a0d14c09,651c1d5fa6015b6a932f0045,null,null,"<p style=""font-size: 60px; font-family: BACS"">RYtkcKOYC</p>",,,,,,,,,,
html-keyboard-response,200,516824,0.0-12.0-0.30,60e3b18d3d4205b4c52ada56,650c16f0f2faf8d7a0d14c09,651c1d5fa6015b6a932f0045,null,null,"<p style=""font-size: 60px; font-family: BACS"">mdlaZvkL</p>",,,,,,,,,,
html-keyboard-response,201,517828,0.0-12.0-0.31,60e3b18d3d4205b4c52ada56,650c16f0f2faf8d7a0d14c09,651c1d5fa6015b6a932f0045,null,null,"<p style=""font-size: 60px; font-family: BACS"">hlbtbAdYl</p>",,,,,,,,,,
html-keyboard-response,202,518831,0.0-12.0-0.32,60e3b18d3d4205b4c52ada56,650c16f0f2faf8d7a0d14c09,651c1d5fa6015b6a932f0045,null,null,"<p style=""font-size: 60px; font-family: BACS"">hTtBbKOYC</p>",,,,,,,,,,
html-keyboard-response,203,519834,0.0-12.0-0.33,60e3b18d3d4205b4c52ada56,650c16f0f2faf8d7a0d14c09,651c1d5fa6015b6a932f0045,null,null,"<p style=""font-size: 60px; font-family: BACS"">OLJblLcO</p>",,,,,,,,,,
html-keyboard-response,204,520838,0.0-12.0-0.34,60e3b18d3d4205b4c52ada56,650c16f0f2faf8d7a0d14c09,651c1d5fa6015b6a932f0045,null,null,"<p style=""font-size: 60px; font-family: BACS"">PDPhlAdYl</p>",,,,,,,,,,
html-keyboard-response,205,521840,0.0-12.0-0.35,60e3b18d3d4205b4c52ada56,650c16f0f2faf8d7a0d14c09,651c1d5fa6015b6a932f0045,null,null,"<p style=""font-size: 60px; font-family: BACS"">RYtkchEct</p>",,,,,,,,,,
html-keyboard-response,206,522843,0.0-12.0-0.36,60e3b18d3d4205b4c52ada56,650c16f0f2faf8d7a0d14c09,651c1d5fa6015b6a932f0045,null,null,"<p style=""font-size: 60px; font-family: BACS"">kZUbGUOA</p>",,,,,,,,,,
html-keyboard-response,207,523847,0.0-12.0-0.37,60e3b18d3d4205b4c52ada56,650c16f0f2faf8d7a0d14c09,651c1d5fa6015b6a932f0045,null,null,"<p style=""font-size: 60px; font-family: BACS"">YOZNuZc</p>",,,,,,,,,,
html-keyboard-response,208,524849,0.0-12.0-0.38,60e3b18d3d4205b4c52ada56,650c16f0f2faf8d7a0d14c09,651c1d5fa6015b6a932f0045,null,null,"<p style=""font-size: 60px; font-family: BACS"">kGlUGUOA</p>",,,,,,,,,,
html-keyboard-response,209,525852,0.0-12.0-0.39,60e3b18d3d4205b4c52ada56,650c16f0f2faf8d7a0d14c09,651c1d5fa6015b6a932f0045,null,null,"<p style=""font-size: 60px; font-family: BACS"">hTtBbAdYl</p>",,,,,,,,,,
html-keyboard-response,210,526856,0.0-12.0-0.40,60e3b18d3d4205b4c52ada56,650c16f0f2faf8d7a0d14c09,651c1d5fa6015b6a932f0045,null,null,"<p style=""font-size: 60px; font-family: BACS"">OLJblYmb</p>",,,,,,,,,,
html-keyboard-response,211,527859,0.0-12.0-0.41,60e3b18d3d4205b4c52ada56,650c16f0f2faf8d7a0d14c09,651c1d5fa6015b6a932f0045,null,null,"<p style=""font-size: 60px; font-family: BACS"">rvOvULcO</p>",,,,,,,,,,
html-keyboard-response,212,528862,0.0-12.0-0.42,60e3b18d3d4205b4c52ada56,650c16f0f2faf8d7a0d14c09,651c1d5fa6015b6a932f0045,null,null,"<p style=""font-size: 60px; font-family: BACS"">bROCEKBO</p>",,,,,,,,,,
html-keyboard-response,213,529864,0.0-12.0-0.43,60e3b18d3d4205b4c52ada56,650c16f0f2faf8d7a0d14c09,651c1d5fa6015b6a932f0045,null,null,"<p style=""font-size: 60px; font-family: BACS"">PDPhlKlkD</p>",,,,,,,,,,
html-keyboard-response,214,530867,0.0-12.0-0.44,60e3b18d3d4205b4c52ada56,650c16f0f2faf8d7a0d14c09,651c1d5fa6015b6a932f0045,null,null,"<p style=""font-size: 60px; font-family: BACS"">mZUrQYmb</p>",,,,,,,,,,
html-keyboard-response,215,531870,0.0-12.0-0.45,60e3b18d3d4205b4c52ada56,650c16f0f2faf8d7a0d14c09,651c1d5fa6015b6a932f0045,null,null,"<p style=""font-size: 60px; font-family: BACS"">AMkCAdYl</p>",,,,,,,,,,
html-keyboard-response,216,532873,0.0-12.0-0.46,60e3b18d3d4205b4c52ada56,650c16f0f2faf8d7a0d14c09,651c1d5fa6015b6a932f0045,null,null,"<p style=""font-size: 60px; font-family: BACS"">bROChEct</p>",,,,,,,,,,
html-keyboard-response,217,533876,0.0-12.0-0.47,60e3b18d3d4205b4c52ada56,650c16f0f2faf8d7a0d14c09,651c1d5fa6015b6a932f0045,null,null,"<p style=""font-size: 60px; font-family: BACS"">mdlauZc</p>",,,,,,,,,,
html-keyboard-response,218,534879,0.0-12.0-0.48,60e3b18d3d4205b4c52ada56,650c16f0f2faf8d7a0d14c09,651c1d5fa6015b6a932f0045,null,null,"<p style=""font-size: 60px; font-family: BACS"">adYrcZvkL</p>",,,,,,,,,,
html-keyboard-response,219,535882,0.0-12.0-0.49,60e3b18d3d4205b4c52ada56,650c16f0f2faf8d7a0d14c09,651c1d5fa6015b6a932f0045,null,null,"<p style=""font-size: 60px; font-family: BACS"">GQrcYmb</p>",,,,,,,,,,
html-keyboard-response,220,536885,0.0-12.0-0.50,60e3b18d3d4205b4c52ada56,650c16f0f2faf8d7a0d14c09,651c1d5fa6015b6a932f0045,null,null,"<p style=""font-size: 60px; font-family: BACS"">mZUrQGUOA</p>",,,,,,,,,,
html-keyboard-response,221,537889,0.0-12.0-0.51,60e3b18d3d4205b4c52ada56,650c16f0f2faf8d7a0d14c09,651c1d5fa6015b6a932f0045,null,null,"<p style=""font-size: 60px; font-family: BACS"">rvOvUuZc</p>",,,,,,,,,,
html-keyboard-response,222,538892,0.0-12.0-0.52,60e3b18d3d4205b4c52ada56,650c16f0f2faf8d7a0d14c09,651c1d5fa6015b6a932f0045,null,null,"<p style=""font-size: 60px; font-family: BACS"">kZUbYmb</p>",,,,,,,,,,
html-keyboard-response,223,539895,0.0-12.0-0.53,60e3b18d3d4205b4c52ada56,650c16f0f2faf8d7a0d14c09,651c1d5fa6015b6a932f0045,null,null,"<p style=""font-size: 60px; font-family: BACS"">OLJblZvkL</p>",,,,,,,,,,
html-keyboard-response,224,540898,0.0-12.0-0.54,60e3b18d3d4205b4c52ada56,650c16f0f2faf8d7a0d14c09,651c1d5fa6015b6a932f0045,null,null,"<p style=""font-size: 60px; font-family: BACS"">GQrcLcO</p>",,,,,,,,,,
html-keyboard-response,225,541901,0.0-12.0-0.55,60e3b18d3d4205b4c52ada56,650c16f0f2faf8d7a0d14c09,651c1d5fa6015b6a932f0045,null,null,"<p style=""font-size: 60px; font-family: BACS"">mdlaGUOA</p>",,,,,,,,,,
html-keyboard-response,226,542904,0.0-12.0-0.56,60e3b18d3d4205b4c52ada56,650c16f0f2faf8d7a0d14c09,651c1d5fa6015b6a932f0045,null,null,"<p style=""font-size: 60px; font-family: BACS"">kZUbLcO</p>",,,,,,,,,,
html-keyboard-response,227,543907,0.0-12.0-0.57,60e3b18d3d4205b4c52ada56,650c16f0f2faf8d7a0d14c09,651c1d5fa6015b6a932f0045,null,null,"<p style=""font-size: 60px; font-family: BACS"">DcPTcEKBO</p>",,,,,,,,,,
html-keyboard-response,228,544910,0.0-12.0-0.58,60e3b18d3d4205b4c52ada56,650c16f0f2faf8d7a0d14c09,651c1d5fa6015b6a932f0045,null,null,"<p style=""font-size: 60px; font-family: BACS"">hTtBbKlkD</p>",,,,,,,,,,
html-keyboard-response,229,545914,0.0-12.0-0.59,60e3b18d3d4205b4c52ada56,650c16f0f2faf8d7a0d14c09,651c1d5fa6015b6a932f0045,null,null,"<p style=""font-size: 60px; font-family: BACS"">adYrcYmb</p>",,,,,,,,,,
html-keyboard-response,230,546917,0.0-12.0-0.60,60e3b18d3d4205b4c52ada56,650c16f0f2faf8d7a0d14c09,651c1d5fa6015b6a932f0045,null,null,"<p style=""font-size: 60px; font-family: BACS"">mZUrQLcO</p>",,,,,,,,,,
html-keyboard-response,231,547920,0.0-12.0-0.61,60e3b18d3d4205b4c52ada56,650c16f0f2faf8d7a0d14c09,651c1d5fa6015b6a932f0045,null,null,"<p style=""font-size: 60px; font-family: BACS"">mdlaYmb</p>",,,,,,,,,,
html-keyboard-response,232,548923,0.0-12.0-0.62,60e3b18d3d4205b4c52ada56,650c16f0f2faf8d7a0d14c09,651c1d5fa6015b6a932f0045,null,null,"<p style=""font-size: 60px; font-family: BACS"">mZUrQZvkL</p>",,,,,,,,,,
html-keyboard-response,233,549925,0.0-12.0-0.63,60e3b18d3d4205b4c52ada56,650c16f0f2faf8d7a0d14c09,651c1d5fa6015b6a932f0045,null,null,"<p style=""font-size: 60px; font-family: BACS"">kGlUYmb</p>",,,,,,,,,,
html-keyboard-response,234,550929,0.0-12.0-0.64,60e3b18d3d4205b4c52ada56,650c16f0f2faf8d7a0d14c09,651c1d5fa6015b6a932f0045,null,null,"<p style=""font-size: 60px; font-family: BACS"">hChYEKBO</p>",,,,,,,,,,
html-keyboard-response,235,551932,0.0-12.0-0.65,60e3b18d3d4205b4c52ada56,650c16f0f2faf8d7a0d14c09,651c1d5fa6015b6a932f0045,null,null,"<p style=""font-size: 60px; font-family: BACS"">BEPOAdYl</p>",,,,,,,,,,
html-keyboard-response,236,552934,0.0-12.0-0.66,60e3b18d3d4205b4c52ada56,650c16f0f2faf8d7a0d14c09,651c1d5fa6015b6a932f0045,null,null,"<p style=""font-size: 60px; font-family: BACS"">DcPTchEct</p>",,,,,,,,,,
html-keyboard-response,237,553937,0.0-12.0-0.67,60e3b18d3d4205b4c52ada56,650c16f0f2faf8d7a0d14c09,651c1d5fa6015b6a932f0045,null,null,"<p style=""font-size: 60px; font-family: BACS"">GQrcuZc</p>",,,,,,,,,,
html-keyboard-response,238,554939,0.0-12.0-0.68,60e3b18d3d4205b4c52ada56,650c16f0f2faf8d7a0d14c09,651c1d5fa6015b6a932f0045,null,null,"<p style=""font-size: 60px; font-family: BACS"">OLJblGUOA</p>",,,,,,,,,,
html-keyboard-response,239,555942,0.0-12.0-0.69,60e3b18d3d4205b4c52ada56,650c16f0f2faf8d7a0d14c09,651c1d5fa6015b6a932f0045,null,null,"<p style=""font-size: 60px; font-family: BACS"">YOZNZvkL</p>",,,,,,,,,,
html-keyboard-response,240,556945,0.0-12.0-0.70,60e3b18d3d4205b4c52ada56,650c16f0f2faf8d7a0d14c09,651c1d5fa6015b6a932f0045,null,null,"<p style=""font-size: 60px; font-family: BACS"">DcPTcKlkD</p>",,,,,,,,,,
html-keyboard-response,241,557948,0.0-12.0-0.71,60e3b18d3d4205b4c52ada56,650c16f0f2faf8d7a0d14c09,651c1d5fa6015b6a932f0045,null,null,"<p style=""font-size: 60px; font-family: BACS"">YOZNGUOA</p>",,,,,,,,,,
html-keyboard-response,242,558950,0.0-12.0-0.72,60e3b18d3d4205b4c52ada56,650c16f0f2faf8d7a0d14c09,651c1d5fa6015b6a932f0045,null,null,"<p style=""font-size: 60px; font-family: BACS"">rvOvUZvkL</p>",,,,,,,,,,
html-keyboard-response,243,559952,0.0-12.0-0.73,60e3b18d3d4205b4c52ada56,650c16f0f2faf8d7a0d14c09,651c1d5fa6015b6a932f0045,null,null,"<p style=""font-size: 60px; font-family: BACS"">hlbtbKOYC</p>",,,,,,,,,,
html-keyboard-response,244,560955,0.0-12.0-0.74,60e3b18d3d4205b4c52ada56,650c16f0f2faf8d7a0d14c09,651c1d5fa6015b6a932f0045,null,null,"<p style=""font-size: 60px; font-family: BACS"">adYrcLcO</p>",,,,,,,,,,
html-keyboard-response,245,561958,0.0-12.0-0.75,60e3b18d3d4205b4c52ada56,650c16f0f2faf8d7a0d14c09,651c1d5fa6015b6a932f0045,null,null,"<p style=""font-size: 60px; font-family: BACS"">RYtkcEKBO</p>",,,,,,,,,,
html-keyboard-response,246,562961,0.0-12.0-0.76,60e3b18d3d4205b4c52ada56,650c16f0f2faf8d7a0d14c09,651c1d5fa6015b6a932f0045,null,null,"<p style=""font-size: 60px; font-family: BACS"">CRdBdKOYC</p>",,,,,,,,,,
html-keyboard-response,247,563964,0.0-12.0-0.77,60e3b18d3d4205b4c52ada56,650c16f0f2faf8d7a0d14c09,651c1d5fa6015b6a932f0045,null,null,"<p style=""font-size: 60px; font-family: BACS"">BEPOEKBO</p>",,,,,,,,,,
html-keyboard-response,248,564967,0.0-12.0-0.78,60e3b18d3d4205b4c52ada56,650c16f0f2faf8d7a0d14c09,651c1d5fa6015b6a932f0045,null,null,"<p style=""font-size: 60px; font-family: BACS"">kGlULcO</p>",,,,,,,,,,
html-keyboard-response,249,565970,0.0-12.0-0.79,60e3b18d3d4205b4c52ada56,650c16f0f2faf8d7a0d14c09,651c1d5fa6015b6a932f0045,null,null,"<p style=""font-size: 60px; font-family: BACS"">CRdBdEKBO</p>",,,,,,,,,,
html-keyboard-response,250,568333,0.0-13.0,60e3b18d3d4205b4c52ada56,650c16f0f2faf8d7a0d14c09,651c1d5fa6015b6a932f0045,2354, ,"<p>Great, you've seen the third block of words. You may now take a short break.</p>
      <p>Press the spacebar when you're ready to continue.</p>",,,,,,,,,,
html-keyboard-response,251,569335,0.0-14.0-0.0,60e3b18d3d4205b4c52ada56,650c16f0f2faf8d7a0d14c09,651c1d5fa6015b6a932f0045,null,null,"<p style=""font-size: 60px; font-family: BACS"">adYrcYmb</p>",,,,,,,,,,
html-keyboard-response,252,570338,0.0-14.0-0.1,60e3b18d3d4205b4c52ada56,650c16f0f2faf8d7a0d14c09,651c1d5fa6015b6a932f0045,null,null,"<p style=""font-size: 60px; font-family: BACS"">RYtkchEct</p>",,,,,,,,,,
html-keyboard-response,253,571341,0.0-14.0-0.2,60e3b18d3d4205b4c52ada56,650c16f0f2faf8d7a0d14c09,651c1d5fa6015b6a932f0045,null,null,"<p style=""font-size: 60px; font-family: BACS"">mZUrQLcO</p>",,,,,,,,,,
html-keyboard-response,254,572344,0.0-14.0-0.3,60e3b18d3d4205b4c52ada56,650c16f0f2faf8d7a0d14c09,651c1d5fa6015b6a932f0045,null,null,"<p style=""font-size: 60px; font-family: BACS"">CRdBdKOYC</p>",,,,,,,,,,
html-keyboard-response,255,573347,0.0-14.0-0.4,60e3b18d3d4205b4c52ada56,650c16f0f2faf8d7a0d14c09,651c1d5fa6015b6a932f0045,null,null,"<p style=""font-size: 60px; font-family: BACS"">rvOvULcO</p>",,,,,,,,,,
html-keyboard-response,256,574350,0.0-14.0-0.5,60e3b18d3d4205b4c52ada56,650c16f0f2faf8d7a0d14c09,651c1d5fa6015b6a932f0045,null,null,"<p style=""font-size: 60px; font-family: BACS"">YOZNYmb</p>",,,,,,,,,,
html-keyboard-response,257,575353,0.0-14.0-0.6,60e3b18d3d4205b4c52ada56,650c16f0f2faf8d7a0d14c09,651c1d5fa6015b6a932f0045,null,null,"<p style=""font-size: 60px; font-family: BACS"">AMkCKlkD</p>",,,,,,,,,,
html-keyboard-response,258,576356,0.0-14.0-0.7,60e3b18d3d4205b4c52ada56,650c16f0f2faf8d7a0d14c09,651c1d5fa6015b6a932f0045,null,null,"<p style=""font-size: 60px; font-family: BACS"">OLJblZvkL</p>",,,,,,,,,,
html-keyboard-response,259,577360,0.0-14.0-0.8,60e3b18d3d4205b4c52ada56,650c16f0f2faf8d7a0d14c09,651c1d5fa6015b6a932f0045,null,null,"<p style=""font-size: 60px; font-family: BACS"">PDPhlKOYC</p>",,,,,,,,,,
html-keyboard-response,260,578364,0.0-14.0-0.9,60e3b18d3d4205b4c52ada56,650c16f0f2faf8d7a0d14c09,651c1d5fa6015b6a932f0045,null,null,"<p style=""font-size: 60px; font-family: BACS"">adYrcZvkL</p>",,,,,,,,,,
html-keyboard-response,261,579367,0.0-14.0-0.10,60e3b18d3d4205b4c52ada56,650c16f0f2faf8d7a0d14c09,651c1d5fa6015b6a932f0045,null,null,"<p style=""font-size: 60px; font-family: BACS"">PDPhlAdYl</p>",,,,,,,,,,
html-keyboard-response,262,580370,0.0-14.0-0.11,60e3b18d3d4205b4c52ada56,650c16f0f2faf8d7a0d14c09,651c1d5fa6015b6a932f0045,null,null,"<p style=""font-size: 60px; font-family: BACS"">mdlaZvkL</p>",,,,,,,,,,
html-keyboard-response,263,581373,0.0-14.0-0.12,60e3b18d3d4205b4c52ada56,650c16f0f2faf8d7a0d14c09,651c1d5fa6015b6a932f0045,null,null,"<p style=""font-size: 60px; font-family: BACS"">hChYEKBO</p>",,,,,,,,,,
html-keyboard-response,264,582376,0.0-14.0-0.13,60e3b18d3d4205b4c52ada56,650c16f0f2faf8d7a0d14c09,651c1d5fa6015b6a932f0045,null,null,"<p style=""font-size: 60px; font-family: BACS"">BEPOKlkD</p>",,,,,,,,,,
html-keyboard-response,265,583379,0.0-14.0-0.14,60e3b18d3d4205b4c52ada56,650c16f0f2faf8d7a0d14c09,651c1d5fa6015b6a932f0045,null,null,"<p style=""font-size: 60px; font-family: BACS"">kGlUuZc</p>",,,,,,,,,,
html-keyboard-response,266,584382,0.0-14.0-0.15,60e3b18d3d4205b4c52ada56,650c16f0f2faf8d7a0d14c09,651c1d5fa6015b6a932f0045,null,null,"<p style=""font-size: 60px; font-family: BACS"">RYtkcEKBO</p>",,,,,,,,,,
html-keyboard-response,267,585385,0.0-14.0-0.16,60e3b18d3d4205b4c52ada56,650c16f0f2faf8d7a0d14c09,651c1d5fa6015b6a932f0045,null,null,"<p style=""font-size: 60px; font-family: BACS"">kZUbGUOA</p>",,,,,,,,,,
html-keyboard-response,268,586388,0.0-14.0-0.17,60e3b18d3d4205b4c52ada56,650c16f0f2faf8d7a0d14c09,651c1d5fa6015b6a932f0045,null,null,"<p style=""font-size: 60px; font-family: BACS"">DcPTcKOYC</p>",,,,,,,,,,
html-keyboard-response,269,587391,0.0-14.0-0.18,60e3b18d3d4205b4c52ada56,650c16f0f2faf8d7a0d14c09,651c1d5fa6015b6a932f0045,null,null,"<p style=""font-size: 60px; font-family: BACS"">auYAkLcO</p>",,,,,,,,,,
html-keyboard-response,270,588394,0.0-14.0-0.19,60e3b18d3d4205b4c52ada56,650c16f0f2faf8d7a0d14c09,651c1d5fa6015b6a932f0045,null,null,"<p style=""font-size: 60px; font-family: BACS"">DcPTcKlkD</p>",,,,,,,,,,
html-keyboard-response,271,589397,0.0-14.0-0.20,60e3b18d3d4205b4c52ada56,650c16f0f2faf8d7a0d14c09,651c1d5fa6015b6a932f0045,null,null,"<p style=""font-size: 60px; font-family: BACS"">kZUbLcO</p>",,,,,,,,,,
html-keyboard-response,272,590399,0.0-14.0-0.21,60e3b18d3d4205b4c52ada56,650c16f0f2faf8d7a0d14c09,651c1d5fa6015b6a932f0045,null,null,"<p style=""font-size: 60px; font-family: BACS"">hTtBbEKBO</p>",,,,,,,,,,
html-keyboard-response,273,591402,0.0-14.0-0.22,60e3b18d3d4205b4c52ada56,650c16f0f2faf8d7a0d14c09,651c1d5fa6015b6a932f0045,null,null,"<p style=""font-size: 60px; font-family: BACS"">auYAkGUOA</p>",,,,,,,,,,
html-keyboard-response,274,592405,0.0-14.0-0.23,60e3b18d3d4205b4c52ada56,650c16f0f2faf8d7a0d14c09,651c1d5fa6015b6a932f0045,null,null,"<p style=""font-size: 60px; font-family: BACS"">DcPTchEct</p>",,,,,,,,,,
html-keyboard-response,275,593407,0.0-14.0-0.24,60e3b18d3d4205b4c52ada56,650c16f0f2faf8d7a0d14c09,651c1d5fa6015b6a932f0045,null,null,"<p style=""font-size: 60px; font-family: BACS"">GQrcZvkL</p>",,,,,,,,,,
html-keyboard-response,276,594410,0.0-14.0-0.25,60e3b18d3d4205b4c52ada56,650c16f0f2faf8d7a0d14c09,651c1d5fa6015b6a932f0045,null,null,"<p style=""font-size: 60px; font-family: BACS"">kZUbuZc</p>",,,,,,,,,,
html-keyboard-response,277,595414,0.0-14.0-0.26,60e3b18d3d4205b4c52ada56,650c16f0f2faf8d7a0d14c09,651c1d5fa6015b6a932f0045,null,null,"<p style=""font-size: 60px; font-family: BACS"">hlbtbKlkD</p>",,,,,,,,,,
html-keyboard-response,278,596417,0.0-14.0-0.27,60e3b18d3d4205b4c52ada56,650c16f0f2faf8d7a0d14c09,651c1d5fa6015b6a932f0045,null,null,"<p style=""font-size: 60px; font-family: BACS"">BEPOAdYl</p>",,,,,,,,,,
html-keyboard-response,279,597419,0.0-14.0-0.28,60e3b18d3d4205b4c52ada56,650c16f0f2faf8d7a0d14c09,651c1d5fa6015b6a932f0045,null,null,"<p style=""font-size: 60px; font-family: BACS"">YOZNZvkL</p>",,,,,,,,,,
html-keyboard-response,280,598422,0.0-14.0-0.29,60e3b18d3d4205b4c52ada56,650c16f0f2faf8d7a0d14c09,651c1d5fa6015b6a932f0045,null,null,"<p style=""font-size: 60px; font-family: BACS"">hlbtbhEct</p>",,,,,,,,,,
html-keyboard-response,281,599426,0.0-14.0-0.30,60e3b18d3d4205b4c52ada56,650c16f0f2faf8d7a0d14c09,651c1d5fa6015b6a932f0045,null,null,"<p style=""font-size: 60px; font-family: BACS"">rvOvUGUOA</p>",,,,,,,,,,
html-keyboard-response,282,600429,0.0-14.0-0.31,60e3b18d3d4205b4c52ada56,650c16f0f2faf8d7a0d14c09,651c1d5fa6015b6a932f0045,null,null,"<p style=""font-size: 60px; font-family: BACS"">mdlaYmb</p>",,,,,,,,,,
html-keyboard-response,283,601432,0.0-14.0-0.32,60e3b18d3d4205b4c52ada56,650c16f0f2faf8d7a0d14c09,651c1d5fa6015b6a932f0045,null,null,"<p style=""font-size: 60px; font-family: BACS"">kGlULcO</p>",,,,,,,,,,
html-keyboard-response,284,602435,0.0-14.0-0.33,60e3b18d3d4205b4c52ada56,650c16f0f2faf8d7a0d14c09,651c1d5fa6015b6a932f0045,null,null,"<p style=""font-size: 60px; font-family: BACS"">mdlaGUOA</p>",,,,,,,,,,
html-keyboard-response,285,603438,0.0-14.0-0.34,60e3b18d3d4205b4c52ada56,650c16f0f2faf8d7a0d14c09,651c1d5fa6015b6a932f0045,null,null,"<p style=""font-size: 60px; font-family: BACS"">auYAkuZc</p>",,,,,,,,,,
html-keyboard-response,286,604442,0.0-14.0-0.35,60e3b18d3d4205b4c52ada56,650c16f0f2faf8d7a0d14c09,651c1d5fa6015b6a932f0045,null,null,"<p style=""font-size: 60px; font-family: BACS"">YOZNGUOA</p>",,,,,,,,,,
html-keyboard-response,287,605445,0.0-14.0-0.36,60e3b18d3d4205b4c52ada56,650c16f0f2faf8d7a0d14c09,651c1d5fa6015b6a932f0045,null,null,"<p style=""font-size: 60px; font-family: BACS"">bROCEKBO</p>",,,,,,,,,,
html-keyboard-response,288,606449,0.0-14.0-0.37,60e3b18d3d4205b4c52ada56,650c16f0f2faf8d7a0d14c09,651c1d5fa6015b6a932f0045,null,null,"<p style=""font-size: 60px; font-family: BACS"">hTtBbAdYl</p>",,,,,,,,,,
html-keyboard-response,289,607452,0.0-14.0-0.38,60e3b18d3d4205b4c52ada56,650c16f0f2faf8d7a0d14c09,651c1d5fa6015b6a932f0045,null,null,"<p style=""font-size: 60px; font-family: BACS"">hlbtbKOYC</p>",,,,,,,,,,
html-keyboard-response,290,608454,0.0-14.0-0.39,60e3b18d3d4205b4c52ada56,650c16f0f2faf8d7a0d14c09,651c1d5fa6015b6a932f0045,null,null,"<p style=""font-size: 60px; font-family: BACS"">BEPOEKBO</p>",,,,,,,,,,
html-keyboard-response,291,609457,0.0-14.0-0.40,60e3b18d3d4205b4c52ada56,650c16f0f2faf8d7a0d14c09,651c1d5fa6015b6a932f0045,null,null,"<p style=""font-size: 60px; font-family: BACS"">kZUbYmb</p>",,,,,,,,,,
html-keyboard-response,292,610461,0.0-14.0-0.41,60e3b18d3d4205b4c52ada56,650c16f0f2faf8d7a0d14c09,651c1d5fa6015b6a932f0045,null,null,"<p style=""font-size: 60px; font-family: BACS"">BEPOKOYC</p>",,,,,,,,,,
html-keyboard-response,293,611463,0.0-14.0-0.42,60e3b18d3d4205b4c52ada56,650c16f0f2faf8d7a0d14c09,651c1d5fa6015b6a932f0045,null,null,"<p style=""font-size: 60px; font-family: BACS"">rvOvUuZc</p>",,,,,,,,,,
html-keyboard-response,294,612467,0.0-14.0-0.43,60e3b18d3d4205b4c52ada56,650c16f0f2faf8d7a0d14c09,651c1d5fa6015b6a932f0045,null,null,"<p style=""font-size: 60px; font-family: BACS"">OLJblYmb</p>",,,,,,,,,,
html-keyboard-response,295,613470,0.0-14.0-0.44,60e3b18d3d4205b4c52ada56,650c16f0f2faf8d7a0d14c09,651c1d5fa6015b6a932f0045,null,null,"<p style=""font-size: 60px; font-family: BACS"">kGlUGUOA</p>",,,,,,,,,,
html-keyboard-response,296,614473,0.0-14.0-0.45,60e3b18d3d4205b4c52ada56,650c16f0f2faf8d7a0d14c09,651c1d5fa6015b6a932f0045,null,null,"<p style=""font-size: 60px; font-family: BACS"">GQrcuZc</p>",,,,,,,,,,
html-keyboard-response,297,615476,0.0-14.0-0.46,60e3b18d3d4205b4c52ada56,650c16f0f2faf8d7a0d14c09,651c1d5fa6015b6a932f0045,null,null,"<p style=""font-size: 60px; font-family: BACS"">hChYAdYl</p>",,,,,,,,,,
html-keyboard-response,298,616480,0.0-14.0-0.47,60e3b18d3d4205b4c52ada56,650c16f0f2faf8d7a0d14c09,651c1d5fa6015b6a932f0045,null,null,"<p style=""font-size: 60px; font-family: BACS"">RYtkcKOYC</p>",,,,,,,,,,
html-keyboard-response,299,617482,0.0-14.0-0.48,60e3b18d3d4205b4c52ada56,650c16f0f2faf8d7a0d14c09,651c1d5fa6015b6a932f0045,null,null,"<p style=""font-size: 60px; font-family: BACS"">CRdBdAdYl</p>",,,,,,,,,,
html-keyboard-response,300,618486,0.0-14.0-0.49,60e3b18d3d4205b4c52ada56,650c16f0f2faf8d7a0d14c09,651c1d5fa6015b6a932f0045,null,null,"<p style=""font-size: 60px; font-family: BACS"">RYtkcKlkD</p>",,,,,,,,,,
html-keyboard-response,301,619489,0.0-14.0-0.50,60e3b18d3d4205b4c52ada56,650c16f0f2faf8d7a0d14c09,651c1d5fa6015b6a932f0045,null,null,"<p style=""font-size: 60px; font-family: BACS"">AMkCEKBO</p>",,,,,,,,,,
html-keyboard-response,302,620492,0.0-14.0-0.51,60e3b18d3d4205b4c52ada56,650c16f0f2faf8d7a0d14c09,651c1d5fa6015b6a932f0045,null,null,"<p style=""font-size: 60px; font-family: BACS"">adYrcLcO</p>",,,,,,,,,,
html-keyboard-response,303,621495,0.0-14.0-0.52,60e3b18d3d4205b4c52ada56,650c16f0f2faf8d7a0d14c09,651c1d5fa6015b6a932f0045,null,null,"<p style=""font-size: 60px; font-family: BACS"">PDPhlKlkD</p>",,,,,,,,,,
html-keyboard-response,304,622498,0.0-14.0-0.53,60e3b18d3d4205b4c52ada56,650c16f0f2faf8d7a0d14c09,651c1d5fa6015b6a932f0045,null,null,"<p style=""font-size: 60px; font-family: BACS"">hChYhEct</p>",,,,,,,,,,
html-keyboard-response,305,623501,0.0-14.0-0.54,60e3b18d3d4205b4c52ada56,650c16f0f2faf8d7a0d14c09,651c1d5fa6015b6a932f0045,null,null,"<p style=""font-size: 60px; font-family: BACS"">bROCAdYl</p>",,,,,,,,,,
html-keyboard-response,306,624504,0.0-14.0-0.55,60e3b18d3d4205b4c52ada56,650c16f0f2faf8d7a0d14c09,651c1d5fa6015b6a932f0045,null,null,"<p style=""font-size: 60px; font-family: BACS"">rvOvUZvkL</p>",,,,,,,,,,
html-keyboard-response,307,625507,0.0-14.0-0.56,60e3b18d3d4205b4c52ada56,650c16f0f2faf8d7a0d14c09,651c1d5fa6015b6a932f0045,null,null,"<p style=""font-size: 60px; font-family: BACS"">GQrcYmb</p>",,,,,,,,,,
html-keyboard-response,308,626511,0.0-14.0-0.57,60e3b18d3d4205b4c52ada56,650c16f0f2faf8d7a0d14c09,651c1d5fa6015b6a932f0045,null,null,"<p style=""font-size: 60px; font-family: BACS"">mZUrQGUOA</p>",,,,,,,,,,
html-keyboard-response,309,627514,0.0-14.0-0.58,60e3b18d3d4205b4c52ada56,650c16f0f2faf8d7a0d14c09,651c1d5fa6015b6a932f0045,null,null,"<p style=""font-size: 60px; font-family: BACS"">CRdBdhEct</p>",,,,,,,,,,
html-keyboard-response,310,628517,0.0-14.0-0.59,60e3b18d3d4205b4c52ada56,650c16f0f2faf8d7a0d14c09,651c1d5fa6015b6a932f0045,null,null,"<p style=""font-size: 60px; font-family: BACS"">kGlUYmb</p>",,,,,,,,,,
html-keyboard-response,311,629520,0.0-14.0-0.60,60e3b18d3d4205b4c52ada56,650c16f0f2faf8d7a0d14c09,651c1d5fa6015b6a932f0045,null,null,"<p style=""font-size: 60px; font-family: BACS"">mdlauZc</p>",,,,,,,,,,
html-keyboard-response,312,630523,0.0-14.0-0.61,60e3b18d3d4205b4c52ada56,650c16f0f2faf8d7a0d14c09,651c1d5fa6015b6a932f0045,null,null,"<p style=""font-size: 60px; font-family: BACS"">PDPhlhEct</p>",,,,,,,,,,
html-keyboard-response,313,631526,0.0-14.0-0.62,60e3b18d3d4205b4c52ada56,650c16f0f2faf8d7a0d14c09,651c1d5fa6015b6a932f0045,null,null,"<p style=""font-size: 60px; font-family: BACS"">hTtBbKlkD</p>",,,,,,,,,,
html-keyboard-response,314,632529,0.0-14.0-0.63,60e3b18d3d4205b4c52ada56,650c16f0f2faf8d7a0d14c09,651c1d5fa6015b6a932f0045,null,null,"<p style=""font-size: 60px; font-family: BACS"">OLJblLcO</p>",,,,,,,,,,
html-keyboard-response,315,633532,0.0-14.0-0.64,60e3b18d3d4205b4c52ada56,650c16f0f2faf8d7a0d14c09,651c1d5fa6015b6a932f0045,null,null,"<p style=""font-size: 60px; font-family: BACS"">hTtBbKOYC</p>",,,,,,,,,,
html-keyboard-response,316,634535,0.0-14.0-0.65,60e3b18d3d4205b4c52ada56,650c16f0f2faf8d7a0d14c09,651c1d5fa6015b6a932f0045,null,null,"<p style=""font-size: 60px; font-family: BACS"">mZUrQZvkL</p>",,,,,,,,,,
html-keyboard-response,317,635538,0.0-14.0-0.66,60e3b18d3d4205b4c52ada56,650c16f0f2faf8d7a0d14c09,651c1d5fa6015b6a932f0045,null,null,"<p style=""font-size: 60px; font-family: BACS"">hChYKlkD</p>",,,,,,,,,,
html-keyboard-response,318,636541,0.0-14.0-0.67,60e3b18d3d4205b4c52ada56,650c16f0f2faf8d7a0d14c09,651c1d5fa6015b6a932f0045,null,null,"<p style=""font-size: 60px; font-family: BACS"">GQrcLcO</p>",,,,,,,,,,
html-keyboard-response,319,637544,0.0-14.0-0.68,60e3b18d3d4205b4c52ada56,650c16f0f2faf8d7a0d14c09,651c1d5fa6015b6a932f0045,null,null,"<p style=""font-size: 60px; font-family: BACS"">OLJblGUOA</p>",,,,,,,,,,
html-keyboard-response,320,638548,0.0-14.0-0.69,60e3b18d3d4205b4c52ada56,650c16f0f2faf8d7a0d14c09,651c1d5fa6015b6a932f0045,null,null,"<p style=""font-size: 60px; font-family: BACS"">AMkCAdYl</p>",,,,,,,,,,
html-keyboard-response,321,639551,0.0-14.0-0.70,60e3b18d3d4205b4c52ada56,650c16f0f2faf8d7a0d14c09,651c1d5fa6015b6a932f0045,null,null,"<p style=""font-size: 60px; font-family: BACS"">YOZNuZc</p>",,,,,,,,,,
html-keyboard-response,322,640554,0.0-14.0-0.71,60e3b18d3d4205b4c52ada56,650c16f0f2faf8d7a0d14c09,651c1d5fa6015b6a932f0045,null,null,"<p style=""font-size: 60px; font-family: BACS"">CRdBdEKBO</p>",,,,,,,,,,
html-keyboard-response,323,641557,0.0-14.0-0.72,60e3b18d3d4205b4c52ada56,650c16f0f2faf8d7a0d14c09,651c1d5fa6015b6a932f0045,null,null,"<p style=""font-size: 60px; font-family: BACS"">adYrcuZc</p>",,,,,,,,,,
html-keyboard-response,324,642560,0.0-14.0-0.73,60e3b18d3d4205b4c52ada56,650c16f0f2faf8d7a0d14c09,651c1d5fa6015b6a932f0045,null,null,"<p style=""font-size: 60px; font-family: BACS"">mZUrQYmb</p>",,,,,,,,,,
html-keyboard-response,325,643563,0.0-14.0-0.74,60e3b18d3d4205b4c52ada56,650c16f0f2faf8d7a0d14c09,651c1d5fa6015b6a932f0045,null,null,"<p style=""font-size: 60px; font-family: BACS"">AMkChEct</p>",,,,,,,,,,
html-keyboard-response,326,644567,0.0-14.0-0.75,60e3b18d3d4205b4c52ada56,650c16f0f2faf8d7a0d14c09,651c1d5fa6015b6a932f0045,null,null,"<p style=""font-size: 60px; font-family: BACS"">DcPTcEKBO</p>",,,,,,,,,,
html-keyboard-response,327,645569,0.0-14.0-0.76,60e3b18d3d4205b4c52ada56,650c16f0f2faf8d7a0d14c09,651c1d5fa6015b6a932f0045,null,null,"<p style=""font-size: 60px; font-family: BACS"">bROChEct</p>",,,,,,,,,,
html-keyboard-response,328,646573,0.0-14.0-0.77,60e3b18d3d4205b4c52ada56,650c16f0f2faf8d7a0d14c09,651c1d5fa6015b6a932f0045,null,null,"<p style=""font-size: 60px; font-family: BACS"">hlbtbAdYl</p>",,,,,,,,,,
html-keyboard-response,329,647575,0.0-14.0-0.78,60e3b18d3d4205b4c52ada56,650c16f0f2faf8d7a0d14c09,651c1d5fa6015b6a932f0045,null,null,"<p style=""font-size: 60px; font-family: BACS"">bROCKOYC</p>",,,,,,,,,,
html-keyboard-response,330,648579,0.0-14.0-0.79,60e3b18d3d4205b4c52ada56,650c16f0f2faf8d7a0d14c09,651c1d5fa6015b6a932f0045,null,null,"<p style=""font-size: 60px; font-family: BACS"">auYAkZvkL</p>",,,,,,,,,,
html-keyboard-response,331,654458,0.0-15.0,60e3b18d3d4205b4c52ada56,650c16f0f2faf8d7a0d14c09,651c1d5fa6015b6a932f0045,5876, ,"<p>Great, you've seen the fourth block of words. You may now take a short break.</p>
      <p>Press the spacebar when you're ready to continue.</p>",,,,,,,,,,
html-keyboard-response,332,655461,0.0-16.0-0.0,60e3b18d3d4205b4c52ada56,650c16f0f2faf8d7a0d14c09,651c1d5fa6015b6a932f0045,null,null,"<p style=""font-size: 60px; font-family: BACS"">GQrcLcO</p>",,,,,,,,,,
html-keyboard-response,333,656464,0.0-16.0-0.1,60e3b18d3d4205b4c52ada56,650c16f0f2faf8d7a0d14c09,651c1d5fa6015b6a932f0045,null,null,"<p style=""font-size: 60px; font-family: BACS"">GQrcLcO</p>",,,,,,,,,,
html-keyboard-response,334,657467,0.0-16.0-0.2,60e3b18d3d4205b4c52ada56,650c16f0f2faf8d7a0d14c09,651c1d5fa6015b6a932f0045,null,null,"<p style=""font-size: 60px; font-family: BACS"">GQrcLcO</p>",,,,,,,,,,
html-keyboard-response,335,658470,0.0-16.0-0.3,60e3b18d3d4205b4c52ada56,650c16f0f2faf8d7a0d14c09,651c1d5fa6015b6a932f0045,null,null,"<p style=""font-size: 60px; font-family: BACS"">GQrcLcO</p>",,,,,,,,,,
html-keyboard-response,336,659473,0.0-16.0-0.4,60e3b18d3d4205b4c52ada56,650c16f0f2faf8d7a0d14c09,651c1d5fa6015b6a932f0045,null,null,"<p style=""font-size: 60px; font-family: BACS"">GQrcLcO</p>",,,,,,,,,,
html-keyboard-response,337,660476,0.0-16.0-0.5,60e3b18d3d4205b4c52ada56,650c16f0f2faf8d7a0d14c09,651c1d5fa6015b6a932f0045,null,null,"<p style=""font-size: 60px; font-family: BACS"">GQrcLcO</p>",,,,,,,,,,
html-keyboard-response,338,661479,0.0-16.0-0.6,60e3b18d3d4205b4c52ada56,650c16f0f2faf8d7a0d14c09,651c1d5fa6015b6a932f0045,null,null,"<p style=""font-size: 60px; font-family: BACS"">GQrcLcO</p>",,,,,,,,,,
html-keyboard-response,339,662482,0.0-16.0-0.7,60e3b18d3d4205b4c52ada56,650c16f0f2faf8d7a0d14c09,651c1d5fa6015b6a932f0045,null,null,"<p style=""font-size: 60px; font-family: BACS"">GQrcLcO</p>",,,,,,,,,,
html-keyboard-response,340,663485,0.0-16.0-0.8,60e3b18d3d4205b4c52ada56,650c16f0f2faf8d7a0d14c09,651c1d5fa6015b6a932f0045,null,null,"<p style=""font-size: 60px; font-family: BACS"">GQrcLcO</p>",,,,,,,,,,
html-keyboard-response,341,664488,0.0-16.0-0.9,60e3b18d3d4205b4c52ada56,650c16f0f2faf8d7a0d14c09,651c1d5fa6015b6a932f0045,null,null,"<p style=""font-size: 60px; font-family: BACS"">GQrcLcO</p>",,,,,,,,,,
html-keyboard-response,342,665492,0.0-16.0-0.10,60e3b18d3d4205b4c52ada56,650c16f0f2faf8d7a0d14c09,651c1d5fa6015b6a932f0045,null,null,"<p style=""font-size: 60px; font-family: BACS"">GQrcLcO</p>",,,,,,,,,,
html-keyboard-response,343,666495,0.0-16.0-0.11,60e3b18d3d4205b4c52ada56,650c16f0f2faf8d7a0d14c09,651c1d5fa6015b6a932f0045,null,null,"<p style=""font-size: 60px; font-family: BACS"">GQrcLcO</p>",,,,,,,,,,
html-keyboard-response,344,667499,0.0-16.0-0.12,60e3b18d3d4205b4c52ada56,650c16f0f2faf8d7a0d14c09,651c1d5fa6015b6a932f0045,null,null,"<p style=""font-size: 60px; font-family: BACS"">GQrcLcO</p>",,,,,,,,,,
html-keyboard-response,345,668501,0.0-16.0-0.13,60e3b18d3d4205b4c52ada56,650c16f0f2faf8d7a0d14c09,651c1d5fa6015b6a932f0045,null,null,"<p style=""font-size: 60px; font-family: BACS"">GQrcLcO</p>",,,,,,,,,,
html-keyboard-response,346,669504,0.0-16.0-0.14,60e3b18d3d4205b4c52ada56,650c16f0f2faf8d7a0d14c09,651c1d5fa6015b6a932f0045,null,null,"<p style=""font-size: 60px; font-family: BACS"">GQrcLcO</p>",,,,,,,,,,
html-keyboard-response,347,670507,0.0-16.0-0.15,60e3b18d3d4205b4c52ada56,650c16f0f2faf8d7a0d14c09,651c1d5fa6015b6a932f0045,null,null,"<p style=""font-size: 60px; font-family: BACS"">GQrcLcO</p>",,,,,,,,,,
html-keyboard-response,348,671511,0.0-16.0-0.16,60e3b18d3d4205b4c52ada56,650c16f0f2faf8d7a0d14c09,651c1d5fa6015b6a932f0045,null,null,"<p style=""font-size: 60px; font-family: BACS"">GQrcLcO</p>",,,,,,,,,,
html-keyboard-response,349,672513,0.0-16.0-0.17,60e3b18d3d4205b4c52ada56,650c16f0f2faf8d7a0d14c09,651c1d5fa6015b6a932f0045,null,null,"<p style=""font-size: 60px; font-family: BACS"">GQrcLcO</p>",,,,,,,,,,
html-keyboard-response,350,673516,0.0-16.0-0.18,60e3b18d3d4205b4c52ada56,650c16f0f2faf8d7a0d14c09,651c1d5fa6015b6a932f0045,null,null,"<p style=""font-size: 60px; font-family: BACS"">GQrcLcO</p>",,,,,,,,,,
html-keyboard-response,351,674520,0.0-16.0-0.19,60e3b18d3d4205b4c52ada56,650c16f0f2faf8d7a0d14c09,651c1d5fa6015b6a932f0045,null,null,"<p style=""font-size: 60px; font-family: BACS"">GQrcLcO</p>",,,,,,,,,,
html-keyboard-response,352,675523,0.0-16.0-0.20,60e3b18d3d4205b4c52ada56,650c16f0f2faf8d7a0d14c09,651c1d5fa6015b6a932f0045,null,null,"<p style=""font-size: 60px; font-family: BACS"">GQrcLcO</p>",,,,,,,,,,
html-keyboard-response,353,676526,0.0-16.0-0.21,60e3b18d3d4205b4c52ada56,650c16f0f2faf8d7a0d14c09,651c1d5fa6015b6a932f0045,null,null,"<p style=""font-size: 60px; font-family: BACS"">GQrcLcO</p>",,,,,,,,,,
html-keyboard-response,354,677530,0.0-16.0-0.22,60e3b18d3d4205b4c52ada56,650c16f0f2faf8d7a0d14c09,651c1d5fa6015b6a932f0045,null,null,"<p style=""font-size: 60px; font-family: BACS"">GQrcLcO</p>",,,,,,,,,,
html-keyboard-response,355,678533,0.0-16.0-0.23,60e3b18d3d4205b4c52ada56,650c16f0f2faf8d7a0d14c09,651c1d5fa6015b6a932f0045,null,null,"<p style=""font-size: 60px; font-family: BACS"">GQrcLcO</p>",,,,,,,,,,
html-keyboard-response,356,679536,0.0-16.0-0.24,60e3b18d3d4205b4c52ada56,650c16f0f2faf8d7a0d14c09,651c1d5fa6015b6a932f0045,null,null,"<p style=""font-size: 60px; font-family: BACS"">GQrcLcO</p>",,,,,,,,,,
html-keyboard-response,357,680539,0.0-16.0-0.25,60e3b18d3d4205b4c52ada56,650c16f0f2faf8d7a0d14c09,651c1d5fa6015b6a932f0045,null,null,"<p style=""font-size: 60px; font-family: BACS"">GQrcLcO</p>",,,,,,,,,,
html-keyboard-response,358,681542,0.0-16.0-0.26,60e3b18d3d4205b4c52ada56,650c16f0f2faf8d7a0d14c09,651c1d5fa6015b6a932f0045,null,null,"<p style=""font-size: 60px; font-family: BACS"">GQrcLcO</p>",,,,,,,,,,
html-keyboard-response,359,682545,0.0-16.0-0.27,60e3b18d3d4205b4c52ada56,650c16f0f2faf8d7a0d14c09,651c1d5fa6015b6a932f0045,null,null,"<p style=""font-size: 60px; font-family: BACS"">GQrcLcO</p>",,,,,,,,,,
html-keyboard-response,360,683548,0.0-16.0-0.28,60e3b18d3d4205b4c52ada56,650c16f0f2faf8d7a0d14c09,651c1d5fa6015b6a932f0045,null,null,"<p style=""font-size: 60px; font-family: BACS"">GQrcLcO</p>",,,,,,,,,,
html-keyboard-response,361,684550,0.0-16.0-0.29,60e3b18d3d4205b4c52ada56,650c16f0f2faf8d7a0d14c09,651c1d5fa6015b6a932f0045,null,null,"<p style=""font-size: 60px; font-family: BACS"">GQrcLcO</p>",,,,,,,,,,
html-keyboard-response,362,685553,0.0-16.0-0.30,60e3b18d3d4205b4c52ada56,650c16f0f2faf8d7a0d14c09,651c1d5fa6015b6a932f0045,null,null,"<p style=""font-size: 60px; font-family: BACS"">GQrcLcO</p>",,,,,,,,,,
html-keyboard-response,363,686557,0.0-16.0-0.31,60e3b18d3d4205b4c52ada56,650c16f0f2faf8d7a0d14c09,651c1d5fa6015b6a932f0045,null,null,"<p style=""font-size: 60px; font-family: BACS"">GQrcLcO</p>",,,,,,,,,,
html-keyboard-response,364,687560,0.0-16.0-0.32,60e3b18d3d4205b4c52ada56,650c16f0f2faf8d7a0d14c09,651c1d5fa6015b6a932f0045,null,null,"<p style=""font-size: 60px; font-family: BACS"">GQrcLcO</p>",,,,,,,,,,
html-keyboard-response,365,688563,0.0-16.0-0.33,60e3b18d3d4205b4c52ada56,650c16f0f2faf8d7a0d14c09,651c1d5fa6015b6a932f0045,null,null,"<p style=""font-size: 60px; font-family: BACS"">GQrcLcO</p>",,,,,,,,,,
html-keyboard-response,366,689567,0.0-16.0-0.34,60e3b18d3d4205b4c52ada56,650c16f0f2faf8d7a0d14c09,651c1d5fa6015b6a932f0045,null,null,"<p style=""font-size: 60px; font-family: BACS"">GQrcLcO</p>",,,,,,,,,,
html-keyboard-response,367,690570,0.0-16.0-0.35,60e3b18d3d4205b4c52ada56,650c16f0f2faf8d7a0d14c09,651c1d5fa6015b6a932f0045,null,null,"<p style=""font-size: 60px; font-family: BACS"">GQrcLcO</p>",,,,,,,,,,
html-keyboard-response,368,691573,0.0-16.0-0.36,60e3b18d3d4205b4c52ada56,650c16f0f2faf8d7a0d14c09,651c1d5fa6015b6a932f0045,null,null,"<p style=""font-size: 60px; font-family: BACS"">GQrcLcO</p>",,,,,,,,,,
html-keyboard-response,369,692576,0.0-16.0-0.37,60e3b18d3d4205b4c52ada56,650c16f0f2faf8d7a0d14c09,651c1d5fa6015b6a932f0045,null,null,"<p style=""font-size: 60px; font-family: BACS"">GQrcLcO</p>",,,,,,,,,,
html-keyboard-response,370,693580,0.0-16.0-0.38,60e3b18d3d4205b4c52ada56,650c16f0f2faf8d7a0d14c09,651c1d5fa6015b6a932f0045,null,null,"<p style=""font-size: 60px; font-family: BACS"">GQrcLcO</p>",,,,,,,,,,
html-keyboard-response,371,694582,0.0-16.0-0.39,60e3b18d3d4205b4c52ada56,650c16f0f2faf8d7a0d14c09,651c1d5fa6015b6a932f0045,null,null,"<p style=""font-size: 60px; font-family: BACS"">GQrcLcO</p>",,,,,,,,,,
html-keyboard-response,372,695586,0.0-16.0-0.40,60e3b18d3d4205b4c52ada56,650c16f0f2faf8d7a0d14c09,651c1d5fa6015b6a932f0045,null,null,"<p style=""font-size: 60px; font-family: BACS"">GQrcLcO</p>",,,,,,,,,,
html-keyboard-response,373,696589,0.0-16.0-0.41,60e3b18d3d4205b4c52ada56,650c16f0f2faf8d7a0d14c09,651c1d5fa6015b6a932f0045,null,null,"<p style=""font-size: 60px; font-family: BACS"">GQrcLcO</p>",,,,,,,,,,
html-keyboard-response,374,697591,0.0-16.0-0.42,60e3b18d3d4205b4c52ada56,650c16f0f2faf8d7a0d14c09,651c1d5fa6015b6a932f0045,null,null,"<p style=""font-size: 60px; font-family: BACS"">GQrcLcO</p>",,,,,,,,,,
html-keyboard-response,375,698594,0.0-16.0-0.43,60e3b18d3d4205b4c52ada56,650c16f0f2faf8d7a0d14c09,651c1d5fa6015b6a932f0045,null,null,"<p style=""font-size: 60px; font-family: BACS"">GQrcLcO</p>",,,,,,,,,,
html-keyboard-response,376,699597,0.0-16.0-0.44,60e3b18d3d4205b4c52ada56,650c16f0f2faf8d7a0d14c09,651c1d5fa6015b6a932f0045,null,null,"<p style=""font-size: 60px; font-family: BACS"">GQrcLcO</p>",,,,,,,,,,
html-keyboard-response,377,700600,0.0-16.0-0.45,60e3b18d3d4205b4c52ada56,650c16f0f2faf8d7a0d14c09,651c1d5fa6015b6a932f0045,null,null,"<p style=""font-size: 60px; font-family: BACS"">GQrcLcO</p>",,,,,,,,,,
html-keyboard-response,378,701603,0.0-16.0-0.46,60e3b18d3d4205b4c52ada56,650c16f0f2faf8d7a0d14c09,651c1d5fa6015b6a932f0045,null,null,"<p style=""font-size: 60px; font-family: BACS"">GQrcLcO</p>",,,,,,,,,,
html-keyboard-response,379,702606,0.0-16.0-0.47,60e3b18d3d4205b4c52ada56,650c16f0f2faf8d7a0d14c09,651c1d5fa6015b6a932f0045,null,null,"<p style=""font-size: 60px; font-family: BACS"">GQrcLcO</p>",,,,,,,,,,
html-keyboard-response,380,703609,0.0-16.0-0.48,60e3b18d3d4205b4c52ada56,650c16f0f2faf8d7a0d14c09,651c1d5fa6015b6a932f0045,null,null,"<p style=""font-size: 60px; font-family: BACS"">GQrcLcO</p>",,,,,,,,,,
html-keyboard-response,381,704612,0.0-16.0-0.49,60e3b18d3d4205b4c52ada56,650c16f0f2faf8d7a0d14c09,651c1d5fa6015b6a932f0045,null,null,"<p style=""font-size: 60px; font-family: BACS"">GQrcLcO</p>",,,,,,,,,,
html-keyboard-response,382,705615,0.0-16.0-0.50,60e3b18d3d4205b4c52ada56,650c16f0f2faf8d7a0d14c09,651c1d5fa6015b6a932f0045,null,null,"<p style=""font-size: 60px; font-family: BACS"">GQrcLcO</p>",,,,,,,,,,
html-keyboard-response,383,706618,0.0-16.0-0.51,60e3b18d3d4205b4c52ada56,650c16f0f2faf8d7a0d14c09,651c1d5fa6015b6a932f0045,null,null,"<p style=""font-size: 60px; font-family: BACS"">GQrcLcO</p>",,,,,,,,,,
html-keyboard-response,384,707621,0.0-16.0-0.52,60e3b18d3d4205b4c52ada56,650c16f0f2faf8d7a0d14c09,651c1d5fa6015b6a932f0045,null,null,"<p style=""font-size: 60px; font-family: BACS"">GQrcLcO</p>",,,,,,,,,,
html-keyboard-response,385,708624,0.0-16.0-0.53,60e3b18d3d4205b4c52ada56,650c16f0f2faf8d7a0d14c09,651c1d5fa6015b6a932f0045,null,null,"<p style=""font-size: 60px; font-family: BACS"">GQrcLcO</p>",,,,,,,,,,
html-keyboard-response,386,709627,0.0-16.0-0.54,60e3b18d3d4205b4c52ada56,650c16f0f2faf8d7a0d14c09,651c1d5fa6015b6a932f0045,null,null,"<p style=""font-size: 60px; font-family: BACS"">GQrcLcO</p>",,,,,,,,,,
html-keyboard-response,387,710631,0.0-16.0-0.55,60e3b18d3d4205b4c52ada56,650c16f0f2faf8d7a0d14c09,651c1d5fa6015b6a932f0045,null,null,"<p style=""font-size: 60px; font-family: BACS"">GQrcLcO</p>",,,,,,,,,,
html-keyboard-response,388,711634,0.0-16.0-0.56,60e3b18d3d4205b4c52ada56,650c16f0f2faf8d7a0d14c09,651c1d5fa6015b6a932f0045,null,null,"<p style=""font-size: 60px; font-family: BACS"">GQrcLcO</p>",,,,,,,,,,
html-keyboard-response,389,712637,0.0-16.0-0.57,60e3b18d3d4205b4c52ada56,650c16f0f2faf8d7a0d14c09,651c1d5fa6015b6a932f0045,null,null,"<p style=""font-size: 60px; font-family: BACS"">GQrcLcO</p>",,,,,,,,,,
html-keyboard-response,390,713640,0.0-16.0-0.58,60e3b18d3d4205b4c52ada56,650c16f0f2faf8d7a0d14c09,651c1d5fa6015b6a932f0045,null,null,"<p style=""font-size: 60px; font-family: BACS"">GQrcLcO</p>",,,,,,,,,,
html-keyboard-response,391,714643,0.0-16.0-0.59,60e3b18d3d4205b4c52ada56,650c16f0f2faf8d7a0d14c09,651c1d5fa6015b6a932f0045,null,null,"<p style=""font-size: 60px; font-family: BACS"">GQrcLcO</p>",,,,,,,,,,
html-keyboard-response,392,715645,0.0-16.0-0.60,60e3b18d3d4205b4c52ada56,650c16f0f2faf8d7a0d14c09,651c1d5fa6015b6a932f0045,null,null,"<p style=""font-size: 60px; font-family: BACS"">GQrcLcO</p>",,,,,,,,,,
html-keyboard-response,393,716647,0.0-16.0-0.61,60e3b18d3d4205b4c52ada56,650c16f0f2faf8d7a0d14c09,651c1d5fa6015b6a932f0045,null,null,"<p style=""font-size: 60px; font-family: BACS"">GQrcLcO</p>",,,,,,,,,,
html-keyboard-response,394,717650,0.0-16.0-0.62,60e3b18d3d4205b4c52ada56,650c16f0f2faf8d7a0d14c09,651c1d5fa6015b6a932f0045,null,null,"<p style=""font-size: 60px; font-family: BACS"">GQrcLcO</p>",,,,,,,,,,
html-keyboard-response,395,718653,0.0-16.0-0.63,60e3b18d3d4205b4c52ada56,650c16f0f2faf8d7a0d14c09,651c1d5fa6015b6a932f0045,null,null,"<p style=""font-size: 60px; font-family: BACS"">GQrcLcO</p>",,,,,,,,,,
html-keyboard-response,396,719656,0.0-16.0-0.64,60e3b18d3d4205b4c52ada56,650c16f0f2faf8d7a0d14c09,651c1d5fa6015b6a932f0045,null,null,"<p style=""font-size: 60px; font-family: BACS"">GQrcLcO</p>",,,,,,,,,,
html-keyboard-response,397,720659,0.0-16.0-0.65,60e3b18d3d4205b4c52ada56,650c16f0f2faf8d7a0d14c09,651c1d5fa6015b6a932f0045,null,null,"<p style=""font-size: 60px; font-family: BACS"">GQrcLcO</p>",,,,,,,,,,
html-keyboard-response,398,721662,0.0-16.0-0.66,60e3b18d3d4205b4c52ada56,650c16f0f2faf8d7a0d14c09,651c1d5fa6015b6a932f0045,null,null,"<p style=""font-size: 60px; font-family: BACS"">GQrcLcO</p>",,,,,,,,,,
html-keyboard-response,399,722665,0.0-16.0-0.67,60e3b18d3d4205b4c52ada56,650c16f0f2faf8d7a0d14c09,651c1d5fa6015b6a932f0045,null,null,"<p style=""font-size: 60px; font-family: BACS"">GQrcLcO</p>",,,,,,,,,,
html-keyboard-response,400,723668,0.0-16.0-0.68,60e3b18d3d4205b4c52ada56,650c16f0f2faf8d7a0d14c09,651c1d5fa6015b6a932f0045,null,null,"<p style=""font-size: 60px; font-family: BACS"">GQrcLcO</p>",,,,,,,,,,
html-keyboard-response,401,724672,0.0-16.0-0.69,60e3b18d3d4205b4c52ada56,650c16f0f2faf8d7a0d14c09,651c1d5fa6015b6a932f0045,null,null,"<p style=""font-size: 60px; font-family: BACS"">GQrcLcO</p>",,,,,,,,,,
html-keyboard-response,402,725675,0.0-16.0-0.70,60e3b18d3d4205b4c52ada56,650c16f0f2faf8d7a0d14c09,651c1d5fa6015b6a932f0045,null,null,"<p style=""font-size: 60px; font-family: BACS"">GQrcLcO</p>",,,,,,,,,,
html-keyboard-response,403,726678,0.0-16.0-0.71,60e3b18d3d4205b4c52ada56,650c16f0f2faf8d7a0d14c09,651c1d5fa6015b6a932f0045,null,null,"<p style=""font-size: 60px; font-family: BACS"">GQrcLcO</p>",,,,,,,,,,
html-keyboard-response,404,727681,0.0-16.0-0.72,60e3b18d3d4205b4c52ada56,650c16f0f2faf8d7a0d14c09,651c1d5fa6015b6a932f0045,null,null,"<p style=""font-size: 60px; font-family: BACS"">GQrcLcO</p>",,,,,,,,,,
html-keyboard-response,405,728684,0.0-16.0-0.73,60e3b18d3d4205b4c52ada56,650c16f0f2faf8d7a0d14c09,651c1d5fa6015b6a932f0045,null,null,"<p style=""font-size: 60px; font-family: BACS"">GQrcLcO</p>",,,,,,,,,,
html-keyboard-response,406,729687,0.0-16.0-0.74,60e3b18d3d4205b4c52ada56,650c16f0f2faf8d7a0d14c09,651c1d5fa6015b6a932f0045,null,null,"<p style=""font-size: 60px; font-family: BACS"">GQrcLcO</p>",,,,,,,,,,
html-keyboard-response,407,730691,0.0-16.0-0.75,60e3b18d3d4205b4c52ada56,650c16f0f2faf8d7a0d14c09,651c1d5fa6015b6a932f0045,null,null,"<p style=""font-size: 60px; font-family: BACS"">GQrcLcO</p>",,,,,,,,,,
html-keyboard-response,408,731693,0.0-16.0-0.76,60e3b18d3d4205b4c52ada56,650c16f0f2faf8d7a0d14c09,651c1d5fa6015b6a932f0045,null,null,"<p style=""font-size: 60px; font-family: BACS"">GQrcLcO</p>",,,,,,,,,,
html-keyboard-response,409,732697,0.0-16.0-0.77,60e3b18d3d4205b4c52ada56,650c16f0f2faf8d7a0d14c09,651c1d5fa6015b6a932f0045,null,null,"<p style=""font-size: 60px; font-family: BACS"">GQrcLcO</p>",,,,,,,,,,
html-keyboard-response,410,733699,0.0-16.0-0.78,60e3b18d3d4205b4c52ada56,650c16f0f2faf8d7a0d14c09,651c1d5fa6015b6a932f0045,null,null,"<p style=""font-size: 60px; font-family: BACS"">GQrcLcO</p>",,,,,,,,,,
html-keyboard-response,411,734703,0.0-16.0-0.79,60e3b18d3d4205b4c52ada56,650c16f0f2faf8d7a0d14c09,651c1d5fa6015b6a932f0045,null,null,"<p style=""font-size: 60px; font-family: BACS"">GQrcLcO</p>",,,,,,,,,,
html-keyboard-response,412,741755,0.0-17.0,60e3b18d3d4205b4c52ada56,650c16f0f2faf8d7a0d14c09,651c1d5fa6015b6a932f0045,7050, ,"<p>Great, you've seen the fifth block of words. You may now take a short break.</p>
      <p>Press the spacebar when you're ready to continue.</p>",,,,,,,,,,
html-keyboard-response,413,742758,0.0-18.0-0.0,60e3b18d3d4205b4c52ada56,650c16f0f2faf8d7a0d14c09,651c1d5fa6015b6a932f0045,null,null,"<p style=""font-size: 60px; font-family: BACS"">rvOvUuZc</p>",,,,,,,,,,
html-keyboard-response,414,743760,0.0-18.0-0.1,60e3b18d3d4205b4c52ada56,650c16f0f2faf8d7a0d14c09,651c1d5fa6015b6a932f0045,null,null,"<p style=""font-size: 60px; font-family: BACS"">GQrcLcO</p>",,,,,,,,,,
html-keyboard-response,415,744763,0.0-18.0-0.2,60e3b18d3d4205b4c52ada56,650c16f0f2faf8d7a0d14c09,651c1d5fa6015b6a932f0045,null,null,"<p style=""font-size: 60px; font-family: BACS"">bROChEct</p>",,,,,,,,,,
html-keyboard-response,416,745766,0.0-18.0-0.3,60e3b18d3d4205b4c52ada56,650c16f0f2faf8d7a0d14c09,651c1d5fa6015b6a932f0045,null,null,"<p style=""font-size: 60px; font-family: BACS"">hTtBbEKBO</p>",,,,,,,,,,
html-keyboard-response,417,746769,0.0-18.0-0.4,60e3b18d3d4205b4c52ada56,650c16f0f2faf8d7a0d14c09,651c1d5fa6015b6a932f0045,null,null,"<p style=""font-size: 60px; font-family: BACS"">mdlaGUOA</p>",,,,,,,,,,
html-keyboard-response,418,747771,0.0-18.0-0.5,60e3b18d3d4205b4c52ada56,650c16f0f2faf8d7a0d14c09,651c1d5fa6015b6a932f0045,null,null,"<p style=""font-size: 60px; font-family: BACS"">GQrcuZc</p>",,,,,,,,,,
html-keyboard-response,419,748774,0.0-18.0-0.6,60e3b18d3d4205b4c52ada56,650c16f0f2faf8d7a0d14c09,651c1d5fa6015b6a932f0045,null,null,"<p style=""font-size: 60px; font-family: BACS"">hTtBbKOYC</p>",,,,,,,,,,
html-keyboard-response,420,749777,0.0-18.0-0.7,60e3b18d3d4205b4c52ada56,650c16f0f2faf8d7a0d14c09,651c1d5fa6015b6a932f0045,null,null,"<p style=""font-size: 60px; font-family: BACS"">RYtkchEct</p>",,,,,,,,,,
html-keyboard-response,421,750780,0.0-18.0-0.8,60e3b18d3d4205b4c52ada56,650c16f0f2faf8d7a0d14c09,651c1d5fa6015b6a932f0045,null,null,"<p style=""font-size: 60px; font-family: BACS"">DcPTcEKBO</p>",,,,,,,,,,
html-keyboard-response,422,751783,0.0-18.0-0.9,60e3b18d3d4205b4c52ada56,650c16f0f2faf8d7a0d14c09,651c1d5fa6015b6a932f0045,null,null,"<p style=""font-size: 60px; font-family: BACS"">kGlUuZc</p>",,,,,,,,,,
html-keyboard-response,423,752786,0.0-18.0-0.10,60e3b18d3d4205b4c52ada56,650c16f0f2faf8d7a0d14c09,651c1d5fa6015b6a932f0045,null,null,"<p style=""font-size: 60px; font-family: BACS"">adYrcLcO</p>",,,,,,,,,,
html-keyboard-response,424,753788,0.0-18.0-0.11,60e3b18d3d4205b4c52ada56,650c16f0f2faf8d7a0d14c09,651c1d5fa6015b6a932f0045,null,null,"<p style=""font-size: 60px; font-family: BACS"">rvOvUZvkL</p>",,,,,,,,,,
html-keyboard-response,425,754791,0.0-18.0-0.12,60e3b18d3d4205b4c52ada56,650c16f0f2faf8d7a0d14c09,651c1d5fa6015b6a932f0045,null,null,"<p style=""font-size: 60px; font-family: BACS"">hChYEKBO</p>",,,,,,,,,,
html-keyboard-response,426,755794,0.0-18.0-0.13,60e3b18d3d4205b4c52ada56,650c16f0f2faf8d7a0d14c09,651c1d5fa6015b6a932f0045,null,null,"<p style=""font-size: 60px; font-family: BACS"">adYrcuZc</p>",,,,,,,,,,
html-keyboard-response,427,756797,0.0-18.0-0.14,60e3b18d3d4205b4c52ada56,650c16f0f2faf8d7a0d14c09,651c1d5fa6015b6a932f0045,null,null,"<p style=""font-size: 60px; font-family: BACS"">OLJblZvkL</p>",,,,,,,,,,
html-keyboard-response,428,757799,0.0-18.0-0.15,60e3b18d3d4205b4c52ada56,650c16f0f2faf8d7a0d14c09,651c1d5fa6015b6a932f0045,null,null,"<p style=""font-size: 60px; font-family: BACS"">PDPhlKlkD</p>",,,,,,,,,,
html-keyboard-response,429,758801,0.0-18.0-0.16,60e3b18d3d4205b4c52ada56,650c16f0f2faf8d7a0d14c09,651c1d5fa6015b6a932f0045,null,null,"<p style=""font-size: 60px; font-family: BACS"">bROCKOYC</p>",,,,,,,,,,
html-keyboard-response,430,759803,0.0-18.0-0.17,60e3b18d3d4205b4c52ada56,650c16f0f2faf8d7a0d14c09,651c1d5fa6015b6a932f0045,null,null,"<p style=""font-size: 60px; font-family: BACS"">YOZNuZc</p>",,,,,,,,,,
html-keyboard-response,431,760806,0.0-18.0-0.18,60e3b18d3d4205b4c52ada56,650c16f0f2faf8d7a0d14c09,651c1d5fa6015b6a932f0045,null,null,"<p style=""font-size: 60px; font-family: BACS"">AMkCAdYl</p>",,,,,,,,,,
html-keyboard-response,432,761809,0.0-18.0-0.19,60e3b18d3d4205b4c52ada56,650c16f0f2faf8d7a0d14c09,651c1d5fa6015b6a932f0045,null,null,"<p style=""font-size: 60px; font-family: BACS"">RYtkcKlkD</p>",,,,,,,,,,
html-keyboard-response,433,762813,0.0-18.0-0.20,60e3b18d3d4205b4c52ada56,650c16f0f2faf8d7a0d14c09,651c1d5fa6015b6a932f0045,null,null,"<p style=""font-size: 60px; font-family: BACS"">kGlUYmb</p>",,,,,,,,,,
html-keyboard-response,434,763816,0.0-18.0-0.21,60e3b18d3d4205b4c52ada56,650c16f0f2faf8d7a0d14c09,651c1d5fa6015b6a932f0045,null,null,"<p style=""font-size: 60px; font-family: BACS"">CRdBdhEct</p>",,,,,,,,,,
html-keyboard-response,435,764820,0.0-18.0-0.22,60e3b18d3d4205b4c52ada56,650c16f0f2faf8d7a0d14c09,651c1d5fa6015b6a932f0045,null,null,"<p style=""font-size: 60px; font-family: BACS"">hChYKlkD</p>",,,,,,,,,,
html-keyboard-response,436,765822,0.0-18.0-0.23,60e3b18d3d4205b4c52ada56,650c16f0f2faf8d7a0d14c09,651c1d5fa6015b6a932f0045,null,null,"<p style=""font-size: 60px; font-family: BACS"">mdlauZc</p>",,,,,,,,,,
html-keyboard-response,437,766826,0.0-18.0-0.24,60e3b18d3d4205b4c52ada56,650c16f0f2faf8d7a0d14c09,651c1d5fa6015b6a932f0045,null,null,"<p style=""font-size: 60px; font-family: BACS"">AMkChEct</p>",,,,,,,,,,
html-keyboard-response,438,767828,0.0-18.0-0.25,60e3b18d3d4205b4c52ada56,650c16f0f2faf8d7a0d14c09,651c1d5fa6015b6a932f0045,null,null,"<p style=""font-size: 60px; font-family: BACS"">RYtkcKOYC</p>",,,,,,,,,,
html-keyboard-response,439,768832,0.0-18.0-0.26,60e3b18d3d4205b4c52ada56,650c16f0f2faf8d7a0d14c09,651c1d5fa6015b6a932f0045,null,null,"<p style=""font-size: 60px; font-family: BACS"">auYAkZvkL</p>",,,,,,,,,,
html-keyboard-response,440,769835,0.0-18.0-0.27,60e3b18d3d4205b4c52ada56,650c16f0f2faf8d7a0d14c09,651c1d5fa6015b6a932f0045,null,null,"<p style=""font-size: 60px; font-family: BACS"">mZUrQLcO</p>",,,,,,,,,,
html-keyboard-response,441,770839,0.0-18.0-0.28,60e3b18d3d4205b4c52ada56,650c16f0f2faf8d7a0d14c09,651c1d5fa6015b6a932f0045,null,null,"<p style=""font-size: 60px; font-family: BACS"">kZUbuZc</p>",,,,,,,,,,
html-keyboard-response,442,771841,0.0-18.0-0.29,60e3b18d3d4205b4c52ada56,650c16f0f2faf8d7a0d14c09,651c1d5fa6015b6a932f0045,null,null,"<p style=""font-size: 60px; font-family: BACS"">adYrcYmb</p>",,,,,,,,,,
html-keyboard-response,443,772845,0.0-18.0-0.30,60e3b18d3d4205b4c52ada56,650c16f0f2faf8d7a0d14c09,651c1d5fa6015b6a932f0045,null,null,"<p style=""font-size: 60px; font-family: BACS"">DcPTcKlkD</p>",,,,,,,,,,
html-keyboard-response,444,773848,0.0-18.0-0.31,60e3b18d3d4205b4c52ada56,650c16f0f2faf8d7a0d14c09,651c1d5fa6015b6a932f0045,null,null,"<p style=""font-size: 60px; font-family: BACS"">YOZNZvkL</p>",,,,,,,,,,
html-keyboard-response,445,774851,0.0-18.0-0.32,60e3b18d3d4205b4c52ada56,650c16f0f2faf8d7a0d14c09,651c1d5fa6015b6a932f0045,null,null,"<p style=""font-size: 60px; font-family: BACS"">bROCEKBO</p>",,,,,,,,,,
html-keyboard-response,446,775854,0.0-18.0-0.33,60e3b18d3d4205b4c52ada56,650c16f0f2faf8d7a0d14c09,651c1d5fa6015b6a932f0045,null,null,"<p style=""font-size: 60px; font-family: BACS"">hlbtbKlkD</p>",,,,,,,,,,
html-keyboard-response,447,776858,0.0-18.0-0.34,60e3b18d3d4205b4c52ada56,650c16f0f2faf8d7a0d14c09,651c1d5fa6015b6a932f0045,null,null,"<p style=""font-size: 60px; font-family: BACS"">GQrcYmb</p>",,,,,,,,,,
html-keyboard-response,448,777860,0.0-18.0-0.35,60e3b18d3d4205b4c52ada56,650c16f0f2faf8d7a0d14c09,651c1d5fa6015b6a932f0045,null,null,"<p style=""font-size: 60px; font-family: BACS"">rvOvULcO</p>",,,,,,,,,,
html-keyboard-response,449,778863,0.0-18.0-0.36,60e3b18d3d4205b4c52ada56,650c16f0f2faf8d7a0d14c09,651c1d5fa6015b6a932f0045,null,null,"<p style=""font-size: 60px; font-family: BACS"">mdlaZvkL</p>",,,,,,,,,,
html-keyboard-response,450,779866,0.0-18.0-0.37,60e3b18d3d4205b4c52ada56,650c16f0f2faf8d7a0d14c09,651c1d5fa6015b6a932f0045,null,null,"<p style=""font-size: 60px; font-family: BACS"">CRdBdKOYC</p>",,,,,,,,,,
html-keyboard-response,451,780870,0.0-18.0-0.38,60e3b18d3d4205b4c52ada56,650c16f0f2faf8d7a0d14c09,651c1d5fa6015b6a932f0045,null,null,"<p style=""font-size: 60px; font-family: BACS"">hlbtbAdYl</p>",,,,,,,,,,
html-keyboard-response,452,781873,0.0-18.0-0.39,60e3b18d3d4205b4c52ada56,650c16f0f2faf8d7a0d14c09,651c1d5fa6015b6a932f0045,null,null,"<p style=""font-size: 60px; font-family: BACS"">AMkCKlkD</p>",,,,,,,,,,
html-keyboard-response,453,782877,0.0-18.0-0.40,60e3b18d3d4205b4c52ada56,650c16f0f2faf8d7a0d14c09,651c1d5fa6015b6a932f0045,null,null,"<p style=""font-size: 60px; font-family: BACS"">hChYhEct</p>",,,,,,,,,,
html-keyboard-response,454,783879,0.0-18.0-0.41,60e3b18d3d4205b4c52ada56,650c16f0f2faf8d7a0d14c09,651c1d5fa6015b6a932f0045,null,null,"<p style=""font-size: 60px; font-family: BACS"">mZUrQZvkL</p>",,,,,,,,,,
html-keyboard-response,455,784882,0.0-18.0-0.42,60e3b18d3d4205b4c52ada56,650c16f0f2faf8d7a0d14c09,651c1d5fa6015b6a932f0045,null,null,"<p style=""font-size: 60px; font-family: BACS"">PDPhlKOYC</p>",,,,,,,,,,
html-keyboard-response,456,785885,0.0-18.0-0.43,60e3b18d3d4205b4c52ada56,650c16f0f2faf8d7a0d14c09,651c1d5fa6015b6a932f0045,null,null,"<p style=""font-size: 60px; font-family: BACS"">OLJblLcO</p>",,,,,,,,,,
html-keyboard-response,457,786888,0.0-18.0-0.44,60e3b18d3d4205b4c52ada56,650c16f0f2faf8d7a0d14c09,651c1d5fa6015b6a932f0045,null,null,"<p style=""font-size: 60px; font-family: BACS"">BEPOKlkD</p>",,,,,,,,,,
html-keyboard-response,458,787891,0.0-18.0-0.45,60e3b18d3d4205b4c52ada56,650c16f0f2faf8d7a0d14c09,651c1d5fa6015b6a932f0045,null,null,"<p style=""font-size: 60px; font-family: BACS"">PDPhlhEct</p>",,,,,,,,,,
html-keyboard-response,459,788894,0.0-18.0-0.46,60e3b18d3d4205b4c52ada56,650c16f0f2faf8d7a0d14c09,651c1d5fa6015b6a932f0045,null,null,"<p style=""font-size: 60px; font-family: BACS"">hlbtbKOYC</p>",,,,,,,,,,
html-keyboard-response,460,789896,0.0-18.0-0.47,60e3b18d3d4205b4c52ada56,650c16f0f2faf8d7a0d14c09,651c1d5fa6015b6a932f0045,null,null,"<p style=""font-size: 60px; font-family: BACS"">rvOvUGUOA</p>",,,,,,,,,,
html-keyboard-response,461,790898,0.0-18.0-0.48,60e3b18d3d4205b4c52ada56,650c16f0f2faf8d7a0d14c09,651c1d5fa6015b6a932f0045,null,null,"<p style=""font-size: 60px; font-family: BACS"">OLJblYmb</p>",,,,,,,,,,
html-keyboard-response,462,791901,0.0-18.0-0.49,60e3b18d3d4205b4c52ada56,650c16f0f2faf8d7a0d14c09,651c1d5fa6015b6a932f0045,null,null,"<p style=""font-size: 60px; font-family: BACS"">adYrcZvkL</p>",,,,,,,,,,
html-keyboard-response,463,792904,0.0-18.0-0.50,60e3b18d3d4205b4c52ada56,650c16f0f2faf8d7a0d14c09,651c1d5fa6015b6a932f0045,null,null,"<p style=""font-size: 60px; font-family: BACS"">kZUbLcO</p>",,,,,,,,,,
html-keyboard-response,464,793908,0.0-18.0-0.51,60e3b18d3d4205b4c52ada56,650c16f0f2faf8d7a0d14c09,651c1d5fa6015b6a932f0045,null,null,"<p style=""font-size: 60px; font-family: BACS"">kGlUGUOA</p>",,,,,,,,,,
html-keyboard-response,465,794910,0.0-18.0-0.52,60e3b18d3d4205b4c52ada56,650c16f0f2faf8d7a0d14c09,651c1d5fa6015b6a932f0045,null,null,"<p style=""font-size: 60px; font-family: BACS"">YOZNYmb</p>",,,,,,,,,,
html-keyboard-response,466,795914,0.0-18.0-0.53,60e3b18d3d4205b4c52ada56,650c16f0f2faf8d7a0d14c09,651c1d5fa6015b6a932f0045,null,null,"<p style=""font-size: 60px; font-family: BACS"">DcPTchEct</p>",,,,,,,,,,
html-keyboard-response,467,796917,0.0-18.0-0.54,60e3b18d3d4205b4c52ada56,650c16f0f2faf8d7a0d14c09,651c1d5fa6015b6a932f0045,null,null,"<p style=""font-size: 60px; font-family: BACS"">kGlULcO</p>",,,,,,,,,,
