"trial_type","trial_index","time_elapsed","internal_node_id","subject_id","study_id","session_id","rt","response","stimulus","success","item","task","correct_response","testing_condition","correct","target","confound","name"
"pavlovia","0","727","0.0-0.0","6127f94d2af664941ae3bf4f","64e77d7b61f440b60e28659d","64ecad8574543506d2c9cff4","","","","","","","","","","","",""
"survey-html-form","1","3713","0.0-1.0","6127f94d2af664941ae3bf4f","64e77d7b61f440b60e28659d","64ecad8574543506d2c9cff4","2985","{""ID"":""6127f94d2af664941ae3bf4f""}","","","","","","","","","",""
"html-keyboard-response","2","85211","0.0-2.0","6127f94d2af664941ae3bf4f","64e77d7b61f440b60e28659d","64ecad8574543506d2c9cff4","81497"," ","<p style=""font-size: 15px;"">Before beginning, we ask that you read the consent information and confirm your agreement to participate in the experiment.</p>
      <p style=""font-size: 15px;""> We ask that you remember that this is a research project and that your participation is entirely voluntary. You can stop your participation at any time, without needing to provide any explanation. The study we're asking you to participate in aims at examining how readers process written words. You will be engaged in a session of apprximately 20 minutes, followed by a brief questionnaire. You will have the opportunity to take a few breaks during the experiment. You will be paid £4 for your participation, corresponding to a rate of £8/hour. While this experiment looks at cognitive faculties, this experiment doesn't constitute clinical proof of eventual pathologies.</p>
      <p style=""font-size: 15px;"">All of the information collected thanks to yours and others' participation will be held in a secure password-protected server, and will not be shared with anyone not authorised to view it. Your personal information will be kept with an arbitrary participant ID. Thanks to this data anonymity process, any researcher analysing the data won't be able to track the information back to a specific participant. Therefore, this process will make identifying you impossibile, even when results from the study will be published in scientific reviews, presented at congresses, or at any other public forum. More generally, the collected data will be treated in accordance with the laws on privacy and conformity to the Legislative Degree n. 196 ""Code regarding the protection of personal data"" of the 30th of June 2003 and to the European Regulation 2016/670 (General Data Protection Regulation - GDPR). The Data Protection Officer is Avv. Valentina Carollo, who can be contacted at the following email addresses: <a href=""mailto:dpo@sissa.it"">dpo@sissa.it</a> or <a href=""mailto:rpd@sissa.it"">rpd@sissa.it</a> - PEC: <a href=""mailto:protocollo@pec.sissa.it"">protocollo@pec.sissa.it</a>.</p>
      <p style=""font-size: 15px;""> Before expressing your consent to participate, we would like to remind you again that in case you need explanations on any aspect of the experimental procedure, the researcher is at your disposition (<a href=""mailto:aliebelt@sissa.it"">aliebelt@sissa.it</a>, <a href=""mailto:davide.crepaldi@sissa.it"">davide.crepaldi@sissa.it</a>).</p>
      <p style=""font-size: 15px;"">If you would like to download the informed consent form, you can do so here: <a href=""BASL-Informed_Consent.pdf"" download>informed consent form</a>.</p>
      <p style=""font-size: 15px;"">We ask that you press the spacebar to proceed to the consent section.</p>","","","","","","","","",""
"survey-html-form","3","102228","0.0-3.0","6127f94d2af664941ae3bf4f","64e77d7b61f440b60e28659d","64ecad8574543506d2c9cff4","17017","{""consent1"":""YES"",""consent2"":""YES"",""consent3"":""YES"",""consent4"":""YES"",""consent5"":""YES"",""consent6"":""YES""}","","","","","","","","","",""
"fullscreen","4","106622","0.0-4.0","6127f94d2af664941ae3bf4f","64e77d7b61f440b60e28659d","64ecad8574543506d2c9cff4","","","","true","","","","","","","",""
"html-keyboard-response","5","129427","0.0-5.0","6127f94d2af664941ae3bf4f","64e77d7b61f440b60e28659d","64ecad8574543506d2c9cff4","22804"," ","<p>Welcome, and thank you very much for your time!</p>
      <p>In this experiment, you'll be a language expert who's been asked to take a look at words that Earth has received in its first communication with aliens. Your task, in this first part of the experiment, is to pay close attention to the words you'll be shown; later, world leaders will ask you questions on what you saw. The words will be shown to you quite quickly; it seems that the aliens were in a hurry :-)</p>
      <p>Press the spacebar to continue.<p>","","","","","","","","",""
"html-keyboard-response","6","134872","0.0-6.0","6127f94d2af664941ae3bf4f","64e77d7b61f440b60e28659d","64ecad8574543506d2c9cff4","5445"," ","<p>Here is an example of the words you'll see:</p>
      <img src='esempio.png' height='400px'>
      <p>When you're ready to begin, press the spacebar.</p></div>","","","","","","","","",""
"html-keyboard-response","7","135873","0.0-7.0-0.0","6127f94d2af664941ae3bf4f","64e77d7b61f440b60e28659d","64ecad8574543506d2c9cff4","null","null","<p style=""font-size: 60px; font-family: BACS"">KRARmtRb</p>","","","","","","","","",""
"html-keyboard-response","8","136873","0.0-7.0-0.1","6127f94d2af664941ae3bf4f","64e77d7b61f440b60e28659d","64ecad8574543506d2c9cff4","null","null","<p style=""font-size: 60px; font-family: BACS"">TdTDkMEC</p>","","","","","","","","",""
"html-keyboard-response","9","137874","0.0-7.0-0.2","6127f94d2af664941ae3bf4f","64e77d7b61f440b60e28659d","64ecad8574543506d2c9cff4","null","null","<p style=""font-size: 60px; font-family: BACS"">dGLAlrAm</p>","","","","","","","","",""
"html-keyboard-response","10","138890","0.0-7.0-0.3","6127f94d2af664941ae3bf4f","64e77d7b61f440b60e28659d","64ecad8574543506d2c9cff4","null","null","<p style=""font-size: 60px; font-family: BACS"">TdTDkKE</p>","","","","","","","","",""
"html-keyboard-response","11","139902","0.0-7.0-0.4","6127f94d2af664941ae3bf4f","64e77d7b61f440b60e28659d","64ecad8574543506d2c9cff4","null","null","<p style=""font-size: 60px; font-family: BACS"">cdKBYkPM</p>","","","","","","","","",""
"html-keyboard-response","12","140905","0.0-7.0-0.5","6127f94d2af664941ae3bf4f","64e77d7b61f440b60e28659d","64ecad8574543506d2c9cff4","null","null","<p style=""font-size: 60px; font-family: BACS"">GabkukbY</p>","","","","","","","","",""
"html-keyboard-response","13","141906","0.0-7.0-0.6","6127f94d2af664941ae3bf4f","64e77d7b61f440b60e28659d","64ecad8574543506d2c9cff4","null","null","<p style=""font-size: 60px; font-family: BACS"">lAOKMCmYA</p>","","","","","","","","",""
"html-keyboard-response","14","142915","0.0-7.0-0.7","6127f94d2af664941ae3bf4f","64e77d7b61f440b60e28659d","64ecad8574543506d2c9cff4","null","null","<p style=""font-size: 60px; font-family: BACS"">KRARmkMEC</p>","","","","","","","","",""
"html-keyboard-response","15","143915","0.0-7.0-0.8","6127f94d2af664941ae3bf4f","64e77d7b61f440b60e28659d","64ecad8574543506d2c9cff4","null","null","<p style=""font-size: 60px; font-family: BACS"">uvaULkNc</p>","","","","","","","","",""
"html-keyboard-response","16","144916","0.0-7.0-0.9","6127f94d2af664941ae3bf4f","64e77d7b61f440b60e28659d","64ecad8574543506d2c9cff4","null","null","<p style=""font-size: 60px; font-family: BACS"">KABAkKE</p>","","","","","","","","",""
"html-keyboard-response","17","145930","0.0-7.0-0.10","6127f94d2af664941ae3bf4f","64e77d7b61f440b60e28659d","64ecad8574543506d2c9cff4","null","null","<p style=""font-size: 60px; font-family: BACS"">OZkbukbY</p>","","","","","","","","",""
"html-keyboard-response","18","146931","0.0-7.0-0.11","6127f94d2af664941ae3bf4f","64e77d7b61f440b60e28659d","64ecad8574543506d2c9cff4","null","null","<p style=""font-size: 60px; font-family: BACS"">JNkaLkNc</p>","","","","","","","","",""
"html-keyboard-response","19","147932","0.0-7.0-0.12","6127f94d2af664941ae3bf4f","64e77d7b61f440b60e28659d","64ecad8574543506d2c9cff4","null","null","<p style=""font-size: 60px; font-family: BACS"">OZkbJud</p>","","","","","","","","",""
"html-keyboard-response","20","148933","0.0-7.0-0.13","6127f94d2af664941ae3bf4f","64e77d7b61f440b60e28659d","64ecad8574543506d2c9cff4","null","null","<p style=""font-size: 60px; font-family: BACS"">QcladLkNc</p>","","","","","","","","",""
"html-keyboard-response","21","149933","0.0-7.0-0.14","6127f94d2af664941ae3bf4f","64e77d7b61f440b60e28659d","64ecad8574543506d2c9cff4","null","null","<p style=""font-size: 60px; font-family: BACS"">lAOKMkPM</p>","","","","","","","","",""
"html-keyboard-response","22","150934","0.0-7.0-0.15","6127f94d2af664941ae3bf4f","64e77d7b61f440b60e28659d","64ecad8574543506d2c9cff4","null","null","<p style=""font-size: 60px; font-family: BACS"">GabkLkNc</p>","","","","","","","","",""
"html-keyboard-response","23","151935","0.0-7.0-0.16","6127f94d2af664941ae3bf4f","64e77d7b61f440b60e28659d","64ecad8574543506d2c9cff4","null","null","<p style=""font-size: 60px; font-family: BACS"">ZkGmYukbY</p>","","","","","","","","",""
"html-keyboard-response","24","152936","0.0-7.0-0.17","6127f94d2af664941ae3bf4f","64e77d7b61f440b60e28659d","64ecad8574543506d2c9cff4","null","null","<p style=""font-size: 60px; font-family: BACS"">OZkbLkNc</p>","","","","","","","","",""
"html-keyboard-response","25","153937","0.0-7.0-0.18","6127f94d2af664941ae3bf4f","64e77d7b61f440b60e28659d","64ecad8574543506d2c9cff4","null","null","<p style=""font-size: 60px; font-family: BACS"">KABAkMEC</p>","","","","","","","","",""
"html-keyboard-response","26","154937","0.0-7.0-0.19","6127f94d2af664941ae3bf4f","64e77d7b61f440b60e28659d","64ecad8574543506d2c9cff4","null","null","<p style=""font-size: 60px; font-family: BACS"">JNkaukbY</p>","","","","","","","","",""
"html-keyboard-response","27","155938","0.0-7.0-0.20","6127f94d2af664941ae3bf4f","64e77d7b61f440b60e28659d","64ecad8574543506d2c9cff4","null","null","<p style=""font-size: 60px; font-family: BACS"">kDRKcCmYA</p>","","","","","","","","",""
"html-keyboard-response","28","156953","0.0-7.0-0.21","6127f94d2af664941ae3bf4f","64e77d7b61f440b60e28659d","64ecad8574543506d2c9cff4","null","null","<p style=""font-size: 60px; font-family: BACS"">amJmukbY</p>","","","","","","","","",""
"html-keyboard-response","29","157954","0.0-7.0-0.22","6127f94d2af664941ae3bf4f","64e77d7b61f440b60e28659d","64ecad8574543506d2c9cff4","null","null","<p style=""font-size: 60px; font-family: BACS"">YObAkMEC</p>","","","","","","","","",""
"html-keyboard-response","30","158955","0.0-7.0-0.23","6127f94d2af664941ae3bf4f","64e77d7b61f440b60e28659d","64ecad8574543506d2c9cff4","null","null","<p style=""font-size: 60px; font-family: BACS"">LvuOGrAm</p>","","","","","","","","",""
"html-keyboard-response","31","159956","0.0-7.0-0.24","6127f94d2af664941ae3bf4f","64e77d7b61f440b60e28659d","64ecad8574543506d2c9cff4","null","null","<p style=""font-size: 60px; font-family: BACS"">KRARmkKE</p>","","","","","","","","",""
"html-keyboard-response","32","160956","0.0-7.0-0.25","6127f94d2af664941ae3bf4f","64e77d7b61f440b60e28659d","64ecad8574543506d2c9cff4","null","null","<p style=""font-size: 60px; font-family: BACS"">JNkaQvlZ</p>","","","","","","","","",""
"html-keyboard-response","33","161957","0.0-7.0-0.26","6127f94d2af664941ae3bf4f","64e77d7b61f440b60e28659d","64ecad8574543506d2c9cff4","null","null","<p style=""font-size: 60px; font-family: BACS"">TdTDkPM</p>","","","","","","","","",""
"html-keyboard-response","34","162969","0.0-7.0-0.27","6127f94d2af664941ae3bf4f","64e77d7b61f440b60e28659d","64ecad8574543506d2c9cff4","null","null","<p style=""font-size: 60px; font-family: BACS"">lAOKMkKE</p>","","","","","","","","",""
"html-keyboard-response","35","163973","0.0-7.0-0.28","6127f94d2af664941ae3bf4f","64e77d7b61f440b60e28659d","64ecad8574543506d2c9cff4","null","null","<p style=""font-size: 60px; font-family: BACS"">LvuOGQvlZ</p>","","","","","","","","",""
"html-keyboard-response","36","164987","0.0-7.0-0.29","6127f94d2af664941ae3bf4f","64e77d7b61f440b60e28659d","64ecad8574543506d2c9cff4","null","null","<p style=""font-size: 60px; font-family: BACS"">OZkbrAm</p>","","","","","","","","",""
"html-keyboard-response","37","165999","0.0-7.0-0.30","6127f94d2af664941ae3bf4f","64e77d7b61f440b60e28659d","64ecad8574543506d2c9cff4","null","null","<p style=""font-size: 60px; font-family: BACS"">mLdkZJud</p>","","","","","","","","",""
"html-keyboard-response","38","167010","0.0-7.0-0.31","6127f94d2af664941ae3bf4f","64e77d7b61f440b60e28659d","64ecad8574543506d2c9cff4","null","null","<p style=""font-size: 60px; font-family: BACS"">KABAkPM</p>","","","","","","","","",""
"html-keyboard-response","39","168012","0.0-7.0-0.32","6127f94d2af664941ae3bf4f","64e77d7b61f440b60e28659d","64ecad8574543506d2c9cff4","null","null","<p style=""font-size: 60px; font-family: BACS"">lAOKMtRb</p>","","","","","","","","",""
"html-keyboard-response","40","169023","0.0-7.0-0.33","6127f94d2af664941ae3bf4f","64e77d7b61f440b60e28659d","64ecad8574543506d2c9cff4","null","null","<p style=""font-size: 60px; font-family: BACS"">uvaUQvlZ</p>","","","","","","","","",""
"html-keyboard-response","41","170037","0.0-7.0-0.34","6127f94d2af664941ae3bf4f","64e77d7b61f440b60e28659d","64ecad8574543506d2c9cff4","null","null","<p style=""font-size: 60px; font-family: BACS"">amJmrAm</p>","","","","","","","","",""
"html-keyboard-response","42","171050","0.0-7.0-0.35","6127f94d2af664941ae3bf4f","64e77d7b61f440b60e28659d","64ecad8574543506d2c9cff4","null","null","<p style=""font-size: 60px; font-family: BACS"">QcladJud</p>","","","","","","","","",""
"html-keyboard-response","43","172051","0.0-7.0-0.36","6127f94d2af664941ae3bf4f","64e77d7b61f440b60e28659d","64ecad8574543506d2c9cff4","null","null","<p style=""font-size: 60px; font-family: BACS"">kDRKckMEC</p>","","","","","","","","",""
"html-keyboard-response","44","173051","0.0-7.0-0.37","6127f94d2af664941ae3bf4f","64e77d7b61f440b60e28659d","64ecad8574543506d2c9cff4","null","null","<p style=""font-size: 60px; font-family: BACS"">uvaUJud</p>","","","","","","","","",""
"html-keyboard-response","45","174066","0.0-7.0-0.38","6127f94d2af664941ae3bf4f","64e77d7b61f440b60e28659d","64ecad8574543506d2c9cff4","null","null","<p style=""font-size: 60px; font-family: BACS"">GabkrAm</p>","","","","","","","","",""
"html-keyboard-response","46","175081","0.0-7.0-0.39","6127f94d2af664941ae3bf4f","64e77d7b61f440b60e28659d","64ecad8574543506d2c9cff4","null","null","<p style=""font-size: 60px; font-family: BACS"">mLdkZQvlZ</p>","","","","","","","","",""
"html-keyboard-response","47","176082","0.0-7.0-0.40","6127f94d2af664941ae3bf4f","64e77d7b61f440b60e28659d","64ecad8574543506d2c9cff4","null","null","<p style=""font-size: 60px; font-family: BACS"">cdKBYtRb</p>","","","","","","","","",""
"html-keyboard-response","48","177096","0.0-7.0-0.41","6127f94d2af664941ae3bf4f","64e77d7b61f440b60e28659d","64ecad8574543506d2c9cff4","null","null","<p style=""font-size: 60px; font-family: BACS"">kDRKckPM</p>","","","","","","","","",""
"html-keyboard-response","49","178109","0.0-7.0-0.42","6127f94d2af664941ae3bf4f","64e77d7b61f440b60e28659d","64ecad8574543506d2c9cff4","null","null","<p style=""font-size: 60px; font-family: BACS"">dGLAlukbY</p>","","","","","","","","",""
"html-keyboard-response","50","179109","0.0-7.0-0.43","6127f94d2af664941ae3bf4f","64e77d7b61f440b60e28659d","64ecad8574543506d2c9cff4","null","null","<p style=""font-size: 60px; font-family: BACS"">kDRKctRb</p>","","","","","","","","",""
"html-keyboard-response","51","180110","0.0-7.0-0.44","6127f94d2af664941ae3bf4f","64e77d7b61f440b60e28659d","64ecad8574543506d2c9cff4","null","null","<p style=""font-size: 60px; font-family: BACS"">YObAkKE</p>","","","","","","","","",""
"html-keyboard-response","52","181125","0.0-7.0-0.45","6127f94d2af664941ae3bf4f","64e77d7b61f440b60e28659d","64ecad8574543506d2c9cff4","null","null","<p style=""font-size: 60px; font-family: BACS"">ZkGmYrAm</p>","","","","","","","","",""
"html-keyboard-response","53","182140","0.0-7.0-0.46","6127f94d2af664941ae3bf4f","64e77d7b61f440b60e28659d","64ecad8574543506d2c9cff4","null","null","<p style=""font-size: 60px; font-family: BACS"">MlthkMEC</p>","","","","","","","","",""
"html-keyboard-response","54","183141","0.0-7.0-0.47","6127f94d2af664941ae3bf4f","64e77d7b61f440b60e28659d","64ecad8574543506d2c9cff4","null","null","<p style=""font-size: 60px; font-family: BACS"">ZkGmYQvlZ</p>","","","","","","","","",""
"html-keyboard-response","55","184141","0.0-7.0-0.48","6127f94d2af664941ae3bf4f","64e77d7b61f440b60e28659d","64ecad8574543506d2c9cff4","null","null","<p style=""font-size: 60px; font-family: BACS"">uvaUukbY</p>","","","","","","","","",""
"html-keyboard-response","56","185141","0.0-7.0-0.49","6127f94d2af664941ae3bf4f","64e77d7b61f440b60e28659d","64ecad8574543506d2c9cff4","null","null","<p style=""font-size: 60px; font-family: BACS"">MlthkKE</p>","","","","","","","","",""
"html-keyboard-response","57","186146","0.0-7.0-0.50","6127f94d2af664941ae3bf4f","64e77d7b61f440b60e28659d","64ecad8574543506d2c9cff4","null","null","<p style=""font-size: 60px; font-family: BACS"">TPCbCmYA</p>","","","","","","","","",""
"html-keyboard-response","58","187147","0.0-7.0-0.51","6127f94d2af664941ae3bf4f","64e77d7b61f440b60e28659d","64ecad8574543506d2c9cff4","null","null","<p style=""font-size: 60px; font-family: BACS"">MlthtRb</p>","","","","","","","","",""
"html-keyboard-response","59","188148","0.0-7.0-0.52","6127f94d2af664941ae3bf4f","64e77d7b61f440b60e28659d","64ecad8574543506d2c9cff4","null","null","<p style=""font-size: 60px; font-family: BACS"">TPCbkPM</p>","","","","","","","","",""
"html-keyboard-response","60","189149","0.0-7.0-0.53","6127f94d2af664941ae3bf4f","64e77d7b61f440b60e28659d","64ecad8574543506d2c9cff4","null","null","<p style=""font-size: 60px; font-family: BACS"">TdTDtRb</p>","","","","","","","","",""
"html-keyboard-response","61","190149","0.0-7.0-0.54","6127f94d2af664941ae3bf4f","64e77d7b61f440b60e28659d","64ecad8574543506d2c9cff4","null","null","<p style=""font-size: 60px; font-family: BACS"">dGLAlQvlZ</p>","","","","","","","","",""
"html-keyboard-response","62","191150","0.0-7.0-0.55","6127f94d2af664941ae3bf4f","64e77d7b61f440b60e28659d","64ecad8574543506d2c9cff4","null","null","<p style=""font-size: 60px; font-family: BACS"">ZkGmYJud</p>","","","","","","","","",""
"html-keyboard-response","63","192162","0.0-7.0-0.56","6127f94d2af664941ae3bf4f","64e77d7b61f440b60e28659d","64ecad8574543506d2c9cff4","null","null","<p style=""font-size: 60px; font-family: BACS"">dGLAlLkNc</p>","","","","","","","","",""
"html-keyboard-response","64","193162","0.0-7.0-0.57","6127f94d2af664941ae3bf4f","64e77d7b61f440b60e28659d","64ecad8574543506d2c9cff4","null","null","<p style=""font-size: 60px; font-family: BACS"">LvuOGJud</p>","","","","","","","","",""
"html-keyboard-response","65","194164","0.0-7.0-0.58","6127f94d2af664941ae3bf4f","64e77d7b61f440b60e28659d","64ecad8574543506d2c9cff4","null","null","<p style=""font-size: 60px; font-family: BACS"">mLdkZukbY</p>","","","","","","","","",""
"html-keyboard-response","66","195165","0.0-7.0-0.59","6127f94d2af664941ae3bf4f","64e77d7b61f440b60e28659d","64ecad8574543506d2c9cff4","null","null","<p style=""font-size: 60px; font-family: BACS"">DmAMEtRb</p>","","","","","","","","",""
"html-keyboard-response","67","196165","0.0-7.0-0.60","6127f94d2af664941ae3bf4f","64e77d7b61f440b60e28659d","64ecad8574543506d2c9cff4","null","null","<p style=""font-size: 60px; font-family: BACS"">KABACmYA</p>","","","","","","","","",""
"html-keyboard-response","68","197168","0.0-7.0-0.61","6127f94d2af664941ae3bf4f","64e77d7b61f440b60e28659d","64ecad8574543506d2c9cff4","null","null","<p style=""font-size: 60px; font-family: BACS"">cdKBYkKE</p>","","","","","","","","",""
"html-keyboard-response","69","198177","0.0-7.0-0.62","6127f94d2af664941ae3bf4f","64e77d7b61f440b60e28659d","64ecad8574543506d2c9cff4","null","null","<p style=""font-size: 60px; font-family: BACS"">TPCbtRb</p>","","","","","","","","",""
"html-keyboard-response","70","199181","0.0-7.0-0.63","6127f94d2af664941ae3bf4f","64e77d7b61f440b60e28659d","64ecad8574543506d2c9cff4","null","null","<p style=""font-size: 60px; font-family: BACS"">LvuOGLkNc</p>","","","","","","","","",""
"html-keyboard-response","71","200182","0.0-7.0-0.64","6127f94d2af664941ae3bf4f","64e77d7b61f440b60e28659d","64ecad8574543506d2c9cff4","null","null","<p style=""font-size: 60px; font-family: BACS"">QcladQvlZ</p>","","","","","","","","",""
"html-keyboard-response","72","201197","0.0-7.0-0.65","6127f94d2af664941ae3bf4f","64e77d7b61f440b60e28659d","64ecad8574543506d2c9cff4","null","null","<p style=""font-size: 60px; font-family: BACS"">YObACmYA</p>","","","","","","","","",""
"html-keyboard-response","73","202198","0.0-7.0-0.66","6127f94d2af664941ae3bf4f","64e77d7b61f440b60e28659d","64ecad8574543506d2c9cff4","null","null","<p style=""font-size: 60px; font-family: BACS"">amJmLkNc</p>","","","","","","","","",""
"html-keyboard-response","74","203198","0.0-7.0-0.67","6127f94d2af664941ae3bf4f","64e77d7b61f440b60e28659d","64ecad8574543506d2c9cff4","null","null","<p style=""font-size: 60px; font-family: BACS"">DmAMEkMEC</p>","","","","","","","","",""
"html-keyboard-response","75","204213","0.0-7.0-0.68","6127f94d2af664941ae3bf4f","64e77d7b61f440b60e28659d","64ecad8574543506d2c9cff4","null","null","<p style=""font-size: 60px; font-family: BACS"">QcladrAm</p>","","","","","","","","",""
"html-keyboard-response","76","205214","0.0-7.0-0.69","6127f94d2af664941ae3bf4f","64e77d7b61f440b60e28659d","64ecad8574543506d2c9cff4","null","null","<p style=""font-size: 60px; font-family: BACS"">DmAMECmYA</p>","","","","","","","","",""
"html-keyboard-response","77","206230","0.0-7.0-0.70","6127f94d2af664941ae3bf4f","64e77d7b61f440b60e28659d","64ecad8574543506d2c9cff4","null","null","<p style=""font-size: 60px; font-family: BACS"">GabkQvlZ</p>","","","","","","","","",""
"html-keyboard-response","78","207233","0.0-7.0-0.71","6127f94d2af664941ae3bf4f","64e77d7b61f440b60e28659d","64ecad8574543506d2c9cff4","null","null","<p style=""font-size: 60px; font-family: BACS"">JNkaJud</p>","","","","","","","","",""
"html-keyboard-response","79","208234","0.0-7.0-0.72","6127f94d2af664941ae3bf4f","64e77d7b61f440b60e28659d","64ecad8574543506d2c9cff4","null","null","<p style=""font-size: 60px; font-family: BACS"">YObAkPM</p>","","","","","","","","",""
"html-keyboard-response","80","209234","0.0-7.0-0.73","6127f94d2af664941ae3bf4f","64e77d7b61f440b60e28659d","64ecad8574543506d2c9cff4","null","null","<p style=""font-size: 60px; font-family: BACS"">KRARmCmYA</p>","","","","","","","","",""
"html-keyboard-response","81","210235","0.0-7.0-0.74","6127f94d2af664941ae3bf4f","64e77d7b61f440b60e28659d","64ecad8574543506d2c9cff4","null","null","<p style=""font-size: 60px; font-family: BACS"">cdKBYkMEC</p>","","","","","","","","",""
"html-keyboard-response","82","211236","0.0-7.0-0.75","6127f94d2af664941ae3bf4f","64e77d7b61f440b60e28659d","64ecad8574543506d2c9cff4","null","null","<p style=""font-size: 60px; font-family: BACS"">MlthCmYA</p>","","","","","","","","",""
"html-keyboard-response","83","212248","0.0-7.0-0.76","6127f94d2af664941ae3bf4f","64e77d7b61f440b60e28659d","64ecad8574543506d2c9cff4","null","null","<p style=""font-size: 60px; font-family: BACS"">mLdkZrAm</p>","","","","","","","","",""
"html-keyboard-response","84","213249","0.0-7.0-0.77","6127f94d2af664941ae3bf4f","64e77d7b61f440b60e28659d","64ecad8574543506d2c9cff4","null","null","<p style=""font-size: 60px; font-family: BACS"">TPCbkKE</p>","","","","","","","","",""
"html-keyboard-response","85","214250","0.0-7.0-0.78","6127f94d2af664941ae3bf4f","64e77d7b61f440b60e28659d","64ecad8574543506d2c9cff4","null","null","<p style=""font-size: 60px; font-family: BACS"">DmAMEkPM</p>","","","","","","","","",""
"html-keyboard-response","86","215257","0.0-7.0-0.79","6127f94d2af664941ae3bf4f","64e77d7b61f440b60e28659d","64ecad8574543506d2c9cff4","null","null","<p style=""font-size: 60px; font-family: BACS"">amJmJud</p>","","","","","","","","",""
"html-keyboard-response","87","295113","0.0-8.0","6127f94d2af664941ae3bf4f","64e77d7b61f440b60e28659d","64ecad8574543506d2c9cff4","79856"," ","<p>Great, you've seen the first block of words. You may now take a short break.</p>
      <p>Press the spacebar when you're ready to continue.</p>","","","","","","","","",""
"html-keyboard-response","88","296116","0.0-9.0-0.0","6127f94d2af664941ae3bf4f","64e77d7b61f440b60e28659d","64ecad8574543506d2c9cff4","null","null","<p style=""font-size: 60px; font-family: BACS"">QcladLkNc</p>","","","","","","","","",""
"html-keyboard-response","89","297127","0.0-9.0-0.1","6127f94d2af664941ae3bf4f","64e77d7b61f440b60e28659d","64ecad8574543506d2c9cff4","null","null","<p style=""font-size: 60px; font-family: BACS"">lAOKMkPM</p>","","","","","","","","",""
"html-keyboard-response","90","298141","0.0-9.0-0.2","6127f94d2af664941ae3bf4f","64e77d7b61f440b60e28659d","64ecad8574543506d2c9cff4","null","null","<p style=""font-size: 60px; font-family: BACS"">dGLAlukbY</p>","","","","","","","","",""
"html-keyboard-response","91","299142","0.0-9.0-0.3","6127f94d2af664941ae3bf4f","64e77d7b61f440b60e28659d","64ecad8574543506d2c9cff4","null","null","<p style=""font-size: 60px; font-family: BACS"">DmAMEkMEC</p>","","","","","","","","",""
"html-keyboard-response","92","300142","0.0-9.0-0.4","6127f94d2af664941ae3bf4f","64e77d7b61f440b60e28659d","64ecad8574543506d2c9cff4","null","null","<p style=""font-size: 60px; font-family: BACS"">dGLAlQvlZ</p>","","","","","","","","",""
"html-keyboard-response","93","301143","0.0-9.0-0.5","6127f94d2af664941ae3bf4f","64e77d7b61f440b60e28659d","64ecad8574543506d2c9cff4","null","null","<p style=""font-size: 60px; font-family: BACS"">TPCbCmYA</p>","","","","","","","","",""
"html-keyboard-response","94","302146","0.0-9.0-0.6","6127f94d2af664941ae3bf4f","64e77d7b61f440b60e28659d","64ecad8574543506d2c9cff4","null","null","<p style=""font-size: 60px; font-family: BACS"">TdTDkPM</p>","","","","","","","","",""
"html-keyboard-response","95","303156","0.0-9.0-0.7","6127f94d2af664941ae3bf4f","64e77d7b61f440b60e28659d","64ecad8574543506d2c9cff4","null","null","<p style=""font-size: 60px; font-family: BACS"">LvuOGrAm</p>","","","","","","","","",""
"html-keyboard-response","96","304157","0.0-9.0-0.8","6127f94d2af664941ae3bf4f","64e77d7b61f440b60e28659d","64ecad8574543506d2c9cff4","null","null","<p style=""font-size: 60px; font-family: BACS"">MlthtRb</p>","","","","","","","","",""
"html-keyboard-response","97","305158","0.0-9.0-0.9","6127f94d2af664941ae3bf4f","64e77d7b61f440b60e28659d","64ecad8574543506d2c9cff4","null","null","<p style=""font-size: 60px; font-family: BACS"">GabkQvlZ</p>","","","","","","","","",""
"html-keyboard-response","98","306159","0.0-9.0-0.10","6127f94d2af664941ae3bf4f","64e77d7b61f440b60e28659d","64ecad8574543506d2c9cff4","null","null","<p style=""font-size: 60px; font-family: BACS"">QcladrAm</p>","","","","","","","","",""
"html-keyboard-response","99","307159","0.0-9.0-0.11","6127f94d2af664941ae3bf4f","64e77d7b61f440b60e28659d","64ecad8574543506d2c9cff4","null","null","<p style=""font-size: 60px; font-family: BACS"">YObAkKE</p>","","","","","","","","",""
"html-keyboard-response","100","308160","0.0-9.0-0.12","6127f94d2af664941ae3bf4f","64e77d7b61f440b60e28659d","64ecad8574543506d2c9cff4","null","null","<p style=""font-size: 60px; font-family: BACS"">ZkGmYrAm</p>","","","","","","","","",""
"html-keyboard-response","101","309161","0.0-9.0-0.13","6127f94d2af664941ae3bf4f","64e77d7b61f440b60e28659d","64ecad8574543506d2c9cff4","null","null","<p style=""font-size: 60px; font-family: BACS"">MlthCmYA</p>","","","","","","","","",""
"html-keyboard-response","102","310162","0.0-9.0-0.14","6127f94d2af664941ae3bf4f","64e77d7b61f440b60e28659d","64ecad8574543506d2c9cff4","null","null","<p style=""font-size: 60px; font-family: BACS"">KABAkKE</p>","","","","","","","","",""
"html-keyboard-response","103","311163","0.0-9.0-0.15","6127f94d2af664941ae3bf4f","64e77d7b61f440b60e28659d","64ecad8574543506d2c9cff4","null","null","<p style=""font-size: 60px; font-family: BACS"">LvuOGLkNc</p>","","","","","","","","",""
"html-keyboard-response","104","312164","0.0-9.0-0.16","6127f94d2af664941ae3bf4f","64e77d7b61f440b60e28659d","64ecad8574543506d2c9cff4","null","null","<p style=""font-size: 60px; font-family: BACS"">QcladQvlZ</p>","","","","","","","","",""
"html-keyboard-response","105","313164","0.0-9.0-0.17","6127f94d2af664941ae3bf4f","64e77d7b61f440b60e28659d","64ecad8574543506d2c9cff4","null","null","<p style=""font-size: 60px; font-family: BACS"">KRARmtRb</p>","","","","","","","","",""
"html-keyboard-response","106","314172","0.0-9.0-0.18","6127f94d2af664941ae3bf4f","64e77d7b61f440b60e28659d","64ecad8574543506d2c9cff4","null","null","<p style=""font-size: 60px; font-family: BACS"">YObACmYA</p>","","","","","","","","",""
"html-keyboard-response","107","315183","0.0-9.0-0.19","6127f94d2af664941ae3bf4f","64e77d7b61f440b60e28659d","64ecad8574543506d2c9cff4","null","null","<p style=""font-size: 60px; font-family: BACS"">OZkbLkNc</p>","","","","","","","","",""
"html-keyboard-response","108","316187","0.0-9.0-0.20","6127f94d2af664941ae3bf4f","64e77d7b61f440b60e28659d","64ecad8574543506d2c9cff4","null","null","<p style=""font-size: 60px; font-family: BACS"">JNkaJud</p>","","","","","","","","",""
"html-keyboard-response","109","317203","0.0-9.0-0.21","6127f94d2af664941ae3bf4f","64e77d7b61f440b60e28659d","64ecad8574543506d2c9cff4","null","null","<p style=""font-size: 60px; font-family: BACS"">uvaUukbY</p>","","","","","","","","",""
"html-keyboard-response","110","318204","0.0-9.0-0.22","6127f94d2af664941ae3bf4f","64e77d7b61f440b60e28659d","64ecad8574543506d2c9cff4","null","null","<p style=""font-size: 60px; font-family: BACS"">MlthkKE</p>","","","","","","","","",""
"html-keyboard-response","111","319206","0.0-9.0-0.23","6127f94d2af664941ae3bf4f","64e77d7b61f440b60e28659d","64ecad8574543506d2c9cff4","null","null","<p style=""font-size: 60px; font-family: BACS"">GabkLkNc</p>","","","","","","","","",""
"html-keyboard-response","112","320206","0.0-9.0-0.24","6127f94d2af664941ae3bf4f","64e77d7b61f440b60e28659d","64ecad8574543506d2c9cff4","null","null","<p style=""font-size: 60px; font-family: BACS"">lAOKMkKE</p>","","","","","","","","",""
"html-keyboard-response","113","321207","0.0-9.0-0.25","6127f94d2af664941ae3bf4f","64e77d7b61f440b60e28659d","64ecad8574543506d2c9cff4","null","null","<p style=""font-size: 60px; font-family: BACS"">TPCbkPM</p>","","","","","","","","",""
"html-keyboard-response","114","322208","0.0-9.0-0.26","6127f94d2af664941ae3bf4f","64e77d7b61f440b60e28659d","64ecad8574543506d2c9cff4","null","null","<p style=""font-size: 60px; font-family: BACS"">amJmJud</p>","","","","","","","","",""
"html-keyboard-response","115","323221","0.0-9.0-0.27","6127f94d2af664941ae3bf4f","64e77d7b61f440b60e28659d","64ecad8574543506d2c9cff4","null","null","<p style=""font-size: 60px; font-family: BACS"">TdTDkKE</p>","","","","","","","","",""
"html-keyboard-response","116","324222","0.0-9.0-0.28","6127f94d2af664941ae3bf4f","64e77d7b61f440b60e28659d","64ecad8574543506d2c9cff4","null","null","<p style=""font-size: 60px; font-family: BACS"">GabkukbY</p>","","","","","","","","",""
"html-keyboard-response","117","325223","0.0-9.0-0.29","6127f94d2af664941ae3bf4f","64e77d7b61f440b60e28659d","64ecad8574543506d2c9cff4","null","null","<p style=""font-size: 60px; font-family: BACS"">KABAkPM</p>","","","","","","","","",""
"html-keyboard-response","118","326237","0.0-9.0-0.30","6127f94d2af664941ae3bf4f","64e77d7b61f440b60e28659d","64ecad8574543506d2c9cff4","null","null","<p style=""font-size: 60px; font-family: BACS"">lAOKMtRb</p>","","","","","","","","",""
"html-keyboard-response","119","327238","0.0-9.0-0.31","6127f94d2af664941ae3bf4f","64e77d7b61f440b60e28659d","64ecad8574543506d2c9cff4","null","null","<p style=""font-size: 60px; font-family: BACS"">kDRKcCmYA</p>","","","","","","","","",""
"html-keyboard-response","120","328248","0.0-9.0-0.32","6127f94d2af664941ae3bf4f","64e77d7b61f440b60e28659d","64ecad8574543506d2c9cff4","null","null","<p style=""font-size: 60px; font-family: BACS"">DmAMEtRb</p>","","","","","","","","",""
"html-keyboard-response","121","329262","0.0-9.0-0.33","6127f94d2af664941ae3bf4f","64e77d7b61f440b60e28659d","64ecad8574543506d2c9cff4","null","null","<p style=""font-size: 60px; font-family: BACS"">OZkbrAm</p>","","","","","","","","",""
"html-keyboard-response","122","330263","0.0-9.0-0.34","6127f94d2af664941ae3bf4f","64e77d7b61f440b60e28659d","64ecad8574543506d2c9cff4","null","null","<p style=""font-size: 60px; font-family: BACS"">dGLAlLkNc</p>","","","","","","","","",""
"html-keyboard-response","123","331274","0.0-9.0-0.35","6127f94d2af664941ae3bf4f","64e77d7b61f440b60e28659d","64ecad8574543506d2c9cff4","null","null","<p style=""font-size: 60px; font-family: BACS"">mLdkZukbY</p>","","","","","","","","",""
"html-keyboard-response","124","332275","0.0-9.0-0.36","6127f94d2af664941ae3bf4f","64e77d7b61f440b60e28659d","64ecad8574543506d2c9cff4","null","null","<p style=""font-size: 60px; font-family: BACS"">YObAkPM</p>","","","","","","","","",""
"html-keyboard-response","125","333276","0.0-9.0-0.37","6127f94d2af664941ae3bf4f","64e77d7b61f440b60e28659d","64ecad8574543506d2c9cff4","null","null","<p style=""font-size: 60px; font-family: BACS"">KABACmYA</p>","","","","","","","","",""
"html-keyboard-response","126","334277","0.0-9.0-0.38","6127f94d2af664941ae3bf4f","64e77d7b61f440b60e28659d","64ecad8574543506d2c9cff4","null","null","<p style=""font-size: 60px; font-family: BACS"">QcladJud</p>","","","","","","","","",""
"html-keyboard-response","127","335278","0.0-9.0-0.39","6127f94d2af664941ae3bf4f","64e77d7b61f440b60e28659d","64ecad8574543506d2c9cff4","null","null","<p style=""font-size: 60px; font-family: BACS"">JNkaQvlZ</p>","","","","","","","","",""
"html-keyboard-response","128","336278","0.0-9.0-0.40","6127f94d2af664941ae3bf4f","64e77d7b61f440b60e28659d","64ecad8574543506d2c9cff4","null","null","<p style=""font-size: 60px; font-family: BACS"">TdTDtRb</p>","","","","","","","","",""
"html-keyboard-response","129","337290","0.0-9.0-0.41","6127f94d2af664941ae3bf4f","64e77d7b61f440b60e28659d","64ecad8574543506d2c9cff4","null","null","<p style=""font-size: 60px; font-family: BACS"">uvaULkNc</p>","","","","","","","","",""
"html-keyboard-response","130","338291","0.0-9.0-0.42","6127f94d2af664941ae3bf4f","64e77d7b61f440b60e28659d","64ecad8574543506d2c9cff4","null","null","<p style=""font-size: 60px; font-family: BACS"">ZkGmYJud</p>","","","","","","","","",""
"html-keyboard-response","131","339292","0.0-9.0-0.43","6127f94d2af664941ae3bf4f","64e77d7b61f440b60e28659d","64ecad8574543506d2c9cff4","null","null","<p style=""font-size: 60px; font-family: BACS"">GabkrAm</p>","","","","","","","","",""
"html-keyboard-response","132","340293","0.0-9.0-0.44","6127f94d2af664941ae3bf4f","64e77d7b61f440b60e28659d","64ecad8574543506d2c9cff4","null","null","<p style=""font-size: 60px; font-family: BACS"">kDRKckPM</p>","","","","","","","","",""
"html-keyboard-response","133","341294","0.0-9.0-0.45","6127f94d2af664941ae3bf4f","64e77d7b61f440b60e28659d","64ecad8574543506d2c9cff4","null","null","<p style=""font-size: 60px; font-family: BACS"">amJmLkNc</p>","","","","","","","","",""
"html-keyboard-response","134","342294","0.0-9.0-0.46","6127f94d2af664941ae3bf4f","64e77d7b61f440b60e28659d","64ecad8574543506d2c9cff4","null","null","<p style=""font-size: 60px; font-family: BACS"">TdTDkMEC</p>","","","","","","","","",""
"html-keyboard-response","135","343301","0.0-9.0-0.47","6127f94d2af664941ae3bf4f","64e77d7b61f440b60e28659d","64ecad8574543506d2c9cff4","null","null","<p style=""font-size: 60px; font-family: BACS"">cdKBYtRb</p>","","","","","","","","",""
"html-keyboard-response","136","344301","0.0-9.0-0.48","6127f94d2af664941ae3bf4f","64e77d7b61f440b60e28659d","64ecad8574543506d2c9cff4","null","null","<p style=""font-size: 60px; font-family: BACS"">ZkGmYukbY</p>","","","","","","","","",""
"html-keyboard-response","137","345302","0.0-9.0-0.49","6127f94d2af664941ae3bf4f","64e77d7b61f440b60e28659d","64ecad8574543506d2c9cff4","null","null","<p style=""font-size: 60px; font-family: BACS"">KABAkMEC</p>","","","","","","","","",""
"html-keyboard-response","138","346313","0.0-9.0-0.50","6127f94d2af664941ae3bf4f","64e77d7b61f440b60e28659d","64ecad8574543506d2c9cff4","null","null","<p style=""font-size: 60px; font-family: BACS"">kDRKctRb</p>","","","","","","","","",""
"html-keyboard-response","139","347329","0.0-9.0-0.51","6127f94d2af664941ae3bf4f","64e77d7b61f440b60e28659d","64ecad8574543506d2c9cff4","null","null","<p style=""font-size: 60px; font-family: BACS"">amJmrAm</p>","","","","","","","","",""
"html-keyboard-response","140","348342","0.0-9.0-0.52","6127f94d2af664941ae3bf4f","64e77d7b61f440b60e28659d","64ecad8574543506d2c9cff4","null","null","<p style=""font-size: 60px; font-family: BACS"">JNkaLkNc</p>","","","","","","","","",""
"html-keyboard-response","141","349343","0.0-9.0-0.53","6127f94d2af664941ae3bf4f","64e77d7b61f440b60e28659d","64ecad8574543506d2c9cff4","null","null","<p style=""font-size: 60px; font-family: BACS"">YObAkMEC</p>","","","","","","","","",""
"html-keyboard-response","142","350344","0.0-9.0-0.54","6127f94d2af664941ae3bf4f","64e77d7b61f440b60e28659d","64ecad8574543506d2c9cff4","null","null","<p style=""font-size: 60px; font-family: BACS"">mLdkZJud</p>","","","","","","","","",""
"html-keyboard-response","143","351344","0.0-9.0-0.55","6127f94d2af664941ae3bf4f","64e77d7b61f440b60e28659d","64ecad8574543506d2c9cff4","null","null","<p style=""font-size: 60px; font-family: BACS"">DmAMEkPM</p>","","","","","","","","",""
"html-keyboard-response","144","352348","0.0-9.0-0.56","6127f94d2af664941ae3bf4f","64e77d7b61f440b60e28659d","64ecad8574543506d2c9cff4","null","null","<p style=""font-size: 60px; font-family: BACS"">TPCbkKE</p>","","","","","","","","",""
"html-keyboard-response","145","353362","0.0-9.0-0.57","6127f94d2af664941ae3bf4f","64e77d7b61f440b60e28659d","64ecad8574543506d2c9cff4","null","null","<p style=""font-size: 60px; font-family: BACS"">OZkbJud</p>","","","","","","","","",""
"html-keyboard-response","146","354376","0.0-9.0-0.58","6127f94d2af664941ae3bf4f","64e77d7b61f440b60e28659d","64ecad8574543506d2c9cff4","null","null","<p style=""font-size: 60px; font-family: BACS"">ZkGmYQvlZ</p>","","","","","","","","",""
"html-keyboard-response","147","355377","0.0-9.0-0.59","6127f94d2af664941ae3bf4f","64e77d7b61f440b60e28659d","64ecad8574543506d2c9cff4","null","null","<p style=""font-size: 60px; font-family: BACS"">JNkaukbY</p>","","","","","","","","",""
"html-keyboard-response","148","356379","0.0-9.0-0.60","6127f94d2af664941ae3bf4f","64e77d7b61f440b60e28659d","64ecad8574543506d2c9cff4","null","null","<p style=""font-size: 60px; font-family: BACS"">mLdkZQvlZ</p>","","","","","","","","",""
"html-keyboard-response","149","357380","0.0-9.0-0.61","6127f94d2af664941ae3bf4f","64e77d7b61f440b60e28659d","64ecad8574543506d2c9cff4","null","null","<p style=""font-size: 60px; font-family: BACS"">cdKBYkPM</p>","","","","","","","","",""
"html-keyboard-response","150","358380","0.0-9.0-0.62","6127f94d2af664941ae3bf4f","64e77d7b61f440b60e28659d","64ecad8574543506d2c9cff4","null","null","<p style=""font-size: 60px; font-family: BACS"">MlthkMEC</p>","","","","","","","","",""
"html-keyboard-response","151","359381","0.0-9.0-0.63","6127f94d2af664941ae3bf4f","64e77d7b61f440b60e28659d","64ecad8574543506d2c9cff4","null","null","<p style=""font-size: 60px; font-family: BACS"">mLdkZrAm</p>","","","","","","","","",""
"html-keyboard-response","152","360383","0.0-9.0-0.64","6127f94d2af664941ae3bf4f","64e77d7b61f440b60e28659d","64ecad8574543506d2c9cff4","null","null","<p style=""font-size: 60px; font-family: BACS"">amJmukbY</p>","","","","","","","","",""
"html-keyboard-response","153","361383","0.0-9.0-0.65","6127f94d2af664941ae3bf4f","64e77d7b61f440b60e28659d","64ecad8574543506d2c9cff4","null","null","<p style=""font-size: 60px; font-family: BACS"">KRARmkKE</p>","","","","","","","","",""
"html-keyboard-response","154","362384","0.0-9.0-0.66","6127f94d2af664941ae3bf4f","64e77d7b61f440b60e28659d","64ecad8574543506d2c9cff4","null","null","<p style=""font-size: 60px; font-family: BACS"">kDRKckMEC</p>","","","","","","","","",""
"html-keyboard-response","155","363385","0.0-9.0-0.67","6127f94d2af664941ae3bf4f","64e77d7b61f440b60e28659d","64ecad8574543506d2c9cff4","null","null","<p style=""font-size: 60px; font-family: BACS"">LvuOGQvlZ</p>","","","","","","","","",""
"html-keyboard-response","156","364386","0.0-9.0-0.68","6127f94d2af664941ae3bf4f","64e77d7b61f440b60e28659d","64ecad8574543506d2c9cff4","null","null","<p style=""font-size: 60px; font-family: BACS"">dGLAlrAm</p>","","","","","","","","",""
"html-keyboard-response","157","365387","0.0-9.0-0.69","6127f94d2af664941ae3bf4f","64e77d7b61f440b60e28659d","64ecad8574543506d2c9cff4","null","null","<p style=""font-size: 60px; font-family: BACS"">KRARmCmYA</p>","","","","","","","","",""
"html-keyboard-response","158","366387","0.0-9.0-0.70","6127f94d2af664941ae3bf4f","64e77d7b61f440b60e28659d","64ecad8574543506d2c9cff4","null","null","<p style=""font-size: 60px; font-family: BACS"">uvaUQvlZ</p>","","","","","","","","",""
"html-keyboard-response","159","367398","0.0-9.0-0.71","6127f94d2af664941ae3bf4f","64e77d7b61f440b60e28659d","64ecad8574543506d2c9cff4","null","null","<p style=""font-size: 60px; font-family: BACS"">TPCbtRb</p>","","","","","","","","",""
"html-keyboard-response","160","368414","0.0-9.0-0.72","6127f94d2af664941ae3bf4f","64e77d7b61f440b60e28659d","64ecad8574543506d2c9cff4","null","null","<p style=""font-size: 60px; font-family: BACS"">LvuOGJud</p>","","","","","","","","",""
"html-keyboard-response","161","369415","0.0-9.0-0.73","6127f94d2af664941ae3bf4f","64e77d7b61f440b60e28659d","64ecad8574543506d2c9cff4","null","null","<p style=""font-size: 60px; font-family: BACS"">cdKBYkKE</p>","","","","","","","","",""
"html-keyboard-response","162","370416","0.0-9.0-0.74","6127f94d2af664941ae3bf4f","64e77d7b61f440b60e28659d","64ecad8574543506d2c9cff4","null","null","<p style=""font-size: 60px; font-family: BACS"">uvaUJud</p>","","","","","","","","",""
"html-keyboard-response","163","371417","0.0-9.0-0.75","6127f94d2af664941ae3bf4f","64e77d7b61f440b60e28659d","64ecad8574543506d2c9cff4","null","null","<p style=""font-size: 60px; font-family: BACS"">DmAMECmYA</p>","","","","","","","","",""
"html-keyboard-response","164","372417","0.0-9.0-0.76","6127f94d2af664941ae3bf4f","64e77d7b61f440b60e28659d","64ecad8574543506d2c9cff4","null","null","<p style=""font-size: 60px; font-family: BACS"">OZkbukbY</p>","","","","","","","","",""
"html-keyboard-response","165","373418","0.0-9.0-0.77","6127f94d2af664941ae3bf4f","64e77d7b61f440b60e28659d","64ecad8574543506d2c9cff4","null","null","<p style=""font-size: 60px; font-family: BACS"">KRARmkMEC</p>","","","","","","","","",""
"html-keyboard-response","166","374419","0.0-9.0-0.78","6127f94d2af664941ae3bf4f","64e77d7b61f440b60e28659d","64ecad8574543506d2c9cff4","null","null","<p style=""font-size: 60px; font-family: BACS"">lAOKMCmYA</p>","","","","","","","","",""
"html-keyboard-response","167","375420","0.0-9.0-0.79","6127f94d2af664941ae3bf4f","64e77d7b61f440b60e28659d","64ecad8574543506d2c9cff4","null","null","<p style=""font-size: 60px; font-family: BACS"">cdKBYkMEC</p>","","","","","","","","",""
"html-keyboard-response","168","432892","0.0-10.0","6127f94d2af664941ae3bf4f","64e77d7b61f440b60e28659d","64ecad8574543506d2c9cff4","57471"," ","<p>Great, you've seen the second block of words. You may now take a short break.</p>
      <p>Press the spacebar when you're ready to continue.</p>","","","","","","","","",""
"html-keyboard-response","169","433905","0.0-11.0-0.0","6127f94d2af664941ae3bf4f","64e77d7b61f440b60e28659d","64ecad8574543506d2c9cff4","null","null","<p style=""font-size: 60px; font-family: BACS"">KABAkKE</p>","","","","","","","","",""
"html-keyboard-response","170","434906","0.0-11.0-0.1","6127f94d2af664941ae3bf4f","64e77d7b61f440b60e28659d","64ecad8574543506d2c9cff4","null","null","<p style=""font-size: 60px; font-family: BACS"">cdKBYkMEC</p>","","","","","","","","",""
"html-keyboard-response","171","435907","0.0-11.0-0.2","6127f94d2af664941ae3bf4f","64e77d7b61f440b60e28659d","64ecad8574543506d2c9cff4","null","null","<p style=""font-size: 60px; font-family: BACS"">amJmLkNc</p>","","","","","","","","",""
"html-keyboard-response","172","436907","0.0-11.0-0.3","6127f94d2af664941ae3bf4f","64e77d7b61f440b60e28659d","64ecad8574543506d2c9cff4","null","null","<p style=""font-size: 60px; font-family: BACS"">lAOKMkKE</p>","","","","","","","","",""
"html-keyboard-response","173","437908","0.0-11.0-0.4","6127f94d2af664941ae3bf4f","64e77d7b61f440b60e28659d","64ecad8574543506d2c9cff4","null","null","<p style=""font-size: 60px; font-family: BACS"">MlthCmYA</p>","","","","","","","","",""
"html-keyboard-response","174","438908","0.0-11.0-0.5","6127f94d2af664941ae3bf4f","64e77d7b61f440b60e28659d","64ecad8574543506d2c9cff4","null","null","<p style=""font-size: 60px; font-family: BACS"">dGLAlukbY</p>","","","","","","","","",""
"html-keyboard-response","175","439909","0.0-11.0-0.6","6127f94d2af664941ae3bf4f","64e77d7b61f440b60e28659d","64ecad8574543506d2c9cff4","null","null","<p style=""font-size: 60px; font-family: BACS"">ZkGmYQvlZ</p>","","","","","","","","",""
"html-keyboard-response","176","440914","0.0-11.0-0.7","6127f94d2af664941ae3bf4f","64e77d7b61f440b60e28659d","64ecad8574543506d2c9cff4","null","null","<p style=""font-size: 60px; font-family: BACS"">YObAkMEC</p>","","","","","","","","",""
"html-keyboard-response","177","441928","0.0-11.0-0.8","6127f94d2af664941ae3bf4f","64e77d7b61f440b60e28659d","64ecad8574543506d2c9cff4","null","null","<p style=""font-size: 60px; font-family: BACS"">GabkQvlZ</p>","","","","","","","","",""
"html-keyboard-response","178","442942","0.0-11.0-0.9","6127f94d2af664941ae3bf4f","64e77d7b61f440b60e28659d","64ecad8574543506d2c9cff4","null","null","<p style=""font-size: 60px; font-family: BACS"">cdKBYkKE</p>","","","","","","","","",""
"html-keyboard-response","179","443943","0.0-11.0-0.10","6127f94d2af664941ae3bf4f","64e77d7b61f440b60e28659d","64ecad8574543506d2c9cff4","null","null","<p style=""font-size: 60px; font-family: BACS"">ZkGmYJud</p>","","","","","","","","",""
"html-keyboard-response","180","444956","0.0-11.0-0.11","6127f94d2af664941ae3bf4f","64e77d7b61f440b60e28659d","64ecad8574543506d2c9cff4","null","null","<p style=""font-size: 60px; font-family: BACS"">YObAkPM</p>","","","","","","","","",""
"html-keyboard-response","181","445956","0.0-11.0-0.12","6127f94d2af664941ae3bf4f","64e77d7b61f440b60e28659d","64ecad8574543506d2c9cff4","null","null","<p style=""font-size: 60px; font-family: BACS"">GabkukbY</p>","","","","","","","","",""
"html-keyboard-response","182","446965","0.0-11.0-0.13","6127f94d2af664941ae3bf4f","64e77d7b61f440b60e28659d","64ecad8574543506d2c9cff4","null","null","<p style=""font-size: 60px; font-family: BACS"">LvuOGLkNc</p>","","","","","","","","",""
"html-keyboard-response","183","447980","0.0-11.0-0.14","6127f94d2af664941ae3bf4f","64e77d7b61f440b60e28659d","64ecad8574543506d2c9cff4","null","null","<p style=""font-size: 60px; font-family: BACS"">dGLAlrAm</p>","","","","","","","","",""
"html-keyboard-response","184","448993","0.0-11.0-0.15","6127f94d2af664941ae3bf4f","64e77d7b61f440b60e28659d","64ecad8574543506d2c9cff4","null","null","<p style=""font-size: 60px; font-family: BACS"">DmAMECmYA</p>","","","","","","","","",""
"html-keyboard-response","185","450009","0.0-11.0-0.16","6127f94d2af664941ae3bf4f","64e77d7b61f440b60e28659d","64ecad8574543506d2c9cff4","null","null","<p style=""font-size: 60px; font-family: BACS"">LvuOGJud</p>","","","","","","","","",""
"html-keyboard-response","186","451022","0.0-11.0-0.17","6127f94d2af664941ae3bf4f","64e77d7b61f440b60e28659d","64ecad8574543506d2c9cff4","null","null","<p style=""font-size: 60px; font-family: BACS"">TdTDkKE</p>","","","","","","","","",""
"html-keyboard-response","187","452037","0.0-11.0-0.18","6127f94d2af664941ae3bf4f","64e77d7b61f440b60e28659d","64ecad8574543506d2c9cff4","null","null","<p style=""font-size: 60px; font-family: BACS"">kDRKctRb</p>","","","","","","","","",""
"html-keyboard-response","188","453050","0.0-11.0-0.19","6127f94d2af664941ae3bf4f","64e77d7b61f440b60e28659d","64ecad8574543506d2c9cff4","null","null","<p style=""font-size: 60px; font-family: BACS"">dGLAlQvlZ</p>","","","","","","","","",""
"html-keyboard-response","189","454052","0.0-11.0-0.20","6127f94d2af664941ae3bf4f","64e77d7b61f440b60e28659d","64ecad8574543506d2c9cff4","null","null","<p style=""font-size: 60px; font-family: BACS"">TdTDkMEC</p>","","","","","","","","",""
"html-keyboard-response","190","455055","0.0-11.0-0.21","6127f94d2af664941ae3bf4f","64e77d7b61f440b60e28659d","64ecad8574543506d2c9cff4","null","null","<p style=""font-size: 60px; font-family: BACS"">JNkaukbY</p>","","","","","","","","",""
"html-keyboard-response","191","456060","0.0-11.0-0.22","6127f94d2af664941ae3bf4f","64e77d7b61f440b60e28659d","64ecad8574543506d2c9cff4","null","null","<p style=""font-size: 60px; font-family: BACS"">TPCbtRb</p>","","","","","","","","",""
"html-keyboard-response","192","457061","0.0-11.0-0.23","6127f94d2af664941ae3bf4f","64e77d7b61f440b60e28659d","64ecad8574543506d2c9cff4","null","null","<p style=""font-size: 60px; font-family: BACS"">kDRKcCmYA</p>","","","","","","","","",""
"html-keyboard-response","193","458076","0.0-11.0-0.24","6127f94d2af664941ae3bf4f","64e77d7b61f440b60e28659d","64ecad8574543506d2c9cff4","null","null","<p style=""font-size: 60px; font-family: BACS"">ZkGmYrAm</p>","","","","","","","","",""
"html-keyboard-response","194","459077","0.0-11.0-0.25","6127f94d2af664941ae3bf4f","64e77d7b61f440b60e28659d","64ecad8574543506d2c9cff4","null","null","<p style=""font-size: 60px; font-family: BACS"">OZkbLkNc</p>","","","","","","","","",""
"html-keyboard-response","195","460081","0.0-11.0-0.26","6127f94d2af664941ae3bf4f","64e77d7b61f440b60e28659d","64ecad8574543506d2c9cff4","null","null","<p style=""font-size: 60px; font-family: BACS"">KRARmCmYA</p>","","","","","","","","",""
"html-keyboard-response","196","461087","0.0-11.0-0.27","6127f94d2af664941ae3bf4f","64e77d7b61f440b60e28659d","64ecad8574543506d2c9cff4","null","null","<p style=""font-size: 60px; font-family: BACS"">dGLAlLkNc</p>","","","","","","","","",""
"html-keyboard-response","197","462093","0.0-11.0-0.28","6127f94d2af664941ae3bf4f","64e77d7b61f440b60e28659d","64ecad8574543506d2c9cff4","null","null","<p style=""font-size: 60px; font-family: BACS"">MlthkMEC</p>","","","","","","","","",""
"html-keyboard-response","198","463107","0.0-11.0-0.29","6127f94d2af664941ae3bf4f","64e77d7b61f440b60e28659d","64ecad8574543506d2c9cff4","null","null","<p style=""font-size: 60px; font-family: BACS"">amJmJud</p>","","","","","","","","",""
"html-keyboard-response","199","464119","0.0-11.0-0.30","6127f94d2af664941ae3bf4f","64e77d7b61f440b60e28659d","64ecad8574543506d2c9cff4","null","null","<p style=""font-size: 60px; font-family: BACS"">YObACmYA</p>","","","","","","","","",""
"html-keyboard-response","200","465132","0.0-11.0-0.31","6127f94d2af664941ae3bf4f","64e77d7b61f440b60e28659d","64ecad8574543506d2c9cff4","null","null","<p style=""font-size: 60px; font-family: BACS"">TPCbkPM</p>","","","","","","","","",""
"html-keyboard-response","201","466133","0.0-11.0-0.32","6127f94d2af664941ae3bf4f","64e77d7b61f440b60e28659d","64ecad8574543506d2c9cff4","null","null","<p style=""font-size: 60px; font-family: BACS"">cdKBYtRb</p>","","","","","","","","",""
"html-keyboard-response","202","467141","0.0-11.0-0.33","6127f94d2af664941ae3bf4f","64e77d7b61f440b60e28659d","64ecad8574543506d2c9cff4","null","null","<p style=""font-size: 60px; font-family: BACS"">YObAkKE</p>","","","","","","","","",""
"html-keyboard-response","203","468142","0.0-11.0-0.34","6127f94d2af664941ae3bf4f","64e77d7b61f440b60e28659d","64ecad8574543506d2c9cff4","null","null","<p style=""font-size: 60px; font-family: BACS"">JNkaLkNc</p>","","","","","","","","",""
"html-keyboard-response","204","469145","0.0-11.0-0.35","6127f94d2af664941ae3bf4f","64e77d7b61f440b60e28659d","64ecad8574543506d2c9cff4","null","null","<p style=""font-size: 60px; font-family: BACS"">uvaUukbY</p>","","","","","","","","",""
"html-keyboard-response","205","470159","0.0-11.0-0.36","6127f94d2af664941ae3bf4f","64e77d7b61f440b60e28659d","64ecad8574543506d2c9cff4","null","null","<p style=""font-size: 60px; font-family: BACS"">MlthtRb</p>","","","","","","","","",""
"html-keyboard-response","206","471172","0.0-11.0-0.37","6127f94d2af664941ae3bf4f","64e77d7b61f440b60e28659d","64ecad8574543506d2c9cff4","null","null","<p style=""font-size: 60px; font-family: BACS"">OZkbukbY</p>","","","","","","","","",""
"html-keyboard-response","207","472185","0.0-11.0-0.38","6127f94d2af664941ae3bf4f","64e77d7b61f440b60e28659d","64ecad8574543506d2c9cff4","null","null","<p style=""font-size: 60px; font-family: BACS"">TPCbCmYA</p>","","","","","","","","",""
"html-keyboard-response","208","473201","0.0-11.0-0.39","6127f94d2af664941ae3bf4f","64e77d7b61f440b60e28659d","64ecad8574543506d2c9cff4","null","null","<p style=""font-size: 60px; font-family: BACS"">KABAkPM</p>","","","","","","","","",""
"html-keyboard-response","209","474214","0.0-11.0-0.40","6127f94d2af664941ae3bf4f","64e77d7b61f440b60e28659d","64ecad8574543506d2c9cff4","null","null","<p style=""font-size: 60px; font-family: BACS"">KRARmkMEC</p>","","","","","","","","",""
"html-keyboard-response","210","475230","0.0-11.0-0.41","6127f94d2af664941ae3bf4f","64e77d7b61f440b60e28659d","64ecad8574543506d2c9cff4","null","null","<p style=""font-size: 60px; font-family: BACS"">QcladLkNc</p>","","","","","","","","",""
"html-keyboard-response","211","476231","0.0-11.0-0.42","6127f94d2af664941ae3bf4f","64e77d7b61f440b60e28659d","64ecad8574543506d2c9cff4","null","null","<p style=""font-size: 60px; font-family: BACS"">lAOKMtRb</p>","","","","","","","","",""
"html-keyboard-response","212","477239","0.0-11.0-0.43","6127f94d2af664941ae3bf4f","64e77d7b61f440b60e28659d","64ecad8574543506d2c9cff4","null","null","<p style=""font-size: 60px; font-family: BACS"">GabkrAm</p>","","","","","","","","",""
"html-keyboard-response","213","478240","0.0-11.0-0.44","6127f94d2af664941ae3bf4f","64e77d7b61f440b60e28659d","64ecad8574543506d2c9cff4","null","null","<p style=""font-size: 60px; font-family: BACS"">uvaUJud</p>","","","","","","","","",""
"html-keyboard-response","214","479253","0.0-11.0-0.45","6127f94d2af664941ae3bf4f","64e77d7b61f440b60e28659d","64ecad8574543506d2c9cff4","null","null","<p style=""font-size: 60px; font-family: BACS"">TdTDtRb</p>","","","","","","","","",""
"html-keyboard-response","215","480263","0.0-11.0-0.46","6127f94d2af664941ae3bf4f","64e77d7b61f440b60e28659d","64ecad8574543506d2c9cff4","null","null","<p style=""font-size: 60px; font-family: BACS"">DmAMEkPM</p>","","","","","","","","",""
"html-keyboard-response","216","481264","0.0-11.0-0.47","6127f94d2af664941ae3bf4f","64e77d7b61f440b60e28659d","64ecad8574543506d2c9cff4","null","null","<p style=""font-size: 60px; font-family: BACS"">mLdkZukbY</p>","","","","","","","","",""
"html-keyboard-response","217","482265","0.0-11.0-0.48","6127f94d2af664941ae3bf4f","64e77d7b61f440b60e28659d","64ecad8574543506d2c9cff4","null","null","<p style=""font-size: 60px; font-family: BACS"">QcladQvlZ</p>","","","","","","","","",""
"html-keyboard-response","218","483266","0.0-11.0-0.49","6127f94d2af664941ae3bf4f","64e77d7b61f440b60e28659d","64ecad8574543506d2c9cff4","null","null","<p style=""font-size: 60px; font-family: BACS"">ZkGmYukbY</p>","","","","","","","","",""
"html-keyboard-response","219","484267","0.0-11.0-0.50","6127f94d2af664941ae3bf4f","64e77d7b61f440b60e28659d","64ecad8574543506d2c9cff4","null","null","<p style=""font-size: 60px; font-family: BACS"">GabkLkNc</p>","","","","","","","","",""
"html-keyboard-response","220","485268","0.0-11.0-0.51","6127f94d2af664941ae3bf4f","64e77d7b61f440b60e28659d","64ecad8574543506d2c9cff4","null","null","<p style=""font-size: 60px; font-family: BACS"">KRARmkKE</p>","","","","","","","","",""
"html-keyboard-response","221","486268","0.0-11.0-0.52","6127f94d2af664941ae3bf4f","64e77d7b61f440b60e28659d","64ecad8574543506d2c9cff4","null","null","<p style=""font-size: 60px; font-family: BACS"">QcladrAm</p>","","","","","","","","",""
"html-keyboard-response","222","487269","0.0-11.0-0.53","6127f94d2af664941ae3bf4f","64e77d7b61f440b60e28659d","64ecad8574543506d2c9cff4","null","null","<p style=""font-size: 60px; font-family: BACS"">JNkaQvlZ</p>","","","","","","","","",""
"html-keyboard-response","223","488270","0.0-11.0-0.54","6127f94d2af664941ae3bf4f","64e77d7b61f440b60e28659d","64ecad8574543506d2c9cff4","null","null","<p style=""font-size: 60px; font-family: BACS"">TPCbkKE</p>","","","","","","","","",""
"html-keyboard-response","224","489275","0.0-11.0-0.55","6127f94d2af664941ae3bf4f","64e77d7b61f440b60e28659d","64ecad8574543506d2c9cff4","null","null","<p style=""font-size: 60px; font-family: BACS"">lAOKMkPM</p>","","","","","","","","",""
"html-keyboard-response","225","490289","0.0-11.0-0.56","6127f94d2af664941ae3bf4f","64e77d7b61f440b60e28659d","64ecad8574543506d2c9cff4","null","null","<p style=""font-size: 60px; font-family: BACS"">KABAkMEC</p>","","","","","","","","",""
"html-keyboard-response","226","491290","0.0-11.0-0.57","6127f94d2af664941ae3bf4f","64e77d7b61f440b60e28659d","64ecad8574543506d2c9cff4","null","null","<p style=""font-size: 60px; font-family: BACS"">DmAMEtRb</p>","","","","","","","","",""
"html-keyboard-response","227","492291","0.0-11.0-0.58","6127f94d2af664941ae3bf4f","64e77d7b61f440b60e28659d","64ecad8574543506d2c9cff4","null","null","<p style=""font-size: 60px; font-family: BACS"">LvuOGrAm</p>","","","","","","","","",""
"html-keyboard-response","228","493292","0.0-11.0-0.59","6127f94d2af664941ae3bf4f","64e77d7b61f440b60e28659d","64ecad8574543506d2c9cff4","null","null","<p style=""font-size: 60px; font-family: BACS"">kDRKckPM</p>","","","","","","","","",""
"html-keyboard-response","229","494292","0.0-11.0-0.60","6127f94d2af664941ae3bf4f","64e77d7b61f440b60e28659d","64ecad8574543506d2c9cff4","null","null","<p style=""font-size: 60px; font-family: BACS"">OZkbJud</p>","","","","","","","","",""
"html-keyboard-response","230","495293","0.0-11.0-0.61","6127f94d2af664941ae3bf4f","64e77d7b61f440b60e28659d","64ecad8574543506d2c9cff4","null","null","<p style=""font-size: 60px; font-family: BACS"">lAOKMCmYA</p>","","","","","","","","",""
"html-keyboard-response","231","496302","0.0-11.0-0.62","6127f94d2af664941ae3bf4f","64e77d7b61f440b60e28659d","64ecad8574543506d2c9cff4","null","null","<p style=""font-size: 60px; font-family: BACS"">LvuOGQvlZ</p>","","","","","","","","",""
"html-keyboard-response","232","497314","0.0-11.0-0.63","6127f94d2af664941ae3bf4f","64e77d7b61f440b60e28659d","64ecad8574543506d2c9cff4","null","null","<p style=""font-size: 60px; font-family: BACS"">amJmukbY</p>","","","","","","","","",""
"html-keyboard-response","233","498327","0.0-11.0-0.64","6127f94d2af664941ae3bf4f","64e77d7b61f440b60e28659d","64ecad8574543506d2c9cff4","null","null","<p style=""font-size: 60px; font-family: BACS"">uvaULkNc</p>","","","","","","","","",""
"html-keyboard-response","234","499328","0.0-11.0-0.65","6127f94d2af664941ae3bf4f","64e77d7b61f440b60e28659d","64ecad8574543506d2c9cff4","null","null","<p style=""font-size: 60px; font-family: BACS"">KRARmtRb</p>","","","","","","","","",""
"html-keyboard-response","235","500329","0.0-11.0-0.66","6127f94d2af664941ae3bf4f","64e77d7b61f440b60e28659d","64ecad8574543506d2c9cff4","null","null","<p style=""font-size: 60px; font-family: BACS"">DmAMEkMEC</p>","","","","","","","","",""
"html-keyboard-response","236","501330","0.0-11.0-0.67","6127f94d2af664941ae3bf4f","64e77d7b61f440b60e28659d","64ecad8574543506d2c9cff4","null","null","<p style=""font-size: 60px; font-family: BACS"">mLdkZQvlZ</p>","","","","","","","","",""
"html-keyboard-response","237","502330","0.0-11.0-0.68","6127f94d2af664941ae3bf4f","64e77d7b61f440b60e28659d","64ecad8574543506d2c9cff4","null","null","<p style=""font-size: 60px; font-family: BACS"">OZkbrAm</p>","","","","","","","","",""
"html-keyboard-response","238","503331","0.0-11.0-0.69","6127f94d2af664941ae3bf4f","64e77d7b61f440b60e28659d","64ecad8574543506d2c9cff4","null","null","<p style=""font-size: 60px; font-family: BACS"">TdTDkPM</p>","","","","","","","","",""
"html-keyboard-response","239","504332","0.0-11.0-0.70","6127f94d2af664941ae3bf4f","64e77d7b61f440b60e28659d","64ecad8574543506d2c9cff4","null","null","<p style=""font-size: 60px; font-family: BACS"">MlthkKE</p>","","","","","","","","",""
"html-keyboard-response","240","505336","0.0-11.0-0.71","6127f94d2af664941ae3bf4f","64e77d7b61f440b60e28659d","64ecad8574543506d2c9cff4","null","null","<p style=""font-size: 60px; font-family: BACS"">mLdkZJud</p>","","","","","","","","",""
"html-keyboard-response","241","506337","0.0-11.0-0.72","6127f94d2af664941ae3bf4f","64e77d7b61f440b60e28659d","64ecad8574543506d2c9cff4","null","null","<p style=""font-size: 60px; font-family: BACS"">kDRKckMEC</p>","","","","","","","","",""
"html-keyboard-response","242","507338","0.0-11.0-0.73","6127f94d2af664941ae3bf4f","64e77d7b61f440b60e28659d","64ecad8574543506d2c9cff4","null","null","<p style=""font-size: 60px; font-family: BACS"">uvaUQvlZ</p>","","","","","","","","",""
"html-keyboard-response","243","508338","0.0-11.0-0.74","6127f94d2af664941ae3bf4f","64e77d7b61f440b60e28659d","64ecad8574543506d2c9cff4","null","null","<p style=""font-size: 60px; font-family: BACS"">cdKBYkPM</p>","","","","","","","","",""
"html-keyboard-response","244","509344","0.0-11.0-0.75","6127f94d2af664941ae3bf4f","64e77d7b61f440b60e28659d","64ecad8574543506d2c9cff4","null","null","<p style=""font-size: 60px; font-family: BACS"">amJmrAm</p>","","","","","","","","",""
"html-keyboard-response","245","510360","0.0-11.0-0.76","6127f94d2af664941ae3bf4f","64e77d7b61f440b60e28659d","64ecad8574543506d2c9cff4","null","null","<p style=""font-size: 60px; font-family: BACS"">QcladJud</p>","","","","","","","","",""
"html-keyboard-response","246","511372","0.0-11.0-0.77","6127f94d2af664941ae3bf4f","64e77d7b61f440b60e28659d","64ecad8574543506d2c9cff4","null","null","<p style=""font-size: 60px; font-family: BACS"">KABACmYA</p>","","","","","","","","",""
"html-keyboard-response","247","512373","0.0-11.0-0.78","6127f94d2af664941ae3bf4f","64e77d7b61f440b60e28659d","64ecad8574543506d2c9cff4","null","null","<p style=""font-size: 60px; font-family: BACS"">mLdkZrAm</p>","","","","","","","","",""
"html-keyboard-response","248","513383","0.0-11.0-0.79","6127f94d2af664941ae3bf4f","64e77d7b61f440b60e28659d","64ecad8574543506d2c9cff4","null","null","<p style=""font-size: 60px; font-family: BACS"">JNkaJud</p>","","","","","","","","",""
"html-keyboard-response","249","515844","0.0-12.0","6127f94d2af664941ae3bf4f","64e77d7b61f440b60e28659d","64ecad8574543506d2c9cff4","2461"," ","<p>Great, you've seen the third block of words. You may now take a short break.</p>
      <p>Press the spacebar when you're ready to continue.</p>","","","","","","","","",""
"html-keyboard-response","250","516845","0.0-13.0-0.0","6127f94d2af664941ae3bf4f","64e77d7b61f440b60e28659d","64ecad8574543506d2c9cff4","null","null","<p style=""font-size: 60px; font-family: BACS"">ZkGmYJud</p>","","","","","","","","",""
"html-keyboard-response","251","517846","0.0-13.0-0.1","6127f94d2af664941ae3bf4f","64e77d7b61f440b60e28659d","64ecad8574543506d2c9cff4","null","null","<p style=""font-size: 60px; font-family: BACS"">uvaULkNc</p>","","","","","","","","",""
"html-keyboard-response","252","518847","0.0-13.0-0.2","6127f94d2af664941ae3bf4f","64e77d7b61f440b60e28659d","64ecad8574543506d2c9cff4","null","null","<p style=""font-size: 60px; font-family: BACS"">OZkbJud</p>","","","","","","","","",""
"html-keyboard-response","253","519848","0.0-13.0-0.3","6127f94d2af664941ae3bf4f","64e77d7b61f440b60e28659d","64ecad8574543506d2c9cff4","null","null","<p style=""font-size: 60px; font-family: BACS"">TPCbkKE</p>","","","","","","","","",""
"html-keyboard-response","254","520849","0.0-13.0-0.4","6127f94d2af664941ae3bf4f","64e77d7b61f440b60e28659d","64ecad8574543506d2c9cff4","null","null","<p style=""font-size: 60px; font-family: BACS"">QcladJud</p>","","","","","","","","",""
"html-keyboard-response","255","521850","0.0-13.0-0.5","6127f94d2af664941ae3bf4f","64e77d7b61f440b60e28659d","64ecad8574543506d2c9cff4","null","null","<p style=""font-size: 60px; font-family: BACS"">kDRKckPM</p>","","","","","","","","",""
"html-keyboard-response","256","522857","0.0-13.0-0.6","6127f94d2af664941ae3bf4f","64e77d7b61f440b60e28659d","64ecad8574543506d2c9cff4","null","null","<p style=""font-size: 60px; font-family: BACS"">KRARmCmYA</p>","","","","","","","","",""
"html-keyboard-response","257","523857","0.0-13.0-0.7","6127f94d2af664941ae3bf4f","64e77d7b61f440b60e28659d","64ecad8574543506d2c9cff4","null","null","<p style=""font-size: 60px; font-family: BACS"">uvaUQvlZ</p>","","","","","","","","",""
"html-keyboard-response","258","524858","0.0-13.0-0.8","6127f94d2af664941ae3bf4f","64e77d7b61f440b60e28659d","64ecad8574543506d2c9cff4","null","null","<p style=""font-size: 60px; font-family: BACS"">JNkaJud</p>","","","","","","","","",""
"html-keyboard-response","259","525866","0.0-13.0-0.9","6127f94d2af664941ae3bf4f","64e77d7b61f440b60e28659d","64ecad8574543506d2c9cff4","null","null","<p style=""font-size: 60px; font-family: BACS"">KABAkPM</p>","","","","","","","","",""
"html-keyboard-response","260","526867","0.0-13.0-0.10","6127f94d2af664941ae3bf4f","64e77d7b61f440b60e28659d","64ecad8574543506d2c9cff4","null","null","<p style=""font-size: 60px; font-family: BACS"">TPCbtRb</p>","","","","","","","","",""
"html-keyboard-response","261","527883","0.0-13.0-0.11","6127f94d2af664941ae3bf4f","64e77d7b61f440b60e28659d","64ecad8574543506d2c9cff4","null","null","<p style=""font-size: 60px; font-family: BACS"">MlthCmYA</p>","","","","","","","","",""
"html-keyboard-response","262","528884","0.0-13.0-0.12","6127f94d2af664941ae3bf4f","64e77d7b61f440b60e28659d","64ecad8574543506d2c9cff4","null","null","<p style=""font-size: 60px; font-family: BACS"">OZkbrAm</p>","","","","","","","","",""
"html-keyboard-response","263","529885","0.0-13.0-0.13","6127f94d2af664941ae3bf4f","64e77d7b61f440b60e28659d","64ecad8574543506d2c9cff4","null","null","<p style=""font-size: 60px; font-family: BACS"">MlthtRb</p>","","","","","","","","",""
"html-keyboard-response","264","530886","0.0-13.0-0.14","6127f94d2af664941ae3bf4f","64e77d7b61f440b60e28659d","64ecad8574543506d2c9cff4","null","null","<p style=""font-size: 60px; font-family: BACS"">GabkQvlZ</p>","","","","","","","","",""
"html-keyboard-response","265","531886","0.0-13.0-0.15","6127f94d2af664941ae3bf4f","64e77d7b61f440b60e28659d","64ecad8574543506d2c9cff4","null","null","<p style=""font-size: 60px; font-family: BACS"">amJmrAm</p>","","","","","","","","",""
"html-keyboard-response","266","532887","0.0-13.0-0.16","6127f94d2af664941ae3bf4f","64e77d7b61f440b60e28659d","64ecad8574543506d2c9cff4","null","null","<p style=""font-size: 60px; font-family: BACS"">KABACmYA</p>","","","","","","","","",""
"html-keyboard-response","267","533898","0.0-13.0-0.17","6127f94d2af664941ae3bf4f","64e77d7b61f440b60e28659d","64ecad8574543506d2c9cff4","null","null","<p style=""font-size: 60px; font-family: BACS"">LvuOGLkNc</p>","","","","","","","","",""
"html-keyboard-response","268","534913","0.0-13.0-0.18","6127f94d2af664941ae3bf4f","64e77d7b61f440b60e28659d","64ecad8574543506d2c9cff4","null","null","<p style=""font-size: 60px; font-family: BACS"">DmAMECmYA</p>","","","","","","","","",""
"html-keyboard-response","269","535914","0.0-13.0-0.19","6127f94d2af664941ae3bf4f","64e77d7b61f440b60e28659d","64ecad8574543506d2c9cff4","null","null","<p style=""font-size: 60px; font-family: BACS"">dGLAlrAm</p>","","","","","","","","",""
"html-keyboard-response","270","536915","0.0-13.0-0.20","6127f94d2af664941ae3bf4f","64e77d7b61f440b60e28659d","64ecad8574543506d2c9cff4","null","null","<p style=""font-size: 60px; font-family: BACS"">JNkaukbY</p>","","","","","","","","",""
"html-keyboard-response","271","537915","0.0-13.0-0.21","6127f94d2af664941ae3bf4f","64e77d7b61f440b60e28659d","64ecad8574543506d2c9cff4","null","null","<p style=""font-size: 60px; font-family: BACS"">kDRKckMEC</p>","","","","","","","","",""
"html-keyboard-response","272","538916","0.0-13.0-0.22","6127f94d2af664941ae3bf4f","64e77d7b61f440b60e28659d","64ecad8574543506d2c9cff4","null","null","<p style=""font-size: 60px; font-family: BACS"">cdKBYkPM</p>","","","","","","","","",""
"html-keyboard-response","273","539921","0.0-13.0-0.23","6127f94d2af664941ae3bf4f","64e77d7b61f440b60e28659d","64ecad8574543506d2c9cff4","null","null","<p style=""font-size: 60px; font-family: BACS"">ZkGmYukbY</p>","","","","","","","","",""
"html-keyboard-response","274","540922","0.0-13.0-0.24","6127f94d2af664941ae3bf4f","64e77d7b61f440b60e28659d","64ecad8574543506d2c9cff4","null","null","<p style=""font-size: 60px; font-family: BACS"">amJmJud</p>","","","","","","","","",""
"html-keyboard-response","275","541934","0.0-13.0-0.25","6127f94d2af664941ae3bf4f","64e77d7b61f440b60e28659d","64ecad8574543506d2c9cff4","null","null","<p style=""font-size: 60px; font-family: BACS"">lAOKMkPM</p>","","","","","","","","",""
"html-keyboard-response","276","542935","0.0-13.0-0.26","6127f94d2af664941ae3bf4f","64e77d7b61f440b60e28659d","64ecad8574543506d2c9cff4","null","null","<p style=""font-size: 60px; font-family: BACS"">cdKBYkKE</p>","","","","","","","","",""
"html-keyboard-response","277","543936","0.0-13.0-0.27","6127f94d2af664941ae3bf4f","64e77d7b61f440b60e28659d","64ecad8574543506d2c9cff4","null","null","<p style=""font-size: 60px; font-family: BACS"">ZkGmYQvlZ</p>","","","","","","","","",""
"html-keyboard-response","278","544937","0.0-13.0-0.28","6127f94d2af664941ae3bf4f","64e77d7b61f440b60e28659d","64ecad8574543506d2c9cff4","null","null","<p style=""font-size: 60px; font-family: BACS"">lAOKMkKE</p>","","","","","","","","",""
"html-keyboard-response","279","545937","0.0-13.0-0.29","6127f94d2af664941ae3bf4f","64e77d7b61f440b60e28659d","64ecad8574543506d2c9cff4","null","null","<p style=""font-size: 60px; font-family: BACS"">YObACmYA</p>","","","","","","","","",""
"html-keyboard-response","280","546938","0.0-13.0-0.30","6127f94d2af664941ae3bf4f","64e77d7b61f440b60e28659d","64ecad8574543506d2c9cff4","null","null","<p style=""font-size: 60px; font-family: BACS"">QcladLkNc</p>","","","","","","","","",""
"html-keyboard-response","281","547939","0.0-13.0-0.31","6127f94d2af664941ae3bf4f","64e77d7b61f440b60e28659d","64ecad8574543506d2c9cff4","null","null","<p style=""font-size: 60px; font-family: BACS"">dGLAlukbY</p>","","","","","","","","",""
"html-keyboard-response","282","548955","0.0-13.0-0.32","6127f94d2af664941ae3bf4f","64e77d7b61f440b60e28659d","64ecad8574543506d2c9cff4","null","null","<p style=""font-size: 60px; font-family: BACS"">lAOKMCmYA</p>","","","","","","","","",""
"html-keyboard-response","283","549956","0.0-13.0-0.33","6127f94d2af664941ae3bf4f","64e77d7b61f440b60e28659d","64ecad8574543506d2c9cff4","null","null","<p style=""font-size: 60px; font-family: BACS"">mLdkZrAm</p>","","","","","","","","",""
"html-keyboard-response","284","550957","0.0-13.0-0.34","6127f94d2af664941ae3bf4f","64e77d7b61f440b60e28659d","64ecad8574543506d2c9cff4","null","null","<p style=""font-size: 60px; font-family: BACS"">uvaUJud</p>","","","","","","","","",""
"html-keyboard-response","285","551957","0.0-13.0-0.35","6127f94d2af664941ae3bf4f","64e77d7b61f440b60e28659d","64ecad8574543506d2c9cff4","null","null","<p style=""font-size: 60px; font-family: BACS"">mLdkZukbY</p>","","","","","","","","",""
"html-keyboard-response","286","552967","0.0-13.0-0.36","6127f94d2af664941ae3bf4f","64e77d7b61f440b60e28659d","64ecad8574543506d2c9cff4","null","null","<p style=""font-size: 60px; font-family: BACS"">dGLAlLkNc</p>","","","","","","","","",""
"html-keyboard-response","287","553968","0.0-13.0-0.37","6127f94d2af664941ae3bf4f","64e77d7b61f440b60e28659d","64ecad8574543506d2c9cff4","null","null","<p style=""font-size: 60px; font-family: BACS"">DmAMEkMEC</p>","","","","","","","","",""
"html-keyboard-response","288","554983","0.0-13.0-0.38","6127f94d2af664941ae3bf4f","64e77d7b61f440b60e28659d","64ecad8574543506d2c9cff4","null","null","<p style=""font-size: 60px; font-family: BACS"">JNkaQvlZ</p>","","","","","","","","",""
"html-keyboard-response","289","555992","0.0-13.0-0.39","6127f94d2af664941ae3bf4f","64e77d7b61f440b60e28659d","64ecad8574543506d2c9cff4","null","null","<p style=""font-size: 60px; font-family: BACS"">LvuOGrAm</p>","","","","","","","","",""
"html-keyboard-response","290","557003","0.0-13.0-0.40","6127f94d2af664941ae3bf4f","64e77d7b61f440b60e28659d","64ecad8574543506d2c9cff4","null","null","<p style=""font-size: 60px; font-family: BACS"">YObAkPM</p>","","","","","","","","",""
"html-keyboard-response","291","558018","0.0-13.0-0.41","6127f94d2af664941ae3bf4f","64e77d7b61f440b60e28659d","64ecad8574543506d2c9cff4","null","null","<p style=""font-size: 60px; font-family: BACS"">OZkbukbY</p>","","","","","","","","",""
"html-keyboard-response","292","559030","0.0-13.0-0.42","6127f94d2af664941ae3bf4f","64e77d7b61f440b60e28659d","64ecad8574543506d2c9cff4","null","null","<p style=""font-size: 60px; font-family: BACS"">KABAkMEC</p>","","","","","","","","",""
"html-keyboard-response","293","560042","0.0-13.0-0.43","6127f94d2af664941ae3bf4f","64e77d7b61f440b60e28659d","64ecad8574543506d2c9cff4","null","null","<p style=""font-size: 60px; font-family: BACS"">kDRKcCmYA</p>","","","","","","","","",""
"html-keyboard-response","294","561055","0.0-13.0-0.44","6127f94d2af664941ae3bf4f","64e77d7b61f440b60e28659d","64ecad8574543506d2c9cff4","null","null","<p style=""font-size: 60px; font-family: BACS"">TdTDkMEC</p>","","","","","","","","",""
"html-keyboard-response","295","562067","0.0-13.0-0.45","6127f94d2af664941ae3bf4f","64e77d7b61f440b60e28659d","64ecad8574543506d2c9cff4","null","null","<p style=""font-size: 60px; font-family: BACS"">GabkLkNc</p>","","","","","","","","",""
"html-keyboard-response","296","563081","0.0-13.0-0.46","6127f94d2af664941ae3bf4f","64e77d7b61f440b60e28659d","64ecad8574543506d2c9cff4","null","null","<p style=""font-size: 60px; font-family: BACS"">kDRKctRb</p>","","","","","","","","",""
"html-keyboard-response","297","564094","0.0-13.0-0.47","6127f94d2af664941ae3bf4f","64e77d7b61f440b60e28659d","64ecad8574543506d2c9cff4","null","null","<p style=""font-size: 60px; font-family: BACS"">ZkGmYrAm</p>","","","","","","","","",""
"html-keyboard-response","298","565109","0.0-13.0-0.48","6127f94d2af664941ae3bf4f","64e77d7b61f440b60e28659d","64ecad8574543506d2c9cff4","null","null","<p style=""font-size: 60px; font-family: BACS"">amJmukbY</p>","","","","","","","","",""
"html-keyboard-response","299","566119","0.0-13.0-0.49","6127f94d2af664941ae3bf4f","64e77d7b61f440b60e28659d","64ecad8574543506d2c9cff4","null","null","<p style=""font-size: 60px; font-family: BACS"">KRARmtRb</p>","","","","","","","","",""
"html-keyboard-response","300","567132","0.0-13.0-0.50","6127f94d2af664941ae3bf4f","64e77d7b61f440b60e28659d","64ecad8574543506d2c9cff4","null","null","<p style=""font-size: 60px; font-family: BACS"">mLdkZJud</p>","","","","","","","","",""
"html-keyboard-response","301","568146","0.0-13.0-0.51","6127f94d2af664941ae3bf4f","64e77d7b61f440b60e28659d","64ecad8574543506d2c9cff4","null","null","<p style=""font-size: 60px; font-family: BACS"">OZkbLkNc</p>","","","","","","","","",""
"html-keyboard-response","302","569146","0.0-13.0-0.52","6127f94d2af664941ae3bf4f","64e77d7b61f440b60e28659d","64ecad8574543506d2c9cff4","null","null","<p style=""font-size: 60px; font-family: BACS"">KABAkKE</p>","","","","","","","","",""
"html-keyboard-response","303","570147","0.0-13.0-0.53","6127f94d2af664941ae3bf4f","64e77d7b61f440b60e28659d","64ecad8574543506d2c9cff4","null","null","<p style=""font-size: 60px; font-family: BACS"">DmAMEkPM</p>","","","","","","","","",""
"html-keyboard-response","304","571155","0.0-13.0-0.54","6127f94d2af664941ae3bf4f","64e77d7b61f440b60e28659d","64ecad8574543506d2c9cff4","null","null","<p style=""font-size: 60px; font-family: BACS"">lAOKMtRb</p>","","","","","","","","",""
"html-keyboard-response","305","572169","0.0-13.0-0.55","6127f94d2af664941ae3bf4f","64e77d7b61f440b60e28659d","64ecad8574543506d2c9cff4","null","null","<p style=""font-size: 60px; font-family: BACS"">TdTDkKE</p>","","","","","","","","",""
"html-keyboard-response","306","573169","0.0-13.0-0.56","6127f94d2af664941ae3bf4f","64e77d7b61f440b60e28659d","64ecad8574543506d2c9cff4","null","null","<p style=""font-size: 60px; font-family: BACS"">LvuOGJud</p>","","","","","","","","",""
"html-keyboard-response","307","574171","0.0-13.0-0.57","6127f94d2af664941ae3bf4f","64e77d7b61f440b60e28659d","64ecad8574543506d2c9cff4","null","null","<p style=""font-size: 60px; font-family: BACS"">YObAkMEC</p>","","","","","","","","",""
"html-keyboard-response","308","575172","0.0-13.0-0.58","6127f94d2af664941ae3bf4f","64e77d7b61f440b60e28659d","64ecad8574543506d2c9cff4","null","null","<p style=""font-size: 60px; font-family: BACS"">JNkaLkNc</p>","","","","","","","","",""
"html-keyboard-response","309","576173","0.0-13.0-0.59","6127f94d2af664941ae3bf4f","64e77d7b61f440b60e28659d","64ecad8574543506d2c9cff4","null","null","<p style=""font-size: 60px; font-family: BACS"">cdKBYtRb</p>","","","","","","","","",""
"html-keyboard-response","310","577173","0.0-13.0-0.60","6127f94d2af664941ae3bf4f","64e77d7b61f440b60e28659d","64ecad8574543506d2c9cff4","null","null","<p style=""font-size: 60px; font-family: BACS"">QcladrAm</p>","","","","","","","","",""
"html-keyboard-response","311","578174","0.0-13.0-0.61","6127f94d2af664941ae3bf4f","64e77d7b61f440b60e28659d","64ecad8574543506d2c9cff4","null","null","<p style=""font-size: 60px; font-family: BACS"">LvuOGQvlZ</p>","","","","","","","","",""
"html-keyboard-response","312","579179","0.0-13.0-0.62","6127f94d2af664941ae3bf4f","64e77d7b61f440b60e28659d","64ecad8574543506d2c9cff4","null","null","<p style=""font-size: 60px; font-family: BACS"">GabkukbY</p>","","","","","","","","",""
"html-keyboard-response","313","580179","0.0-13.0-0.63","6127f94d2af664941ae3bf4f","64e77d7b61f440b60e28659d","64ecad8574543506d2c9cff4","null","null","<p style=""font-size: 60px; font-family: BACS"">TdTDkPM</p>","","","","","","","","",""
"html-keyboard-response","314","581180","0.0-13.0-0.64","6127f94d2af664941ae3bf4f","64e77d7b61f440b60e28659d","64ecad8574543506d2c9cff4","null","null","<p style=""font-size: 60px; font-family: BACS"">mLdkZQvlZ</p>","","","","","","","","",""
"html-keyboard-response","315","582181","0.0-13.0-0.65","6127f94d2af664941ae3bf4f","64e77d7b61f440b60e28659d","64ecad8574543506d2c9cff4","null","null","<p style=""font-size: 60px; font-family: BACS"">KRARmkMEC</p>","","","","","","","","",""
"html-keyboard-response","316","583182","0.0-13.0-0.66","6127f94d2af664941ae3bf4f","64e77d7b61f440b60e28659d","64ecad8574543506d2c9cff4","null","null","<p style=""font-size: 60px; font-family: BACS"">DmAMEtRb</p>","","","","","","","","",""
"html-keyboard-response","317","584183","0.0-13.0-0.67","6127f94d2af664941ae3bf4f","64e77d7b61f440b60e28659d","64ecad8574543506d2c9cff4","null","null","<p style=""font-size: 60px; font-family: BACS"">cdKBYkMEC</p>","","","","","","","","",""
"html-keyboard-response","318","585185","0.0-13.0-0.68","6127f94d2af664941ae3bf4f","64e77d7b61f440b60e28659d","64ecad8574543506d2c9cff4","null","null","<p style=""font-size: 60px; font-family: BACS"">amJmLkNc</p>","","","","","","","","",""
"html-keyboard-response","319","586198","0.0-13.0-0.69","6127f94d2af664941ae3bf4f","64e77d7b61f440b60e28659d","64ecad8574543506d2c9cff4","null","null","<p style=""font-size: 60px; font-family: BACS"">TPCbkPM</p>","","","","","","","","",""
"html-keyboard-response","320","587213","0.0-13.0-0.70","6127f94d2af664941ae3bf4f","64e77d7b61f440b60e28659d","64ecad8574543506d2c9cff4","null","null","<p style=""font-size: 60px; font-family: BACS"">GabkrAm</p>","","","","","","","","",""
"html-keyboard-response","321","588225","0.0-13.0-0.71","6127f94d2af664941ae3bf4f","64e77d7b61f440b60e28659d","64ecad8574543506d2c9cff4","null","null","<p style=""font-size: 60px; font-family: BACS"">MlthkMEC</p>","","","","","","","","",""
"html-keyboard-response","322","589226","0.0-13.0-0.72","6127f94d2af664941ae3bf4f","64e77d7b61f440b60e28659d","64ecad8574543506d2c9cff4","null","null","<p style=""font-size: 60px; font-family: BACS"">uvaUukbY</p>","","","","","","","","",""
"html-keyboard-response","323","590227","0.0-13.0-0.73","6127f94d2af664941ae3bf4f","64e77d7b61f440b60e28659d","64ecad8574543506d2c9cff4","null","null","<p style=""font-size: 60px; font-family: BACS"">MlthkKE</p>","","","","","","","","",""
"html-keyboard-response","324","591227","0.0-13.0-0.74","6127f94d2af664941ae3bf4f","64e77d7b61f440b60e28659d","64ecad8574543506d2c9cff4","null","null","<p style=""font-size: 60px; font-family: BACS"">TPCbCmYA</p>","","","","","","","","",""
"html-keyboard-response","325","592234","0.0-13.0-0.75","6127f94d2af664941ae3bf4f","64e77d7b61f440b60e28659d","64ecad8574543506d2c9cff4","null","null","<p style=""font-size: 60px; font-family: BACS"">dGLAlQvlZ</p>","","","","","","","","",""
"html-keyboard-response","326","593249","0.0-13.0-0.76","6127f94d2af664941ae3bf4f","64e77d7b61f440b60e28659d","64ecad8574543506d2c9cff4","null","null","<p style=""font-size: 60px; font-family: BACS"">TdTDtRb</p>","","","","","","","","",""
"html-keyboard-response","327","594262","0.0-13.0-0.77","6127f94d2af664941ae3bf4f","64e77d7b61f440b60e28659d","64ecad8574543506d2c9cff4","null","null","<p style=""font-size: 60px; font-family: BACS"">YObAkKE</p>","","","","","","","","",""
"html-keyboard-response","328","595265","0.0-13.0-0.78","6127f94d2af664941ae3bf4f","64e77d7b61f440b60e28659d","64ecad8574543506d2c9cff4","null","null","<p style=""font-size: 60px; font-family: BACS"">QcladQvlZ</p>","","","","","","","","",""
"html-keyboard-response","329","596266","0.0-13.0-0.79","6127f94d2af664941ae3bf4f","64e77d7b61f440b60e28659d","64ecad8574543506d2c9cff4","null","null","<p style=""font-size: 60px; font-family: BACS"">KRARmkKE</p>","","","","","","","","",""
"html-keyboard-response","330","693825","0.0-14.0","6127f94d2af664941ae3bf4f","64e77d7b61f440b60e28659d","64ecad8574543506d2c9cff4","97559"," ","<p>Great, you've seen the fourth block of words. You may now take a short break.</p>
      <p>Press the spacebar when you're ready to continue.</p>","","","","","","","","",""
"html-keyboard-response","331","694841","0.0-15.0-0.0","6127f94d2af664941ae3bf4f","64e77d7b61f440b60e28659d","64ecad8574543506d2c9cff4","null","null","<p style=""font-size: 60px; font-family: BACS"">amJmJud</p>","","","","","","","","",""
"html-keyboard-response","332","695842","0.0-15.0-0.1","6127f94d2af664941ae3bf4f","64e77d7b61f440b60e28659d","64ecad8574543506d2c9cff4","null","null","<p style=""font-size: 60px; font-family: BACS"">amJmJud</p>","","","","","","","","",""
"html-keyboard-response","333","696842","0.0-15.0-0.2","6127f94d2af664941ae3bf4f","64e77d7b61f440b60e28659d","64ecad8574543506d2c9cff4","null","null","<p style=""font-size: 60px; font-family: BACS"">amJmJud</p>","","","","","","","","",""
"html-keyboard-response","334","697851","0.0-15.0-0.3","6127f94d2af664941ae3bf4f","64e77d7b61f440b60e28659d","64ecad8574543506d2c9cff4","null","null","<p style=""font-size: 60px; font-family: BACS"">amJmJud</p>","","","","","","","","",""
"html-keyboard-response","335","698852","0.0-15.0-0.4","6127f94d2af664941ae3bf4f","64e77d7b61f440b60e28659d","64ecad8574543506d2c9cff4","null","null","<p style=""font-size: 60px; font-family: BACS"">amJmJud</p>","","","","","","","","",""
"html-keyboard-response","336","699867","0.0-15.0-0.5","6127f94d2af664941ae3bf4f","64e77d7b61f440b60e28659d","64ecad8574543506d2c9cff4","null","null","<p style=""font-size: 60px; font-family: BACS"">amJmJud</p>","","","","","","","","",""
"html-keyboard-response","337","700877","0.0-15.0-0.6","6127f94d2af664941ae3bf4f","64e77d7b61f440b60e28659d","64ecad8574543506d2c9cff4","null","null","<p style=""font-size: 60px; font-family: BACS"">amJmJud</p>","","","","","","","","",""
"html-keyboard-response","338","701878","0.0-15.0-0.7","6127f94d2af664941ae3bf4f","64e77d7b61f440b60e28659d","64ecad8574543506d2c9cff4","null","null","<p style=""font-size: 60px; font-family: BACS"">amJmJud</p>","","","","","","","","",""
"html-keyboard-response","339","702879","0.0-15.0-0.8","6127f94d2af664941ae3bf4f","64e77d7b61f440b60e28659d","64ecad8574543506d2c9cff4","null","null","<p style=""font-size: 60px; font-family: BACS"">amJmJud</p>","","","","","","","","",""
"html-keyboard-response","340","703879","0.0-15.0-0.9","6127f94d2af664941ae3bf4f","64e77d7b61f440b60e28659d","64ecad8574543506d2c9cff4","null","null","<p style=""font-size: 60px; font-family: BACS"">amJmJud</p>","","","","","","","","",""
"html-keyboard-response","341","704880","0.0-15.0-0.10","6127f94d2af664941ae3bf4f","64e77d7b61f440b60e28659d","64ecad8574543506d2c9cff4","null","null","<p style=""font-size: 60px; font-family: BACS"">amJmJud</p>","","","","","","","","",""
"html-keyboard-response","342","705885","0.0-15.0-0.11","6127f94d2af664941ae3bf4f","64e77d7b61f440b60e28659d","64ecad8574543506d2c9cff4","null","null","<p style=""font-size: 60px; font-family: BACS"">amJmJud</p>","","","","","","","","",""
"html-keyboard-response","343","706900","0.0-15.0-0.12","6127f94d2af664941ae3bf4f","64e77d7b61f440b60e28659d","64ecad8574543506d2c9cff4","null","null","<p style=""font-size: 60px; font-family: BACS"">amJmJud</p>","","","","","","","","",""
"html-keyboard-response","344","707908","0.0-15.0-0.13","6127f94d2af664941ae3bf4f","64e77d7b61f440b60e28659d","64ecad8574543506d2c9cff4","null","null","<p style=""font-size: 60px; font-family: BACS"">amJmJud</p>","","","","","","","","",""
"html-keyboard-response","345","708909","0.0-15.0-0.14","6127f94d2af664941ae3bf4f","64e77d7b61f440b60e28659d","64ecad8574543506d2c9cff4","null","null","<p style=""font-size: 60px; font-family: BACS"">amJmJud</p>","","","","","","","","",""
"html-keyboard-response","346","709910","0.0-15.0-0.15","6127f94d2af664941ae3bf4f","64e77d7b61f440b60e28659d","64ecad8574543506d2c9cff4","null","null","<p style=""font-size: 60px; font-family: BACS"">amJmJud</p>","","","","","","","","",""
"html-keyboard-response","347","710911","0.0-15.0-0.16","6127f94d2af664941ae3bf4f","64e77d7b61f440b60e28659d","64ecad8574543506d2c9cff4","null","null","<p style=""font-size: 60px; font-family: BACS"">amJmJud</p>","","","","","","","","",""
"html-keyboard-response","348","711911","0.0-15.0-0.17","6127f94d2af664941ae3bf4f","64e77d7b61f440b60e28659d","64ecad8574543506d2c9cff4","null","null","<p style=""font-size: 60px; font-family: BACS"">amJmJud</p>","","","","","","","","",""
"html-keyboard-response","349","712912","0.0-15.0-0.18","6127f94d2af664941ae3bf4f","64e77d7b61f440b60e28659d","64ecad8574543506d2c9cff4","null","null","<p style=""font-size: 60px; font-family: BACS"">amJmJud</p>","","","","","","","","",""
"html-keyboard-response","350","713913","0.0-15.0-0.19","6127f94d2af664941ae3bf4f","64e77d7b61f440b60e28659d","64ecad8574543506d2c9cff4","null","null","<p style=""font-size: 60px; font-family: BACS"">amJmJud</p>","","","","","","","","",""
"html-keyboard-response","351","714914","0.0-15.0-0.20","6127f94d2af664941ae3bf4f","64e77d7b61f440b60e28659d","64ecad8574543506d2c9cff4","null","null","<p style=""font-size: 60px; font-family: BACS"">amJmJud</p>","","","","","","","","",""
"html-keyboard-response","352","715915","0.0-15.0-0.21","6127f94d2af664941ae3bf4f","64e77d7b61f440b60e28659d","64ecad8574543506d2c9cff4","null","null","<p style=""font-size: 60px; font-family: BACS"">amJmJud</p>","","","","","","","","",""
"html-keyboard-response","353","716916","0.0-15.0-0.22","6127f94d2af664941ae3bf4f","64e77d7b61f440b60e28659d","64ecad8574543506d2c9cff4","null","null","<p style=""font-size: 60px; font-family: BACS"">amJmJud</p>","","","","","","","","",""
"html-keyboard-response","354","717916","0.0-15.0-0.23","6127f94d2af664941ae3bf4f","64e77d7b61f440b60e28659d","64ecad8574543506d2c9cff4","null","null","<p style=""font-size: 60px; font-family: BACS"">amJmJud</p>","","","","","","","","",""
"html-keyboard-response","355","718918","0.0-15.0-0.24","6127f94d2af664941ae3bf4f","64e77d7b61f440b60e28659d","64ecad8574543506d2c9cff4","null","null","<p style=""font-size: 60px; font-family: BACS"">amJmJud</p>","","","","","","","","",""
"html-keyboard-response","356","719921","0.0-15.0-0.25","6127f94d2af664941ae3bf4f","64e77d7b61f440b60e28659d","64ecad8574543506d2c9cff4","null","null","<p style=""font-size: 60px; font-family: BACS"">amJmJud</p>","","","","","","","","",""
"html-keyboard-response","357","720934","0.0-15.0-0.26","6127f94d2af664941ae3bf4f","64e77d7b61f440b60e28659d","64ecad8574543506d2c9cff4","null","null","<p style=""font-size: 60px; font-family: BACS"">amJmJud</p>","","","","","","","","",""
"html-keyboard-response","358","721937","0.0-15.0-0.27","6127f94d2af664941ae3bf4f","64e77d7b61f440b60e28659d","64ecad8574543506d2c9cff4","null","null","<p style=""font-size: 60px; font-family: BACS"">amJmJud</p>","","","","","","","","",""
"html-keyboard-response","359","722938","0.0-15.0-0.28","6127f94d2af664941ae3bf4f","64e77d7b61f440b60e28659d","64ecad8574543506d2c9cff4","null","null","<p style=""font-size: 60px; font-family: BACS"">amJmJud</p>","","","","","","","","",""
"html-keyboard-response","360","723939","0.0-15.0-0.29","6127f94d2af664941ae3bf4f","64e77d7b61f440b60e28659d","64ecad8574543506d2c9cff4","null","null","<p style=""font-size: 60px; font-family: BACS"">amJmJud</p>","","","","","","","","",""
"html-keyboard-response","361","724939","0.0-15.0-0.30","6127f94d2af664941ae3bf4f","64e77d7b61f440b60e28659d","64ecad8574543506d2c9cff4","null","null","<p style=""font-size: 60px; font-family: BACS"">amJmJud</p>","","","","","","","","",""
"html-keyboard-response","362","725940","0.0-15.0-0.31","6127f94d2af664941ae3bf4f","64e77d7b61f440b60e28659d","64ecad8574543506d2c9cff4","null","null","<p style=""font-size: 60px; font-family: BACS"">amJmJud</p>","","","","","","","","",""
"html-keyboard-response","363","726946","0.0-15.0-0.32","6127f94d2af664941ae3bf4f","64e77d7b61f440b60e28659d","64ecad8574543506d2c9cff4","null","null","<p style=""font-size: 60px; font-family: BACS"">amJmJud</p>","","","","","","","","",""
"html-keyboard-response","364","727961","0.0-15.0-0.33","6127f94d2af664941ae3bf4f","64e77d7b61f440b60e28659d","64ecad8574543506d2c9cff4","null","null","<p style=""font-size: 60px; font-family: BACS"">amJmJud</p>","","","","","","","","",""
"html-keyboard-response","365","728975","0.0-15.0-0.34","6127f94d2af664941ae3bf4f","64e77d7b61f440b60e28659d","64ecad8574543506d2c9cff4","null","null","<p style=""font-size: 60px; font-family: BACS"">amJmJud</p>","","","","","","","","",""
"html-keyboard-response","366","729989","0.0-15.0-0.35","6127f94d2af664941ae3bf4f","64e77d7b61f440b60e28659d","64ecad8574543506d2c9cff4","null","null","<p style=""font-size: 60px; font-family: BACS"">amJmJud</p>","","","","","","","","",""
"html-keyboard-response","367","731003","0.0-15.0-0.36","6127f94d2af664941ae3bf4f","64e77d7b61f440b60e28659d","64ecad8574543506d2c9cff4","null","null","<p style=""font-size: 60px; font-family: BACS"">amJmJud</p>","","","","","","","","",""
"html-keyboard-response","368","732017","0.0-15.0-0.37","6127f94d2af664941ae3bf4f","64e77d7b61f440b60e28659d","64ecad8574543506d2c9cff4","null","null","<p style=""font-size: 60px; font-family: BACS"">amJmJud</p>","","","","","","","","",""
"html-keyboard-response","369","733030","0.0-15.0-0.38","6127f94d2af664941ae3bf4f","64e77d7b61f440b60e28659d","64ecad8574543506d2c9cff4","null","null","<p style=""font-size: 60px; font-family: BACS"">amJmJud</p>","","","","","","","","",""
"html-keyboard-response","370","734044","0.0-15.0-0.39","6127f94d2af664941ae3bf4f","64e77d7b61f440b60e28659d","64ecad8574543506d2c9cff4","null","null","<p style=""font-size: 60px; font-family: BACS"">amJmJud</p>","","","","","","","","",""
"html-keyboard-response","371","735058","0.0-15.0-0.40","6127f94d2af664941ae3bf4f","64e77d7b61f440b60e28659d","64ecad8574543506d2c9cff4","null","null","<p style=""font-size: 60px; font-family: BACS"">amJmJud</p>","","","","","","","","",""
"html-keyboard-response","372","736072","0.0-15.0-0.41","6127f94d2af664941ae3bf4f","64e77d7b61f440b60e28659d","64ecad8574543506d2c9cff4","null","null","<p style=""font-size: 60px; font-family: BACS"">amJmJud</p>","","","","","","","","",""
"html-keyboard-response","373","737086","0.0-15.0-0.42","6127f94d2af664941ae3bf4f","64e77d7b61f440b60e28659d","64ecad8574543506d2c9cff4","null","null","<p style=""font-size: 60px; font-family: BACS"">amJmJud</p>","","","","","","","","",""
"html-keyboard-response","374","738098","0.0-15.0-0.43","6127f94d2af664941ae3bf4f","64e77d7b61f440b60e28659d","64ecad8574543506d2c9cff4","null","null","<p style=""font-size: 60px; font-family: BACS"">amJmJud</p>","","","","","","","","",""
"html-keyboard-response","375","739113","0.0-15.0-0.44","6127f94d2af664941ae3bf4f","64e77d7b61f440b60e28659d","64ecad8574543506d2c9cff4","null","null","<p style=""font-size: 60px; font-family: BACS"">amJmJud</p>","","","","","","","","",""
"html-keyboard-response","376","740114","0.0-15.0-0.45","6127f94d2af664941ae3bf4f","64e77d7b61f440b60e28659d","64ecad8574543506d2c9cff4","null","null","<p style=""font-size: 60px; font-family: BACS"">amJmJud</p>","","","","","","","","",""
"html-keyboard-response","377","741117","0.0-15.0-0.46","6127f94d2af664941ae3bf4f","64e77d7b61f440b60e28659d","64ecad8574543506d2c9cff4","null","null","<p style=""font-size: 60px; font-family: BACS"">amJmJud</p>","","","","","","","","",""
"html-keyboard-response","378","742128","0.0-15.0-0.47","6127f94d2af664941ae3bf4f","64e77d7b61f440b60e28659d","64ecad8574543506d2c9cff4","null","null","<p style=""font-size: 60px; font-family: BACS"">amJmJud</p>","","","","","","","","",""
"html-keyboard-response","379","743129","0.0-15.0-0.48","6127f94d2af664941ae3bf4f","64e77d7b61f440b60e28659d","64ecad8574543506d2c9cff4","null","null","<p style=""font-size: 60px; font-family: BACS"">amJmJud</p>","","","","","","","","",""
"html-keyboard-response","380","744142","0.0-15.0-0.49","6127f94d2af664941ae3bf4f","64e77d7b61f440b60e28659d","64ecad8574543506d2c9cff4","null","null","<p style=""font-size: 60px; font-family: BACS"">amJmJud</p>","","","","","","","","",""
"html-keyboard-response","381","745143","0.0-15.0-0.50","6127f94d2af664941ae3bf4f","64e77d7b61f440b60e28659d","64ecad8574543506d2c9cff4","null","null","<p style=""font-size: 60px; font-family: BACS"">amJmJud</p>","","","","","","","","",""
"html-keyboard-response","382","746144","0.0-15.0-0.51","6127f94d2af664941ae3bf4f","64e77d7b61f440b60e28659d","64ecad8574543506d2c9cff4","null","null","<p style=""font-size: 60px; font-family: BACS"">amJmJud</p>","","","","","","","","",""
"html-keyboard-response","383","747145","0.0-15.0-0.52","6127f94d2af664941ae3bf4f","64e77d7b61f440b60e28659d","64ecad8574543506d2c9cff4","null","null","<p style=""font-size: 60px; font-family: BACS"">amJmJud</p>","","","","","","","","",""
"html-keyboard-response","384","748146","0.0-15.0-0.53","6127f94d2af664941ae3bf4f","64e77d7b61f440b60e28659d","64ecad8574543506d2c9cff4","null","null","<p style=""font-size: 60px; font-family: BACS"">amJmJud</p>","","","","","","","","",""
"html-keyboard-response","385","749157","0.0-15.0-0.54","6127f94d2af664941ae3bf4f","64e77d7b61f440b60e28659d","64ecad8574543506d2c9cff4","null","null","<p style=""font-size: 60px; font-family: BACS"">amJmJud</p>","","","","","","","","",""
"html-keyboard-response","386","750172","0.0-15.0-0.55","6127f94d2af664941ae3bf4f","64e77d7b61f440b60e28659d","64ecad8574543506d2c9cff4","null","null","<p style=""font-size: 60px; font-family: BACS"">amJmJud</p>","","","","","","","","",""
"html-keyboard-response","387","751186","0.0-15.0-0.56","6127f94d2af664941ae3bf4f","64e77d7b61f440b60e28659d","64ecad8574543506d2c9cff4","null","null","<p style=""font-size: 60px; font-family: BACS"">amJmJud</p>","","","","","","","","",""
"html-keyboard-response","388","752187","0.0-15.0-0.57","6127f94d2af664941ae3bf4f","64e77d7b61f440b60e28659d","64ecad8574543506d2c9cff4","null","null","<p style=""font-size: 60px; font-family: BACS"">amJmJud</p>","","","","","","","","",""
"html-keyboard-response","389","753188","0.0-15.0-0.58","6127f94d2af664941ae3bf4f","64e77d7b61f440b60e28659d","64ecad8574543506d2c9cff4","null","null","<p style=""font-size: 60px; font-family: BACS"">amJmJud</p>","","","","","","","","",""
"html-keyboard-response","390","754189","0.0-15.0-0.59","6127f94d2af664941ae3bf4f","64e77d7b61f440b60e28659d","64ecad8574543506d2c9cff4","null","null","<p style=""font-size: 60px; font-family: BACS"">amJmJud</p>","","","","","","","","",""
"html-keyboard-response","391","755190","0.0-15.0-0.60","6127f94d2af664941ae3bf4f","64e77d7b61f440b60e28659d","64ecad8574543506d2c9cff4","null","null","<p style=""font-size: 60px; font-family: BACS"">amJmJud</p>","","","","","","","","",""
"html-keyboard-response","392","756191","0.0-15.0-0.61","6127f94d2af664941ae3bf4f","64e77d7b61f440b60e28659d","64ecad8574543506d2c9cff4","null","null","<p style=""font-size: 60px; font-family: BACS"">amJmJud</p>","","","","","","","","",""
"html-keyboard-response","393","757191","0.0-15.0-0.62","6127f94d2af664941ae3bf4f","64e77d7b61f440b60e28659d","64ecad8574543506d2c9cff4","null","null","<p style=""font-size: 60px; font-family: BACS"">amJmJud</p>","","","","","","","","",""
"html-keyboard-response","394","758192","0.0-15.0-0.63","6127f94d2af664941ae3bf4f","64e77d7b61f440b60e28659d","64ecad8574543506d2c9cff4","null","null","<p style=""font-size: 60px; font-family: BACS"">amJmJud</p>","","","","","","","","",""
"html-keyboard-response","395","759193","0.0-15.0-0.64","6127f94d2af664941ae3bf4f","64e77d7b61f440b60e28659d","64ecad8574543506d2c9cff4","null","null","<p style=""font-size: 60px; font-family: BACS"">amJmJud</p>","","","","","","","","",""
"html-keyboard-response","396","760198","0.0-15.0-0.65","6127f94d2af664941ae3bf4f","64e77d7b61f440b60e28659d","64ecad8574543506d2c9cff4","null","null","<p style=""font-size: 60px; font-family: BACS"">amJmJud</p>","","","","","","","","",""
"html-keyboard-response","397","761199","0.0-15.0-0.66","6127f94d2af664941ae3bf4f","64e77d7b61f440b60e28659d","64ecad8574543506d2c9cff4","null","null","<p style=""font-size: 60px; font-family: BACS"">amJmJud</p>","","","","","","","","",""
"html-keyboard-response","398","762200","0.0-15.0-0.67","6127f94d2af664941ae3bf4f","64e77d7b61f440b60e28659d","64ecad8574543506d2c9cff4","null","null","<p style=""font-size: 60px; font-family: BACS"">amJmJud</p>","","","","","","","","",""
"html-keyboard-response","399","763200","0.0-15.0-0.68","6127f94d2af664941ae3bf4f","64e77d7b61f440b60e28659d","64ecad8574543506d2c9cff4","null","null","<p style=""font-size: 60px; font-family: BACS"">amJmJud</p>","","","","","","","","",""
"html-keyboard-response","400","764203","0.0-15.0-0.69","6127f94d2af664941ae3bf4f","64e77d7b61f440b60e28659d","64ecad8574543506d2c9cff4","null","null","<p style=""font-size: 60px; font-family: BACS"">amJmJud</p>","","","","","","","","",""
