"trial_type","trial_index","time_elapsed","internal_node_id","subject_id","study_id","session_id","rt","response","stimulus","success","item","task","correct_response","testing_condition","correct","target","confound","name"
"pavlovia","0","846","0.0-0.0","5ecd21dec04cca02c9032485","650c16f0f2faf8d7a0d14c09","651d217eb0aecd8f9438a91f","","","","","","","","","","","",""
"survey-html-form","1","6908","0.0-1.0","5ecd21dec04cca02c9032485","650c16f0f2faf8d7a0d14c09","651d217eb0aecd8f9438a91f","6061","{""ID"":""5ecd21dec04cca02c9032485""}","","","","","","","","","",""
"html-keyboard-response","2","58495","0.0-2.0","5ecd21dec04cca02c9032485","650c16f0f2faf8d7a0d14c09","651d217eb0aecd8f9438a91f","51585"," ","<p style=""font-size: 15px;"">Before beginning, we ask that you read the consent information and confirm your agreement to participate in the experiment.</p>
      <p style=""font-size: 15px;""> We ask that you remember that this is a research project and that your participation is entirely voluntary. You can stop your participation at any time, without needing to provide any explanation. The study we're asking you to participate in aims at examining how readers process written words. You will be engaged in a session of apprximately 20 minutes, followed by a brief questionnaire. You will have the opportunity to take a few breaks during the experiment. You will be paid £4 for your participation, corresponding to a rate of £8/hour. While this experiment looks at cognitive faculties, this experiment doesn't constitute clinical proof of eventual pathologies.</p>
      <p style=""font-size: 15px;"">All of the information collected thanks to yours and others' participation will be held in a secure password-protected server, and will not be shared with anyone not authorised to view it. Your personal information will be kept with an arbitrary participant ID. Thanks to this data anonymity process, any researcher analysing the data won't be able to track the information back to a specific participant. Therefore, this process will make identifying you impossibile, even when results from the study will be published in scientific reviews, presented at congresses, or at any other public forum. More generally, the collected data will be treated in accordance with the laws on privacy and conformity to the Legislative Degree n. 196 ""Code regarding the protection of personal data"" of the 30th of June 2003 and to the European Regulation 2016/670 (General Data Protection Regulation - GDPR). The Data Protection Officer is Avv. Valentina Carollo, who can be contacted at the following email addresses: <a href=""mailto:dpo@sissa.it"">dpo@sissa.it</a> or <a href=""mailto:rpd@sissa.it"">rpd@sissa.it</a> - PEC: <a href=""mailto:protocollo@pec.sissa.it"">protocollo@pec.sissa.it</a>.</p>
      <p style=""font-size: 15px;""> Before expressing your consent to participate, we would like to remind you again that in case you need explanations on any aspect of the experimental procedure, the researcher is at your disposition (<a href=""mailto:aliebelt@sissa.it"">aliebelt@sissa.it</a>, <a href=""mailto:davide.crepaldi@sissa.it"">davide.crepaldi@sissa.it</a>).</p>
      <p style=""font-size: 15px;"">If you would like to download the informed consent form, you can do so here: <a href=""BASL-Informed_Consent.pdf"" download>informed consent form</a>.</p>
      <p style=""font-size: 15px;"">We ask that you press the spacebar to proceed to the consent section.</p>","","","","","","","","",""
"survey-html-form","3","69996","0.0-3.0","5ecd21dec04cca02c9032485","650c16f0f2faf8d7a0d14c09","651d217eb0aecd8f9438a91f","11499","{""consent1"":""YES"",""consent2"":""YES"",""consent3"":""YES"",""consent4"":""YES"",""consent5"":""YES"",""consent6"":""YES""}","","","","","","","","","",""
"fullscreen","4","75791","0.0-4.0","5ecd21dec04cca02c9032485","650c16f0f2faf8d7a0d14c09","651d217eb0aecd8f9438a91f","","","","true","","","","","","","",""
"html-keyboard-response","5","117174","0.0-5.0","5ecd21dec04cca02c9032485","650c16f0f2faf8d7a0d14c09","651d217eb0aecd8f9438a91f","41382"," ","<p>Welcome, and thank you very much for your time!</p>
      <p>In this experiment, you'll be a language expert who's been asked to take a look at words that Earth has received in its first communication with aliens. Your task, in this first part of the experiment, is to pay close attention to the words you'll be shown; later, world leaders will ask you questions on what you saw. The words will be shown to you quite quickly; it seems that the aliens were in a hurry :-)</p>
      <p>Press the spacebar to continue.<p>","","","","","","","","",""
"html-keyboard-response","6","117230","0.0-6.0","5ecd21dec04cca02c9032485","650c16f0f2faf8d7a0d14c09","651d217eb0aecd8f9438a91f","null","null","<p style=""font-size: 120px; font-family: BACS""> </p>","","","","","","","","",""
"html-keyboard-response","7","121389","0.0-7.0","5ecd21dec04cca02c9032485","650c16f0f2faf8d7a0d14c09","651d217eb0aecd8f9438a91f","4157"," ","<p>Here is an example of the words you'll see:</p>
      <img src='esempio.png' height='400px'>
      <p>When you're ready to begin, press the spacebar.</p></div>","","","","","","","","",""
"html-keyboard-response","8","122394","0.0-8.0-0.0","5ecd21dec04cca02c9032485","650c16f0f2faf8d7a0d14c09","651d217eb0aecd8f9438a91f","null","null","<p style=""font-size: 60px; font-family: BACS"">KRARmOBT</p>","","","","","","","","",""
"html-keyboard-response","9","123408","0.0-8.0-0.1","5ecd21dec04cca02c9032485","650c16f0f2faf8d7a0d14c09","651d217eb0aecd8f9438a91f","null","null","<p style=""font-size: 60px; font-family: BACS"">NaAQdvAvb</p>","","","","","","","","",""
"html-keyboard-response","10","124414","0.0-8.0-0.2","5ecd21dec04cca02c9032485","650c16f0f2faf8d7a0d14c09","651d217eb0aecd8f9438a91f","null","null","<p style=""font-size: 60px; font-family: BACS"">EMbDPOBT</p>","","","","","","","","",""
"html-keyboard-response","11","125427","0.0-8.0-0.3","5ecd21dec04cca02c9032485","650c16f0f2faf8d7a0d14c09","651d217eb0aecd8f9438a91f","null","null","<p style=""font-size: 60px; font-family: BACS"">EdBbDlDT</p>","","","","","","","","",""
"html-keyboard-response","12","126441","0.0-8.0-0.4","5ecd21dec04cca02c9032485","650c16f0f2faf8d7a0d14c09","651d217eb0aecd8f9438a91f","null","null","<p style=""font-size: 60px; font-family: BACS"">OdlNmcrdY</p>","","","","","","","","",""
"html-keyboard-response","13","127442","0.0-8.0-0.5","5ecd21dec04cca02c9032485","650c16f0f2faf8d7a0d14c09","651d217eb0aecd8f9438a91f","null","null","<p style=""font-size: 60px; font-family: BACS"">hBmMCDlDT</p>","","","","","","","","",""
"html-keyboard-response","14","128450","0.0-8.0-0.6","5ecd21dec04cca02c9032485","650c16f0f2faf8d7a0d14c09","651d217eb0aecd8f9438a91f","null","null","<p style=""font-size: 60px; font-family: BACS"">YJkbYZJO</p>","","","","","","","","",""
"html-keyboard-response","15","129459","0.0-8.0-0.7","5ecd21dec04cca02c9032485","650c16f0f2faf8d7a0d14c09","651d217eb0aecd8f9438a91f","null","null","<p style=""font-size: 60px; font-family: BACS"">EMbDPYbBT</p>","","","","","","","","",""
"html-keyboard-response","16","130467","0.0-8.0-0.8","5ecd21dec04cca02c9032485","650c16f0f2faf8d7a0d14c09","651d217eb0aecd8f9438a91f","null","null","<p style=""font-size: 60px; font-family: BACS"">MBKREDlDT</p>","","","","","","","","",""
"html-keyboard-response","17","131475","0.0-8.0-0.9","5ecd21dec04cca02c9032485","650c16f0f2faf8d7a0d14c09","651d217eb0aecd8f9438a91f","null","null","<p style=""font-size: 60px; font-family: BACS"">MDKPOBT</p>","","","","","","","","",""
"html-keyboard-response","18","132482","0.0-8.0-0.10","5ecd21dec04cca02c9032485","650c16f0f2faf8d7a0d14c09","651d217eb0aecd8f9438a91f","null","null","<p style=""font-size: 60px; font-family: BACS"">vkYGlcrdY</p>","","","","","","","","",""
"html-keyboard-response","19","133483","0.0-8.0-0.11","5ecd21dec04cca02c9032485","650c16f0f2faf8d7a0d14c09","651d217eb0aecd8f9438a91f","null","null","<p style=""font-size: 60px; font-family: BACS"">DhMtOBT</p>","","","","","","","","",""
"html-keyboard-response","20","134486","0.0-8.0-0.12","5ecd21dec04cca02c9032485","650c16f0f2faf8d7a0d14c09","651d217eb0aecd8f9438a91f","null","null","<p style=""font-size: 60px; font-family: BACS"">NaAQdcrdY</p>","","","","","","","","",""
"html-keyboard-response","21","135490","0.0-8.0-0.13","5ecd21dec04cca02c9032485","650c16f0f2faf8d7a0d14c09","651d217eb0aecd8f9438a91f","null","null","<p style=""font-size: 60px; font-family: BACS"">EMbDPAkd</p>","","","","","","","","",""
"html-keyboard-response","22","136501","0.0-8.0-0.14","5ecd21dec04cca02c9032485","650c16f0f2faf8d7a0d14c09","651d217eb0aecd8f9438a91f","null","null","<p style=""font-size: 60px; font-family: BACS"">vkYGlkam</p>","","","","","","","","",""
"html-keyboard-response","23","137519","0.0-8.0-0.15","5ecd21dec04cca02c9032485","650c16f0f2faf8d7a0d14c09","651d217eb0aecd8f9438a91f","null","null","<p style=""font-size: 60px; font-family: BACS"">JNkacrdY</p>","","","","","","","","",""
"html-keyboard-response","24","138531","0.0-8.0-0.16","5ecd21dec04cca02c9032485","650c16f0f2faf8d7a0d14c09","651d217eb0aecd8f9438a91f","null","null","<p style=""font-size: 60px; font-family: BACS"">EdBbAkd</p>","","","","","","","","",""
"html-keyboard-response","25","139537","0.0-8.0-0.17","5ecd21dec04cca02c9032485","650c16f0f2faf8d7a0d14c09","651d217eb0aecd8f9438a91f","null","null","<p style=""font-size: 60px; font-family: BACS"">AMkCTmTm</p>","","","","","","","","",""
"html-keyboard-response","26","140554","0.0-8.0-0.18","5ecd21dec04cca02c9032485","650c16f0f2faf8d7a0d14c09","651d217eb0aecd8f9438a91f","null","null","<p style=""font-size: 60px; font-family: BACS"">vQdOYZJO</p>","","","","","","","","",""
"html-keyboard-response","27","141558","0.0-8.0-0.19","5ecd21dec04cca02c9032485","650c16f0f2faf8d7a0d14c09","651d217eb0aecd8f9438a91f","null","null","<p style=""font-size: 60px; font-family: BACS"">MBKRETmTm</p>","","","","","","","","",""
"html-keyboard-response","28","142565","0.0-8.0-0.20","5ecd21dec04cca02c9032485","650c16f0f2faf8d7a0d14c09","651d217eb0aecd8f9438a91f","null","null","<p style=""font-size: 60px; font-family: BACS"">mBYlOBT</p>","","","","","","","","",""
"html-keyboard-response","29","143570","0.0-8.0-0.21","5ecd21dec04cca02c9032485","650c16f0f2faf8d7a0d14c09","651d217eb0aecd8f9438a91f","null","null","<p style=""font-size: 60px; font-family: BACS"">udkmvAvb</p>","","","","","","","","",""
"html-keyboard-response","30","144581","0.0-8.0-0.22","5ecd21dec04cca02c9032485","650c16f0f2faf8d7a0d14c09","651d217eb0aecd8f9438a91f","null","null","<p style=""font-size: 60px; font-family: BACS"">rLkmcrdY</p>","","","","","","","","",""
"html-keyboard-response","31","145589","0.0-8.0-0.23","5ecd21dec04cca02c9032485","650c16f0f2faf8d7a0d14c09","651d217eb0aecd8f9438a91f","null","null","<p style=""font-size: 60px; font-family: BACS"">MDKPAkd</p>","","","","","","","","",""
"html-keyboard-response","32","146598","0.0-8.0-0.24","5ecd21dec04cca02c9032485","650c16f0f2faf8d7a0d14c09","651d217eb0aecd8f9438a91f","null","null","<p style=""font-size: 60px; font-family: BACS"">JNkakam</p>","","","","","","","","",""
"html-keyboard-response","33","147606","0.0-8.0-0.25","5ecd21dec04cca02c9032485","650c16f0f2faf8d7a0d14c09","651d217eb0aecd8f9438a91f","null","null","<p style=""font-size: 60px; font-family: BACS"">MDKPDlDT</p>","","","","","","","","",""
"html-keyboard-response","34","148614","0.0-8.0-0.26","5ecd21dec04cca02c9032485","650c16f0f2faf8d7a0d14c09","651d217eb0aecd8f9438a91f","null","null","<p style=""font-size: 60px; font-family: BACS"">lrZGcrdY</p>","","","","","","","","",""
"html-keyboard-response","35","149621","0.0-8.0-0.27","5ecd21dec04cca02c9032485","650c16f0f2faf8d7a0d14c09","651d217eb0aecd8f9438a91f","null","null","<p style=""font-size: 60px; font-family: BACS"">EdBbYbBT</p>","","","","","","","","",""
"html-keyboard-response","36","150631","0.0-8.0-0.28","5ecd21dec04cca02c9032485","650c16f0f2faf8d7a0d14c09","651d217eb0aecd8f9438a91f","null","null","<p style=""font-size: 60px; font-family: BACS"">lYruavAvb</p>","","","","","","","","",""
"html-keyboard-response","37","151641","0.0-8.0-0.29","5ecd21dec04cca02c9032485","650c16f0f2faf8d7a0d14c09","651d217eb0aecd8f9438a91f","null","null","<p style=""font-size: 60px; font-family: BACS"">udkmkam</p>","","","","","","","","",""
"html-keyboard-response","38","152651","0.0-8.0-0.30","5ecd21dec04cca02c9032485","650c16f0f2faf8d7a0d14c09","651d217eb0aecd8f9438a91f","null","null","<p style=""font-size: 60px; font-family: BACS"">rLkmYZJO</p>","","","","","","","","",""
"html-keyboard-response","39","153662","0.0-8.0-0.31","5ecd21dec04cca02c9032485","650c16f0f2faf8d7a0d14c09","651d217eb0aecd8f9438a91f","null","null","<p style=""font-size: 60px; font-family: BACS"">KRARmAkd</p>","","","","","","","","",""
"html-keyboard-response","40","154670","0.0-8.0-0.32","5ecd21dec04cca02c9032485","650c16f0f2faf8d7a0d14c09","651d217eb0aecd8f9438a91f","null","null","<p style=""font-size: 60px; font-family: BACS"">OCmkOBT</p>","","","","","","","","",""
"html-keyboard-response","41","155679","0.0-8.0-0.33","5ecd21dec04cca02c9032485","650c16f0f2faf8d7a0d14c09","651d217eb0aecd8f9438a91f","null","null","<p style=""font-size: 60px; font-family: BACS"">lrZGYZJO</p>","","","","","","","","",""
"html-keyboard-response","42","156681","0.0-8.0-0.34","5ecd21dec04cca02c9032485","650c16f0f2faf8d7a0d14c09","651d217eb0aecd8f9438a91f","null","null","<p style=""font-size: 60px; font-family: BACS"">AMkCYbBT</p>","","","","","","","","",""
"html-keyboard-response","43","157687","0.0-8.0-0.35","5ecd21dec04cca02c9032485","650c16f0f2faf8d7a0d14c09","651d217eb0aecd8f9438a91f","null","null","<p style=""font-size: 60px; font-family: BACS"">hBmMCTmTm</p>","","","","","","","","",""
"html-keyboard-response","44","158694","0.0-8.0-0.36","5ecd21dec04cca02c9032485","650c16f0f2faf8d7a0d14c09","651d217eb0aecd8f9438a91f","null","null","<p style=""font-size: 60px; font-family: BACS"">MBKREYbBT</p>","","","","","","","","",""
"html-keyboard-response","45","159701","0.0-8.0-0.37","5ecd21dec04cca02c9032485","650c16f0f2faf8d7a0d14c09","651d217eb0aecd8f9438a91f","null","null","<p style=""font-size: 60px; font-family: BACS"">vkYGlvAvb</p>","","","","","","","","",""
"html-keyboard-response","46","160715","0.0-8.0-0.38","5ecd21dec04cca02c9032485","650c16f0f2faf8d7a0d14c09","651d217eb0aecd8f9438a91f","null","null","<p style=""font-size: 60px; font-family: BACS"">NaAQdArv</p>","","","","","","","","",""
"html-keyboard-response","47","161726","0.0-8.0-0.39","5ecd21dec04cca02c9032485","650c16f0f2faf8d7a0d14c09","651d217eb0aecd8f9438a91f","null","null","<p style=""font-size: 60px; font-family: BACS"">lrZGkam</p>","","","","","","","","",""
"html-keyboard-response","48","162729","0.0-8.0-0.40","5ecd21dec04cca02c9032485","650c16f0f2faf8d7a0d14c09","651d217eb0aecd8f9438a91f","null","null","<p style=""font-size: 60px; font-family: BACS"">lYruaYZJO</p>","","","","","","","","",""
"html-keyboard-response","49","163734","0.0-8.0-0.41","5ecd21dec04cca02c9032485","650c16f0f2faf8d7a0d14c09","651d217eb0aecd8f9438a91f","null","null","<p style=""font-size: 60px; font-family: BACS"">OCmkTmTm</p>","","","","","","","","",""
"html-keyboard-response","50","164751","0.0-8.0-0.42","5ecd21dec04cca02c9032485","650c16f0f2faf8d7a0d14c09","651d217eb0aecd8f9438a91f","null","null","<p style=""font-size: 60px; font-family: BACS"">OdlNmYZJO</p>","","","","","","","","",""
"html-keyboard-response","51","165759","0.0-8.0-0.43","5ecd21dec04cca02c9032485","650c16f0f2faf8d7a0d14c09","651d217eb0aecd8f9438a91f","null","null","<p style=""font-size: 60px; font-family: BACS"">AMkCAkd</p>","","","","","","","","",""
"html-keyboard-response","52","166761","0.0-8.0-0.44","5ecd21dec04cca02c9032485","650c16f0f2faf8d7a0d14c09","651d217eb0aecd8f9438a91f","null","null","<p style=""font-size: 60px; font-family: BACS"">hBmMCOBT</p>","","","","","","","","",""
"html-keyboard-response","53","167768","0.0-8.0-0.45","5ecd21dec04cca02c9032485","650c16f0f2faf8d7a0d14c09","651d217eb0aecd8f9438a91f","null","null","<p style=""font-size: 60px; font-family: BACS"">lYruaArv</p>","","","","","","","","",""
"html-keyboard-response","54","168771","0.0-8.0-0.46","5ecd21dec04cca02c9032485","650c16f0f2faf8d7a0d14c09","651d217eb0aecd8f9438a91f","null","null","<p style=""font-size: 60px; font-family: BACS"">mBYlDlDT</p>","","","","","","","","",""
"html-keyboard-response","55","169782","0.0-8.0-0.47","5ecd21dec04cca02c9032485","650c16f0f2faf8d7a0d14c09","651d217eb0aecd8f9438a91f","null","null","<p style=""font-size: 60px; font-family: BACS"">KRARmTmTm</p>","","","","","","","","",""
"html-keyboard-response","56","170790","0.0-8.0-0.48","5ecd21dec04cca02c9032485","650c16f0f2faf8d7a0d14c09","651d217eb0aecd8f9438a91f","null","null","<p style=""font-size: 60px; font-family: BACS"">lYruacrdY</p>","","","","","","","","",""
"html-keyboard-response","57","171797","0.0-8.0-0.49","5ecd21dec04cca02c9032485","650c16f0f2faf8d7a0d14c09","651d217eb0aecd8f9438a91f","null","null","<p style=""font-size: 60px; font-family: BACS"">EdBbTmTm</p>","","","","","","","","",""
"html-keyboard-response","58","172806","0.0-8.0-0.50","5ecd21dec04cca02c9032485","650c16f0f2faf8d7a0d14c09","651d217eb0aecd8f9438a91f","null","null","<p style=""font-size: 60px; font-family: BACS"">OdlNmkam</p>","","","","","","","","",""
"html-keyboard-response","59","173820","0.0-8.0-0.51","5ecd21dec04cca02c9032485","650c16f0f2faf8d7a0d14c09","651d217eb0aecd8f9438a91f","null","null","<p style=""font-size: 60px; font-family: BACS"">NaAQdYZJO</p>","","","","","","","","",""
"html-keyboard-response","60","174821","0.0-8.0-0.52","5ecd21dec04cca02c9032485","650c16f0f2faf8d7a0d14c09","651d217eb0aecd8f9438a91f","null","null","<p style=""font-size: 60px; font-family: BACS"">mBYlYbBT</p>","","","","","","","","",""
"html-keyboard-response","61","175826","0.0-8.0-0.53","5ecd21dec04cca02c9032485","650c16f0f2faf8d7a0d14c09","651d217eb0aecd8f9438a91f","null","null","<p style=""font-size: 60px; font-family: BACS"">MDKPTmTm</p>","","","","","","","","",""
"html-keyboard-response","62","176830","0.0-8.0-0.54","5ecd21dec04cca02c9032485","650c16f0f2faf8d7a0d14c09","651d217eb0aecd8f9438a91f","null","null","<p style=""font-size: 60px; font-family: BACS"">vQdOArv</p>","","","","","","","","",""
"html-keyboard-response","63","177837","0.0-8.0-0.55","5ecd21dec04cca02c9032485","650c16f0f2faf8d7a0d14c09","651d217eb0aecd8f9438a91f","null","null","<p style=""font-size: 60px; font-family: BACS"">YJkbkam</p>","","","","","","","","",""
"html-keyboard-response","64","178846","0.0-8.0-0.56","5ecd21dec04cca02c9032485","650c16f0f2faf8d7a0d14c09","651d217eb0aecd8f9438a91f","null","null","<p style=""font-size: 60px; font-family: BACS"">lrZGvAvb</p>","","","","","","","","",""
"html-keyboard-response","65","179863","0.0-8.0-0.57","5ecd21dec04cca02c9032485","650c16f0f2faf8d7a0d14c09","651d217eb0aecd8f9438a91f","null","null","<p style=""font-size: 60px; font-family: BACS"">DhMtTmTm</p>","","","","","","","","",""
"html-keyboard-response","66","180871","0.0-8.0-0.58","5ecd21dec04cca02c9032485","650c16f0f2faf8d7a0d14c09","651d217eb0aecd8f9438a91f","null","null","<p style=""font-size: 60px; font-family: BACS"">MBKREOBT</p>","","","","","","","","",""
"html-keyboard-response","67","181878","0.0-8.0-0.59","5ecd21dec04cca02c9032485","650c16f0f2faf8d7a0d14c09","651d217eb0aecd8f9438a91f","null","null","<p style=""font-size: 60px; font-family: BACS"">DhMtAkd</p>","","","","","","","","",""
"html-keyboard-response","68","182890","0.0-8.0-0.60","5ecd21dec04cca02c9032485","650c16f0f2faf8d7a0d14c09","651d217eb0aecd8f9438a91f","null","null","<p style=""font-size: 60px; font-family: BACS"">vQdOvAvb</p>","","","","","","","","",""
"html-keyboard-response","69","183909","0.0-8.0-0.61","5ecd21dec04cca02c9032485","650c16f0f2faf8d7a0d14c09","651d217eb0aecd8f9438a91f","null","null","<p style=""font-size: 60px; font-family: BACS"">EMbDPDlDT</p>","","","","","","","","",""
"html-keyboard-response","70","184914","0.0-8.0-0.62","5ecd21dec04cca02c9032485","650c16f0f2faf8d7a0d14c09","651d217eb0aecd8f9438a91f","null","null","<p style=""font-size: 60px; font-family: BACS"">vkYGlArv</p>","","","","","","","","",""
"html-keyboard-response","71","185922","0.0-8.0-0.63","5ecd21dec04cca02c9032485","650c16f0f2faf8d7a0d14c09","651d217eb0aecd8f9438a91f","null","null","<p style=""font-size: 60px; font-family: BACS"">vQdOkam</p>","","","","","","","","",""
"html-keyboard-response","72","186927","0.0-8.0-0.64","5ecd21dec04cca02c9032485","650c16f0f2faf8d7a0d14c09","651d217eb0aecd8f9438a91f","null","null","<p style=""font-size: 60px; font-family: BACS"">AMkCDlDT</p>","","","","","","","","",""
"html-keyboard-response","73","187940","0.0-8.0-0.65","5ecd21dec04cca02c9032485","650c16f0f2faf8d7a0d14c09","651d217eb0aecd8f9438a91f","null","null","<p style=""font-size: 60px; font-family: BACS"">udkmArv</p>","","","","","","","","",""
"html-keyboard-response","74","188950","0.0-8.0-0.66","5ecd21dec04cca02c9032485","650c16f0f2faf8d7a0d14c09","651d217eb0aecd8f9438a91f","null","null","<p style=""font-size: 60px; font-family: BACS"">KRARmYbBT</p>","","","","","","","","",""
"html-keyboard-response","75","189959","0.0-8.0-0.67","5ecd21dec04cca02c9032485","650c16f0f2faf8d7a0d14c09","651d217eb0aecd8f9438a91f","null","null","<p style=""font-size: 60px; font-family: BACS"">mBYlAkd</p>","","","","","","","","",""
"html-keyboard-response","76","190970","0.0-8.0-0.68","5ecd21dec04cca02c9032485","650c16f0f2faf8d7a0d14c09","651d217eb0aecd8f9438a91f","null","null","<p style=""font-size: 60px; font-family: BACS"">JNkaArv</p>","","","","","","","","",""
"html-keyboard-response","77","191984","0.0-8.0-0.69","5ecd21dec04cca02c9032485","650c16f0f2faf8d7a0d14c09","651d217eb0aecd8f9438a91f","null","null","<p style=""font-size: 60px; font-family: BACS"">OCmkAkd</p>","","","","","","","","",""
"html-keyboard-response","78","192990","0.0-8.0-0.70","5ecd21dec04cca02c9032485","650c16f0f2faf8d7a0d14c09","651d217eb0aecd8f9438a91f","null","null","<p style=""font-size: 60px; font-family: BACS"">udkmcrdY</p>","","","","","","","","",""
"html-keyboard-response","79","193995","0.0-8.0-0.71","5ecd21dec04cca02c9032485","650c16f0f2faf8d7a0d14c09","651d217eb0aecd8f9438a91f","null","null","<p style=""font-size: 60px; font-family: BACS"">OCmkYbBT</p>","","","","","","","","",""
"html-keyboard-response","80","195006","0.0-8.0-0.72","5ecd21dec04cca02c9032485","650c16f0f2faf8d7a0d14c09","651d217eb0aecd8f9438a91f","null","null","<p style=""font-size: 60px; font-family: BACS"">YJkbvAvb</p>","","","","","","","","",""
"html-keyboard-response","81","196019","0.0-8.0-0.73","5ecd21dec04cca02c9032485","650c16f0f2faf8d7a0d14c09","651d217eb0aecd8f9438a91f","null","null","<p style=""font-size: 60px; font-family: BACS"">rLkmkam</p>","","","","","","","","",""
"html-keyboard-response","82","197025","0.0-8.0-0.74","5ecd21dec04cca02c9032485","650c16f0f2faf8d7a0d14c09","651d217eb0aecd8f9438a91f","null","null","<p style=""font-size: 60px; font-family: BACS"">DhMtDlDT</p>","","","","","","","","",""
"html-keyboard-response","83","198036","0.0-8.0-0.75","5ecd21dec04cca02c9032485","650c16f0f2faf8d7a0d14c09","651d217eb0aecd8f9438a91f","null","null","<p style=""font-size: 60px; font-family: BACS"">JNkaYZJO</p>","","","","","","","","",""
"html-keyboard-response","84","199049","0.0-8.0-0.76","5ecd21dec04cca02c9032485","650c16f0f2faf8d7a0d14c09","651d217eb0aecd8f9438a91f","null","null","<p style=""font-size: 60px; font-family: BACS"">hBmMCYbBT</p>","","","","","","","","",""
"html-keyboard-response","85","200058","0.0-8.0-0.77","5ecd21dec04cca02c9032485","650c16f0f2faf8d7a0d14c09","651d217eb0aecd8f9438a91f","null","null","<p style=""font-size: 60px; font-family: BACS"">YJkbArv</p>","","","","","","","","",""
"html-keyboard-response","86","201068","0.0-8.0-0.78","5ecd21dec04cca02c9032485","650c16f0f2faf8d7a0d14c09","651d217eb0aecd8f9438a91f","null","null","<p style=""font-size: 60px; font-family: BACS"">rLkmvAvb</p>","","","","","","","","",""
"html-keyboard-response","87","202074","0.0-8.0-0.79","5ecd21dec04cca02c9032485","650c16f0f2faf8d7a0d14c09","651d217eb0aecd8f9438a91f","null","null","<p style=""font-size: 60px; font-family: BACS"">OdlNmArv</p>","","","","","","","","",""
"html-keyboard-response","88","208773","0.0-9.0","5ecd21dec04cca02c9032485","650c16f0f2faf8d7a0d14c09","651d217eb0aecd8f9438a91f","6697"," ","<p>Great, you've seen the first block of words. You may now take a short break.</p>
      <p>Press the spacebar when you're ready to continue.</p>","","","","","","","","",""
"html-keyboard-response","89","209790","0.0-10.0-0.0","5ecd21dec04cca02c9032485","650c16f0f2faf8d7a0d14c09","651d217eb0aecd8f9438a91f","null","null","<p style=""font-size: 60px; font-family: BACS"">hBmMCDlDT</p>","","","","","","","","",""
"html-keyboard-response","90","210804","0.0-10.0-0.1","5ecd21dec04cca02c9032485","650c16f0f2faf8d7a0d14c09","651d217eb0aecd8f9438a91f","null","null","<p style=""font-size: 60px; font-family: BACS"">DhMtTmTm</p>","","","","","","","","",""
"html-keyboard-response","91","211807","0.0-10.0-0.2","5ecd21dec04cca02c9032485","650c16f0f2faf8d7a0d14c09","651d217eb0aecd8f9438a91f","null","null","<p style=""font-size: 60px; font-family: BACS"">MDKPOBT</p>","","","","","","","","",""
"html-keyboard-response","92","212817","0.0-10.0-0.3","5ecd21dec04cca02c9032485","650c16f0f2faf8d7a0d14c09","651d217eb0aecd8f9438a91f","null","null","<p style=""font-size: 60px; font-family: BACS"">udkmvAvb</p>","","","","","","","","",""
"html-keyboard-response","93","213830","0.0-10.0-0.4","5ecd21dec04cca02c9032485","650c16f0f2faf8d7a0d14c09","651d217eb0aecd8f9438a91f","null","null","<p style=""font-size: 60px; font-family: BACS"">OCmkOBT</p>","","","","","","","","",""
"html-keyboard-response","94","214837","0.0-10.0-0.5","5ecd21dec04cca02c9032485","650c16f0f2faf8d7a0d14c09","651d217eb0aecd8f9438a91f","null","null","<p style=""font-size: 60px; font-family: BACS"">MDKPAkd</p>","","","","","","","","",""
"html-keyboard-response","95","215845","0.0-10.0-0.6","5ecd21dec04cca02c9032485","650c16f0f2faf8d7a0d14c09","651d217eb0aecd8f9438a91f","null","null","<p style=""font-size: 60px; font-family: BACS"">AMkCDlDT</p>","","","","","","","","",""
"html-keyboard-response","96","216850","0.0-10.0-0.7","5ecd21dec04cca02c9032485","650c16f0f2faf8d7a0d14c09","651d217eb0aecd8f9438a91f","null","null","<p style=""font-size: 60px; font-family: BACS"">EdBbYbBT</p>","","","","","","","","",""
"html-keyboard-response","97","217865","0.0-10.0-0.8","5ecd21dec04cca02c9032485","650c16f0f2faf8d7a0d14c09","651d217eb0aecd8f9438a91f","null","null","<p style=""font-size: 60px; font-family: BACS"">YJkbvAvb</p>","","","","","","","","",""
"html-keyboard-response","98","218880","0.0-10.0-0.9","5ecd21dec04cca02c9032485","650c16f0f2faf8d7a0d14c09","651d217eb0aecd8f9438a91f","null","null","<p style=""font-size: 60px; font-family: BACS"">hBmMCOBT</p>","","","","","","","","",""
"html-keyboard-response","99","219894","0.0-10.0-0.10","5ecd21dec04cca02c9032485","650c16f0f2faf8d7a0d14c09","651d217eb0aecd8f9438a91f","null","null","<p style=""font-size: 60px; font-family: BACS"">rLkmYZJO</p>","","","","","","","","",""
"html-keyboard-response","100","220899","0.0-10.0-0.11","5ecd21dec04cca02c9032485","650c16f0f2faf8d7a0d14c09","651d217eb0aecd8f9438a91f","null","null","<p style=""font-size: 60px; font-family: BACS"">JNkaArv</p>","","","","","","","","",""
"html-keyboard-response","101","221910","0.0-10.0-0.12","5ecd21dec04cca02c9032485","650c16f0f2faf8d7a0d14c09","651d217eb0aecd8f9438a91f","null","null","<p style=""font-size: 60px; font-family: BACS"">MDKPTmTm</p>","","","","","","","","",""
"html-keyboard-response","102","222916","0.0-10.0-0.13","5ecd21dec04cca02c9032485","650c16f0f2faf8d7a0d14c09","651d217eb0aecd8f9438a91f","null","null","<p style=""font-size: 60px; font-family: BACS"">OdlNmkam</p>","","","","","","","","",""
"html-keyboard-response","103","223918","0.0-10.0-0.14","5ecd21dec04cca02c9032485","650c16f0f2faf8d7a0d14c09","651d217eb0aecd8f9438a91f","null","null","<p style=""font-size: 60px; font-family: BACS"">mBYlOBT</p>","","","","","","","","",""
"html-keyboard-response","104","224922","0.0-10.0-0.15","5ecd21dec04cca02c9032485","650c16f0f2faf8d7a0d14c09","651d217eb0aecd8f9438a91f","null","null","<p style=""font-size: 60px; font-family: BACS"">EdBbTmTm</p>","","","","","","","","",""
"html-keyboard-response","105","225928","0.0-10.0-0.16","5ecd21dec04cca02c9032485","650c16f0f2faf8d7a0d14c09","651d217eb0aecd8f9438a91f","null","null","<p style=""font-size: 60px; font-family: BACS"">OdlNmYZJO</p>","","","","","","","","",""
"html-keyboard-response","106","226929","0.0-10.0-0.17","5ecd21dec04cca02c9032485","650c16f0f2faf8d7a0d14c09","651d217eb0aecd8f9438a91f","null","null","<p style=""font-size: 60px; font-family: BACS"">AMkCAkd</p>","","","","","","","","",""
"html-keyboard-response","107","227949","0.0-10.0-0.18","5ecd21dec04cca02c9032485","650c16f0f2faf8d7a0d14c09","651d217eb0aecd8f9438a91f","null","null","<p style=""font-size: 60px; font-family: BACS"">JNkacrdY</p>","","","","","","","","",""
"html-keyboard-response","108","228960","0.0-10.0-0.19","5ecd21dec04cca02c9032485","650c16f0f2faf8d7a0d14c09","651d217eb0aecd8f9438a91f","null","null","<p style=""font-size: 60px; font-family: BACS"">EdBbAkd</p>","","","","","","","","",""
"html-keyboard-response","109","229973","0.0-10.0-0.20","5ecd21dec04cca02c9032485","650c16f0f2faf8d7a0d14c09","651d217eb0aecd8f9438a91f","null","null","<p style=""font-size: 60px; font-family: BACS"">EMbDPDlDT</p>","","","","","","","","",""
"html-keyboard-response","110","230981","0.0-10.0-0.21","5ecd21dec04cca02c9032485","650c16f0f2faf8d7a0d14c09","651d217eb0aecd8f9438a91f","null","null","<p style=""font-size: 60px; font-family: BACS"">lrZGkam</p>","","","","","","","","",""
"html-keyboard-response","111","231992","0.0-10.0-0.22","5ecd21dec04cca02c9032485","650c16f0f2faf8d7a0d14c09","651d217eb0aecd8f9438a91f","null","null","<p style=""font-size: 60px; font-family: BACS"">MBKREOBT</p>","","","","","","","","",""
"html-keyboard-response","112","232994","0.0-10.0-0.23","5ecd21dec04cca02c9032485","650c16f0f2faf8d7a0d14c09","651d217eb0aecd8f9438a91f","null","null","<p style=""font-size: 60px; font-family: BACS"">lrZGYZJO</p>","","","","","","","","",""
"html-keyboard-response","113","233997","0.0-10.0-0.24","5ecd21dec04cca02c9032485","650c16f0f2faf8d7a0d14c09","651d217eb0aecd8f9438a91f","null","null","<p style=""font-size: 60px; font-family: BACS"">vkYGlcrdY</p>","","","","","","","","",""
"html-keyboard-response","114","235010","0.0-10.0-0.25","5ecd21dec04cca02c9032485","650c16f0f2faf8d7a0d14c09","651d217eb0aecd8f9438a91f","null","null","<p style=""font-size: 60px; font-family: BACS"">EMbDPAkd</p>","","","","","","","","",""
"html-keyboard-response","115","236016","0.0-10.0-0.26","5ecd21dec04cca02c9032485","650c16f0f2faf8d7a0d14c09","651d217eb0aecd8f9438a91f","null","null","<p style=""font-size: 60px; font-family: BACS"">OdlNmArv</p>","","","","","","","","",""
"html-keyboard-response","116","237025","0.0-10.0-0.27","5ecd21dec04cca02c9032485","650c16f0f2faf8d7a0d14c09","651d217eb0aecd8f9438a91f","null","null","<p style=""font-size: 60px; font-family: BACS"">lrZGcrdY</p>","","","","","","","","",""
"html-keyboard-response","117","238030","0.0-10.0-0.28","5ecd21dec04cca02c9032485","650c16f0f2faf8d7a0d14c09","651d217eb0aecd8f9438a91f","null","null","<p style=""font-size: 60px; font-family: BACS"">JNkakam</p>","","","","","","","","",""
"html-keyboard-response","118","239038","0.0-10.0-0.29","5ecd21dec04cca02c9032485","650c16f0f2faf8d7a0d14c09","651d217eb0aecd8f9438a91f","null","null","<p style=""font-size: 60px; font-family: BACS"">AMkCYbBT</p>","","","","","","","","",""
"html-keyboard-response","119","240040","0.0-10.0-0.30","5ecd21dec04cca02c9032485","650c16f0f2faf8d7a0d14c09","651d217eb0aecd8f9438a91f","null","null","<p style=""font-size: 60px; font-family: BACS"">OdlNmcrdY</p>","","","","","","","","",""
"html-keyboard-response","120","241056","0.0-10.0-0.31","5ecd21dec04cca02c9032485","650c16f0f2faf8d7a0d14c09","651d217eb0aecd8f9438a91f","null","null","<p style=""font-size: 60px; font-family: BACS"">KRARmYbBT</p>","","","","","","","","",""
"html-keyboard-response","121","242065","0.0-10.0-0.32","5ecd21dec04cca02c9032485","650c16f0f2faf8d7a0d14c09","651d217eb0aecd8f9438a91f","null","null","<p style=""font-size: 60px; font-family: BACS"">MBKREDlDT</p>","","","","","","","","",""
"html-keyboard-response","122","243081","0.0-10.0-0.33","5ecd21dec04cca02c9032485","650c16f0f2faf8d7a0d14c09","651d217eb0aecd8f9438a91f","null","null","<p style=""font-size: 60px; font-family: BACS"">EMbDPOBT</p>","","","","","","","","",""
"html-keyboard-response","123","244090","0.0-10.0-0.34","5ecd21dec04cca02c9032485","650c16f0f2faf8d7a0d14c09","651d217eb0aecd8f9438a91f","null","null","<p style=""font-size: 60px; font-family: BACS"">rLkmcrdY</p>","","","","","","","","",""
"html-keyboard-response","124","245105","0.0-10.0-0.35","5ecd21dec04cca02c9032485","650c16f0f2faf8d7a0d14c09","651d217eb0aecd8f9438a91f","null","null","<p style=""font-size: 60px; font-family: BACS"">vkYGlkam</p>","","","","","","","","",""
"html-keyboard-response","125","246111","0.0-10.0-0.36","5ecd21dec04cca02c9032485","650c16f0f2faf8d7a0d14c09","651d217eb0aecd8f9438a91f","null","null","<p style=""font-size: 60px; font-family: BACS"">vQdOvAvb</p>","","","","","","","","",""
"html-keyboard-response","126","247113","0.0-10.0-0.37","5ecd21dec04cca02c9032485","650c16f0f2faf8d7a0d14c09","651d217eb0aecd8f9438a91f","null","null","<p style=""font-size: 60px; font-family: BACS"">MBKRETmTm</p>","","","","","","","","",""
"html-keyboard-response","127","248117","0.0-10.0-0.38","5ecd21dec04cca02c9032485","650c16f0f2faf8d7a0d14c09","651d217eb0aecd8f9438a91f","null","null","<p style=""font-size: 60px; font-family: BACS"">vQdOkam</p>","","","","","","","","",""
"html-keyboard-response","128","249121","0.0-10.0-0.39","5ecd21dec04cca02c9032485","650c16f0f2faf8d7a0d14c09","651d217eb0aecd8f9438a91f","null","null","<p style=""font-size: 60px; font-family: BACS"">YJkbYZJO</p>","","","","","","","","",""
"html-keyboard-response","129","250124","0.0-10.0-0.40","5ecd21dec04cca02c9032485","650c16f0f2faf8d7a0d14c09","651d217eb0aecd8f9438a91f","null","null","<p style=""font-size: 60px; font-family: BACS"">lrZGvAvb</p>","","","","","","","","",""
"html-keyboard-response","130","251130","0.0-10.0-0.41","5ecd21dec04cca02c9032485","650c16f0f2faf8d7a0d14c09","651d217eb0aecd8f9438a91f","null","null","<p style=""font-size: 60px; font-family: BACS"">MBKREYbBT</p>","","","","","","","","",""
"html-keyboard-response","131","252146","0.0-10.0-0.42","5ecd21dec04cca02c9032485","650c16f0f2faf8d7a0d14c09","651d217eb0aecd8f9438a91f","null","null","<p style=""font-size: 60px; font-family: BACS"">lYruaYZJO</p>","","","","","","","","",""
"html-keyboard-response","132","253153","0.0-10.0-0.43","5ecd21dec04cca02c9032485","650c16f0f2faf8d7a0d14c09","651d217eb0aecd8f9438a91f","null","null","<p style=""font-size: 60px; font-family: BACS"">hBmMCTmTm</p>","","","","","","","","",""
"html-keyboard-response","133","254161","0.0-10.0-0.44","5ecd21dec04cca02c9032485","650c16f0f2faf8d7a0d14c09","651d217eb0aecd8f9438a91f","null","null","<p style=""font-size: 60px; font-family: BACS"">JNkaYZJO</p>","","","","","","","","",""
"html-keyboard-response","134","255171","0.0-10.0-0.45","5ecd21dec04cca02c9032485","650c16f0f2faf8d7a0d14c09","651d217eb0aecd8f9438a91f","null","null","<p style=""font-size: 60px; font-family: BACS"">mBYlYbBT</p>","","","","","","","","",""
"html-keyboard-response","135","256191","0.0-10.0-0.46","5ecd21dec04cca02c9032485","650c16f0f2faf8d7a0d14c09","651d217eb0aecd8f9438a91f","null","null","<p style=""font-size: 60px; font-family: BACS"">OCmkTmTm</p>","","","","","","","","",""
"html-keyboard-response","136","257195","0.0-10.0-0.47","5ecd21dec04cca02c9032485","650c16f0f2faf8d7a0d14c09","651d217eb0aecd8f9438a91f","null","null","<p style=""font-size: 60px; font-family: BACS"">hBmMCYbBT</p>","","","","","","","","",""
"html-keyboard-response","137","258206","0.0-10.0-0.48","5ecd21dec04cca02c9032485","650c16f0f2faf8d7a0d14c09","651d217eb0aecd8f9438a91f","null","null","<p style=""font-size: 60px; font-family: BACS"">NaAQdvAvb</p>","","","","","","","","",""
"html-keyboard-response","138","259211","0.0-10.0-0.49","5ecd21dec04cca02c9032485","650c16f0f2faf8d7a0d14c09","651d217eb0aecd8f9438a91f","null","null","<p style=""font-size: 60px; font-family: BACS"">udkmArv</p>","","","","","","","","",""
"html-keyboard-response","139","260221","0.0-10.0-0.50","5ecd21dec04cca02c9032485","650c16f0f2faf8d7a0d14c09","651d217eb0aecd8f9438a91f","null","null","<p style=""font-size: 60px; font-family: BACS"">vQdOYZJO</p>","","","","","","","","",""
"html-keyboard-response","140","261227","0.0-10.0-0.51","5ecd21dec04cca02c9032485","650c16f0f2faf8d7a0d14c09","651d217eb0aecd8f9438a91f","null","null","<p style=""font-size: 60px; font-family: BACS"">lYruavAvb</p>","","","","","","","","",""
"html-keyboard-response","141","262239","0.0-10.0-0.52","5ecd21dec04cca02c9032485","650c16f0f2faf8d7a0d14c09","651d217eb0aecd8f9438a91f","null","null","<p style=""font-size: 60px; font-family: BACS"">DhMtDlDT</p>","","","","","","","","",""
"html-keyboard-response","142","263255","0.0-10.0-0.53","5ecd21dec04cca02c9032485","650c16f0f2faf8d7a0d14c09","651d217eb0aecd8f9438a91f","null","null","<p style=""font-size: 60px; font-family: BACS"">vkYGlArv</p>","","","","","","","","",""
"html-keyboard-response","143","264257","0.0-10.0-0.54","5ecd21dec04cca02c9032485","650c16f0f2faf8d7a0d14c09","651d217eb0aecd8f9438a91f","null","null","<p style=""font-size: 60px; font-family: BACS"">mBYlAkd</p>","","","","","","","","",""
"html-keyboard-response","144","265271","0.0-10.0-0.55","5ecd21dec04cca02c9032485","650c16f0f2faf8d7a0d14c09","651d217eb0aecd8f9438a91f","null","null","<p style=""font-size: 60px; font-family: BACS"">vQdOArv</p>","","","","","","","","",""
"html-keyboard-response","145","266279","0.0-10.0-0.56","5ecd21dec04cca02c9032485","650c16f0f2faf8d7a0d14c09","651d217eb0aecd8f9438a91f","null","null","<p style=""font-size: 60px; font-family: BACS"">EdBbDlDT</p>","","","","","","","","",""
"html-keyboard-response","146","267291","0.0-10.0-0.57","5ecd21dec04cca02c9032485","650c16f0f2faf8d7a0d14c09","651d217eb0aecd8f9438a91f","null","null","<p style=""font-size: 60px; font-family: BACS"">EMbDPYbBT</p>","","","","","","","","",""
"html-keyboard-response","147","268306","0.0-10.0-0.58","5ecd21dec04cca02c9032485","650c16f0f2faf8d7a0d14c09","651d217eb0aecd8f9438a91f","null","null","<p style=""font-size: 60px; font-family: BACS"">NaAQdcrdY</p>","","","","","","","","",""
"html-keyboard-response","148","269315","0.0-10.0-0.59","5ecd21dec04cca02c9032485","650c16f0f2faf8d7a0d14c09","651d217eb0aecd8f9438a91f","null","null","<p style=""font-size: 60px; font-family: BACS"">mBYlDlDT</p>","","","","","","","","",""
"html-keyboard-response","149","270317","0.0-10.0-0.60","5ecd21dec04cca02c9032485","650c16f0f2faf8d7a0d14c09","651d217eb0aecd8f9438a91f","null","null","<p style=""font-size: 60px; font-family: BACS"">udkmkam</p>","","","","","","","","",""
"html-keyboard-response","150","271325","0.0-10.0-0.61","5ecd21dec04cca02c9032485","650c16f0f2faf8d7a0d14c09","651d217eb0aecd8f9438a91f","null","null","<p style=""font-size: 60px; font-family: BACS"">OCmkAkd</p>","","","","","","","","",""
"html-keyboard-response","151","272338","0.0-10.0-0.62","5ecd21dec04cca02c9032485","650c16f0f2faf8d7a0d14c09","651d217eb0aecd8f9438a91f","null","null","<p style=""font-size: 60px; font-family: BACS"">udkmcrdY</p>","","","","","","","","",""
"html-keyboard-response","152","273351","0.0-10.0-0.63","5ecd21dec04cca02c9032485","650c16f0f2faf8d7a0d14c09","651d217eb0aecd8f9438a91f","null","null","<p style=""font-size: 60px; font-family: BACS"">YJkbkam</p>","","","","","","","","",""
"html-keyboard-response","153","274358","0.0-10.0-0.64","5ecd21dec04cca02c9032485","650c16f0f2faf8d7a0d14c09","651d217eb0aecd8f9438a91f","null","null","<p style=""font-size: 60px; font-family: BACS"">DhMtAkd</p>","","","","","","","","",""
"html-keyboard-response","154","275369","0.0-10.0-0.65","5ecd21dec04cca02c9032485","650c16f0f2faf8d7a0d14c09","651d217eb0aecd8f9438a91f","null","null","<p style=""font-size: 60px; font-family: BACS"">OCmkYbBT</p>","","","","","","","","",""
"html-keyboard-response","155","276375","0.0-10.0-0.66","5ecd21dec04cca02c9032485","650c16f0f2faf8d7a0d14c09","651d217eb0aecd8f9438a91f","null","null","<p style=""font-size: 60px; font-family: BACS"">rLkmkam</p>","","","","","","","","",""
"html-keyboard-response","156","277389","0.0-10.0-0.67","5ecd21dec04cca02c9032485","650c16f0f2faf8d7a0d14c09","651d217eb0aecd8f9438a91f","null","null","<p style=""font-size: 60px; font-family: BACS"">KRARmAkd</p>","","","","","","","","",""
"html-keyboard-response","157","278392","0.0-10.0-0.68","5ecd21dec04cca02c9032485","650c16f0f2faf8d7a0d14c09","651d217eb0aecd8f9438a91f","null","null","<p style=""font-size: 60px; font-family: BACS"">YJkbArv</p>","","","","","","","","",""
"html-keyboard-response","158","279396","0.0-10.0-0.69","5ecd21dec04cca02c9032485","650c16f0f2faf8d7a0d14c09","651d217eb0aecd8f9438a91f","null","null","<p style=""font-size: 60px; font-family: BACS"">KRARmOBT</p>","","","","","","","","",""
"html-keyboard-response","159","280398","0.0-10.0-0.70","5ecd21dec04cca02c9032485","650c16f0f2faf8d7a0d14c09","651d217eb0aecd8f9438a91f","null","null","<p style=""font-size: 60px; font-family: BACS"">AMkCTmTm</p>","","","","","","","","",""
"html-keyboard-response","160","281406","0.0-10.0-0.71","5ecd21dec04cca02c9032485","650c16f0f2faf8d7a0d14c09","651d217eb0aecd8f9438a91f","null","null","<p style=""font-size: 60px; font-family: BACS"">lYruaArv</p>","","","","","","","","",""
"html-keyboard-response","161","282411","0.0-10.0-0.72","5ecd21dec04cca02c9032485","650c16f0f2faf8d7a0d14c09","651d217eb0aecd8f9438a91f","null","null","<p style=""font-size: 60px; font-family: BACS"">vkYGlvAvb</p>","","","","","","","","",""
"html-keyboard-response","162","283416","0.0-10.0-0.73","5ecd21dec04cca02c9032485","650c16f0f2faf8d7a0d14c09","651d217eb0aecd8f9438a91f","null","null","<p style=""font-size: 60px; font-family: BACS"">MDKPDlDT</p>","","","","","","","","",""
"html-keyboard-response","163","284418","0.0-10.0-0.74","5ecd21dec04cca02c9032485","650c16f0f2faf8d7a0d14c09","651d217eb0aecd8f9438a91f","null","null","<p style=""font-size: 60px; font-family: BACS"">NaAQdArv</p>","","","","","","","","",""
"html-keyboard-response","164","285431","0.0-10.0-0.75","5ecd21dec04cca02c9032485","650c16f0f2faf8d7a0d14c09","651d217eb0aecd8f9438a91f","null","null","<p style=""font-size: 60px; font-family: BACS"">KRARmTmTm</p>","","","","","","","","",""
"html-keyboard-response","165","286433","0.0-10.0-0.76","5ecd21dec04cca02c9032485","650c16f0f2faf8d7a0d14c09","651d217eb0aecd8f9438a91f","null","null","<p style=""font-size: 60px; font-family: BACS"">NaAQdYZJO</p>","","","","","","","","",""
"html-keyboard-response","166","287445","0.0-10.0-0.77","5ecd21dec04cca02c9032485","650c16f0f2faf8d7a0d14c09","651d217eb0aecd8f9438a91f","null","null","<p style=""font-size: 60px; font-family: BACS"">DhMtOBT</p>","","","","","","","","",""
"html-keyboard-response","167","288454","0.0-10.0-0.78","5ecd21dec04cca02c9032485","650c16f0f2faf8d7a0d14c09","651d217eb0aecd8f9438a91f","null","null","<p style=""font-size: 60px; font-family: BACS"">rLkmvAvb</p>","","","","","","","","",""
"html-keyboard-response","168","289470","0.0-10.0-0.79","5ecd21dec04cca02c9032485","650c16f0f2faf8d7a0d14c09","651d217eb0aecd8f9438a91f","null","null","<p style=""font-size: 60px; font-family: BACS"">lYruacrdY</p>","","","","","","","","",""
"html-keyboard-response","169","291642","0.0-11.0","5ecd21dec04cca02c9032485","650c16f0f2faf8d7a0d14c09","651d217eb0aecd8f9438a91f","2172"," ","<p>Great, you've seen the second block of words. You may now take a short break.</p>
      <p>Press the spacebar when you're ready to continue.</p>","","","","","","","","",""
"html-keyboard-response","170","292648","0.0-12.0-0.0","5ecd21dec04cca02c9032485","650c16f0f2faf8d7a0d14c09","651d217eb0aecd8f9438a91f","null","null","<p style=""font-size: 60px; font-family: BACS"">NaAQdYZJO</p>","","","","","","","","",""
"html-keyboard-response","171","293653","0.0-12.0-0.1","5ecd21dec04cca02c9032485","650c16f0f2faf8d7a0d14c09","651d217eb0aecd8f9438a91f","null","null","<p style=""font-size: 60px; font-family: BACS"">DhMtTmTm</p>","","","","","","","","",""
"html-keyboard-response","172","294661","0.0-12.0-0.2","5ecd21dec04cca02c9032485","650c16f0f2faf8d7a0d14c09","651d217eb0aecd8f9438a91f","null","null","<p style=""font-size: 60px; font-family: BACS"">OdlNmYZJO</p>","","","","","","","","",""
"html-keyboard-response","173","295663","0.0-12.0-0.3","5ecd21dec04cca02c9032485","650c16f0f2faf8d7a0d14c09","651d217eb0aecd8f9438a91f","null","null","<p style=""font-size: 60px; font-family: BACS"">hBmMCOBT</p>","","","","","","","","",""
"html-keyboard-response","174","296667","0.0-12.0-0.4","5ecd21dec04cca02c9032485","650c16f0f2faf8d7a0d14c09","651d217eb0aecd8f9438a91f","null","null","<p style=""font-size: 60px; font-family: BACS"">EdBbTmTm</p>","","","","","","","","",""
"html-keyboard-response","175","297675","0.0-12.0-0.5","5ecd21dec04cca02c9032485","650c16f0f2faf8d7a0d14c09","651d217eb0aecd8f9438a91f","null","null","<p style=""font-size: 60px; font-family: BACS"">YJkbvAvb</p>","","","","","","","","",""
"html-keyboard-response","176","298684","0.0-12.0-0.6","5ecd21dec04cca02c9032485","650c16f0f2faf8d7a0d14c09","651d217eb0aecd8f9438a91f","null","null","<p style=""font-size: 60px; font-family: BACS"">hBmMCTmTm</p>","","","","","","","","",""
"html-keyboard-response","177","299691","0.0-12.0-0.7","5ecd21dec04cca02c9032485","650c16f0f2faf8d7a0d14c09","651d217eb0aecd8f9438a91f","null","null","<p style=""font-size: 60px; font-family: BACS"">mBYlOBT</p>","","","","","","","","",""
"html-keyboard-response","178","300703","0.0-12.0-0.8","5ecd21dec04cca02c9032485","650c16f0f2faf8d7a0d14c09","651d217eb0aecd8f9438a91f","null","null","<p style=""font-size: 60px; font-family: BACS"">OdlNmkam</p>","","","","","","","","",""
"html-keyboard-response","179","301705","0.0-12.0-0.9","5ecd21dec04cca02c9032485","650c16f0f2faf8d7a0d14c09","651d217eb0aecd8f9438a91f","null","null","<p style=""font-size: 60px; font-family: BACS"">lYruaYZJO</p>","","","","","","","","",""
"html-keyboard-response","180","302715","0.0-12.0-0.10","5ecd21dec04cca02c9032485","650c16f0f2faf8d7a0d14c09","651d217eb0aecd8f9438a91f","null","null","<p style=""font-size: 60px; font-family: BACS"">EdBbDlDT</p>","","","","","","","","",""
"html-keyboard-response","181","303730","0.0-12.0-0.11","5ecd21dec04cca02c9032485","650c16f0f2faf8d7a0d14c09","651d217eb0aecd8f9438a91f","null","null","<p style=""font-size: 60px; font-family: BACS"">MBKRETmTm</p>","","","","","","","","",""
"html-keyboard-response","182","304747","0.0-12.0-0.12","5ecd21dec04cca02c9032485","650c16f0f2faf8d7a0d14c09","651d217eb0aecd8f9438a91f","null","null","<p style=""font-size: 60px; font-family: BACS"">vQdOkam</p>","","","","","","","","",""
"html-keyboard-response","183","305762","0.0-12.0-0.13","5ecd21dec04cca02c9032485","650c16f0f2faf8d7a0d14c09","651d217eb0aecd8f9438a91f","null","null","<p style=""font-size: 60px; font-family: BACS"">EdBbAkd</p>","","","","","","","","",""
"html-keyboard-response","184","306763","0.0-12.0-0.14","5ecd21dec04cca02c9032485","650c16f0f2faf8d7a0d14c09","651d217eb0aecd8f9438a91f","null","null","<p style=""font-size: 60px; font-family: BACS"">OdlNmcrdY</p>","","","","","","","","",""
"html-keyboard-response","185","307778","0.0-12.0-0.15","5ecd21dec04cca02c9032485","650c16f0f2faf8d7a0d14c09","651d217eb0aecd8f9438a91f","null","null","<p style=""font-size: 60px; font-family: BACS"">JNkaArv</p>","","","","","","","","",""
"html-keyboard-response","186","308791","0.0-12.0-0.16","5ecd21dec04cca02c9032485","650c16f0f2faf8d7a0d14c09","651d217eb0aecd8f9438a91f","null","null","<p style=""font-size: 60px; font-family: BACS"">AMkCYbBT</p>","","","","","","","","",""
"html-keyboard-response","187","309807","0.0-12.0-0.17","5ecd21dec04cca02c9032485","650c16f0f2faf8d7a0d14c09","651d217eb0aecd8f9438a91f","null","null","<p style=""font-size: 60px; font-family: BACS"">lrZGvAvb</p>","","","","","","","","",""
"html-keyboard-response","188","310815","0.0-12.0-0.18","5ecd21dec04cca02c9032485","650c16f0f2faf8d7a0d14c09","651d217eb0aecd8f9438a91f","null","null","<p style=""font-size: 60px; font-family: BACS"">EMbDPYbBT</p>","","","","","","","","",""
"html-keyboard-response","189","311831","0.0-12.0-0.19","5ecd21dec04cca02c9032485","650c16f0f2faf8d7a0d14c09","651d217eb0aecd8f9438a91f","null","null","<p style=""font-size: 60px; font-family: BACS"">OCmkTmTm</p>","","","","","","","","",""
"html-keyboard-response","190","312842","0.0-12.0-0.20","5ecd21dec04cca02c9032485","650c16f0f2faf8d7a0d14c09","651d217eb0aecd8f9438a91f","null","null","<p style=""font-size: 60px; font-family: BACS"">MDKPOBT</p>","","","","","","","","",""
"html-keyboard-response","191","313850","0.0-12.0-0.21","5ecd21dec04cca02c9032485","650c16f0f2faf8d7a0d14c09","651d217eb0aecd8f9438a91f","null","null","<p style=""font-size: 60px; font-family: BACS"">vQdOArv</p>","","","","","","","","",""
"html-keyboard-response","192","314856","0.0-12.0-0.22","5ecd21dec04cca02c9032485","650c16f0f2faf8d7a0d14c09","651d217eb0aecd8f9438a91f","null","null","<p style=""font-size: 60px; font-family: BACS"">vkYGlcrdY</p>","","","","","","","","",""
"html-keyboard-response","193","315865","0.0-12.0-0.23","5ecd21dec04cca02c9032485","650c16f0f2faf8d7a0d14c09","651d217eb0aecd8f9438a91f","null","null","<p style=""font-size: 60px; font-family: BACS"">DhMtDlDT</p>","","","","","","","","",""
"html-keyboard-response","194","316869","0.0-12.0-0.24","5ecd21dec04cca02c9032485","650c16f0f2faf8d7a0d14c09","651d217eb0aecd8f9438a91f","null","null","<p style=""font-size: 60px; font-family: BACS"">udkmcrdY</p>","","","","","","","","",""
"html-keyboard-response","195","317885","0.0-12.0-0.25","5ecd21dec04cca02c9032485","650c16f0f2faf8d7a0d14c09","651d217eb0aecd8f9438a91f","null","null","<p style=""font-size: 60px; font-family: BACS"">mBYlDlDT</p>","","","","","","","","",""
"html-keyboard-response","196","318892","0.0-12.0-0.26","5ecd21dec04cca02c9032485","650c16f0f2faf8d7a0d14c09","651d217eb0aecd8f9438a91f","null","null","<p style=""font-size: 60px; font-family: BACS"">lrZGkam</p>","","","","","","","","",""
"html-keyboard-response","197","319902","0.0-12.0-0.27","5ecd21dec04cca02c9032485","650c16f0f2faf8d7a0d14c09","651d217eb0aecd8f9438a91f","null","null","<p style=""font-size: 60px; font-family: BACS"">AMkCAkd</p>","","","","","","","","",""
"html-keyboard-response","198","320912","0.0-12.0-0.28","5ecd21dec04cca02c9032485","650c16f0f2faf8d7a0d14c09","651d217eb0aecd8f9438a91f","null","null","<p style=""font-size: 60px; font-family: BACS"">MDKPDlDT</p>","","","","","","","","",""
"html-keyboard-response","199","321926","0.0-12.0-0.29","5ecd21dec04cca02c9032485","650c16f0f2faf8d7a0d14c09","651d217eb0aecd8f9438a91f","null","null","<p style=""font-size: 60px; font-family: BACS"">KRARmOBT</p>","","","","","","","","",""
"html-keyboard-response","200","322933","0.0-12.0-0.30","5ecd21dec04cca02c9032485","650c16f0f2faf8d7a0d14c09","651d217eb0aecd8f9438a91f","null","null","<p style=""font-size: 60px; font-family: BACS"">EMbDPDlDT</p>","","","","","","","","",""
"html-keyboard-response","201","323943","0.0-12.0-0.31","5ecd21dec04cca02c9032485","650c16f0f2faf8d7a0d14c09","651d217eb0aecd8f9438a91f","null","null","<p style=""font-size: 60px; font-family: BACS"">MBKREOBT</p>","","","","","","","","",""
"html-keyboard-response","202","324957","0.0-12.0-0.32","5ecd21dec04cca02c9032485","650c16f0f2faf8d7a0d14c09","651d217eb0aecd8f9438a91f","null","null","<p style=""font-size: 60px; font-family: BACS"">AMkCTmTm</p>","","","","","","","","",""
"html-keyboard-response","203","325972","0.0-12.0-0.33","5ecd21dec04cca02c9032485","650c16f0f2faf8d7a0d14c09","651d217eb0aecd8f9438a91f","null","null","<p style=""font-size: 60px; font-family: BACS"">lYruacrdY</p>","","","","","","","","",""
"html-keyboard-response","204","326980","0.0-12.0-0.34","5ecd21dec04cca02c9032485","650c16f0f2faf8d7a0d14c09","651d217eb0aecd8f9438a91f","null","null","<p style=""font-size: 60px; font-family: BACS"">MDKPAkd</p>","","","","","","","","",""
"html-keyboard-response","205","327994","0.0-12.0-0.35","5ecd21dec04cca02c9032485","650c16f0f2faf8d7a0d14c09","651d217eb0aecd8f9438a91f","null","null","<p style=""font-size: 60px; font-family: BACS"">udkmArv</p>","","","","","","","","",""
"html-keyboard-response","206","329008","0.0-12.0-0.36","5ecd21dec04cca02c9032485","650c16f0f2faf8d7a0d14c09","651d217eb0aecd8f9438a91f","null","null","<p style=""font-size: 60px; font-family: BACS"">lYruavAvb</p>","","","","","","","","",""
"html-keyboard-response","207","330010","0.0-12.0-0.37","5ecd21dec04cca02c9032485","650c16f0f2faf8d7a0d14c09","651d217eb0aecd8f9438a91f","null","null","<p style=""font-size: 60px; font-family: BACS"">MBKREYbBT</p>","","","","","","","","",""
"html-keyboard-response","208","331022","0.0-12.0-0.38","5ecd21dec04cca02c9032485","650c16f0f2faf8d7a0d14c09","651d217eb0aecd8f9438a91f","null","null","<p style=""font-size: 60px; font-family: BACS"">YJkbkam</p>","","","","","","","","",""
"html-keyboard-response","209","332036","0.0-12.0-0.39","5ecd21dec04cca02c9032485","650c16f0f2faf8d7a0d14c09","651d217eb0aecd8f9438a91f","null","null","<p style=""font-size: 60px; font-family: BACS"">JNkacrdY</p>","","","","","","","","",""
"html-keyboard-response","210","333053","0.0-12.0-0.40","5ecd21dec04cca02c9032485","650c16f0f2faf8d7a0d14c09","651d217eb0aecd8f9438a91f","null","null","<p style=""font-size: 60px; font-family: BACS"">rLkmvAvb</p>","","","","","","","","",""
"html-keyboard-response","211","334067","0.0-12.0-0.41","5ecd21dec04cca02c9032485","650c16f0f2faf8d7a0d14c09","651d217eb0aecd8f9438a91f","null","null","<p style=""font-size: 60px; font-family: BACS"">OCmkOBT</p>","","","","","","","","",""
"html-keyboard-response","212","335083","0.0-12.0-0.42","5ecd21dec04cca02c9032485","650c16f0f2faf8d7a0d14c09","651d217eb0aecd8f9438a91f","null","null","<p style=""font-size: 60px; font-family: BACS"">rLkmcrdY</p>","","","","","","","","",""
"html-keyboard-response","213","336096","0.0-12.0-0.43","5ecd21dec04cca02c9032485","650c16f0f2faf8d7a0d14c09","651d217eb0aecd8f9438a91f","null","null","<p style=""font-size: 60px; font-family: BACS"">vkYGlvAvb</p>","","","","","","","","",""
"html-keyboard-response","214","337108","0.0-12.0-0.44","5ecd21dec04cca02c9032485","650c16f0f2faf8d7a0d14c09","651d217eb0aecd8f9438a91f","null","null","<p style=""font-size: 60px; font-family: BACS"">hBmMCDlDT</p>","","","","","","","","",""
"html-keyboard-response","215","338123","0.0-12.0-0.45","5ecd21dec04cca02c9032485","650c16f0f2faf8d7a0d14c09","651d217eb0aecd8f9438a91f","null","null","<p style=""font-size: 60px; font-family: BACS"">KRARmAkd</p>","","","","","","","","",""
"html-keyboard-response","216","339133","0.0-12.0-0.46","5ecd21dec04cca02c9032485","650c16f0f2faf8d7a0d14c09","651d217eb0aecd8f9438a91f","null","null","<p style=""font-size: 60px; font-family: BACS"">JNkaYZJO</p>","","","","","","","","",""
"html-keyboard-response","217","340148","0.0-12.0-0.47","5ecd21dec04cca02c9032485","650c16f0f2faf8d7a0d14c09","651d217eb0aecd8f9438a91f","null","null","<p style=""font-size: 60px; font-family: BACS"">mBYlAkd</p>","","","","","","","","",""
"html-keyboard-response","218","341162","0.0-12.0-0.48","5ecd21dec04cca02c9032485","650c16f0f2faf8d7a0d14c09","651d217eb0aecd8f9438a91f","null","null","<p style=""font-size: 60px; font-family: BACS"">vQdOvAvb</p>","","","","","","","","",""
"html-keyboard-response","219","342177","0.0-12.0-0.49","5ecd21dec04cca02c9032485","650c16f0f2faf8d7a0d14c09","651d217eb0aecd8f9438a91f","null","null","<p style=""font-size: 60px; font-family: BACS"">DhMtOBT</p>","","","","","","","","",""
"html-keyboard-response","220","343191","0.0-12.0-0.50","5ecd21dec04cca02c9032485","650c16f0f2faf8d7a0d14c09","651d217eb0aecd8f9438a91f","null","null","<p style=""font-size: 60px; font-family: BACS"">YJkbArv</p>","","","","","","","","",""
"html-keyboard-response","221","344207","0.0-12.0-0.51","5ecd21dec04cca02c9032485","650c16f0f2faf8d7a0d14c09","651d217eb0aecd8f9438a91f","null","null","<p style=""font-size: 60px; font-family: BACS"">MDKPTmTm</p>","","","","","","","","",""
"html-keyboard-response","222","345208","0.0-12.0-0.52","5ecd21dec04cca02c9032485","650c16f0f2faf8d7a0d14c09","651d217eb0aecd8f9438a91f","null","null","<p style=""font-size: 60px; font-family: BACS"">YJkbYZJO</p>","","","","","","","","",""
"html-keyboard-response","223","346221","0.0-12.0-0.53","5ecd21dec04cca02c9032485","650c16f0f2faf8d7a0d14c09","651d217eb0aecd8f9438a91f","null","null","<p style=""font-size: 60px; font-family: BACS"">MBKREDlDT</p>","","","","","","","","",""
"html-keyboard-response","224","347236","0.0-12.0-0.54","5ecd21dec04cca02c9032485","650c16f0f2faf8d7a0d14c09","651d217eb0aecd8f9438a91f","null","null","<p style=""font-size: 60px; font-family: BACS"">vQdOYZJO</p>","","","","","","","","",""
"html-keyboard-response","225","348251","0.0-12.0-0.55","5ecd21dec04cca02c9032485","650c16f0f2faf8d7a0d14c09","651d217eb0aecd8f9438a91f","null","null","<p style=""font-size: 60px; font-family: BACS"">AMkCDlDT</p>","","","","","","","","",""
"html-keyboard-response","226","349265","0.0-12.0-0.56","5ecd21dec04cca02c9032485","650c16f0f2faf8d7a0d14c09","651d217eb0aecd8f9438a91f","null","null","<p style=""font-size: 60px; font-family: BACS"">NaAQdvAvb</p>","","","","","","","","",""
"html-keyboard-response","227","350279","0.0-12.0-0.57","5ecd21dec04cca02c9032485","650c16f0f2faf8d7a0d14c09","651d217eb0aecd8f9438a91f","null","null","<p style=""font-size: 60px; font-family: BACS"">DhMtAkd</p>","","","","","","","","",""
"html-keyboard-response","228","351288","0.0-12.0-0.58","5ecd21dec04cca02c9032485","650c16f0f2faf8d7a0d14c09","651d217eb0aecd8f9438a91f","null","null","<p style=""font-size: 60px; font-family: BACS"">OCmkYbBT</p>","","","","","","","","",""
"html-keyboard-response","229","352289","0.0-12.0-0.59","5ecd21dec04cca02c9032485","650c16f0f2faf8d7a0d14c09","651d217eb0aecd8f9438a91f","null","null","<p style=""font-size: 60px; font-family: BACS"">udkmvAvb</p>","","","","","","","","",""
"html-keyboard-response","230","353299","0.0-12.0-0.60","5ecd21dec04cca02c9032485","650c16f0f2faf8d7a0d14c09","651d217eb0aecd8f9438a91f","null","null","<p style=""font-size: 60px; font-family: BACS"">hBmMCYbBT</p>","","","","","","","","",""
"html-keyboard-response","231","354313","0.0-12.0-0.61","5ecd21dec04cca02c9032485","650c16f0f2faf8d7a0d14c09","651d217eb0aecd8f9438a91f","null","null","<p style=""font-size: 60px; font-family: BACS"">KRARmTmTm</p>","","","","","","","","",""
"html-keyboard-response","232","355328","0.0-12.0-0.62","5ecd21dec04cca02c9032485","650c16f0f2faf8d7a0d14c09","651d217eb0aecd8f9438a91f","null","null","<p style=""font-size: 60px; font-family: BACS"">lrZGYZJO</p>","","","","","","","","",""
"html-keyboard-response","233","356339","0.0-12.0-0.63","5ecd21dec04cca02c9032485","650c16f0f2faf8d7a0d14c09","651d217eb0aecd8f9438a91f","null","null","<p style=""font-size: 60px; font-family: BACS"">lYruaArv</p>","","","","","","","","",""
"html-keyboard-response","234","357354","0.0-12.0-0.64","5ecd21dec04cca02c9032485","650c16f0f2faf8d7a0d14c09","651d217eb0aecd8f9438a91f","null","null","<p style=""font-size: 60px; font-family: BACS"">lrZGcrdY</p>","","","","","","","","",""
"html-keyboard-response","235","358365","0.0-12.0-0.65","5ecd21dec04cca02c9032485","650c16f0f2faf8d7a0d14c09","651d217eb0aecd8f9438a91f","null","null","<p style=""font-size: 60px; font-family: BACS"">NaAQdArv</p>","","","","","","","","",""
"html-keyboard-response","236","359376","0.0-12.0-0.66","5ecd21dec04cca02c9032485","650c16f0f2faf8d7a0d14c09","651d217eb0aecd8f9438a91f","null","null","<p style=""font-size: 60px; font-family: BACS"">EdBbYbBT</p>","","","","","","","","",""
"html-keyboard-response","237","360390","0.0-12.0-0.67","5ecd21dec04cca02c9032485","650c16f0f2faf8d7a0d14c09","651d217eb0aecd8f9438a91f","null","null","<p style=""font-size: 60px; font-family: BACS"">NaAQdcrdY</p>","","","","","","","","",""
"html-keyboard-response","238","361405","0.0-12.0-0.68","5ecd21dec04cca02c9032485","650c16f0f2faf8d7a0d14c09","651d217eb0aecd8f9438a91f","null","null","<p style=""font-size: 60px; font-family: BACS"">JNkakam</p>","","","","","","","","",""
"html-keyboard-response","239","362419","0.0-12.0-0.69","5ecd21dec04cca02c9032485","650c16f0f2faf8d7a0d14c09","651d217eb0aecd8f9438a91f","null","null","<p style=""font-size: 60px; font-family: BACS"">mBYlYbBT</p>","","","","","","","","",""
"html-keyboard-response","240","363435","0.0-12.0-0.70","5ecd21dec04cca02c9032485","650c16f0f2faf8d7a0d14c09","651d217eb0aecd8f9438a91f","null","null","<p style=""font-size: 60px; font-family: BACS"">vkYGlArv</p>","","","","","","","","",""
"html-keyboard-response","241","364446","0.0-12.0-0.71","5ecd21dec04cca02c9032485","650c16f0f2faf8d7a0d14c09","651d217eb0aecd8f9438a91f","null","null","<p style=""font-size: 60px; font-family: BACS"">OCmkAkd</p>","","","","","","","","",""
"html-keyboard-response","242","365458","0.0-12.0-0.72","5ecd21dec04cca02c9032485","650c16f0f2faf8d7a0d14c09","651d217eb0aecd8f9438a91f","null","null","<p style=""font-size: 60px; font-family: BACS"">OdlNmArv</p>","","","","","","","","",""
"html-keyboard-response","243","366469","0.0-12.0-0.73","5ecd21dec04cca02c9032485","650c16f0f2faf8d7a0d14c09","651d217eb0aecd8f9438a91f","null","null","<p style=""font-size: 60px; font-family: BACS"">rLkmYZJO</p>","","","","","","","","",""
"html-keyboard-response","244","367484","0.0-12.0-0.74","5ecd21dec04cca02c9032485","650c16f0f2faf8d7a0d14c09","651d217eb0aecd8f9438a91f","null","null","<p style=""font-size: 60px; font-family: BACS"">EMbDPAkd</p>","","","","","","","","",""
"html-keyboard-response","245","368494","0.0-12.0-0.75","5ecd21dec04cca02c9032485","650c16f0f2faf8d7a0d14c09","651d217eb0aecd8f9438a91f","null","null","<p style=""font-size: 60px; font-family: BACS"">rLkmkam</p>","","","","","","","","",""
"html-keyboard-response","246","369509","0.0-12.0-0.76","5ecd21dec04cca02c9032485","650c16f0f2faf8d7a0d14c09","651d217eb0aecd8f9438a91f","null","null","<p style=""font-size: 60px; font-family: BACS"">KRARmYbBT</p>","","","","","","","","",""
"html-keyboard-response","247","370521","0.0-12.0-0.77","5ecd21dec04cca02c9032485","650c16f0f2faf8d7a0d14c09","651d217eb0aecd8f9438a91f","null","null","<p style=""font-size: 60px; font-family: BACS"">udkmkam</p>","","","","","","","","",""
"html-keyboard-response","248","371537","0.0-12.0-0.78","5ecd21dec04cca02c9032485","650c16f0f2faf8d7a0d14c09","651d217eb0aecd8f9438a91f","null","null","<p style=""font-size: 60px; font-family: BACS"">EMbDPOBT</p>","","","","","","","","",""
"html-keyboard-response","249","372549","0.0-12.0-0.79","5ecd21dec04cca02c9032485","650c16f0f2faf8d7a0d14c09","651d217eb0aecd8f9438a91f","null","null","<p style=""font-size: 60px; font-family: BACS"">vkYGlkam</p>","","","","","","","","",""
"html-keyboard-response","250","383810","0.0-13.0","5ecd21dec04cca02c9032485","650c16f0f2faf8d7a0d14c09","651d217eb0aecd8f9438a91f","11260"," ","<p>Great, you've seen the third block of words. You may now take a short break.</p>
      <p>Press the spacebar when you're ready to continue.</p>","","","","","","","","",""
"html-keyboard-response","251","384814","0.0-14.0-0.0","5ecd21dec04cca02c9032485","650c16f0f2faf8d7a0d14c09","651d217eb0aecd8f9438a91f","null","null","<p style=""font-size: 60px; font-family: BACS"">JNkaYZJO</p>","","","","","","","","",""
"html-keyboard-response","252","385830","0.0-14.0-0.1","5ecd21dec04cca02c9032485","650c16f0f2faf8d7a0d14c09","651d217eb0aecd8f9438a91f","null","null","<p style=""font-size: 60px; font-family: BACS"">vkYGlcrdY</p>","","","","","","","","",""
"html-keyboard-response","253","386841","0.0-14.0-0.2","5ecd21dec04cca02c9032485","650c16f0f2faf8d7a0d14c09","651d217eb0aecd8f9438a91f","null","null","<p style=""font-size: 60px; font-family: BACS"">KRARmYbBT</p>","","","","","","","","",""
"html-keyboard-response","254","387854","0.0-14.0-0.3","5ecd21dec04cca02c9032485","650c16f0f2faf8d7a0d14c09","651d217eb0aecd8f9438a91f","null","null","<p style=""font-size: 60px; font-family: BACS"">lYruaArv</p>","","","","","","","","",""
"html-keyboard-response","255","388870","0.0-14.0-0.4","5ecd21dec04cca02c9032485","650c16f0f2faf8d7a0d14c09","651d217eb0aecd8f9438a91f","null","null","<p style=""font-size: 60px; font-family: BACS"">hBmMCOBT</p>","","","","","","","","",""
"html-keyboard-response","256","389883","0.0-14.0-0.5","5ecd21dec04cca02c9032485","650c16f0f2faf8d7a0d14c09","651d217eb0aecd8f9438a91f","null","null","<p style=""font-size: 60px; font-family: BACS"">lYruaYZJO</p>","","","","","","","","",""
"html-keyboard-response","257","390884","0.0-14.0-0.6","5ecd21dec04cca02c9032485","650c16f0f2faf8d7a0d14c09","651d217eb0aecd8f9438a91f","null","null","<p style=""font-size: 60px; font-family: BACS"">MDKPDlDT</p>","","","","","","","","",""
"html-keyboard-response","258","391885","0.0-14.0-0.7","5ecd21dec04cca02c9032485","650c16f0f2faf8d7a0d14c09","651d217eb0aecd8f9438a91f","null","null","<p style=""font-size: 60px; font-family: BACS"">YJkbYZJO</p>","","","","","","","","",""
"html-keyboard-response","259","392897","0.0-14.0-0.8","5ecd21dec04cca02c9032485","650c16f0f2faf8d7a0d14c09","651d217eb0aecd8f9438a91f","null","null","<p style=""font-size: 60px; font-family: BACS"">mBYlDlDT</p>","","","","","","","","",""
"html-keyboard-response","260","393909","0.0-14.0-0.9","5ecd21dec04cca02c9032485","650c16f0f2faf8d7a0d14c09","651d217eb0aecd8f9438a91f","null","null","<p style=""font-size: 60px; font-family: BACS"">vQdOYZJO</p>","","","","","","","","",""
"html-keyboard-response","261","394917","0.0-14.0-0.10","5ecd21dec04cca02c9032485","650c16f0f2faf8d7a0d14c09","651d217eb0aecd8f9438a91f","null","null","<p style=""font-size: 60px; font-family: BACS"">KRARmOBT</p>","","","","","","","","",""
"html-keyboard-response","262","395930","0.0-14.0-0.11","5ecd21dec04cca02c9032485","650c16f0f2faf8d7a0d14c09","651d217eb0aecd8f9438a91f","null","null","<p style=""font-size: 60px; font-family: BACS"">OdlNmArv</p>","","","","","","","","",""
"html-keyboard-response","263","396942","0.0-14.0-0.12","5ecd21dec04cca02c9032485","650c16f0f2faf8d7a0d14c09","651d217eb0aecd8f9438a91f","null","null","<p style=""font-size: 60px; font-family: BACS"">KRARmAkd</p>","","","","","","","","",""
"html-keyboard-response","264","397956","0.0-14.0-0.13","5ecd21dec04cca02c9032485","650c16f0f2faf8d7a0d14c09","651d217eb0aecd8f9438a91f","null","null","<p style=""font-size: 60px; font-family: BACS"">rLkmcrdY</p>","","","","","","","","",""
"html-keyboard-response","265","398971","0.0-14.0-0.14","5ecd21dec04cca02c9032485","650c16f0f2faf8d7a0d14c09","651d217eb0aecd8f9438a91f","null","null","<p style=""font-size: 60px; font-family: BACS"">OCmkAkd</p>","","","","","","","","",""
"html-keyboard-response","266","399985","0.0-14.0-0.15","5ecd21dec04cca02c9032485","650c16f0f2faf8d7a0d14c09","651d217eb0aecd8f9438a91f","null","null","<p style=""font-size: 60px; font-family: BACS"">udkmArv</p>","","","","","","","","",""
"html-keyboard-response","267","400987","0.0-14.0-0.16","5ecd21dec04cca02c9032485","650c16f0f2faf8d7a0d14c09","651d217eb0aecd8f9438a91f","null","null","<p style=""font-size: 60px; font-family: BACS"">lrZGcrdY</p>","","","","","","","","",""
"html-keyboard-response","268","402000","0.0-14.0-0.17","5ecd21dec04cca02c9032485","650c16f0f2faf8d7a0d14c09","651d217eb0aecd8f9438a91f","null","null","<p style=""font-size: 60px; font-family: BACS"">EdBbDlDT</p>","","","","","","","","",""
"html-keyboard-response","269","403012","0.0-14.0-0.18","5ecd21dec04cca02c9032485","650c16f0f2faf8d7a0d14c09","651d217eb0aecd8f9438a91f","null","null","<p style=""font-size: 60px; font-family: BACS"">mBYlOBT</p>","","","","","","","","",""
"html-keyboard-response","270","404025","0.0-14.0-0.19","5ecd21dec04cca02c9032485","650c16f0f2faf8d7a0d14c09","651d217eb0aecd8f9438a91f","null","null","<p style=""font-size: 60px; font-family: BACS"">lrZGkam</p>","","","","","","","","",""
"html-keyboard-response","271","405039","0.0-14.0-0.20","5ecd21dec04cca02c9032485","650c16f0f2faf8d7a0d14c09","651d217eb0aecd8f9438a91f","null","null","<p style=""font-size: 60px; font-family: BACS"">udkmcrdY</p>","","","","","","","","",""
"html-keyboard-response","272","406053","0.0-14.0-0.21","5ecd21dec04cca02c9032485","650c16f0f2faf8d7a0d14c09","651d217eb0aecd8f9438a91f","null","null","<p style=""font-size: 60px; font-family: BACS"">NaAQdYZJO</p>","","","","","","","","",""
"html-keyboard-response","273","407063","0.0-14.0-0.22","5ecd21dec04cca02c9032485","650c16f0f2faf8d7a0d14c09","651d217eb0aecd8f9438a91f","null","null","<p style=""font-size: 60px; font-family: BACS"">JNkakam</p>","","","","","","","","",""
"html-keyboard-response","274","408066","0.0-14.0-0.23","5ecd21dec04cca02c9032485","650c16f0f2faf8d7a0d14c09","651d217eb0aecd8f9438a91f","null","null","<p style=""font-size: 60px; font-family: BACS"">DhMtDlDT</p>","","","","","","","","",""
"html-keyboard-response","275","409077","0.0-14.0-0.24","5ecd21dec04cca02c9032485","650c16f0f2faf8d7a0d14c09","651d217eb0aecd8f9438a91f","null","null","<p style=""font-size: 60px; font-family: BACS"">lYruavAvb</p>","","","","","","","","",""
"html-keyboard-response","276","410091","0.0-14.0-0.25","5ecd21dec04cca02c9032485","650c16f0f2faf8d7a0d14c09","651d217eb0aecd8f9438a91f","null","null","<p style=""font-size: 60px; font-family: BACS"">vQdOkam</p>","","","","","","","","",""
"html-keyboard-response","277","411102","0.0-14.0-0.26","5ecd21dec04cca02c9032485","650c16f0f2faf8d7a0d14c09","651d217eb0aecd8f9438a91f","null","null","<p style=""font-size: 60px; font-family: BACS"">mBYlAkd</p>","","","","","","","","",""
"html-keyboard-response","278","412118","0.0-14.0-0.27","5ecd21dec04cca02c9032485","650c16f0f2faf8d7a0d14c09","651d217eb0aecd8f9438a91f","null","null","<p style=""font-size: 60px; font-family: BACS"">lYruacrdY</p>","","","","","","","","",""
"html-keyboard-response","279","413122","0.0-14.0-0.28","5ecd21dec04cca02c9032485","650c16f0f2faf8d7a0d14c09","651d217eb0aecd8f9438a91f","null","null","<p style=""font-size: 60px; font-family: BACS"">MBKREOBT</p>","","","","","","","","",""
"html-keyboard-response","280","414134","0.0-14.0-0.29","5ecd21dec04cca02c9032485","650c16f0f2faf8d7a0d14c09","651d217eb0aecd8f9438a91f","null","null","<p style=""font-size: 60px; font-family: BACS"">hBmMCDlDT</p>","","","","","","","","",""
"html-keyboard-response","281","415146","0.0-14.0-0.30","5ecd21dec04cca02c9032485","650c16f0f2faf8d7a0d14c09","651d217eb0aecd8f9438a91f","null","null","<p style=""font-size: 60px; font-family: BACS"">MDKPAkd</p>","","","","","","","","",""
"html-keyboard-response","282","416160","0.0-14.0-0.31","5ecd21dec04cca02c9032485","650c16f0f2faf8d7a0d14c09","651d217eb0aecd8f9438a91f","null","null","<p style=""font-size: 60px; font-family: BACS"">AMkCTmTm</p>","","","","","","","","",""
"html-keyboard-response","283","417172","0.0-14.0-0.32","5ecd21dec04cca02c9032485","650c16f0f2faf8d7a0d14c09","651d217eb0aecd8f9438a91f","null","null","<p style=""font-size: 60px; font-family: BACS"">JNkaArv</p>","","","","","","","","",""
"html-keyboard-response","284","418188","0.0-14.0-0.33","5ecd21dec04cca02c9032485","650c16f0f2faf8d7a0d14c09","651d217eb0aecd8f9438a91f","null","null","<p style=""font-size: 60px; font-family: BACS"">YJkbvAvb</p>","","","","","","","","",""
"html-keyboard-response","285","419201","0.0-14.0-0.34","5ecd21dec04cca02c9032485","650c16f0f2faf8d7a0d14c09","651d217eb0aecd8f9438a91f","null","null","<p style=""font-size: 60px; font-family: BACS"">OdlNmYZJO</p>","","","","","","","","",""
"html-keyboard-response","286","420214","0.0-14.0-0.35","5ecd21dec04cca02c9032485","650c16f0f2faf8d7a0d14c09","651d217eb0aecd8f9438a91f","null","null","<p style=""font-size: 60px; font-family: BACS"">NaAQdvAvb</p>","","","","","","","","",""
"html-keyboard-response","287","421225","0.0-14.0-0.36","5ecd21dec04cca02c9032485","650c16f0f2faf8d7a0d14c09","651d217eb0aecd8f9438a91f","null","null","<p style=""font-size: 60px; font-family: BACS"">JNkacrdY</p>","","","","","","","","",""
"html-keyboard-response","288","422239","0.0-14.0-0.37","5ecd21dec04cca02c9032485","650c16f0f2faf8d7a0d14c09","651d217eb0aecd8f9438a91f","null","null","<p style=""font-size: 60px; font-family: BACS"">NaAQdArv</p>","","","","","","","","",""
"html-keyboard-response","289","423253","0.0-14.0-0.38","5ecd21dec04cca02c9032485","650c16f0f2faf8d7a0d14c09","651d217eb0aecd8f9438a91f","null","null","<p style=""font-size: 60px; font-family: BACS"">MDKPTmTm</p>","","","","","","","","",""
"html-keyboard-response","290","424254","0.0-14.0-0.39","5ecd21dec04cca02c9032485","650c16f0f2faf8d7a0d14c09","651d217eb0aecd8f9438a91f","null","null","<p style=""font-size: 60px; font-family: BACS"">mBYlYbBT</p>","","","","","","","","",""
"html-keyboard-response","291","425265","0.0-14.0-0.40","5ecd21dec04cca02c9032485","650c16f0f2faf8d7a0d14c09","651d217eb0aecd8f9438a91f","null","null","<p style=""font-size: 60px; font-family: BACS"">rLkmvAvb</p>","","","","","","","","",""
"html-keyboard-response","292","426277","0.0-14.0-0.41","5ecd21dec04cca02c9032485","650c16f0f2faf8d7a0d14c09","651d217eb0aecd8f9438a91f","null","null","<p style=""font-size: 60px; font-family: BACS"">DhMtAkd</p>","","","","","","","","",""
"html-keyboard-response","293","427292","0.0-14.0-0.42","5ecd21dec04cca02c9032485","650c16f0f2faf8d7a0d14c09","651d217eb0aecd8f9438a91f","null","null","<p style=""font-size: 60px; font-family: BACS"">MBKRETmTm</p>","","","","","","","","",""
"html-keyboard-response","294","428305","0.0-14.0-0.43","5ecd21dec04cca02c9032485","650c16f0f2faf8d7a0d14c09","651d217eb0aecd8f9438a91f","null","null","<p style=""font-size: 60px; font-family: BACS"">OdlNmcrdY</p>","","","","","","","","",""
"html-keyboard-response","295","429318","0.0-14.0-0.44","5ecd21dec04cca02c9032485","650c16f0f2faf8d7a0d14c09","651d217eb0aecd8f9438a91f","null","null","<p style=""font-size: 60px; font-family: BACS"">rLkmkam</p>","","","","","","","","",""
"html-keyboard-response","296","430332","0.0-14.0-0.45","5ecd21dec04cca02c9032485","650c16f0f2faf8d7a0d14c09","651d217eb0aecd8f9438a91f","null","null","<p style=""font-size: 60px; font-family: BACS"">EMbDPDlDT</p>","","","","","","","","",""
"html-keyboard-response","297","431349","0.0-14.0-0.46","5ecd21dec04cca02c9032485","650c16f0f2faf8d7a0d14c09","651d217eb0aecd8f9438a91f","null","null","<p style=""font-size: 60px; font-family: BACS"">vQdOArv</p>","","","","","","","","",""
"html-keyboard-response","298","432364","0.0-14.0-0.47","5ecd21dec04cca02c9032485","650c16f0f2faf8d7a0d14c09","651d217eb0aecd8f9438a91f","null","null","<p style=""font-size: 60px; font-family: BACS"">lrZGYZJO</p>","","","","","","","","",""
"html-keyboard-response","299","433375","0.0-14.0-0.48","5ecd21dec04cca02c9032485","650c16f0f2faf8d7a0d14c09","651d217eb0aecd8f9438a91f","null","null","<p style=""font-size: 60px; font-family: BACS"">MDKPOBT</p>","","","","","","","","",""
"html-keyboard-response","300","434390","0.0-14.0-0.49","5ecd21dec04cca02c9032485","650c16f0f2faf8d7a0d14c09","651d217eb0aecd8f9438a91f","null","null","<p style=""font-size: 60px; font-family: BACS"">AMkCDlDT</p>","","","","","","","","",""
"html-keyboard-response","301","435406","0.0-14.0-0.50","5ecd21dec04cca02c9032485","650c16f0f2faf8d7a0d14c09","651d217eb0aecd8f9438a91f","null","null","<p style=""font-size: 60px; font-family: BACS"">YJkbkam</p>","","","","","","","","",""
"html-keyboard-response","302","436420","0.0-14.0-0.51","5ecd21dec04cca02c9032485","650c16f0f2faf8d7a0d14c09","651d217eb0aecd8f9438a91f","null","null","<p style=""font-size: 60px; font-family: BACS"">vQdOvAvb</p>","","","","","","","","",""
"html-keyboard-response","303","437432","0.0-14.0-0.52","5ecd21dec04cca02c9032485","650c16f0f2faf8d7a0d14c09","651d217eb0aecd8f9438a91f","null","null","<p style=""font-size: 60px; font-family: BACS"">vkYGlkam</p>","","","","","","","","",""
"html-keyboard-response","304","438446","0.0-14.0-0.53","5ecd21dec04cca02c9032485","650c16f0f2faf8d7a0d14c09","651d217eb0aecd8f9438a91f","null","null","<p style=""font-size: 60px; font-family: BACS"">hBmMCTmTm</p>","","","","","","","","",""
"html-keyboard-response","305","439461","0.0-14.0-0.54","5ecd21dec04cca02c9032485","650c16f0f2faf8d7a0d14c09","651d217eb0aecd8f9438a91f","null","null","<p style=""font-size: 60px; font-family: BACS"">vkYGlvAvb</p>","","","","","","","","",""
"html-keyboard-response","306","440476","0.0-14.0-0.55","5ecd21dec04cca02c9032485","650c16f0f2faf8d7a0d14c09","651d217eb0aecd8f9438a91f","null","null","<p style=""font-size: 60px; font-family: BACS"">DhMtOBT</p>","","","","","","","","",""
"html-keyboard-response","307","441488","0.0-14.0-0.56","5ecd21dec04cca02c9032485","650c16f0f2faf8d7a0d14c09","651d217eb0aecd8f9438a91f","null","null","<p style=""font-size: 60px; font-family: BACS"">MBKREDlDT</p>","","","","","","","","",""
"html-keyboard-response","308","442499","0.0-14.0-0.57","5ecd21dec04cca02c9032485","650c16f0f2faf8d7a0d14c09","651d217eb0aecd8f9438a91f","null","null","<p style=""font-size: 60px; font-family: BACS"">OCmkTmTm</p>","","","","","","","","",""
"html-keyboard-response","309","443510","0.0-14.0-0.58","5ecd21dec04cca02c9032485","650c16f0f2faf8d7a0d14c09","651d217eb0aecd8f9438a91f","null","null","<p style=""font-size: 60px; font-family: BACS"">EdBbAkd</p>","","","","","","","","",""
"html-keyboard-response","310","444527","0.0-14.0-0.59","5ecd21dec04cca02c9032485","650c16f0f2faf8d7a0d14c09","651d217eb0aecd8f9438a91f","null","null","<p style=""font-size: 60px; font-family: BACS"">MBKREYbBT</p>","","","","","","","","",""
"html-keyboard-response","311","445537","0.0-14.0-0.60","5ecd21dec04cca02c9032485","650c16f0f2faf8d7a0d14c09","651d217eb0aecd8f9438a91f","null","null","<p style=""font-size: 60px; font-family: BACS"">vkYGlArv</p>","","","","","","","","",""
"html-keyboard-response","312","446548","0.0-14.0-0.61","5ecd21dec04cca02c9032485","650c16f0f2faf8d7a0d14c09","651d217eb0aecd8f9438a91f","null","null","<p style=""font-size: 60px; font-family: BACS"">OCmkYbBT</p>","","","","","","","","",""
"html-keyboard-response","313","447565","0.0-14.0-0.62","5ecd21dec04cca02c9032485","650c16f0f2faf8d7a0d14c09","651d217eb0aecd8f9438a91f","null","null","<p style=""font-size: 60px; font-family: BACS"">AMkCAkd</p>","","","","","","","","",""
"html-keyboard-response","314","448582","0.0-14.0-0.63","5ecd21dec04cca02c9032485","650c16f0f2faf8d7a0d14c09","651d217eb0aecd8f9438a91f","null","null","<p style=""font-size: 60px; font-family: BACS"">EMbDPYbBT</p>","","","","","","","","",""
"html-keyboard-response","315","449591","0.0-14.0-0.64","5ecd21dec04cca02c9032485","650c16f0f2faf8d7a0d14c09","651d217eb0aecd8f9438a91f","null","null","<p style=""font-size: 60px; font-family: BACS"">rLkmYZJO</p>","","","","","","","","",""
"html-keyboard-response","316","450606","0.0-14.0-0.65","5ecd21dec04cca02c9032485","650c16f0f2faf8d7a0d14c09","651d217eb0aecd8f9438a91f","null","null","<p style=""font-size: 60px; font-family: BACS"">EdBbTmTm</p>","","","","","","","","",""
"html-keyboard-response","317","451614","0.0-14.0-0.66","5ecd21dec04cca02c9032485","650c16f0f2faf8d7a0d14c09","651d217eb0aecd8f9438a91f","null","null","<p style=""font-size: 60px; font-family: BACS"">YJkbArv</p>","","","","","","","","",""
"html-keyboard-response","318","452616","0.0-14.0-0.67","5ecd21dec04cca02c9032485","650c16f0f2faf8d7a0d14c09","651d217eb0aecd8f9438a91f","null","null","<p style=""font-size: 60px; font-family: BACS"">OdlNmkam</p>","","","","","","","","",""
"html-keyboard-response","319","453629","0.0-14.0-0.68","5ecd21dec04cca02c9032485","650c16f0f2faf8d7a0d14c09","651d217eb0aecd8f9438a91f","null","null","<p style=""font-size: 60px; font-family: BACS"">KRARmTmTm</p>","","","","","","","","",""
"html-keyboard-response","320","454643","0.0-14.0-0.69","5ecd21dec04cca02c9032485","650c16f0f2faf8d7a0d14c09","651d217eb0aecd8f9438a91f","null","null","<p style=""font-size: 60px; font-family: BACS"">EMbDPOBT</p>","","","","","","","","",""
"html-keyboard-response","321","455649","0.0-14.0-0.70","5ecd21dec04cca02c9032485","650c16f0f2faf8d7a0d14c09","651d217eb0aecd8f9438a91f","null","null","<p style=""font-size: 60px; font-family: BACS"">NaAQdcrdY</p>","","","","","","","","",""
"html-keyboard-response","322","456659","0.0-14.0-0.71","5ecd21dec04cca02c9032485","650c16f0f2faf8d7a0d14c09","651d217eb0aecd8f9438a91f","null","null","<p style=""font-size: 60px; font-family: BACS"">EMbDPAkd</p>","","","","","","","","",""
"html-keyboard-response","323","457675","0.0-14.0-0.72","5ecd21dec04cca02c9032485","650c16f0f2faf8d7a0d14c09","651d217eb0aecd8f9438a91f","null","null","<p style=""font-size: 60px; font-family: BACS"">OCmkOBT</p>","","","","","","","","",""
"html-keyboard-response","324","458686","0.0-14.0-0.73","5ecd21dec04cca02c9032485","650c16f0f2faf8d7a0d14c09","651d217eb0aecd8f9438a91f","null","null","<p style=""font-size: 60px; font-family: BACS"">lrZGvAvb</p>","","","","","","","","",""
"html-keyboard-response","325","459701","0.0-14.0-0.74","5ecd21dec04cca02c9032485","650c16f0f2faf8d7a0d14c09","651d217eb0aecd8f9438a91f","null","null","<p style=""font-size: 60px; font-family: BACS"">AMkCYbBT</p>","","","","","","","","",""
"html-keyboard-response","326","460715","0.0-14.0-0.75","5ecd21dec04cca02c9032485","650c16f0f2faf8d7a0d14c09","651d217eb0aecd8f9438a91f","null","null","<p style=""font-size: 60px; font-family: BACS"">udkmkam</p>","","","","","","","","",""
"html-keyboard-response","327","461730","0.0-14.0-0.76","5ecd21dec04cca02c9032485","650c16f0f2faf8d7a0d14c09","651d217eb0aecd8f9438a91f","null","null","<p style=""font-size: 60px; font-family: BACS"">DhMtTmTm</p>","","","","","","","","",""
"html-keyboard-response","328","462746","0.0-14.0-0.77","5ecd21dec04cca02c9032485","650c16f0f2faf8d7a0d14c09","651d217eb0aecd8f9438a91f","null","null","<p style=""font-size: 60px; font-family: BACS"">hBmMCYbBT</p>","","","","","","","","",""
"html-keyboard-response","329","463760","0.0-14.0-0.78","5ecd21dec04cca02c9032485","650c16f0f2faf8d7a0d14c09","651d217eb0aecd8f9438a91f","null","null","<p style=""font-size: 60px; font-family: BACS"">udkmvAvb</p>","","","","","","","","",""
"html-keyboard-response","330","464773","0.0-14.0-0.79","5ecd21dec04cca02c9032485","650c16f0f2faf8d7a0d14c09","651d217eb0aecd8f9438a91f","null","null","<p style=""font-size: 60px; font-family: BACS"">EdBbYbBT</p>","","","","","","","","",""
"html-keyboard-response","331","474395","0.0-15.0","5ecd21dec04cca02c9032485","650c16f0f2faf8d7a0d14c09","651d217eb0aecd8f9438a91f","9621"," ","<p>Great, you've seen the fourth block of words. You may now take a short break.</p>
      <p>Press the spacebar when you're ready to continue.</p>","","","","","","","","",""
"html-keyboard-response","332","475410","0.0-16.0-0.0","5ecd21dec04cca02c9032485","650c16f0f2faf8d7a0d14c09","651d217eb0aecd8f9438a91f","null","null","<p style=""font-size: 60px; font-family: BACS"">OdlNmArv</p>","","","","","","","","",""
"html-keyboard-response","333","476413","0.0-16.0-0.1","5ecd21dec04cca02c9032485","650c16f0f2faf8d7a0d14c09","651d217eb0aecd8f9438a91f","null","null","<p style=""font-size: 60px; font-family: BACS"">OdlNmArv</p>","","","","","","","","",""
"html-keyboard-response","334","477416","0.0-16.0-0.2","5ecd21dec04cca02c9032485","650c16f0f2faf8d7a0d14c09","651d217eb0aecd8f9438a91f","null","null","<p style=""font-size: 60px; font-family: BACS"">OdlNmArv</p>","","","","","","","","",""
"html-keyboard-response","335","478428","0.0-16.0-0.3","5ecd21dec04cca02c9032485","650c16f0f2faf8d7a0d14c09","651d217eb0aecd8f9438a91f","null","null","<p style=""font-size: 60px; font-family: BACS"">OdlNmArv</p>","","","","","","","","",""
"html-keyboard-response","336","479444","0.0-16.0-0.4","5ecd21dec04cca02c9032485","650c16f0f2faf8d7a0d14c09","651d217eb0aecd8f9438a91f","null","null","<p style=""font-size: 60px; font-family: BACS"">OdlNmArv</p>","","","","","","","","",""
"html-keyboard-response","337","480453","0.0-16.0-0.5","5ecd21dec04cca02c9032485","650c16f0f2faf8d7a0d14c09","651d217eb0aecd8f9438a91f","null","null","<p style=""font-size: 60px; font-family: BACS"">OdlNmArv</p>","","","","","","","","",""
"html-keyboard-response","338","481465","0.0-16.0-0.6","5ecd21dec04cca02c9032485","650c16f0f2faf8d7a0d14c09","651d217eb0aecd8f9438a91f","null","null","<p style=""font-size: 60px; font-family: BACS"">OdlNmArv</p>","","","","","","","","",""
"html-keyboard-response","339","482481","0.0-16.0-0.7","5ecd21dec04cca02c9032485","650c16f0f2faf8d7a0d14c09","651d217eb0aecd8f9438a91f","null","null","<p style=""font-size: 60px; font-family: BACS"">OdlNmArv</p>","","","","","","","","",""
"html-keyboard-response","340","483492","0.0-16.0-0.8","5ecd21dec04cca02c9032485","650c16f0f2faf8d7a0d14c09","651d217eb0aecd8f9438a91f","null","null","<p style=""font-size: 60px; font-family: BACS"">OdlNmArv</p>","","","","","","","","",""
"html-keyboard-response","341","484507","0.0-16.0-0.9","5ecd21dec04cca02c9032485","650c16f0f2faf8d7a0d14c09","651d217eb0aecd8f9438a91f","null","null","<p style=""font-size: 60px; font-family: BACS"">OdlNmArv</p>","","","","","","","","",""
"html-keyboard-response","342","485523","0.0-16.0-0.10","5ecd21dec04cca02c9032485","650c16f0f2faf8d7a0d14c09","651d217eb0aecd8f9438a91f","null","null","<p style=""font-size: 60px; font-family: BACS"">OdlNmArv</p>","","","","","","","","",""
"html-keyboard-response","343","486536","0.0-16.0-0.11","5ecd21dec04cca02c9032485","650c16f0f2faf8d7a0d14c09","651d217eb0aecd8f9438a91f","null","null","<p style=""font-size: 60px; font-family: BACS"">OdlNmArv</p>","","","","","","","","",""
"html-keyboard-response","344","487549","0.0-16.0-0.12","5ecd21dec04cca02c9032485","650c16f0f2faf8d7a0d14c09","651d217eb0aecd8f9438a91f","null","null","<p style=""font-size: 60px; font-family: BACS"">OdlNmArv</p>","","","","","","","","",""
"html-keyboard-response","345","488565","0.0-16.0-0.13","5ecd21dec04cca02c9032485","650c16f0f2faf8d7a0d14c09","651d217eb0aecd8f9438a91f","null","null","<p style=""font-size: 60px; font-family: BACS"">OdlNmArv</p>","","","","","","","","",""
"html-keyboard-response","346","489570","0.0-16.0-0.14","5ecd21dec04cca02c9032485","650c16f0f2faf8d7a0d14c09","651d217eb0aecd8f9438a91f","null","null","<p style=""font-size: 60px; font-family: BACS"">OdlNmArv</p>","","","","","","","","",""
"html-keyboard-response","347","490584","0.0-16.0-0.15","5ecd21dec04cca02c9032485","650c16f0f2faf8d7a0d14c09","651d217eb0aecd8f9438a91f","null","null","<p style=""font-size: 60px; font-family: BACS"">OdlNmArv</p>","","","","","","","","",""
"html-keyboard-response","348","491596","0.0-16.0-0.16","5ecd21dec04cca02c9032485","650c16f0f2faf8d7a0d14c09","651d217eb0aecd8f9438a91f","null","null","<p style=""font-size: 60px; font-family: BACS"">OdlNmArv</p>","","","","","","","","",""
"html-keyboard-response","349","492611","0.0-16.0-0.17","5ecd21dec04cca02c9032485","650c16f0f2faf8d7a0d14c09","651d217eb0aecd8f9438a91f","null","null","<p style=""font-size: 60px; font-family: BACS"">OdlNmArv</p>","","","","","","","","",""
"html-keyboard-response","350","493625","0.0-16.0-0.18","5ecd21dec04cca02c9032485","650c16f0f2faf8d7a0d14c09","651d217eb0aecd8f9438a91f","null","null","<p style=""font-size: 60px; font-family: BACS"">OdlNmArv</p>","","","","","","","","",""
"html-keyboard-response","351","494634","0.0-16.0-0.19","5ecd21dec04cca02c9032485","650c16f0f2faf8d7a0d14c09","651d217eb0aecd8f9438a91f","null","null","<p style=""font-size: 60px; font-family: BACS"">OdlNmArv</p>","","","","","","","","",""
"html-keyboard-response","352","495649","0.0-16.0-0.20","5ecd21dec04cca02c9032485","650c16f0f2faf8d7a0d14c09","651d217eb0aecd8f9438a91f","null","null","<p style=""font-size: 60px; font-family: BACS"">OdlNmArv</p>","","","","","","","","",""
"html-keyboard-response","353","496663","0.0-16.0-0.21","5ecd21dec04cca02c9032485","650c16f0f2faf8d7a0d14c09","651d217eb0aecd8f9438a91f","null","null","<p style=""font-size: 60px; font-family: BACS"">OdlNmArv</p>","","","","","","","","",""
"html-keyboard-response","354","497678","0.0-16.0-0.22","5ecd21dec04cca02c9032485","650c16f0f2faf8d7a0d14c09","651d217eb0aecd8f9438a91f","null","null","<p style=""font-size: 60px; font-family: BACS"">OdlNmArv</p>","","","","","","","","",""
"html-keyboard-response","355","498693","0.0-16.0-0.23","5ecd21dec04cca02c9032485","650c16f0f2faf8d7a0d14c09","651d217eb0aecd8f9438a91f","null","null","<p style=""font-size: 60px; font-family: BACS"">OdlNmArv</p>","","","","","","","","",""
"html-keyboard-response","356","499705","0.0-16.0-0.24","5ecd21dec04cca02c9032485","650c16f0f2faf8d7a0d14c09","651d217eb0aecd8f9438a91f","null","null","<p style=""font-size: 60px; font-family: BACS"">OdlNmArv</p>","","","","","","","","",""
"html-keyboard-response","357","500718","0.0-16.0-0.25","5ecd21dec04cca02c9032485","650c16f0f2faf8d7a0d14c09","651d217eb0aecd8f9438a91f","null","null","<p style=""font-size: 60px; font-family: BACS"">OdlNmArv</p>","","","","","","","","",""
"html-keyboard-response","358","501731","0.0-16.0-0.26","5ecd21dec04cca02c9032485","650c16f0f2faf8d7a0d14c09","651d217eb0aecd8f9438a91f","null","null","<p style=""font-size: 60px; font-family: BACS"">OdlNmArv</p>","","","","","","","","",""
"html-keyboard-response","359","502744","0.0-16.0-0.27","5ecd21dec04cca02c9032485","650c16f0f2faf8d7a0d14c09","651d217eb0aecd8f9438a91f","null","null","<p style=""font-size: 60px; font-family: BACS"">OdlNmArv</p>","","","","","","","","",""
"html-keyboard-response","360","503751","0.0-16.0-0.28","5ecd21dec04cca02c9032485","650c16f0f2faf8d7a0d14c09","651d217eb0aecd8f9438a91f","null","null","<p style=""font-size: 60px; font-family: BACS"">OdlNmArv</p>","","","","","","","","",""
"html-keyboard-response","361","504767","0.0-16.0-0.29","5ecd21dec04cca02c9032485","650c16f0f2faf8d7a0d14c09","651d217eb0aecd8f9438a91f","null","null","<p style=""font-size: 60px; font-family: BACS"">OdlNmArv</p>","","","","","","","","",""
"html-keyboard-response","362","505781","0.0-16.0-0.30","5ecd21dec04cca02c9032485","650c16f0f2faf8d7a0d14c09","651d217eb0aecd8f9438a91f","null","null","<p style=""font-size: 60px; font-family: BACS"">OdlNmArv</p>","","","","","","","","",""
"html-keyboard-response","363","506794","0.0-16.0-0.31","5ecd21dec04cca02c9032485","650c16f0f2faf8d7a0d14c09","651d217eb0aecd8f9438a91f","null","null","<p style=""font-size: 60px; font-family: BACS"">OdlNmArv</p>","","","","","","","","",""
"html-keyboard-response","364","507807","0.0-16.0-0.32","5ecd21dec04cca02c9032485","650c16f0f2faf8d7a0d14c09","651d217eb0aecd8f9438a91f","null","null","<p style=""font-size: 60px; font-family: BACS"">OdlNmArv</p>","","","","","","","","",""
"html-keyboard-response","365","508821","0.0-16.0-0.33","5ecd21dec04cca02c9032485","650c16f0f2faf8d7a0d14c09","651d217eb0aecd8f9438a91f","null","null","<p style=""font-size: 60px; font-family: BACS"">OdlNmArv</p>","","","","","","","","",""
"html-keyboard-response","366","509833","0.0-16.0-0.34","5ecd21dec04cca02c9032485","650c16f0f2faf8d7a0d14c09","651d217eb0aecd8f9438a91f","null","null","<p style=""font-size: 60px; font-family: BACS"">OdlNmArv</p>","","","","","","","","",""
"html-keyboard-response","367","510846","0.0-16.0-0.35","5ecd21dec04cca02c9032485","650c16f0f2faf8d7a0d14c09","651d217eb0aecd8f9438a91f","null","null","<p style=""font-size: 60px; font-family: BACS"">OdlNmArv</p>","","","","","","","","",""
"html-keyboard-response","368","511859","0.0-16.0-0.36","5ecd21dec04cca02c9032485","650c16f0f2faf8d7a0d14c09","651d217eb0aecd8f9438a91f","null","null","<p style=""font-size: 60px; font-family: BACS"">OdlNmArv</p>","","","","","","","","",""
"html-keyboard-response","369","512871","0.0-16.0-0.37","5ecd21dec04cca02c9032485","650c16f0f2faf8d7a0d14c09","651d217eb0aecd8f9438a91f","null","null","<p style=""font-size: 60px; font-family: BACS"">OdlNmArv</p>","","","","","","","","",""
"html-keyboard-response","370","513883","0.0-16.0-0.38","5ecd21dec04cca02c9032485","650c16f0f2faf8d7a0d14c09","651d217eb0aecd8f9438a91f","null","null","<p style=""font-size: 60px; font-family: BACS"">OdlNmArv</p>","","","","","","","","",""
"html-keyboard-response","371","514895","0.0-16.0-0.39","5ecd21dec04cca02c9032485","650c16f0f2faf8d7a0d14c09","651d217eb0aecd8f9438a91f","null","null","<p style=""font-size: 60px; font-family: BACS"">OdlNmArv</p>","","","","","","","","",""
"html-keyboard-response","372","515896","0.0-16.0-0.40","5ecd21dec04cca02c9032485","650c16f0f2faf8d7a0d14c09","651d217eb0aecd8f9438a91f","null","null","<p style=""font-size: 60px; font-family: BACS"">OdlNmArv</p>","","","","","","","","",""
"html-keyboard-response","373","516905","0.0-16.0-0.41","5ecd21dec04cca02c9032485","650c16f0f2faf8d7a0d14c09","651d217eb0aecd8f9438a91f","null","null","<p style=""font-size: 60px; font-family: BACS"">OdlNmArv</p>","","","","","","","","",""
"html-keyboard-response","374","517919","0.0-16.0-0.42","5ecd21dec04cca02c9032485","650c16f0f2faf8d7a0d14c09","651d217eb0aecd8f9438a91f","null","null","<p style=""font-size: 60px; font-family: BACS"">OdlNmArv</p>","","","","","","","","",""
"html-keyboard-response","375","518931","0.0-16.0-0.43","5ecd21dec04cca02c9032485","650c16f0f2faf8d7a0d14c09","651d217eb0aecd8f9438a91f","null","null","<p style=""font-size: 60px; font-family: BACS"">OdlNmArv</p>","","","","","","","","",""
"html-keyboard-response","376","519943","0.0-16.0-0.44","5ecd21dec04cca02c9032485","650c16f0f2faf8d7a0d14c09","651d217eb0aecd8f9438a91f","null","null","<p style=""font-size: 60px; font-family: BACS"">OdlNmArv</p>","","","","","","","","",""
"html-keyboard-response","377","520957","0.0-16.0-0.45","5ecd21dec04cca02c9032485","650c16f0f2faf8d7a0d14c09","651d217eb0aecd8f9438a91f","null","null","<p style=""font-size: 60px; font-family: BACS"">OdlNmArv</p>","","","","","","","","",""
"html-keyboard-response","378","521962","0.0-16.0-0.46","5ecd21dec04cca02c9032485","650c16f0f2faf8d7a0d14c09","651d217eb0aecd8f9438a91f","null","null","<p style=""font-size: 60px; font-family: BACS"">OdlNmArv</p>","","","","","","","","",""
"html-keyboard-response","379","522973","0.0-16.0-0.47","5ecd21dec04cca02c9032485","650c16f0f2faf8d7a0d14c09","651d217eb0aecd8f9438a91f","null","null","<p style=""font-size: 60px; font-family: BACS"">OdlNmArv</p>","","","","","","","","",""
"html-keyboard-response","380","523984","0.0-16.0-0.48","5ecd21dec04cca02c9032485","650c16f0f2faf8d7a0d14c09","651d217eb0aecd8f9438a91f","null","null","<p style=""font-size: 60px; font-family: BACS"">OdlNmArv</p>","","","","","","","","",""
"html-keyboard-response","381","524996","0.0-16.0-0.49","5ecd21dec04cca02c9032485","650c16f0f2faf8d7a0d14c09","651d217eb0aecd8f9438a91f","null","null","<p style=""font-size: 60px; font-family: BACS"">OdlNmArv</p>","","","","","","","","",""
"html-keyboard-response","382","526002","0.0-16.0-0.50","5ecd21dec04cca02c9032485","650c16f0f2faf8d7a0d14c09","651d217eb0aecd8f9438a91f","null","null","<p style=""font-size: 60px; font-family: BACS"">OdlNmArv</p>","","","","","","","","",""
"html-keyboard-response","383","527011","0.0-16.0-0.51","5ecd21dec04cca02c9032485","650c16f0f2faf8d7a0d14c09","651d217eb0aecd8f9438a91f","null","null","<p style=""font-size: 60px; font-family: BACS"">OdlNmArv</p>","","","","","","","","",""
"html-keyboard-response","384","528025","0.0-16.0-0.52","5ecd21dec04cca02c9032485","650c16f0f2faf8d7a0d14c09","651d217eb0aecd8f9438a91f","null","null","<p style=""font-size: 60px; font-family: BACS"">OdlNmArv</p>","","","","","","","","",""
"html-keyboard-response","385","529036","0.0-16.0-0.53","5ecd21dec04cca02c9032485","650c16f0f2faf8d7a0d14c09","651d217eb0aecd8f9438a91f","null","null","<p style=""font-size: 60px; font-family: BACS"">OdlNmArv</p>","","","","","","","","",""
"html-keyboard-response","386","530052","0.0-16.0-0.54","5ecd21dec04cca02c9032485","650c16f0f2faf8d7a0d14c09","651d217eb0aecd8f9438a91f","null","null","<p style=""font-size: 60px; font-family: BACS"">OdlNmArv</p>","","","","","","","","",""
"html-keyboard-response","387","531055","0.0-16.0-0.55","5ecd21dec04cca02c9032485","650c16f0f2faf8d7a0d14c09","651d217eb0aecd8f9438a91f","null","null","<p style=""font-size: 60px; font-family: BACS"">OdlNmArv</p>","","","","","","","","",""
"html-keyboard-response","388","532072","0.0-16.0-0.56","5ecd21dec04cca02c9032485","650c16f0f2faf8d7a0d14c09","651d217eb0aecd8f9438a91f","null","null","<p style=""font-size: 60px; font-family: BACS"">OdlNmArv</p>","","","","","","","","",""
"html-keyboard-response","389","533079","0.0-16.0-0.57","5ecd21dec04cca02c9032485","650c16f0f2faf8d7a0d14c09","651d217eb0aecd8f9438a91f","null","null","<p style=""font-size: 60px; font-family: BACS"">OdlNmArv</p>","","","","","","","","",""
"html-keyboard-response","390","534092","0.0-16.0-0.58","5ecd21dec04cca02c9032485","650c16f0f2faf8d7a0d14c09","651d217eb0aecd8f9438a91f","null","null","<p style=""font-size: 60px; font-family: BACS"">OdlNmArv</p>","","","","","","","","",""
"html-keyboard-response","391","535101","0.0-16.0-0.59","5ecd21dec04cca02c9032485","650c16f0f2faf8d7a0d14c09","651d217eb0aecd8f9438a91f","null","null","<p style=""font-size: 60px; font-family: BACS"">OdlNmArv</p>","","","","","","","","",""
"html-keyboard-response","392","536102","0.0-16.0-0.60","5ecd21dec04cca02c9032485","650c16f0f2faf8d7a0d14c09","651d217eb0aecd8f9438a91f","null","null","<p style=""font-size: 60px; font-family: BACS"">OdlNmArv</p>","","","","","","","","",""
"html-keyboard-response","393","537116","0.0-16.0-0.61","5ecd21dec04cca02c9032485","650c16f0f2faf8d7a0d14c09","651d217eb0aecd8f9438a91f","null","null","<p style=""font-size: 60px; font-family: BACS"">OdlNmArv</p>","","","","","","","","",""
"html-keyboard-response","394","538131","0.0-16.0-0.62","5ecd21dec04cca02c9032485","650c16f0f2faf8d7a0d14c09","651d217eb0aecd8f9438a91f","null","null","<p style=""font-size: 60px; font-family: BACS"">OdlNmArv</p>","","","","","","","","",""
"html-keyboard-response","395","539144","0.0-16.0-0.63","5ecd21dec04cca02c9032485","650c16f0f2faf8d7a0d14c09","651d217eb0aecd8f9438a91f","null","null","<p style=""font-size: 60px; font-family: BACS"">OdlNmArv</p>","","","","","","","","",""
"html-keyboard-response","396","540156","0.0-16.0-0.64","5ecd21dec04cca02c9032485","650c16f0f2faf8d7a0d14c09","651d217eb0aecd8f9438a91f","null","null","<p style=""font-size: 60px; font-family: BACS"">OdlNmArv</p>","","","","","","","","",""
"html-keyboard-response","397","541171","0.0-16.0-0.65","5ecd21dec04cca02c9032485","650c16f0f2faf8d7a0d14c09","651d217eb0aecd8f9438a91f","null","null","<p style=""font-size: 60px; font-family: BACS"">OdlNmArv</p>","","","","","","","","",""
"html-keyboard-response","398","542185","0.0-16.0-0.66","5ecd21dec04cca02c9032485","650c16f0f2faf8d7a0d14c09","651d217eb0aecd8f9438a91f","null","null","<p style=""font-size: 60px; font-family: BACS"">OdlNmArv</p>","","","","","","","","",""
"html-keyboard-response","399","543198","0.0-16.0-0.67","5ecd21dec04cca02c9032485","650c16f0f2faf8d7a0d14c09","651d217eb0aecd8f9438a91f","null","null","<p style=""font-size: 60px; font-family: BACS"">OdlNmArv</p>","","","","","","","","",""
