"trial_type","trial_index","time_elapsed","internal_node_id","subject_id","study_id","session_id","rt","response","stimulus","success","item","task","correct_response","testing_condition","correct","target","confound","name"
"pavlovia","0","925","0.0-0.0","60491025dd8eb31e48a0ca8d","650c16f0f2faf8d7a0d14c09","651c1cc7303a74061d43ac84","","","","","","","","","","","",""
"survey-html-form","1","7864","0.0-1.0","60491025dd8eb31e48a0ca8d","650c16f0f2faf8d7a0d14c09","651c1cc7303a74061d43ac84","6934","{""ID"":""60491025dd8eb31e48a0ca8d""}","","","","","","","","","",""
"html-keyboard-response","2","58484","0.0-2.0","60491025dd8eb31e48a0ca8d","650c16f0f2faf8d7a0d14c09","651c1cc7303a74061d43ac84","50618"," ","<p style=""font-size: 15px;"">Before beginning, we ask that you read the consent information and confirm your agreement to participate in the experiment.</p>
      <p style=""font-size: 15px;""> We ask that you remember that this is a research project and that your participation is entirely voluntary. You can stop your participation at any time, without needing to provide any explanation. The study we're asking you to participate in aims at examining how readers process written words. You will be engaged in a session of apprximately 20 minutes, followed by a brief questionnaire. You will have the opportunity to take a few breaks during the experiment. You will be paid £4 for your participation, corresponding to a rate of £8/hour. While this experiment looks at cognitive faculties, this experiment doesn't constitute clinical proof of eventual pathologies.</p>
      <p style=""font-size: 15px;"">All of the information collected thanks to yours and others' participation will be held in a secure password-protected server, and will not be shared with anyone not authorised to view it. Your personal information will be kept with an arbitrary participant ID. Thanks to this data anonymity process, any researcher analysing the data won't be able to track the information back to a specific participant. Therefore, this process will make identifying you impossibile, even when results from the study will be published in scientific reviews, presented at congresses, or at any other public forum. More generally, the collected data will be treated in accordance with the laws on privacy and conformity to the Legislative Degree n. 196 ""Code regarding the protection of personal data"" of the 30th of June 2003 and to the European Regulation 2016/670 (General Data Protection Regulation - GDPR). The Data Protection Officer is Avv. Valentina Carollo, who can be contacted at the following email addresses: <a href=""mailto:dpo@sissa.it"">dpo@sissa.it</a> or <a href=""mailto:rpd@sissa.it"">rpd@sissa.it</a> - PEC: <a href=""mailto:protocollo@pec.sissa.it"">protocollo@pec.sissa.it</a>.</p>
      <p style=""font-size: 15px;""> Before expressing your consent to participate, we would like to remind you again that in case you need explanations on any aspect of the experimental procedure, the researcher is at your disposition (<a href=""mailto:aliebelt@sissa.it"">aliebelt@sissa.it</a>, <a href=""mailto:davide.crepaldi@sissa.it"">davide.crepaldi@sissa.it</a>).</p>
      <p style=""font-size: 15px;"">If you would like to download the informed consent form, you can do so here: <a href=""BASL-Informed_Consent.pdf"" download>informed consent form</a>.</p>
      <p style=""font-size: 15px;"">We ask that you press the spacebar to proceed to the consent section.</p>","","","","","","","","",""
"survey-html-form","3","78803","0.0-3.0","60491025dd8eb31e48a0ca8d","650c16f0f2faf8d7a0d14c09","651c1cc7303a74061d43ac84","20313","{""consent1"":""YES"",""consent2"":""YES"",""consent3"":""YES"",""consent4"":""YES"",""consent5"":""YES"",""consent6"":""YES""}","","","","","","","","","",""
"fullscreen","4","87332","0.0-4.0","60491025dd8eb31e48a0ca8d","650c16f0f2faf8d7a0d14c09","651c1cc7303a74061d43ac84","","","","true","","","","","","","",""
"html-keyboard-response","5","133564","0.0-5.0","60491025dd8eb31e48a0ca8d","650c16f0f2faf8d7a0d14c09","651c1cc7303a74061d43ac84","46236"," ","<p>Welcome, and thank you very much for your time!</p>
      <p>In this experiment, you'll be a language expert who's been asked to take a look at words that Earth has received in its first communication with aliens. Your task, in this first part of the experiment, is to pay close attention to the words you'll be shown; later, world leaders will ask you questions on what you saw. The words will be shown to you quite quickly; it seems that the aliens were in a hurry :-)</p>
      <p>Press the spacebar to continue.<p>","","","","","","","","",""
"html-keyboard-response","6","133622","0.0-6.0","60491025dd8eb31e48a0ca8d","650c16f0f2faf8d7a0d14c09","651c1cc7303a74061d43ac84","null","null","<p style=""font-size: 120px; font-family: BACS""> </p>","","","","","","","","",""
"html-keyboard-response","7","144358","0.0-7.0","60491025dd8eb31e48a0ca8d","650c16f0f2faf8d7a0d14c09","651c1cc7303a74061d43ac84","10734"," ","<p>Here is an example of the words you'll see:</p>
      <img src='esempio.png' height='400px'>
      <p>When you're ready to begin, press the spacebar.</p></div>","","","","","","","","",""
"html-keyboard-response","8","145368","0.0-8.0-0.0","60491025dd8eb31e48a0ca8d","650c16f0f2faf8d7a0d14c09","651c1cc7303a74061d43ac84","null","null","<p style=""font-size: 60px; font-family: BACS"">mARMTPOM</p>","","","","","","","","",""
"html-keyboard-response","9","146381","0.0-8.0-0.1","60491025dd8eb31e48a0ca8d","650c16f0f2faf8d7a0d14c09","651c1cc7303a74061d43ac84","null","null","<p style=""font-size: 60px; font-family: BACS"">UdbdJcUk</p>","","","","","","","","",""
"html-keyboard-response","10","147389","0.0-8.0-0.2","60491025dd8eb31e48a0ca8d","650c16f0f2faf8d7a0d14c09","651c1cc7303a74061d43ac84","null","null","<p style=""font-size: 60px; font-family: BACS"">auYAkYZJO</p>","","","","","","","","",""
"html-keyboard-response","11","148401","0.0-8.0-0.3","60491025dd8eb31e48a0ca8d","650c16f0f2faf8d7a0d14c09","651c1cc7303a74061d43ac84","null","null","<p style=""font-size: 60px; font-family: BACS"">OdlNmravu</p>","","","","","","","","",""
"html-keyboard-response","12","149425","0.0-8.0-0.4","60491025dd8eb31e48a0ca8d","650c16f0f2faf8d7a0d14c09","651c1cc7303a74061d43ac84","null","null","<p style=""font-size: 60px; font-family: BACS"">vkYGlrGl</p>","","","","","","","","",""
"html-keyboard-response","13","150452","0.0-8.0-0.5","60491025dd8eb31e48a0ca8d","650c16f0f2faf8d7a0d14c09","651c1cc7303a74061d43ac84","null","null","<p style=""font-size: 60px; font-family: BACS"">mUOcOYZJO</p>","","","","","","","","",""
"html-keyboard-response","14","151463","0.0-8.0-0.6","60491025dd8eb31e48a0ca8d","650c16f0f2faf8d7a0d14c09","651c1cc7303a74061d43ac84","null","null","<p style=""font-size: 60px; font-family: BACS"">DmAMETPOM</p>","","","","","","","","",""
"html-keyboard-response","15","152489","0.0-8.0-0.7","60491025dd8eb31e48a0ca8d","650c16f0f2faf8d7a0d14c09","651c1cc7303a74061d43ac84","null","null","<p style=""font-size: 60px; font-family: BACS"">EPERdhBK</p>","","","","","","","","",""
"html-keyboard-response","16","153497","0.0-8.0-0.8","60491025dd8eb31e48a0ca8d","650c16f0f2faf8d7a0d14c09","651c1cc7303a74061d43ac84","null","null","<p style=""font-size: 60px; font-family: BACS"">mARMhEct</p>","","","","","","","","",""
"html-keyboard-response","17","154521","0.0-8.0-0.9","60491025dd8eb31e48a0ca8d","650c16f0f2faf8d7a0d14c09","651c1cc7303a74061d43ac84","null","null","<p style=""font-size: 60px; font-family: BACS"">RkmdCmhc</p>","","","","","","","","",""
"html-keyboard-response","18","155549","0.0-8.0-0.10","60491025dd8eb31e48a0ca8d","650c16f0f2faf8d7a0d14c09","651c1cc7303a74061d43ac84","null","null","<p style=""font-size: 60px; font-family: BACS"">auYAkrGl</p>","","","","","","","","",""
"html-keyboard-response","19","156571","0.0-8.0-0.11","60491025dd8eb31e48a0ca8d","650c16f0f2faf8d7a0d14c09","651c1cc7303a74061d43ac84","null","null","<p style=""font-size: 60px; font-family: BACS"">OdlNmJcUk</p>","","","","","","","","",""
"html-keyboard-response","20","157591","0.0-8.0-0.12","60491025dd8eb31e48a0ca8d","650c16f0f2faf8d7a0d14c09","651c1cc7303a74061d43ac84","null","null","<p style=""font-size: 60px; font-family: BACS"">mARMhBK</p>","","","","","","","","",""
"html-keyboard-response","21","158606","0.0-8.0-0.13","60491025dd8eb31e48a0ca8d","650c16f0f2faf8d7a0d14c09","651c1cc7303a74061d43ac84","null","null","<p style=""font-size: 60px; font-family: BACS"">EPERdmhc</p>","","","","","","","","",""
"html-keyboard-response","22","159619","0.0-8.0-0.14","60491025dd8eb31e48a0ca8d","650c16f0f2faf8d7a0d14c09","651c1cc7303a74061d43ac84","null","null","<p style=""font-size: 60px; font-family: BACS"">tDPRkhEct</p>","","","","","","","","",""
"html-keyboard-response","23","160640","0.0-8.0-0.15","60491025dd8eb31e48a0ca8d","650c16f0f2faf8d7a0d14c09","651c1cc7303a74061d43ac84","null","null","<p style=""font-size: 60px; font-family: BACS"">kGlUYZJO</p>","","","","","","","","",""
"html-keyboard-response","24","161659","0.0-8.0-0.16","60491025dd8eb31e48a0ca8d","650c16f0f2faf8d7a0d14c09","651c1cc7303a74061d43ac84","null","null","<p style=""font-size: 60px; font-family: BACS"">mUOcOrGl</p>","","","","","","","","",""
"html-keyboard-response","25","162683","0.0-8.0-0.17","60491025dd8eb31e48a0ca8d","650c16f0f2faf8d7a0d14c09","651c1cc7303a74061d43ac84","null","null","<p style=""font-size: 60px; font-family: BACS"">LAclArAJu</p>","","","","","","","","",""
"html-keyboard-response","26","163704","0.0-8.0-0.18","60491025dd8eb31e48a0ca8d","650c16f0f2faf8d7a0d14c09","651c1cc7303a74061d43ac84","null","null","<p style=""font-size: 60px; font-family: BACS"">EMYKmhc</p>","","","","","","","","",""
"html-keyboard-response","27","164720","0.0-8.0-0.19","60491025dd8eb31e48a0ca8d","650c16f0f2faf8d7a0d14c09","651c1cc7303a74061d43ac84","null","null","<p style=""font-size: 60px; font-family: BACS"">lhCTCOtM</p>","","","","","","","","",""
"html-keyboard-response","28","165736","0.0-8.0-0.20","60491025dd8eb31e48a0ca8d","650c16f0f2faf8d7a0d14c09","651c1cc7303a74061d43ac84","null","null","<p style=""font-size: 60px; font-family: BACS"">PlEKhBK</p>","","","","","","","","",""
"html-keyboard-response","29","166756","0.0-8.0-0.21","60491025dd8eb31e48a0ca8d","650c16f0f2faf8d7a0d14c09","651c1cc7303a74061d43ac84","null","null","<p style=""font-size: 60px; font-family: BACS"">mUOcOJcUk</p>","","","","","","","","",""
"html-keyboard-response","30","167778","0.0-8.0-0.22","60491025dd8eb31e48a0ca8d","650c16f0f2faf8d7a0d14c09","651c1cc7303a74061d43ac84","null","null","<p style=""font-size: 60px; font-family: BACS"">EPERdOtM</p>","","","","","","","","",""
"html-keyboard-response","31","168799","0.0-8.0-0.23","60491025dd8eb31e48a0ca8d","650c16f0f2faf8d7a0d14c09","651c1cc7303a74061d43ac84","null","null","<p style=""font-size: 60px; font-family: BACS"">JuamlrAJu</p>","","","","","","","","",""
"html-keyboard-response","32","169816","0.0-8.0-0.24","60491025dd8eb31e48a0ca8d","650c16f0f2faf8d7a0d14c09","651c1cc7303a74061d43ac84","null","null","<p style=""font-size: 60px; font-family: BACS"">PlEKhEct</p>","","","","","","","","",""
"html-keyboard-response","33","170845","0.0-8.0-0.25","60491025dd8eb31e48a0ca8d","650c16f0f2faf8d7a0d14c09","651c1cc7303a74061d43ac84","null","null","<p style=""font-size: 60px; font-family: BACS"">TbKMETPOM</p>","","","","","","","","",""
"html-keyboard-response","34","171864","0.0-8.0-0.26","60491025dd8eb31e48a0ca8d","650c16f0f2faf8d7a0d14c09","651c1cc7303a74061d43ac84","null","null","<p style=""font-size: 60px; font-family: BACS"">EPERdhEct</p>","","","","","","","","",""
"html-keyboard-response","35","172888","0.0-8.0-0.27","60491025dd8eb31e48a0ca8d","650c16f0f2faf8d7a0d14c09","651c1cc7303a74061d43ac84","null","null","<p style=""font-size: 60px; font-family: BACS"">UdbdrAJu</p>","","","","","","","","",""
"html-keyboard-response","36","173904","0.0-8.0-0.28","60491025dd8eb31e48a0ca8d","650c16f0f2faf8d7a0d14c09","651c1cc7303a74061d43ac84","null","null","<p style=""font-size: 60px; font-family: BACS"">RkmdChBK</p>","","","","","","","","",""
"html-keyboard-response","37","174926","0.0-8.0-0.29","60491025dd8eb31e48a0ca8d","650c16f0f2faf8d7a0d14c09","651c1cc7303a74061d43ac84","null","null","<p style=""font-size: 60px; font-family: BACS"">auYAkrAJu</p>","","","","","","","","",""
"html-keyboard-response","38","175940","0.0-8.0-0.30","60491025dd8eb31e48a0ca8d","650c16f0f2faf8d7a0d14c09","651c1cc7303a74061d43ac84","null","null","<p style=""font-size: 60px; font-family: BACS"">LdrbvJcUk</p>","","","","","","","","",""
"html-keyboard-response","39","176970","0.0-8.0-0.31","60491025dd8eb31e48a0ca8d","650c16f0f2faf8d7a0d14c09","651c1cc7303a74061d43ac84","null","null","<p style=""font-size: 60px; font-family: BACS"">tDPRkOtM</p>","","","","","","","","",""
"html-keyboard-response","40","177979","0.0-8.0-0.32","60491025dd8eb31e48a0ca8d","650c16f0f2faf8d7a0d14c09","651c1cc7303a74061d43ac84","null","null","<p style=""font-size: 60px; font-family: BACS"">kGlUravu</p>","","","","","","","","",""
"html-keyboard-response","41","179004","0.0-8.0-0.33","60491025dd8eb31e48a0ca8d","650c16f0f2faf8d7a0d14c09","651c1cc7303a74061d43ac84","null","null","<p style=""font-size: 60px; font-family: BACS"">COTKhEct</p>","","","","","","","","",""
"html-keyboard-response","42","180530","0.0-8.0-0.34","60491025dd8eb31e48a0ca8d","650c16f0f2faf8d7a0d14c09","651c1cc7303a74061d43ac84","null","null","<p style=""font-size: 60px; font-family: BACS"">EMYKhBK</p>","","","","","","","","",""
"html-keyboard-response","43","182520","0.0-8.0-0.35","60491025dd8eb31e48a0ca8d","650c16f0f2faf8d7a0d14c09","651c1cc7303a74061d43ac84","null","null","<p style=""font-size: 60px; font-family: BACS"">PlEKOtM</p>","","","","","","","","",""
"html-keyboard-response","44","184529","0.0-8.0-0.36","60491025dd8eb31e48a0ca8d","650c16f0f2faf8d7a0d14c09","651c1cc7303a74061d43ac84","null","null","<p style=""font-size: 60px; font-family: BACS"">Ldrbvravu</p>","","","","","","","","",""
"html-keyboard-response","45","186529","0.0-8.0-0.37","60491025dd8eb31e48a0ca8d","650c16f0f2faf8d7a0d14c09","651c1cc7303a74061d43ac84","null","null","<p style=""font-size: 60px; font-family: BACS"">OdlNmrAJu</p>","","","","","","","","",""
"html-keyboard-response","46","188522","0.0-8.0-0.38","60491025dd8eb31e48a0ca8d","650c16f0f2faf8d7a0d14c09","651c1cc7303a74061d43ac84","null","null","<p style=""font-size: 60px; font-family: BACS"">COTKmhc</p>","","","","","","","","",""
"html-keyboard-response","47","190521","0.0-8.0-0.39","60491025dd8eb31e48a0ca8d","650c16f0f2faf8d7a0d14c09","651c1cc7303a74061d43ac84","null","null","<p style=""font-size: 60px; font-family: BACS"">JuamlYZJO</p>","","","","","","","","",""
"html-keyboard-response","48","192521","0.0-8.0-0.40","60491025dd8eb31e48a0ca8d","650c16f0f2faf8d7a0d14c09","651c1cc7303a74061d43ac84","null","null","<p style=""font-size: 60px; font-family: BACS"">tDPRkmhc</p>","","","","","","","","",""
"html-keyboard-response","49","194532","0.0-8.0-0.41","60491025dd8eb31e48a0ca8d","650c16f0f2faf8d7a0d14c09","651c1cc7303a74061d43ac84","null","null","<p style=""font-size: 60px; font-family: BACS"">EMYKOtM</p>","","","","","","","","",""
"html-keyboard-response","50","196532","0.0-8.0-0.42","60491025dd8eb31e48a0ca8d","650c16f0f2faf8d7a0d14c09","651c1cc7303a74061d43ac84","null","null","<p style=""font-size: 60px; font-family: BACS"">tDPRkTPOM</p>","","","","","","","","",""
"html-keyboard-response","51","197537","0.0-8.0-0.43","60491025dd8eb31e48a0ca8d","650c16f0f2faf8d7a0d14c09","651c1cc7303a74061d43ac84","null","null","<p style=""font-size: 60px; font-family: BACS"">auYAkravu</p>","","","","","","","","",""
"html-keyboard-response","52","199526","0.0-8.0-0.44","60491025dd8eb31e48a0ca8d","650c16f0f2faf8d7a0d14c09","651c1cc7303a74061d43ac84","null","null","<p style=""font-size: 60px; font-family: BACS"">LdrbvYZJO</p>","","","","","","","","",""
"html-keyboard-response","53","201261","0.0-8.0-0.45","60491025dd8eb31e48a0ca8d","650c16f0f2faf8d7a0d14c09","651c1cc7303a74061d43ac84","null","null","<p style=""font-size: 60px; font-family: BACS"">RkmdChEct</p>","","","","","","","","",""
"html-keyboard-response","54","202277","0.0-8.0-0.46","60491025dd8eb31e48a0ca8d","650c16f0f2faf8d7a0d14c09","651c1cc7303a74061d43ac84","null","null","<p style=""font-size: 60px; font-family: BACS"">OdlNmrGl</p>","","","","","","","","",""
"html-keyboard-response","55","203287","0.0-8.0-0.47","60491025dd8eb31e48a0ca8d","650c16f0f2faf8d7a0d14c09","651c1cc7303a74061d43ac84","null","null","<p style=""font-size: 60px; font-family: BACS"">kGlUJcUk</p>","","","","","","","","",""
"html-keyboard-response","56","204294","0.0-8.0-0.48","60491025dd8eb31e48a0ca8d","650c16f0f2faf8d7a0d14c09","651c1cc7303a74061d43ac84","null","null","<p style=""font-size: 60px; font-family: BACS"">TbKMEhBK</p>","","","","","","","","",""
"html-keyboard-response","57","205301","0.0-8.0-0.49","60491025dd8eb31e48a0ca8d","650c16f0f2faf8d7a0d14c09","651c1cc7303a74061d43ac84","null","null","<p style=""font-size: 60px; font-family: BACS"">JuamlrGl</p>","","","","","","","","",""
"html-keyboard-response","58","206339","0.0-8.0-0.50","60491025dd8eb31e48a0ca8d","650c16f0f2faf8d7a0d14c09","651c1cc7303a74061d43ac84","null","null","<p style=""font-size: 60px; font-family: BACS"">PlEKTPOM</p>","","","","","","","","",""
"html-keyboard-response","59","207354","0.0-8.0-0.51","60491025dd8eb31e48a0ca8d","650c16f0f2faf8d7a0d14c09","651c1cc7303a74061d43ac84","null","null","<p style=""font-size: 60px; font-family: BACS"">DmAMEhBK</p>","","","","","","","","",""
"html-keyboard-response","60","208385","0.0-8.0-0.52","60491025dd8eb31e48a0ca8d","650c16f0f2faf8d7a0d14c09","651c1cc7303a74061d43ac84","null","null","<p style=""font-size: 60px; font-family: BACS"">COTKOtM</p>","","","","","","","","",""
"html-keyboard-response","61","209407","0.0-8.0-0.53","60491025dd8eb31e48a0ca8d","650c16f0f2faf8d7a0d14c09","651c1cc7303a74061d43ac84","null","null","<p style=""font-size: 60px; font-family: BACS"">kLvdNrAJu</p>","","","","","","","","",""
"html-keyboard-response","62","210413","0.0-8.0-0.54","60491025dd8eb31e48a0ca8d","650c16f0f2faf8d7a0d14c09","651c1cc7303a74061d43ac84","null","null","<p style=""font-size: 60px; font-family: BACS"">DmAMEmhc</p>","","","","","","","","",""
"html-keyboard-response","63","211437","0.0-8.0-0.55","60491025dd8eb31e48a0ca8d","650c16f0f2faf8d7a0d14c09","651c1cc7303a74061d43ac84","null","null","<p style=""font-size: 60px; font-family: BACS"">RkmdCTPOM</p>","","","","","","","","",""
"html-keyboard-response","64","212462","0.0-8.0-0.56","60491025dd8eb31e48a0ca8d","650c16f0f2faf8d7a0d14c09","651c1cc7303a74061d43ac84","null","null","<p style=""font-size: 60px; font-family: BACS"">vkYGlJcUk</p>","","","","","","","","",""
"html-keyboard-response","65","213484","0.0-8.0-0.57","60491025dd8eb31e48a0ca8d","650c16f0f2faf8d7a0d14c09","651c1cc7303a74061d43ac84","null","null","<p style=""font-size: 60px; font-family: BACS"">lhCTChEct</p>","","","","","","","","",""
"html-keyboard-response","66","214499","0.0-8.0-0.58","60491025dd8eb31e48a0ca8d","650c16f0f2faf8d7a0d14c09","651c1cc7303a74061d43ac84","null","null","<p style=""font-size: 60px; font-family: BACS"">UdbdrGl</p>","","","","","","","","",""
"html-keyboard-response","67","215520","0.0-8.0-0.59","60491025dd8eb31e48a0ca8d","650c16f0f2faf8d7a0d14c09","651c1cc7303a74061d43ac84","null","null","<p style=""font-size: 60px; font-family: BACS"">LdrbvrAJu</p>","","","","","","","","",""
"html-keyboard-response","68","216540","0.0-8.0-0.60","60491025dd8eb31e48a0ca8d","650c16f0f2faf8d7a0d14c09","651c1cc7303a74061d43ac84","null","null","<p style=""font-size: 60px; font-family: BACS"">TbKMEhEct</p>","","","","","","","","",""
"html-keyboard-response","69","217565","0.0-8.0-0.61","60491025dd8eb31e48a0ca8d","650c16f0f2faf8d7a0d14c09","651c1cc7303a74061d43ac84","null","null","<p style=""font-size: 60px; font-family: BACS"">LAclArGl</p>","","","","","","","","",""
"html-keyboard-response","70","218576","0.0-8.0-0.62","60491025dd8eb31e48a0ca8d","650c16f0f2faf8d7a0d14c09","651c1cc7303a74061d43ac84","null","null","<p style=""font-size: 60px; font-family: BACS"">JuamlJcUk</p>","","","","","","","","",""
"html-keyboard-response","71","219592","0.0-8.0-0.63","60491025dd8eb31e48a0ca8d","650c16f0f2faf8d7a0d14c09","651c1cc7303a74061d43ac84","null","null","<p style=""font-size: 60px; font-family: BACS"">EMYKTPOM</p>","","","","","","","","",""
"html-keyboard-response","72","220614","0.0-8.0-0.64","60491025dd8eb31e48a0ca8d","650c16f0f2faf8d7a0d14c09","651c1cc7303a74061d43ac84","null","null","<p style=""font-size: 60px; font-family: BACS"">kLvdNYZJO</p>","","","","","","","","",""
"html-keyboard-response","73","221645","0.0-8.0-0.65","60491025dd8eb31e48a0ca8d","650c16f0f2faf8d7a0d14c09","651c1cc7303a74061d43ac84","null","null","<p style=""font-size: 60px; font-family: BACS"">LAclAravu</p>","","","","","","","","",""
"html-keyboard-response","74","222657","0.0-8.0-0.66","60491025dd8eb31e48a0ca8d","650c16f0f2faf8d7a0d14c09","651c1cc7303a74061d43ac84","null","null","<p style=""font-size: 60px; font-family: BACS"">COTKhBK</p>","","","","","","","","",""
"html-keyboard-response","75","223679","0.0-8.0-0.67","60491025dd8eb31e48a0ca8d","650c16f0f2faf8d7a0d14c09","651c1cc7303a74061d43ac84","null","null","<p style=""font-size: 60px; font-family: BACS"">Udbdravu</p>","","","","","","","","",""
"html-keyboard-response","76","224700","0.0-8.0-0.68","60491025dd8eb31e48a0ca8d","650c16f0f2faf8d7a0d14c09","651c1cc7303a74061d43ac84","null","null","<p style=""font-size: 60px; font-family: BACS"">DmAMEOtM</p>","","","","","","","","",""
"html-keyboard-response","77","225724","0.0-8.0-0.69","60491025dd8eb31e48a0ca8d","650c16f0f2faf8d7a0d14c09","651c1cc7303a74061d43ac84","null","null","<p style=""font-size: 60px; font-family: BACS"">mARMmhc</p>","","","","","","","","",""
"html-keyboard-response","78","226746","0.0-8.0-0.70","60491025dd8eb31e48a0ca8d","650c16f0f2faf8d7a0d14c09","651c1cc7303a74061d43ac84","null","null","<p style=""font-size: 60px; font-family: BACS"">kLvdNravu</p>","","","","","","","","",""
"html-keyboard-response","79","227759","0.0-8.0-0.71","60491025dd8eb31e48a0ca8d","650c16f0f2faf8d7a0d14c09","651c1cc7303a74061d43ac84","null","null","<p style=""font-size: 60px; font-family: BACS"">mUOcOrAJu</p>","","","","","","","","",""
"html-keyboard-response","80","228785","0.0-8.0-0.72","60491025dd8eb31e48a0ca8d","650c16f0f2faf8d7a0d14c09","651c1cc7303a74061d43ac84","null","null","<p style=""font-size: 60px; font-family: BACS"">lhCTCmhc</p>","","","","","","","","",""
"html-keyboard-response","81","229797","0.0-8.0-0.73","60491025dd8eb31e48a0ca8d","650c16f0f2faf8d7a0d14c09","651c1cc7303a74061d43ac84","null","null","<p style=""font-size: 60px; font-family: BACS"">vkYGlravu</p>","","","","","","","","",""
"html-keyboard-response","82","230815","0.0-8.0-0.74","60491025dd8eb31e48a0ca8d","650c16f0f2faf8d7a0d14c09","651c1cc7303a74061d43ac84","null","null","<p style=""font-size: 60px; font-family: BACS"">LAclAYZJO</p>","","","","","","","","",""
"html-keyboard-response","83","231844","0.0-8.0-0.75","60491025dd8eb31e48a0ca8d","650c16f0f2faf8d7a0d14c09","651c1cc7303a74061d43ac84","null","null","<p style=""font-size: 60px; font-family: BACS"">kLvdNJcUk</p>","","","","","","","","",""
"html-keyboard-response","84","232865","0.0-8.0-0.76","60491025dd8eb31e48a0ca8d","650c16f0f2faf8d7a0d14c09","651c1cc7303a74061d43ac84","null","null","<p style=""font-size: 60px; font-family: BACS"">vkYGlYZJO</p>","","","","","","","","",""
"html-keyboard-response","85","233887","0.0-8.0-0.77","60491025dd8eb31e48a0ca8d","650c16f0f2faf8d7a0d14c09","651c1cc7303a74061d43ac84","null","null","<p style=""font-size: 60px; font-family: BACS"">kGlUrGl</p>","","","","","","","","",""
"html-keyboard-response","86","234906","0.0-8.0-0.78","60491025dd8eb31e48a0ca8d","650c16f0f2faf8d7a0d14c09","651c1cc7303a74061d43ac84","null","null","<p style=""font-size: 60px; font-family: BACS"">TbKMEOtM</p>","","","","","","","","",""
"html-keyboard-response","87","235912","0.0-8.0-0.79","60491025dd8eb31e48a0ca8d","650c16f0f2faf8d7a0d14c09","651c1cc7303a74061d43ac84","null","null","<p style=""font-size: 60px; font-family: BACS"">lhCTCTPOM</p>","","","","","","","","",""
"html-keyboard-response","88","317291","0.0-9.0","60491025dd8eb31e48a0ca8d","650c16f0f2faf8d7a0d14c09","651c1cc7303a74061d43ac84","81379"," ","<p>Great, you've seen the first block of words. You may now take a short break.</p>
      <p>Press the spacebar when you're ready to continue.</p>","","","","","","","","",""
"html-keyboard-response","89","318295","0.0-10.0-0.0","60491025dd8eb31e48a0ca8d","650c16f0f2faf8d7a0d14c09","651c1cc7303a74061d43ac84","null","null","<p style=""font-size: 60px; font-family: BACS"">mUOcOrAJu</p>","","","","","","","","",""
"html-keyboard-response","90","319311","0.0-10.0-0.1","60491025dd8eb31e48a0ca8d","650c16f0f2faf8d7a0d14c09","651c1cc7303a74061d43ac84","null","null","<p style=""font-size: 60px; font-family: BACS"">RkmdChEct</p>","","","","","","","","",""
"html-keyboard-response","91","320326","0.0-10.0-0.2","60491025dd8eb31e48a0ca8d","650c16f0f2faf8d7a0d14c09","651c1cc7303a74061d43ac84","null","null","<p style=""font-size: 60px; font-family: BACS"">auYAkrAJu</p>","","","","","","","","",""
"html-keyboard-response","92","321336","0.0-10.0-0.3","60491025dd8eb31e48a0ca8d","650c16f0f2faf8d7a0d14c09","651c1cc7303a74061d43ac84","null","null","<p style=""font-size: 60px; font-family: BACS"">vkYGlravu</p>","","","","","","","","",""
"html-keyboard-response","93","322350","0.0-10.0-0.4","60491025dd8eb31e48a0ca8d","650c16f0f2faf8d7a0d14c09","651c1cc7303a74061d43ac84","null","null","<p style=""font-size: 60px; font-family: BACS"">JuamlrGl</p>","","","","","","","","",""
"html-keyboard-response","94","323368","0.0-10.0-0.5","60491025dd8eb31e48a0ca8d","650c16f0f2faf8d7a0d14c09","651c1cc7303a74061d43ac84","null","null","<p style=""font-size: 60px; font-family: BACS"">PlEKhBK</p>","","","","","","","","",""
"html-keyboard-response","95","324393","0.0-10.0-0.6","60491025dd8eb31e48a0ca8d","650c16f0f2faf8d7a0d14c09","651c1cc7303a74061d43ac84","null","null","<p style=""font-size: 60px; font-family: BACS"">lhCTChEct</p>","","","","","","","","",""
"html-keyboard-response","96","325417","0.0-10.0-0.7","60491025dd8eb31e48a0ca8d","650c16f0f2faf8d7a0d14c09","651c1cc7303a74061d43ac84","null","null","<p style=""font-size: 60px; font-family: BACS"">JuamlrAJu</p>","","","","","","","","",""
"html-keyboard-response","97","326421","0.0-10.0-0.8","60491025dd8eb31e48a0ca8d","650c16f0f2faf8d7a0d14c09","651c1cc7303a74061d43ac84","null","null","<p style=""font-size: 60px; font-family: BACS"">auYAkravu</p>","","","","","","","","",""
"html-keyboard-response","98","327450","0.0-10.0-0.9","60491025dd8eb31e48a0ca8d","650c16f0f2faf8d7a0d14c09","651c1cc7303a74061d43ac84","null","null","<p style=""font-size: 60px; font-family: BACS"">LdrbvYZJO</p>","","","","","","","","",""
"html-keyboard-response","99","328464","0.0-10.0-0.10","60491025dd8eb31e48a0ca8d","650c16f0f2faf8d7a0d14c09","651c1cc7303a74061d43ac84","null","null","<p style=""font-size: 60px; font-family: BACS"">EMYKmhc</p>","","","","","","","","",""
"html-keyboard-response","100","329487","0.0-10.0-0.11","60491025dd8eb31e48a0ca8d","650c16f0f2faf8d7a0d14c09","651c1cc7303a74061d43ac84","null","null","<p style=""font-size: 60px; font-family: BACS"">kGlUravu</p>","","","","","","","","",""
"html-keyboard-response","101","330503","0.0-10.0-0.12","60491025dd8eb31e48a0ca8d","650c16f0f2faf8d7a0d14c09","651c1cc7303a74061d43ac84","null","null","<p style=""font-size: 60px; font-family: BACS"">TbKMEOtM</p>","","","","","","","","",""
"html-keyboard-response","102","331526","0.0-10.0-0.13","60491025dd8eb31e48a0ca8d","650c16f0f2faf8d7a0d14c09","651c1cc7303a74061d43ac84","null","null","<p style=""font-size: 60px; font-family: BACS"">COTKmhc</p>","","","","","","","","",""
"html-keyboard-response","103","332554","0.0-10.0-0.14","60491025dd8eb31e48a0ca8d","650c16f0f2faf8d7a0d14c09","651c1cc7303a74061d43ac84","null","null","<p style=""font-size: 60px; font-family: BACS"">RkmdChBK</p>","","","","","","","","",""
"html-keyboard-response","104","333565","0.0-10.0-0.15","60491025dd8eb31e48a0ca8d","650c16f0f2faf8d7a0d14c09","651c1cc7303a74061d43ac84","null","null","<p style=""font-size: 60px; font-family: BACS"">kGlUJcUk</p>","","","","","","","","",""
"html-keyboard-response","105","334589","0.0-10.0-0.16","60491025dd8eb31e48a0ca8d","650c16f0f2faf8d7a0d14c09","651c1cc7303a74061d43ac84","null","null","<p style=""font-size: 60px; font-family: BACS"">COTKOtM</p>","","","","","","","","",""
"html-keyboard-response","106","335616","0.0-10.0-0.17","60491025dd8eb31e48a0ca8d","650c16f0f2faf8d7a0d14c09","651c1cc7303a74061d43ac84","null","null","<p style=""font-size: 60px; font-family: BACS"">JuamlJcUk</p>","","","","","","","","",""
"html-keyboard-response","107","336634","0.0-10.0-0.18","60491025dd8eb31e48a0ca8d","650c16f0f2faf8d7a0d14c09","651c1cc7303a74061d43ac84","null","null","<p style=""font-size: 60px; font-family: BACS"">COTKhEct</p>","","","","","","","","",""
"html-keyboard-response","108","337654","0.0-10.0-0.19","60491025dd8eb31e48a0ca8d","650c16f0f2faf8d7a0d14c09","651c1cc7303a74061d43ac84","null","null","<p style=""font-size: 60px; font-family: BACS"">kLvdNYZJO</p>","","","","","","","","",""
"html-keyboard-response","109","338670","0.0-10.0-0.20","60491025dd8eb31e48a0ca8d","650c16f0f2faf8d7a0d14c09","651c1cc7303a74061d43ac84","null","null","<p style=""font-size: 60px; font-family: BACS"">DmAMEOtM</p>","","","","","","","","",""
"html-keyboard-response","110","339687","0.0-10.0-0.21","60491025dd8eb31e48a0ca8d","650c16f0f2faf8d7a0d14c09","651c1cc7303a74061d43ac84","null","null","<p style=""font-size: 60px; font-family: BACS"">PlEKTPOM</p>","","","","","","","","",""
"html-keyboard-response","111","340704","0.0-10.0-0.22","60491025dd8eb31e48a0ca8d","650c16f0f2faf8d7a0d14c09","651c1cc7303a74061d43ac84","null","null","<p style=""font-size: 60px; font-family: BACS"">DmAMEhBK</p>","","","","","","","","",""
"html-keyboard-response","112","341725","0.0-10.0-0.23","60491025dd8eb31e48a0ca8d","650c16f0f2faf8d7a0d14c09","651c1cc7303a74061d43ac84","null","null","<p style=""font-size: 60px; font-family: BACS"">LAclAravu</p>","","","","","","","","",""
"html-keyboard-response","113","342754","0.0-10.0-0.24","60491025dd8eb31e48a0ca8d","650c16f0f2faf8d7a0d14c09","651c1cc7303a74061d43ac84","null","null","<p style=""font-size: 60px; font-family: BACS"">TbKMETPOM</p>","","","","","","","","",""
"html-keyboard-response","114","343763","0.0-10.0-0.25","60491025dd8eb31e48a0ca8d","650c16f0f2faf8d7a0d14c09","651c1cc7303a74061d43ac84","null","null","<p style=""font-size: 60px; font-family: BACS"">kGlUrGl</p>","","","","","","","","",""
"html-keyboard-response","115","344797","0.0-10.0-0.26","60491025dd8eb31e48a0ca8d","650c16f0f2faf8d7a0d14c09","651c1cc7303a74061d43ac84","null","null","<p style=""font-size: 60px; font-family: BACS"">TbKMEhBK</p>","","","","","","","","",""
"html-keyboard-response","116","345806","0.0-10.0-0.27","60491025dd8eb31e48a0ca8d","650c16f0f2faf8d7a0d14c09","651c1cc7303a74061d43ac84","null","null","<p style=""font-size: 60px; font-family: BACS"">EPERdmhc</p>","","","","","","","","",""
"html-keyboard-response","117","346827","0.0-10.0-0.28","60491025dd8eb31e48a0ca8d","650c16f0f2faf8d7a0d14c09","651c1cc7303a74061d43ac84","null","null","<p style=""font-size: 60px; font-family: BACS"">vkYGlrGl</p>","","","","","","","","",""
"html-keyboard-response","118","347850","0.0-10.0-0.29","60491025dd8eb31e48a0ca8d","650c16f0f2faf8d7a0d14c09","651c1cc7303a74061d43ac84","null","null","<p style=""font-size: 60px; font-family: BACS"">auYAkYZJO</p>","","","","","","","","",""
"html-keyboard-response","119","348870","0.0-10.0-0.30","60491025dd8eb31e48a0ca8d","650c16f0f2faf8d7a0d14c09","651c1cc7303a74061d43ac84","null","null","<p style=""font-size: 60px; font-family: BACS"">DmAMETPOM</p>","","","","","","","","",""
"html-keyboard-response","120","349883","0.0-10.0-0.31","60491025dd8eb31e48a0ca8d","650c16f0f2faf8d7a0d14c09","651c1cc7303a74061d43ac84","null","null","<p style=""font-size: 60px; font-family: BACS"">EPERdhBK</p>","","","","","","","","",""
"html-keyboard-response","121","350905","0.0-10.0-0.32","60491025dd8eb31e48a0ca8d","650c16f0f2faf8d7a0d14c09","651c1cc7303a74061d43ac84","null","null","<p style=""font-size: 60px; font-family: BACS"">UdbdJcUk</p>","","","","","","","","",""
"html-keyboard-response","122","351925","0.0-10.0-0.33","60491025dd8eb31e48a0ca8d","650c16f0f2faf8d7a0d14c09","651c1cc7303a74061d43ac84","null","null","<p style=""font-size: 60px; font-family: BACS"">mUOcOYZJO</p>","","","","","","","","",""
"html-keyboard-response","123","353528","0.0-10.0-0.34","60491025dd8eb31e48a0ca8d","650c16f0f2faf8d7a0d14c09","651c1cc7303a74061d43ac84","null","null","<p style=""font-size: 60px; font-family: BACS"">vkYGlJcUk</p>","","","","","","","","",""
"html-keyboard-response","124","354531","0.0-10.0-0.35","60491025dd8eb31e48a0ca8d","650c16f0f2faf8d7a0d14c09","651c1cc7303a74061d43ac84","null","null","<p style=""font-size: 60px; font-family: BACS"">OdlNmrAJu</p>","","","","","","","","",""
"html-keyboard-response","125","356534","0.0-10.0-0.36","60491025dd8eb31e48a0ca8d","650c16f0f2faf8d7a0d14c09","651c1cc7303a74061d43ac84","null","null","<p style=""font-size: 60px; font-family: BACS"">Ldrbvravu</p>","","","","","","","","",""
"html-keyboard-response","126","358526","0.0-10.0-0.37","60491025dd8eb31e48a0ca8d","650c16f0f2faf8d7a0d14c09","651c1cc7303a74061d43ac84","null","null","<p style=""font-size: 60px; font-family: BACS"">OdlNmJcUk</p>","","","","","","","","",""
"html-keyboard-response","127","359530","0.0-10.0-0.38","60491025dd8eb31e48a0ca8d","650c16f0f2faf8d7a0d14c09","651c1cc7303a74061d43ac84","null","null","<p style=""font-size: 60px; font-family: BACS"">tDPRkmhc</p>","","","","","","","","",""
"html-keyboard-response","128","361536","0.0-10.0-0.39","60491025dd8eb31e48a0ca8d","650c16f0f2faf8d7a0d14c09","651c1cc7303a74061d43ac84","null","null","<p style=""font-size: 60px; font-family: BACS"">mARMhBK</p>","","","","","","","","",""
"html-keyboard-response","129","363525","0.0-10.0-0.40","60491025dd8eb31e48a0ca8d","650c16f0f2faf8d7a0d14c09","651c1cc7303a74061d43ac84","null","null","<p style=""font-size: 60px; font-family: BACS"">EMYKTPOM</p>","","","","","","","","",""
"html-keyboard-response","130","364532","0.0-10.0-0.41","60491025dd8eb31e48a0ca8d","650c16f0f2faf8d7a0d14c09","651c1cc7303a74061d43ac84","null","null","<p style=""font-size: 60px; font-family: BACS"">lhCTCOtM</p>","","","","","","","","",""
"html-keyboard-response","131","366522","0.0-10.0-0.42","60491025dd8eb31e48a0ca8d","650c16f0f2faf8d7a0d14c09","651c1cc7303a74061d43ac84","null","null","<p style=""font-size: 60px; font-family: BACS"">mARMmhc</p>","","","","","","","","",""
"html-keyboard-response","132","367525","0.0-10.0-0.43","60491025dd8eb31e48a0ca8d","650c16f0f2faf8d7a0d14c09","651c1cc7303a74061d43ac84","null","null","<p style=""font-size: 60px; font-family: BACS"">OdlNmrGl</p>","","","","","","","","",""
"html-keyboard-response","133","368534","0.0-10.0-0.44","60491025dd8eb31e48a0ca8d","650c16f0f2faf8d7a0d14c09","651c1cc7303a74061d43ac84","null","null","<p style=""font-size: 60px; font-family: BACS"">LdrbvrAJu</p>","","","","","","","","",""
"html-keyboard-response","134","370533","0.0-10.0-0.45","60491025dd8eb31e48a0ca8d","650c16f0f2faf8d7a0d14c09","651c1cc7303a74061d43ac84","null","null","<p style=""font-size: 60px; font-family: BACS"">JuamlYZJO</p>","","","","","","","","",""
"html-keyboard-response","135","372521","0.0-10.0-0.46","60491025dd8eb31e48a0ca8d","650c16f0f2faf8d7a0d14c09","651c1cc7303a74061d43ac84","null","null","<p style=""font-size: 60px; font-family: BACS"">tDPRkTPOM</p>","","","","","","","","",""
"html-keyboard-response","136","373527","0.0-10.0-0.47","60491025dd8eb31e48a0ca8d","650c16f0f2faf8d7a0d14c09","651c1cc7303a74061d43ac84","null","null","<p style=""font-size: 60px; font-family: BACS"">UdbdrAJu</p>","","","","","","","","",""
"html-keyboard-response","137","374537","0.0-10.0-0.48","60491025dd8eb31e48a0ca8d","650c16f0f2faf8d7a0d14c09","651c1cc7303a74061d43ac84","null","null","<p style=""font-size: 60px; font-family: BACS"">OdlNmravu</p>","","","","","","","","",""
"html-keyboard-response","138","376527","0.0-10.0-0.49","60491025dd8eb31e48a0ca8d","650c16f0f2faf8d7a0d14c09","651c1cc7303a74061d43ac84","null","null","<p style=""font-size: 60px; font-family: BACS"">EPERdOtM</p>","","","","","","","","",""
"html-keyboard-response","139","378528","0.0-10.0-0.50","60491025dd8eb31e48a0ca8d","650c16f0f2faf8d7a0d14c09","651c1cc7303a74061d43ac84","null","null","<p style=""font-size: 60px; font-family: BACS"">EMYKhBK</p>","","","","","","","","",""
"html-keyboard-response","140","379533","0.0-10.0-0.51","60491025dd8eb31e48a0ca8d","650c16f0f2faf8d7a0d14c09","651c1cc7303a74061d43ac84","null","null","<p style=""font-size: 60px; font-family: BACS"">mUOcOJcUk</p>","","","","","","","","",""
"html-keyboard-response","141","381529","0.0-10.0-0.52","60491025dd8eb31e48a0ca8d","650c16f0f2faf8d7a0d14c09","651c1cc7303a74061d43ac84","null","null","<p style=""font-size: 60px; font-family: BACS"">TbKMEhEct</p>","","","","","","","","",""
"html-keyboard-response","142","383523","0.0-10.0-0.53","60491025dd8eb31e48a0ca8d","650c16f0f2faf8d7a0d14c09","651c1cc7303a74061d43ac84","null","null","<p style=""font-size: 60px; font-family: BACS"">tDPRkOtM</p>","","","","","","","","",""
"html-keyboard-response","143","385524","0.0-10.0-0.54","60491025dd8eb31e48a0ca8d","650c16f0f2faf8d7a0d14c09","651c1cc7303a74061d43ac84","null","null","<p style=""font-size: 60px; font-family: BACS"">kLvdNrAJu</p>","","","","","","","","",""
"html-keyboard-response","144","386529","0.0-10.0-0.55","60491025dd8eb31e48a0ca8d","650c16f0f2faf8d7a0d14c09","651c1cc7303a74061d43ac84","null","null","<p style=""font-size: 60px; font-family: BACS"">DmAMEmhc</p>","","","","","","","","",""
"html-keyboard-response","145","388523","0.0-10.0-0.56","60491025dd8eb31e48a0ca8d","650c16f0f2faf8d7a0d14c09","651c1cc7303a74061d43ac84","null","null","<p style=""font-size: 60px; font-family: BACS"">kGlUYZJO</p>","","","","","","","","",""
"html-keyboard-response","146","389526","0.0-10.0-0.57","60491025dd8eb31e48a0ca8d","650c16f0f2faf8d7a0d14c09","651c1cc7303a74061d43ac84","null","null","<p style=""font-size: 60px; font-family: BACS"">LdrbvJcUk</p>","","","","","","","","",""
"html-keyboard-response","147","390535","0.0-10.0-0.58","60491025dd8eb31e48a0ca8d","650c16f0f2faf8d7a0d14c09","651c1cc7303a74061d43ac84","null","null","<p style=""font-size: 60px; font-family: BACS"">vkYGlYZJO</p>","","","","","","","","",""
"html-keyboard-response","148","392530","0.0-10.0-0.59","60491025dd8eb31e48a0ca8d","650c16f0f2faf8d7a0d14c09","651c1cc7303a74061d43ac84","null","null","<p style=""font-size: 60px; font-family: BACS"">kLvdNJcUk</p>","","","","","","","","",""
"html-keyboard-response","149","393535","0.0-10.0-0.60","60491025dd8eb31e48a0ca8d","650c16f0f2faf8d7a0d14c09","651c1cc7303a74061d43ac84","null","null","<p style=""font-size: 60px; font-family: BACS"">PlEKhEct</p>","","","","","","","","",""
"html-keyboard-response","150","395522","0.0-10.0-0.61","60491025dd8eb31e48a0ca8d","650c16f0f2faf8d7a0d14c09","651c1cc7303a74061d43ac84","null","null","<p style=""font-size: 60px; font-family: BACS"">lhCTCmhc</p>","","","","","","","","",""
"html-keyboard-response","151","397525","0.0-10.0-0.62","60491025dd8eb31e48a0ca8d","650c16f0f2faf8d7a0d14c09","651c1cc7303a74061d43ac84","null","null","<p style=""font-size: 60px; font-family: BACS"">EPERdhEct</p>","","","","","","","","",""
"html-keyboard-response","152","399525","0.0-10.0-0.63","60491025dd8eb31e48a0ca8d","650c16f0f2faf8d7a0d14c09","651c1cc7303a74061d43ac84","null","null","<p style=""font-size: 60px; font-family: BACS"">mUOcOrGl</p>","","","","","","","","",""
"html-keyboard-response","153","400534","0.0-10.0-0.64","60491025dd8eb31e48a0ca8d","650c16f0f2faf8d7a0d14c09","651c1cc7303a74061d43ac84","null","null","<p style=""font-size: 60px; font-family: BACS"">RkmdCmhc</p>","","","","","","","","",""
"html-keyboard-response","154","402533","0.0-10.0-0.65","60491025dd8eb31e48a0ca8d","650c16f0f2faf8d7a0d14c09","651c1cc7303a74061d43ac84","null","null","<p style=""font-size: 60px; font-family: BACS"">tDPRkhEct</p>","","","","","","","","",""
"html-keyboard-response","155","403538","0.0-10.0-0.66","60491025dd8eb31e48a0ca8d","650c16f0f2faf8d7a0d14c09","651c1cc7303a74061d43ac84","null","null","<p style=""font-size: 60px; font-family: BACS"">LAclAYZJO</p>","","","","","","","","",""
"html-keyboard-response","156","405525","0.0-10.0-0.67","60491025dd8eb31e48a0ca8d","650c16f0f2faf8d7a0d14c09","651c1cc7303a74061d43ac84","null","null","<p style=""font-size: 60px; font-family: BACS"">UdbdrGl</p>","","","","","","","","",""
"html-keyboard-response","157","406528","0.0-10.0-0.68","60491025dd8eb31e48a0ca8d","650c16f0f2faf8d7a0d14c09","651c1cc7303a74061d43ac84","null","null","<p style=""font-size: 60px; font-family: BACS"">LAclArAJu</p>","","","","","","","","",""
"html-keyboard-response","158","407530","0.0-10.0-0.69","60491025dd8eb31e48a0ca8d","650c16f0f2faf8d7a0d14c09","651c1cc7303a74061d43ac84","null","null","<p style=""font-size: 60px; font-family: BACS"">auYAkrGl</p>","","","","","","","","",""
"html-keyboard-response","159","409524","0.0-10.0-0.70","60491025dd8eb31e48a0ca8d","650c16f0f2faf8d7a0d14c09","651c1cc7303a74061d43ac84","null","null","<p style=""font-size: 60px; font-family: BACS"">PlEKOtM</p>","","","","","","","","",""
"html-keyboard-response","160","410530","0.0-10.0-0.71","60491025dd8eb31e48a0ca8d","650c16f0f2faf8d7a0d14c09","651c1cc7303a74061d43ac84","null","null","<p style=""font-size: 60px; font-family: BACS"">lhCTCTPOM</p>","","","","","","","","",""
"html-keyboard-response","161","412525","0.0-10.0-0.72","60491025dd8eb31e48a0ca8d","650c16f0f2faf8d7a0d14c09","651c1cc7303a74061d43ac84","null","null","<p style=""font-size: 60px; font-family: BACS"">Udbdravu</p>","","","","","","","","",""
"html-keyboard-response","162","414530","0.0-10.0-0.73","60491025dd8eb31e48a0ca8d","650c16f0f2faf8d7a0d14c09","651c1cc7303a74061d43ac84","null","null","<p style=""font-size: 60px; font-family: BACS"">COTKhBK</p>","","","","","","","","",""
"html-keyboard-response","163","416525","0.0-10.0-0.74","60491025dd8eb31e48a0ca8d","650c16f0f2faf8d7a0d14c09","651c1cc7303a74061d43ac84","null","null","<p style=""font-size: 60px; font-family: BACS"">LAclArGl</p>","","","","","","","","",""
"html-keyboard-response","164","418528","0.0-10.0-0.75","60491025dd8eb31e48a0ca8d","650c16f0f2faf8d7a0d14c09","651c1cc7303a74061d43ac84","null","null","<p style=""font-size: 60px; font-family: BACS"">mARMhEct</p>","","","","","","","","",""
"html-keyboard-response","165","420527","0.0-10.0-0.76","60491025dd8eb31e48a0ca8d","650c16f0f2faf8d7a0d14c09","651c1cc7303a74061d43ac84","null","null","<p style=""font-size: 60px; font-family: BACS"">kLvdNravu</p>","","","","","","","","",""
"html-keyboard-response","166","421530","0.0-10.0-0.77","60491025dd8eb31e48a0ca8d","650c16f0f2faf8d7a0d14c09","651c1cc7303a74061d43ac84","null","null","<p style=""font-size: 60px; font-family: BACS"">mARMTPOM</p>","","","","","","","","",""
"html-keyboard-response","167","423523","0.0-10.0-0.78","60491025dd8eb31e48a0ca8d","650c16f0f2faf8d7a0d14c09","651c1cc7303a74061d43ac84","null","null","<p style=""font-size: 60px; font-family: BACS"">EMYKOtM</p>","","","","","","","","",""
"html-keyboard-response","168","424531","0.0-10.0-0.79","60491025dd8eb31e48a0ca8d","650c16f0f2faf8d7a0d14c09","651c1cc7303a74061d43ac84","null","null","<p style=""font-size: 60px; font-family: BACS"">RkmdCTPOM</p>","","","","","","","","",""
"html-keyboard-response","169","428342","0.0-11.0","60491025dd8eb31e48a0ca8d","650c16f0f2faf8d7a0d14c09","651c1cc7303a74061d43ac84","3810"," ","<p>Great, you've seen the second block of words. You may now take a short break.</p>
      <p>Press the spacebar when you're ready to continue.</p>","","","","","","","","",""
"html-keyboard-response","170","429360","0.0-12.0-0.0","60491025dd8eb31e48a0ca8d","650c16f0f2faf8d7a0d14c09","651c1cc7303a74061d43ac84","null","null","<p style=""font-size: 60px; font-family: BACS"">auYAkrAJu</p>","","","","","","","","",""
"html-keyboard-response","171","430370","0.0-12.0-0.1","60491025dd8eb31e48a0ca8d","650c16f0f2faf8d7a0d14c09","651c1cc7303a74061d43ac84","null","null","<p style=""font-size: 60px; font-family: BACS"">Udbdravu</p>","","","","","","","","",""
"html-keyboard-response","172","431377","0.0-12.0-0.2","60491025dd8eb31e48a0ca8d","650c16f0f2faf8d7a0d14c09","651c1cc7303a74061d43ac84","null","null","<p style=""font-size: 60px; font-family: BACS"">JuamlYZJO</p>","","","","","","","","",""
"html-keyboard-response","173","432379","0.0-12.0-0.3","60491025dd8eb31e48a0ca8d","650c16f0f2faf8d7a0d14c09","651c1cc7303a74061d43ac84","null","null","<p style=""font-size: 60px; font-family: BACS"">DmAMETPOM</p>","","","","","","","","",""
"html-keyboard-response","174","433416","0.0-12.0-0.4","60491025dd8eb31e48a0ca8d","650c16f0f2faf8d7a0d14c09","651c1cc7303a74061d43ac84","null","null","<p style=""font-size: 60px; font-family: BACS"">LdrbvJcUk</p>","","","","","","","","",""
"html-keyboard-response","175","434429","0.0-12.0-0.5","60491025dd8eb31e48a0ca8d","650c16f0f2faf8d7a0d14c09","651c1cc7303a74061d43ac84","null","null","<p style=""font-size: 60px; font-family: BACS"">kGlUrGl</p>","","","","","","","","",""
"html-keyboard-response","176","435445","0.0-12.0-0.6","60491025dd8eb31e48a0ca8d","650c16f0f2faf8d7a0d14c09","651c1cc7303a74061d43ac84","null","null","<p style=""font-size: 60px; font-family: BACS"">PlEKhBK</p>","","","","","","","","",""
"html-keyboard-response","177","436464","0.0-12.0-0.7","60491025dd8eb31e48a0ca8d","650c16f0f2faf8d7a0d14c09","651c1cc7303a74061d43ac84","null","null","<p style=""font-size: 60px; font-family: BACS"">LAclAravu</p>","","","","","","","","",""
"html-keyboard-response","178","437488","0.0-12.0-0.8","60491025dd8eb31e48a0ca8d","650c16f0f2faf8d7a0d14c09","651c1cc7303a74061d43ac84","null","null","<p style=""font-size: 60px; font-family: BACS"">kGlUYZJO</p>","","","","","","","","",""
"html-keyboard-response","179","438505","0.0-12.0-0.9","60491025dd8eb31e48a0ca8d","650c16f0f2faf8d7a0d14c09","651c1cc7303a74061d43ac84","null","null","<p style=""font-size: 60px; font-family: BACS"">OdlNmravu</p>","","","","","","","","",""
"html-keyboard-response","180","439536","0.0-12.0-0.10","60491025dd8eb31e48a0ca8d","650c16f0f2faf8d7a0d14c09","651c1cc7303a74061d43ac84","null","null","<p style=""font-size: 60px; font-family: BACS"">LAclArGl</p>","","","","","","","","",""
"html-keyboard-response","181","440553","0.0-12.0-0.11","60491025dd8eb31e48a0ca8d","650c16f0f2faf8d7a0d14c09","651c1cc7303a74061d43ac84","null","null","<p style=""font-size: 60px; font-family: BACS"">mUOcOJcUk</p>","","","","","","","","",""
"html-keyboard-response","182","441573","0.0-12.0-0.12","60491025dd8eb31e48a0ca8d","650c16f0f2faf8d7a0d14c09","651c1cc7303a74061d43ac84","null","null","<p style=""font-size: 60px; font-family: BACS"">PlEKhEct</p>","","","","","","","","",""
"html-keyboard-response","183","442580","0.0-12.0-0.13","60491025dd8eb31e48a0ca8d","650c16f0f2faf8d7a0d14c09","651c1cc7303a74061d43ac84","null","null","<p style=""font-size: 60px; font-family: BACS"">LdrbvYZJO</p>","","","","","","","","",""
"html-keyboard-response","184","443606","0.0-12.0-0.14","60491025dd8eb31e48a0ca8d","650c16f0f2faf8d7a0d14c09","651c1cc7303a74061d43ac84","null","null","<p style=""font-size: 60px; font-family: BACS"">mARMTPOM</p>","","","","","","","","",""
"html-keyboard-response","185","444623","0.0-12.0-0.15","60491025dd8eb31e48a0ca8d","650c16f0f2faf8d7a0d14c09","651c1cc7303a74061d43ac84","null","null","<p style=""font-size: 60px; font-family: BACS"">COTKOtM</p>","","","","","","","","",""
"html-keyboard-response","186","445646","0.0-12.0-0.16","60491025dd8eb31e48a0ca8d","650c16f0f2faf8d7a0d14c09","651c1cc7303a74061d43ac84","null","null","<p style=""font-size: 60px; font-family: BACS"">TbKMEhEct</p>","","","","","","","","",""
"html-keyboard-response","187","446666","0.0-12.0-0.17","60491025dd8eb31e48a0ca8d","650c16f0f2faf8d7a0d14c09","651c1cc7303a74061d43ac84","null","null","<p style=""font-size: 60px; font-family: BACS"">lhCTCTPOM</p>","","","","","","","","",""
"html-keyboard-response","188","447686","0.0-12.0-0.18","60491025dd8eb31e48a0ca8d","650c16f0f2faf8d7a0d14c09","651c1cc7303a74061d43ac84","null","null","<p style=""font-size: 60px; font-family: BACS"">vkYGlrGl</p>","","","","","","","","",""
"html-keyboard-response","189","448715","0.0-12.0-0.19","60491025dd8eb31e48a0ca8d","650c16f0f2faf8d7a0d14c09","651c1cc7303a74061d43ac84","null","null","<p style=""font-size: 60px; font-family: BACS"">RkmdChEct</p>","","","","","","","","",""
"html-keyboard-response","190","449728","0.0-12.0-0.20","60491025dd8eb31e48a0ca8d","650c16f0f2faf8d7a0d14c09","651c1cc7303a74061d43ac84","null","null","<p style=""font-size: 60px; font-family: BACS"">DmAMEOtM</p>","","","","","","","","",""
"html-keyboard-response","191","450753","0.0-12.0-0.21","60491025dd8eb31e48a0ca8d","650c16f0f2faf8d7a0d14c09","651c1cc7303a74061d43ac84","null","null","<p style=""font-size: 60px; font-family: BACS"">auYAkYZJO</p>","","","","","","","","",""
"html-keyboard-response","192","451763","0.0-12.0-0.22","60491025dd8eb31e48a0ca8d","650c16f0f2faf8d7a0d14c09","651c1cc7303a74061d43ac84","null","null","<p style=""font-size: 60px; font-family: BACS"">COTKhEct</p>","","","","","","","","",""
"html-keyboard-response","193","452783","0.0-12.0-0.23","60491025dd8eb31e48a0ca8d","650c16f0f2faf8d7a0d14c09","651c1cc7303a74061d43ac84","null","null","<p style=""font-size: 60px; font-family: BACS"">tDPRkTPOM</p>","","","","","","","","",""
"html-keyboard-response","194","453816","0.0-12.0-0.24","60491025dd8eb31e48a0ca8d","650c16f0f2faf8d7a0d14c09","651c1cc7303a74061d43ac84","null","null","<p style=""font-size: 60px; font-family: BACS"">mARMmhc</p>","","","","","","","","",""
"html-keyboard-response","195","454825","0.0-12.0-0.25","60491025dd8eb31e48a0ca8d","650c16f0f2faf8d7a0d14c09","651c1cc7303a74061d43ac84","null","null","<p style=""font-size: 60px; font-family: BACS"">EPERdhEct</p>","","","","","","","","",""
"html-keyboard-response","196","455843","0.0-12.0-0.26","60491025dd8eb31e48a0ca8d","650c16f0f2faf8d7a0d14c09","651c1cc7303a74061d43ac84","null","null","<p style=""font-size: 60px; font-family: BACS"">RkmdCTPOM</p>","","","","","","","","",""
"html-keyboard-response","197","456860","0.0-12.0-0.27","60491025dd8eb31e48a0ca8d","650c16f0f2faf8d7a0d14c09","651c1cc7303a74061d43ac84","null","null","<p style=""font-size: 60px; font-family: BACS"">OdlNmrAJu</p>","","","","","","","","",""
"html-keyboard-response","198","457890","0.0-12.0-0.28","60491025dd8eb31e48a0ca8d","650c16f0f2faf8d7a0d14c09","651c1cc7303a74061d43ac84","null","null","<p style=""font-size: 60px; font-family: BACS"">EMYKmhc</p>","","","","","","","","",""
"html-keyboard-response","199","458908","0.0-12.0-0.29","60491025dd8eb31e48a0ca8d","650c16f0f2faf8d7a0d14c09","651c1cc7303a74061d43ac84","null","null","<p style=""font-size: 60px; font-family: BACS"">EPERdOtM</p>","","","","","","","","",""
"html-keyboard-response","200","459931","0.0-12.0-0.30","60491025dd8eb31e48a0ca8d","650c16f0f2faf8d7a0d14c09","651c1cc7303a74061d43ac84","null","null","<p style=""font-size: 60px; font-family: BACS"">auYAkravu</p>","","","","","","","","",""
"html-keyboard-response","201","460953","0.0-12.0-0.31","60491025dd8eb31e48a0ca8d","650c16f0f2faf8d7a0d14c09","651c1cc7303a74061d43ac84","null","null","<p style=""font-size: 60px; font-family: BACS"">DmAMEmhc</p>","","","","","","","","",""
"html-keyboard-response","202","461975","0.0-12.0-0.32","60491025dd8eb31e48a0ca8d","650c16f0f2faf8d7a0d14c09","651c1cc7303a74061d43ac84","null","null","<p style=""font-size: 60px; font-family: BACS"">kGlUJcUk</p>","","","","","","","","",""
"html-keyboard-response","203","462980","0.0-12.0-0.33","60491025dd8eb31e48a0ca8d","650c16f0f2faf8d7a0d14c09","651c1cc7303a74061d43ac84","null","null","<p style=""font-size: 60px; font-family: BACS"">tDPRkOtM</p>","","","","","","","","",""
"html-keyboard-response","204","464526","0.0-12.0-0.34","60491025dd8eb31e48a0ca8d","650c16f0f2faf8d7a0d14c09","651c1cc7303a74061d43ac84","null","null","<p style=""font-size: 60px; font-family: BACS"">DmAMEhBK</p>","","","","","","","","",""
"html-keyboard-response","205","465532","0.0-12.0-0.35","60491025dd8eb31e48a0ca8d","650c16f0f2faf8d7a0d14c09","651c1cc7303a74061d43ac84","null","null","<p style=""font-size: 60px; font-family: BACS"">EMYKOtM</p>","","","","","","","","",""
"html-keyboard-response","206","467531","0.0-12.0-0.36","60491025dd8eb31e48a0ca8d","650c16f0f2faf8d7a0d14c09","651c1cc7303a74061d43ac84","null","null","<p style=""font-size: 60px; font-family: BACS"">OdlNmJcUk</p>","","","","","","","","",""
"html-keyboard-response","207","469525","0.0-12.0-0.37","60491025dd8eb31e48a0ca8d","650c16f0f2faf8d7a0d14c09","651c1cc7303a74061d43ac84","null","null","<p style=""font-size: 60px; font-family: BACS"">lhCTCOtM</p>","","","","","","","","",""
"html-keyboard-response","208","471530","0.0-12.0-0.38","60491025dd8eb31e48a0ca8d","650c16f0f2faf8d7a0d14c09","651c1cc7303a74061d43ac84","null","null","<p style=""font-size: 60px; font-family: BACS"">COTKhBK</p>","","","","","","","","",""
"html-keyboard-response","209","473529","0.0-12.0-0.39","60491025dd8eb31e48a0ca8d","650c16f0f2faf8d7a0d14c09","651c1cc7303a74061d43ac84","null","null","<p style=""font-size: 60px; font-family: BACS"">PlEKOtM</p>","","","","","","","","",""
"html-keyboard-response","210","474533","0.0-12.0-0.40","60491025dd8eb31e48a0ca8d","650c16f0f2faf8d7a0d14c09","651c1cc7303a74061d43ac84","null","null","<p style=""font-size: 60px; font-family: BACS"">JuamlJcUk</p>","","","","","","","","",""
"html-keyboard-response","211","476533","0.0-12.0-0.41","60491025dd8eb31e48a0ca8d","650c16f0f2faf8d7a0d14c09","651c1cc7303a74061d43ac84","null","null","<p style=""font-size: 60px; font-family: BACS"">TbKMETPOM</p>","","","","","","","","",""
"html-keyboard-response","212","478523","0.0-12.0-0.42","60491025dd8eb31e48a0ca8d","650c16f0f2faf8d7a0d14c09","651c1cc7303a74061d43ac84","null","null","<p style=""font-size: 60px; font-family: BACS"">auYAkrGl</p>","","","","","","","","",""
"html-keyboard-response","213","479528","0.0-12.0-0.43","60491025dd8eb31e48a0ca8d","650c16f0f2faf8d7a0d14c09","651c1cc7303a74061d43ac84","null","null","<p style=""font-size: 60px; font-family: BACS"">kLvdNYZJO</p>","","","","","","","","",""
"html-keyboard-response","214","481531","0.0-12.0-0.44","60491025dd8eb31e48a0ca8d","650c16f0f2faf8d7a0d14c09","651c1cc7303a74061d43ac84","null","null","<p style=""font-size: 60px; font-family: BACS"">lhCTChEct</p>","","","","","","","","",""
"html-keyboard-response","215","482534","0.0-12.0-0.45","60491025dd8eb31e48a0ca8d","650c16f0f2faf8d7a0d14c09","651c1cc7303a74061d43ac84","null","null","<p style=""font-size: 60px; font-family: BACS"">RkmdCmhc</p>","","","","","","","","",""
"html-keyboard-response","216","484524","0.0-12.0-0.46","60491025dd8eb31e48a0ca8d","650c16f0f2faf8d7a0d14c09","651c1cc7303a74061d43ac84","null","null","<p style=""font-size: 60px; font-family: BACS"">OdlNmrGl</p>","","","","","","","","",""
"html-keyboard-response","217","486520","0.0-12.0-0.47","60491025dd8eb31e48a0ca8d","650c16f0f2faf8d7a0d14c09","651c1cc7303a74061d43ac84","null","null","<p style=""font-size: 60px; font-family: BACS"">UdbdJcUk</p>","","","","","","","","",""
"html-keyboard-response","218","487528","0.0-12.0-0.48","60491025dd8eb31e48a0ca8d","650c16f0f2faf8d7a0d14c09","651c1cc7303a74061d43ac84","null","null","<p style=""font-size: 60px; font-family: BACS"">lhCTCmhc</p>","","","","","","","","",""
"html-keyboard-response","219","489527","0.0-12.0-0.49","60491025dd8eb31e48a0ca8d","650c16f0f2faf8d7a0d14c09","651c1cc7303a74061d43ac84","null","null","<p style=""font-size: 60px; font-family: BACS"">mARMhBK</p>","","","","","","","","",""
"html-keyboard-response","220","491524","0.0-12.0-0.50","60491025dd8eb31e48a0ca8d","650c16f0f2faf8d7a0d14c09","651c1cc7303a74061d43ac84","null","null","<p style=""font-size: 60px; font-family: BACS"">PlEKTPOM</p>","","","","","","","","",""
"html-keyboard-response","221","493520","0.0-12.0-0.51","60491025dd8eb31e48a0ca8d","650c16f0f2faf8d7a0d14c09","651c1cc7303a74061d43ac84","null","null","<p style=""font-size: 60px; font-family: BACS"">mUOcOYZJO</p>","","","","","","","","",""
"html-keyboard-response","222","494527","0.0-12.0-0.52","60491025dd8eb31e48a0ca8d","650c16f0f2faf8d7a0d14c09","651c1cc7303a74061d43ac84","null","null","<p style=""font-size: 60px; font-family: BACS"">RkmdChBK</p>","","","","","","","","",""
"html-keyboard-response","223","496525","0.0-12.0-0.53","60491025dd8eb31e48a0ca8d","650c16f0f2faf8d7a0d14c09","651c1cc7303a74061d43ac84","null","null","<p style=""font-size: 60px; font-family: BACS"">tDPRkmhc</p>","","","","","","","","",""
"html-keyboard-response","224","497531","0.0-12.0-0.54","60491025dd8eb31e48a0ca8d","650c16f0f2faf8d7a0d14c09","651c1cc7303a74061d43ac84","null","null","<p style=""font-size: 60px; font-family: BACS"">kLvdNJcUk</p>","","","","","","","","",""
"html-keyboard-response","225","499525","0.0-12.0-0.55","60491025dd8eb31e48a0ca8d","650c16f0f2faf8d7a0d14c09","651c1cc7303a74061d43ac84","null","null","<p style=""font-size: 60px; font-family: BACS"">mUOcOrGl</p>","","","","","","","","",""
"html-keyboard-response","226","501524","0.0-12.0-0.56","60491025dd8eb31e48a0ca8d","650c16f0f2faf8d7a0d14c09","651c1cc7303a74061d43ac84","null","null","<p style=""font-size: 60px; font-family: BACS"">vkYGlYZJO</p>","","","","","","","","",""
"html-keyboard-response","227","502530","0.0-12.0-0.57","60491025dd8eb31e48a0ca8d","650c16f0f2faf8d7a0d14c09","651c1cc7303a74061d43ac84","null","null","<p style=""font-size: 60px; font-family: BACS"">COTKmhc</p>","","","","","","","","",""
"html-keyboard-response","228","504529","0.0-12.0-0.58","60491025dd8eb31e48a0ca8d","650c16f0f2faf8d7a0d14c09","651c1cc7303a74061d43ac84","null","null","<p style=""font-size: 60px; font-family: BACS"">kLvdNravu</p>","","","","","","","","",""
"html-keyboard-response","229","506527","0.0-12.0-0.59","60491025dd8eb31e48a0ca8d","650c16f0f2faf8d7a0d14c09","651c1cc7303a74061d43ac84","null","null","<p style=""font-size: 60px; font-family: BACS"">mUOcOrAJu</p>","","","","","","","","",""
"html-keyboard-response","230","508525","0.0-12.0-0.60","60491025dd8eb31e48a0ca8d","650c16f0f2faf8d7a0d14c09","651c1cc7303a74061d43ac84","null","null","<p style=""font-size: 60px; font-family: BACS"">UdbdrGl</p>","","","","","","","","",""
"html-keyboard-response","231","510530","0.0-12.0-0.61","60491025dd8eb31e48a0ca8d","650c16f0f2faf8d7a0d14c09","651c1cc7303a74061d43ac84","null","null","<p style=""font-size: 60px; font-family: BACS"">EPERdmhc</p>","","","","","","","","",""
"html-keyboard-response","232","512533","0.0-12.0-0.62","60491025dd8eb31e48a0ca8d","650c16f0f2faf8d7a0d14c09","651c1cc7303a74061d43ac84","null","null","<p style=""font-size: 60px; font-family: BACS"">vkYGlJcUk</p>","","","","","","","","",""
"html-keyboard-response","233","514529","0.0-12.0-0.63","60491025dd8eb31e48a0ca8d","650c16f0f2faf8d7a0d14c09","651c1cc7303a74061d43ac84","null","null","<p style=""font-size: 60px; font-family: BACS"">EPERdhBK</p>","","","","","","","","",""
"html-keyboard-response","234","516534","0.0-12.0-0.64","60491025dd8eb31e48a0ca8d","650c16f0f2faf8d7a0d14c09","651c1cc7303a74061d43ac84","null","null","<p style=""font-size: 60px; font-family: BACS"">vkYGlravu</p>","","","","","","","","",""
"html-keyboard-response","235","518525","0.0-12.0-0.65","60491025dd8eb31e48a0ca8d","650c16f0f2faf8d7a0d14c09","651c1cc7303a74061d43ac84","null","null","<p style=""font-size: 60px; font-family: BACS"">JuamlrAJu</p>","","","","","","","","",""
"html-keyboard-response","236","519530","0.0-12.0-0.66","60491025dd8eb31e48a0ca8d","650c16f0f2faf8d7a0d14c09","651c1cc7303a74061d43ac84","null","null","<p style=""font-size: 60px; font-family: BACS"">EMYKhBK</p>","","","","","","","","",""
"html-keyboard-response","237","521524","0.0-12.0-0.67","60491025dd8eb31e48a0ca8d","650c16f0f2faf8d7a0d14c09","651c1cc7303a74061d43ac84","null","null","<p style=""font-size: 60px; font-family: BACS"">LdrbvrAJu</p>","","","","","","","","",""
"html-keyboard-response","238","523528","0.0-12.0-0.68","60491025dd8eb31e48a0ca8d","650c16f0f2faf8d7a0d14c09","651c1cc7303a74061d43ac84","null","null","<p style=""font-size: 60px; font-family: BACS"">JuamlrGl</p>","","","","","","","","",""
"html-keyboard-response","239","525522","0.0-12.0-0.69","60491025dd8eb31e48a0ca8d","650c16f0f2faf8d7a0d14c09","651c1cc7303a74061d43ac84","null","null","<p style=""font-size: 60px; font-family: BACS"">kGlUravu</p>","","","","","","","","",""
"html-keyboard-response","240","526525","0.0-12.0-0.70","60491025dd8eb31e48a0ca8d","650c16f0f2faf8d7a0d14c09","651c1cc7303a74061d43ac84","null","null","<p style=""font-size: 60px; font-family: BACS"">LAclAYZJO</p>","","","","","","","","",""
"html-keyboard-response","241","528524","0.0-12.0-0.71","60491025dd8eb31e48a0ca8d","650c16f0f2faf8d7a0d14c09","651c1cc7303a74061d43ac84","null","null","<p style=""font-size: 60px; font-family: BACS"">EMYKTPOM</p>","","","","","","","","",""
"html-keyboard-response","242","529533","0.0-12.0-0.72","60491025dd8eb31e48a0ca8d","650c16f0f2faf8d7a0d14c09","651c1cc7303a74061d43ac84","null","null","<p style=""font-size: 60px; font-family: BACS"">LAclArAJu</p>","","","","","","","","",""
"html-keyboard-response","243","531530","0.0-12.0-0.73","60491025dd8eb31e48a0ca8d","650c16f0f2faf8d7a0d14c09","651c1cc7303a74061d43ac84","null","null","<p style=""font-size: 60px; font-family: BACS"">tDPRkhEct</p>","","","","","","","","",""
"html-keyboard-response","244","533519","0.0-12.0-0.74","60491025dd8eb31e48a0ca8d","650c16f0f2faf8d7a0d14c09","651c1cc7303a74061d43ac84","null","null","<p style=""font-size: 60px; font-family: BACS"">kLvdNrAJu</p>","","","","","","","","",""
"html-keyboard-response","245","534525","0.0-12.0-0.75","60491025dd8eb31e48a0ca8d","650c16f0f2faf8d7a0d14c09","651c1cc7303a74061d43ac84","null","null","<p style=""font-size: 60px; font-family: BACS"">TbKMEOtM</p>","","","","","","","","",""
"html-keyboard-response","246","535534","0.0-12.0-0.76","60491025dd8eb31e48a0ca8d","650c16f0f2faf8d7a0d14c09","651c1cc7303a74061d43ac84","null","null","<p style=""font-size: 60px; font-family: BACS"">Ldrbvravu</p>","","","","","","","","",""
"html-keyboard-response","247","537524","0.0-12.0-0.77","60491025dd8eb31e48a0ca8d","650c16f0f2faf8d7a0d14c09","651c1cc7303a74061d43ac84","null","null","<p style=""font-size: 60px; font-family: BACS"">TbKMEhBK</p>","","","","","","","","",""
"html-keyboard-response","248","539535","0.0-12.0-0.78","60491025dd8eb31e48a0ca8d","650c16f0f2faf8d7a0d14c09","651c1cc7303a74061d43ac84","null","null","<p style=""font-size: 60px; font-family: BACS"">UdbdrAJu</p>","","","","","","","","",""
"html-keyboard-response","249","541523","0.0-12.0-0.79","60491025dd8eb31e48a0ca8d","650c16f0f2faf8d7a0d14c09","651c1cc7303a74061d43ac84","null","null","<p style=""font-size: 60px; font-family: BACS"">mARMhEct</p>","","","","","","","","",""
"html-keyboard-response","250","545182","0.0-13.0","60491025dd8eb31e48a0ca8d","650c16f0f2faf8d7a0d14c09","651c1cc7303a74061d43ac84","3656"," ","<p>Great, you've seen the third block of words. You may now take a short break.</p>
      <p>Press the spacebar when you're ready to continue.</p>","","","","","","","","",""
"html-keyboard-response","251","546189","0.0-14.0-0.0","60491025dd8eb31e48a0ca8d","650c16f0f2faf8d7a0d14c09","651c1cc7303a74061d43ac84","null","null","<p style=""font-size: 60px; font-family: BACS"">kGlUYZJO</p>","","","","","","","","",""
"html-keyboard-response","252","547193","0.0-14.0-0.1","60491025dd8eb31e48a0ca8d","650c16f0f2faf8d7a0d14c09","651c1cc7303a74061d43ac84","null","null","<p style=""font-size: 60px; font-family: BACS"">JuamlJcUk</p>","","","","","","","","",""
"html-keyboard-response","253","548207","0.0-14.0-0.2","60491025dd8eb31e48a0ca8d","650c16f0f2faf8d7a0d14c09","651c1cc7303a74061d43ac84","null","null","<p style=""font-size: 60px; font-family: BACS"">DmAMETPOM</p>","","","","","","","","",""
"html-keyboard-response","254","549214","0.0-14.0-0.3","60491025dd8eb31e48a0ca8d","650c16f0f2faf8d7a0d14c09","651c1cc7303a74061d43ac84","null","null","<p style=""font-size: 60px; font-family: BACS"">LAclArAJu</p>","","","","","","","","",""
"html-keyboard-response","255","550227","0.0-14.0-0.4","60491025dd8eb31e48a0ca8d","650c16f0f2faf8d7a0d14c09","651c1cc7303a74061d43ac84","null","null","<p style=""font-size: 60px; font-family: BACS"">vkYGlrGl</p>","","","","","","","","",""
"html-keyboard-response","256","551254","0.0-14.0-0.5","60491025dd8eb31e48a0ca8d","650c16f0f2faf8d7a0d14c09","651c1cc7303a74061d43ac84","null","null","<p style=""font-size: 60px; font-family: BACS"">tDPRkTPOM</p>","","","","","","","","",""
"html-keyboard-response","257","552267","0.0-14.0-0.6","60491025dd8eb31e48a0ca8d","650c16f0f2faf8d7a0d14c09","651c1cc7303a74061d43ac84","null","null","<p style=""font-size: 60px; font-family: BACS"">PlEKhBK</p>","","","","","","","","",""
"html-keyboard-response","258","553292","0.0-14.0-0.7","60491025dd8eb31e48a0ca8d","650c16f0f2faf8d7a0d14c09","651c1cc7303a74061d43ac84","null","null","<p style=""font-size: 60px; font-family: BACS"">JuamlrAJu</p>","","","","","","","","",""
"html-keyboard-response","259","554305","0.0-14.0-0.8","60491025dd8eb31e48a0ca8d","650c16f0f2faf8d7a0d14c09","651c1cc7303a74061d43ac84","null","null","<p style=""font-size: 60px; font-family: BACS"">OdlNmravu</p>","","","","","","","","",""
"html-keyboard-response","260","555329","0.0-14.0-0.9","60491025dd8eb31e48a0ca8d","650c16f0f2faf8d7a0d14c09","651c1cc7303a74061d43ac84","null","null","<p style=""font-size: 60px; font-family: BACS"">RkmdCTPOM</p>","","","","","","","","",""
"html-keyboard-response","261","556347","0.0-14.0-0.10","60491025dd8eb31e48a0ca8d","650c16f0f2faf8d7a0d14c09","651c1cc7303a74061d43ac84","null","null","<p style=""font-size: 60px; font-family: BACS"">OdlNmrGl</p>","","","","","","","","",""
"html-keyboard-response","262","557362","0.0-14.0-0.11","60491025dd8eb31e48a0ca8d","650c16f0f2faf8d7a0d14c09","651c1cc7303a74061d43ac84","null","null","<p style=""font-size: 60px; font-family: BACS"">Udbdravu</p>","","","","","","","","",""
"html-keyboard-response","263","558394","0.0-14.0-0.12","60491025dd8eb31e48a0ca8d","650c16f0f2faf8d7a0d14c09","651c1cc7303a74061d43ac84","null","null","<p style=""font-size: 60px; font-family: BACS"">auYAkrAJu</p>","","","","","","","","",""
"html-keyboard-response","264","559413","0.0-14.0-0.13","60491025dd8eb31e48a0ca8d","650c16f0f2faf8d7a0d14c09","651c1cc7303a74061d43ac84","null","null","<p style=""font-size: 60px; font-family: BACS"">EPERdOtM</p>","","","","","","","","",""
"html-keyboard-response","265","560426","0.0-14.0-0.14","60491025dd8eb31e48a0ca8d","650c16f0f2faf8d7a0d14c09","651c1cc7303a74061d43ac84","null","null","<p style=""font-size: 60px; font-family: BACS"">TbKMEhEct</p>","","","","","","","","",""
"html-keyboard-response","266","561455","0.0-14.0-0.15","60491025dd8eb31e48a0ca8d","650c16f0f2faf8d7a0d14c09","651c1cc7303a74061d43ac84","null","null","<p style=""font-size: 60px; font-family: BACS"">LdrbvYZJO</p>","","","","","","","","",""
"html-keyboard-response","267","562470","0.0-14.0-0.16","60491025dd8eb31e48a0ca8d","650c16f0f2faf8d7a0d14c09","651c1cc7303a74061d43ac84","null","null","<p style=""font-size: 60px; font-family: BACS"">kLvdNJcUk</p>","","","","","","","","",""
"html-keyboard-response","268","563494","0.0-14.0-0.17","60491025dd8eb31e48a0ca8d","650c16f0f2faf8d7a0d14c09","651c1cc7303a74061d43ac84","null","null","<p style=""font-size: 60px; font-family: BACS"">RkmdChEct</p>","","","","","","","","",""
"html-keyboard-response","269","564506","0.0-14.0-0.18","60491025dd8eb31e48a0ca8d","650c16f0f2faf8d7a0d14c09","651c1cc7303a74061d43ac84","null","null","<p style=""font-size: 60px; font-family: BACS"">DmAMEmhc</p>","","","","","","","","",""
"html-keyboard-response","270","565530","0.0-14.0-0.19","60491025dd8eb31e48a0ca8d","650c16f0f2faf8d7a0d14c09","651c1cc7303a74061d43ac84","null","null","<p style=""font-size: 60px; font-family: BACS"">OdlNmJcUk</p>","","","","","","","","",""
"html-keyboard-response","271","566550","0.0-14.0-0.20","60491025dd8eb31e48a0ca8d","650c16f0f2faf8d7a0d14c09","651c1cc7303a74061d43ac84","null","null","<p style=""font-size: 60px; font-family: BACS"">lhCTCOtM</p>","","","","","","","","",""
"html-keyboard-response","272","567564","0.0-14.0-0.21","60491025dd8eb31e48a0ca8d","650c16f0f2faf8d7a0d14c09","651c1cc7303a74061d43ac84","null","null","<p style=""font-size: 60px; font-family: BACS"">auYAkravu</p>","","","","","","","","",""
"html-keyboard-response","273","568596","0.0-14.0-0.22","60491025dd8eb31e48a0ca8d","650c16f0f2faf8d7a0d14c09","651c1cc7303a74061d43ac84","null","null","<p style=""font-size: 60px; font-family: BACS"">mARMmhc</p>","","","","","","","","",""
"html-keyboard-response","274","569610","0.0-14.0-0.23","60491025dd8eb31e48a0ca8d","650c16f0f2faf8d7a0d14c09","651c1cc7303a74061d43ac84","null","null","<p style=""font-size: 60px; font-family: BACS"">auYAkrGl</p>","","","","","","","","",""
"html-keyboard-response","275","570630","0.0-14.0-0.24","60491025dd8eb31e48a0ca8d","650c16f0f2faf8d7a0d14c09","651c1cc7303a74061d43ac84","null","null","<p style=""font-size: 60px; font-family: BACS"">EMYKOtM</p>","","","","","","","","",""
"html-keyboard-response","276","571643","0.0-14.0-0.25","60491025dd8eb31e48a0ca8d","650c16f0f2faf8d7a0d14c09","651c1cc7303a74061d43ac84","null","null","<p style=""font-size: 60px; font-family: BACS"">JuamlrGl</p>","","","","","","","","",""
"html-keyboard-response","277","572675","0.0-14.0-0.26","60491025dd8eb31e48a0ca8d","650c16f0f2faf8d7a0d14c09","651c1cc7303a74061d43ac84","null","null","<p style=""font-size: 60px; font-family: BACS"">mARMhEct</p>","","","","","","","","",""
"html-keyboard-response","278","573691","0.0-14.0-0.27","60491025dd8eb31e48a0ca8d","650c16f0f2faf8d7a0d14c09","651c1cc7303a74061d43ac84","null","null","<p style=""font-size: 60px; font-family: BACS"">vkYGlJcUk</p>","","","","","","","","",""
"html-keyboard-response","279","574711","0.0-14.0-0.28","60491025dd8eb31e48a0ca8d","650c16f0f2faf8d7a0d14c09","651c1cc7303a74061d43ac84","null","null","<p style=""font-size: 60px; font-family: BACS"">mARMhBK</p>","","","","","","","","",""
"html-keyboard-response","280","575731","0.0-14.0-0.29","60491025dd8eb31e48a0ca8d","650c16f0f2faf8d7a0d14c09","651c1cc7303a74061d43ac84","null","null","<p style=""font-size: 60px; font-family: BACS"">lhCTCTPOM</p>","","","","","","","","",""
"html-keyboard-response","281","576742","0.0-14.0-0.30","60491025dd8eb31e48a0ca8d","650c16f0f2faf8d7a0d14c09","651c1cc7303a74061d43ac84","null","null","<p style=""font-size: 60px; font-family: BACS"">tDPRkhEct</p>","","","","","","","","",""
"html-keyboard-response","282","577775","0.0-14.0-0.31","60491025dd8eb31e48a0ca8d","650c16f0f2faf8d7a0d14c09","651c1cc7303a74061d43ac84","null","null","<p style=""font-size: 60px; font-family: BACS"">TbKMETPOM</p>","","","","","","","","",""
"html-keyboard-response","283","578785","0.0-14.0-0.32","60491025dd8eb31e48a0ca8d","650c16f0f2faf8d7a0d14c09","651c1cc7303a74061d43ac84","null","null","<p style=""font-size: 60px; font-family: BACS"">LAclAYZJO</p>","","","","","","","","",""
"html-keyboard-response","284","579806","0.0-14.0-0.33","60491025dd8eb31e48a0ca8d","650c16f0f2faf8d7a0d14c09","651c1cc7303a74061d43ac84","null","null","<p style=""font-size: 60px; font-family: BACS"">OdlNmrAJu</p>","","","","","","","","",""
"html-keyboard-response","285","581531","0.0-14.0-0.34","60491025dd8eb31e48a0ca8d","650c16f0f2faf8d7a0d14c09","651c1cc7303a74061d43ac84","null","null","<p style=""font-size: 60px; font-family: BACS"">COTKmhc</p>","","","","","","","","",""
"html-keyboard-response","286","583525","0.0-14.0-0.35","60491025dd8eb31e48a0ca8d","650c16f0f2faf8d7a0d14c09","651c1cc7303a74061d43ac84","null","null","<p style=""font-size: 60px; font-family: BACS"">mUOcOJcUk</p>","","","","","","","","",""
"html-keyboard-response","287","585523","0.0-14.0-0.36","60491025dd8eb31e48a0ca8d","650c16f0f2faf8d7a0d14c09","651c1cc7303a74061d43ac84","null","null","<p style=""font-size: 60px; font-family: BACS"">DmAMEhBK</p>","","","","","","","","",""
"html-keyboard-response","288","586531","0.0-14.0-0.37","60491025dd8eb31e48a0ca8d","650c16f0f2faf8d7a0d14c09","651c1cc7303a74061d43ac84","null","null","<p style=""font-size: 60px; font-family: BACS"">mUOcOYZJO</p>","","","","","","","","",""
"html-keyboard-response","289","588532","0.0-14.0-0.38","60491025dd8eb31e48a0ca8d","650c16f0f2faf8d7a0d14c09","651c1cc7303a74061d43ac84","null","null","<p style=""font-size: 60px; font-family: BACS"">LdrbvJcUk</p>","","","","","","","","",""
"html-keyboard-response","290","589537","0.0-14.0-0.39","60491025dd8eb31e48a0ca8d","650c16f0f2faf8d7a0d14c09","651c1cc7303a74061d43ac84","null","null","<p style=""font-size: 60px; font-family: BACS"">COTKOtM</p>","","","","","","","","",""
"html-keyboard-response","291","591523","0.0-14.0-0.40","60491025dd8eb31e48a0ca8d","650c16f0f2faf8d7a0d14c09","651c1cc7303a74061d43ac84","null","null","<p style=""font-size: 60px; font-family: BACS"">lhCTChEct</p>","","","","","","","","",""
"html-keyboard-response","292","593528","0.0-14.0-0.41","60491025dd8eb31e48a0ca8d","650c16f0f2faf8d7a0d14c09","651c1cc7303a74061d43ac84","null","null","<p style=""font-size: 60px; font-family: BACS"">kGlUravu</p>","","","","","","","","",""
"html-keyboard-response","293","595527","0.0-14.0-0.42","60491025dd8eb31e48a0ca8d","650c16f0f2faf8d7a0d14c09","651c1cc7303a74061d43ac84","null","null","<p style=""font-size: 60px; font-family: BACS"">EMYKhBK</p>","","","","","","","","",""
"html-keyboard-response","294","596536","0.0-14.0-0.43","60491025dd8eb31e48a0ca8d","650c16f0f2faf8d7a0d14c09","651c1cc7303a74061d43ac84","null","null","<p style=""font-size: 60px; font-family: BACS"">TbKMEOtM</p>","","","","","","","","",""
"html-keyboard-response","295","598526","0.0-14.0-0.44","60491025dd8eb31e48a0ca8d","650c16f0f2faf8d7a0d14c09","651c1cc7303a74061d43ac84","null","null","<p style=""font-size: 60px; font-family: BACS"">PlEKhEct</p>","","","","","","","","",""
"html-keyboard-response","296","599531","0.0-14.0-0.45","60491025dd8eb31e48a0ca8d","650c16f0f2faf8d7a0d14c09","651c1cc7303a74061d43ac84","null","null","<p style=""font-size: 60px; font-family: BACS"">TbKMEhBK</p>","","","","","","","","",""
"html-keyboard-response","297","601525","0.0-14.0-0.46","60491025dd8eb31e48a0ca8d","650c16f0f2faf8d7a0d14c09","651c1cc7303a74061d43ac84","null","null","<p style=""font-size: 60px; font-family: BACS"">kGlUJcUk</p>","","","","","","","","",""
"html-keyboard-response","298","602533","0.0-14.0-0.47","60491025dd8eb31e48a0ca8d","650c16f0f2faf8d7a0d14c09","651c1cc7303a74061d43ac84","null","null","<p style=""font-size: 60px; font-family: BACS"">tDPRkOtM</p>","","","","","","","","",""
"html-keyboard-response","299","604527","0.0-14.0-0.48","60491025dd8eb31e48a0ca8d","650c16f0f2faf8d7a0d14c09","651c1cc7303a74061d43ac84","null","null","<p style=""font-size: 60px; font-family: BACS"">EMYKTPOM</p>","","","","","","","","",""
"html-keyboard-response","300","605531","0.0-14.0-0.49","60491025dd8eb31e48a0ca8d","650c16f0f2faf8d7a0d14c09","651c1cc7303a74061d43ac84","null","null","<p style=""font-size: 60px; font-family: BACS"">EPERdmhc</p>","","","","","","","","",""
"html-keyboard-response","301","607525","0.0-14.0-0.50","60491025dd8eb31e48a0ca8d","650c16f0f2faf8d7a0d14c09","651c1cc7303a74061d43ac84","null","null","<p style=""font-size: 60px; font-family: BACS"">LdrbvrAJu</p>","","","","","","","","",""
"html-keyboard-response","302","608532","0.0-14.0-0.51","60491025dd8eb31e48a0ca8d","650c16f0f2faf8d7a0d14c09","651c1cc7303a74061d43ac84","null","null","<p style=""font-size: 60px; font-family: BACS"">mUOcOrGl</p>","","","","","","","","",""
"html-keyboard-response","303","610532","0.0-14.0-0.52","60491025dd8eb31e48a0ca8d","650c16f0f2faf8d7a0d14c09","651c1cc7303a74061d43ac84","null","null","<p style=""font-size: 60px; font-family: BACS"">tDPRkmhc</p>","","","","","","","","",""
"html-keyboard-response","304","612522","0.0-14.0-0.53","60491025dd8eb31e48a0ca8d","650c16f0f2faf8d7a0d14c09","651c1cc7303a74061d43ac84","null","null","<p style=""font-size: 60px; font-family: BACS"">kLvdNYZJO</p>","","","","","","","","",""
"html-keyboard-response","305","613535","0.0-14.0-0.54","60491025dd8eb31e48a0ca8d","650c16f0f2faf8d7a0d14c09","651c1cc7303a74061d43ac84","null","null","<p style=""font-size: 60px; font-family: BACS"">kGlUrGl</p>","","","","","","","","",""
"html-keyboard-response","306","615535","0.0-14.0-0.55","60491025dd8eb31e48a0ca8d","650c16f0f2faf8d7a0d14c09","651c1cc7303a74061d43ac84","null","null","<p style=""font-size: 60px; font-family: BACS"">vkYGlYZJO</p>","","","","","","","","",""
"html-keyboard-response","307","617529","0.0-14.0-0.56","60491025dd8eb31e48a0ca8d","650c16f0f2faf8d7a0d14c09","651c1cc7303a74061d43ac84","null","null","<p style=""font-size: 60px; font-family: BACS"">mUOcOrAJu</p>","","","","","","","","",""
"html-keyboard-response","308","619526","0.0-14.0-0.57","60491025dd8eb31e48a0ca8d","650c16f0f2faf8d7a0d14c09","651c1cc7303a74061d43ac84","null","null","<p style=""font-size: 60px; font-family: BACS"">RkmdCmhc</p>","","","","","","","","",""
"html-keyboard-response","309","620531","0.0-14.0-0.58","60491025dd8eb31e48a0ca8d","650c16f0f2faf8d7a0d14c09","651c1cc7303a74061d43ac84","null","null","<p style=""font-size: 60px; font-family: BACS"">COTKhEct</p>","","","","","","","","",""
"html-keyboard-response","310","622523","0.0-14.0-0.59","60491025dd8eb31e48a0ca8d","650c16f0f2faf8d7a0d14c09","651c1cc7303a74061d43ac84","null","null","<p style=""font-size: 60px; font-family: BACS"">LAclArGl</p>","","","","","","","","",""
"html-keyboard-response","311","623529","0.0-14.0-0.60","60491025dd8eb31e48a0ca8d","650c16f0f2faf8d7a0d14c09","651c1cc7303a74061d43ac84","null","null","<p style=""font-size: 60px; font-family: BACS"">kLvdNrAJu</p>","","","","","","","","",""
"html-keyboard-response","312","624533","0.0-14.0-0.61","60491025dd8eb31e48a0ca8d","650c16f0f2faf8d7a0d14c09","651c1cc7303a74061d43ac84","null","null","<p style=""font-size: 60px; font-family: BACS"">UdbdrGl</p>","","","","","","","","",""
"html-keyboard-response","313","626527","0.0-14.0-0.62","60491025dd8eb31e48a0ca8d","650c16f0f2faf8d7a0d14c09","651c1cc7303a74061d43ac84","null","null","<p style=""font-size: 60px; font-family: BACS"">vkYGlravu</p>","","","","","","","","",""
"html-keyboard-response","314","627536","0.0-14.0-0.63","60491025dd8eb31e48a0ca8d","650c16f0f2faf8d7a0d14c09","651c1cc7303a74061d43ac84","null","null","<p style=""font-size: 60px; font-family: BACS"">EPERdhBK</p>","","","","","","","","",""
"html-keyboard-response","315","629535","0.0-14.0-0.64","60491025dd8eb31e48a0ca8d","650c16f0f2faf8d7a0d14c09","651c1cc7303a74061d43ac84","null","null","<p style=""font-size: 60px; font-family: BACS"">Ldrbvravu</p>","","","","","","","","",""
"html-keyboard-response","316","631524","0.0-14.0-0.65","60491025dd8eb31e48a0ca8d","650c16f0f2faf8d7a0d14c09","651c1cc7303a74061d43ac84","null","null","<p style=""font-size: 60px; font-family: BACS"">RkmdChBK</p>","","","","","","","","",""
"html-keyboard-response","317","633525","0.0-14.0-0.66","60491025dd8eb31e48a0ca8d","650c16f0f2faf8d7a0d14c09","651c1cc7303a74061d43ac84","null","null","<p style=""font-size: 60px; font-family: BACS"">LAclAravu</p>","","","","","","","","",""
"html-keyboard-response","318","634536","0.0-14.0-0.67","60491025dd8eb31e48a0ca8d","650c16f0f2faf8d7a0d14c09","651c1cc7303a74061d43ac84","null","null","<p style=""font-size: 60px; font-family: BACS"">lhCTCmhc</p>","","","","","","","","",""
"html-keyboard-response","319","636524","0.0-14.0-0.68","60491025dd8eb31e48a0ca8d","650c16f0f2faf8d7a0d14c09","651c1cc7303a74061d43ac84","null","null","<p style=""font-size: 60px; font-family: BACS"">COTKhBK</p>","","","","","","","","",""
"html-keyboard-response","320","637531","0.0-14.0-0.69","60491025dd8eb31e48a0ca8d","650c16f0f2faf8d7a0d14c09","651c1cc7303a74061d43ac84","null","null","<p style=""font-size: 60px; font-family: BACS"">EPERdhEct</p>","","","","","","","","",""
"html-keyboard-response","321","639530","0.0-14.0-0.70","60491025dd8eb31e48a0ca8d","650c16f0f2faf8d7a0d14c09","651c1cc7303a74061d43ac84","null","null","<p style=""font-size: 60px; font-family: BACS"">UdbdJcUk</p>","","","","","","","","",""
"html-keyboard-response","322","641526","0.0-14.0-0.71","60491025dd8eb31e48a0ca8d","650c16f0f2faf8d7a0d14c09","651c1cc7303a74061d43ac84","null","null","<p style=""font-size: 60px; font-family: BACS"">PlEKTPOM</p>","","","","","","","","",""
"html-keyboard-response","323","643523","0.0-14.0-0.72","60491025dd8eb31e48a0ca8d","650c16f0f2faf8d7a0d14c09","651c1cc7303a74061d43ac84","null","null","<p style=""font-size: 60px; font-family: BACS"">JuamlYZJO</p>","","","","","","","","",""
"html-keyboard-response","324","645527","0.0-14.0-0.73","60491025dd8eb31e48a0ca8d","650c16f0f2faf8d7a0d14c09","651c1cc7303a74061d43ac84","null","null","<p style=""font-size: 60px; font-family: BACS"">DmAMEOtM</p>","","","","","","","","",""
"html-keyboard-response","325","646538","0.0-14.0-0.74","60491025dd8eb31e48a0ca8d","650c16f0f2faf8d7a0d14c09","651c1cc7303a74061d43ac84","null","null","<p style=""font-size: 60px; font-family: BACS"">EMYKmhc</p>","","","","","","","","",""
"html-keyboard-response","326","648526","0.0-14.0-0.75","60491025dd8eb31e48a0ca8d","650c16f0f2faf8d7a0d14c09","651c1cc7303a74061d43ac84","null","null","<p style=""font-size: 60px; font-family: BACS"">PlEKOtM</p>","","","","","","","","",""
"html-keyboard-response","327","649530","0.0-14.0-0.76","60491025dd8eb31e48a0ca8d","650c16f0f2faf8d7a0d14c09","651c1cc7303a74061d43ac84","null","null","<p style=""font-size: 60px; font-family: BACS"">auYAkYZJO</p>","","","","","","","","",""
"html-keyboard-response","328","651535","0.0-14.0-0.77","60491025dd8eb31e48a0ca8d","650c16f0f2faf8d7a0d14c09","651c1cc7303a74061d43ac84","null","null","<p style=""font-size: 60px; font-family: BACS"">mARMTPOM</p>","","","","","","","","",""
"html-keyboard-response","329","653525","0.0-14.0-0.78","60491025dd8eb31e48a0ca8d","650c16f0f2faf8d7a0d14c09","651c1cc7303a74061d43ac84","null","null","<p style=""font-size: 60px; font-family: BACS"">kLvdNravu</p>","","","","","","","","",""
"html-keyboard-response","330","655525","0.0-14.0-0.79","60491025dd8eb31e48a0ca8d","650c16f0f2faf8d7a0d14c09","651c1cc7303a74061d43ac84","null","null","<p style=""font-size: 60px; font-family: BACS"">UdbdrAJu</p>","","","","","","","","",""
"html-keyboard-response","331","659094","0.0-15.0","60491025dd8eb31e48a0ca8d","650c16f0f2faf8d7a0d14c09","651c1cc7303a74061d43ac84","3567"," ","<p>Great, you've seen the fourth block of words. You may now take a short break.</p>
      <p>Press the spacebar when you're ready to continue.</p>","","","","","","","","",""
"html-keyboard-response","332","660106","0.0-16.0-0.0","60491025dd8eb31e48a0ca8d","650c16f0f2faf8d7a0d14c09","651c1cc7303a74061d43ac84","null","null","<p style=""font-size: 60px; font-family: BACS"">lhCTCTPOM</p>","","","","","","","","",""
"html-keyboard-response","333","661110","0.0-16.0-0.1","60491025dd8eb31e48a0ca8d","650c16f0f2faf8d7a0d14c09","651c1cc7303a74061d43ac84","null","null","<p style=""font-size: 60px; font-family: BACS"">lhCTCTPOM</p>","","","","","","","","",""
"html-keyboard-response","334","662115","0.0-16.0-0.2","60491025dd8eb31e48a0ca8d","650c16f0f2faf8d7a0d14c09","651c1cc7303a74061d43ac84","null","null","<p style=""font-size: 60px; font-family: BACS"">lhCTCTPOM</p>","","","","","","","","",""
"html-keyboard-response","335","663129","0.0-16.0-0.3","60491025dd8eb31e48a0ca8d","650c16f0f2faf8d7a0d14c09","651c1cc7303a74061d43ac84","null","null","<p style=""font-size: 60px; font-family: BACS"">lhCTCTPOM</p>","","","","","","","","",""
"html-keyboard-response","336","664166","0.0-16.0-0.4","60491025dd8eb31e48a0ca8d","650c16f0f2faf8d7a0d14c09","651c1cc7303a74061d43ac84","null","null","<p style=""font-size: 60px; font-family: BACS"">lhCTCTPOM</p>","","","","","","","","",""
"html-keyboard-response","337","665189","0.0-16.0-0.5","60491025dd8eb31e48a0ca8d","650c16f0f2faf8d7a0d14c09","651c1cc7303a74061d43ac84","null","null","<p style=""font-size: 60px; font-family: BACS"">lhCTCTPOM</p>","","","","","","","","",""
"html-keyboard-response","338","666218","0.0-16.0-0.6","60491025dd8eb31e48a0ca8d","650c16f0f2faf8d7a0d14c09","651c1cc7303a74061d43ac84","null","null","<p style=""font-size: 60px; font-family: BACS"">lhCTCTPOM</p>","","","","","","","","",""
"html-keyboard-response","339","667232","0.0-16.0-0.7","60491025dd8eb31e48a0ca8d","650c16f0f2faf8d7a0d14c09","651c1cc7303a74061d43ac84","null","null","<p style=""font-size: 60px; font-family: BACS"">lhCTCTPOM</p>","","","","","","","","",""
"html-keyboard-response","340","668252","0.0-16.0-0.8","60491025dd8eb31e48a0ca8d","650c16f0f2faf8d7a0d14c09","651c1cc7303a74061d43ac84","null","null","<p style=""font-size: 60px; font-family: BACS"">lhCTCTPOM</p>","","","","","","","","",""
"html-keyboard-response","341","669272","0.0-16.0-0.9","60491025dd8eb31e48a0ca8d","650c16f0f2faf8d7a0d14c09","651c1cc7303a74061d43ac84","null","null","<p style=""font-size: 60px; font-family: BACS"">lhCTCTPOM</p>","","","","","","","","",""
"html-keyboard-response","342","670284","0.0-16.0-0.10","60491025dd8eb31e48a0ca8d","650c16f0f2faf8d7a0d14c09","651c1cc7303a74061d43ac84","null","null","<p style=""font-size: 60px; font-family: BACS"">lhCTCTPOM</p>","","","","","","","","",""
"html-keyboard-response","343","671306","0.0-16.0-0.11","60491025dd8eb31e48a0ca8d","650c16f0f2faf8d7a0d14c09","651c1cc7303a74061d43ac84","null","null","<p style=""font-size: 60px; font-family: BACS"">lhCTCTPOM</p>","","","","","","","","",""
"html-keyboard-response","344","672326","0.0-16.0-0.12","60491025dd8eb31e48a0ca8d","650c16f0f2faf8d7a0d14c09","651c1cc7303a74061d43ac84","null","null","<p style=""font-size: 60px; font-family: BACS"">lhCTCTPOM</p>","","","","","","","","",""
"html-keyboard-response","345","673349","0.0-16.0-0.13","60491025dd8eb31e48a0ca8d","650c16f0f2faf8d7a0d14c09","651c1cc7303a74061d43ac84","null","null","<p style=""font-size: 60px; font-family: BACS"">lhCTCTPOM</p>","","","","","","","","",""
"html-keyboard-response","346","674365","0.0-16.0-0.14","60491025dd8eb31e48a0ca8d","650c16f0f2faf8d7a0d14c09","651c1cc7303a74061d43ac84","null","null","<p style=""font-size: 60px; font-family: BACS"">lhCTCTPOM</p>","","","","","","","","",""
"html-keyboard-response","347","675385","0.0-16.0-0.15","60491025dd8eb31e48a0ca8d","650c16f0f2faf8d7a0d14c09","651c1cc7303a74061d43ac84","null","null","<p style=""font-size: 60px; font-family: BACS"">lhCTCTPOM</p>","","","","","","","","",""
"html-keyboard-response","348","676409","0.0-16.0-0.16","60491025dd8eb31e48a0ca8d","650c16f0f2faf8d7a0d14c09","651c1cc7303a74061d43ac84","null","null","<p style=""font-size: 60px; font-family: BACS"">lhCTCTPOM</p>","","","","","","","","",""
"html-keyboard-response","349","677438","0.0-16.0-0.17","60491025dd8eb31e48a0ca8d","650c16f0f2faf8d7a0d14c09","651c1cc7303a74061d43ac84","null","null","<p style=""font-size: 60px; font-family: BACS"">lhCTCTPOM</p>","","","","","","","","",""
"html-keyboard-response","350","678448","0.0-16.0-0.18","60491025dd8eb31e48a0ca8d","650c16f0f2faf8d7a0d14c09","651c1cc7303a74061d43ac84","null","null","<p style=""font-size: 60px; font-family: BACS"">lhCTCTPOM</p>","","","","","","","","",""
"html-keyboard-response","351","679475","0.0-16.0-0.19","60491025dd8eb31e48a0ca8d","650c16f0f2faf8d7a0d14c09","651c1cc7303a74061d43ac84","null","null","<p style=""font-size: 60px; font-family: BACS"">lhCTCTPOM</p>","","","","","","","","",""
"html-keyboard-response","352","680480","0.0-16.0-0.20","60491025dd8eb31e48a0ca8d","650c16f0f2faf8d7a0d14c09","651c1cc7303a74061d43ac84","null","null","<p style=""font-size: 60px; font-family: BACS"">lhCTCTPOM</p>","","","","","","","","",""
"html-keyboard-response","353","681513","0.0-16.0-0.21","60491025dd8eb31e48a0ca8d","650c16f0f2faf8d7a0d14c09","651c1cc7303a74061d43ac84","null","null","<p style=""font-size: 60px; font-family: BACS"">lhCTCTPOM</p>","","","","","","","","",""
"html-keyboard-response","354","682531","0.0-16.0-0.22","60491025dd8eb31e48a0ca8d","650c16f0f2faf8d7a0d14c09","651c1cc7303a74061d43ac84","null","null","<p style=""font-size: 60px; font-family: BACS"">lhCTCTPOM</p>","","","","","","","","",""
"html-keyboard-response","355","683541","0.0-16.0-0.23","60491025dd8eb31e48a0ca8d","650c16f0f2faf8d7a0d14c09","651c1cc7303a74061d43ac84","null","null","<p style=""font-size: 60px; font-family: BACS"">lhCTCTPOM</p>","","","","","","","","",""
"html-keyboard-response","356","684568","0.0-16.0-0.24","60491025dd8eb31e48a0ca8d","650c16f0f2faf8d7a0d14c09","651c1cc7303a74061d43ac84","null","null","<p style=""font-size: 60px; font-family: BACS"">lhCTCTPOM</p>","","","","","","","","",""
"html-keyboard-response","357","685584","0.0-16.0-0.25","60491025dd8eb31e48a0ca8d","650c16f0f2faf8d7a0d14c09","651c1cc7303a74061d43ac84","null","null","<p style=""font-size: 60px; font-family: BACS"">lhCTCTPOM</p>","","","","","","","","",""
"html-keyboard-response","358","686615","0.0-16.0-0.26","60491025dd8eb31e48a0ca8d","650c16f0f2faf8d7a0d14c09","651c1cc7303a74061d43ac84","null","null","<p style=""font-size: 60px; font-family: BACS"">lhCTCTPOM</p>","","","","","","","","",""
"html-keyboard-response","359","687630","0.0-16.0-0.27","60491025dd8eb31e48a0ca8d","650c16f0f2faf8d7a0d14c09","651c1cc7303a74061d43ac84","null","null","<p style=""font-size: 60px; font-family: BACS"">lhCTCTPOM</p>","","","","","","","","",""
"html-keyboard-response","360","688654","0.0-16.0-0.28","60491025dd8eb31e48a0ca8d","650c16f0f2faf8d7a0d14c09","651c1cc7303a74061d43ac84","null","null","<p style=""font-size: 60px; font-family: BACS"">lhCTCTPOM</p>","","","","","","","","",""
"html-keyboard-response","361","689664","0.0-16.0-0.29","60491025dd8eb31e48a0ca8d","650c16f0f2faf8d7a0d14c09","651c1cc7303a74061d43ac84","null","null","<p style=""font-size: 60px; font-family: BACS"">lhCTCTPOM</p>","","","","","","","","",""
"html-keyboard-response","362","690695","0.0-16.0-0.30","60491025dd8eb31e48a0ca8d","650c16f0f2faf8d7a0d14c09","651c1cc7303a74061d43ac84","null","null","<p style=""font-size: 60px; font-family: BACS"">lhCTCTPOM</p>","","","","","","","","",""
"html-keyboard-response","363","691701","0.0-16.0-0.31","60491025dd8eb31e48a0ca8d","650c16f0f2faf8d7a0d14c09","651c1cc7303a74061d43ac84","null","null","<p style=""font-size: 60px; font-family: BACS"">lhCTCTPOM</p>","","","","","","","","",""
"html-keyboard-response","364","692734","0.0-16.0-0.32","60491025dd8eb31e48a0ca8d","650c16f0f2faf8d7a0d14c09","651c1cc7303a74061d43ac84","null","null","<p style=""font-size: 60px; font-family: BACS"">lhCTCTPOM</p>","","","","","","","","",""
"html-keyboard-response","365","693741","0.0-16.0-0.33","60491025dd8eb31e48a0ca8d","650c16f0f2faf8d7a0d14c09","651c1cc7303a74061d43ac84","null","null","<p style=""font-size: 60px; font-family: BACS"">lhCTCTPOM</p>","","","","","","","","",""
"html-keyboard-response","366","695527","0.0-16.0-0.34","60491025dd8eb31e48a0ca8d","650c16f0f2faf8d7a0d14c09","651c1cc7303a74061d43ac84","null","null","<p style=""font-size: 60px; font-family: BACS"">lhCTCTPOM</p>","","","","","","","","",""
"html-keyboard-response","367","696529","0.0-16.0-0.35","60491025dd8eb31e48a0ca8d","650c16f0f2faf8d7a0d14c09","651c1cc7303a74061d43ac84","null","null","<p style=""font-size: 60px; font-family: BACS"">lhCTCTPOM</p>","","","","","","","","",""
"html-keyboard-response","368","698526","0.0-16.0-0.36","60491025dd8eb31e48a0ca8d","650c16f0f2faf8d7a0d14c09","651c1cc7303a74061d43ac84","null","null","<p style=""font-size: 60px; font-family: BACS"">lhCTCTPOM</p>","","","","","","","","",""
"html-keyboard-response","369","700531","0.0-16.0-0.37","60491025dd8eb31e48a0ca8d","650c16f0f2faf8d7a0d14c09","651c1cc7303a74061d43ac84","null","null","<p style=""font-size: 60px; font-family: BACS"">lhCTCTPOM</p>","","","","","","","","",""
"html-keyboard-response","370","702531","0.0-16.0-0.38","60491025dd8eb31e48a0ca8d","650c16f0f2faf8d7a0d14c09","651c1cc7303a74061d43ac84","null","null","<p style=""font-size: 60px; font-family: BACS"">lhCTCTPOM</p>","","","","","","","","",""
"html-keyboard-response","371","704532","0.0-16.0-0.39","60491025dd8eb31e48a0ca8d","650c16f0f2faf8d7a0d14c09","651c1cc7303a74061d43ac84","null","null","<p style=""font-size: 60px; font-family: BACS"">lhCTCTPOM</p>","","","","","","","","",""
"html-keyboard-response","372","706525","0.0-16.0-0.40","60491025dd8eb31e48a0ca8d","650c16f0f2faf8d7a0d14c09","651c1cc7303a74061d43ac84","null","null","<p style=""font-size: 60px; font-family: BACS"">lhCTCTPOM</p>","","","","","","","","",""
"html-keyboard-response","373","708528","0.0-16.0-0.41","60491025dd8eb31e48a0ca8d","650c16f0f2faf8d7a0d14c09","651c1cc7303a74061d43ac84","null","null","<p style=""font-size: 60px; font-family: BACS"">lhCTCTPOM</p>","","","","","","","","",""
"html-keyboard-response","374","710524","0.0-16.0-0.42","60491025dd8eb31e48a0ca8d","650c16f0f2faf8d7a0d14c09","651c1cc7303a74061d43ac84","null","null","<p style=""font-size: 60px; font-family: BACS"">lhCTCTPOM</p>","","","","","","","","",""
"html-keyboard-response","375","711536","0.0-16.0-0.43","60491025dd8eb31e48a0ca8d","650c16f0f2faf8d7a0d14c09","651c1cc7303a74061d43ac84","null","null","<p style=""font-size: 60px; font-family: BACS"">lhCTCTPOM</p>","","","","","","","","",""
"html-keyboard-response","376","713524","0.0-16.0-0.44","60491025dd8eb31e48a0ca8d","650c16f0f2faf8d7a0d14c09","651c1cc7303a74061d43ac84","null","null","<p style=""font-size: 60px; font-family: BACS"">lhCTCTPOM</p>","","","","","","","","",""
"html-keyboard-response","377","714534","0.0-16.0-0.45","60491025dd8eb31e48a0ca8d","650c16f0f2faf8d7a0d14c09","651c1cc7303a74061d43ac84","null","null","<p style=""font-size: 60px; font-family: BACS"">lhCTCTPOM</p>","","","","","","","","",""
"html-keyboard-response","378","716525","0.0-16.0-0.46","60491025dd8eb31e48a0ca8d","650c16f0f2faf8d7a0d14c09","651c1cc7303a74061d43ac84","null","null","<p style=""font-size: 60px; font-family: BACS"">lhCTCTPOM</p>","","","","","","","","",""
"html-keyboard-response","379","717531","0.0-16.0-0.47","60491025dd8eb31e48a0ca8d","650c16f0f2faf8d7a0d14c09","651c1cc7303a74061d43ac84","null","null","<p style=""font-size: 60px; font-family: BACS"">lhCTCTPOM</p>","","","","","","","","",""
"html-keyboard-response","380","719529","0.0-16.0-0.48","60491025dd8eb31e48a0ca8d","650c16f0f2faf8d7a0d14c09","651c1cc7303a74061d43ac84","null","null","<p style=""font-size: 60px; font-family: BACS"">lhCTCTPOM</p>","","","","","","","","",""
"html-keyboard-response","381","721536","0.0-16.0-0.49","60491025dd8eb31e48a0ca8d","650c16f0f2faf8d7a0d14c09","651c1cc7303a74061d43ac84","null","null","<p style=""font-size: 60px; font-family: BACS"">lhCTCTPOM</p>","","","","","","","","",""
"html-keyboard-response","382","723526","0.0-16.0-0.50","60491025dd8eb31e48a0ca8d","650c16f0f2faf8d7a0d14c09","651c1cc7303a74061d43ac84","null","null","<p style=""font-size: 60px; font-family: BACS"">lhCTCTPOM</p>","","","","","","","","",""
"html-keyboard-response","383","724532","0.0-16.0-0.51","60491025dd8eb31e48a0ca8d","650c16f0f2faf8d7a0d14c09","651c1cc7303a74061d43ac84","null","null","<p style=""font-size: 60px; font-family: BACS"">lhCTCTPOM</p>","","","","","","","","",""
"html-keyboard-response","384","726536","0.0-16.0-0.52","60491025dd8eb31e48a0ca8d","650c16f0f2faf8d7a0d14c09","651c1cc7303a74061d43ac84","null","null","<p style=""font-size: 60px; font-family: BACS"">lhCTCTPOM</p>","","","","","","","","",""
"html-keyboard-response","385","728528","0.0-16.0-0.53","60491025dd8eb31e48a0ca8d","650c16f0f2faf8d7a0d14c09","651c1cc7303a74061d43ac84","null","null","<p style=""font-size: 60px; font-family: BACS"">lhCTCTPOM</p>","","","","","","","","",""
"html-keyboard-response","386","730529","0.0-16.0-0.54","60491025dd8eb31e48a0ca8d","650c16f0f2faf8d7a0d14c09","651c1cc7303a74061d43ac84","null","null","<p style=""font-size: 60px; font-family: BACS"">lhCTCTPOM</p>","","","","","","","","",""
"html-keyboard-response","387","732528","0.0-16.0-0.55","60491025dd8eb31e48a0ca8d","650c16f0f2faf8d7a0d14c09","651c1cc7303a74061d43ac84","null","null","<p style=""font-size: 60px; font-family: BACS"">lhCTCTPOM</p>","","","","","","","","",""
"html-keyboard-response","388","734533","0.0-16.0-0.56","60491025dd8eb31e48a0ca8d","650c16f0f2faf8d7a0d14c09","651c1cc7303a74061d43ac84","null","null","<p style=""font-size: 60px; font-family: BACS"">lhCTCTPOM</p>","","","","","","","","",""
"html-keyboard-response","389","736524","0.0-16.0-0.57","60491025dd8eb31e48a0ca8d","650c16f0f2faf8d7a0d14c09","651c1cc7303a74061d43ac84","null","null","<p style=""font-size: 60px; font-family: BACS"">lhCTCTPOM</p>","","","","","","","","",""
"html-keyboard-response","390","738526","0.0-16.0-0.58","60491025dd8eb31e48a0ca8d","650c16f0f2faf8d7a0d14c09","651c1cc7303a74061d43ac84","null","null","<p style=""font-size: 60px; font-family: BACS"">lhCTCTPOM</p>","","","","","","","","",""
"html-keyboard-response","391","739530","0.0-16.0-0.59","60491025dd8eb31e48a0ca8d","650c16f0f2faf8d7a0d14c09","651c1cc7303a74061d43ac84","null","null","<p style=""font-size: 60px; font-family: BACS"">lhCTCTPOM</p>","","","","","","","","",""
"html-keyboard-response","392","741529","0.0-16.0-0.60","60491025dd8eb31e48a0ca8d","650c16f0f2faf8d7a0d14c09","651c1cc7303a74061d43ac84","null","null","<p style=""font-size: 60px; font-family: BACS"">lhCTCTPOM</p>","","","","","","","","",""
"html-keyboard-response","393","743521","0.0-16.0-0.61","60491025dd8eb31e48a0ca8d","650c16f0f2faf8d7a0d14c09","651c1cc7303a74061d43ac84","null","null","<p style=""font-size: 60px; font-family: BACS"">lhCTCTPOM</p>","","","","","","","","",""
"html-keyboard-response","394","744526","0.0-16.0-0.62","60491025dd8eb31e48a0ca8d","650c16f0f2faf8d7a0d14c09","651c1cc7303a74061d43ac84","null","null","<p style=""font-size: 60px; font-family: BACS"">lhCTCTPOM</p>","","","","","","","","",""
"html-keyboard-response","395","745533","0.0-16.0-0.63","60491025dd8eb31e48a0ca8d","650c16f0f2faf8d7a0d14c09","651c1cc7303a74061d43ac84","null","null","<p style=""font-size: 60px; font-family: BACS"">lhCTCTPOM</p>","","","","","","","","",""
"html-keyboard-response","396","747523","0.0-16.0-0.64","60491025dd8eb31e48a0ca8d","650c16f0f2faf8d7a0d14c09","651c1cc7303a74061d43ac84","null","null","<p style=""font-size: 60px; font-family: BACS"">lhCTCTPOM</p>","","","","","","","","",""
"html-keyboard-response","397","749524","0.0-16.0-0.65","60491025dd8eb31e48a0ca8d","650c16f0f2faf8d7a0d14c09","651c1cc7303a74061d43ac84","null","null","<p style=""font-size: 60px; font-family: BACS"">lhCTCTPOM</p>","","","","","","","","",""
"html-keyboard-response","398","750528","0.0-16.0-0.66","60491025dd8eb31e48a0ca8d","650c16f0f2faf8d7a0d14c09","651c1cc7303a74061d43ac84","null","null","<p style=""font-size: 60px; font-family: BACS"">lhCTCTPOM</p>","","","","","","","","",""
"html-keyboard-response","399","752530","0.0-16.0-0.67","60491025dd8eb31e48a0ca8d","650c16f0f2faf8d7a0d14c09","651c1cc7303a74061d43ac84","null","null","<p style=""font-size: 60px; font-family: BACS"">lhCTCTPOM</p>","","","","","","","","",""
