"trial_type","trial_index","time_elapsed","internal_node_id","subject_id","study_id","session_id","rt","response","stimulus","success","item","task","correct_response","correct","target","confound","name"
"pavlovia","0","3859","0.0-0.0","5fb3f38909fc360164f7c98d","64b003020eef62ee308107cc","64b035e4da5b99d0e81bd3d9","","","","","","","","","","",""
"survey-html-form","1","24025","0.0-1.0","5fb3f38909fc360164f7c98d","64b003020eef62ee308107cc","64b035e4da5b99d0e81bd3d9","20164","{""ID"":""5fb3f38909fc360164f7c98d""}","","","","","","","","",""
"html-keyboard-response","2","36214","0.0-2.0","5fb3f38909fc360164f7c98d","64b003020eef62ee308107cc","64b035e4da5b99d0e81bd3d9","12192"," ","<p style=""font-size: 15px;"">Prima di cominciare, le chiediamo di leggere il modulo di consenso informato e confermare la sua volontà di partecipare all'esperimento.</p>
      <p style=""font-size: 15px;""> La preghiamo di ricordare che questo è un progetto di ricerca e che la sua partecipazione è completamente volontaria. Lei si potra' ritirare in qualunque momento, senza necessariamente dover dare alcuna spiegazione. Lo studio al quale Le si chiede di partecipare ha lo scopo di esaminare come i lettori elaborano le parole scritte. La somministrazione delle prove è individuale. Lei sarà impegnato in una sessione di lavoro della durata media di 10 minuti, e un questionario di 10 minuti. L’ordine delle prove ed il loro svolgimento sono stabiliti in modo tale da evitare un eventuale affaticamento. Tutte le prove saranno precedute da un breve addestramento in modo tale che abbia la possibilità di familiarizzare con il compito. Sono previste alcune pause nel corso dello svolgimento dell’esperimento. Una ricompensa di £4 (£8 per ora) Le verrà consegnata al termine della sessione di testing. Nonostante il testing preveda delle prove cognitive, il presente esperimento non costituisce una prova clinica che permetta la diagnosi di eventuali patologie.</p>
      <p style=""font-size: 15px;"">Tutti i dati raccolti grazie alla partecipazione Sua e di altre persone volontarie saranno custoditi in server sicuri e protetti da password, e non sarà consentito ad alcuna persona non autorizzata di accedervi. Le Sue informazioni personali saranno conservate separatamente dai risultati della presente ricerca, cui saranno associati soltanto attraverso un ID arbitrario. Grazie a questo processo di anonimizzazione dei dati, a nessun ricercatore sarà possibile analizzare i risultati sapendo da quale specifico partecipante essi provengono. Inoltre, questa procedura renderà impossibile la Sua identificazione anche nel momento in cui i risultati della ricerca fossero pubblicati su riviste scientifiche, o presentati a congressi o in qualsiasi altro pubblico consesso. Più in generale, i dati raccolti saranno trattati in accordo con le leggi sulla privacy e in conformità al Decreto Legislativo 30 giugno 2003 n. 196 “Codice in materia di protezione dei dati personali” e al Regolamento Europeo 2016/679 (General Data Protection Regulation - GDPR). Il Responsabile della protezione dei dati (RPD) è l’Avv. Valentina Carollo che può essere contattato ai seguenti indirizzi email: <a href=""mailto:dpo@sissa.it"">dpo@sissa.it</a> oppure <a href=""mailto:rpd@sissa.it"">rpd@sissa.it</a> - PEC: <a href=""mailto:protocollo@pec.sissa.it"">protocollo@pec.sissa.it</a>.</p>
      <p style=""font-size: 15px;""> Prima di esprimere il suo consenso alla partecipazione, Le ricordiamo ancora che in caso Lei abbia bisogno di delucidazioni su qualunque aspetto della procedura sperimentale, il ricercatore è a Sua completa disposizione (<a href=""mailto:aliebelt@sissa.it"">aliebelt@sissa.it</a>, <a href=""mailto:davide.crepaldi@sissa.it"">davide.crepaldi@sissa.it</a>).</p>
      <p style=""font-size: 15px;"">Se vuole scaricare il modulo di consenso informato, clicca qui: <a href=""BASL_modulo_consenso.pdf"" download>modulo di consenso</a>.</p>
      <p style=""font-size: 15px;""> Le chiediamo di premere la barra per continuare al consenso.</p>","","","","","","","",""
"survey-html-form","3","64205","0.0-3.0","5fb3f38909fc360164f7c98d","64b003020eef62ee308107cc","64b035e4da5b99d0e81bd3d9","27990","{""consent1"":""YES"",""consent2"":""YES"",""consent3"":""YES"",""consent4"":""YES"",""consent5"":""YES"",""consent6"":""YES""}","","","","","","","","",""
"fullscreen","4","69154","0.0-4.0","5fb3f38909fc360164f7c98d","64b003020eef62ee308107cc","64b035e4da5b99d0e81bd3d9","","","","true","","","","","","",""
"html-keyboard-response","5","82622","0.0-5.0","5fb3f38909fc360164f7c98d","64b003020eef62ee308107cc","64b035e4da5b99d0e81bd3d9","13466"," ","<p>Benvenuta/o, e grazie mille del tuo tempo!</p>
      <p>In questo esperimento sarai un esperto/un'esperta di linguaggio cui è stato chiesto di dare un'occhiata ad alcuni messaggi che la Terra ha ricevuto dallo spazio. Il tuo compito, in questa prima parte dell'esperimento, sarà di fare molta attenzione alle parole che ti verranno mostrate; più tardi, i leader del mondo ti chiederanno qualche informazione su quello che hai visto. Le parole si susseguiranno abbastanza velocemente; sembra che questi alieni abbiano una certa fretta :-) </p>
      <p>Per favore, chiama lo sperimentatore se ha qualche domanda.</p><p>Premi la barra per continuare.</p>","","","","","","","",""
"html-keyboard-response","6","103708","0.0-6.0","5fb3f38909fc360164f7c98d","64b003020eef62ee308107cc","64b035e4da5b99d0e81bd3d9","21093"," ","<p>Ecco un esempio delle parole che vedrai:</p>
      <img src='esempio.png' height='400px'>
      <p>Quando sei pronti per iniziare, premi la barra.</p></div>","","","","","","","",""
"html-keyboard-response","7","104721","0.0-7.0-0.0","5fb3f38909fc360164f7c98d","64b003020eef62ee308107cc","64b035e4da5b99d0e81bd3d9","null","null","<p style=""font-size: 60px; font-family: BACS"">ukYZLYGA</p>","","","","","","","",""
"html-keyboard-response","8","105723","0.0-7.0-0.1","5fb3f38909fc360164f7c98d","64b003020eef62ee308107cc","64b035e4da5b99d0e81bd3d9","null","null","<p style=""font-size: 60px; font-family: BACS"">hTDdkBD</p>","","","","","","","",""
"html-keyboard-response","9","106728","0.0-7.0-0.2","5fb3f38909fc360164f7c98d","64b003020eef62ee308107cc","64b035e4da5b99d0e81bd3d9","null","null","<p style=""font-size: 60px; font-family: BACS"">EhRmBbM</p>","","","","","","","",""
"html-keyboard-response","10","107730","0.0-7.0-0.3","5fb3f38909fc360164f7c98d","64b003020eef62ee308107cc","64b035e4da5b99d0e81bd3d9","null","null","<p style=""font-size: 60px; font-family: BACS"">DmAMEPED</p>","","","","","","","",""
"html-keyboard-response","11","108737","0.0-7.0-0.4","5fb3f38909fc360164f7c98d","64b003020eef62ee308107cc","64b035e4da5b99d0e81bd3d9","null","null","<p style=""font-size: 60px; font-family: BACS"">QcladOcN</p>","","","","","","","",""
"html-keyboard-response","12","109740","0.0-7.0-0.5","5fb3f38909fc360164f7c98d","64b003020eef62ee308107cc","64b035e4da5b99d0e81bd3d9","null","null","<p style=""font-size: 60px; font-family: BACS"">OLJblLYGA</p>","","","","","","","",""
"html-keyboard-response","13","110749","0.0-7.0-0.6","5fb3f38909fc360164f7c98d","64b003020eef62ee308107cc","64b035e4da5b99d0e81bd3d9","null","null","<p style=""font-size: 60px; font-family: BACS"">mARMkKE</p>","","","","","","","",""
"html-keyboard-response","14","111751","0.0-7.0-0.7","5fb3f38909fc360164f7c98d","64b003020eef62ee308107cc","64b035e4da5b99d0e81bd3d9","null","null","<p style=""font-size: 60px; font-family: BACS"">hkRKkBD</p>","","","","","","","",""
"html-keyboard-response","15","112762","0.0-7.0-0.8","5fb3f38909fc360164f7c98d","64b003020eef62ee308107cc","64b035e4da5b99d0e81bd3d9","null","null","<p style=""font-size: 60px; font-family: BACS"">mARMBbM</p>","","","","","","","",""
"html-keyboard-response","16","113765","0.0-7.0-0.9","5fb3f38909fc360164f7c98d","64b003020eef62ee308107cc","64b035e4da5b99d0e81bd3d9","null","null","<p style=""font-size: 60px; font-family: BACS"">TPCbkKE</p>","","","","","","","",""
"html-keyboard-response","17","114773","0.0-7.0-0.10","5fb3f38909fc360164f7c98d","64b003020eef62ee308107cc","64b035e4da5b99d0e81bd3d9","null","null","<p style=""font-size: 60px; font-family: BACS"">hYDmtkBD</p>","","","","","","","",""
"html-keyboard-response","18","115781","0.0-7.0-0.11","5fb3f38909fc360164f7c98d","64b003020eef62ee308107cc","64b035e4da5b99d0e81bd3d9","null","null","<p style=""font-size: 60px; font-family: BACS"">mBYlBbM</p>","","","","","","","",""
"html-keyboard-response","19","116795","0.0-7.0-0.12","5fb3f38909fc360164f7c98d","64b003020eef62ee308107cc","64b035e4da5b99d0e81bd3d9","null","null","<p style=""font-size: 60px; font-family: BACS"">EPERdPED</p>","","","","","","","",""
"html-keyboard-response","20","117807","0.0-7.0-0.13","5fb3f38909fc360164f7c98d","64b003020eef62ee308107cc","64b035e4da5b99d0e81bd3d9","null","null","<p style=""font-size: 60px; font-family: BACS"">vuJZuNmAG</p>","","","","","","","",""
"html-keyboard-response","21","118819","0.0-7.0-0.14","5fb3f38909fc360164f7c98d","64b003020eef62ee308107cc","64b035e4da5b99d0e81bd3d9","null","null","<p style=""font-size: 60px; font-family: BACS"">mBYlPED</p>","","","","","","","",""
"html-keyboard-response","22","119828","0.0-7.0-0.15","5fb3f38909fc360164f7c98d","64b003020eef62ee308107cc","64b035e4da5b99d0e81bd3d9","null","null","<p style=""font-size: 60px; font-family: BACS"">adYrcOcN</p>","","","","","","","",""
"html-keyboard-response","23","120833","0.0-7.0-0.16","5fb3f38909fc360164f7c98d","64b003020eef62ee308107cc","64b035e4da5b99d0e81bd3d9","null","null","<p style=""font-size: 60px; font-family: BACS"">MBmEkBD</p>","","","","","","","",""
"html-keyboard-response","24","121852","0.0-7.0-0.17","5fb3f38909fc360164f7c98d","64b003020eef62ee308107cc","64b035e4da5b99d0e81bd3d9","null","null","<p style=""font-size: 60px; font-family: BACS"">hTDdkKE</p>","","","","","","","",""
"html-keyboard-response","25","122859","0.0-7.0-0.18","5fb3f38909fc360164f7c98d","64b003020eef62ee308107cc","64b035e4da5b99d0e81bd3d9","null","null","<p style=""font-size: 60px; font-family: BACS"">mARMOYK</p>","","","","","","","",""
"html-keyboard-response","26","123867","0.0-7.0-0.19","5fb3f38909fc360164f7c98d","64b003020eef62ee308107cc","64b035e4da5b99d0e81bd3d9","null","null","<p style=""font-size: 60px; font-family: BACS"">LNUrJGrub</p>","","","","","","","",""
"html-keyboard-response","27","124875","0.0-7.0-0.20","5fb3f38909fc360164f7c98d","64b003020eef62ee308107cc","64b035e4da5b99d0e81bd3d9","null","null","<p style=""font-size: 60px; font-family: BACS"">TPCbOYK</p>","","","","","","","",""
"html-keyboard-response","28","125881","0.0-7.0-0.21","5fb3f38909fc360164f7c98d","64b003020eef62ee308107cc","64b035e4da5b99d0e81bd3d9","null","null","<p style=""font-size: 60px; font-family: BACS"">LNUrJNmAG</p>","","","","","","","",""
"html-keyboard-response","29","126893","0.0-7.0-0.22","5fb3f38909fc360164f7c98d","64b003020eef62ee308107cc","64b035e4da5b99d0e81bd3d9","null","null","<p style=""font-size: 60px; font-family: BACS"">MBmEkKE</p>","","","","","","","",""
"html-keyboard-response","30","127904","0.0-7.0-0.23","5fb3f38909fc360164f7c98d","64b003020eef62ee308107cc","64b035e4da5b99d0e81bd3d9","null","null","<p style=""font-size: 60px; font-family: BACS"">QcladrAJu</p>","","","","","","","",""
"html-keyboard-response","31","128906","0.0-7.0-0.24","5fb3f38909fc360164f7c98d","64b003020eef62ee308107cc","64b035e4da5b99d0e81bd3d9","null","null","<p style=""font-size: 60px; font-family: BACS"">hYDmtBbM</p>","","","","","","","",""
"html-keyboard-response","32","129914","0.0-7.0-0.25","5fb3f38909fc360164f7c98d","64b003020eef62ee308107cc","64b035e4da5b99d0e81bd3d9","null","null","<p style=""font-size: 60px; font-family: BACS"">lkAkOcN</p>","","","","","","","",""
"html-keyboard-response","33","130922","0.0-7.0-0.26","5fb3f38909fc360164f7c98d","64b003020eef62ee308107cc","64b035e4da5b99d0e81bd3d9","null","null","<p style=""font-size: 60px; font-family: BACS"">vuJZuLYGA</p>","","","","","","","",""
"html-keyboard-response","34","131928","0.0-7.0-0.27","5fb3f38909fc360164f7c98d","64b003020eef62ee308107cc","64b035e4da5b99d0e81bd3d9","null","null","<p style=""font-size: 60px; font-family: BACS"">DmAMEkKE</p>","","","","","","","",""
"html-keyboard-response","35","132945","0.0-7.0-0.28","5fb3f38909fc360164f7c98d","64b003020eef62ee308107cc","64b035e4da5b99d0e81bd3d9","null","null","<p style=""font-size: 60px; font-family: BACS"">lkAkLYGA</p>","","","","","","","",""
"html-keyboard-response","36","133954","0.0-7.0-0.29","5fb3f38909fc360164f7c98d","64b003020eef62ee308107cc","64b035e4da5b99d0e81bd3d9","null","null","<p style=""font-size: 60px; font-family: BACS"">hTDdOYK</p>","","","","","","","",""
"html-keyboard-response","37","134956","0.0-7.0-0.30","5fb3f38909fc360164f7c98d","64b003020eef62ee308107cc","64b035e4da5b99d0e81bd3d9","null","null","<p style=""font-size: 60px; font-family: BACS"">ukYZrAJu</p>","","","","","","","",""
"html-keyboard-response","38","135958","0.0-7.0-0.31","5fb3f38909fc360164f7c98d","64b003020eef62ee308107cc","64b035e4da5b99d0e81bd3d9","null","null","<p style=""font-size: 60px; font-family: BACS"">bYuQNmAG</p>","","","","","","","",""
"html-keyboard-response","39","136967","0.0-7.0-0.32","5fb3f38909fc360164f7c98d","64b003020eef62ee308107cc","64b035e4da5b99d0e81bd3d9","null","null","<p style=""font-size: 60px; font-family: BACS"">EhRmPED</p>","","","","","","","",""
"html-keyboard-response","40","137981","0.0-7.0-0.33","5fb3f38909fc360164f7c98d","64b003020eef62ee308107cc","64b035e4da5b99d0e81bd3d9","null","null","<p style=""font-size: 60px; font-family: BACS"">bYuQOcN</p>","","","","","","","",""
"html-keyboard-response","41","138995","0.0-7.0-0.34","5fb3f38909fc360164f7c98d","64b003020eef62ee308107cc","64b035e4da5b99d0e81bd3d9","null","null","<p style=""font-size: 60px; font-family: BACS"">MBmEOYK</p>","","","","","","","",""
"html-keyboard-response","42","140012","0.0-7.0-0.35","5fb3f38909fc360164f7c98d","64b003020eef62ee308107cc","64b035e4da5b99d0e81bd3d9","null","null","<p style=""font-size: 60px; font-family: BACS"">QcladLYGA</p>","","","","","","","",""
"html-keyboard-response","43","141030","0.0-7.0-0.36","5fb3f38909fc360164f7c98d","64b003020eef62ee308107cc","64b035e4da5b99d0e81bd3d9","null","null","<p style=""font-size: 60px; font-family: BACS"">bYuQrAJu</p>","","","","","","","",""
"html-keyboard-response","44","142033","0.0-7.0-0.37","5fb3f38909fc360164f7c98d","64b003020eef62ee308107cc","64b035e4da5b99d0e81bd3d9","null","null","<p style=""font-size: 60px; font-family: BACS"">mBYlkBD</p>","","","","","","","",""
"html-keyboard-response","45","143044","0.0-7.0-0.38","5fb3f38909fc360164f7c98d","64b003020eef62ee308107cc","64b035e4da5b99d0e81bd3d9","null","null","<p style=""font-size: 60px; font-family: BACS"">OLJblGrub</p>","","","","","","","",""
"html-keyboard-response","46","144050","0.0-7.0-0.39","5fb3f38909fc360164f7c98d","64b003020eef62ee308107cc","64b035e4da5b99d0e81bd3d9","null","null","<p style=""font-size: 60px; font-family: BACS"">mbZlOcN</p>","","","","","","","",""
"html-keyboard-response","47","145054","0.0-7.0-0.40","5fb3f38909fc360164f7c98d","64b003020eef62ee308107cc","64b035e4da5b99d0e81bd3d9","null","null","<p style=""font-size: 60px; font-family: BACS"">adYrcLYGA</p>","","","","","","","",""
"html-keyboard-response","48","146069","0.0-7.0-0.41","5fb3f38909fc360164f7c98d","64b003020eef62ee308107cc","64b035e4da5b99d0e81bd3d9","null","null","<p style=""font-size: 60px; font-family: BACS"">mbZlrAJu</p>","","","","","","","",""
"html-keyboard-response","49","147081","0.0-7.0-0.42","5fb3f38909fc360164f7c98d","64b003020eef62ee308107cc","64b035e4da5b99d0e81bd3d9","null","null","<p style=""font-size: 60px; font-family: BACS"">OLJblOcN</p>","","","","","","","",""
"html-keyboard-response","50","148095","0.0-7.0-0.43","5fb3f38909fc360164f7c98d","64b003020eef62ee308107cc","64b035e4da5b99d0e81bd3d9","null","null","<p style=""font-size: 60px; font-family: BACS"">hTDdBbM</p>","","","","","","","",""
"html-keyboard-response","51","149107","0.0-7.0-0.44","5fb3f38909fc360164f7c98d","64b003020eef62ee308107cc","64b035e4da5b99d0e81bd3d9","null","null","<p style=""font-size: 60px; font-family: BACS"">LNUrJOcN</p>","","","","","","","",""
"html-keyboard-response","52","150109","0.0-7.0-0.45","5fb3f38909fc360164f7c98d","64b003020eef62ee308107cc","64b035e4da5b99d0e81bd3d9","null","null","<p style=""font-size: 60px; font-family: BACS"">hkRKPED</p>","","","","","","","",""
"html-keyboard-response","53","151120","0.0-7.0-0.46","5fb3f38909fc360164f7c98d","64b003020eef62ee308107cc","64b035e4da5b99d0e81bd3d9","null","null","<p style=""font-size: 60px; font-family: BACS"">adYrcrAJu</p>","","","","","","","",""
"html-keyboard-response","54","152127","0.0-7.0-0.47","5fb3f38909fc360164f7c98d","64b003020eef62ee308107cc","64b035e4da5b99d0e81bd3d9","null","null","<p style=""font-size: 60px; font-family: BACS"">EPERdOYK</p>","","","","","","","",""
"html-keyboard-response","55","153130","0.0-7.0-0.48","5fb3f38909fc360164f7c98d","64b003020eef62ee308107cc","64b035e4da5b99d0e81bd3d9","null","null","<p style=""font-size: 60px; font-family: BACS"">MBmEPED</p>","","","","","","","",""
"html-keyboard-response","56","154137","0.0-7.0-0.49","5fb3f38909fc360164f7c98d","64b003020eef62ee308107cc","64b035e4da5b99d0e81bd3d9","null","null","<p style=""font-size: 60px; font-family: BACS"">DmAMEOYK</p>","","","","","","","",""
"html-keyboard-response","57","155153","0.0-7.0-0.50","5fb3f38909fc360164f7c98d","64b003020eef62ee308107cc","64b035e4da5b99d0e81bd3d9","null","null","<p style=""font-size: 60px; font-family: BACS"">lYruaLYGA</p>","","","","","","","",""
"html-keyboard-response","58","156161","0.0-7.0-0.51","5fb3f38909fc360164f7c98d","64b003020eef62ee308107cc","64b035e4da5b99d0e81bd3d9","null","null","<p style=""font-size: 60px; font-family: BACS"">hkRKOYK</p>","","","","","","","",""
"html-keyboard-response","59","157174","0.0-7.0-0.52","5fb3f38909fc360164f7c98d","64b003020eef62ee308107cc","64b035e4da5b99d0e81bd3d9","null","null","<p style=""font-size: 60px; font-family: BACS"">lYruaOcN</p>","","","","","","","",""
"html-keyboard-response","60","158178","0.0-7.0-0.53","5fb3f38909fc360164f7c98d","64b003020eef62ee308107cc","64b035e4da5b99d0e81bd3d9","null","null","<p style=""font-size: 60px; font-family: BACS"">EPERdkKE</p>","","","","","","","",""
"html-keyboard-response","61","159188","0.0-7.0-0.54","5fb3f38909fc360164f7c98d","64b003020eef62ee308107cc","64b035e4da5b99d0e81bd3d9","null","null","<p style=""font-size: 60px; font-family: BACS"">mbZlNmAG</p>","","","","","","","",""
"html-keyboard-response","62","160202","0.0-7.0-0.55","5fb3f38909fc360164f7c98d","64b003020eef62ee308107cc","64b035e4da5b99d0e81bd3d9","null","null","<p style=""font-size: 60px; font-family: BACS"">bYuQLYGA</p>","","","","","","","",""
"html-keyboard-response","63","161218","0.0-7.0-0.56","5fb3f38909fc360164f7c98d","64b003020eef62ee308107cc","64b035e4da5b99d0e81bd3d9","null","null","<p style=""font-size: 60px; font-family: BACS"">adYrcGrub</p>","","","","","","","",""
"html-keyboard-response","64","162231","0.0-7.0-0.57","5fb3f38909fc360164f7c98d","64b003020eef62ee308107cc","64b035e4da5b99d0e81bd3d9","null","null","<p style=""font-size: 60px; font-family: BACS"">vuJZurAJu</p>","","","","","","","",""
"html-keyboard-response","65","163240","0.0-7.0-0.58","5fb3f38909fc360164f7c98d","64b003020eef62ee308107cc","64b035e4da5b99d0e81bd3d9","null","null","<p style=""font-size: 60px; font-family: BACS"">mbZlGrub</p>","","","","","","","",""
"html-keyboard-response","66","164267","0.0-7.0-0.59","5fb3f38909fc360164f7c98d","64b003020eef62ee308107cc","64b035e4da5b99d0e81bd3d9","null","null","<p style=""font-size: 60px; font-family: BACS"">lkAkNmAG</p>","","","","","","","",""
"html-keyboard-response","67","165280","0.0-7.0-0.60","5fb3f38909fc360164f7c98d","64b003020eef62ee308107cc","64b035e4da5b99d0e81bd3d9","null","null","<p style=""font-size: 60px; font-family: BACS"">TPCbPED</p>","","","","","","","",""
"html-keyboard-response","68","166291","0.0-7.0-0.61","5fb3f38909fc360164f7c98d","64b003020eef62ee308107cc","64b035e4da5b99d0e81bd3d9","null","null","<p style=""font-size: 60px; font-family: BACS"">OLJblNmAG</p>","","","","","","","",""
"html-keyboard-response","69","167295","0.0-7.0-0.62","5fb3f38909fc360164f7c98d","64b003020eef62ee308107cc","64b035e4da5b99d0e81bd3d9","null","null","<p style=""font-size: 60px; font-family: BACS"">DmAMEBbM</p>","","","","","","","",""
"html-keyboard-response","70","168297","0.0-7.0-0.63","5fb3f38909fc360164f7c98d","64b003020eef62ee308107cc","64b035e4da5b99d0e81bd3d9","null","null","<p style=""font-size: 60px; font-family: BACS"">mBYlOYK</p>","","","","","","","",""
"html-keyboard-response","71","169306","0.0-7.0-0.64","5fb3f38909fc360164f7c98d","64b003020eef62ee308107cc","64b035e4da5b99d0e81bd3d9","null","null","<p style=""font-size: 60px; font-family: BACS"">ukYZGrub</p>","","","","","","","",""
"html-keyboard-response","72","170307","0.0-7.0-0.65","5fb3f38909fc360164f7c98d","64b003020eef62ee308107cc","64b035e4da5b99d0e81bd3d9","null","null","<p style=""font-size: 60px; font-family: BACS"">EhRmkKE</p>","","","","","","","",""
"html-keyboard-response","73","171322","0.0-7.0-0.66","5fb3f38909fc360164f7c98d","64b003020eef62ee308107cc","64b035e4da5b99d0e81bd3d9","null","null","<p style=""font-size: 60px; font-family: BACS"">mARMkBD</p>","","","","","","","",""
"html-keyboard-response","74","172323","0.0-7.0-0.67","5fb3f38909fc360164f7c98d","64b003020eef62ee308107cc","64b035e4da5b99d0e81bd3d9","null","null","<p style=""font-size: 60px; font-family: BACS"">ukYZNmAG</p>","","","","","","","",""
"html-keyboard-response","75","173332","0.0-7.0-0.68","5fb3f38909fc360164f7c98d","64b003020eef62ee308107cc","64b035e4da5b99d0e81bd3d9","null","null","<p style=""font-size: 60px; font-family: BACS"">TPCbBbM</p>","","","","","","","",""
"html-keyboard-response","76","174333","0.0-7.0-0.69","5fb3f38909fc360164f7c98d","64b003020eef62ee308107cc","64b035e4da5b99d0e81bd3d9","null","null","<p style=""font-size: 60px; font-family: BACS"">LNUrJrAJu</p>","","","","","","","",""
"html-keyboard-response","77","175341","0.0-7.0-0.70","5fb3f38909fc360164f7c98d","64b003020eef62ee308107cc","64b035e4da5b99d0e81bd3d9","null","null","<p style=""font-size: 60px; font-family: BACS"">EhRmkBD</p>","","","","","","","",""
"html-keyboard-response","78","176352","0.0-7.0-0.71","5fb3f38909fc360164f7c98d","64b003020eef62ee308107cc","64b035e4da5b99d0e81bd3d9","null","null","<p style=""font-size: 60px; font-family: BACS"">lkAkGrub</p>","","","","","","","",""
"html-keyboard-response","79","177359","0.0-7.0-0.72","5fb3f38909fc360164f7c98d","64b003020eef62ee308107cc","64b035e4da5b99d0e81bd3d9","null","null","<p style=""font-size: 60px; font-family: BACS"">hYDmtPED</p>","","","","","","","",""
"html-keyboard-response","80","178372","0.0-7.0-0.73","5fb3f38909fc360164f7c98d","64b003020eef62ee308107cc","64b035e4da5b99d0e81bd3d9","null","null","<p style=""font-size: 60px; font-family: BACS"">lYruarAJu</p>","","","","","","","",""
"html-keyboard-response","81","179386","0.0-7.0-0.74","5fb3f38909fc360164f7c98d","64b003020eef62ee308107cc","64b035e4da5b99d0e81bd3d9","null","null","<p style=""font-size: 60px; font-family: BACS"">EPERdkBD</p>","","","","","","","",""
"html-keyboard-response","82","180390","0.0-7.0-0.75","5fb3f38909fc360164f7c98d","64b003020eef62ee308107cc","64b035e4da5b99d0e81bd3d9","null","null","<p style=""font-size: 60px; font-family: BACS"">vuJZuGrub</p>","","","","","","","",""
"html-keyboard-response","83","181399","0.0-7.0-0.76","5fb3f38909fc360164f7c98d","64b003020eef62ee308107cc","64b035e4da5b99d0e81bd3d9","null","null","<p style=""font-size: 60px; font-family: BACS"">lYruaNmAG</p>","","","","","","","",""
"html-keyboard-response","84","182410","0.0-7.0-0.77","5fb3f38909fc360164f7c98d","64b003020eef62ee308107cc","64b035e4da5b99d0e81bd3d9","null","null","<p style=""font-size: 60px; font-family: BACS"">QcladGrub</p>","","","","","","","",""
"html-keyboard-response","85","183413","0.0-7.0-0.78","5fb3f38909fc360164f7c98d","64b003020eef62ee308107cc","64b035e4da5b99d0e81bd3d9","null","null","<p style=""font-size: 60px; font-family: BACS"">hYDmtkKE</p>","","","","","","","",""
"html-keyboard-response","86","184423","0.0-7.0-0.79","5fb3f38909fc360164f7c98d","64b003020eef62ee308107cc","64b035e4da5b99d0e81bd3d9","null","null","<p style=""font-size: 60px; font-family: BACS"">hkRKBbM</p>","","","","","","","",""
"html-keyboard-response","87","211294","0.0-8.0","5fb3f38909fc360164f7c98d","64b003020eef62ee308107cc","64b035e4da5b99d0e81bd3d9","26870"," ","<p>Ottimo, hai visto il primo blocco di parole. Ora puoi prenderti una piccola pausa.</p>
      <p>Premi la barra quando sei pronta/o per riprendere.</p>","","","","","","","",""
"html-keyboard-response","88","212301","0.0-9.0-0.0","5fb3f38909fc360164f7c98d","64b003020eef62ee308107cc","64b035e4da5b99d0e81bd3d9","null","null","<p style=""font-size: 60px; font-family: BACS"">lkAkNmAG</p>","","","","","","","",""
"html-keyboard-response","89","213305","0.0-9.0-0.1","5fb3f38909fc360164f7c98d","64b003020eef62ee308107cc","64b035e4da5b99d0e81bd3d9","null","null","<p style=""font-size: 60px; font-family: BACS"">vuJZuLYGA</p>","","","","","","","",""
"html-keyboard-response","90","214314","0.0-9.0-0.2","5fb3f38909fc360164f7c98d","64b003020eef62ee308107cc","64b035e4da5b99d0e81bd3d9","null","null","<p style=""font-size: 60px; font-family: BACS"">TPCbkKE</p>","","","","","","","",""
"html-keyboard-response","91","215324","0.0-9.0-0.3","5fb3f38909fc360164f7c98d","64b003020eef62ee308107cc","64b035e4da5b99d0e81bd3d9","null","null","<p style=""font-size: 60px; font-family: BACS"">lkAkGrub</p>","","","","","","","",""
"html-keyboard-response","92","216330","0.0-9.0-0.4","5fb3f38909fc360164f7c98d","64b003020eef62ee308107cc","64b035e4da5b99d0e81bd3d9","null","null","<p style=""font-size: 60px; font-family: BACS"">TPCbPED</p>","","","","","","","",""
"html-keyboard-response","93","217334","0.0-9.0-0.5","5fb3f38909fc360164f7c98d","64b003020eef62ee308107cc","64b035e4da5b99d0e81bd3d9","null","null","<p style=""font-size: 60px; font-family: BACS"">hTDdBbM</p>","","","","","","","",""
"html-keyboard-response","94","218345","0.0-9.0-0.6","5fb3f38909fc360164f7c98d","64b003020eef62ee308107cc","64b035e4da5b99d0e81bd3d9","null","null","<p style=""font-size: 60px; font-family: BACS"">MBmEkBD</p>","","","","","","","",""
"html-keyboard-response","95","219347","0.0-9.0-0.7","5fb3f38909fc360164f7c98d","64b003020eef62ee308107cc","64b035e4da5b99d0e81bd3d9","null","null","<p style=""font-size: 60px; font-family: BACS"">bYuQLYGA</p>","","","","","","","",""
"html-keyboard-response","96","220349","0.0-9.0-0.8","5fb3f38909fc360164f7c98d","64b003020eef62ee308107cc","64b035e4da5b99d0e81bd3d9","null","null","<p style=""font-size: 60px; font-family: BACS"">TPCbOYK</p>","","","","","","","",""
"html-keyboard-response","97","221350","0.0-9.0-0.9","5fb3f38909fc360164f7c98d","64b003020eef62ee308107cc","64b035e4da5b99d0e81bd3d9","null","null","<p style=""font-size: 60px; font-family: BACS"">mARMBbM</p>","","","","","","","",""
"html-keyboard-response","98","222351","0.0-9.0-0.10","5fb3f38909fc360164f7c98d","64b003020eef62ee308107cc","64b035e4da5b99d0e81bd3d9","null","null","<p style=""font-size: 60px; font-family: BACS"">adYrcrAJu</p>","","","","","","","",""
"html-keyboard-response","99","223360","0.0-9.0-0.11","5fb3f38909fc360164f7c98d","64b003020eef62ee308107cc","64b035e4da5b99d0e81bd3d9","null","null","<p style=""font-size: 60px; font-family: BACS"">mBYlOYK</p>","","","","","","","",""
"html-keyboard-response","100","224367","0.0-9.0-0.12","5fb3f38909fc360164f7c98d","64b003020eef62ee308107cc","64b035e4da5b99d0e81bd3d9","null","null","<p style=""font-size: 60px; font-family: BACS"">OLJblOcN</p>","","","","","","","",""
"html-keyboard-response","101","225376","0.0-9.0-0.13","5fb3f38909fc360164f7c98d","64b003020eef62ee308107cc","64b035e4da5b99d0e81bd3d9","null","null","<p style=""font-size: 60px; font-family: BACS"">EPERdkBD</p>","","","","","","","",""
"html-keyboard-response","102","226377","0.0-9.0-0.14","5fb3f38909fc360164f7c98d","64b003020eef62ee308107cc","64b035e4da5b99d0e81bd3d9","null","null","<p style=""font-size: 60px; font-family: BACS"">vuJZurAJu</p>","","","","","","","",""
"html-keyboard-response","103","227384","0.0-9.0-0.15","5fb3f38909fc360164f7c98d","64b003020eef62ee308107cc","64b035e4da5b99d0e81bd3d9","null","null","<p style=""font-size: 60px; font-family: BACS"">EPERdPED</p>","","","","","","","",""
"html-keyboard-response","104","228386","0.0-9.0-0.16","5fb3f38909fc360164f7c98d","64b003020eef62ee308107cc","64b035e4da5b99d0e81bd3d9","null","null","<p style=""font-size: 60px; font-family: BACS"">hkRKkBD</p>","","","","","","","",""
"html-keyboard-response","105","229399","0.0-9.0-0.17","5fb3f38909fc360164f7c98d","64b003020eef62ee308107cc","64b035e4da5b99d0e81bd3d9","null","null","<p style=""font-size: 60px; font-family: BACS"">EPERdOYK</p>","","","","","","","",""
"html-keyboard-response","106","230406","0.0-9.0-0.18","5fb3f38909fc360164f7c98d","64b003020eef62ee308107cc","64b035e4da5b99d0e81bd3d9","null","null","<p style=""font-size: 60px; font-family: BACS"">lYruaNmAG</p>","","","","","","","",""
"html-keyboard-response","107","231420","0.0-9.0-0.19","5fb3f38909fc360164f7c98d","64b003020eef62ee308107cc","64b035e4da5b99d0e81bd3d9","null","null","<p style=""font-size: 60px; font-family: BACS"">hkRKBbM</p>","","","","","","","",""
"html-keyboard-response","108","232435","0.0-9.0-0.20","5fb3f38909fc360164f7c98d","64b003020eef62ee308107cc","64b035e4da5b99d0e81bd3d9","null","null","<p style=""font-size: 60px; font-family: BACS"">mBYlkBD</p>","","","","","","","",""
"html-keyboard-response","109","233444","0.0-9.0-0.21","5fb3f38909fc360164f7c98d","64b003020eef62ee308107cc","64b035e4da5b99d0e81bd3d9","null","null","<p style=""font-size: 60px; font-family: BACS"">mbZlOcN</p>","","","","","","","",""
"html-keyboard-response","110","234456","0.0-9.0-0.22","5fb3f38909fc360164f7c98d","64b003020eef62ee308107cc","64b035e4da5b99d0e81bd3d9","null","null","<p style=""font-size: 60px; font-family: BACS"">QcladLYGA</p>","","","","","","","",""
"html-keyboard-response","111","235472","0.0-9.0-0.23","5fb3f38909fc360164f7c98d","64b003020eef62ee308107cc","64b035e4da5b99d0e81bd3d9","null","null","<p style=""font-size: 60px; font-family: BACS"">mARMOYK</p>","","","","","","","",""
"html-keyboard-response","112","236483","0.0-9.0-0.24","5fb3f38909fc360164f7c98d","64b003020eef62ee308107cc","64b035e4da5b99d0e81bd3d9","null","null","<p style=""font-size: 60px; font-family: BACS"">DmAMEPED</p>","","","","","","","",""
"html-keyboard-response","113","237496","0.0-9.0-0.25","5fb3f38909fc360164f7c98d","64b003020eef62ee308107cc","64b035e4da5b99d0e81bd3d9","null","null","<p style=""font-size: 60px; font-family: BACS"">mbZlNmAG</p>","","","","","","","",""
"html-keyboard-response","114","238502","0.0-9.0-0.26","5fb3f38909fc360164f7c98d","64b003020eef62ee308107cc","64b035e4da5b99d0e81bd3d9","null","null","<p style=""font-size: 60px; font-family: BACS"">hYDmtPED</p>","","","","","","","",""
"html-keyboard-response","115","239503","0.0-9.0-0.27","5fb3f38909fc360164f7c98d","64b003020eef62ee308107cc","64b035e4da5b99d0e81bd3d9","null","null","<p style=""font-size: 60px; font-family: BACS"">lYruaLYGA</p>","","","","","","","",""
"html-keyboard-response","116","240515","0.0-9.0-0.28","5fb3f38909fc360164f7c98d","64b003020eef62ee308107cc","64b035e4da5b99d0e81bd3d9","null","null","<p style=""font-size: 60px; font-family: BACS"">OLJblGrub</p>","","","","","","","",""
"html-keyboard-response","117","241518","0.0-9.0-0.29","5fb3f38909fc360164f7c98d","64b003020eef62ee308107cc","64b035e4da5b99d0e81bd3d9","null","null","<p style=""font-size: 60px; font-family: BACS"">hYDmtkKE</p>","","","","","","","",""
"html-keyboard-response","118","242528","0.0-9.0-0.30","5fb3f38909fc360164f7c98d","64b003020eef62ee308107cc","64b035e4da5b99d0e81bd3d9","null","null","<p style=""font-size: 60px; font-family: BACS"">hkRKPED</p>","","","","","","","",""
"html-keyboard-response","119","243541","0.0-9.0-0.31","5fb3f38909fc360164f7c98d","64b003020eef62ee308107cc","64b035e4da5b99d0e81bd3d9","null","null","<p style=""font-size: 60px; font-family: BACS"">LNUrJrAJu</p>","","","","","","","",""
"html-keyboard-response","120","244542","0.0-9.0-0.32","5fb3f38909fc360164f7c98d","64b003020eef62ee308107cc","64b035e4da5b99d0e81bd3d9","null","null","<p style=""font-size: 60px; font-family: BACS"">MBmEkKE</p>","","","","","","","",""
"html-keyboard-response","121","245549","0.0-9.0-0.33","5fb3f38909fc360164f7c98d","64b003020eef62ee308107cc","64b035e4da5b99d0e81bd3d9","null","null","<p style=""font-size: 60px; font-family: BACS"">adYrcOcN</p>","","","","","","","",""
"html-keyboard-response","122","246552","0.0-9.0-0.34","5fb3f38909fc360164f7c98d","64b003020eef62ee308107cc","64b035e4da5b99d0e81bd3d9","null","null","<p style=""font-size: 60px; font-family: BACS"">EhRmkKE</p>","","","","","","","",""
"html-keyboard-response","123","247563","0.0-9.0-0.35","5fb3f38909fc360164f7c98d","64b003020eef62ee308107cc","64b035e4da5b99d0e81bd3d9","null","null","<p style=""font-size: 60px; font-family: BACS"">DmAMEOYK</p>","","","","","","","",""
"html-keyboard-response","124","248576","0.0-9.0-0.36","5fb3f38909fc360164f7c98d","64b003020eef62ee308107cc","64b035e4da5b99d0e81bd3d9","null","null","<p style=""font-size: 60px; font-family: BACS"">ukYZLYGA</p>","","","","","","","",""
"html-keyboard-response","125","249591","0.0-9.0-0.37","5fb3f38909fc360164f7c98d","64b003020eef62ee308107cc","64b035e4da5b99d0e81bd3d9","null","null","<p style=""font-size: 60px; font-family: BACS"">LNUrJNmAG</p>","","","","","","","",""
"html-keyboard-response","126","250604","0.0-9.0-0.38","5fb3f38909fc360164f7c98d","64b003020eef62ee308107cc","64b035e4da5b99d0e81bd3d9","null","null","<p style=""font-size: 60px; font-family: BACS"">bYuQrAJu</p>","","","","","","","",""
"html-keyboard-response","127","251616","0.0-9.0-0.39","5fb3f38909fc360164f7c98d","64b003020eef62ee308107cc","64b035e4da5b99d0e81bd3d9","null","null","<p style=""font-size: 60px; font-family: BACS"">QcladGrub</p>","","","","","","","",""
"html-keyboard-response","128","252623","0.0-9.0-0.40","5fb3f38909fc360164f7c98d","64b003020eef62ee308107cc","64b035e4da5b99d0e81bd3d9","null","null","<p style=""font-size: 60px; font-family: BACS"">hTDdOYK</p>","","","","","","","",""
"html-keyboard-response","129","253627","0.0-9.0-0.41","5fb3f38909fc360164f7c98d","64b003020eef62ee308107cc","64b035e4da5b99d0e81bd3d9","null","null","<p style=""font-size: 60px; font-family: BACS"">LNUrJGrub</p>","","","","","","","",""
"html-keyboard-response","130","254627","0.0-9.0-0.42","5fb3f38909fc360164f7c98d","64b003020eef62ee308107cc","64b035e4da5b99d0e81bd3d9","null","null","<p style=""font-size: 60px; font-family: BACS"">EhRmBbM</p>","","","","","","","",""
"html-keyboard-response","131","255631","0.0-9.0-0.43","5fb3f38909fc360164f7c98d","64b003020eef62ee308107cc","64b035e4da5b99d0e81bd3d9","null","null","<p style=""font-size: 60px; font-family: BACS"">adYrcGrub</p>","","","","","","","",""
"html-keyboard-response","132","256646","0.0-9.0-0.44","5fb3f38909fc360164f7c98d","64b003020eef62ee308107cc","64b035e4da5b99d0e81bd3d9","null","null","<p style=""font-size: 60px; font-family: BACS"">lYruaOcN</p>","","","","","","","",""
"html-keyboard-response","133","257650","0.0-9.0-0.45","5fb3f38909fc360164f7c98d","64b003020eef62ee308107cc","64b035e4da5b99d0e81bd3d9","null","null","<p style=""font-size: 60px; font-family: BACS"">mbZlrAJu</p>","","","","","","","",""
"html-keyboard-response","134","258665","0.0-9.0-0.46","5fb3f38909fc360164f7c98d","64b003020eef62ee308107cc","64b035e4da5b99d0e81bd3d9","null","null","<p style=""font-size: 60px; font-family: BACS"">bYuQNmAG</p>","","","","","","","",""
"html-keyboard-response","135","259677","0.0-9.0-0.47","5fb3f38909fc360164f7c98d","64b003020eef62ee308107cc","64b035e4da5b99d0e81bd3d9","null","null","<p style=""font-size: 60px; font-family: BACS"">QcladOcN</p>","","","","","","","",""
"html-keyboard-response","136","260683","0.0-9.0-0.48","5fb3f38909fc360164f7c98d","64b003020eef62ee308107cc","64b035e4da5b99d0e81bd3d9","null","null","<p style=""font-size: 60px; font-family: BACS"">mARMkBD</p>","","","","","","","",""
"html-keyboard-response","137","261687","0.0-9.0-0.49","5fb3f38909fc360164f7c98d","64b003020eef62ee308107cc","64b035e4da5b99d0e81bd3d9","null","null","<p style=""font-size: 60px; font-family: BACS"">hTDdkKE</p>","","","","","","","",""
"html-keyboard-response","138","262695","0.0-9.0-0.50","5fb3f38909fc360164f7c98d","64b003020eef62ee308107cc","64b035e4da5b99d0e81bd3d9","null","null","<p style=""font-size: 60px; font-family: BACS"">mBYlPED</p>","","","","","","","",""
"html-keyboard-response","139","263710","0.0-9.0-0.51","5fb3f38909fc360164f7c98d","64b003020eef62ee308107cc","64b035e4da5b99d0e81bd3d9","null","null","<p style=""font-size: 60px; font-family: BACS"">MBmEOYK</p>","","","","","","","",""
"html-keyboard-response","140","264717","0.0-9.0-0.52","5fb3f38909fc360164f7c98d","64b003020eef62ee308107cc","64b035e4da5b99d0e81bd3d9","null","null","<p style=""font-size: 60px; font-family: BACS"">EhRmkBD</p>","","","","","","","",""
"html-keyboard-response","141","265725","0.0-9.0-0.53","5fb3f38909fc360164f7c98d","64b003020eef62ee308107cc","64b035e4da5b99d0e81bd3d9","null","null","<p style=""font-size: 60px; font-family: BACS"">vuJZuGrub</p>","","","","","","","",""
"html-keyboard-response","142","266739","0.0-9.0-0.54","5fb3f38909fc360164f7c98d","64b003020eef62ee308107cc","64b035e4da5b99d0e81bd3d9","null","null","<p style=""font-size: 60px; font-family: BACS"">TPCbBbM</p>","","","","","","","",""
"html-keyboard-response","143","267754","0.0-9.0-0.55","5fb3f38909fc360164f7c98d","64b003020eef62ee308107cc","64b035e4da5b99d0e81bd3d9","null","null","<p style=""font-size: 60px; font-family: BACS"">DmAMEkKE</p>","","","","","","","",""
"html-keyboard-response","144","268763","0.0-9.0-0.56","5fb3f38909fc360164f7c98d","64b003020eef62ee308107cc","64b035e4da5b99d0e81bd3d9","null","null","<p style=""font-size: 60px; font-family: BACS"">hkRKOYK</p>","","","","","","","",""
"html-keyboard-response","145","269763","0.0-9.0-0.57","5fb3f38909fc360164f7c98d","64b003020eef62ee308107cc","64b035e4da5b99d0e81bd3d9","null","null","<p style=""font-size: 60px; font-family: BACS"">mBYlBbM</p>","","","","","","","",""
"html-keyboard-response","146","270774","0.0-9.0-0.58","5fb3f38909fc360164f7c98d","64b003020eef62ee308107cc","64b035e4da5b99d0e81bd3d9","null","null","<p style=""font-size: 60px; font-family: BACS"">lkAkLYGA</p>","","","","","","","",""
"html-keyboard-response","147","271783","0.0-9.0-0.59","5fb3f38909fc360164f7c98d","64b003020eef62ee308107cc","64b035e4da5b99d0e81bd3d9","null","null","<p style=""font-size: 60px; font-family: BACS"">hYDmtBbM</p>","","","","","","","",""
"html-keyboard-response","148","272797","0.0-9.0-0.60","5fb3f38909fc360164f7c98d","64b003020eef62ee308107cc","64b035e4da5b99d0e81bd3d9","null","null","<p style=""font-size: 60px; font-family: BACS"">OLJblNmAG</p>","","","","","","","",""
"html-keyboard-response","149","273803","0.0-9.0-0.61","5fb3f38909fc360164f7c98d","64b003020eef62ee308107cc","64b035e4da5b99d0e81bd3d9","null","null","<p style=""font-size: 60px; font-family: BACS"">hTDdkBD</p>","","","","","","","",""
"html-keyboard-response","150","274815","0.0-9.0-0.62","5fb3f38909fc360164f7c98d","64b003020eef62ee308107cc","64b035e4da5b99d0e81bd3d9","null","null","<p style=""font-size: 60px; font-family: BACS"">vuJZuNmAG</p>","","","","","","","",""
"html-keyboard-response","151","275830","0.0-9.0-0.63","5fb3f38909fc360164f7c98d","64b003020eef62ee308107cc","64b035e4da5b99d0e81bd3d9","null","null","<p style=""font-size: 60px; font-family: BACS"">OLJblLYGA</p>","","","","","","","",""
"html-keyboard-response","152","276844","0.0-9.0-0.64","5fb3f38909fc360164f7c98d","64b003020eef62ee308107cc","64b035e4da5b99d0e81bd3d9","null","null","<p style=""font-size: 60px; font-family: BACS"">MBmEPED</p>","","","","","","","",""
"html-keyboard-response","153","277848","0.0-9.0-0.65","5fb3f38909fc360164f7c98d","64b003020eef62ee308107cc","64b035e4da5b99d0e81bd3d9","null","null","<p style=""font-size: 60px; font-family: BACS"">ukYZrAJu</p>","","","","","","","",""
"html-keyboard-response","154","278858","0.0-9.0-0.66","5fb3f38909fc360164f7c98d","64b003020eef62ee308107cc","64b035e4da5b99d0e81bd3d9","null","null","<p style=""font-size: 60px; font-family: BACS"">DmAMEBbM</p>","","","","","","","",""
"html-keyboard-response","155","279873","0.0-9.0-0.67","5fb3f38909fc360164f7c98d","64b003020eef62ee308107cc","64b035e4da5b99d0e81bd3d9","null","null","<p style=""font-size: 60px; font-family: BACS"">QcladrAJu</p>","","","","","","","",""
"html-keyboard-response","156","280886","0.0-9.0-0.68","5fb3f38909fc360164f7c98d","64b003020eef62ee308107cc","64b035e4da5b99d0e81bd3d9","null","null","<p style=""font-size: 60px; font-family: BACS"">ukYZNmAG</p>","","","","","","","",""
"html-keyboard-response","157","281898","0.0-9.0-0.69","5fb3f38909fc360164f7c98d","64b003020eef62ee308107cc","64b035e4da5b99d0e81bd3d9","null","null","<p style=""font-size: 60px; font-family: BACS"">LNUrJOcN</p>","","","","","","","",""
"html-keyboard-response","158","282905","0.0-9.0-0.70","5fb3f38909fc360164f7c98d","64b003020eef62ee308107cc","64b035e4da5b99d0e81bd3d9","null","null","<p style=""font-size: 60px; font-family: BACS"">mARMkKE</p>","","","","","","","",""
"html-keyboard-response","159","283912","0.0-9.0-0.71","5fb3f38909fc360164f7c98d","64b003020eef62ee308107cc","64b035e4da5b99d0e81bd3d9","null","null","<p style=""font-size: 60px; font-family: BACS"">mbZlGrub</p>","","","","","","","",""
"html-keyboard-response","160","284917","0.0-9.0-0.72","5fb3f38909fc360164f7c98d","64b003020eef62ee308107cc","64b035e4da5b99d0e81bd3d9","null","null","<p style=""font-size: 60px; font-family: BACS"">bYuQOcN</p>","","","","","","","",""
"html-keyboard-response","161","285928","0.0-9.0-0.73","5fb3f38909fc360164f7c98d","64b003020eef62ee308107cc","64b035e4da5b99d0e81bd3d9","null","null","<p style=""font-size: 60px; font-family: BACS"">lYruarAJu</p>","","","","","","","",""
"html-keyboard-response","162","286935","0.0-9.0-0.74","5fb3f38909fc360164f7c98d","64b003020eef62ee308107cc","64b035e4da5b99d0e81bd3d9","null","null","<p style=""font-size: 60px; font-family: BACS"">EhRmPED</p>","","","","","","","",""
"html-keyboard-response","163","287941","0.0-9.0-0.75","5fb3f38909fc360164f7c98d","64b003020eef62ee308107cc","64b035e4da5b99d0e81bd3d9","null","null","<p style=""font-size: 60px; font-family: BACS"">EPERdkKE</p>","","","","","","","",""
"html-keyboard-response","164","288943","0.0-9.0-0.76","5fb3f38909fc360164f7c98d","64b003020eef62ee308107cc","64b035e4da5b99d0e81bd3d9","null","null","<p style=""font-size: 60px; font-family: BACS"">lkAkOcN</p>","","","","","","","",""
"html-keyboard-response","165","289958","0.0-9.0-0.77","5fb3f38909fc360164f7c98d","64b003020eef62ee308107cc","64b035e4da5b99d0e81bd3d9","null","null","<p style=""font-size: 60px; font-family: BACS"">hYDmtkBD</p>","","","","","","","",""
"html-keyboard-response","166","290968","0.0-9.0-0.78","5fb3f38909fc360164f7c98d","64b003020eef62ee308107cc","64b035e4da5b99d0e81bd3d9","null","null","<p style=""font-size: 60px; font-family: BACS"">ukYZGrub</p>","","","","","","","",""
"html-keyboard-response","167","291973","0.0-9.0-0.79","5fb3f38909fc360164f7c98d","64b003020eef62ee308107cc","64b035e4da5b99d0e81bd3d9","null","null","<p style=""font-size: 60px; font-family: BACS"">adYrcLYGA</p>","","","","","","","",""
"html-keyboard-response","168","355000","0.0-10.0","5fb3f38909fc360164f7c98d","64b003020eef62ee308107cc","64b035e4da5b99d0e81bd3d9","63026"," ","<p>Ottimo, hai visto il secondo blocco di parole. Ora puoi prenderti una piccola pausa.</p>
      <p>Premi la barra quando sei pronta/o per riprendere.</p>","","","","","","","",""
"html-keyboard-response","169","356011","0.0-11.0-0.0","5fb3f38909fc360164f7c98d","64b003020eef62ee308107cc","64b035e4da5b99d0e81bd3d9","null","null","<p style=""font-size: 60px; font-family: BACS"">MBmEPED</p>","","","","","","","",""
"html-keyboard-response","170","357013","0.0-11.0-0.1","5fb3f38909fc360164f7c98d","64b003020eef62ee308107cc","64b035e4da5b99d0e81bd3d9","null","null","<p style=""font-size: 60px; font-family: BACS"">EPERdkKE</p>","","","","","","","",""
"html-keyboard-response","171","358027","0.0-11.0-0.2","5fb3f38909fc360164f7c98d","64b003020eef62ee308107cc","64b035e4da5b99d0e81bd3d9","null","null","<p style=""font-size: 60px; font-family: BACS"">MBmEOYK</p>","","","","","","","",""
"html-keyboard-response","172","359031","0.0-11.0-0.3","5fb3f38909fc360164f7c98d","64b003020eef62ee308107cc","64b035e4da5b99d0e81bd3d9","null","null","<p style=""font-size: 60px; font-family: BACS"">EhRmkBD</p>","","","","","","","",""
"html-keyboard-response","173","360040","0.0-11.0-0.4","5fb3f38909fc360164f7c98d","64b003020eef62ee308107cc","64b035e4da5b99d0e81bd3d9","null","null","<p style=""font-size: 60px; font-family: BACS"">adYrcOcN</p>","","","","","","","",""
"html-keyboard-response","174","361051","0.0-11.0-0.5","5fb3f38909fc360164f7c98d","64b003020eef62ee308107cc","64b035e4da5b99d0e81bd3d9","null","null","<p style=""font-size: 60px; font-family: BACS"">ukYZLYGA</p>","","","","","","","",""
"html-keyboard-response","175","362066","0.0-11.0-0.6","5fb3f38909fc360164f7c98d","64b003020eef62ee308107cc","64b035e4da5b99d0e81bd3d9","null","null","<p style=""font-size: 60px; font-family: BACS"">mbZlrAJu</p>","","","","","","","",""
"html-keyboard-response","176","363078","0.0-11.0-0.7","5fb3f38909fc360164f7c98d","64b003020eef62ee308107cc","64b035e4da5b99d0e81bd3d9","null","null","<p style=""font-size: 60px; font-family: BACS"">OLJblGrub</p>","","","","","","","",""
"html-keyboard-response","177","364080","0.0-11.0-0.8","5fb3f38909fc360164f7c98d","64b003020eef62ee308107cc","64b035e4da5b99d0e81bd3d9","null","null","<p style=""font-size: 60px; font-family: BACS"">hYDmtBbM</p>","","","","","","","",""
"html-keyboard-response","178","365091","0.0-11.0-0.9","5fb3f38909fc360164f7c98d","64b003020eef62ee308107cc","64b035e4da5b99d0e81bd3d9","null","null","<p style=""font-size: 60px; font-family: BACS"">hTDdkKE</p>","","","","","","","",""
"html-keyboard-response","179","366100","0.0-11.0-0.10","5fb3f38909fc360164f7c98d","64b003020eef62ee308107cc","64b035e4da5b99d0e81bd3d9","null","null","<p style=""font-size: 60px; font-family: BACS"">QcladrAJu</p>","","","","","","","",""
"html-keyboard-response","180","367110","0.0-11.0-0.11","5fb3f38909fc360164f7c98d","64b003020eef62ee308107cc","64b035e4da5b99d0e81bd3d9","null","null","<p style=""font-size: 60px; font-family: BACS"">TPCbBbM</p>","","","","","","","",""
"html-keyboard-response","181","368123","0.0-11.0-0.12","5fb3f38909fc360164f7c98d","64b003020eef62ee308107cc","64b035e4da5b99d0e81bd3d9","null","null","<p style=""font-size: 60px; font-family: BACS"">LNUrJNmAG</p>","","","","","","","",""
"html-keyboard-response","182","369125","0.0-11.0-0.13","5fb3f38909fc360164f7c98d","64b003020eef62ee308107cc","64b035e4da5b99d0e81bd3d9","null","null","<p style=""font-size: 60px; font-family: BACS"">mBYlBbM</p>","","","","","","","",""
"html-keyboard-response","183","370140","0.0-11.0-0.14","5fb3f38909fc360164f7c98d","64b003020eef62ee308107cc","64b035e4da5b99d0e81bd3d9","null","null","<p style=""font-size: 60px; font-family: BACS"">hYDmtPED</p>","","","","","","","",""
"html-keyboard-response","184","371150","0.0-11.0-0.15","5fb3f38909fc360164f7c98d","64b003020eef62ee308107cc","64b035e4da5b99d0e81bd3d9","null","null","<p style=""font-size: 60px; font-family: BACS"">hkRKBbM</p>","","","","","","","",""
"html-keyboard-response","185","372157","0.0-11.0-0.16","5fb3f38909fc360164f7c98d","64b003020eef62ee308107cc","64b035e4da5b99d0e81bd3d9","null","null","<p style=""font-size: 60px; font-family: BACS"">mARMOYK</p>","","","","","","","",""
"html-keyboard-response","186","373174","0.0-11.0-0.17","5fb3f38909fc360164f7c98d","64b003020eef62ee308107cc","64b035e4da5b99d0e81bd3d9","null","null","<p style=""font-size: 60px; font-family: BACS"">lkAkGrub</p>","","","","","","","",""
"html-keyboard-response","187","374190","0.0-11.0-0.18","5fb3f38909fc360164f7c98d","64b003020eef62ee308107cc","64b035e4da5b99d0e81bd3d9","null","null","<p style=""font-size: 60px; font-family: BACS"">OLJblLYGA</p>","","","","","","","",""
"html-keyboard-response","188","375200","0.0-11.0-0.19","5fb3f38909fc360164f7c98d","64b003020eef62ee308107cc","64b035e4da5b99d0e81bd3d9","null","null","<p style=""font-size: 60px; font-family: BACS"">hTDdOYK</p>","","","","","","","",""
"html-keyboard-response","189","376207","0.0-11.0-0.20","5fb3f38909fc360164f7c98d","64b003020eef62ee308107cc","64b035e4da5b99d0e81bd3d9","null","null","<p style=""font-size: 60px; font-family: BACS"">QcladOcN</p>","","","","","","","",""
"html-keyboard-response","190","377216","0.0-11.0-0.21","5fb3f38909fc360164f7c98d","64b003020eef62ee308107cc","64b035e4da5b99d0e81bd3d9","null","null","<p style=""font-size: 60px; font-family: BACS"">vuJZurAJu</p>","","","","","","","",""
"html-keyboard-response","191","378223","0.0-11.0-0.22","5fb3f38909fc360164f7c98d","64b003020eef62ee308107cc","64b035e4da5b99d0e81bd3d9","null","null","<p style=""font-size: 60px; font-family: BACS"">mbZlOcN</p>","","","","","","","",""
"html-keyboard-response","192","379225","0.0-11.0-0.23","5fb3f38909fc360164f7c98d","64b003020eef62ee308107cc","64b035e4da5b99d0e81bd3d9","null","null","<p style=""font-size: 60px; font-family: BACS"">hYDmtkKE</p>","","","","","","","",""
"html-keyboard-response","193","380236","0.0-11.0-0.24","5fb3f38909fc360164f7c98d","64b003020eef62ee308107cc","64b035e4da5b99d0e81bd3d9","null","null","<p style=""font-size: 60px; font-family: BACS"">lkAkOcN</p>","","","","","","","",""
"html-keyboard-response","194","381252","0.0-11.0-0.25","5fb3f38909fc360164f7c98d","64b003020eef62ee308107cc","64b035e4da5b99d0e81bd3d9","null","null","<p style=""font-size: 60px; font-family: BACS"">hTDdBbM</p>","","","","","","","",""
"html-keyboard-response","195","382264","0.0-11.0-0.26","5fb3f38909fc360164f7c98d","64b003020eef62ee308107cc","64b035e4da5b99d0e81bd3d9","null","null","<p style=""font-size: 60px; font-family: BACS"">LNUrJOcN</p>","","","","","","","",""
"html-keyboard-response","196","383279","0.0-11.0-0.27","5fb3f38909fc360164f7c98d","64b003020eef62ee308107cc","64b035e4da5b99d0e81bd3d9","null","null","<p style=""font-size: 60px; font-family: BACS"">hkRKkBD</p>","","","","","","","",""
"html-keyboard-response","197","384287","0.0-11.0-0.28","5fb3f38909fc360164f7c98d","64b003020eef62ee308107cc","64b035e4da5b99d0e81bd3d9","null","null","<p style=""font-size: 60px; font-family: BACS"">TPCbkKE</p>","","","","","","","",""
"html-keyboard-response","198","385291","0.0-11.0-0.29","5fb3f38909fc360164f7c98d","64b003020eef62ee308107cc","64b035e4da5b99d0e81bd3d9","null","null","<p style=""font-size: 60px; font-family: BACS"">lYruarAJu</p>","","","","","","","",""
"html-keyboard-response","199","386295","0.0-11.0-0.30","5fb3f38909fc360164f7c98d","64b003020eef62ee308107cc","64b035e4da5b99d0e81bd3d9","null","null","<p style=""font-size: 60px; font-family: BACS"">EPERdkBD</p>","","","","","","","",""
"html-keyboard-response","200","387307","0.0-11.0-0.31","5fb3f38909fc360164f7c98d","64b003020eef62ee308107cc","64b035e4da5b99d0e81bd3d9","null","null","<p style=""font-size: 60px; font-family: BACS"">lYruaNmAG</p>","","","","","","","",""
"html-keyboard-response","201","388318","0.0-11.0-0.32","5fb3f38909fc360164f7c98d","64b003020eef62ee308107cc","64b035e4da5b99d0e81bd3d9","null","null","<p style=""font-size: 60px; font-family: BACS"">ukYZrAJu</p>","","","","","","","",""
"html-keyboard-response","202","389320","0.0-11.0-0.33","5fb3f38909fc360164f7c98d","64b003020eef62ee308107cc","64b035e4da5b99d0e81bd3d9","null","null","<p style=""font-size: 60px; font-family: BACS"">mbZlGrub</p>","","","","","","","",""
"html-keyboard-response","203","390324","0.0-11.0-0.34","5fb3f38909fc360164f7c98d","64b003020eef62ee308107cc","64b035e4da5b99d0e81bd3d9","null","null","<p style=""font-size: 60px; font-family: BACS"">bYuQrAJu</p>","","","","","","","",""
"html-keyboard-response","204","391325","0.0-11.0-0.35","5fb3f38909fc360164f7c98d","64b003020eef62ee308107cc","64b035e4da5b99d0e81bd3d9","null","null","<p style=""font-size: 60px; font-family: BACS"">vuJZuLYGA</p>","","","","","","","",""
"html-keyboard-response","205","392335","0.0-11.0-0.36","5fb3f38909fc360164f7c98d","64b003020eef62ee308107cc","64b035e4da5b99d0e81bd3d9","null","null","<p style=""font-size: 60px; font-family: BACS"">adYrcGrub</p>","","","","","","","",""
"html-keyboard-response","206","393345","0.0-11.0-0.37","5fb3f38909fc360164f7c98d","64b003020eef62ee308107cc","64b035e4da5b99d0e81bd3d9","null","null","<p style=""font-size: 60px; font-family: BACS"">lkAkLYGA</p>","","","","","","","",""
"html-keyboard-response","207","394357","0.0-11.0-0.38","5fb3f38909fc360164f7c98d","64b003020eef62ee308107cc","64b035e4da5b99d0e81bd3d9","null","null","<p style=""font-size: 60px; font-family: BACS"">hYDmtkBD</p>","","","","","","","",""
"html-keyboard-response","208","395366","0.0-11.0-0.39","5fb3f38909fc360164f7c98d","64b003020eef62ee308107cc","64b035e4da5b99d0e81bd3d9","null","null","<p style=""font-size: 60px; font-family: BACS"">mARMkKE</p>","","","","","","","",""
"html-keyboard-response","209","396373","0.0-11.0-0.40","5fb3f38909fc360164f7c98d","64b003020eef62ee308107cc","64b035e4da5b99d0e81bd3d9","null","null","<p style=""font-size: 60px; font-family: BACS"">EhRmBbM</p>","","","","","","","",""
"html-keyboard-response","210","397390","0.0-11.0-0.41","5fb3f38909fc360164f7c98d","64b003020eef62ee308107cc","64b035e4da5b99d0e81bd3d9","null","null","<p style=""font-size: 60px; font-family: BACS"">ukYZNmAG</p>","","","","","","","",""
"html-keyboard-response","211","398391","0.0-11.0-0.42","5fb3f38909fc360164f7c98d","64b003020eef62ee308107cc","64b035e4da5b99d0e81bd3d9","null","null","<p style=""font-size: 60px; font-family: BACS"">DmAMEkKE</p>","","","","","","","",""
"html-keyboard-response","212","399393","0.0-11.0-0.43","5fb3f38909fc360164f7c98d","64b003020eef62ee308107cc","64b035e4da5b99d0e81bd3d9","null","null","<p style=""font-size: 60px; font-family: BACS"">hkRKPED</p>","","","","","","","",""
"html-keyboard-response","213","400396","0.0-11.0-0.44","5fb3f38909fc360164f7c98d","64b003020eef62ee308107cc","64b035e4da5b99d0e81bd3d9","null","null","<p style=""font-size: 60px; font-family: BACS"">LNUrJrAJu</p>","","","","","","","",""
"html-keyboard-response","214","401408","0.0-11.0-0.45","5fb3f38909fc360164f7c98d","64b003020eef62ee308107cc","64b035e4da5b99d0e81bd3d9","null","null","<p style=""font-size: 60px; font-family: BACS"">mBYlkBD</p>","","","","","","","",""
"html-keyboard-response","215","402416","0.0-11.0-0.46","5fb3f38909fc360164f7c98d","64b003020eef62ee308107cc","64b035e4da5b99d0e81bd3d9","null","null","<p style=""font-size: 60px; font-family: BACS"">QcladLYGA</p>","","","","","","","",""
"html-keyboard-response","216","403429","0.0-11.0-0.47","5fb3f38909fc360164f7c98d","64b003020eef62ee308107cc","64b035e4da5b99d0e81bd3d9","null","null","<p style=""font-size: 60px; font-family: BACS"">lYruaOcN</p>","","","","","","","",""
"html-keyboard-response","217","404440","0.0-11.0-0.48","5fb3f38909fc360164f7c98d","64b003020eef62ee308107cc","64b035e4da5b99d0e81bd3d9","null","null","<p style=""font-size: 60px; font-family: BACS"">bYuQNmAG</p>","","","","","","","",""
"html-keyboard-response","218","405452","0.0-11.0-0.49","5fb3f38909fc360164f7c98d","64b003020eef62ee308107cc","64b035e4da5b99d0e81bd3d9","null","null","<p style=""font-size: 60px; font-family: BACS"">EhRmPED</p>","","","","","","","",""
"html-keyboard-response","219","406468","0.0-11.0-0.50","5fb3f38909fc360164f7c98d","64b003020eef62ee308107cc","64b035e4da5b99d0e81bd3d9","null","null","<p style=""font-size: 60px; font-family: BACS"">hkRKOYK</p>","","","","","","","",""
"html-keyboard-response","220","407480","0.0-11.0-0.51","5fb3f38909fc360164f7c98d","64b003020eef62ee308107cc","64b035e4da5b99d0e81bd3d9","null","null","<p style=""font-size: 60px; font-family: BACS"">MBmEkKE</p>","","","","","","","",""
"html-keyboard-response","221","408495","0.0-11.0-0.52","5fb3f38909fc360164f7c98d","64b003020eef62ee308107cc","64b035e4da5b99d0e81bd3d9","null","null","<p style=""font-size: 60px; font-family: BACS"">mARMkBD</p>","","","","","","","",""
"html-keyboard-response","222","409503","0.0-11.0-0.53","5fb3f38909fc360164f7c98d","64b003020eef62ee308107cc","64b035e4da5b99d0e81bd3d9","null","null","<p style=""font-size: 60px; font-family: BACS"">mbZlNmAG</p>","","","","","","","",""
"html-keyboard-response","223","410518","0.0-11.0-0.54","5fb3f38909fc360164f7c98d","64b003020eef62ee308107cc","64b035e4da5b99d0e81bd3d9","null","null","<p style=""font-size: 60px; font-family: BACS"">mARMBbM</p>","","","","","","","",""
"html-keyboard-response","224","411529","0.0-11.0-0.55","5fb3f38909fc360164f7c98d","64b003020eef62ee308107cc","64b035e4da5b99d0e81bd3d9","null","null","<p style=""font-size: 60px; font-family: BACS"">vuJZuNmAG</p>","","","","","","","",""
"html-keyboard-response","225","412542","0.0-11.0-0.56","5fb3f38909fc360164f7c98d","64b003020eef62ee308107cc","64b035e4da5b99d0e81bd3d9","null","null","<p style=""font-size: 60px; font-family: BACS"">OLJblOcN</p>","","","","","","","",""
"html-keyboard-response","226","413545","0.0-11.0-0.57","5fb3f38909fc360164f7c98d","64b003020eef62ee308107cc","64b035e4da5b99d0e81bd3d9","null","null","<p style=""font-size: 60px; font-family: BACS"">hTDdkBD</p>","","","","","","","",""
"html-keyboard-response","227","414549","0.0-11.0-0.58","5fb3f38909fc360164f7c98d","64b003020eef62ee308107cc","64b035e4da5b99d0e81bd3d9","null","null","<p style=""font-size: 60px; font-family: BACS"">lYruaLYGA</p>","","","","","","","",""
"html-keyboard-response","228","415557","0.0-11.0-0.59","5fb3f38909fc360164f7c98d","64b003020eef62ee308107cc","64b035e4da5b99d0e81bd3d9","null","null","<p style=""font-size: 60px; font-family: BACS"">adYrcrAJu</p>","","","","","","","",""
"html-keyboard-response","229","416574","0.0-11.0-0.60","5fb3f38909fc360164f7c98d","64b003020eef62ee308107cc","64b035e4da5b99d0e81bd3d9","null","null","<p style=""font-size: 60px; font-family: BACS"">bYuQOcN</p>","","","","","","","",""
"html-keyboard-response","230","417584","0.0-11.0-0.61","5fb3f38909fc360164f7c98d","64b003020eef62ee308107cc","64b035e4da5b99d0e81bd3d9","null","null","<p style=""font-size: 60px; font-family: BACS"">DmAMEBbM</p>","","","","","","","",""
"html-keyboard-response","231","418598","0.0-11.0-0.62","5fb3f38909fc360164f7c98d","64b003020eef62ee308107cc","64b035e4da5b99d0e81bd3d9","null","null","<p style=""font-size: 60px; font-family: BACS"">ukYZGrub</p>","","","","","","","",""
"html-keyboard-response","232","419605","0.0-11.0-0.63","5fb3f38909fc360164f7c98d","64b003020eef62ee308107cc","64b035e4da5b99d0e81bd3d9","null","null","<p style=""font-size: 60px; font-family: BACS"">bYuQLYGA</p>","","","","","","","",""
"html-keyboard-response","233","420614","0.0-11.0-0.64","5fb3f38909fc360164f7c98d","64b003020eef62ee308107cc","64b035e4da5b99d0e81bd3d9","null","null","<p style=""font-size: 60px; font-family: BACS"">vuJZuGrub</p>","","","","","","","",""
"html-keyboard-response","234","421625","0.0-11.0-0.65","5fb3f38909fc360164f7c98d","64b003020eef62ee308107cc","64b035e4da5b99d0e81bd3d9","null","null","<p style=""font-size: 60px; font-family: BACS"">mBYlPED</p>","","","","","","","",""
"html-keyboard-response","235","422628","0.0-11.0-0.66","5fb3f38909fc360164f7c98d","64b003020eef62ee308107cc","64b035e4da5b99d0e81bd3d9","null","null","<p style=""font-size: 60px; font-family: BACS"">DmAMEOYK</p>","","","","","","","",""
"html-keyboard-response","236","423630","0.0-11.0-0.67","5fb3f38909fc360164f7c98d","64b003020eef62ee308107cc","64b035e4da5b99d0e81bd3d9","null","null","<p style=""font-size: 60px; font-family: BACS"">EPERdPED</p>","","","","","","","",""
"html-keyboard-response","237","424638","0.0-11.0-0.68","5fb3f38909fc360164f7c98d","64b003020eef62ee308107cc","64b035e4da5b99d0e81bd3d9","null","null","<p style=""font-size: 60px; font-family: BACS"">QcladGrub</p>","","","","","","","",""
"html-keyboard-response","238","425642","0.0-11.0-0.69","5fb3f38909fc360164f7c98d","64b003020eef62ee308107cc","64b035e4da5b99d0e81bd3d9","null","null","<p style=""font-size: 60px; font-family: BACS"">TPCbOYK</p>","","","","","","","",""
"html-keyboard-response","239","426658","0.0-11.0-0.70","5fb3f38909fc360164f7c98d","64b003020eef62ee308107cc","64b035e4da5b99d0e81bd3d9","null","null","<p style=""font-size: 60px; font-family: BACS"">EhRmkKE</p>","","","","","","","",""
"html-keyboard-response","240","427666","0.0-11.0-0.71","5fb3f38909fc360164f7c98d","64b003020eef62ee308107cc","64b035e4da5b99d0e81bd3d9","null","null","<p style=""font-size: 60px; font-family: BACS"">EPERdOYK</p>","","","","","","","",""
"html-keyboard-response","241","428682","0.0-11.0-0.72","5fb3f38909fc360164f7c98d","64b003020eef62ee308107cc","64b035e4da5b99d0e81bd3d9","null","null","<p style=""font-size: 60px; font-family: BACS"">LNUrJGrub</p>","","","","","","","",""
"html-keyboard-response","242","429698","0.0-11.0-0.73","5fb3f38909fc360164f7c98d","64b003020eef62ee308107cc","64b035e4da5b99d0e81bd3d9","null","null","<p style=""font-size: 60px; font-family: BACS"">DmAMEPED</p>","","","","","","","",""
"html-keyboard-response","243","430713","0.0-11.0-0.74","5fb3f38909fc360164f7c98d","64b003020eef62ee308107cc","64b035e4da5b99d0e81bd3d9","null","null","<p style=""font-size: 60px; font-family: BACS"">OLJblNmAG</p>","","","","","","","",""
"html-keyboard-response","244","431729","0.0-11.0-0.75","5fb3f38909fc360164f7c98d","64b003020eef62ee308107cc","64b035e4da5b99d0e81bd3d9","null","null","<p style=""font-size: 60px; font-family: BACS"">MBmEkBD</p>","","","","","","","",""
"html-keyboard-response","245","432743","0.0-11.0-0.76","5fb3f38909fc360164f7c98d","64b003020eef62ee308107cc","64b035e4da5b99d0e81bd3d9","null","null","<p style=""font-size: 60px; font-family: BACS"">lkAkNmAG</p>","","","","","","","",""
"html-keyboard-response","246","433755","0.0-11.0-0.77","5fb3f38909fc360164f7c98d","64b003020eef62ee308107cc","64b035e4da5b99d0e81bd3d9","null","null","<p style=""font-size: 60px; font-family: BACS"">adYrcLYGA</p>","","","","","","","",""
"html-keyboard-response","247","434763","0.0-11.0-0.78","5fb3f38909fc360164f7c98d","64b003020eef62ee308107cc","64b035e4da5b99d0e81bd3d9","null","null","<p style=""font-size: 60px; font-family: BACS"">mBYlOYK</p>","","","","","","","",""
"html-keyboard-response","248","435767","0.0-11.0-0.79","5fb3f38909fc360164f7c98d","64b003020eef62ee308107cc","64b035e4da5b99d0e81bd3d9","null","null","<p style=""font-size: 60px; font-family: BACS"">TPCbPED</p>","","","","","","","",""
"html-keyboard-response","249","445901","0.0-12.0","5fb3f38909fc360164f7c98d","64b003020eef62ee308107cc","64b035e4da5b99d0e81bd3d9","10134"," ","<p>Ottimo, hai visto il terzo blocco di parole. Ora puoi prenderti una piccola pausa.</p>
      <p>Premi la barra quando sei pronta/o per riprendere.</p>","","","","","","","",""
"html-keyboard-response","250","446911","0.0-13.0-0.0","5fb3f38909fc360164f7c98d","64b003020eef62ee308107cc","64b035e4da5b99d0e81bd3d9","null","null","<p style=""font-size: 60px; font-family: BACS"">hYDmtBbM</p>","","","","","","","",""
"html-keyboard-response","251","447914","0.0-13.0-0.1","5fb3f38909fc360164f7c98d","64b003020eef62ee308107cc","64b035e4da5b99d0e81bd3d9","null","null","<p style=""font-size: 60px; font-family: BACS"">bYuQLYGA</p>","","","","","","","",""
"html-keyboard-response","252","448917","0.0-13.0-0.2","5fb3f38909fc360164f7c98d","64b003020eef62ee308107cc","64b035e4da5b99d0e81bd3d9","null","null","<p style=""font-size: 60px; font-family: BACS"">hkRKkBD</p>","","","","","","","",""
"html-keyboard-response","253","449931","0.0-13.0-0.3","5fb3f38909fc360164f7c98d","64b003020eef62ee308107cc","64b035e4da5b99d0e81bd3d9","null","null","<p style=""font-size: 60px; font-family: BACS"">adYrcOcN</p>","","","","","","","",""
"html-keyboard-response","254","450937","0.0-13.0-0.4","5fb3f38909fc360164f7c98d","64b003020eef62ee308107cc","64b035e4da5b99d0e81bd3d9","null","null","<p style=""font-size: 60px; font-family: BACS"">bYuQrAJu</p>","","","","","","","",""
"html-keyboard-response","255","451940","0.0-13.0-0.5","5fb3f38909fc360164f7c98d","64b003020eef62ee308107cc","64b035e4da5b99d0e81bd3d9","null","null","<p style=""font-size: 60px; font-family: BACS"">OLJblNmAG</p>","","","","","","","",""
"html-keyboard-response","256","452957","0.0-13.0-0.6","5fb3f38909fc360164f7c98d","64b003020eef62ee308107cc","64b035e4da5b99d0e81bd3d9","null","null","<p style=""font-size: 60px; font-family: BACS"">mBYlPED</p>","","","","","","","",""
"html-keyboard-response","257","453965","0.0-13.0-0.7","5fb3f38909fc360164f7c98d","64b003020eef62ee308107cc","64b035e4da5b99d0e81bd3d9","null","null","<p style=""font-size: 60px; font-family: BACS"">mbZlOcN</p>","","","","","","","",""
"html-keyboard-response","258","454972","0.0-13.0-0.8","5fb3f38909fc360164f7c98d","64b003020eef62ee308107cc","64b035e4da5b99d0e81bd3d9","null","null","<p style=""font-size: 60px; font-family: BACS"">MBmEOYK</p>","","","","","","","",""
"html-keyboard-response","259","455984","0.0-13.0-0.9","5fb3f38909fc360164f7c98d","64b003020eef62ee308107cc","64b035e4da5b99d0e81bd3d9","null","null","<p style=""font-size: 60px; font-family: BACS"">vuJZuGrub</p>","","","","","","","",""
"html-keyboard-response","260","456992","0.0-13.0-0.10","5fb3f38909fc360164f7c98d","64b003020eef62ee308107cc","64b035e4da5b99d0e81bd3d9","null","null","<p style=""font-size: 60px; font-family: BACS"">lkAkNmAG</p>","","","","","","","",""
"html-keyboard-response","261","457997","0.0-13.0-0.11","5fb3f38909fc360164f7c98d","64b003020eef62ee308107cc","64b035e4da5b99d0e81bd3d9","null","null","<p style=""font-size: 60px; font-family: BACS"">EhRmkBD</p>","","","","","","","",""
"html-keyboard-response","262","459008","0.0-13.0-0.12","5fb3f38909fc360164f7c98d","64b003020eef62ee308107cc","64b035e4da5b99d0e81bd3d9","null","null","<p style=""font-size: 60px; font-family: BACS"">hYDmtPED</p>","","","","","","","",""
"html-keyboard-response","263","460021","0.0-13.0-0.13","5fb3f38909fc360164f7c98d","64b003020eef62ee308107cc","64b035e4da5b99d0e81bd3d9","null","null","<p style=""font-size: 60px; font-family: BACS"">OLJblLYGA</p>","","","","","","","",""
"html-keyboard-response","264","461031","0.0-13.0-0.14","5fb3f38909fc360164f7c98d","64b003020eef62ee308107cc","64b035e4da5b99d0e81bd3d9","null","null","<p style=""font-size: 60px; font-family: BACS"">ukYZNmAG</p>","","","","","","","",""
"html-keyboard-response","265","462043","0.0-13.0-0.15","5fb3f38909fc360164f7c98d","64b003020eef62ee308107cc","64b035e4da5b99d0e81bd3d9","null","null","<p style=""font-size: 60px; font-family: BACS"">mBYlBbM</p>","","","","","","","",""
"html-keyboard-response","266","463048","0.0-13.0-0.16","5fb3f38909fc360164f7c98d","64b003020eef62ee308107cc","64b035e4da5b99d0e81bd3d9","null","null","<p style=""font-size: 60px; font-family: BACS"">mbZlrAJu</p>","","","","","","","",""
"html-keyboard-response","267","464057","0.0-13.0-0.17","5fb3f38909fc360164f7c98d","64b003020eef62ee308107cc","64b035e4da5b99d0e81bd3d9","null","null","<p style=""font-size: 60px; font-family: BACS"">adYrcGrub</p>","","","","","","","",""
"html-keyboard-response","268","465065","0.0-13.0-0.18","5fb3f38909fc360164f7c98d","64b003020eef62ee308107cc","64b035e4da5b99d0e81bd3d9","null","null","<p style=""font-size: 60px; font-family: BACS"">DmAMEBbM</p>","","","","","","","",""
"html-keyboard-response","269","466070","0.0-13.0-0.19","5fb3f38909fc360164f7c98d","64b003020eef62ee308107cc","64b035e4da5b99d0e81bd3d9","null","null","<p style=""font-size: 60px; font-family: BACS"">lYruaNmAG</p>","","","","","","","",""
"html-keyboard-response","270","467076","0.0-13.0-0.20","5fb3f38909fc360164f7c98d","64b003020eef62ee308107cc","64b035e4da5b99d0e81bd3d9","null","null","<p style=""font-size: 60px; font-family: BACS"">mARMkBD</p>","","","","","","","",""
"html-keyboard-response","271","468086","0.0-13.0-0.21","5fb3f38909fc360164f7c98d","64b003020eef62ee308107cc","64b035e4da5b99d0e81bd3d9","null","null","<p style=""font-size: 60px; font-family: BACS"">ukYZrAJu</p>","","","","","","","",""
"html-keyboard-response","272","469093","0.0-13.0-0.22","5fb3f38909fc360164f7c98d","64b003020eef62ee308107cc","64b035e4da5b99d0e81bd3d9","null","null","<p style=""font-size: 60px; font-family: BACS"">lkAkGrub</p>","","","","","","","",""
"html-keyboard-response","273","470105","0.0-13.0-0.23","5fb3f38909fc360164f7c98d","64b003020eef62ee308107cc","64b035e4da5b99d0e81bd3d9","null","null","<p style=""font-size: 60px; font-family: BACS"">EhRmkKE</p>","","","","","","","",""
"html-keyboard-response","274","471113","0.0-13.0-0.24","5fb3f38909fc360164f7c98d","64b003020eef62ee308107cc","64b035e4da5b99d0e81bd3d9","null","null","<p style=""font-size: 60px; font-family: BACS"">lYruaOcN</p>","","","","","","","",""
"html-keyboard-response","275","472122","0.0-13.0-0.25","5fb3f38909fc360164f7c98d","64b003020eef62ee308107cc","64b035e4da5b99d0e81bd3d9","null","null","<p style=""font-size: 60px; font-family: BACS"">hkRKBbM</p>","","","","","","","",""
"html-keyboard-response","276","473134","0.0-13.0-0.26","5fb3f38909fc360164f7c98d","64b003020eef62ee308107cc","64b035e4da5b99d0e81bd3d9","null","null","<p style=""font-size: 60px; font-family: BACS"">vuJZuNmAG</p>","","","","","","","",""
"html-keyboard-response","277","474138","0.0-13.0-0.27","5fb3f38909fc360164f7c98d","64b003020eef62ee308107cc","64b035e4da5b99d0e81bd3d9","null","null","<p style=""font-size: 60px; font-family: BACS"">EPERdkBD</p>","","","","","","","",""
"html-keyboard-response","278","475146","0.0-13.0-0.28","5fb3f38909fc360164f7c98d","64b003020eef62ee308107cc","64b035e4da5b99d0e81bd3d9","null","null","<p style=""font-size: 60px; font-family: BACS"">mARMkKE</p>","","","","","","","",""
"html-keyboard-response","279","476151","0.0-13.0-0.29","5fb3f38909fc360164f7c98d","64b003020eef62ee308107cc","64b035e4da5b99d0e81bd3d9","null","null","<p style=""font-size: 60px; font-family: BACS"">DmAMEOYK</p>","","","","","","","",""
"html-keyboard-response","280","477153","0.0-13.0-0.30","5fb3f38909fc360164f7c98d","64b003020eef62ee308107cc","64b035e4da5b99d0e81bd3d9","null","null","<p style=""font-size: 60px; font-family: BACS"">hTDdkBD</p>","","","","","","","",""
"html-keyboard-response","281","478158","0.0-13.0-0.31","5fb3f38909fc360164f7c98d","64b003020eef62ee308107cc","64b035e4da5b99d0e81bd3d9","null","null","<p style=""font-size: 60px; font-family: BACS"">EhRmPED</p>","","","","","","","",""
"html-keyboard-response","282","479172","0.0-13.0-0.32","5fb3f38909fc360164f7c98d","64b003020eef62ee308107cc","64b035e4da5b99d0e81bd3d9","null","null","<p style=""font-size: 60px; font-family: BACS"">mbZlGrub</p>","","","","","","","",""
"html-keyboard-response","283","480181","0.0-13.0-0.33","5fb3f38909fc360164f7c98d","64b003020eef62ee308107cc","64b035e4da5b99d0e81bd3d9","null","null","<p style=""font-size: 60px; font-family: BACS"">hkRKPED</p>","","","","","","","",""
"html-keyboard-response","284","481185","0.0-13.0-0.34","5fb3f38909fc360164f7c98d","64b003020eef62ee308107cc","64b035e4da5b99d0e81bd3d9","null","null","<p style=""font-size: 60px; font-family: BACS"">LNUrJGrub</p>","","","","","","","",""
"html-keyboard-response","285","482193","0.0-13.0-0.35","5fb3f38909fc360164f7c98d","64b003020eef62ee308107cc","64b035e4da5b99d0e81bd3d9","null","null","<p style=""font-size: 60px; font-family: BACS"">ukYZLYGA</p>","","","","","","","",""
"html-keyboard-response","286","483197","0.0-13.0-0.36","5fb3f38909fc360164f7c98d","64b003020eef62ee308107cc","64b035e4da5b99d0e81bd3d9","null","null","<p style=""font-size: 60px; font-family: BACS"">DmAMEkKE</p>","","","","","","","",""
"html-keyboard-response","287","484198","0.0-13.0-0.37","5fb3f38909fc360164f7c98d","64b003020eef62ee308107cc","64b035e4da5b99d0e81bd3d9","null","null","<p style=""font-size: 60px; font-family: BACS"">vuJZuLYGA</p>","","","","","","","",""
"html-keyboard-response","288","485215","0.0-13.0-0.38","5fb3f38909fc360164f7c98d","64b003020eef62ee308107cc","64b035e4da5b99d0e81bd3d9","null","null","<p style=""font-size: 60px; font-family: BACS"">mBYlkBD</p>","","","","","","","",""
"html-keyboard-response","289","486220","0.0-13.0-0.39","5fb3f38909fc360164f7c98d","64b003020eef62ee308107cc","64b035e4da5b99d0e81bd3d9","null","null","<p style=""font-size: 60px; font-family: BACS"">hTDdkKE</p>","","","","","","","",""
"html-keyboard-response","290","487236","0.0-13.0-0.40","5fb3f38909fc360164f7c98d","64b003020eef62ee308107cc","64b035e4da5b99d0e81bd3d9","null","null","<p style=""font-size: 60px; font-family: BACS"">QcladGrub</p>","","","","","","","",""
"html-keyboard-response","291","488244","0.0-13.0-0.41","5fb3f38909fc360164f7c98d","64b003020eef62ee308107cc","64b035e4da5b99d0e81bd3d9","null","null","<p style=""font-size: 60px; font-family: BACS"">hYDmtkKE</p>","","","","","","","",""
"html-keyboard-response","292","489248","0.0-13.0-0.42","5fb3f38909fc360164f7c98d","64b003020eef62ee308107cc","64b035e4da5b99d0e81bd3d9","null","null","<p style=""font-size: 60px; font-family: BACS"">LNUrJrAJu</p>","","","","","","","",""
"html-keyboard-response","293","490264","0.0-13.0-0.43","5fb3f38909fc360164f7c98d","64b003020eef62ee308107cc","64b035e4da5b99d0e81bd3d9","null","null","<p style=""font-size: 60px; font-family: BACS"">hTDdBbM</p>","","","","","","","",""
"html-keyboard-response","294","491275","0.0-13.0-0.44","5fb3f38909fc360164f7c98d","64b003020eef62ee308107cc","64b035e4da5b99d0e81bd3d9","null","null","<p style=""font-size: 60px; font-family: BACS"">TPCbOYK</p>","","","","","","","",""
"html-keyboard-response","295","492283","0.0-13.0-0.45","5fb3f38909fc360164f7c98d","64b003020eef62ee308107cc","64b035e4da5b99d0e81bd3d9","null","null","<p style=""font-size: 60px; font-family: BACS"">MBmEkBD</p>","","","","","","","",""
"html-keyboard-response","296","493285","0.0-13.0-0.46","5fb3f38909fc360164f7c98d","64b003020eef62ee308107cc","64b035e4da5b99d0e81bd3d9","null","null","<p style=""font-size: 60px; font-family: BACS"">TPCbBbM</p>","","","","","","","",""
"html-keyboard-response","297","494294","0.0-13.0-0.47","5fb3f38909fc360164f7c98d","64b003020eef62ee308107cc","64b035e4da5b99d0e81bd3d9","null","null","<p style=""font-size: 60px; font-family: BACS"">hTDdOYK</p>","","","","","","","",""
"html-keyboard-response","298","495301","0.0-13.0-0.48","5fb3f38909fc360164f7c98d","64b003020eef62ee308107cc","64b035e4da5b99d0e81bd3d9","null","null","<p style=""font-size: 60px; font-family: BACS"">MBmEkKE</p>","","","","","","","",""
"html-keyboard-response","299","496315","0.0-13.0-0.49","5fb3f38909fc360164f7c98d","64b003020eef62ee308107cc","64b035e4da5b99d0e81bd3d9","null","null","<p style=""font-size: 60px; font-family: BACS"">mbZlNmAG</p>","","","","","","","",""
"html-keyboard-response","300","497318","0.0-13.0-0.50","5fb3f38909fc360164f7c98d","64b003020eef62ee308107cc","64b035e4da5b99d0e81bd3d9","null","null","<p style=""font-size: 60px; font-family: BACS"">EPERdPED</p>","","","","","","","",""
"html-keyboard-response","301","498330","0.0-13.0-0.51","5fb3f38909fc360164f7c98d","64b003020eef62ee308107cc","64b035e4da5b99d0e81bd3d9","null","null","<p style=""font-size: 60px; font-family: BACS"">ukYZGrub</p>","","","","","","","",""
"html-keyboard-response","302","499336","0.0-13.0-0.52","5fb3f38909fc360164f7c98d","64b003020eef62ee308107cc","64b035e4da5b99d0e81bd3d9","null","null","<p style=""font-size: 60px; font-family: BACS"">lYruarAJu</p>","","","","","","","",""
"html-keyboard-response","303","500343","0.0-13.0-0.53","5fb3f38909fc360164f7c98d","64b003020eef62ee308107cc","64b035e4da5b99d0e81bd3d9","null","null","<p style=""font-size: 60px; font-family: BACS"">mBYlOYK</p>","","","","","","","",""
"html-keyboard-response","304","501358","0.0-13.0-0.54","5fb3f38909fc360164f7c98d","64b003020eef62ee308107cc","64b035e4da5b99d0e81bd3d9","null","null","<p style=""font-size: 60px; font-family: BACS"">lkAkOcN</p>","","","","","","","",""
"html-keyboard-response","305","502369","0.0-13.0-0.55","5fb3f38909fc360164f7c98d","64b003020eef62ee308107cc","64b035e4da5b99d0e81bd3d9","null","null","<p style=""font-size: 60px; font-family: BACS"">LNUrJNmAG</p>","","","","","","","",""
"html-keyboard-response","306","503374","0.0-13.0-0.56","5fb3f38909fc360164f7c98d","64b003020eef62ee308107cc","64b035e4da5b99d0e81bd3d9","null","null","<p style=""font-size: 60px; font-family: BACS"">TPCbPED</p>","","","","","","","",""
"html-keyboard-response","307","504388","0.0-13.0-0.57","5fb3f38909fc360164f7c98d","64b003020eef62ee308107cc","64b035e4da5b99d0e81bd3d9","null","null","<p style=""font-size: 60px; font-family: BACS"">OLJblGrub</p>","","","","","","","",""
"html-keyboard-response","308","505397","0.0-13.0-0.58","5fb3f38909fc360164f7c98d","64b003020eef62ee308107cc","64b035e4da5b99d0e81bd3d9","null","null","<p style=""font-size: 60px; font-family: BACS"">vuJZurAJu</p>","","","","","","","",""
"html-keyboard-response","309","506400","0.0-13.0-0.59","5fb3f38909fc360164f7c98d","64b003020eef62ee308107cc","64b035e4da5b99d0e81bd3d9","null","null","<p style=""font-size: 60px; font-family: BACS"">bYuQOcN</p>","","","","","","","",""
"html-keyboard-response","310","507402","0.0-13.0-0.60","5fb3f38909fc360164f7c98d","64b003020eef62ee308107cc","64b035e4da5b99d0e81bd3d9","null","null","<p style=""font-size: 60px; font-family: BACS"">QcladrAJu</p>","","","","","","","",""
"html-keyboard-response","311","508412","0.0-13.0-0.61","5fb3f38909fc360164f7c98d","64b003020eef62ee308107cc","64b035e4da5b99d0e81bd3d9","null","null","<p style=""font-size: 60px; font-family: BACS"">LNUrJOcN</p>","","","","","","","",""
"html-keyboard-response","312","509421","0.0-13.0-0.62","5fb3f38909fc360164f7c98d","64b003020eef62ee308107cc","64b035e4da5b99d0e81bd3d9","null","null","<p style=""font-size: 60px; font-family: BACS"">bYuQNmAG</p>","","","","","","","",""
"html-keyboard-response","313","510426","0.0-13.0-0.63","5fb3f38909fc360164f7c98d","64b003020eef62ee308107cc","64b035e4da5b99d0e81bd3d9","null","null","<p style=""font-size: 60px; font-family: BACS"">EhRmBbM</p>","","","","","","","",""
"html-keyboard-response","314","511432","0.0-13.0-0.64","5fb3f38909fc360164f7c98d","64b003020eef62ee308107cc","64b035e4da5b99d0e81bd3d9","null","null","<p style=""font-size: 60px; font-family: BACS"">TPCbkKE</p>","","","","","","","",""
"html-keyboard-response","315","512441","0.0-13.0-0.65","5fb3f38909fc360164f7c98d","64b003020eef62ee308107cc","64b035e4da5b99d0e81bd3d9","null","null","<p style=""font-size: 60px; font-family: BACS"">DmAMEPED</p>","","","","","","","",""
"html-keyboard-response","316","513444","0.0-13.0-0.66","5fb3f38909fc360164f7c98d","64b003020eef62ee308107cc","64b035e4da5b99d0e81bd3d9","null","null","<p style=""font-size: 60px; font-family: BACS"">lYruaLYGA</p>","","","","","","","",""
"html-keyboard-response","317","514448","0.0-13.0-0.67","5fb3f38909fc360164f7c98d","64b003020eef62ee308107cc","64b035e4da5b99d0e81bd3d9","null","null","<p style=""font-size: 60px; font-family: BACS"">MBmEPED</p>","","","","","","","",""
"html-keyboard-response","318","515453","0.0-13.0-0.68","5fb3f38909fc360164f7c98d","64b003020eef62ee308107cc","64b035e4da5b99d0e81bd3d9","null","null","<p style=""font-size: 60px; font-family: BACS"">mARMOYK</p>","","","","","","","",""
"html-keyboard-response","319","516459","0.0-13.0-0.69","5fb3f38909fc360164f7c98d","64b003020eef62ee308107cc","64b035e4da5b99d0e81bd3d9","null","null","<p style=""font-size: 60px; font-family: BACS"">hYDmtkBD</p>","","","","","","","",""
"html-keyboard-response","320","517468","0.0-13.0-0.70","5fb3f38909fc360164f7c98d","64b003020eef62ee308107cc","64b035e4da5b99d0e81bd3d9","null","null","<p style=""font-size: 60px; font-family: BACS"">hkRKOYK</p>","","","","","","","",""
"html-keyboard-response","321","518475","0.0-13.0-0.71","5fb3f38909fc360164f7c98d","64b003020eef62ee308107cc","64b035e4da5b99d0e81bd3d9","null","null","<p style=""font-size: 60px; font-family: BACS"">OLJblOcN</p>","","","","","","","",""
"html-keyboard-response","322","519491","0.0-13.0-0.72","5fb3f38909fc360164f7c98d","64b003020eef62ee308107cc","64b035e4da5b99d0e81bd3d9","null","null","<p style=""font-size: 60px; font-family: BACS"">adYrcrAJu</p>","","","","","","","",""
"html-keyboard-response","323","520507","0.0-13.0-0.73","5fb3f38909fc360164f7c98d","64b003020eef62ee308107cc","64b035e4da5b99d0e81bd3d9","null","null","<p style=""font-size: 60px; font-family: BACS"">lkAkLYGA</p>","","","","","","","",""
"html-keyboard-response","324","521516","0.0-13.0-0.74","5fb3f38909fc360164f7c98d","64b003020eef62ee308107cc","64b035e4da5b99d0e81bd3d9","null","null","<p style=""font-size: 60px; font-family: BACS"">EPERdOYK</p>","","","","","","","",""
"html-keyboard-response","325","522530","0.0-13.0-0.75","5fb3f38909fc360164f7c98d","64b003020eef62ee308107cc","64b035e4da5b99d0e81bd3d9","null","null","<p style=""font-size: 60px; font-family: BACS"">adYrcLYGA</p>","","","","","","","",""
"html-keyboard-response","326","523532","0.0-13.0-0.76","5fb3f38909fc360164f7c98d","64b003020eef62ee308107cc","64b035e4da5b99d0e81bd3d9","null","null","<p style=""font-size: 60px; font-family: BACS"">QcladOcN</p>","","","","","","","",""
"html-keyboard-response","327","524546","0.0-13.0-0.77","5fb3f38909fc360164f7c98d","64b003020eef62ee308107cc","64b035e4da5b99d0e81bd3d9","null","null","<p style=""font-size: 60px; font-family: BACS"">EPERdkKE</p>","","","","","","","",""
"html-keyboard-response","328","525555","0.0-13.0-0.78","5fb3f38909fc360164f7c98d","64b003020eef62ee308107cc","64b035e4da5b99d0e81bd3d9","null","null","<p style=""font-size: 60px; font-family: BACS"">QcladLYGA</p>","","","","","","","",""
"html-keyboard-response","329","526563","0.0-13.0-0.79","5fb3f38909fc360164f7c98d","64b003020eef62ee308107cc","64b035e4da5b99d0e81bd3d9","null","null","<p style=""font-size: 60px; font-family: BACS"">mARMBbM</p>","","","","","","","",""
"html-keyboard-response","330","545251","0.0-14.0","5fb3f38909fc360164f7c98d","64b003020eef62ee308107cc","64b035e4da5b99d0e81bd3d9","18697"," ","<p>Ottimo, hai visto il quarto blocco di parole. Ora puoi prenderti una piccola pausa.</p>
      <p>Premi la barra quando sei pronta/o per riprendere.</p>","","","","","","","",""
"html-keyboard-response","331","546263","0.0-15.0-0.0","5fb3f38909fc360164f7c98d","64b003020eef62ee308107cc","64b035e4da5b99d0e81bd3d9","null","null","<p style=""font-size: 60px; font-family: BACS"">hkRKBbM</p>","","","","","","","",""
"html-keyboard-response","332","547272","0.0-15.0-0.1","5fb3f38909fc360164f7c98d","64b003020eef62ee308107cc","64b035e4da5b99d0e81bd3d9","null","null","<p style=""font-size: 60px; font-family: BACS"">hkRKBbM</p>","","","","","","","",""
"html-keyboard-response","333","548284","0.0-15.0-0.2","5fb3f38909fc360164f7c98d","64b003020eef62ee308107cc","64b035e4da5b99d0e81bd3d9","null","null","<p style=""font-size: 60px; font-family: BACS"">hkRKBbM</p>","","","","","","","",""
"html-keyboard-response","334","549290","0.0-15.0-0.3","5fb3f38909fc360164f7c98d","64b003020eef62ee308107cc","64b035e4da5b99d0e81bd3d9","null","null","<p style=""font-size: 60px; font-family: BACS"">hkRKBbM</p>","","","","","","","",""
"html-keyboard-response","335","550304","0.0-15.0-0.4","5fb3f38909fc360164f7c98d","64b003020eef62ee308107cc","64b035e4da5b99d0e81bd3d9","null","null","<p style=""font-size: 60px; font-family: BACS"">hkRKBbM</p>","","","","","","","",""
"html-keyboard-response","336","551320","0.0-15.0-0.5","5fb3f38909fc360164f7c98d","64b003020eef62ee308107cc","64b035e4da5b99d0e81bd3d9","null","null","<p style=""font-size: 60px; font-family: BACS"">hkRKBbM</p>","","","","","","","",""
"html-keyboard-response","337","552334","0.0-15.0-0.6","5fb3f38909fc360164f7c98d","64b003020eef62ee308107cc","64b035e4da5b99d0e81bd3d9","null","null","<p style=""font-size: 60px; font-family: BACS"">hkRKBbM</p>","","","","","","","",""
"html-keyboard-response","338","553343","0.0-15.0-0.7","5fb3f38909fc360164f7c98d","64b003020eef62ee308107cc","64b035e4da5b99d0e81bd3d9","null","null","<p style=""font-size: 60px; font-family: BACS"">hkRKBbM</p>","","","","","","","",""
"html-keyboard-response","339","554359","0.0-15.0-0.8","5fb3f38909fc360164f7c98d","64b003020eef62ee308107cc","64b035e4da5b99d0e81bd3d9","null","null","<p style=""font-size: 60px; font-family: BACS"">hkRKBbM</p>","","","","","","","",""
"html-keyboard-response","340","555367","0.0-15.0-0.9","5fb3f38909fc360164f7c98d","64b003020eef62ee308107cc","64b035e4da5b99d0e81bd3d9","null","null","<p style=""font-size: 60px; font-family: BACS"">hkRKBbM</p>","","","","","","","",""
"html-keyboard-response","341","556369","0.0-15.0-0.10","5fb3f38909fc360164f7c98d","64b003020eef62ee308107cc","64b035e4da5b99d0e81bd3d9","null","null","<p style=""font-size: 60px; font-family: BACS"">hkRKBbM</p>","","","","","","","",""
"html-keyboard-response","342","557380","0.0-15.0-0.11","5fb3f38909fc360164f7c98d","64b003020eef62ee308107cc","64b035e4da5b99d0e81bd3d9","null","null","<p style=""font-size: 60px; font-family: BACS"">hkRKBbM</p>","","","","","","","",""
"html-keyboard-response","343","558384","0.0-15.0-0.12","5fb3f38909fc360164f7c98d","64b003020eef62ee308107cc","64b035e4da5b99d0e81bd3d9","null","null","<p style=""font-size: 60px; font-family: BACS"">hkRKBbM</p>","","","","","","","",""
"html-keyboard-response","344","559387","0.0-15.0-0.13","5fb3f38909fc360164f7c98d","64b003020eef62ee308107cc","64b035e4da5b99d0e81bd3d9","null","null","<p style=""font-size: 60px; font-family: BACS"">hkRKBbM</p>","","","","","","","",""
"html-keyboard-response","345","560403","0.0-15.0-0.14","5fb3f38909fc360164f7c98d","64b003020eef62ee308107cc","64b035e4da5b99d0e81bd3d9","null","null","<p style=""font-size: 60px; font-family: BACS"">hkRKBbM</p>","","","","","","","",""
"html-keyboard-response","346","561404","0.0-15.0-0.15","5fb3f38909fc360164f7c98d","64b003020eef62ee308107cc","64b035e4da5b99d0e81bd3d9","null","null","<p style=""font-size: 60px; font-family: BACS"">hkRKBbM</p>","","","","","","","",""
"html-keyboard-response","347","562418","0.0-15.0-0.16","5fb3f38909fc360164f7c98d","64b003020eef62ee308107cc","64b035e4da5b99d0e81bd3d9","null","null","<p style=""font-size: 60px; font-family: BACS"">hkRKBbM</p>","","","","","","","",""
"html-keyboard-response","348","563431","0.0-15.0-0.17","5fb3f38909fc360164f7c98d","64b003020eef62ee308107cc","64b035e4da5b99d0e81bd3d9","null","null","<p style=""font-size: 60px; font-family: BACS"">hkRKBbM</p>","","","","","","","",""
"html-keyboard-response","349","564444","0.0-15.0-0.18","5fb3f38909fc360164f7c98d","64b003020eef62ee308107cc","64b035e4da5b99d0e81bd3d9","null","null","<p style=""font-size: 60px; font-family: BACS"">hkRKBbM</p>","","","","","","","",""
"html-keyboard-response","350","565446","0.0-15.0-0.19","5fb3f38909fc360164f7c98d","64b003020eef62ee308107cc","64b035e4da5b99d0e81bd3d9","null","null","<p style=""font-size: 60px; font-family: BACS"">hkRKBbM</p>","","","","","","","",""
"html-keyboard-response","351","566457","0.0-15.0-0.20","5fb3f38909fc360164f7c98d","64b003020eef62ee308107cc","64b035e4da5b99d0e81bd3d9","null","null","<p style=""font-size: 60px; font-family: BACS"">hkRKBbM</p>","","","","","","","",""
"html-keyboard-response","352","567469","0.0-15.0-0.21","5fb3f38909fc360164f7c98d","64b003020eef62ee308107cc","64b035e4da5b99d0e81bd3d9","null","null","<p style=""font-size: 60px; font-family: BACS"">hkRKBbM</p>","","","","","","","",""
"html-keyboard-response","353","568484","0.0-15.0-0.22","5fb3f38909fc360164f7c98d","64b003020eef62ee308107cc","64b035e4da5b99d0e81bd3d9","null","null","<p style=""font-size: 60px; font-family: BACS"">hkRKBbM</p>","","","","","","","",""
"html-keyboard-response","354","569487","0.0-15.0-0.23","5fb3f38909fc360164f7c98d","64b003020eef62ee308107cc","64b035e4da5b99d0e81bd3d9","null","null","<p style=""font-size: 60px; font-family: BACS"">hkRKBbM</p>","","","","","","","",""
"html-keyboard-response","355","570498","0.0-15.0-0.24","5fb3f38909fc360164f7c98d","64b003020eef62ee308107cc","64b035e4da5b99d0e81bd3d9","null","null","<p style=""font-size: 60px; font-family: BACS"">hkRKBbM</p>","","","","","","","",""
"html-keyboard-response","356","571511","0.0-15.0-0.25","5fb3f38909fc360164f7c98d","64b003020eef62ee308107cc","64b035e4da5b99d0e81bd3d9","null","null","<p style=""font-size: 60px; font-family: BACS"">hkRKBbM</p>","","","","","","","",""
"html-keyboard-response","357","572513","0.0-15.0-0.26","5fb3f38909fc360164f7c98d","64b003020eef62ee308107cc","64b035e4da5b99d0e81bd3d9","null","null","<p style=""font-size: 60px; font-family: BACS"">hkRKBbM</p>","","","","","","","",""
"html-keyboard-response","358","573515","0.0-15.0-0.27","5fb3f38909fc360164f7c98d","64b003020eef62ee308107cc","64b035e4da5b99d0e81bd3d9","null","null","<p style=""font-size: 60px; font-family: BACS"">hkRKBbM</p>","","","","","","","",""
"html-keyboard-response","359","574525","0.0-15.0-0.28","5fb3f38909fc360164f7c98d","64b003020eef62ee308107cc","64b035e4da5b99d0e81bd3d9","null","null","<p style=""font-size: 60px; font-family: BACS"">hkRKBbM</p>","","","","","","","",""
"html-keyboard-response","360","575530","0.0-15.0-0.29","5fb3f38909fc360164f7c98d","64b003020eef62ee308107cc","64b035e4da5b99d0e81bd3d9","null","null","<p style=""font-size: 60px; font-family: BACS"">hkRKBbM</p>","","","","","","","",""
"html-keyboard-response","361","576538","0.0-15.0-0.30","5fb3f38909fc360164f7c98d","64b003020eef62ee308107cc","64b035e4da5b99d0e81bd3d9","null","null","<p style=""font-size: 60px; font-family: BACS"">hkRKBbM</p>","","","","","","","",""
"html-keyboard-response","362","577547","0.0-15.0-0.31","5fb3f38909fc360164f7c98d","64b003020eef62ee308107cc","64b035e4da5b99d0e81bd3d9","null","null","<p style=""font-size: 60px; font-family: BACS"">hkRKBbM</p>","","","","","","","",""
"html-keyboard-response","363","578561","0.0-15.0-0.32","5fb3f38909fc360164f7c98d","64b003020eef62ee308107cc","64b035e4da5b99d0e81bd3d9","null","null","<p style=""font-size: 60px; font-family: BACS"">hkRKBbM</p>","","","","","","","",""
"html-keyboard-response","364","579577","0.0-15.0-0.33","5fb3f38909fc360164f7c98d","64b003020eef62ee308107cc","64b035e4da5b99d0e81bd3d9","null","null","<p style=""font-size: 60px; font-family: BACS"">hkRKBbM</p>","","","","","","","",""
"html-keyboard-response","365","580588","0.0-15.0-0.34","5fb3f38909fc360164f7c98d","64b003020eef62ee308107cc","64b035e4da5b99d0e81bd3d9","null","null","<p style=""font-size: 60px; font-family: BACS"">hkRKBbM</p>","","","","","","","",""
"html-keyboard-response","366","581596","0.0-15.0-0.35","5fb3f38909fc360164f7c98d","64b003020eef62ee308107cc","64b035e4da5b99d0e81bd3d9","null","null","<p style=""font-size: 60px; font-family: BACS"">hkRKBbM</p>","","","","","","","",""
"html-keyboard-response","367","582608","0.0-15.0-0.36","5fb3f38909fc360164f7c98d","64b003020eef62ee308107cc","64b035e4da5b99d0e81bd3d9","null","null","<p style=""font-size: 60px; font-family: BACS"">hkRKBbM</p>","","","","","","","",""
"html-keyboard-response","368","583620","0.0-15.0-0.37","5fb3f38909fc360164f7c98d","64b003020eef62ee308107cc","64b035e4da5b99d0e81bd3d9","null","null","<p style=""font-size: 60px; font-family: BACS"">hkRKBbM</p>","","","","","","","",""
"html-keyboard-response","369","584629","0.0-15.0-0.38","5fb3f38909fc360164f7c98d","64b003020eef62ee308107cc","64b035e4da5b99d0e81bd3d9","null","null","<p style=""font-size: 60px; font-family: BACS"">hkRKBbM</p>","","","","","","","",""
"html-keyboard-response","370","585644","0.0-15.0-0.39","5fb3f38909fc360164f7c98d","64b003020eef62ee308107cc","64b035e4da5b99d0e81bd3d9","null","null","<p style=""font-size: 60px; font-family: BACS"">hkRKBbM</p>","","","","","","","",""
"html-keyboard-response","371","586653","0.0-15.0-0.40","5fb3f38909fc360164f7c98d","64b003020eef62ee308107cc","64b035e4da5b99d0e81bd3d9","null","null","<p style=""font-size: 60px; font-family: BACS"">hkRKBbM</p>","","","","","","","",""
"html-keyboard-response","372","587667","0.0-15.0-0.41","5fb3f38909fc360164f7c98d","64b003020eef62ee308107cc","64b035e4da5b99d0e81bd3d9","null","null","<p style=""font-size: 60px; font-family: BACS"">hkRKBbM</p>","","","","","","","",""
"html-keyboard-response","373","588677","0.0-15.0-0.42","5fb3f38909fc360164f7c98d","64b003020eef62ee308107cc","64b035e4da5b99d0e81bd3d9","null","null","<p style=""font-size: 60px; font-family: BACS"">hkRKBbM</p>","","","","","","","",""
"html-keyboard-response","374","589680","0.0-15.0-0.43","5fb3f38909fc360164f7c98d","64b003020eef62ee308107cc","64b035e4da5b99d0e81bd3d9","null","null","<p style=""font-size: 60px; font-family: BACS"">hkRKBbM</p>","","","","","","","",""
"html-keyboard-response","375","590693","0.0-15.0-0.44","5fb3f38909fc360164f7c98d","64b003020eef62ee308107cc","64b035e4da5b99d0e81bd3d9","null","null","<p style=""font-size: 60px; font-family: BACS"">hkRKBbM</p>","","","","","","","",""
"html-keyboard-response","376","591705","0.0-15.0-0.45","5fb3f38909fc360164f7c98d","64b003020eef62ee308107cc","64b035e4da5b99d0e81bd3d9","null","null","<p style=""font-size: 60px; font-family: BACS"">hkRKBbM</p>","","","","","","","",""
"html-keyboard-response","377","592710","0.0-15.0-0.46","5fb3f38909fc360164f7c98d","64b003020eef62ee308107cc","64b035e4da5b99d0e81bd3d9","null","null","<p style=""font-size: 60px; font-family: BACS"">hkRKBbM</p>","","","","","","","",""
"html-keyboard-response","378","593717","0.0-15.0-0.47","5fb3f38909fc360164f7c98d","64b003020eef62ee308107cc","64b035e4da5b99d0e81bd3d9","null","null","<p style=""font-size: 60px; font-family: BACS"">hkRKBbM</p>","","","","","","","",""
"html-keyboard-response","379","594734","0.0-15.0-0.48","5fb3f38909fc360164f7c98d","64b003020eef62ee308107cc","64b035e4da5b99d0e81bd3d9","null","null","<p style=""font-size: 60px; font-family: BACS"">hkRKBbM</p>","","","","","","","",""
"html-keyboard-response","380","595745","0.0-15.0-0.49","5fb3f38909fc360164f7c98d","64b003020eef62ee308107cc","64b035e4da5b99d0e81bd3d9","null","null","<p style=""font-size: 60px; font-family: BACS"">hkRKBbM</p>","","","","","","","",""
"html-keyboard-response","381","596759","0.0-15.0-0.50","5fb3f38909fc360164f7c98d","64b003020eef62ee308107cc","64b035e4da5b99d0e81bd3d9","null","null","<p style=""font-size: 60px; font-family: BACS"">hkRKBbM</p>","","","","","","","",""
"html-keyboard-response","382","597771","0.0-15.0-0.51","5fb3f38909fc360164f7c98d","64b003020eef62ee308107cc","64b035e4da5b99d0e81bd3d9","null","null","<p style=""font-size: 60px; font-family: BACS"">hkRKBbM</p>","","","","","","","",""
"html-keyboard-response","383","598784","0.0-15.0-0.52","5fb3f38909fc360164f7c98d","64b003020eef62ee308107cc","64b035e4da5b99d0e81bd3d9","null","null","<p style=""font-size: 60px; font-family: BACS"">hkRKBbM</p>","","","","","","","",""
"html-keyboard-response","384","599793","0.0-15.0-0.53","5fb3f38909fc360164f7c98d","64b003020eef62ee308107cc","64b035e4da5b99d0e81bd3d9","null","null","<p style=""font-size: 60px; font-family: BACS"">hkRKBbM</p>","","","","","","","",""
"html-keyboard-response","385","600807","0.0-15.0-0.54","5fb3f38909fc360164f7c98d","64b003020eef62ee308107cc","64b035e4da5b99d0e81bd3d9","null","null","<p style=""font-size: 60px; font-family: BACS"">hkRKBbM</p>","","","","","","","",""
"html-keyboard-response","386","601811","0.0-15.0-0.55","5fb3f38909fc360164f7c98d","64b003020eef62ee308107cc","64b035e4da5b99d0e81bd3d9","null","null","<p style=""font-size: 60px; font-family: BACS"">hkRKBbM</p>","","","","","","","",""
"html-keyboard-response","387","602815","0.0-15.0-0.56","5fb3f38909fc360164f7c98d","64b003020eef62ee308107cc","64b035e4da5b99d0e81bd3d9","null","null","<p style=""font-size: 60px; font-family: BACS"">hkRKBbM</p>","","","","","","","",""
"html-keyboard-response","388","603816","0.0-15.0-0.57","5fb3f38909fc360164f7c98d","64b003020eef62ee308107cc","64b035e4da5b99d0e81bd3d9","null","null","<p style=""font-size: 60px; font-family: BACS"">hkRKBbM</p>","","","","","","","",""
"html-keyboard-response","389","604829","0.0-15.0-0.58","5fb3f38909fc360164f7c98d","64b003020eef62ee308107cc","64b035e4da5b99d0e81bd3d9","null","null","<p style=""font-size: 60px; font-family: BACS"">hkRKBbM</p>","","","","","","","",""
"html-keyboard-response","390","605844","0.0-15.0-0.59","5fb3f38909fc360164f7c98d","64b003020eef62ee308107cc","64b035e4da5b99d0e81bd3d9","null","null","<p style=""font-size: 60px; font-family: BACS"">hkRKBbM</p>","","","","","","","",""
"html-keyboard-response","391","606857","0.0-15.0-0.60","5fb3f38909fc360164f7c98d","64b003020eef62ee308107cc","64b035e4da5b99d0e81bd3d9","null","null","<p style=""font-size: 60px; font-family: BACS"">hkRKBbM</p>","","","","","","","",""
"html-keyboard-response","392","607867","0.0-15.0-0.61","5fb3f38909fc360164f7c98d","64b003020eef62ee308107cc","64b035e4da5b99d0e81bd3d9","null","null","<p style=""font-size: 60px; font-family: BACS"">hkRKBbM</p>","","","","","","","",""
"html-keyboard-response","393","608875","0.0-15.0-0.62","5fb3f38909fc360164f7c98d","64b003020eef62ee308107cc","64b035e4da5b99d0e81bd3d9","null","null","<p style=""font-size: 60px; font-family: BACS"">hkRKBbM</p>","","","","","","","",""
"html-keyboard-response","394","609883","0.0-15.0-0.63","5fb3f38909fc360164f7c98d","64b003020eef62ee308107cc","64b035e4da5b99d0e81bd3d9","null","null","<p style=""font-size: 60px; font-family: BACS"">hkRKBbM</p>","","","","","","","",""
"html-keyboard-response","395","610899","0.0-15.0-0.64","5fb3f38909fc360164f7c98d","64b003020eef62ee308107cc","64b035e4da5b99d0e81bd3d9","null","null","<p style=""font-size: 60px; font-family: BACS"">hkRKBbM</p>","","","","","","","",""
"html-keyboard-response","396","611911","0.0-15.0-0.65","5fb3f38909fc360164f7c98d","64b003020eef62ee308107cc","64b035e4da5b99d0e81bd3d9","null","null","<p style=""font-size: 60px; font-family: BACS"">hkRKBbM</p>","","","","","","","",""
"html-keyboard-response","397","612913","0.0-15.0-0.66","5fb3f38909fc360164f7c98d","64b003020eef62ee308107cc","64b035e4da5b99d0e81bd3d9","null","null","<p style=""font-size: 60px; font-family: BACS"">hkRKBbM</p>","","","","","","","",""
"html-keyboard-response","398","613927","0.0-15.0-0.67","5fb3f38909fc360164f7c98d","64b003020eef62ee308107cc","64b035e4da5b99d0e81bd3d9","null","null","<p style=""font-size: 60px; font-family: BACS"">hkRKBbM</p>","","","","","","","",""
"html-keyboard-response","399","614943","0.0-15.0-0.68","5fb3f38909fc360164f7c98d","64b003020eef62ee308107cc","64b035e4da5b99d0e81bd3d9","null","null","<p style=""font-size: 60px; font-family: BACS"">hkRKBbM</p>","","","","","","","",""
"html-keyboard-response","400","615956","0.0-15.0-0.69","5fb3f38909fc360164f7c98d","64b003020eef62ee308107cc","64b035e4da5b99d0e81bd3d9","null","null","<p style=""font-size: 60px; font-family: BACS"">hkRKBbM</p>","","","","","","","",""
"html-keyboard-response","401","616961","0.0-15.0-0.70","5fb3f38909fc360164f7c98d","64b003020eef62ee308107cc","64b035e4da5b99d0e81bd3d9","null","null","<p style=""font-size: 60px; font-family: BACS"">hkRKBbM</p>","","","","","","","",""
"html-keyboard-response","402","617977","0.0-15.0-0.71","5fb3f38909fc360164f7c98d","64b003020eef62ee308107cc","64b035e4da5b99d0e81bd3d9","null","null","<p style=""font-size: 60px; font-family: BACS"">hkRKBbM</p>","","","","","","","",""
