"trial_type","trial_index","time_elapsed","internal_node_id","subject_id","study_id","session_id","rt","response","stimulus","success","item","task","correct_response","testing_condition","correct","target","confound","name","view_history"
"pavlovia","0","3114","0.0-0.0","60d8873c18e520a7d5ae555f","64e77d7b61f440b60e28659d","64ec9d62348abeb2219a9c42","","","","","","","","","","","","",""
"survey-html-form","1","10547","0.0-1.0","60d8873c18e520a7d5ae555f","64e77d7b61f440b60e28659d","64ec9d62348abeb2219a9c42","7431","{""ID"":""60d8873c18e520a7d5ae555f""}","","","","","","","","","","",""
"html-keyboard-response","2","17073","0.0-2.0","60d8873c18e520a7d5ae555f","64e77d7b61f440b60e28659d","64ec9d62348abeb2219a9c42","6523"," ","<p style=""font-size: 15px;"">Before beginning, we ask that you read the consent information and confirm your agreement to participate in the experiment.</p>
      <p style=""font-size: 15px;""> We ask that you remember that this is a research project and that your participation is entirely voluntary. You can stop your participation at any time, without needing to provide any explanation. The study we're asking you to participate in aims at examining how readers process written words. You will be engaged in a session of apprximately 20 minutes, followed by a brief questionnaire. You will have the opportunity to take a few breaks during the experiment. You will be paid £4 for your participation, corresponding to a rate of £8/hour. While this experiment looks at cognitive faculties, this experiment doesn't constitute clinical proof of eventual pathologies.</p>
      <p style=""font-size: 15px;"">All of the information collected thanks to yours and others' participation will be held in a secure password-protected server, and will not be shared with anyone not authorised to view it. Your personal information will be kept with an arbitrary participant ID. Thanks to this data anonymity process, any researcher analysing the data won't be able to track the information back to a specific participant. Therefore, this process will make identifying you impossibile, even when results from the study will be published in scientific reviews, presented at congresses, or at any other public forum. More generally, the collected data will be treated in accordance with the laws on privacy and conformity to the Legislative Degree n. 196 ""Code regarding the protection of personal data"" of the 30th of June 2003 and to the European Regulation 2016/670 (General Data Protection Regulation - GDPR). The Data Protection Officer is Avv. Valentina Carollo, who can be contacted at the following email addresses: <a href=""mailto:dpo@sissa.it"">dpo@sissa.it</a> or <a href=""mailto:rpd@sissa.it"">rpd@sissa.it</a> - PEC: <a href=""mailto:protocollo@pec.sissa.it"">protocollo@pec.sissa.it</a>.</p>
      <p style=""font-size: 15px;""> Before expressing your consent to participate, we would like to remind you again that in case you need explanations on any aspect of the experimental procedure, the researcher is at your disposition (<a href=""mailto:aliebelt@sissa.it"">aliebelt@sissa.it</a>, <a href=""mailto:davide.crepaldi@sissa.it"">davide.crepaldi@sissa.it</a>).</p>
      <p style=""font-size: 15px;"">If you would like to download the informed consent form, you can do so here: <a href=""BASL-Informed_Consent.pdf"" download>informed consent form</a>.</p>
      <p style=""font-size: 15px;"">We ask that you press the spacebar to proceed to the consent section.</p>","","","","","","","","","",""
"survey-html-form","3","27057","0.0-3.0","60d8873c18e520a7d5ae555f","64e77d7b61f440b60e28659d","64ec9d62348abeb2219a9c42","9982","{""consent1"":""YES"",""consent2"":""YES"",""consent3"":""YES"",""consent4"":""YES"",""consent5"":""YES"",""consent6"":""YES""}","","","","","","","","","","",""
"fullscreen","4","31864","0.0-4.0","60d8873c18e520a7d5ae555f","64e77d7b61f440b60e28659d","64ec9d62348abeb2219a9c42","","","","true","","","","","","","","",""
"html-keyboard-response","5","48355","0.0-5.0","60d8873c18e520a7d5ae555f","64e77d7b61f440b60e28659d","64ec9d62348abeb2219a9c42","16489"," ","<p>Welcome, and thank you very much for your time!</p>
      <p>In this experiment, you'll be a language expert who's been asked to take a look at words that Earth has received in its first communication with aliens. Your task, in this first part of the experiment, is to pay close attention to the words you'll be shown; later, world leaders will ask you questions on what you saw. The words will be shown to you quite quickly; it seems that the aliens were in a hurry :-)</p>
      <p>Press the spacebar to continue.<p>","","","","","","","","","",""
"html-keyboard-response","6","53047","0.0-6.0","60d8873c18e520a7d5ae555f","64e77d7b61f440b60e28659d","64ec9d62348abeb2219a9c42","4690"," ","<p>Here is an example of the words you'll see:</p>
      <img src='esempio.png' height='400px'>
      <p>When you're ready to begin, press the spacebar.</p></div>","","","","","","","","","",""
"html-keyboard-response","7","54058","0.0-7.0-0.0","60d8873c18e520a7d5ae555f","64e77d7b61f440b60e28659d","64ec9d62348abeb2219a9c42","null","null","<p style=""font-size: 60px; font-family: BACS"">JNkalGc</p>","","","","","","","","","",""
"html-keyboard-response","8","55074","0.0-7.0-0.1","60d8873c18e520a7d5ae555f","64e77d7b61f440b60e28659d","64ec9d62348abeb2219a9c42","null","null","<p style=""font-size: 60px; font-family: BACS"">LGkAcrdY</p>","","","","","","","","","",""
"html-keyboard-response","9","56077","0.0-7.0-0.2","60d8873c18e520a7d5ae555f","64e77d7b61f440b60e28659d","64ec9d62348abeb2219a9c42","null","null","<p style=""font-size: 60px; font-family: BACS"">JNkaLUOk</p>","","","","","","","","","",""
"html-keyboard-response","10","57081","0.0-7.0-0.3","60d8873c18e520a7d5ae555f","64e77d7b61f440b60e28659d","64ec9d62348abeb2219a9c42","null","null","<p style=""font-size: 60px; font-family: BACS"">PdDTmCd</p>","","","","","","","","","",""
"html-keyboard-response","11","58099","0.0-7.0-0.4","60d8873c18e520a7d5ae555f","64e77d7b61f440b60e28659d","64ec9d62348abeb2219a9c42","null","null","<p style=""font-size: 60px; font-family: BACS"">kGamNYNu</p>","","","","","","","","","",""
"html-keyboard-response","12","59115","0.0-7.0-0.5","60d8873c18e520a7d5ae555f","64e77d7b61f440b60e28659d","64ec9d62348abeb2219a9c42","null","null","<p style=""font-size: 60px; font-family: BACS"">AdDbCmYA</p>","","","","","","","","","",""
"html-keyboard-response","13","60128","0.0-7.0-0.6","60d8873c18e520a7d5ae555f","64e77d7b61f440b60e28659d","64ec9d62348abeb2219a9c42","null","null","<p style=""font-size: 60px; font-family: BACS"">PEtEDlDT</p>","","","","","","","","","",""
"html-keyboard-response","14","61144","0.0-7.0-0.7","60d8873c18e520a7d5ae555f","64e77d7b61f440b60e28659d","64ec9d62348abeb2219a9c42","null","null","<p style=""font-size: 60px; font-family: BACS"">bRABtmCd</p>","","","","","","","","","",""
"html-keyboard-response","15","62159","0.0-7.0-0.8","60d8873c18e520a7d5ae555f","64e77d7b61f440b60e28659d","64ec9d62348abeb2219a9c42","null","null","<p style=""font-size: 60px; font-family: BACS"">kGamNLaA</p>","","","","","","","","","",""
"html-keyboard-response","16","63162","0.0-7.0-0.9","60d8873c18e520a7d5ae555f","64e77d7b61f440b60e28659d","64ec9d62348abeb2219a9c42","null","null","<p style=""font-size: 60px; font-family: BACS"">OZkbcrdY</p>","","","","","","","","","",""
"html-keyboard-response","17","64178","0.0-7.0-0.10","60d8873c18e520a7d5ae555f","64e77d7b61f440b60e28659d","64ec9d62348abeb2219a9c42","null","null","<p style=""font-size: 60px; font-family: BACS"">DcPTcmCd</p>","","","","","","","","","",""
"html-keyboard-response","18","65194","0.0-7.0-0.11","60d8873c18e520a7d5ae555f","64e77d7b61f440b60e28659d","64ec9d62348abeb2219a9c42","null","null","<p style=""font-size: 60px; font-family: BACS"">NvuGrLUOk</p>","","","","","","","","","",""
"html-keyboard-response","19","66205","0.0-7.0-0.12","60d8873c18e520a7d5ae555f","64e77d7b61f440b60e28659d","64ec9d62348abeb2219a9c42","null","null","<p style=""font-size: 60px; font-family: BACS"">rvUbLaA</p>","","","","","","","","","",""
"html-keyboard-response","20","67219","0.0-7.0-0.13","60d8873c18e520a7d5ae555f","64e77d7b61f440b60e28659d","64ec9d62348abeb2219a9c42","null","null","<p style=""font-size: 60px; font-family: BACS"">PDPhlDlDT</p>","","","","","","","","","",""
"html-keyboard-response","21","68221","0.0-7.0-0.14","60d8873c18e520a7d5ae555f","64e77d7b61f440b60e28659d","64ec9d62348abeb2219a9c42","null","null","<p style=""font-size: 60px; font-family: BACS"">NvuGrLaA</p>","","","","","","","","","",""
"html-keyboard-response","22","69223","0.0-7.0-0.15","60d8873c18e520a7d5ae555f","64e77d7b61f440b60e28659d","64ec9d62348abeb2219a9c42","null","null","<p style=""font-size: 60px; font-family: BACS"">PdDTkKE</p>","","","","","","","","","",""
"html-keyboard-response","23","70238","0.0-7.0-0.16","60d8873c18e520a7d5ae555f","64e77d7b61f440b60e28659d","64ec9d62348abeb2219a9c42","null","null","<p style=""font-size: 60px; font-family: BACS"">kRCkOCmYA</p>","","","","","","","","","",""
"html-keyboard-response","24","71252","0.0-7.0-0.17","60d8873c18e520a7d5ae555f","64e77d7b61f440b60e28659d","64ec9d62348abeb2219a9c42","null","null","<p style=""font-size: 60px; font-family: BACS"">kGamNcrdY</p>","","","","","","","","","",""
"html-keyboard-response","25","72267","0.0-7.0-0.18","60d8873c18e520a7d5ae555f","64e77d7b61f440b60e28659d","64ec9d62348abeb2219a9c42","null","null","<p style=""font-size: 60px; font-family: BACS"">NkUALaA</p>","","","","","","","","","",""
"html-keyboard-response","26","73268","0.0-7.0-0.19","60d8873c18e520a7d5ae555f","64e77d7b61f440b60e28659d","64ec9d62348abeb2219a9c42","null","null","<p style=""font-size: 60px; font-family: BACS"">DcPTcCmYA</p>","","","","","","","","","",""
"html-keyboard-response","27","74281","0.0-7.0-0.20","60d8873c18e520a7d5ae555f","64e77d7b61f440b60e28659d","64ec9d62348abeb2219a9c42","null","null","<p style=""font-size: 60px; font-family: BACS"">AdDbmhc</p>","","","","","","","","","",""
"html-keyboard-response","28","75297","0.0-7.0-0.21","60d8873c18e520a7d5ae555f","64e77d7b61f440b60e28659d","64ec9d62348abeb2219a9c42","null","null","<p style=""font-size: 60px; font-family: BACS"">OZkbLUOk</p>","","","","","","","","","",""
"html-keyboard-response","29","76299","0.0-7.0-0.22","60d8873c18e520a7d5ae555f","64e77d7b61f440b60e28659d","64ec9d62348abeb2219a9c42","null","null","<p style=""font-size: 60px; font-family: BACS"">PEtEkKE</p>","","","","","","","","","",""
"html-keyboard-response","30","77311","0.0-7.0-0.23","60d8873c18e520a7d5ae555f","64e77d7b61f440b60e28659d","64ec9d62348abeb2219a9c42","null","null","<p style=""font-size: 60px; font-family: BACS"">kRCkODlDT</p>","","","","","","","","","",""
"html-keyboard-response","31","78316","0.0-7.0-0.24","60d8873c18e520a7d5ae555f","64e77d7b61f440b60e28659d","64ec9d62348abeb2219a9c42","null","null","<p style=""font-size: 60px; font-family: BACS"">krUQYNu</p>","","","","","","","","","",""
"html-keyboard-response","32","79316","0.0-7.0-0.25","60d8873c18e520a7d5ae555f","64e77d7b61f440b60e28659d","64ec9d62348abeb2219a9c42","null","null","<p style=""font-size: 60px; font-family: BACS"">YadrLaA</p>","","","","","","","","","",""
"html-keyboard-response","33","80317","0.0-7.0-0.26","60d8873c18e520a7d5ae555f","64e77d7b61f440b60e28659d","64ec9d62348abeb2219a9c42","null","null","<p style=""font-size: 60px; font-family: BACS"">YlYcmCd</p>","","","","","","","","","",""
"html-keyboard-response","34","81329","0.0-7.0-0.27","60d8873c18e520a7d5ae555f","64e77d7b61f440b60e28659d","64ec9d62348abeb2219a9c42","null","null","<p style=""font-size: 60px; font-family: BACS"">NkUAYNu</p>","","","","","","","","","",""
"html-keyboard-response","35","82331","0.0-7.0-0.28","60d8873c18e520a7d5ae555f","64e77d7b61f440b60e28659d","64ec9d62348abeb2219a9c42","null","null","<p style=""font-size: 60px; font-family: BACS"">PdDTCmYA</p>","","","","","","","","","",""
"html-keyboard-response","36","83333","0.0-7.0-0.29","60d8873c18e520a7d5ae555f","64e77d7b61f440b60e28659d","64ec9d62348abeb2219a9c42","null","null","<p style=""font-size: 60px; font-family: BACS"">AdDbkKE</p>","","","","","","","","","",""
"html-keyboard-response","37","84346","0.0-7.0-0.30","60d8873c18e520a7d5ae555f","64e77d7b61f440b60e28659d","64ec9d62348abeb2219a9c42","null","null","<p style=""font-size: 60px; font-family: BACS"">YadrYNu</p>","","","","","","","","","",""
"html-keyboard-response","38","85363","0.0-7.0-0.31","60d8873c18e520a7d5ae555f","64e77d7b61f440b60e28659d","64ec9d62348abeb2219a9c42","null","null","<p style=""font-size: 60px; font-family: BACS"">hbmAmCd</p>","","","","","","","","","",""
"html-keyboard-response","39","86366","0.0-7.0-0.32","60d8873c18e520a7d5ae555f","64e77d7b61f440b60e28659d","64ec9d62348abeb2219a9c42","null","null","<p style=""font-size: 60px; font-family: BACS"">NvuGrYNu</p>","","","","","","","","","",""
"html-keyboard-response","40","87382","0.0-7.0-0.33","60d8873c18e520a7d5ae555f","64e77d7b61f440b60e28659d","64ec9d62348abeb2219a9c42","null","null","<p style=""font-size: 60px; font-family: BACS"">NaAQdcrdY</p>","","","","","","","","","",""
"html-keyboard-response","41","88396","0.0-7.0-0.34","60d8873c18e520a7d5ae555f","64e77d7b61f440b60e28659d","64ec9d62348abeb2219a9c42","null","null","<p style=""font-size: 60px; font-family: BACS"">LGkALaA</p>","","","","","","","","","",""
"html-keyboard-response","42","89405","0.0-7.0-0.35","60d8873c18e520a7d5ae555f","64e77d7b61f440b60e28659d","64ec9d62348abeb2219a9c42","null","null","<p style=""font-size: 60px; font-family: BACS"">YlYcDlDT</p>","","","","","","","","","",""
"html-keyboard-response","43","90421","0.0-7.0-0.36","60d8873c18e520a7d5ae555f","64e77d7b61f440b60e28659d","64ec9d62348abeb2219a9c42","null","null","<p style=""font-size: 60px; font-family: BACS"">LGkAYNu</p>","","","","","","","","","",""
"html-keyboard-response","44","91430","0.0-7.0-0.37","60d8873c18e520a7d5ae555f","64e77d7b61f440b60e28659d","64ec9d62348abeb2219a9c42","null","null","<p style=""font-size: 60px; font-family: BACS"">NkUALUOk</p>","","","","","","","","","",""
"html-keyboard-response","45","92433","0.0-7.0-0.38","60d8873c18e520a7d5ae555f","64e77d7b61f440b60e28659d","64ec9d62348abeb2219a9c42","null","null","<p style=""font-size: 60px; font-family: BACS"">krUQlGc</p>","","","","","","","","","",""
"html-keyboard-response","46","93449","0.0-7.0-0.39","60d8873c18e520a7d5ae555f","64e77d7b61f440b60e28659d","64ec9d62348abeb2219a9c42","null","null","<p style=""font-size: 60px; font-family: BACS"">bRABtkKE</p>","","","","","","","","","",""
"html-keyboard-response","47","94463","0.0-7.0-0.40","60d8873c18e520a7d5ae555f","64e77d7b61f440b60e28659d","64ec9d62348abeb2219a9c42","null","null","<p style=""font-size: 60px; font-family: BACS"">YlYcCmYA</p>","","","","","","","","","",""
"html-keyboard-response","48","95480","0.0-7.0-0.41","60d8873c18e520a7d5ae555f","64e77d7b61f440b60e28659d","64ec9d62348abeb2219a9c42","null","null","<p style=""font-size: 60px; font-family: BACS"">krUQLUOk</p>","","","","","","","","","",""
"html-keyboard-response","49","96497","0.0-7.0-0.42","60d8873c18e520a7d5ae555f","64e77d7b61f440b60e28659d","64ec9d62348abeb2219a9c42","null","null","<p style=""font-size: 60px; font-family: BACS"">DRPkYDlDT</p>","","","","","","","","","",""
"html-keyboard-response","50","97509","0.0-7.0-0.43","60d8873c18e520a7d5ae555f","64e77d7b61f440b60e28659d","64ec9d62348abeb2219a9c42","null","null","<p style=""font-size: 60px; font-family: BACS"">DcPTcmhc</p>","","","","","","","","","",""
"html-keyboard-response","51","98524","0.0-7.0-0.44","60d8873c18e520a7d5ae555f","64e77d7b61f440b60e28659d","64ec9d62348abeb2219a9c42","null","null","<p style=""font-size: 60px; font-family: BACS"">DRPkYCmYA</p>","","","","","","","","","",""
"html-keyboard-response","52","99534","0.0-7.0-0.45","60d8873c18e520a7d5ae555f","64e77d7b61f440b60e28659d","64ec9d62348abeb2219a9c42","null","null","<p style=""font-size: 60px; font-family: BACS"">krUQcrdY</p>","","","","","","","","","",""
"html-keyboard-response","53","100539","0.0-7.0-0.46","60d8873c18e520a7d5ae555f","64e77d7b61f440b60e28659d","64ec9d62348abeb2219a9c42","null","null","<p style=""font-size: 60px; font-family: BACS"">OZkblGc</p>","","","","","","","","","",""
"html-keyboard-response","54","101552","0.0-7.0-0.47","60d8873c18e520a7d5ae555f","64e77d7b61f440b60e28659d","64ec9d62348abeb2219a9c42","null","null","<p style=""font-size: 60px; font-family: BACS"">bRABtCmYA</p>","","","","","","","","","",""
"html-keyboard-response","55","102557","0.0-7.0-0.48","60d8873c18e520a7d5ae555f","64e77d7b61f440b60e28659d","64ec9d62348abeb2219a9c42","null","null","<p style=""font-size: 60px; font-family: BACS"">rvUblGc</p>","","","","","","","","","",""
"html-keyboard-response","56","103562","0.0-7.0-0.49","60d8873c18e520a7d5ae555f","64e77d7b61f440b60e28659d","64ec9d62348abeb2219a9c42","null","null","<p style=""font-size: 60px; font-family: BACS"">YlYckKE</p>","","","","","","","","","",""
"html-keyboard-response","57","104564","0.0-7.0-0.50","60d8873c18e520a7d5ae555f","64e77d7b61f440b60e28659d","64ec9d62348abeb2219a9c42","null","null","<p style=""font-size: 60px; font-family: BACS"">bRABtmhc</p>","","","","","","","","","",""
"html-keyboard-response","58","105577","0.0-7.0-0.51","60d8873c18e520a7d5ae555f","64e77d7b61f440b60e28659d","64ec9d62348abeb2219a9c42","null","null","<p style=""font-size: 60px; font-family: BACS"">NaAQdlGc</p>","","","","","","","","","",""
"html-keyboard-response","59","106580","0.0-7.0-0.52","60d8873c18e520a7d5ae555f","64e77d7b61f440b60e28659d","64ec9d62348abeb2219a9c42","null","null","<p style=""font-size: 60px; font-family: BACS"">JNkaYNu</p>","","","","","","","","","",""
"html-keyboard-response","60","107585","0.0-7.0-0.53","60d8873c18e520a7d5ae555f","64e77d7b61f440b60e28659d","64ec9d62348abeb2219a9c42","null","null","<p style=""font-size: 60px; font-family: BACS"">PdDTDlDT</p>","","","","","","","","","",""
"html-keyboard-response","61","108600","0.0-7.0-0.54","60d8873c18e520a7d5ae555f","64e77d7b61f440b60e28659d","64ec9d62348abeb2219a9c42","null","null","<p style=""font-size: 60px; font-family: BACS"">hbmACmYA</p>","","","","","","","","","",""
"html-keyboard-response","62","109604","0.0-7.0-0.55","60d8873c18e520a7d5ae555f","64e77d7b61f440b60e28659d","64ec9d62348abeb2219a9c42","null","null","<p style=""font-size: 60px; font-family: BACS"">YadrlGc</p>","","","","","","","","","",""
"html-keyboard-response","63","110615","0.0-7.0-0.56","60d8873c18e520a7d5ae555f","64e77d7b61f440b60e28659d","64ec9d62348abeb2219a9c42","null","null","<p style=""font-size: 60px; font-family: BACS"">kRCkOkKE</p>","","","","","","","","","",""
"html-keyboard-response","64","111623","0.0-7.0-0.57","60d8873c18e520a7d5ae555f","64e77d7b61f440b60e28659d","64ec9d62348abeb2219a9c42","null","null","<p style=""font-size: 60px; font-family: BACS"">NaAQdLaA</p>","","","","","","","","","",""
"html-keyboard-response","65","112636","0.0-7.0-0.58","60d8873c18e520a7d5ae555f","64e77d7b61f440b60e28659d","64ec9d62348abeb2219a9c42","null","null","<p style=""font-size: 60px; font-family: BACS"">NvuGrlGc</p>","","","","","","","","","",""
"html-keyboard-response","66","113650","0.0-7.0-0.59","60d8873c18e520a7d5ae555f","64e77d7b61f440b60e28659d","64ec9d62348abeb2219a9c42","null","null","<p style=""font-size: 60px; font-family: BACS"">PDPhlmCd</p>","","","","","","","","","",""
"html-keyboard-response","67","114663","0.0-7.0-0.60","60d8873c18e520a7d5ae555f","64e77d7b61f440b60e28659d","64ec9d62348abeb2219a9c42","null","null","<p style=""font-size: 60px; font-family: BACS"">rvUbcrdY</p>","","","","","","","","","",""
"html-keyboard-response","68","115678","0.0-7.0-0.61","60d8873c18e520a7d5ae555f","64e77d7b61f440b60e28659d","64ec9d62348abeb2219a9c42","null","null","<p style=""font-size: 60px; font-family: BACS"">PEtEmhc</p>","","","","","","","","","",""
"html-keyboard-response","69","116691","0.0-7.0-0.62","60d8873c18e520a7d5ae555f","64e77d7b61f440b60e28659d","64ec9d62348abeb2219a9c42","null","null","<p style=""font-size: 60px; font-family: BACS"">YadrcrdY</p>","","","","","","","","","",""
"html-keyboard-response","70","117697","0.0-7.0-0.63","60d8873c18e520a7d5ae555f","64e77d7b61f440b60e28659d","64ec9d62348abeb2219a9c42","null","null","<p style=""font-size: 60px; font-family: BACS"">DRPkYmCd</p>","","","","","","","","","",""
"html-keyboard-response","71","118703","0.0-7.0-0.64","60d8873c18e520a7d5ae555f","64e77d7b61f440b60e28659d","64ec9d62348abeb2219a9c42","null","null","<p style=""font-size: 60px; font-family: BACS"">PDPhlmhc</p>","","","","","","","","","",""
"html-keyboard-response","72","119705","0.0-7.0-0.65","60d8873c18e520a7d5ae555f","64e77d7b61f440b60e28659d","64ec9d62348abeb2219a9c42","null","null","<p style=""font-size: 60px; font-family: BACS"">OZkbLaA</p>","","","","","","","","","",""
"html-keyboard-response","73","120716","0.0-7.0-0.66","60d8873c18e520a7d5ae555f","64e77d7b61f440b60e28659d","64ec9d62348abeb2219a9c42","null","null","<p style=""font-size: 60px; font-family: BACS"">NaAQdLUOk</p>","","","","","","","","","",""
"html-keyboard-response","74","121718","0.0-7.0-0.67","60d8873c18e520a7d5ae555f","64e77d7b61f440b60e28659d","64ec9d62348abeb2219a9c42","null","null","<p style=""font-size: 60px; font-family: BACS"">kRCkOmhc</p>","","","","","","","","","",""
"html-keyboard-response","75","122721","0.0-7.0-0.68","60d8873c18e520a7d5ae555f","64e77d7b61f440b60e28659d","64ec9d62348abeb2219a9c42","null","null","<p style=""font-size: 60px; font-family: BACS"">rvUbYNu</p>","","","","","","","","","",""
"html-keyboard-response","76","123725","0.0-7.0-0.69","60d8873c18e520a7d5ae555f","64e77d7b61f440b60e28659d","64ec9d62348abeb2219a9c42","null","null","<p style=""font-size: 60px; font-family: BACS"">AdDbDlDT</p>","","","","","","","","","",""
"html-keyboard-response","77","124741","0.0-7.0-0.70","60d8873c18e520a7d5ae555f","64e77d7b61f440b60e28659d","64ec9d62348abeb2219a9c42","null","null","<p style=""font-size: 60px; font-family: BACS"">hbmAkKE</p>","","","","","","","","","",""
"html-keyboard-response","78","125756","0.0-7.0-0.71","60d8873c18e520a7d5ae555f","64e77d7b61f440b60e28659d","64ec9d62348abeb2219a9c42","null","null","<p style=""font-size: 60px; font-family: BACS"">LGkALUOk</p>","","","","","","","","","",""
"html-keyboard-response","79","126769","0.0-7.0-0.72","60d8873c18e520a7d5ae555f","64e77d7b61f440b60e28659d","64ec9d62348abeb2219a9c42","null","null","<p style=""font-size: 60px; font-family: BACS"">hbmAmhc</p>","","","","","","","","","",""
"html-keyboard-response","80","127784","0.0-7.0-0.73","60d8873c18e520a7d5ae555f","64e77d7b61f440b60e28659d","64ec9d62348abeb2219a9c42","null","null","<p style=""font-size: 60px; font-family: BACS"">DcPTcDlDT</p>","","","","","","","","","",""
"html-keyboard-response","81","128801","0.0-7.0-0.74","60d8873c18e520a7d5ae555f","64e77d7b61f440b60e28659d","64ec9d62348abeb2219a9c42","null","null","<p style=""font-size: 60px; font-family: BACS"">DRPkYmhc</p>","","","","","","","","","",""
"html-keyboard-response","82","129817","0.0-7.0-0.75","60d8873c18e520a7d5ae555f","64e77d7b61f440b60e28659d","64ec9d62348abeb2219a9c42","null","null","<p style=""font-size: 60px; font-family: BACS"">kGamNLUOk</p>","","","","","","","","","",""
"html-keyboard-response","83","130829","0.0-7.0-0.76","60d8873c18e520a7d5ae555f","64e77d7b61f440b60e28659d","64ec9d62348abeb2219a9c42","null","null","<p style=""font-size: 60px; font-family: BACS"">PEtEmCd</p>","","","","","","","","","",""
"html-keyboard-response","84","131845","0.0-7.0-0.77","60d8873c18e520a7d5ae555f","64e77d7b61f440b60e28659d","64ec9d62348abeb2219a9c42","null","null","<p style=""font-size: 60px; font-family: BACS"">JNkacrdY</p>","","","","","","","","","",""
"html-keyboard-response","85","132847","0.0-7.0-0.78","60d8873c18e520a7d5ae555f","64e77d7b61f440b60e28659d","64ec9d62348abeb2219a9c42","null","null","<p style=""font-size: 60px; font-family: BACS"">PDPhlkKE</p>","","","","","","","","","",""
"html-keyboard-response","86","133849","0.0-7.0-0.79","60d8873c18e520a7d5ae555f","64e77d7b61f440b60e28659d","64ec9d62348abeb2219a9c42","null","null","<p style=""font-size: 60px; font-family: BACS"">NkUAlGc</p>","","","","","","","","","",""
"html-keyboard-response","87","148684","0.0-8.0","60d8873c18e520a7d5ae555f","64e77d7b61f440b60e28659d","64ec9d62348abeb2219a9c42","14833"," ","<p>Great, you've seen the first block of words. You may now take a short break.</p>
      <p>Press the spacebar when you're ready to continue.</p>","","","","","","","","","",""
"html-keyboard-response","88","149685","0.0-9.0-0.0","60d8873c18e520a7d5ae555f","64e77d7b61f440b60e28659d","64ec9d62348abeb2219a9c42","null","null","<p style=""font-size: 60px; font-family: BACS"">JNkacrdY</p>","","","","","","","","","",""
"html-keyboard-response","89","150700","0.0-9.0-0.1","60d8873c18e520a7d5ae555f","64e77d7b61f440b60e28659d","64ec9d62348abeb2219a9c42","null","null","<p style=""font-size: 60px; font-family: BACS"">kRCkODlDT</p>","","","","","","","","","",""
"html-keyboard-response","90","151713","0.0-9.0-0.2","60d8873c18e520a7d5ae555f","64e77d7b61f440b60e28659d","64ec9d62348abeb2219a9c42","null","null","<p style=""font-size: 60px; font-family: BACS"">YadrcrdY</p>","","","","","","","","","",""
"html-keyboard-response","91","152723","0.0-9.0-0.3","60d8873c18e520a7d5ae555f","64e77d7b61f440b60e28659d","64ec9d62348abeb2219a9c42","null","null","<p style=""font-size: 60px; font-family: BACS"">YlYcDlDT</p>","","","","","","","","","",""
"html-keyboard-response","92","153739","0.0-9.0-0.4","60d8873c18e520a7d5ae555f","64e77d7b61f440b60e28659d","64ec9d62348abeb2219a9c42","null","null","<p style=""font-size: 60px; font-family: BACS"">krUQlGc</p>","","","","","","","","","",""
"html-keyboard-response","93","154742","0.0-9.0-0.5","60d8873c18e520a7d5ae555f","64e77d7b61f440b60e28659d","64ec9d62348abeb2219a9c42","null","null","<p style=""font-size: 60px; font-family: BACS"">JNkaLUOk</p>","","","","","","","","","",""
"html-keyboard-response","94","155755","0.0-9.0-0.6","60d8873c18e520a7d5ae555f","64e77d7b61f440b60e28659d","64ec9d62348abeb2219a9c42","null","null","<p style=""font-size: 60px; font-family: BACS"">NvuGrYNu</p>","","","","","","","","","",""
"html-keyboard-response","95","156757","0.0-9.0-0.7","60d8873c18e520a7d5ae555f","64e77d7b61f440b60e28659d","64ec9d62348abeb2219a9c42","null","null","<p style=""font-size: 60px; font-family: BACS"">hbmAmCd</p>","","","","","","","","","",""
"html-keyboard-response","96","157763","0.0-9.0-0.8","60d8873c18e520a7d5ae555f","64e77d7b61f440b60e28659d","64ec9d62348abeb2219a9c42","null","null","<p style=""font-size: 60px; font-family: BACS"">PEtEkKE</p>","","","","","","","","","",""
"html-keyboard-response","97","158780","0.0-9.0-0.9","60d8873c18e520a7d5ae555f","64e77d7b61f440b60e28659d","64ec9d62348abeb2219a9c42","null","null","<p style=""font-size: 60px; font-family: BACS"">krUQLUOk</p>","","","","","","","","","",""
"html-keyboard-response","98","159782","0.0-9.0-0.10","60d8873c18e520a7d5ae555f","64e77d7b61f440b60e28659d","64ec9d62348abeb2219a9c42","null","null","<p style=""font-size: 60px; font-family: BACS"">rvUblGc</p>","","","","","","","","","",""
"html-keyboard-response","99","160799","0.0-9.0-0.11","60d8873c18e520a7d5ae555f","64e77d7b61f440b60e28659d","64ec9d62348abeb2219a9c42","null","null","<p style=""font-size: 60px; font-family: BACS"">bRABtmCd</p>","","","","","","","","","",""
"html-keyboard-response","100","161805","0.0-9.0-0.12","60d8873c18e520a7d5ae555f","64e77d7b61f440b60e28659d","64ec9d62348abeb2219a9c42","null","null","<p style=""font-size: 60px; font-family: BACS"">kGamNYNu</p>","","","","","","","","","",""
"html-keyboard-response","101","162821","0.0-9.0-0.13","60d8873c18e520a7d5ae555f","64e77d7b61f440b60e28659d","64ec9d62348abeb2219a9c42","null","null","<p style=""font-size: 60px; font-family: BACS"">DRPkYCmYA</p>","","","","","","","","","",""
"html-keyboard-response","102","163837","0.0-9.0-0.14","60d8873c18e520a7d5ae555f","64e77d7b61f440b60e28659d","64ec9d62348abeb2219a9c42","null","null","<p style=""font-size: 60px; font-family: BACS"">krUQYNu</p>","","","","","","","","","",""
"html-keyboard-response","103","164843","0.0-9.0-0.15","60d8873c18e520a7d5ae555f","64e77d7b61f440b60e28659d","64ec9d62348abeb2219a9c42","null","null","<p style=""font-size: 60px; font-family: BACS"">hbmAmhc</p>","","","","","","","","","",""
"html-keyboard-response","104","165846","0.0-9.0-0.16","60d8873c18e520a7d5ae555f","64e77d7b61f440b60e28659d","64ec9d62348abeb2219a9c42","null","null","<p style=""font-size: 60px; font-family: BACS"">LGkAYNu</p>","","","","","","","","","",""
"html-keyboard-response","105","166863","0.0-9.0-0.17","60d8873c18e520a7d5ae555f","64e77d7b61f440b60e28659d","64ec9d62348abeb2219a9c42","null","null","<p style=""font-size: 60px; font-family: BACS"">NvuGrlGc</p>","","","","","","","","","",""
"html-keyboard-response","106","167866","0.0-9.0-0.18","60d8873c18e520a7d5ae555f","64e77d7b61f440b60e28659d","64ec9d62348abeb2219a9c42","null","null","<p style=""font-size: 60px; font-family: BACS"">LGkAcrdY</p>","","","","","","","","","",""
"html-keyboard-response","107","168868","0.0-9.0-0.19","60d8873c18e520a7d5ae555f","64e77d7b61f440b60e28659d","64ec9d62348abeb2219a9c42","null","null","<p style=""font-size: 60px; font-family: BACS"">YadrLaA</p>","","","","","","","","","",""
"html-keyboard-response","108","169884","0.0-9.0-0.20","60d8873c18e520a7d5ae555f","64e77d7b61f440b60e28659d","64ec9d62348abeb2219a9c42","null","null","<p style=""font-size: 60px; font-family: BACS"">NvuGrLUOk</p>","","","","","","","","","",""
"html-keyboard-response","109","170894","0.0-9.0-0.21","60d8873c18e520a7d5ae555f","64e77d7b61f440b60e28659d","64ec9d62348abeb2219a9c42","null","null","<p style=""font-size: 60px; font-family: BACS"">hbmAkKE</p>","","","","","","","","","",""
"html-keyboard-response","110","171908","0.0-9.0-0.22","60d8873c18e520a7d5ae555f","64e77d7b61f440b60e28659d","64ec9d62348abeb2219a9c42","null","null","<p style=""font-size: 60px; font-family: BACS"">PEtEDlDT</p>","","","","","","","","","",""
"html-keyboard-response","111","172909","0.0-9.0-0.23","60d8873c18e520a7d5ae555f","64e77d7b61f440b60e28659d","64ec9d62348abeb2219a9c42","null","null","<p style=""font-size: 60px; font-family: BACS"">YadrlGc</p>","","","","","","","","","",""
"html-keyboard-response","112","173922","0.0-9.0-0.24","60d8873c18e520a7d5ae555f","64e77d7b61f440b60e28659d","64ec9d62348abeb2219a9c42","null","null","<p style=""font-size: 60px; font-family: BACS"">hbmACmYA</p>","","","","","","","","","",""
"html-keyboard-response","113","174940","0.0-9.0-0.25","60d8873c18e520a7d5ae555f","64e77d7b61f440b60e28659d","64ec9d62348abeb2219a9c42","null","null","<p style=""font-size: 60px; font-family: BACS"">AdDbDlDT</p>","","","","","","","","","",""
"html-keyboard-response","114","175952","0.0-9.0-0.26","60d8873c18e520a7d5ae555f","64e77d7b61f440b60e28659d","64ec9d62348abeb2219a9c42","null","null","<p style=""font-size: 60px; font-family: BACS"">OZkbLUOk</p>","","","","","","","","","",""
"html-keyboard-response","115","176955","0.0-9.0-0.27","60d8873c18e520a7d5ae555f","64e77d7b61f440b60e28659d","64ec9d62348abeb2219a9c42","null","null","<p style=""font-size: 60px; font-family: BACS"">DRPkYmCd</p>","","","","","","","","","",""
"html-keyboard-response","116","177958","0.0-9.0-0.28","60d8873c18e520a7d5ae555f","64e77d7b61f440b60e28659d","64ec9d62348abeb2219a9c42","null","null","<p style=""font-size: 60px; font-family: BACS"">NkUALUOk</p>","","","","","","","","","",""
"html-keyboard-response","117","178972","0.0-9.0-0.29","60d8873c18e520a7d5ae555f","64e77d7b61f440b60e28659d","64ec9d62348abeb2219a9c42","null","null","<p style=""font-size: 60px; font-family: BACS"">bRABtCmYA</p>","","","","","","","","","",""
"html-keyboard-response","118","179973","0.0-9.0-0.30","60d8873c18e520a7d5ae555f","64e77d7b61f440b60e28659d","64ec9d62348abeb2219a9c42","null","null","<p style=""font-size: 60px; font-family: BACS"">OZkbcrdY</p>","","","","","","","","","",""
"html-keyboard-response","119","180975","0.0-9.0-0.31","60d8873c18e520a7d5ae555f","64e77d7b61f440b60e28659d","64ec9d62348abeb2219a9c42","null","null","<p style=""font-size: 60px; font-family: BACS"">PdDTCmYA</p>","","","","","","","","","",""
"html-keyboard-response","120","181991","0.0-9.0-0.32","60d8873c18e520a7d5ae555f","64e77d7b61f440b60e28659d","64ec9d62348abeb2219a9c42","null","null","<p style=""font-size: 60px; font-family: BACS"">rvUbYNu</p>","","","","","","","","","",""
"html-keyboard-response","121","182996","0.0-9.0-0.33","60d8873c18e520a7d5ae555f","64e77d7b61f440b60e28659d","64ec9d62348abeb2219a9c42","null","null","<p style=""font-size: 60px; font-family: BACS"">PDPhlDlDT</p>","","","","","","","","","",""
"html-keyboard-response","122","183999","0.0-9.0-0.34","60d8873c18e520a7d5ae555f","64e77d7b61f440b60e28659d","64ec9d62348abeb2219a9c42","null","null","<p style=""font-size: 60px; font-family: BACS"">JNkalGc</p>","","","","","","","","","",""
"html-keyboard-response","123","185004","0.0-9.0-0.35","60d8873c18e520a7d5ae555f","64e77d7b61f440b60e28659d","64ec9d62348abeb2219a9c42","null","null","<p style=""font-size: 60px; font-family: BACS"">YlYcCmYA</p>","","","","","","","","","",""
"html-keyboard-response","124","186016","0.0-9.0-0.36","60d8873c18e520a7d5ae555f","64e77d7b61f440b60e28659d","64ec9d62348abeb2219a9c42","null","null","<p style=""font-size: 60px; font-family: BACS"">PdDTkKE</p>","","","","","","","","","",""
"html-keyboard-response","125","187017","0.0-9.0-0.37","60d8873c18e520a7d5ae555f","64e77d7b61f440b60e28659d","64ec9d62348abeb2219a9c42","null","null","<p style=""font-size: 60px; font-family: BACS"">NvuGrLaA</p>","","","","","","","","","",""
"html-keyboard-response","126","188030","0.0-9.0-0.38","60d8873c18e520a7d5ae555f","64e77d7b61f440b60e28659d","64ec9d62348abeb2219a9c42","null","null","<p style=""font-size: 60px; font-family: BACS"">DcPTcmhc</p>","","","","","","","","","",""
"html-keyboard-response","127","189033","0.0-9.0-0.39","60d8873c18e520a7d5ae555f","64e77d7b61f440b60e28659d","64ec9d62348abeb2219a9c42","null","null","<p style=""font-size: 60px; font-family: BACS"">kGamNLUOk</p>","","","","","","","","","",""
"html-keyboard-response","128","190050","0.0-9.0-0.40","60d8873c18e520a7d5ae555f","64e77d7b61f440b60e28659d","64ec9d62348abeb2219a9c42","null","null","<p style=""font-size: 60px; font-family: BACS"">OZkblGc</p>","","","","","","","","","",""
"html-keyboard-response","129","191065","0.0-9.0-0.41","60d8873c18e520a7d5ae555f","64e77d7b61f440b60e28659d","64ec9d62348abeb2219a9c42","null","null","<p style=""font-size: 60px; font-family: BACS"">kRCkOCmYA</p>","","","","","","","","","",""
"html-keyboard-response","130","192077","0.0-9.0-0.42","60d8873c18e520a7d5ae555f","64e77d7b61f440b60e28659d","64ec9d62348abeb2219a9c42","null","null","<p style=""font-size: 60px; font-family: BACS"">JNkaYNu</p>","","","","","","","","","",""
"html-keyboard-response","131","193083","0.0-9.0-0.43","60d8873c18e520a7d5ae555f","64e77d7b61f440b60e28659d","64ec9d62348abeb2219a9c42","null","null","<p style=""font-size: 60px; font-family: BACS"">NaAQdlGc</p>","","","","","","","","","",""
"html-keyboard-response","132","194097","0.0-9.0-0.44","60d8873c18e520a7d5ae555f","64e77d7b61f440b60e28659d","64ec9d62348abeb2219a9c42","null","null","<p style=""font-size: 60px; font-family: BACS"">kRCkOmhc</p>","","","","","","","","","",""
"html-keyboard-response","133","195108","0.0-9.0-0.45","60d8873c18e520a7d5ae555f","64e77d7b61f440b60e28659d","64ec9d62348abeb2219a9c42","null","null","<p style=""font-size: 60px; font-family: BACS"">LGkALUOk</p>","","","","","","","","","",""
"html-keyboard-response","134","196111","0.0-9.0-0.46","60d8873c18e520a7d5ae555f","64e77d7b61f440b60e28659d","64ec9d62348abeb2219a9c42","null","null","<p style=""font-size: 60px; font-family: BACS"">krUQcrdY</p>","","","","","","","","","",""
"html-keyboard-response","135","197125","0.0-9.0-0.47","60d8873c18e520a7d5ae555f","64e77d7b61f440b60e28659d","64ec9d62348abeb2219a9c42","null","null","<p style=""font-size: 60px; font-family: BACS"">DcPTcDlDT</p>","","","","","","","","","",""
"html-keyboard-response","136","198139","0.0-9.0-0.48","60d8873c18e520a7d5ae555f","64e77d7b61f440b60e28659d","64ec9d62348abeb2219a9c42","null","null","<p style=""font-size: 60px; font-family: BACS"">NaAQdLaA</p>","","","","","","","","","",""
"html-keyboard-response","137","199142","0.0-9.0-0.49","60d8873c18e520a7d5ae555f","64e77d7b61f440b60e28659d","64ec9d62348abeb2219a9c42","null","null","<p style=""font-size: 60px; font-family: BACS"">PEtEmCd</p>","","","","","","","","","",""
"html-keyboard-response","138","200144","0.0-9.0-0.50","60d8873c18e520a7d5ae555f","64e77d7b61f440b60e28659d","64ec9d62348abeb2219a9c42","null","null","<p style=""font-size: 60px; font-family: BACS"">kRCkOkKE</p>","","","","","","","","","",""
"html-keyboard-response","139","201160","0.0-9.0-0.51","60d8873c18e520a7d5ae555f","64e77d7b61f440b60e28659d","64ec9d62348abeb2219a9c42","null","null","<p style=""font-size: 60px; font-family: BACS"">rvUbLaA</p>","","","","","","","","","",""
"html-keyboard-response","140","202176","0.0-9.0-0.52","60d8873c18e520a7d5ae555f","64e77d7b61f440b60e28659d","64ec9d62348abeb2219a9c42","null","null","<p style=""font-size: 60px; font-family: BACS"">NaAQdLUOk</p>","","","","","","","","","",""
"html-keyboard-response","141","203181","0.0-9.0-0.53","60d8873c18e520a7d5ae555f","64e77d7b61f440b60e28659d","64ec9d62348abeb2219a9c42","null","null","<p style=""font-size: 60px; font-family: BACS"">DcPTcCmYA</p>","","","","","","","","","",""
"html-keyboard-response","142","204185","0.0-9.0-0.54","60d8873c18e520a7d5ae555f","64e77d7b61f440b60e28659d","64ec9d62348abeb2219a9c42","null","null","<p style=""font-size: 60px; font-family: BACS"">PDPhlmCd</p>","","","","","","","","","",""
"html-keyboard-response","143","205202","0.0-9.0-0.55","60d8873c18e520a7d5ae555f","64e77d7b61f440b60e28659d","64ec9d62348abeb2219a9c42","null","null","<p style=""font-size: 60px; font-family: BACS"">kGamNcrdY</p>","","","","","","","","","",""
"html-keyboard-response","144","206211","0.0-9.0-0.56","60d8873c18e520a7d5ae555f","64e77d7b61f440b60e28659d","64ec9d62348abeb2219a9c42","null","null","<p style=""font-size: 60px; font-family: BACS"">PEtEmhc</p>","","","","","","","","","",""
"html-keyboard-response","145","207220","0.0-9.0-0.57","60d8873c18e520a7d5ae555f","64e77d7b61f440b60e28659d","64ec9d62348abeb2219a9c42","null","null","<p style=""font-size: 60px; font-family: BACS"">PdDTmCd</p>","","","","","","","","","",""
"html-keyboard-response","146","208234","0.0-9.0-0.58","60d8873c18e520a7d5ae555f","64e77d7b61f440b60e28659d","64ec9d62348abeb2219a9c42","null","null","<p style=""font-size: 60px; font-family: BACS"">NkUALaA</p>","","","","","","","","","",""
"html-keyboard-response","147","209238","0.0-9.0-0.59","60d8873c18e520a7d5ae555f","64e77d7b61f440b60e28659d","64ec9d62348abeb2219a9c42","null","null","<p style=""font-size: 60px; font-family: BACS"">AdDbkKE</p>","","","","","","","","","",""
"html-keyboard-response","148","210253","0.0-9.0-0.60","60d8873c18e520a7d5ae555f","64e77d7b61f440b60e28659d","64ec9d62348abeb2219a9c42","null","null","<p style=""font-size: 60px; font-family: BACS"">bRABtmhc</p>","","","","","","","","","",""
"html-keyboard-response","149","211256","0.0-9.0-0.61","60d8873c18e520a7d5ae555f","64e77d7b61f440b60e28659d","64ec9d62348abeb2219a9c42","null","null","<p style=""font-size: 60px; font-family: BACS"">DRPkYDlDT</p>","","","","","","","","","",""
"html-keyboard-response","150","212269","0.0-9.0-0.62","60d8873c18e520a7d5ae555f","64e77d7b61f440b60e28659d","64ec9d62348abeb2219a9c42","null","null","<p style=""font-size: 60px; font-family: BACS"">kGamNLaA</p>","","","","","","","","","",""
"html-keyboard-response","151","213283","0.0-9.0-0.63","60d8873c18e520a7d5ae555f","64e77d7b61f440b60e28659d","64ec9d62348abeb2219a9c42","null","null","<p style=""font-size: 60px; font-family: BACS"">rvUbcrdY</p>","","","","","","","","","",""
"html-keyboard-response","152","214286","0.0-9.0-0.64","60d8873c18e520a7d5ae555f","64e77d7b61f440b60e28659d","64ec9d62348abeb2219a9c42","null","null","<p style=""font-size: 60px; font-family: BACS"">PdDTDlDT</p>","","","","","","","","","",""
"html-keyboard-response","153","215293","0.0-9.0-0.65","60d8873c18e520a7d5ae555f","64e77d7b61f440b60e28659d","64ec9d62348abeb2219a9c42","null","null","<p style=""font-size: 60px; font-family: BACS"">YlYckKE</p>","","","","","","","","","",""
"html-keyboard-response","154","216304","0.0-9.0-0.66","60d8873c18e520a7d5ae555f","64e77d7b61f440b60e28659d","64ec9d62348abeb2219a9c42","null","null","<p style=""font-size: 60px; font-family: BACS"">YadrYNu</p>","","","","","","","","","",""
"html-keyboard-response","155","217321","0.0-9.0-0.67","60d8873c18e520a7d5ae555f","64e77d7b61f440b60e28659d","64ec9d62348abeb2219a9c42","null","null","<p style=""font-size: 60px; font-family: BACS"">OZkbLaA</p>","","","","","","","","","",""
"html-keyboard-response","156","218337","0.0-9.0-0.68","60d8873c18e520a7d5ae555f","64e77d7b61f440b60e28659d","64ec9d62348abeb2219a9c42","null","null","<p style=""font-size: 60px; font-family: BACS"">NkUAlGc</p>","","","","","","","","","",""
"html-keyboard-response","157","219339","0.0-9.0-0.69","60d8873c18e520a7d5ae555f","64e77d7b61f440b60e28659d","64ec9d62348abeb2219a9c42","null","null","<p style=""font-size: 60px; font-family: BACS"">DcPTcmCd</p>","","","","","","","","","",""
"html-keyboard-response","158","220356","0.0-9.0-0.70","60d8873c18e520a7d5ae555f","64e77d7b61f440b60e28659d","64ec9d62348abeb2219a9c42","null","null","<p style=""font-size: 60px; font-family: BACS"">DRPkYmhc</p>","","","","","","","","","",""
"html-keyboard-response","159","221372","0.0-9.0-0.71","60d8873c18e520a7d5ae555f","64e77d7b61f440b60e28659d","64ec9d62348abeb2219a9c42","null","null","<p style=""font-size: 60px; font-family: BACS"">AdDbCmYA</p>","","","","","","","","","",""
"html-keyboard-response","160","222384","0.0-9.0-0.72","60d8873c18e520a7d5ae555f","64e77d7b61f440b60e28659d","64ec9d62348abeb2219a9c42","null","null","<p style=""font-size: 60px; font-family: BACS"">bRABtkKE</p>","","","","","","","","","",""
"html-keyboard-response","161","223399","0.0-9.0-0.73","60d8873c18e520a7d5ae555f","64e77d7b61f440b60e28659d","64ec9d62348abeb2219a9c42","null","null","<p style=""font-size: 60px; font-family: BACS"">AdDbmhc</p>","","","","","","","","","",""
"html-keyboard-response","162","224411","0.0-9.0-0.74","60d8873c18e520a7d5ae555f","64e77d7b61f440b60e28659d","64ec9d62348abeb2219a9c42","null","null","<p style=""font-size: 60px; font-family: BACS"">NaAQdcrdY</p>","","","","","","","","","",""
"html-keyboard-response","163","225413","0.0-9.0-0.75","60d8873c18e520a7d5ae555f","64e77d7b61f440b60e28659d","64ec9d62348abeb2219a9c42","null","null","<p style=""font-size: 60px; font-family: BACS"">YlYcmCd</p>","","","","","","","","","",""
"html-keyboard-response","164","226428","0.0-9.0-0.76","60d8873c18e520a7d5ae555f","64e77d7b61f440b60e28659d","64ec9d62348abeb2219a9c42","null","null","<p style=""font-size: 60px; font-family: BACS"">NkUAYNu</p>","","","","","","","","","",""
"html-keyboard-response","165","227444","0.0-9.0-0.77","60d8873c18e520a7d5ae555f","64e77d7b61f440b60e28659d","64ec9d62348abeb2219a9c42","null","null","<p style=""font-size: 60px; font-family: BACS"">PDPhlkKE</p>","","","","","","","","","",""
"html-keyboard-response","166","228457","0.0-9.0-0.78","60d8873c18e520a7d5ae555f","64e77d7b61f440b60e28659d","64ec9d62348abeb2219a9c42","null","null","<p style=""font-size: 60px; font-family: BACS"">LGkALaA</p>","","","","","","","","","",""
"html-keyboard-response","167","229471","0.0-9.0-0.79","60d8873c18e520a7d5ae555f","64e77d7b61f440b60e28659d","64ec9d62348abeb2219a9c42","null","null","<p style=""font-size: 60px; font-family: BACS"">PDPhlmhc</p>","","","","","","","","","",""
"html-keyboard-response","168","233071","0.0-10.0","60d8873c18e520a7d5ae555f","64e77d7b61f440b60e28659d","64ec9d62348abeb2219a9c42","3599"," ","<p>Great, you've seen the second block of words. You may now take a short break.</p>
      <p>Press the spacebar when you're ready to continue.</p>","","","","","","","","","",""
"html-keyboard-response","169","234079","0.0-11.0-0.0","60d8873c18e520a7d5ae555f","64e77d7b61f440b60e28659d","64ec9d62348abeb2219a9c42","null","null","<p style=""font-size: 60px; font-family: BACS"">AdDbmhc</p>","","","","","","","","","",""
"html-keyboard-response","170","235095","0.0-11.0-0.1","60d8873c18e520a7d5ae555f","64e77d7b61f440b60e28659d","64ec9d62348abeb2219a9c42","null","null","<p style=""font-size: 60px; font-family: BACS"">kGamNYNu</p>","","","","","","","","","",""
"html-keyboard-response","171","236096","0.0-11.0-0.2","60d8873c18e520a7d5ae555f","64e77d7b61f440b60e28659d","64ec9d62348abeb2219a9c42","null","null","<p style=""font-size: 60px; font-family: BACS"">YadrcrdY</p>","","","","","","","","","",""
"html-keyboard-response","172","237100","0.0-11.0-0.3","60d8873c18e520a7d5ae555f","64e77d7b61f440b60e28659d","64ec9d62348abeb2219a9c42","null","null","<p style=""font-size: 60px; font-family: BACS"">AdDbkKE</p>","","","","","","","","","",""
"html-keyboard-response","173","238115","0.0-11.0-0.4","60d8873c18e520a7d5ae555f","64e77d7b61f440b60e28659d","64ec9d62348abeb2219a9c42","null","null","<p style=""font-size: 60px; font-family: BACS"">OZkbcrdY</p>","","","","","","","","","",""
"html-keyboard-response","174","239117","0.0-11.0-0.5","60d8873c18e520a7d5ae555f","64e77d7b61f440b60e28659d","64ec9d62348abeb2219a9c42","null","null","<p style=""font-size: 60px; font-family: BACS"">rvUbYNu</p>","","","","","","","","","",""
"html-keyboard-response","175","240125","0.0-11.0-0.6","60d8873c18e520a7d5ae555f","64e77d7b61f440b60e28659d","64ec9d62348abeb2219a9c42","null","null","<p style=""font-size: 60px; font-family: BACS"">AdDbCmYA</p>","","","","","","","","","",""
"html-keyboard-response","176","241141","0.0-11.0-0.7","60d8873c18e520a7d5ae555f","64e77d7b61f440b60e28659d","64ec9d62348abeb2219a9c42","null","null","<p style=""font-size: 60px; font-family: BACS"">krUQYNu</p>","","","","","","","","","",""
"html-keyboard-response","177","242156","0.0-11.0-0.8","60d8873c18e520a7d5ae555f","64e77d7b61f440b60e28659d","64ec9d62348abeb2219a9c42","null","null","<p style=""font-size: 60px; font-family: BACS"">kRCkODlDT</p>","","","","","","","","","",""
"html-keyboard-response","178","243164","0.0-11.0-0.9","60d8873c18e520a7d5ae555f","64e77d7b61f440b60e28659d","64ec9d62348abeb2219a9c42","null","null","<p style=""font-size: 60px; font-family: BACS"">YlYcmCd</p>","","","","","","","","","",""
"html-keyboard-response","179","244167","0.0-11.0-0.10","60d8873c18e520a7d5ae555f","64e77d7b61f440b60e28659d","64ec9d62348abeb2219a9c42","null","null","<p style=""font-size: 60px; font-family: BACS"">YadrLaA</p>","","","","","","","","","",""
"html-keyboard-response","180","245169","0.0-11.0-0.11","60d8873c18e520a7d5ae555f","64e77d7b61f440b60e28659d","64ec9d62348abeb2219a9c42","null","null","<p style=""font-size: 60px; font-family: BACS"">NvuGrLUOk</p>","","","","","","","","","",""
"html-keyboard-response","181","246181","0.0-11.0-0.12","60d8873c18e520a7d5ae555f","64e77d7b61f440b60e28659d","64ec9d62348abeb2219a9c42","null","null","<p style=""font-size: 60px; font-family: BACS"">PdDTmCd</p>","","","","","","","","","",""
"html-keyboard-response","182","247184","0.0-11.0-0.13","60d8873c18e520a7d5ae555f","64e77d7b61f440b60e28659d","64ec9d62348abeb2219a9c42","null","null","<p style=""font-size: 60px; font-family: BACS"">kRCkOmhc</p>","","","","","","","","","",""
"html-keyboard-response","183","248192","0.0-11.0-0.14","60d8873c18e520a7d5ae555f","64e77d7b61f440b60e28659d","64ec9d62348abeb2219a9c42","null","null","<p style=""font-size: 60px; font-family: BACS"">krUQlGc</p>","","","","","","","","","",""
"html-keyboard-response","184","249196","0.0-11.0-0.15","60d8873c18e520a7d5ae555f","64e77d7b61f440b60e28659d","64ec9d62348abeb2219a9c42","null","null","<p style=""font-size: 60px; font-family: BACS"">DRPkYmCd</p>","","","","","","","","","",""
"html-keyboard-response","185","250198","0.0-11.0-0.16","60d8873c18e520a7d5ae555f","64e77d7b61f440b60e28659d","64ec9d62348abeb2219a9c42","null","null","<p style=""font-size: 60px; font-family: BACS"">JNkaLUOk</p>","","","","","","","","","",""
"html-keyboard-response","186","251200","0.0-11.0-0.17","60d8873c18e520a7d5ae555f","64e77d7b61f440b60e28659d","64ec9d62348abeb2219a9c42","null","null","<p style=""font-size: 60px; font-family: BACS"">YadrlGc</p>","","","","","","","","","",""
"html-keyboard-response","187","252207","0.0-11.0-0.18","60d8873c18e520a7d5ae555f","64e77d7b61f440b60e28659d","64ec9d62348abeb2219a9c42","null","null","<p style=""font-size: 60px; font-family: BACS"">PDPhlmCd</p>","","","","","","","","","",""
"html-keyboard-response","188","253214","0.0-11.0-0.19","60d8873c18e520a7d5ae555f","64e77d7b61f440b60e28659d","64ec9d62348abeb2219a9c42","null","null","<p style=""font-size: 60px; font-family: BACS"">NkUALaA</p>","","","","","","","","","",""
"html-keyboard-response","189","254217","0.0-11.0-0.20","60d8873c18e520a7d5ae555f","64e77d7b61f440b60e28659d","64ec9d62348abeb2219a9c42","null","null","<p style=""font-size: 60px; font-family: BACS"">JNkacrdY</p>","","","","","","","","","",""
"html-keyboard-response","190","255218","0.0-11.0-0.21","60d8873c18e520a7d5ae555f","64e77d7b61f440b60e28659d","64ec9d62348abeb2219a9c42","null","null","<p style=""font-size: 60px; font-family: BACS"">PEtEDlDT</p>","","","","","","","","","",""
"html-keyboard-response","191","256222","0.0-11.0-0.22","60d8873c18e520a7d5ae555f","64e77d7b61f440b60e28659d","64ec9d62348abeb2219a9c42","null","null","<p style=""font-size: 60px; font-family: BACS"">NkUAYNu</p>","","","","","","","","","",""
"html-keyboard-response","192","257239","0.0-11.0-0.23","60d8873c18e520a7d5ae555f","64e77d7b61f440b60e28659d","64ec9d62348abeb2219a9c42","null","null","<p style=""font-size: 60px; font-family: BACS"">hbmAkKE</p>","","","","","","","","","",""
"html-keyboard-response","193","258241","0.0-11.0-0.24","60d8873c18e520a7d5ae555f","64e77d7b61f440b60e28659d","64ec9d62348abeb2219a9c42","null","null","<p style=""font-size: 60px; font-family: BACS"">DcPTcmCd</p>","","","","","","","","","",""
"html-keyboard-response","194","259244","0.0-11.0-0.25","60d8873c18e520a7d5ae555f","64e77d7b61f440b60e28659d","64ec9d62348abeb2219a9c42","null","null","<p style=""font-size: 60px; font-family: BACS"">rvUbLaA</p>","","","","","","","","","",""
"html-keyboard-response","195","260250","0.0-11.0-0.26","60d8873c18e520a7d5ae555f","64e77d7b61f440b60e28659d","64ec9d62348abeb2219a9c42","null","null","<p style=""font-size: 60px; font-family: BACS"">krUQLUOk</p>","","","","","","","","","",""
"html-keyboard-response","196","261266","0.0-11.0-0.27","60d8873c18e520a7d5ae555f","64e77d7b61f440b60e28659d","64ec9d62348abeb2219a9c42","null","null","<p style=""font-size: 60px; font-family: BACS"">PEtEmhc</p>","","","","","","","","","",""
"html-keyboard-response","197","262280","0.0-11.0-0.28","60d8873c18e520a7d5ae555f","64e77d7b61f440b60e28659d","64ec9d62348abeb2219a9c42","null","null","<p style=""font-size: 60px; font-family: BACS"">NvuGrLaA</p>","","","","","","","","","",""
"html-keyboard-response","198","263292","0.0-11.0-0.29","60d8873c18e520a7d5ae555f","64e77d7b61f440b60e28659d","64ec9d62348abeb2219a9c42","null","null","<p style=""font-size: 60px; font-family: BACS"">NaAQdcrdY</p>","","","","","","","","","",""
"html-keyboard-response","199","264295","0.0-11.0-0.30","60d8873c18e520a7d5ae555f","64e77d7b61f440b60e28659d","64ec9d62348abeb2219a9c42","null","null","<p style=""font-size: 60px; font-family: BACS"">LGkALUOk</p>","","","","","","","","","",""
"html-keyboard-response","200","265298","0.0-11.0-0.31","60d8873c18e520a7d5ae555f","64e77d7b61f440b60e28659d","64ec9d62348abeb2219a9c42","null","null","<p style=""font-size: 60px; font-family: BACS"">bRABtmCd</p>","","","","","","","","","",""
"html-keyboard-response","201","266312","0.0-11.0-0.32","60d8873c18e520a7d5ae555f","64e77d7b61f440b60e28659d","64ec9d62348abeb2219a9c42","null","null","<p style=""font-size: 60px; font-family: BACS"">DRPkYCmYA</p>","","","","","","","","","",""
"html-keyboard-response","202","267323","0.0-11.0-0.33","60d8873c18e520a7d5ae555f","64e77d7b61f440b60e28659d","64ec9d62348abeb2219a9c42","null","null","<p style=""font-size: 60px; font-family: BACS"">NaAQdLUOk</p>","","","","","","","","","",""
"html-keyboard-response","203","268340","0.0-11.0-0.34","60d8873c18e520a7d5ae555f","64e77d7b61f440b60e28659d","64ec9d62348abeb2219a9c42","null","null","<p style=""font-size: 60px; font-family: BACS"">PdDTCmYA</p>","","","","","","","","","",""
"html-keyboard-response","204","269348","0.0-11.0-0.35","60d8873c18e520a7d5ae555f","64e77d7b61f440b60e28659d","64ec9d62348abeb2219a9c42","null","null","<p style=""font-size: 60px; font-family: BACS"">LGkAYNu</p>","","","","","","","","","",""
"html-keyboard-response","205","270357","0.0-11.0-0.36","60d8873c18e520a7d5ae555f","64e77d7b61f440b60e28659d","64ec9d62348abeb2219a9c42","null","null","<p style=""font-size: 60px; font-family: BACS"">AdDbDlDT</p>","","","","","","","","","",""
"html-keyboard-response","206","271372","0.0-11.0-0.37","60d8873c18e520a7d5ae555f","64e77d7b61f440b60e28659d","64ec9d62348abeb2219a9c42","null","null","<p style=""font-size: 60px; font-family: BACS"">bRABtkKE</p>","","","","","","","","","",""
"html-keyboard-response","207","272373","0.0-11.0-0.38","60d8873c18e520a7d5ae555f","64e77d7b61f440b60e28659d","64ec9d62348abeb2219a9c42","null","null","<p style=""font-size: 60px; font-family: BACS"">OZkbLUOk</p>","","","","","","","","","",""
"html-keyboard-response","208","273376","0.0-11.0-0.39","60d8873c18e520a7d5ae555f","64e77d7b61f440b60e28659d","64ec9d62348abeb2219a9c42","null","null","<p style=""font-size: 60px; font-family: BACS"">hbmACmYA</p>","","","","","","","","","",""
"html-keyboard-response","209","274389","0.0-11.0-0.40","60d8873c18e520a7d5ae555f","64e77d7b61f440b60e28659d","64ec9d62348abeb2219a9c42","null","null","<p style=""font-size: 60px; font-family: BACS"">NaAQdLaA</p>","","","","","","","","","",""
"html-keyboard-response","210","275402","0.0-11.0-0.41","60d8873c18e520a7d5ae555f","64e77d7b61f440b60e28659d","64ec9d62348abeb2219a9c42","null","null","<p style=""font-size: 60px; font-family: BACS"">DcPTcmhc</p>","","","","","","","","","",""
"html-keyboard-response","211","276418","0.0-11.0-0.42","60d8873c18e520a7d5ae555f","64e77d7b61f440b60e28659d","64ec9d62348abeb2219a9c42","null","null","<p style=""font-size: 60px; font-family: BACS"">YlYcCmYA</p>","","","","","","","","","",""
"html-keyboard-response","212","277429","0.0-11.0-0.43","60d8873c18e520a7d5ae555f","64e77d7b61f440b60e28659d","64ec9d62348abeb2219a9c42","null","null","<p style=""font-size: 60px; font-family: BACS"">YadrYNu</p>","","","","","","","","","",""
"html-keyboard-response","213","278446","0.0-11.0-0.44","60d8873c18e520a7d5ae555f","64e77d7b61f440b60e28659d","64ec9d62348abeb2219a9c42","null","null","<p style=""font-size: 60px; font-family: BACS"">YlYcDlDT</p>","","","","","","","","","",""
"html-keyboard-response","214","279460","0.0-11.0-0.45","60d8873c18e520a7d5ae555f","64e77d7b61f440b60e28659d","64ec9d62348abeb2219a9c42","null","null","<p style=""font-size: 60px; font-family: BACS"">hbmAmCd</p>","","","","","","","","","",""
"html-keyboard-response","215","280464","0.0-11.0-0.46","60d8873c18e520a7d5ae555f","64e77d7b61f440b60e28659d","64ec9d62348abeb2219a9c42","null","null","<p style=""font-size: 60px; font-family: BACS"">rvUblGc</p>","","","","","","","","","",""
"html-keyboard-response","216","281465","0.0-11.0-0.47","60d8873c18e520a7d5ae555f","64e77d7b61f440b60e28659d","64ec9d62348abeb2219a9c42","null","null","<p style=""font-size: 60px; font-family: BACS"">hbmAmhc</p>","","","","","","","","","",""
"html-keyboard-response","217","282479","0.0-11.0-0.48","60d8873c18e520a7d5ae555f","64e77d7b61f440b60e28659d","64ec9d62348abeb2219a9c42","null","null","<p style=""font-size: 60px; font-family: BACS"">DcPTcCmYA</p>","","","","","","","","","",""
"html-keyboard-response","218","283497","0.0-11.0-0.49","60d8873c18e520a7d5ae555f","64e77d7b61f440b60e28659d","64ec9d62348abeb2219a9c42","null","null","<p style=""font-size: 60px; font-family: BACS"">bRABtmhc</p>","","","","","","","","","",""
"html-keyboard-response","219","284513","0.0-11.0-0.50","60d8873c18e520a7d5ae555f","64e77d7b61f440b60e28659d","64ec9d62348abeb2219a9c42","null","null","<p style=""font-size: 60px; font-family: BACS"">DRPkYDlDT</p>","","","","","","","","","",""
"html-keyboard-response","220","285530","0.0-11.0-0.51","60d8873c18e520a7d5ae555f","64e77d7b61f440b60e28659d","64ec9d62348abeb2219a9c42","null","null","<p style=""font-size: 60px; font-family: BACS"">JNkalGc</p>","","","","","","","","","",""
"html-keyboard-response","221","286536","0.0-11.0-0.52","60d8873c18e520a7d5ae555f","64e77d7b61f440b60e28659d","64ec9d62348abeb2219a9c42","null","null","<p style=""font-size: 60px; font-family: BACS"">PdDTDlDT</p>","","","","","","","","","",""
"html-keyboard-response","222","287553","0.0-11.0-0.53","60d8873c18e520a7d5ae555f","64e77d7b61f440b60e28659d","64ec9d62348abeb2219a9c42","null","null","<p style=""font-size: 60px; font-family: BACS"">PDPhlkKE</p>","","","","","","","","","",""
"html-keyboard-response","223","288569","0.0-11.0-0.54","60d8873c18e520a7d5ae555f","64e77d7b61f440b60e28659d","64ec9d62348abeb2219a9c42","null","null","<p style=""font-size: 60px; font-family: BACS"">NaAQdlGc</p>","","","","","","","","","",""
"html-keyboard-response","224","289573","0.0-11.0-0.55","60d8873c18e520a7d5ae555f","64e77d7b61f440b60e28659d","64ec9d62348abeb2219a9c42","null","null","<p style=""font-size: 60px; font-family: BACS"">JNkaYNu</p>","","","","","","","","","",""
"html-keyboard-response","225","290577","0.0-11.0-0.56","60d8873c18e520a7d5ae555f","64e77d7b61f440b60e28659d","64ec9d62348abeb2219a9c42","null","null","<p style=""font-size: 60px; font-family: BACS"">krUQcrdY</p>","","","","","","","","","",""
"html-keyboard-response","226","291586","0.0-11.0-0.57","60d8873c18e520a7d5ae555f","64e77d7b61f440b60e28659d","64ec9d62348abeb2219a9c42","null","null","<p style=""font-size: 60px; font-family: BACS"">NkUALUOk</p>","","","","","","","","","",""
"html-keyboard-response","227","292588","0.0-11.0-0.58","60d8873c18e520a7d5ae555f","64e77d7b61f440b60e28659d","64ec9d62348abeb2219a9c42","null","null","<p style=""font-size: 60px; font-family: BACS"">NvuGrYNu</p>","","","","","","","","","",""
"html-keyboard-response","228","293596","0.0-11.0-0.59","60d8873c18e520a7d5ae555f","64e77d7b61f440b60e28659d","64ec9d62348abeb2219a9c42","null","null","<p style=""font-size: 60px; font-family: BACS"">kGamNLaA</p>","","","","","","","","","",""
"html-keyboard-response","229","294601","0.0-11.0-0.60","60d8873c18e520a7d5ae555f","64e77d7b61f440b60e28659d","64ec9d62348abeb2219a9c42","null","null","<p style=""font-size: 60px; font-family: BACS"">DcPTcDlDT</p>","","","","","","","","","",""
"html-keyboard-response","230","295606","0.0-11.0-0.61","60d8873c18e520a7d5ae555f","64e77d7b61f440b60e28659d","64ec9d62348abeb2219a9c42","null","null","<p style=""font-size: 60px; font-family: BACS"">PdDTkKE</p>","","","","","","","","","",""
"html-keyboard-response","231","296615","0.0-11.0-0.62","60d8873c18e520a7d5ae555f","64e77d7b61f440b60e28659d","64ec9d62348abeb2219a9c42","null","null","<p style=""font-size: 60px; font-family: BACS"">DRPkYmhc</p>","","","","","","","","","",""
"html-keyboard-response","232","297631","0.0-11.0-0.63","60d8873c18e520a7d5ae555f","64e77d7b61f440b60e28659d","64ec9d62348abeb2219a9c42","null","null","<p style=""font-size: 60px; font-family: BACS"">PEtEkKE</p>","","","","","","","","","",""
"html-keyboard-response","233","298646","0.0-11.0-0.64","60d8873c18e520a7d5ae555f","64e77d7b61f440b60e28659d","64ec9d62348abeb2219a9c42","null","null","<p style=""font-size: 60px; font-family: BACS"">PDPhlDlDT</p>","","","","","","","","","",""
"html-keyboard-response","234","299652","0.0-11.0-0.65","60d8873c18e520a7d5ae555f","64e77d7b61f440b60e28659d","64ec9d62348abeb2219a9c42","null","null","<p style=""font-size: 60px; font-family: BACS"">kGamNcrdY</p>","","","","","","","","","",""
"html-keyboard-response","235","300656","0.0-11.0-0.66","60d8873c18e520a7d5ae555f","64e77d7b61f440b60e28659d","64ec9d62348abeb2219a9c42","null","null","<p style=""font-size: 60px; font-family: BACS"">OZkbLaA</p>","","","","","","","","","",""
"html-keyboard-response","236","301657","0.0-11.0-0.67","60d8873c18e520a7d5ae555f","64e77d7b61f440b60e28659d","64ec9d62348abeb2219a9c42","null","null","<p style=""font-size: 60px; font-family: BACS"">NkUAlGc</p>","","","","","","","","","",""
"html-keyboard-response","237","302671","0.0-11.0-0.68","60d8873c18e520a7d5ae555f","64e77d7b61f440b60e28659d","64ec9d62348abeb2219a9c42","null","null","<p style=""font-size: 60px; font-family: BACS"">PEtEmCd</p>","","","","","","","","","",""
"html-keyboard-response","238","303686","0.0-11.0-0.69","60d8873c18e520a7d5ae555f","64e77d7b61f440b60e28659d","64ec9d62348abeb2219a9c42","null","null","<p style=""font-size: 60px; font-family: BACS"">bRABtCmYA</p>","","","","","","","","","",""
"html-keyboard-response","239","304697","0.0-11.0-0.70","60d8873c18e520a7d5ae555f","64e77d7b61f440b60e28659d","64ec9d62348abeb2219a9c42","null","null","<p style=""font-size: 60px; font-family: BACS"">OZkblGc</p>","","","","","","","","","",""
"html-keyboard-response","240","305699","0.0-11.0-0.71","60d8873c18e520a7d5ae555f","64e77d7b61f440b60e28659d","64ec9d62348abeb2219a9c42","null","null","<p style=""font-size: 60px; font-family: BACS"">rvUbcrdY</p>","","","","","","","","","",""
"html-keyboard-response","241","306710","0.0-11.0-0.72","60d8873c18e520a7d5ae555f","64e77d7b61f440b60e28659d","64ec9d62348abeb2219a9c42","null","null","<p style=""font-size: 60px; font-family: BACS"">YlYckKE</p>","","","","","","","","","",""
"html-keyboard-response","242","307721","0.0-11.0-0.73","60d8873c18e520a7d5ae555f","64e77d7b61f440b60e28659d","64ec9d62348abeb2219a9c42","null","null","<p style=""font-size: 60px; font-family: BACS"">NvuGrlGc</p>","","","","","","","","","",""
"html-keyboard-response","243","308724","0.0-11.0-0.74","60d8873c18e520a7d5ae555f","64e77d7b61f440b60e28659d","64ec9d62348abeb2219a9c42","null","null","<p style=""font-size: 60px; font-family: BACS"">LGkAcrdY</p>","","","","","","","","","",""
"html-keyboard-response","244","309740","0.0-11.0-0.75","60d8873c18e520a7d5ae555f","64e77d7b61f440b60e28659d","64ec9d62348abeb2219a9c42","null","null","<p style=""font-size: 60px; font-family: BACS"">kRCkOkKE</p>","","","","","","","","","",""
"html-keyboard-response","245","310747","0.0-11.0-0.76","60d8873c18e520a7d5ae555f","64e77d7b61f440b60e28659d","64ec9d62348abeb2219a9c42","null","null","<p style=""font-size: 60px; font-family: BACS"">kGamNLUOk</p>","","","","","","","","","",""
"html-keyboard-response","246","311750","0.0-11.0-0.77","60d8873c18e520a7d5ae555f","64e77d7b61f440b60e28659d","64ec9d62348abeb2219a9c42","null","null","<p style=""font-size: 60px; font-family: BACS"">LGkALaA</p>","","","","","","","","","",""
"html-keyboard-response","247","312755","0.0-11.0-0.78","60d8873c18e520a7d5ae555f","64e77d7b61f440b60e28659d","64ec9d62348abeb2219a9c42","null","null","<p style=""font-size: 60px; font-family: BACS"">PDPhlmhc</p>","","","","","","","","","",""
"html-keyboard-response","248","313772","0.0-11.0-0.79","60d8873c18e520a7d5ae555f","64e77d7b61f440b60e28659d","64ec9d62348abeb2219a9c42","null","null","<p style=""font-size: 60px; font-family: BACS"">kRCkOCmYA</p>","","","","","","","","","",""
"html-keyboard-response","249","316993","0.0-12.0","60d8873c18e520a7d5ae555f","64e77d7b61f440b60e28659d","64ec9d62348abeb2219a9c42","3219"," ","<p>Great, you've seen the third block of words. You may now take a short break.</p>
      <p>Press the spacebar when you're ready to continue.</p>","","","","","","","","","",""
"html-keyboard-response","250","317998","0.0-13.0-0.0","60d8873c18e520a7d5ae555f","64e77d7b61f440b60e28659d","64ec9d62348abeb2219a9c42","null","null","<p style=""font-size: 60px; font-family: BACS"">DcPTcDlDT</p>","","","","","","","","","",""
"html-keyboard-response","251","319004","0.0-13.0-0.1","60d8873c18e520a7d5ae555f","64e77d7b61f440b60e28659d","64ec9d62348abeb2219a9c42","null","null","<p style=""font-size: 60px; font-family: BACS"">krUQYNu</p>","","","","","","","","","",""
"html-keyboard-response","252","320019","0.0-13.0-0.2","60d8873c18e520a7d5ae555f","64e77d7b61f440b60e28659d","64ec9d62348abeb2219a9c42","null","null","<p style=""font-size: 60px; font-family: BACS"">OZkbcrdY</p>","","","","","","","","","",""
"html-keyboard-response","253","321031","0.0-13.0-0.3","60d8873c18e520a7d5ae555f","64e77d7b61f440b60e28659d","64ec9d62348abeb2219a9c42","null","null","<p style=""font-size: 60px; font-family: BACS"">YadrLaA</p>","","","","","","","","","",""
"html-keyboard-response","254","322043","0.0-13.0-0.4","60d8873c18e520a7d5ae555f","64e77d7b61f440b60e28659d","64ec9d62348abeb2219a9c42","null","null","<p style=""font-size: 60px; font-family: BACS"">PdDTmCd</p>","","","","","","","","","",""
"html-keyboard-response","255","323056","0.0-13.0-0.5","60d8873c18e520a7d5ae555f","64e77d7b61f440b60e28659d","64ec9d62348abeb2219a9c42","null","null","<p style=""font-size: 60px; font-family: BACS"">NkUALUOk</p>","","","","","","","","","",""
"html-keyboard-response","256","324059","0.0-13.0-0.6","60d8873c18e520a7d5ae555f","64e77d7b61f440b60e28659d","64ec9d62348abeb2219a9c42","null","null","<p style=""font-size: 60px; font-family: BACS"">DRPkYDlDT</p>","","","","","","","","","",""
"html-keyboard-response","257","325063","0.0-13.0-0.7","60d8873c18e520a7d5ae555f","64e77d7b61f440b60e28659d","64ec9d62348abeb2219a9c42","null","null","<p style=""font-size: 60px; font-family: BACS"">PEtEmhc</p>","","","","","","","","","",""
"html-keyboard-response","258","326078","0.0-13.0-0.8","60d8873c18e520a7d5ae555f","64e77d7b61f440b60e28659d","64ec9d62348abeb2219a9c42","null","null","<p style=""font-size: 60px; font-family: BACS"">NvuGrYNu</p>","","","","","","","","","",""
"html-keyboard-response","259","327095","0.0-13.0-0.9","60d8873c18e520a7d5ae555f","64e77d7b61f440b60e28659d","64ec9d62348abeb2219a9c42","null","null","<p style=""font-size: 60px; font-family: BACS"">YlYcmCd</p>","","","","","","","","","",""
"html-keyboard-response","260","328102","0.0-13.0-0.10","60d8873c18e520a7d5ae555f","64e77d7b61f440b60e28659d","64ec9d62348abeb2219a9c42","null","null","<p style=""font-size: 60px; font-family: BACS"">hbmAmhc</p>","","","","","","","","","",""
"html-keyboard-response","261","329119","0.0-13.0-0.11","60d8873c18e520a7d5ae555f","64e77d7b61f440b60e28659d","64ec9d62348abeb2219a9c42","null","null","<p style=""font-size: 60px; font-family: BACS"">YadrcrdY</p>","","","","","","","","","",""
"html-keyboard-response","262","330123","0.0-13.0-0.12","60d8873c18e520a7d5ae555f","64e77d7b61f440b60e28659d","64ec9d62348abeb2219a9c42","null","null","<p style=""font-size: 60px; font-family: BACS"">hbmACmYA</p>","","","","","","","","","",""
"html-keyboard-response","263","331132","0.0-13.0-0.13","60d8873c18e520a7d5ae555f","64e77d7b61f440b60e28659d","64ec9d62348abeb2219a9c42","null","null","<p style=""font-size: 60px; font-family: BACS"">PDPhlmCd</p>","","","","","","","","","",""
"html-keyboard-response","264","332143","0.0-13.0-0.14","60d8873c18e520a7d5ae555f","64e77d7b61f440b60e28659d","64ec9d62348abeb2219a9c42","null","null","<p style=""font-size: 60px; font-family: BACS"">OZkbLaA</p>","","","","","","","","","",""
"html-keyboard-response","265","333158","0.0-13.0-0.15","60d8873c18e520a7d5ae555f","64e77d7b61f440b60e28659d","64ec9d62348abeb2219a9c42","null","null","<p style=""font-size: 60px; font-family: BACS"">rvUblGc</p>","","","","","","","","","",""
"html-keyboard-response","266","334167","0.0-13.0-0.16","60d8873c18e520a7d5ae555f","64e77d7b61f440b60e28659d","64ec9d62348abeb2219a9c42","null","null","<p style=""font-size: 60px; font-family: BACS"">PEtEkKE</p>","","","","","","","","","",""
"html-keyboard-response","267","335183","0.0-13.0-0.17","60d8873c18e520a7d5ae555f","64e77d7b61f440b60e28659d","64ec9d62348abeb2219a9c42","null","null","<p style=""font-size: 60px; font-family: BACS"">DcPTcCmYA</p>","","","","","","","","","",""
"html-keyboard-response","268","336195","0.0-13.0-0.18","60d8873c18e520a7d5ae555f","64e77d7b61f440b60e28659d","64ec9d62348abeb2219a9c42","null","null","<p style=""font-size: 60px; font-family: BACS"">YadrlGc</p>","","","","","","","","","",""
"html-keyboard-response","269","337207","0.0-13.0-0.19","60d8873c18e520a7d5ae555f","64e77d7b61f440b60e28659d","64ec9d62348abeb2219a9c42","null","null","<p style=""font-size: 60px; font-family: BACS"">AdDbCmYA</p>","","","","","","","","","",""
"html-keyboard-response","270","338212","0.0-13.0-0.20","60d8873c18e520a7d5ae555f","64e77d7b61f440b60e28659d","64ec9d62348abeb2219a9c42","null","null","<p style=""font-size: 60px; font-family: BACS"">DRPkYmhc</p>","","","","","","","","","",""
"html-keyboard-response","271","339227","0.0-13.0-0.21","60d8873c18e520a7d5ae555f","64e77d7b61f440b60e28659d","64ec9d62348abeb2219a9c42","null","null","<p style=""font-size: 60px; font-family: BACS"">NkUALaA</p>","","","","","","","","","",""
"html-keyboard-response","272","340236","0.0-13.0-0.22","60d8873c18e520a7d5ae555f","64e77d7b61f440b60e28659d","64ec9d62348abeb2219a9c42","null","null","<p style=""font-size: 60px; font-family: BACS"">JNkaLUOk</p>","","","","","","","","","",""
"html-keyboard-response","273","341243","0.0-13.0-0.23","60d8873c18e520a7d5ae555f","64e77d7b61f440b60e28659d","64ec9d62348abeb2219a9c42","null","null","<p style=""font-size: 60px; font-family: BACS"">LGkAcrdY</p>","","","","","","","","","",""
"html-keyboard-response","274","342259","0.0-13.0-0.24","60d8873c18e520a7d5ae555f","64e77d7b61f440b60e28659d","64ec9d62348abeb2219a9c42","null","null","<p style=""font-size: 60px; font-family: BACS"">NaAQdLaA</p>","","","","","","","","","",""
"html-keyboard-response","275","343263","0.0-13.0-0.25","60d8873c18e520a7d5ae555f","64e77d7b61f440b60e28659d","64ec9d62348abeb2219a9c42","null","null","<p style=""font-size: 60px; font-family: BACS"">krUQlGc</p>","","","","","","","","","",""
"html-keyboard-response","276","344266","0.0-13.0-0.26","60d8873c18e520a7d5ae555f","64e77d7b61f440b60e28659d","64ec9d62348abeb2219a9c42","null","null","<p style=""font-size: 60px; font-family: BACS"">PEtEmCd</p>","","","","","","","","","",""
"html-keyboard-response","277","345269","0.0-13.0-0.27","60d8873c18e520a7d5ae555f","64e77d7b61f440b60e28659d","64ec9d62348abeb2219a9c42","null","null","<p style=""font-size: 60px; font-family: BACS"">kRCkOmhc</p>","","","","","","","","","",""
"html-keyboard-response","278","346270","0.0-13.0-0.28","60d8873c18e520a7d5ae555f","64e77d7b61f440b60e28659d","64ec9d62348abeb2219a9c42","null","null","<p style=""font-size: 60px; font-family: BACS"">PEtEDlDT</p>","","","","","","","","","",""
"html-keyboard-response","279","347286","0.0-13.0-0.29","60d8873c18e520a7d5ae555f","64e77d7b61f440b60e28659d","64ec9d62348abeb2219a9c42","null","null","<p style=""font-size: 60px; font-family: BACS"">PDPhlkKE</p>","","","","","","","","","",""
"html-keyboard-response","280","348302","0.0-13.0-0.30","60d8873c18e520a7d5ae555f","64e77d7b61f440b60e28659d","64ec9d62348abeb2219a9c42","null","null","<p style=""font-size: 60px; font-family: BACS"">LGkALaA</p>","","","","","","","","","",""
"html-keyboard-response","281","349305","0.0-13.0-0.31","60d8873c18e520a7d5ae555f","64e77d7b61f440b60e28659d","64ec9d62348abeb2219a9c42","null","null","<p style=""font-size: 60px; font-family: BACS"">AdDbmhc</p>","","","","","","","","","",""
"html-keyboard-response","282","350309","0.0-13.0-0.32","60d8873c18e520a7d5ae555f","64e77d7b61f440b60e28659d","64ec9d62348abeb2219a9c42","null","null","<p style=""font-size: 60px; font-family: BACS"">DRPkYmCd</p>","","","","","","","","","",""
"html-keyboard-response","283","351310","0.0-13.0-0.33","60d8873c18e520a7d5ae555f","64e77d7b61f440b60e28659d","64ec9d62348abeb2219a9c42","null","null","<p style=""font-size: 60px; font-family: BACS"">rvUbcrdY</p>","","","","","","","","","",""
"html-keyboard-response","284","352324","0.0-13.0-0.34","60d8873c18e520a7d5ae555f","64e77d7b61f440b60e28659d","64ec9d62348abeb2219a9c42","null","null","<p style=""font-size: 60px; font-family: BACS"">DcPTcmhc</p>","","","","","","","","","",""
"html-keyboard-response","285","353341","0.0-13.0-0.35","60d8873c18e520a7d5ae555f","64e77d7b61f440b60e28659d","64ec9d62348abeb2219a9c42","null","null","<p style=""font-size: 60px; font-family: BACS"">kGamNLaA</p>","","","","","","","","","",""
"html-keyboard-response","286","354356","0.0-13.0-0.36","60d8873c18e520a7d5ae555f","64e77d7b61f440b60e28659d","64ec9d62348abeb2219a9c42","null","null","<p style=""font-size: 60px; font-family: BACS"">OZkbLUOk</p>","","","","","","","","","",""
"html-keyboard-response","287","355367","0.0-13.0-0.37","60d8873c18e520a7d5ae555f","64e77d7b61f440b60e28659d","64ec9d62348abeb2219a9c42","null","null","<p style=""font-size: 60px; font-family: BACS"">NkUAlGc</p>","","","","","","","","","",""
"html-keyboard-response","288","356383","0.0-13.0-0.38","60d8873c18e520a7d5ae555f","64e77d7b61f440b60e28659d","64ec9d62348abeb2219a9c42","null","null","<p style=""font-size: 60px; font-family: BACS"">bRABtkKE</p>","","","","","","","","","",""
"html-keyboard-response","289","357399","0.0-13.0-0.39","60d8873c18e520a7d5ae555f","64e77d7b61f440b60e28659d","64ec9d62348abeb2219a9c42","null","null","<p style=""font-size: 60px; font-family: BACS"">krUQcrdY</p>","","","","","","","","","",""
"html-keyboard-response","290","358403","0.0-13.0-0.40","60d8873c18e520a7d5ae555f","64e77d7b61f440b60e28659d","64ec9d62348abeb2219a9c42","null","null","<p style=""font-size: 60px; font-family: BACS"">kRCkOCmYA</p>","","","","","","","","","",""
"html-keyboard-response","291","359406","0.0-13.0-0.41","60d8873c18e520a7d5ae555f","64e77d7b61f440b60e28659d","64ec9d62348abeb2219a9c42","null","null","<p style=""font-size: 60px; font-family: BACS"">AdDbkKE</p>","","","","","","","","","",""
"html-keyboard-response","292","360412","0.0-13.0-0.42","60d8873c18e520a7d5ae555f","64e77d7b61f440b60e28659d","64ec9d62348abeb2219a9c42","null","null","<p style=""font-size: 60px; font-family: BACS"">kGamNLUOk</p>","","","","","","","","","",""
"html-keyboard-response","293","361415","0.0-13.0-0.43","60d8873c18e520a7d5ae555f","64e77d7b61f440b60e28659d","64ec9d62348abeb2219a9c42","null","null","<p style=""font-size: 60px; font-family: BACS"">rvUbYNu</p>","","","","","","","","","",""
"html-keyboard-response","294","362430","0.0-13.0-0.44","60d8873c18e520a7d5ae555f","64e77d7b61f440b60e28659d","64ec9d62348abeb2219a9c42","null","null","<p style=""font-size: 60px; font-family: BACS"">PdDTCmYA</p>","","","","","","","","","",""
"html-keyboard-response","295","363437","0.0-13.0-0.45","60d8873c18e520a7d5ae555f","64e77d7b61f440b60e28659d","64ec9d62348abeb2219a9c42","null","null","<p style=""font-size: 60px; font-family: BACS"">NvuGrlGc</p>","","","","","","","","","",""
"html-keyboard-response","296","364454","0.0-13.0-0.46","60d8873c18e520a7d5ae555f","64e77d7b61f440b60e28659d","64ec9d62348abeb2219a9c42","null","null","<p style=""font-size: 60px; font-family: BACS"">JNkacrdY</p>","","","","","","","","","",""
"html-keyboard-response","297","365468","0.0-13.0-0.47","60d8873c18e520a7d5ae555f","64e77d7b61f440b60e28659d","64ec9d62348abeb2219a9c42","null","null","<p style=""font-size: 60px; font-family: BACS"">bRABtmCd</p>","","","","","","","","","",""
"html-keyboard-response","298","366473","0.0-13.0-0.48","60d8873c18e520a7d5ae555f","64e77d7b61f440b60e28659d","64ec9d62348abeb2219a9c42","null","null","<p style=""font-size: 60px; font-family: BACS"">OZkblGc</p>","","","","","","","","","",""
"html-keyboard-response","299","367474","0.0-13.0-0.49","60d8873c18e520a7d5ae555f","64e77d7b61f440b60e28659d","64ec9d62348abeb2219a9c42","null","null","<p style=""font-size: 60px; font-family: BACS"">NaAQdcrdY</p>","","","","","","","","","",""
"html-keyboard-response","300","368481","0.0-13.0-0.50","60d8873c18e520a7d5ae555f","64e77d7b61f440b60e28659d","64ec9d62348abeb2219a9c42","null","null","<p style=""font-size: 60px; font-family: BACS"">hbmAkKE</p>","","","","","","","","","",""
"html-keyboard-response","301","369484","0.0-13.0-0.51","60d8873c18e520a7d5ae555f","64e77d7b61f440b60e28659d","64ec9d62348abeb2219a9c42","null","null","<p style=""font-size: 60px; font-family: BACS"">DcPTcmCd</p>","","","","","","","","","",""
"html-keyboard-response","302","370500","0.0-13.0-0.52","60d8873c18e520a7d5ae555f","64e77d7b61f440b60e28659d","64ec9d62348abeb2219a9c42","null","null","<p style=""font-size: 60px; font-family: BACS"">LGkALUOk</p>","","","","","","","","","",""
"html-keyboard-response","303","371515","0.0-13.0-0.53","60d8873c18e520a7d5ae555f","64e77d7b61f440b60e28659d","64ec9d62348abeb2219a9c42","null","null","<p style=""font-size: 60px; font-family: BACS"">hbmAmCd</p>","","","","","","","","","",""
"html-keyboard-response","304","372531","0.0-13.0-0.54","60d8873c18e520a7d5ae555f","64e77d7b61f440b60e28659d","64ec9d62348abeb2219a9c42","null","null","<p style=""font-size: 60px; font-family: BACS"">YlYckKE</p>","","","","","","","","","",""
"html-keyboard-response","305","373537","0.0-13.0-0.55","60d8873c18e520a7d5ae555f","64e77d7b61f440b60e28659d","64ec9d62348abeb2219a9c42","null","null","<p style=""font-size: 60px; font-family: BACS"">PDPhlDlDT</p>","","","","","","","","","",""
"html-keyboard-response","306","374553","0.0-13.0-0.56","60d8873c18e520a7d5ae555f","64e77d7b61f440b60e28659d","64ec9d62348abeb2219a9c42","null","null","<p style=""font-size: 60px; font-family: BACS"">NaAQdLUOk</p>","","","","","","","","","",""
"html-keyboard-response","307","375558","0.0-13.0-0.57","60d8873c18e520a7d5ae555f","64e77d7b61f440b60e28659d","64ec9d62348abeb2219a9c42","null","null","<p style=""font-size: 60px; font-family: BACS"">PDPhlmhc</p>","","","","","","","","","",""
"html-keyboard-response","308","376565","0.0-13.0-0.58","60d8873c18e520a7d5ae555f","64e77d7b61f440b60e28659d","64ec9d62348abeb2219a9c42","null","null","<p style=""font-size: 60px; font-family: BACS"">PdDTkKE</p>","","","","","","","","","",""
"html-keyboard-response","309","377570","0.0-13.0-0.59","60d8873c18e520a7d5ae555f","64e77d7b61f440b60e28659d","64ec9d62348abeb2219a9c42","null","null","<p style=""font-size: 60px; font-family: BACS"">JNkalGc</p>","","","","","","","","","",""
"html-keyboard-response","310","378586","0.0-13.0-0.60","60d8873c18e520a7d5ae555f","64e77d7b61f440b60e28659d","64ec9d62348abeb2219a9c42","null","null","<p style=""font-size: 60px; font-family: BACS"">PdDTDlDT</p>","","","","","","","","","",""
"html-keyboard-response","311","379602","0.0-13.0-0.61","60d8873c18e520a7d5ae555f","64e77d7b61f440b60e28659d","64ec9d62348abeb2219a9c42","null","null","<p style=""font-size: 60px; font-family: BACS"">bRABtCmYA</p>","","","","","","","","","",""
"html-keyboard-response","312","380607","0.0-13.0-0.62","60d8873c18e520a7d5ae555f","64e77d7b61f440b60e28659d","64ec9d62348abeb2219a9c42","null","null","<p style=""font-size: 60px; font-family: BACS"">NvuGrLaA</p>","","","","","","","","","",""
"html-keyboard-response","313","381611","0.0-13.0-0.63","60d8873c18e520a7d5ae555f","64e77d7b61f440b60e28659d","64ec9d62348abeb2219a9c42","null","null","<p style=""font-size: 60px; font-family: BACS"">kRCkODlDT</p>","","","","","","","","","",""
"html-keyboard-response","314","382616","0.0-13.0-0.64","60d8873c18e520a7d5ae555f","64e77d7b61f440b60e28659d","64ec9d62348abeb2219a9c42","null","null","<p style=""font-size: 60px; font-family: BACS"">kGamNYNu</p>","","","","","","","","","",""
"html-keyboard-response","315","383627","0.0-13.0-0.65","60d8873c18e520a7d5ae555f","64e77d7b61f440b60e28659d","64ec9d62348abeb2219a9c42","null","null","<p style=""font-size: 60px; font-family: BACS"">NaAQdlGc</p>","","","","","","","","","",""
"html-keyboard-response","316","384635","0.0-13.0-0.66","60d8873c18e520a7d5ae555f","64e77d7b61f440b60e28659d","64ec9d62348abeb2219a9c42","null","null","<p style=""font-size: 60px; font-family: BACS"">kRCkOkKE</p>","","","","","","","","","",""
"html-keyboard-response","317","385647","0.0-13.0-0.67","60d8873c18e520a7d5ae555f","64e77d7b61f440b60e28659d","64ec9d62348abeb2219a9c42","null","null","<p style=""font-size: 60px; font-family: BACS"">JNkaYNu</p>","","","","","","","","","",""
"html-keyboard-response","318","386658","0.0-13.0-0.68","60d8873c18e520a7d5ae555f","64e77d7b61f440b60e28659d","64ec9d62348abeb2219a9c42","null","null","<p style=""font-size: 60px; font-family: BACS"">krUQLUOk</p>","","","","","","","","","",""
"html-keyboard-response","319","387676","0.0-13.0-0.69","60d8873c18e520a7d5ae555f","64e77d7b61f440b60e28659d","64ec9d62348abeb2219a9c42","null","null","<p style=""font-size: 60px; font-family: BACS"">YadrYNu</p>","","","","","","","","","",""
"html-keyboard-response","320","388692","0.0-13.0-0.70","60d8873c18e520a7d5ae555f","64e77d7b61f440b60e28659d","64ec9d62348abeb2219a9c42","null","null","<p style=""font-size: 60px; font-family: BACS"">DRPkYCmYA</p>","","","","","","","","","",""
"html-keyboard-response","321","389695","0.0-13.0-0.71","60d8873c18e520a7d5ae555f","64e77d7b61f440b60e28659d","64ec9d62348abeb2219a9c42","null","null","<p style=""font-size: 60px; font-family: BACS"">kGamNcrdY</p>","","","","","","","","","",""
"html-keyboard-response","322","390698","0.0-13.0-0.72","60d8873c18e520a7d5ae555f","64e77d7b61f440b60e28659d","64ec9d62348abeb2219a9c42","null","null","<p style=""font-size: 60px; font-family: BACS"">YlYcDlDT</p>","","","","","","","","","",""
"html-keyboard-response","323","391700","0.0-13.0-0.73","60d8873c18e520a7d5ae555f","64e77d7b61f440b60e28659d","64ec9d62348abeb2219a9c42","null","null","<p style=""font-size: 60px; font-family: BACS"">bRABtmhc</p>","","","","","","","","","",""
"html-keyboard-response","324","392715","0.0-13.0-0.74","60d8873c18e520a7d5ae555f","64e77d7b61f440b60e28659d","64ec9d62348abeb2219a9c42","null","null","<p style=""font-size: 60px; font-family: BACS"">LGkAYNu</p>","","","","","","","","","",""
"html-keyboard-response","325","393727","0.0-13.0-0.75","60d8873c18e520a7d5ae555f","64e77d7b61f440b60e28659d","64ec9d62348abeb2219a9c42","null","null","<p style=""font-size: 60px; font-family: BACS"">rvUbLaA</p>","","","","","","","","","",""
"html-keyboard-response","326","394734","0.0-13.0-0.76","60d8873c18e520a7d5ae555f","64e77d7b61f440b60e28659d","64ec9d62348abeb2219a9c42","null","null","<p style=""font-size: 60px; font-family: BACS"">YlYcCmYA</p>","","","","","","","","","",""
"html-keyboard-response","327","395750","0.0-13.0-0.77","60d8873c18e520a7d5ae555f","64e77d7b61f440b60e28659d","64ec9d62348abeb2219a9c42","null","null","<p style=""font-size: 60px; font-family: BACS"">NvuGrLUOk</p>","","","","","","","","","",""
"html-keyboard-response","328","396765","0.0-13.0-0.78","60d8873c18e520a7d5ae555f","64e77d7b61f440b60e28659d","64ec9d62348abeb2219a9c42","null","null","<p style=""font-size: 60px; font-family: BACS"">AdDbDlDT</p>","","","","","","","","","",""
"html-keyboard-response","329","397769","0.0-13.0-0.79","60d8873c18e520a7d5ae555f","64e77d7b61f440b60e28659d","64ec9d62348abeb2219a9c42","null","null","<p style=""font-size: 60px; font-family: BACS"">NkUAYNu</p>","","","","","","","","","",""
"html-keyboard-response","330","401491","0.0-14.0","60d8873c18e520a7d5ae555f","64e77d7b61f440b60e28659d","64ec9d62348abeb2219a9c42","3721"," ","<p>Great, you've seen the fourth block of words. You may now take a short break.</p>
      <p>Press the spacebar when you're ready to continue.</p>","","","","","","","","","",""
"html-keyboard-response","331","402505","0.0-15.0-0.0","60d8873c18e520a7d5ae555f","64e77d7b61f440b60e28659d","64ec9d62348abeb2219a9c42","null","null","<p style=""font-size: 60px; font-family: BACS"">NkUAlGc</p>","","","","","","","","","",""
"html-keyboard-response","332","403518","0.0-15.0-0.1","60d8873c18e520a7d5ae555f","64e77d7b61f440b60e28659d","64ec9d62348abeb2219a9c42","null","null","<p style=""font-size: 60px; font-family: BACS"">NkUAlGc</p>","","","","","","","","","",""
"html-keyboard-response","333","404520","0.0-15.0-0.2","60d8873c18e520a7d5ae555f","64e77d7b61f440b60e28659d","64ec9d62348abeb2219a9c42","null","null","<p style=""font-size: 60px; font-family: BACS"">NkUAlGc</p>","","","","","","","","","",""
"html-keyboard-response","334","405535","0.0-15.0-0.3","60d8873c18e520a7d5ae555f","64e77d7b61f440b60e28659d","64ec9d62348abeb2219a9c42","null","null","<p style=""font-size: 60px; font-family: BACS"">NkUAlGc</p>","","","","","","","","","",""
"html-keyboard-response","335","406551","0.0-15.0-0.4","60d8873c18e520a7d5ae555f","64e77d7b61f440b60e28659d","64ec9d62348abeb2219a9c42","null","null","<p style=""font-size: 60px; font-family: BACS"">NkUAlGc</p>","","","","","","","","","",""
"html-keyboard-response","336","407564","0.0-15.0-0.5","60d8873c18e520a7d5ae555f","64e77d7b61f440b60e28659d","64ec9d62348abeb2219a9c42","null","null","<p style=""font-size: 60px; font-family: BACS"">NkUAlGc</p>","","","","","","","","","",""
"html-keyboard-response","337","408568","0.0-15.0-0.6","60d8873c18e520a7d5ae555f","64e77d7b61f440b60e28659d","64ec9d62348abeb2219a9c42","null","null","<p style=""font-size: 60px; font-family: BACS"">NkUAlGc</p>","","","","","","","","","",""
"html-keyboard-response","338","409573","0.0-15.0-0.7","60d8873c18e520a7d5ae555f","64e77d7b61f440b60e28659d","64ec9d62348abeb2219a9c42","null","null","<p style=""font-size: 60px; font-family: BACS"">NkUAlGc</p>","","","","","","","","","",""
"html-keyboard-response","339","410585","0.0-15.0-0.8","60d8873c18e520a7d5ae555f","64e77d7b61f440b60e28659d","64ec9d62348abeb2219a9c42","null","null","<p style=""font-size: 60px; font-family: BACS"">NkUAlGc</p>","","","","","","","","","",""
"html-keyboard-response","340","411597","0.0-15.0-0.9","60d8873c18e520a7d5ae555f","64e77d7b61f440b60e28659d","64ec9d62348abeb2219a9c42","null","null","<p style=""font-size: 60px; font-family: BACS"">NkUAlGc</p>","","","","","","","","","",""
"html-keyboard-response","341","412602","0.0-15.0-0.10","60d8873c18e520a7d5ae555f","64e77d7b61f440b60e28659d","64ec9d62348abeb2219a9c42","null","null","<p style=""font-size: 60px; font-family: BACS"">NkUAlGc</p>","","","","","","","","","",""
"html-keyboard-response","342","413607","0.0-15.0-0.11","60d8873c18e520a7d5ae555f","64e77d7b61f440b60e28659d","64ec9d62348abeb2219a9c42","null","null","<p style=""font-size: 60px; font-family: BACS"">NkUAlGc</p>","","","","","","","","","",""
"html-keyboard-response","343","414611","0.0-15.0-0.12","60d8873c18e520a7d5ae555f","64e77d7b61f440b60e28659d","64ec9d62348abeb2219a9c42","null","null","<p style=""font-size: 60px; font-family: BACS"">NkUAlGc</p>","","","","","","","","","",""
"html-keyboard-response","344","415616","0.0-15.0-0.13","60d8873c18e520a7d5ae555f","64e77d7b61f440b60e28659d","64ec9d62348abeb2219a9c42","null","null","<p style=""font-size: 60px; font-family: BACS"">NkUAlGc</p>","","","","","","","","","",""
"html-keyboard-response","345","416621","0.0-15.0-0.14","60d8873c18e520a7d5ae555f","64e77d7b61f440b60e28659d","64ec9d62348abeb2219a9c42","null","null","<p style=""font-size: 60px; font-family: BACS"">NkUAlGc</p>","","","","","","","","","",""
"html-keyboard-response","346","417630","0.0-15.0-0.15","60d8873c18e520a7d5ae555f","64e77d7b61f440b60e28659d","64ec9d62348abeb2219a9c42","null","null","<p style=""font-size: 60px; font-family: BACS"">NkUAlGc</p>","","","","","","","","","",""
"html-keyboard-response","347","418646","0.0-15.0-0.16","60d8873c18e520a7d5ae555f","64e77d7b61f440b60e28659d","64ec9d62348abeb2219a9c42","null","null","<p style=""font-size: 60px; font-family: BACS"">NkUAlGc</p>","","","","","","","","","",""
"html-keyboard-response","348","419662","0.0-15.0-0.17","60d8873c18e520a7d5ae555f","64e77d7b61f440b60e28659d","64ec9d62348abeb2219a9c42","null","null","<p style=""font-size: 60px; font-family: BACS"">NkUAlGc</p>","","","","","","","","","",""
"html-keyboard-response","349","420668","0.0-15.0-0.18","60d8873c18e520a7d5ae555f","64e77d7b61f440b60e28659d","64ec9d62348abeb2219a9c42","null","null","<p style=""font-size: 60px; font-family: BACS"">NkUAlGc</p>","","","","","","","","","",""
"html-keyboard-response","350","421670","0.0-15.0-0.19","60d8873c18e520a7d5ae555f","64e77d7b61f440b60e28659d","64ec9d62348abeb2219a9c42","null","null","<p style=""font-size: 60px; font-family: BACS"">NkUAlGc</p>","","","","","","","","","",""
"html-keyboard-response","351","422687","0.0-15.0-0.20","60d8873c18e520a7d5ae555f","64e77d7b61f440b60e28659d","64ec9d62348abeb2219a9c42","null","null","<p style=""font-size: 60px; font-family: BACS"">NkUAlGc</p>","","","","","","","","","",""
"html-keyboard-response","352","423692","0.0-15.0-0.21","60d8873c18e520a7d5ae555f","64e77d7b61f440b60e28659d","64ec9d62348abeb2219a9c42","null","null","<p style=""font-size: 60px; font-family: BACS"">NkUAlGc</p>","","","","","","","","","",""
"html-keyboard-response","353","424704","0.0-15.0-0.22","60d8873c18e520a7d5ae555f","64e77d7b61f440b60e28659d","64ec9d62348abeb2219a9c42","null","null","<p style=""font-size: 60px; font-family: BACS"">NkUAlGc</p>","","","","","","","","","",""
"html-keyboard-response","354","425718","0.0-15.0-0.23","60d8873c18e520a7d5ae555f","64e77d7b61f440b60e28659d","64ec9d62348abeb2219a9c42","null","null","<p style=""font-size: 60px; font-family: BACS"">NkUAlGc</p>","","","","","","","","","",""
"html-keyboard-response","355","426724","0.0-15.0-0.24","60d8873c18e520a7d5ae555f","64e77d7b61f440b60e28659d","64ec9d62348abeb2219a9c42","null","null","<p style=""font-size: 60px; font-family: BACS"">NkUAlGc</p>","","","","","","","","","",""
"html-keyboard-response","356","427728","0.0-15.0-0.25","60d8873c18e520a7d5ae555f","64e77d7b61f440b60e28659d","64ec9d62348abeb2219a9c42","null","null","<p style=""font-size: 60px; font-family: BACS"">NkUAlGc</p>","","","","","","","","","",""
"html-keyboard-response","357","428730","0.0-15.0-0.26","60d8873c18e520a7d5ae555f","64e77d7b61f440b60e28659d","64ec9d62348abeb2219a9c42","null","null","<p style=""font-size: 60px; font-family: BACS"">NkUAlGc</p>","","","","","","","","","",""
"html-keyboard-response","358","429734","0.0-15.0-0.27","60d8873c18e520a7d5ae555f","64e77d7b61f440b60e28659d","64ec9d62348abeb2219a9c42","null","null","<p style=""font-size: 60px; font-family: BACS"">NkUAlGc</p>","","","","","","","","","",""
"html-keyboard-response","359","430751","0.0-15.0-0.28","60d8873c18e520a7d5ae555f","64e77d7b61f440b60e28659d","64ec9d62348abeb2219a9c42","null","null","<p style=""font-size: 60px; font-family: BACS"">NkUAlGc</p>","","","","","","","","","",""
"html-keyboard-response","360","431757","0.0-15.0-0.29","60d8873c18e520a7d5ae555f","64e77d7b61f440b60e28659d","64ec9d62348abeb2219a9c42","null","null","<p style=""font-size: 60px; font-family: BACS"">NkUAlGc</p>","","","","","","","","","",""
"html-keyboard-response","361","432774","0.0-15.0-0.30","60d8873c18e520a7d5ae555f","64e77d7b61f440b60e28659d","64ec9d62348abeb2219a9c42","null","null","<p style=""font-size: 60px; font-family: BACS"">NkUAlGc</p>","","","","","","","","","",""
"html-keyboard-response","362","433780","0.0-15.0-0.31","60d8873c18e520a7d5ae555f","64e77d7b61f440b60e28659d","64ec9d62348abeb2219a9c42","null","null","<p style=""font-size: 60px; font-family: BACS"">NkUAlGc</p>","","","","","","","","","",""
"html-keyboard-response","363","434793","0.0-15.0-0.32","60d8873c18e520a7d5ae555f","64e77d7b61f440b60e28659d","64ec9d62348abeb2219a9c42","null","null","<p style=""font-size: 60px; font-family: BACS"">NkUAlGc</p>","","","","","","","","","",""
"html-keyboard-response","364","435794","0.0-15.0-0.33","60d8873c18e520a7d5ae555f","64e77d7b61f440b60e28659d","64ec9d62348abeb2219a9c42","null","null","<p style=""font-size: 60px; font-family: BACS"">NkUAlGc</p>","","","","","","","","","",""
"html-keyboard-response","365","436809","0.0-15.0-0.34","60d8873c18e520a7d5ae555f","64e77d7b61f440b60e28659d","64ec9d62348abeb2219a9c42","null","null","<p style=""font-size: 60px; font-family: BACS"">NkUAlGc</p>","","","","","","","","","",""
"html-keyboard-response","366","437826","0.0-15.0-0.35","60d8873c18e520a7d5ae555f","64e77d7b61f440b60e28659d","64ec9d62348abeb2219a9c42","null","null","<p style=""font-size: 60px; font-family: BACS"">NkUAlGc</p>","","","","","","","","","",""
"html-keyboard-response","367","438830","0.0-15.0-0.36","60d8873c18e520a7d5ae555f","64e77d7b61f440b60e28659d","64ec9d62348abeb2219a9c42","null","null","<p style=""font-size: 60px; font-family: BACS"">NkUAlGc</p>","","","","","","","","","",""
"html-keyboard-response","368","439832","0.0-15.0-0.37","60d8873c18e520a7d5ae555f","64e77d7b61f440b60e28659d","64ec9d62348abeb2219a9c42","null","null","<p style=""font-size: 60px; font-family: BACS"">NkUAlGc</p>","","","","","","","","","",""
"html-keyboard-response","369","440841","0.0-15.0-0.38","60d8873c18e520a7d5ae555f","64e77d7b61f440b60e28659d","64ec9d62348abeb2219a9c42","null","null","<p style=""font-size: 60px; font-family: BACS"">NkUAlGc</p>","","","","","","","","","",""
"html-keyboard-response","370","441843","0.0-15.0-0.39","60d8873c18e520a7d5ae555f","64e77d7b61f440b60e28659d","64ec9d62348abeb2219a9c42","null","null","<p style=""font-size: 60px; font-family: BACS"">NkUAlGc</p>","","","","","","","","","",""
"html-keyboard-response","371","442853","0.0-15.0-0.40","60d8873c18e520a7d5ae555f","64e77d7b61f440b60e28659d","64ec9d62348abeb2219a9c42","null","null","<p style=""font-size: 60px; font-family: BACS"">NkUAlGc</p>","","","","","","","","","",""
"html-keyboard-response","372","443855","0.0-15.0-0.41","60d8873c18e520a7d5ae555f","64e77d7b61f440b60e28659d","64ec9d62348abeb2219a9c42","null","null","<p style=""font-size: 60px; font-family: BACS"">NkUAlGc</p>","","","","","","","","","",""
"html-keyboard-response","373","444867","0.0-15.0-0.42","60d8873c18e520a7d5ae555f","64e77d7b61f440b60e28659d","64ec9d62348abeb2219a9c42","null","null","<p style=""font-size: 60px; font-family: BACS"">NkUAlGc</p>","","","","","","","","","",""
"html-keyboard-response","374","445879","0.0-15.0-0.43","60d8873c18e520a7d5ae555f","64e77d7b61f440b60e28659d","64ec9d62348abeb2219a9c42","null","null","<p style=""font-size: 60px; font-family: BACS"">NkUAlGc</p>","","","","","","","","","",""
"html-keyboard-response","375","446891","0.0-15.0-0.44","60d8873c18e520a7d5ae555f","64e77d7b61f440b60e28659d","64ec9d62348abeb2219a9c42","null","null","<p style=""font-size: 60px; font-family: BACS"">NkUAlGc</p>","","","","","","","","","",""
"html-keyboard-response","376","447892","0.0-15.0-0.45","60d8873c18e520a7d5ae555f","64e77d7b61f440b60e28659d","64ec9d62348abeb2219a9c42","null","null","<p style=""font-size: 60px; font-family: BACS"">NkUAlGc</p>","","","","","","","","","",""
"html-keyboard-response","377","448894","0.0-15.0-0.46","60d8873c18e520a7d5ae555f","64e77d7b61f440b60e28659d","64ec9d62348abeb2219a9c42","null","null","<p style=""font-size: 60px; font-family: BACS"">NkUAlGc</p>","","","","","","","","","",""
"html-keyboard-response","378","449909","0.0-15.0-0.47","60d8873c18e520a7d5ae555f","64e77d7b61f440b60e28659d","64ec9d62348abeb2219a9c42","null","null","<p style=""font-size: 60px; font-family: BACS"">NkUAlGc</p>","","","","","","","","","",""
"html-keyboard-response","379","450925","0.0-15.0-0.48","60d8873c18e520a7d5ae555f","64e77d7b61f440b60e28659d","64ec9d62348abeb2219a9c42","null","null","<p style=""font-size: 60px; font-family: BACS"">NkUAlGc</p>","","","","","","","","","",""
"html-keyboard-response","380","451941","0.0-15.0-0.49","60d8873c18e520a7d5ae555f","64e77d7b61f440b60e28659d","64ec9d62348abeb2219a9c42","null","null","<p style=""font-size: 60px; font-family: BACS"">NkUAlGc</p>","","","","","","","","","",""
"html-keyboard-response","381","452943","0.0-15.0-0.50","60d8873c18e520a7d5ae555f","64e77d7b61f440b60e28659d","64ec9d62348abeb2219a9c42","null","null","<p style=""font-size: 60px; font-family: BACS"">NkUAlGc</p>","","","","","","","","","",""
"html-keyboard-response","382","453947","0.0-15.0-0.51","60d8873c18e520a7d5ae555f","64e77d7b61f440b60e28659d","64ec9d62348abeb2219a9c42","null","null","<p style=""font-size: 60px; font-family: BACS"">NkUAlGc</p>","","","","","","","","","",""
"html-keyboard-response","383","454955","0.0-15.0-0.52","60d8873c18e520a7d5ae555f","64e77d7b61f440b60e28659d","64ec9d62348abeb2219a9c42","null","null","<p style=""font-size: 60px; font-family: BACS"">NkUAlGc</p>","","","","","","","","","",""
"html-keyboard-response","384","455958","0.0-15.0-0.53","60d8873c18e520a7d5ae555f","64e77d7b61f440b60e28659d","64ec9d62348abeb2219a9c42","null","null","<p style=""font-size: 60px; font-family: BACS"">NkUAlGc</p>","","","","","","","","","",""
"html-keyboard-response","385","456963","0.0-15.0-0.54","60d8873c18e520a7d5ae555f","64e77d7b61f440b60e28659d","64ec9d62348abeb2219a9c42","null","null","<p style=""font-size: 60px; font-family: BACS"">NkUAlGc</p>","","","","","","","","","",""
"html-keyboard-response","386","457969","0.0-15.0-0.55","60d8873c18e520a7d5ae555f","64e77d7b61f440b60e28659d","64ec9d62348abeb2219a9c42","null","null","<p style=""font-size: 60px; font-family: BACS"">NkUAlGc</p>","","","","","","","","","",""
"html-keyboard-response","387","458973","0.0-15.0-0.56","60d8873c18e520a7d5ae555f","64e77d7b61f440b60e28659d","64ec9d62348abeb2219a9c42","null","null","<p style=""font-size: 60px; font-family: BACS"">NkUAlGc</p>","","","","","","","","","",""
"html-keyboard-response","388","459976","0.0-15.0-0.57","60d8873c18e520a7d5ae555f","64e77d7b61f440b60e28659d","64ec9d62348abeb2219a9c42","null","null","<p style=""font-size: 60px; font-family: BACS"">NkUAlGc</p>","","","","","","","","","",""
"html-keyboard-response","389","460979","0.0-15.0-0.58","60d8873c18e520a7d5ae555f","64e77d7b61f440b60e28659d","64ec9d62348abeb2219a9c42","null","null","<p style=""font-size: 60px; font-family: BACS"">NkUAlGc</p>","","","","","","","","","",""
"html-keyboard-response","390","461982","0.0-15.0-0.59","60d8873c18e520a7d5ae555f","64e77d7b61f440b60e28659d","64ec9d62348abeb2219a9c42","null","null","<p style=""font-size: 60px; font-family: BACS"">NkUAlGc</p>","","","","","","","","","",""
"html-keyboard-response","391","462985","0.0-15.0-0.60","60d8873c18e520a7d5ae555f","64e77d7b61f440b60e28659d","64ec9d62348abeb2219a9c42","null","null","<p style=""font-size: 60px; font-family: BACS"">NkUAlGc</p>","","","","","","","","","",""
"html-keyboard-response","392","463991","0.0-15.0-0.61","60d8873c18e520a7d5ae555f","64e77d7b61f440b60e28659d","64ec9d62348abeb2219a9c42","null","null","<p style=""font-size: 60px; font-family: BACS"">NkUAlGc</p>","","","","","","","","","",""
"html-keyboard-response","393","465003","0.0-15.0-0.62","60d8873c18e520a7d5ae555f","64e77d7b61f440b60e28659d","64ec9d62348abeb2219a9c42","null","null","<p style=""font-size: 60px; font-family: BACS"">NkUAlGc</p>","","","","","","","","","",""
"html-keyboard-response","394","466006","0.0-15.0-0.63","60d8873c18e520a7d5ae555f","64e77d7b61f440b60e28659d","64ec9d62348abeb2219a9c42","null","null","<p style=""font-size: 60px; font-family: BACS"">NkUAlGc</p>","","","","","","","","","",""
"html-keyboard-response","395","467008","0.0-15.0-0.64","60d8873c18e520a7d5ae555f","64e77d7b61f440b60e28659d","64ec9d62348abeb2219a9c42","null","null","<p style=""font-size: 60px; font-family: BACS"">NkUAlGc</p>","","","","","","","","","",""
