"trial_type","trial_index","time_elapsed","internal_node_id","subject_id","study_id","session_id","rt","response","stimulus","success","item","task","correct_response","testing_condition","correct","target","confound","name"
"pavlovia","0","1446","0.0-0.0","6172078b966225960be2a7b5","650c16f0f2faf8d7a0d14c09","651c1bf9698d5e803271ef39","","","","","","","","","","","",""
"survey-html-form","1","10032","0.0-1.0","6172078b966225960be2a7b5","650c16f0f2faf8d7a0d14c09","651c1bf9698d5e803271ef39","8580","{""ID"":""6172078b966225960be2a7b5""}","","","","","","","","","",""
"html-keyboard-response","2","18092","0.0-2.0","6172078b966225960be2a7b5","650c16f0f2faf8d7a0d14c09","651c1bf9698d5e803271ef39","8056"," ","<p style=""font-size: 15px;"">Before beginning, we ask that you read the consent information and confirm your agreement to participate in the experiment.</p>
      <p style=""font-size: 15px;""> We ask that you remember that this is a research project and that your participation is entirely voluntary. You can stop your participation at any time, without needing to provide any explanation. The study we're asking you to participate in aims at examining how readers process written words. You will be engaged in a session of apprximately 20 minutes, followed by a brief questionnaire. You will have the opportunity to take a few breaks during the experiment. You will be paid £4 for your participation, corresponding to a rate of £8/hour. While this experiment looks at cognitive faculties, this experiment doesn't constitute clinical proof of eventual pathologies.</p>
      <p style=""font-size: 15px;"">All of the information collected thanks to yours and others' participation will be held in a secure password-protected server, and will not be shared with anyone not authorised to view it. Your personal information will be kept with an arbitrary participant ID. Thanks to this data anonymity process, any researcher analysing the data won't be able to track the information back to a specific participant. Therefore, this process will make identifying you impossibile, even when results from the study will be published in scientific reviews, presented at congresses, or at any other public forum. More generally, the collected data will be treated in accordance with the laws on privacy and conformity to the Legislative Degree n. 196 ""Code regarding the protection of personal data"" of the 30th of June 2003 and to the European Regulation 2016/670 (General Data Protection Regulation - GDPR). The Data Protection Officer is Avv. Valentina Carollo, who can be contacted at the following email addresses: <a href=""mailto:dpo@sissa.it"">dpo@sissa.it</a> or <a href=""mailto:rpd@sissa.it"">rpd@sissa.it</a> - PEC: <a href=""mailto:protocollo@pec.sissa.it"">protocollo@pec.sissa.it</a>.</p>
      <p style=""font-size: 15px;""> Before expressing your consent to participate, we would like to remind you again that in case you need explanations on any aspect of the experimental procedure, the researcher is at your disposition (<a href=""mailto:aliebelt@sissa.it"">aliebelt@sissa.it</a>, <a href=""mailto:davide.crepaldi@sissa.it"">davide.crepaldi@sissa.it</a>).</p>
      <p style=""font-size: 15px;"">If you would like to download the informed consent form, you can do so here: <a href=""BASL-Informed_Consent.pdf"" download>informed consent form</a>.</p>
      <p style=""font-size: 15px;"">We ask that you press the spacebar to proceed to the consent section.</p>","","","","","","","","",""
"survey-html-form","3","38519","0.0-3.0","6172078b966225960be2a7b5","650c16f0f2faf8d7a0d14c09","651c1bf9698d5e803271ef39","20423","{""consent1"":""YES"",""consent2"":""YES"",""consent3"":""YES"",""consent4"":""YES"",""consent5"":""YES"",""consent6"":""YES""}","","","","","","","","","",""
"fullscreen","4","45154","0.0-4.0","6172078b966225960be2a7b5","650c16f0f2faf8d7a0d14c09","651c1bf9698d5e803271ef39","","","","true","","","","","","","",""
"html-keyboard-response","5","59697","0.0-5.0","6172078b966225960be2a7b5","650c16f0f2faf8d7a0d14c09","651c1bf9698d5e803271ef39","14540"," ","<p>Welcome, and thank you very much for your time!</p>
      <p>In this experiment, you'll be a language expert who's been asked to take a look at words that Earth has received in its first communication with aliens. Your task, in this first part of the experiment, is to pay close attention to the words you'll be shown; later, world leaders will ask you questions on what you saw. The words will be shown to you quite quickly; it seems that the aliens were in a hurry :-)</p>
      <p>Press the spacebar to continue.<p>","","","","","","","","",""
"html-keyboard-response","6","59753","0.0-6.0","6172078b966225960be2a7b5","650c16f0f2faf8d7a0d14c09","651c1bf9698d5e803271ef39","null","null","<p style=""font-size: 120px; font-family: BACS""> </p>","","","","","","","","",""
"html-keyboard-response","7","64939","0.0-7.0","6172078b966225960be2a7b5","650c16f0f2faf8d7a0d14c09","651c1bf9698d5e803271ef39","5184"," ","<p>Here is an example of the words you'll see:</p>
      <img src='esempio.png' height='400px'>
      <p>When you're ready to begin, press the spacebar.</p></div>","","","","","","","","",""
"html-keyboard-response","8","65947","0.0-8.0-0.0","6172078b966225960be2a7b5","650c16f0f2faf8d7a0d14c09","651c1bf9698d5e803271ef39","null","null","<p style=""font-size: 60px; font-family: BACS"">rGUAYdYAJ</p>","","","","","","","","",""
"html-keyboard-response","9","66961","0.0-8.0-0.1","6172078b966225960be2a7b5","650c16f0f2faf8d7a0d14c09","651c1bf9698d5e803271ef39","null","null","<p style=""font-size: 60px; font-family: BACS"">TdTDBRDh</p>","","","","","","","","",""
"html-keyboard-response","10","67978","0.0-8.0-0.2","6172078b966225960be2a7b5","650c16f0f2faf8d7a0d14c09","651c1bf9698d5e803271ef39","null","null","<p style=""font-size: 60px; font-family: BACS"">mBmlAYht</p>","","","","","","","","",""
"html-keyboard-response","11","68986","0.0-8.0-0.3","6172078b966225960be2a7b5","650c16f0f2faf8d7a0d14c09","651c1bf9698d5e803271ef39","null","null","<p style=""font-size: 60px; font-family: BACS"">NLQGmkuvb</p>","","","","","","","","",""
"html-keyboard-response","12","69994","0.0-8.0-0.4","6172078b966225960be2a7b5","650c16f0f2faf8d7a0d14c09","651c1bf9698d5e803271ef39","null","null","<p style=""font-size: 60px; font-family: BACS"">rGUAYcrdY</p>","","","","","","","","",""
"html-keyboard-response","13","71018","0.0-8.0-0.5","6172078b966225960be2a7b5","650c16f0f2faf8d7a0d14c09","651c1bf9698d5e803271ef39","null","null","<p style=""font-size: 60px; font-family: BACS"">TdTDlMck</p>","","","","","","","","",""
"html-keyboard-response","14","72029","0.0-8.0-0.6","6172078b966225960be2a7b5","650c16f0f2faf8d7a0d14c09","651c1bf9698d5e803271ef39","null","null","<p style=""font-size: 60px; font-family: BACS"">vQdOdYAJ</p>","","","","","","","","",""
"html-keyboard-response","15","73049","0.0-8.0-0.7","6172078b966225960be2a7b5","650c16f0f2faf8d7a0d14c09","651c1bf9698d5e803271ef39","null","null","<p style=""font-size: 60px; font-family: BACS"">dRhtTbk</p>","","","","","","","","",""
"html-keyboard-response","16","74077","0.0-8.0-0.8","6172078b966225960be2a7b5","650c16f0f2faf8d7a0d14c09","651c1bf9698d5e803271ef39","null","null","<p style=""font-size: 60px; font-family: BACS"">UJkGdYAJ</p>","","","","","","","","",""
"html-keyboard-response","17","75080","0.0-8.0-0.9","6172078b966225960be2a7b5","650c16f0f2faf8d7a0d14c09","651c1bf9698d5e803271ef39","null","null","<p style=""font-size: 60px; font-family: BACS"">advYOZvkL</p>","","","","","","","","",""
"html-keyboard-response","18","76088","0.0-8.0-0.10","6172078b966225960be2a7b5","650c16f0f2faf8d7a0d14c09","651c1bf9698d5e803271ef39","null","null","<p style=""font-size: 60px; font-family: BACS"">UvOGdYAJ</p>","","","","","","","","",""
"html-keyboard-response","19","77097","0.0-8.0-0.11","6172078b966225960be2a7b5","650c16f0f2faf8d7a0d14c09","651c1bf9698d5e803271ef39","null","null","<p style=""font-size: 60px; font-family: BACS"">hlbtbYht</p>","","","","","","","","",""
"html-keyboard-response","20","78111","0.0-8.0-0.12","6172078b966225960be2a7b5","650c16f0f2faf8d7a0d14c09","651c1bf9698d5e803271ef39","null","null","<p style=""font-size: 60px; font-family: BACS"">UvOGZvkL</p>","","","","","","","","",""
"html-keyboard-response","21","79127","0.0-8.0-0.13","6172078b966225960be2a7b5","650c16f0f2faf8d7a0d14c09","651c1bf9698d5e803271ef39","null","null","<p style=""font-size: 60px; font-family: BACS"">tmAKTbk</p>","","","","","","","","",""
"html-keyboard-response","22","80131","0.0-8.0-0.14","6172078b966225960be2a7b5","650c16f0f2faf8d7a0d14c09","651c1bf9698d5e803271ef39","null","null","<p style=""font-size: 60px; font-family: BACS"">Amaclkuvb</p>","","","","","","","","",""
"html-keyboard-response","23","81139","0.0-8.0-0.15","6172078b966225960be2a7b5","650c16f0f2faf8d7a0d14c09","651c1bf9698d5e803271ef39","null","null","<p style=""font-size: 60px; font-family: BACS"">RYtkcPMYm</p>","","","","","","","","",""
"html-keyboard-response","24","82152","0.0-8.0-0.16","6172078b966225960be2a7b5","650c16f0f2faf8d7a0d14c09","651c1bf9698d5e803271ef39","null","null","<p style=""font-size: 60px; font-family: BACS"">dRhtBRDh</p>","","","","","","","","",""
"html-keyboard-response","25","83159","0.0-8.0-0.17","6172078b966225960be2a7b5","650c16f0f2faf8d7a0d14c09","651c1bf9698d5e803271ef39","null","null","<p style=""font-size: 60px; font-family: BACS"">UvOGZAUu</p>","","","","","","","","",""
"html-keyboard-response","26","84173","0.0-8.0-0.18","6172078b966225960be2a7b5","650c16f0f2faf8d7a0d14c09","651c1bf9698d5e803271ef39","null","null","<p style=""font-size: 60px; font-family: BACS"">tmtEMTbk</p>","","","","","","","","",""
"html-keyboard-response","27","85194","0.0-8.0-0.19","6172078b966225960be2a7b5","650c16f0f2faf8d7a0d14c09","651c1bf9698d5e803271ef39","null","null","<p style=""font-size: 60px; font-family: BACS"">GAcYcrdY</p>","","","","","","","","",""
"html-keyboard-response","28","86210","0.0-8.0-0.20","6172078b966225960be2a7b5","650c16f0f2faf8d7a0d14c09","651c1bf9698d5e803271ef39","null","null","<p style=""font-size: 60px; font-family: BACS"">vQdOkuvb</p>","","","","","","","","",""
"html-keyboard-response","29","87216","0.0-8.0-0.21","6172078b966225960be2a7b5","650c16f0f2faf8d7a0d14c09","651c1bf9698d5e803271ef39","null","null","<p style=""font-size: 60px; font-family: BACS"">tmtEMlMck</p>","","","","","","","","",""
"html-keyboard-response","30","88223","0.0-8.0-0.22","6172078b966225960be2a7b5","650c16f0f2faf8d7a0d14c09","651c1bf9698d5e803271ef39","null","null","<p style=""font-size: 60px; font-family: BACS"">btlckYht</p>","","","","","","","","",""
"html-keyboard-response","31","89239","0.0-8.0-0.23","6172078b966225960be2a7b5","650c16f0f2faf8d7a0d14c09","651c1bf9698d5e803271ef39","null","null","<p style=""font-size: 60px; font-family: BACS"">tmAKPMYm</p>","","","","","","","","",""
"html-keyboard-response","32","90244","0.0-8.0-0.24","6172078b966225960be2a7b5","650c16f0f2faf8d7a0d14c09","651c1bf9698d5e803271ef39","null","null","<p style=""font-size: 60px; font-family: BACS"">mBmlAlMck</p>","","","","","","","","",""
"html-keyboard-response","33","91254","0.0-8.0-0.25","6172078b966225960be2a7b5","650c16f0f2faf8d7a0d14c09","651c1bf9698d5e803271ef39","null","null","<p style=""font-size: 60px; font-family: BACS"">btlckPMYm</p>","","","","","","","","",""
"html-keyboard-response","34","92271","0.0-8.0-0.26","6172078b966225960be2a7b5","650c16f0f2faf8d7a0d14c09","651c1bf9698d5e803271ef39","null","null","<p style=""font-size: 60px; font-family: BACS"">NLQGmZvkL</p>","","","","","","","","",""
"html-keyboard-response","35","93286","0.0-8.0-0.27","6172078b966225960be2a7b5","650c16f0f2faf8d7a0d14c09","651c1bf9698d5e803271ef39","null","null","<p style=""font-size: 60px; font-family: BACS"">TdTDPMYm</p>","","","","","","","","",""
"html-keyboard-response","36","94293","0.0-8.0-0.28","6172078b966225960be2a7b5","650c16f0f2faf8d7a0d14c09","651c1bf9698d5e803271ef39","null","null","<p style=""font-size: 60px; font-family: BACS"">vmuLlkuvb</p>","","","","","","","","",""
"html-keyboard-response","37","95305","0.0-8.0-0.29","6172078b966225960be2a7b5","650c16f0f2faf8d7a0d14c09","651c1bf9698d5e803271ef39","null","null","<p style=""font-size: 60px; font-family: BACS"">tmtEMYht</p>","","","","","","","","",""
"html-keyboard-response","38","96310","0.0-8.0-0.30","6172078b966225960be2a7b5","650c16f0f2faf8d7a0d14c09","651c1bf9698d5e803271ef39","null","null","<p style=""font-size: 60px; font-family: BACS"">AmaclcrdY</p>","","","","","","","","",""
"html-keyboard-response","39","97317","0.0-8.0-0.31","6172078b966225960be2a7b5","650c16f0f2faf8d7a0d14c09","651c1bf9698d5e803271ef39","null","null","<p style=""font-size: 60px; font-family: BACS"">OYuvbZAUu</p>","","","","","","","","",""
"html-keyboard-response","40","98332","0.0-8.0-0.32","6172078b966225960be2a7b5","650c16f0f2faf8d7a0d14c09","651c1bf9698d5e803271ef39","null","null","<p style=""font-size: 60px; font-family: BACS"">tmAKlMck</p>","","","","","","","","",""
"html-keyboard-response","41","99350","0.0-8.0-0.33","6172078b966225960be2a7b5","650c16f0f2faf8d7a0d14c09","651c1bf9698d5e803271ef39","null","null","<p style=""font-size: 60px; font-family: BACS"">GAcYZAUu</p>","","","","","","","","",""
"html-keyboard-response","42","100361","0.0-8.0-0.34","6172078b966225960be2a7b5","650c16f0f2faf8d7a0d14c09","651c1bf9698d5e803271ef39","null","null","<p style=""font-size: 60px; font-family: BACS"">RYtkcYht</p>","","","","","","","","",""
"html-keyboard-response","43","101373","0.0-8.0-0.35","6172078b966225960be2a7b5","650c16f0f2faf8d7a0d14c09","651c1bf9698d5e803271ef39","null","null","<p style=""font-size: 60px; font-family: BACS"">TdmABRDh</p>","","","","","","","","",""
"html-keyboard-response","44","102376","0.0-8.0-0.36","6172078b966225960be2a7b5","650c16f0f2faf8d7a0d14c09","651c1bf9698d5e803271ef39","null","null","<p style=""font-size: 60px; font-family: BACS"">MBmEYht</p>","","","","","","","","",""
"html-keyboard-response","45","103387","0.0-8.0-0.37","6172078b966225960be2a7b5","650c16f0f2faf8d7a0d14c09","651c1bf9698d5e803271ef39","null","null","<p style=""font-size: 60px; font-family: BACS"">btlcklMck</p>","","","","","","","","",""
"html-keyboard-response","46","104402","0.0-8.0-0.38","6172078b966225960be2a7b5","650c16f0f2faf8d7a0d14c09","651c1bf9698d5e803271ef39","null","null","<p style=""font-size: 60px; font-family: BACS"">AmaclZAUu</p>","","","","","","","","",""
"html-keyboard-response","47","105416","0.0-8.0-0.39","6172078b966225960be2a7b5","650c16f0f2faf8d7a0d14c09","651c1bf9698d5e803271ef39","null","null","<p style=""font-size: 60px; font-family: BACS"">RYtkclMck</p>","","","","","","","","",""
"html-keyboard-response","48","106422","0.0-8.0-0.40","6172078b966225960be2a7b5","650c16f0f2faf8d7a0d14c09","651c1bf9698d5e803271ef39","null","null","<p style=""font-size: 60px; font-family: BACS"">vmuLlcrdY</p>","","","","","","","","",""
"html-keyboard-response","49","107435","0.0-8.0-0.41","6172078b966225960be2a7b5","650c16f0f2faf8d7a0d14c09","651c1bf9698d5e803271ef39","null","null","<p style=""font-size: 60px; font-family: BACS"">AmaclZvkL</p>","","","","","","","","",""
"html-keyboard-response","50","108450","0.0-8.0-0.42","6172078b966225960be2a7b5","650c16f0f2faf8d7a0d14c09","651c1bf9698d5e803271ef39","null","null","<p style=""font-size: 60px; font-family: BACS"">rGUAYkuvb</p>","","","","","","","","",""
"html-keyboard-response","51","109466","0.0-8.0-0.43","6172078b966225960be2a7b5","650c16f0f2faf8d7a0d14c09","651c1bf9698d5e803271ef39","null","null","<p style=""font-size: 60px; font-family: BACS"">vmuLldYAJ</p>","","","","","","","","",""
"html-keyboard-response","52","110469","0.0-8.0-0.44","6172078b966225960be2a7b5","650c16f0f2faf8d7a0d14c09","651c1bf9698d5e803271ef39","null","null","<p style=""font-size: 60px; font-family: BACS"">MBmEPMYm</p>","","","","","","","","",""
"html-keyboard-response","53","111486","0.0-8.0-0.45","6172078b966225960be2a7b5","650c16f0f2faf8d7a0d14c09","651c1bf9698d5e803271ef39","null","null","<p style=""font-size: 60px; font-family: BACS"">UJkGZAUu</p>","","","","","","","","",""
"html-keyboard-response","54","112492","0.0-8.0-0.46","6172078b966225960be2a7b5","650c16f0f2faf8d7a0d14c09","651c1bf9698d5e803271ef39","null","null","<p style=""font-size: 60px; font-family: BACS"">vmuLlZvkL</p>","","","","","","","","",""
"html-keyboard-response","55","113499","0.0-8.0-0.47","6172078b966225960be2a7b5","650c16f0f2faf8d7a0d14c09","651c1bf9698d5e803271ef39","null","null","<p style=""font-size: 60px; font-family: BACS"">vQdOcrdY</p>","","","","","","","","",""
"html-keyboard-response","56","114505","0.0-8.0-0.48","6172078b966225960be2a7b5","650c16f0f2faf8d7a0d14c09","651c1bf9698d5e803271ef39","null","null","<p style=""font-size: 60px; font-family: BACS"">MBmEBRDh</p>","","","","","","","","",""
"html-keyboard-response","57","115516","0.0-8.0-0.49","6172078b966225960be2a7b5","650c16f0f2faf8d7a0d14c09","651c1bf9698d5e803271ef39","null","null","<p style=""font-size: 60px; font-family: BACS"">TdmAYht</p>","","","","","","","","",""
"html-keyboard-response","58","116534","0.0-8.0-0.50","6172078b966225960be2a7b5","650c16f0f2faf8d7a0d14c09","651c1bf9698d5e803271ef39","null","null","<p style=""font-size: 60px; font-family: BACS"">advYOkuvb</p>","","","","","","","","",""
"html-keyboard-response","59","117548","0.0-8.0-0.51","6172078b966225960be2a7b5","650c16f0f2faf8d7a0d14c09","651c1bf9698d5e803271ef39","null","null","<p style=""font-size: 60px; font-family: BACS"">btlckTbk</p>","","","","","","","","",""
"html-keyboard-response","60","118556","0.0-8.0-0.52","6172078b966225960be2a7b5","650c16f0f2faf8d7a0d14c09","651c1bf9698d5e803271ef39","null","null","<p style=""font-size: 60px; font-family: BACS"">NLQGmcrdY</p>","","","","","","","","",""
"html-keyboard-response","61","119567","0.0-8.0-0.53","6172078b966225960be2a7b5","650c16f0f2faf8d7a0d14c09","651c1bf9698d5e803271ef39","null","null","<p style=""font-size: 60px; font-family: BACS"">GAcYdYAJ</p>","","","","","","","","",""
"html-keyboard-response","62","120577","0.0-8.0-0.54","6172078b966225960be2a7b5","650c16f0f2faf8d7a0d14c09","651c1bf9698d5e803271ef39","null","null","<p style=""font-size: 60px; font-family: BACS"">vQdOZvkL</p>","","","","","","","","",""
"html-keyboard-response","63","121595","0.0-8.0-0.55","6172078b966225960be2a7b5","650c16f0f2faf8d7a0d14c09","651c1bf9698d5e803271ef39","null","null","<p style=""font-size: 60px; font-family: BACS"">OYuvbcrdY</p>","","","","","","","","",""
"html-keyboard-response","64","122601","0.0-8.0-0.56","6172078b966225960be2a7b5","650c16f0f2faf8d7a0d14c09","651c1bf9698d5e803271ef39","null","null","<p style=""font-size: 60px; font-family: BACS"">hlbtblMck</p>","","","","","","","","",""
"html-keyboard-response","65","123612","0.0-8.0-0.57","6172078b966225960be2a7b5","650c16f0f2faf8d7a0d14c09","651c1bf9698d5e803271ef39","null","null","<p style=""font-size: 60px; font-family: BACS"">tmtEMBRDh</p>","","","","","","","","",""
"html-keyboard-response","66","124629","0.0-8.0-0.58","6172078b966225960be2a7b5","650c16f0f2faf8d7a0d14c09","651c1bf9698d5e803271ef39","null","null","<p style=""font-size: 60px; font-family: BACS"">dRhtPMYm</p>","","","","","","","","",""
"html-keyboard-response","67","125634","0.0-8.0-0.59","6172078b966225960be2a7b5","650c16f0f2faf8d7a0d14c09","651c1bf9698d5e803271ef39","null","null","<p style=""font-size: 60px; font-family: BACS"">rGUAYZAUu</p>","","","","","","","","",""
"html-keyboard-response","68","126639","0.0-8.0-0.60","6172078b966225960be2a7b5","650c16f0f2faf8d7a0d14c09","651c1bf9698d5e803271ef39","null","null","<p style=""font-size: 60px; font-family: BACS"">RYtkcBRDh</p>","","","","","","","","",""
"html-keyboard-response","69","127643","0.0-8.0-0.61","6172078b966225960be2a7b5","650c16f0f2faf8d7a0d14c09","651c1bf9698d5e803271ef39","null","null","<p style=""font-size: 60px; font-family: BACS"">advYOdYAJ</p>","","","","","","","","",""
"html-keyboard-response","70","128649","0.0-8.0-0.62","6172078b966225960be2a7b5","650c16f0f2faf8d7a0d14c09","651c1bf9698d5e803271ef39","null","null","<p style=""font-size: 60px; font-family: BACS"">OYuvbkuvb</p>","","","","","","","","",""
"html-keyboard-response","71","129651","0.0-8.0-0.63","6172078b966225960be2a7b5","650c16f0f2faf8d7a0d14c09","651c1bf9698d5e803271ef39","null","null","<p style=""font-size: 60px; font-family: BACS"">UJkGZvkL</p>","","","","","","","","",""
"html-keyboard-response","72","130663","0.0-8.0-0.64","6172078b966225960be2a7b5","650c16f0f2faf8d7a0d14c09","651c1bf9698d5e803271ef39","null","null","<p style=""font-size: 60px; font-family: BACS"">OYuvbdYAJ</p>","","","","","","","","",""
"html-keyboard-response","73","131680","0.0-8.0-0.65","6172078b966225960be2a7b5","650c16f0f2faf8d7a0d14c09","651c1bf9698d5e803271ef39","null","null","<p style=""font-size: 60px; font-family: BACS"">mBmlABRDh</p>","","","","","","","","",""
"html-keyboard-response","74","132690","0.0-8.0-0.66","6172078b966225960be2a7b5","650c16f0f2faf8d7a0d14c09","651c1bf9698d5e803271ef39","null","null","<p style=""font-size: 60px; font-family: BACS"">TdmATbk</p>","","","","","","","","",""
"html-keyboard-response","75","133699","0.0-8.0-0.67","6172078b966225960be2a7b5","650c16f0f2faf8d7a0d14c09","651c1bf9698d5e803271ef39","null","null","<p style=""font-size: 60px; font-family: BACS"">UvOGcrdY</p>","","","","","","","","",""
"html-keyboard-response","76","134715","0.0-8.0-0.68","6172078b966225960be2a7b5","650c16f0f2faf8d7a0d14c09","651c1bf9698d5e803271ef39","null","null","<p style=""font-size: 60px; font-family: BACS"">MBmETbk</p>","","","","","","","","",""
"html-keyboard-response","77","135729","0.0-8.0-0.69","6172078b966225960be2a7b5","650c16f0f2faf8d7a0d14c09","651c1bf9698d5e803271ef39","null","null","<p style=""font-size: 60px; font-family: BACS"">dRhtlMck</p>","","","","","","","","",""
"html-keyboard-response","78","136745","0.0-8.0-0.70","6172078b966225960be2a7b5","650c16f0f2faf8d7a0d14c09","651c1bf9698d5e803271ef39","null","null","<p style=""font-size: 60px; font-family: BACS"">UJkGkuvb</p>","","","","","","","","",""
"html-keyboard-response","79","137751","0.0-8.0-0.71","6172078b966225960be2a7b5","650c16f0f2faf8d7a0d14c09","651c1bf9698d5e803271ef39","null","null","<p style=""font-size: 60px; font-family: BACS"">mBmlATbk</p>","","","","","","","","",""
"html-keyboard-response","80","138769","0.0-8.0-0.72","6172078b966225960be2a7b5","650c16f0f2faf8d7a0d14c09","651c1bf9698d5e803271ef39","null","null","<p style=""font-size: 60px; font-family: BACS"">hlbtbBRDh</p>","","","","","","","","",""
"html-keyboard-response","81","139786","0.0-8.0-0.73","6172078b966225960be2a7b5","650c16f0f2faf8d7a0d14c09","651c1bf9698d5e803271ef39","null","null","<p style=""font-size: 60px; font-family: BACS"">TdTDTbk</p>","","","","","","","","",""
"html-keyboard-response","82","140790","0.0-8.0-0.74","6172078b966225960be2a7b5","650c16f0f2faf8d7a0d14c09","651c1bf9698d5e803271ef39","null","null","<p style=""font-size: 60px; font-family: BACS"">tmAKYht</p>","","","","","","","","",""
"html-keyboard-response","83","141806","0.0-8.0-0.75","6172078b966225960be2a7b5","650c16f0f2faf8d7a0d14c09","651c1bf9698d5e803271ef39","null","null","<p style=""font-size: 60px; font-family: BACS"">NLQGmZAUu</p>","","","","","","","","",""
"html-keyboard-response","84","142818","0.0-8.0-0.76","6172078b966225960be2a7b5","650c16f0f2faf8d7a0d14c09","651c1bf9698d5e803271ef39","null","null","<p style=""font-size: 60px; font-family: BACS"">GAcYZvkL</p>","","","","","","","","",""
"html-keyboard-response","85","143828","0.0-8.0-0.77","6172078b966225960be2a7b5","650c16f0f2faf8d7a0d14c09","651c1bf9698d5e803271ef39","null","null","<p style=""font-size: 60px; font-family: BACS"">TdmAPMYm</p>","","","","","","","","",""
"html-keyboard-response","86","144833","0.0-8.0-0.78","6172078b966225960be2a7b5","650c16f0f2faf8d7a0d14c09","651c1bf9698d5e803271ef39","null","null","<p style=""font-size: 60px; font-family: BACS"">advYOZAUu</p>","","","","","","","","",""
"html-keyboard-response","87","145841","0.0-8.0-0.79","6172078b966225960be2a7b5","650c16f0f2faf8d7a0d14c09","651c1bf9698d5e803271ef39","null","null","<p style=""font-size: 60px; font-family: BACS"">hlbtbPMYm</p>","","","","","","","","",""
"html-keyboard-response","88","150462","0.0-9.0","6172078b966225960be2a7b5","650c16f0f2faf8d7a0d14c09","651c1bf9698d5e803271ef39","4618"," ","<p>Great, you've seen the first block of words. You may now take a short break.</p>
      <p>Press the spacebar when you're ready to continue.</p>","","","","","","","","",""
"html-keyboard-response","89","151466","0.0-10.0-0.0","6172078b966225960be2a7b5","650c16f0f2faf8d7a0d14c09","651c1bf9698d5e803271ef39","null","null","<p style=""font-size: 60px; font-family: BACS"">UvOGZAUu</p>","","","","","","","","",""
"html-keyboard-response","90","152474","0.0-10.0-0.1","6172078b966225960be2a7b5","650c16f0f2faf8d7a0d14c09","651c1bf9698d5e803271ef39","null","null","<p style=""font-size: 60px; font-family: BACS"">AmaclZvkL</p>","","","","","","","","",""
"html-keyboard-response","91","153488","0.0-10.0-0.2","6172078b966225960be2a7b5","650c16f0f2faf8d7a0d14c09","651c1bf9698d5e803271ef39","null","null","<p style=""font-size: 60px; font-family: BACS"">btlckYht</p>","","","","","","","","",""
"html-keyboard-response","92","154503","0.0-10.0-0.3","6172078b966225960be2a7b5","650c16f0f2faf8d7a0d14c09","651c1bf9698d5e803271ef39","null","null","<p style=""font-size: 60px; font-family: BACS"">TdmAPMYm</p>","","","","","","","","",""
"html-keyboard-response","93","155516","0.0-10.0-0.4","6172078b966225960be2a7b5","650c16f0f2faf8d7a0d14c09","651c1bf9698d5e803271ef39","null","null","<p style=""font-size: 60px; font-family: BACS"">OYuvbcrdY</p>","","","","","","","","",""
"html-keyboard-response","94","156525","0.0-10.0-0.5","6172078b966225960be2a7b5","650c16f0f2faf8d7a0d14c09","651c1bf9698d5e803271ef39","null","null","<p style=""font-size: 60px; font-family: BACS"">hlbtbYht</p>","","","","","","","","",""
"html-keyboard-response","95","157534","0.0-10.0-0.6","6172078b966225960be2a7b5","650c16f0f2faf8d7a0d14c09","651c1bf9698d5e803271ef39","null","null","<p style=""font-size: 60px; font-family: BACS"">advYOZAUu</p>","","","","","","","","",""
"html-keyboard-response","96","158552","0.0-10.0-0.7","6172078b966225960be2a7b5","650c16f0f2faf8d7a0d14c09","651c1bf9698d5e803271ef39","null","null","<p style=""font-size: 60px; font-family: BACS"">hlbtbPMYm</p>","","","","","","","","",""
"html-keyboard-response","97","159569","0.0-10.0-0.8","6172078b966225960be2a7b5","650c16f0f2faf8d7a0d14c09","651c1bf9698d5e803271ef39","null","null","<p style=""font-size: 60px; font-family: BACS"">btlckTbk</p>","","","","","","","","",""
"html-keyboard-response","98","160583","0.0-10.0-0.9","6172078b966225960be2a7b5","650c16f0f2faf8d7a0d14c09","651c1bf9698d5e803271ef39","null","null","<p style=""font-size: 60px; font-family: BACS"">TdTDBRDh</p>","","","","","","","","",""
"html-keyboard-response","99","161596","0.0-10.0-0.10","6172078b966225960be2a7b5","650c16f0f2faf8d7a0d14c09","651c1bf9698d5e803271ef39","null","null","<p style=""font-size: 60px; font-family: BACS"">vmuLlZvkL</p>","","","","","","","","",""
"html-keyboard-response","100","162606","0.0-10.0-0.11","6172078b966225960be2a7b5","650c16f0f2faf8d7a0d14c09","651c1bf9698d5e803271ef39","null","null","<p style=""font-size: 60px; font-family: BACS"">TdTDlMck</p>","","","","","","","","",""
"html-keyboard-response","101","163617","0.0-10.0-0.12","6172078b966225960be2a7b5","650c16f0f2faf8d7a0d14c09","651c1bf9698d5e803271ef39","null","null","<p style=""font-size: 60px; font-family: BACS"">vmuLldYAJ</p>","","","","","","","","",""
"html-keyboard-response","102","164635","0.0-10.0-0.13","6172078b966225960be2a7b5","650c16f0f2faf8d7a0d14c09","651c1bf9698d5e803271ef39","null","null","<p style=""font-size: 60px; font-family: BACS"">vQdOcrdY</p>","","","","","","","","",""
"html-keyboard-response","103","165638","0.0-10.0-0.14","6172078b966225960be2a7b5","650c16f0f2faf8d7a0d14c09","651c1bf9698d5e803271ef39","null","null","<p style=""font-size: 60px; font-family: BACS"">btlckPMYm</p>","","","","","","","","",""
"html-keyboard-response","104","166649","0.0-10.0-0.15","6172078b966225960be2a7b5","650c16f0f2faf8d7a0d14c09","651c1bf9698d5e803271ef39","null","null","<p style=""font-size: 60px; font-family: BACS"">mBmlATbk</p>","","","","","","","","",""
"html-keyboard-response","105","167652","0.0-10.0-0.16","6172078b966225960be2a7b5","650c16f0f2faf8d7a0d14c09","651c1bf9698d5e803271ef39","null","null","<p style=""font-size: 60px; font-family: BACS"">dRhtBRDh</p>","","","","","","","","",""
"html-keyboard-response","106","168661","0.0-10.0-0.17","6172078b966225960be2a7b5","650c16f0f2faf8d7a0d14c09","651c1bf9698d5e803271ef39","null","null","<p style=""font-size: 60px; font-family: BACS"">advYOkuvb</p>","","","","","","","","",""
"html-keyboard-response","107","169679","0.0-10.0-0.18","6172078b966225960be2a7b5","650c16f0f2faf8d7a0d14c09","651c1bf9698d5e803271ef39","null","null","<p style=""font-size: 60px; font-family: BACS"">NLQGmZvkL</p>","","","","","","","","",""
"html-keyboard-response","108","170691","0.0-10.0-0.19","6172078b966225960be2a7b5","650c16f0f2faf8d7a0d14c09","651c1bf9698d5e803271ef39","null","null","<p style=""font-size: 60px; font-family: BACS"">MBmEBRDh</p>","","","","","","","","",""
"html-keyboard-response","109","171708","0.0-10.0-0.20","6172078b966225960be2a7b5","650c16f0f2faf8d7a0d14c09","651c1bf9698d5e803271ef39","null","null","<p style=""font-size: 60px; font-family: BACS"">TdTDTbk</p>","","","","","","","","",""
"html-keyboard-response","110","172714","0.0-10.0-0.21","6172078b966225960be2a7b5","650c16f0f2faf8d7a0d14c09","651c1bf9698d5e803271ef39","null","null","<p style=""font-size: 60px; font-family: BACS"">tmAKlMck</p>","","","","","","","","",""
"html-keyboard-response","111","173724","0.0-10.0-0.22","6172078b966225960be2a7b5","650c16f0f2faf8d7a0d14c09","651c1bf9698d5e803271ef39","null","null","<p style=""font-size: 60px; font-family: BACS"">TdmAYht</p>","","","","","","","","",""
"html-keyboard-response","112","174741","0.0-10.0-0.23","6172078b966225960be2a7b5","650c16f0f2faf8d7a0d14c09","651c1bf9698d5e803271ef39","null","null","<p style=""font-size: 60px; font-family: BACS"">RYtkcBRDh</p>","","","","","","","","",""
"html-keyboard-response","113","175752","0.0-10.0-0.24","6172078b966225960be2a7b5","650c16f0f2faf8d7a0d14c09","651c1bf9698d5e803271ef39","null","null","<p style=""font-size: 60px; font-family: BACS"">vQdOkuvb</p>","","","","","","","","",""
"html-keyboard-response","114","176773","0.0-10.0-0.25","6172078b966225960be2a7b5","650c16f0f2faf8d7a0d14c09","651c1bf9698d5e803271ef39","null","null","<p style=""font-size: 60px; font-family: BACS"">NLQGmcrdY</p>","","","","","","","","",""
"html-keyboard-response","115","177777","0.0-10.0-0.26","6172078b966225960be2a7b5","650c16f0f2faf8d7a0d14c09","651c1bf9698d5e803271ef39","null","null","<p style=""font-size: 60px; font-family: BACS"">UJkGZvkL</p>","","","","","","","","",""
"html-keyboard-response","116","178793","0.0-10.0-0.27","6172078b966225960be2a7b5","650c16f0f2faf8d7a0d14c09","651c1bf9698d5e803271ef39","null","null","<p style=""font-size: 60px; font-family: BACS"">rGUAYcrdY</p>","","","","","","","","",""
"html-keyboard-response","117","179804","0.0-10.0-0.28","6172078b966225960be2a7b5","650c16f0f2faf8d7a0d14c09","651c1bf9698d5e803271ef39","null","null","<p style=""font-size: 60px; font-family: BACS"">MBmEPMYm</p>","","","","","","","","",""
"html-keyboard-response","118","180816","0.0-10.0-0.29","6172078b966225960be2a7b5","650c16f0f2faf8d7a0d14c09","651c1bf9698d5e803271ef39","null","null","<p style=""font-size: 60px; font-family: BACS"">btlcklMck</p>","","","","","","","","",""
"html-keyboard-response","119","181821","0.0-10.0-0.30","6172078b966225960be2a7b5","650c16f0f2faf8d7a0d14c09","651c1bf9698d5e803271ef39","null","null","<p style=""font-size: 60px; font-family: BACS"">OYuvbkuvb</p>","","","","","","","","",""
"html-keyboard-response","120","182833","0.0-10.0-0.31","6172078b966225960be2a7b5","650c16f0f2faf8d7a0d14c09","651c1bf9698d5e803271ef39","null","null","<p style=""font-size: 60px; font-family: BACS"">UvOGdYAJ</p>","","","","","","","","",""
"html-keyboard-response","121","183856","0.0-10.0-0.32","6172078b966225960be2a7b5","650c16f0f2faf8d7a0d14c09","651c1bf9698d5e803271ef39","null","null","<p style=""font-size: 60px; font-family: BACS"">NLQGmkuvb</p>","","","","","","","","",""
"html-keyboard-response","122","184867","0.0-10.0-0.33","6172078b966225960be2a7b5","650c16f0f2faf8d7a0d14c09","651c1bf9698d5e803271ef39","null","null","<p style=""font-size: 60px; font-family: BACS"">tmtEMTbk</p>","","","","","","","","",""
"html-keyboard-response","123","185872","0.0-10.0-0.34","6172078b966225960be2a7b5","650c16f0f2faf8d7a0d14c09","651c1bf9698d5e803271ef39","null","null","<p style=""font-size: 60px; font-family: BACS"">UvOGZvkL</p>","","","","","","","","",""
"html-keyboard-response","124","186889","0.0-10.0-0.35","6172078b966225960be2a7b5","650c16f0f2faf8d7a0d14c09","651c1bf9698d5e803271ef39","null","null","<p style=""font-size: 60px; font-family: BACS"">rGUAYdYAJ</p>","","","","","","","","",""
"html-keyboard-response","125","187897","0.0-10.0-0.36","6172078b966225960be2a7b5","650c16f0f2faf8d7a0d14c09","651c1bf9698d5e803271ef39","null","null","<p style=""font-size: 60px; font-family: BACS"">Amaclkuvb</p>","","","","","","","","",""
"html-keyboard-response","126","188903","0.0-10.0-0.37","6172078b966225960be2a7b5","650c16f0f2faf8d7a0d14c09","651c1bf9698d5e803271ef39","null","null","<p style=""font-size: 60px; font-family: BACS"">RYtkclMck</p>","","","","","","","","",""
"html-keyboard-response","127","189922","0.0-10.0-0.38","6172078b966225960be2a7b5","650c16f0f2faf8d7a0d14c09","651c1bf9698d5e803271ef39","null","null","<p style=""font-size: 60px; font-family: BACS"">UJkGZAUu</p>","","","","","","","","",""
"html-keyboard-response","128","190926","0.0-10.0-0.39","6172078b966225960be2a7b5","650c16f0f2faf8d7a0d14c09","651c1bf9698d5e803271ef39","null","null","<p style=""font-size: 60px; font-family: BACS"">tmtEMlMck</p>","","","","","","","","",""
"html-keyboard-response","129","191929","0.0-10.0-0.40","6172078b966225960be2a7b5","650c16f0f2faf8d7a0d14c09","651c1bf9698d5e803271ef39","null","null","<p style=""font-size: 60px; font-family: BACS"">vmuLlkuvb</p>","","","","","","","","",""
"html-keyboard-response","130","192930","0.0-10.0-0.41","6172078b966225960be2a7b5","650c16f0f2faf8d7a0d14c09","651c1bf9698d5e803271ef39","null","null","<p style=""font-size: 60px; font-family: BACS"">TdmATbk</p>","","","","","","","","",""
"html-keyboard-response","131","193938","0.0-10.0-0.42","6172078b966225960be2a7b5","650c16f0f2faf8d7a0d14c09","651c1bf9698d5e803271ef39","null","null","<p style=""font-size: 60px; font-family: BACS"">UvOGcrdY</p>","","","","","","","","",""
"html-keyboard-response","132","194945","0.0-10.0-0.43","6172078b966225960be2a7b5","650c16f0f2faf8d7a0d14c09","651c1bf9698d5e803271ef39","null","null","<p style=""font-size: 60px; font-family: BACS"">hlbtbBRDh</p>","","","","","","","","",""
"html-keyboard-response","133","195961","0.0-10.0-0.44","6172078b966225960be2a7b5","650c16f0f2faf8d7a0d14c09","651c1bf9698d5e803271ef39","null","null","<p style=""font-size: 60px; font-family: BACS"">UJkGdYAJ</p>","","","","","","","","",""
"html-keyboard-response","134","196977","0.0-10.0-0.45","6172078b966225960be2a7b5","650c16f0f2faf8d7a0d14c09","651c1bf9698d5e803271ef39","null","null","<p style=""font-size: 60px; font-family: BACS"">OYuvbZAUu</p>","","","","","","","","",""
"html-keyboard-response","135","197981","0.0-10.0-0.46","6172078b966225960be2a7b5","650c16f0f2faf8d7a0d14c09","651c1bf9698d5e803271ef39","null","null","<p style=""font-size: 60px; font-family: BACS"">advYOZvkL</p>","","","","","","","","",""
"html-keyboard-response","136","198997","0.0-10.0-0.47","6172078b966225960be2a7b5","650c16f0f2faf8d7a0d14c09","651c1bf9698d5e803271ef39","null","null","<p style=""font-size: 60px; font-family: BACS"">tmAKPMYm</p>","","","","","","","","",""
"html-keyboard-response","137","200015","0.0-10.0-0.48","6172078b966225960be2a7b5","650c16f0f2faf8d7a0d14c09","651c1bf9698d5e803271ef39","null","null","<p style=""font-size: 60px; font-family: BACS"">OYuvbdYAJ</p>","","","","","","","","",""
"html-keyboard-response","138","201033","0.0-10.0-0.49","6172078b966225960be2a7b5","650c16f0f2faf8d7a0d14c09","651c1bf9698d5e803271ef39","null","null","<p style=""font-size: 60px; font-family: BACS"">AmaclZAUu</p>","","","","","","","","",""
"html-keyboard-response","139","202053","0.0-10.0-0.50","6172078b966225960be2a7b5","650c16f0f2faf8d7a0d14c09","651c1bf9698d5e803271ef39","null","null","<p style=""font-size: 60px; font-family: BACS"">dRhtlMck</p>","","","","","","","","",""
"html-keyboard-response","140","203069","0.0-10.0-0.51","6172078b966225960be2a7b5","650c16f0f2faf8d7a0d14c09","651c1bf9698d5e803271ef39","null","null","<p style=""font-size: 60px; font-family: BACS"">GAcYZvkL</p>","","","","","","","","",""
"html-keyboard-response","141","204073","0.0-10.0-0.52","6172078b966225960be2a7b5","650c16f0f2faf8d7a0d14c09","651c1bf9698d5e803271ef39","null","null","<p style=""font-size: 60px; font-family: BACS"">NLQGmZAUu</p>","","","","","","","","",""
"html-keyboard-response","142","205083","0.0-10.0-0.53","6172078b966225960be2a7b5","650c16f0f2faf8d7a0d14c09","651c1bf9698d5e803271ef39","null","null","<p style=""font-size: 60px; font-family: BACS"">GAcYcrdY</p>","","","","","","","","",""
"html-keyboard-response","143","206098","0.0-10.0-0.54","6172078b966225960be2a7b5","650c16f0f2faf8d7a0d14c09","651c1bf9698d5e803271ef39","null","null","<p style=""font-size: 60px; font-family: BACS"">rGUAYZAUu</p>","","","","","","","","",""
"html-keyboard-response","144","207103","0.0-10.0-0.55","6172078b966225960be2a7b5","650c16f0f2faf8d7a0d14c09","651c1bf9698d5e803271ef39","null","null","<p style=""font-size: 60px; font-family: BACS"">RYtkcPMYm</p>","","","","","","","","",""
"html-keyboard-response","145","208114","0.0-10.0-0.56","6172078b966225960be2a7b5","650c16f0f2faf8d7a0d14c09","651c1bf9698d5e803271ef39","null","null","<p style=""font-size: 60px; font-family: BACS"">vmuLlcrdY</p>","","","","","","","","",""
"html-keyboard-response","146","209134","0.0-10.0-0.57","6172078b966225960be2a7b5","650c16f0f2faf8d7a0d14c09","651c1bf9698d5e803271ef39","null","null","<p style=""font-size: 60px; font-family: BACS"">advYOdYAJ</p>","","","","","","","","",""
"html-keyboard-response","147","210138","0.0-10.0-0.58","6172078b966225960be2a7b5","650c16f0f2faf8d7a0d14c09","651c1bf9698d5e803271ef39","null","null","<p style=""font-size: 60px; font-family: BACS"">hlbtblMck</p>","","","","","","","","",""
"html-keyboard-response","148","211145","0.0-10.0-0.59","6172078b966225960be2a7b5","650c16f0f2faf8d7a0d14c09","651c1bf9698d5e803271ef39","null","null","<p style=""font-size: 60px; font-family: BACS"">dRhtPMYm</p>","","","","","","","","",""
"html-keyboard-response","149","212153","0.0-10.0-0.60","6172078b966225960be2a7b5","650c16f0f2faf8d7a0d14c09","651c1bf9698d5e803271ef39","null","null","<p style=""font-size: 60px; font-family: BACS"">RYtkcYht</p>","","","","","","","","",""
"html-keyboard-response","150","213173","0.0-10.0-0.61","6172078b966225960be2a7b5","650c16f0f2faf8d7a0d14c09","651c1bf9698d5e803271ef39","null","null","<p style=""font-size: 60px; font-family: BACS"">dRhtTbk</p>","","","","","","","","",""
"html-keyboard-response","151","214192","0.0-10.0-0.62","6172078b966225960be2a7b5","650c16f0f2faf8d7a0d14c09","651c1bf9698d5e803271ef39","null","null","<p style=""font-size: 60px; font-family: BACS"">AmaclcrdY</p>","","","","","","","","",""
"html-keyboard-response","152","215202","0.0-10.0-0.63","6172078b966225960be2a7b5","650c16f0f2faf8d7a0d14c09","651c1bf9698d5e803271ef39","null","null","<p style=""font-size: 60px; font-family: BACS"">tmAKYht</p>","","","","","","","","",""
"html-keyboard-response","153","216223","0.0-10.0-0.64","6172078b966225960be2a7b5","650c16f0f2faf8d7a0d14c09","651c1bf9698d5e803271ef39","null","null","<p style=""font-size: 60px; font-family: BACS"">vQdOdYAJ</p>","","","","","","","","",""
"html-keyboard-response","154","217235","0.0-10.0-0.65","6172078b966225960be2a7b5","650c16f0f2faf8d7a0d14c09","651c1bf9698d5e803271ef39","null","null","<p style=""font-size: 60px; font-family: BACS"">MBmETbk</p>","","","","","","","","",""
"html-keyboard-response","155","218253","0.0-10.0-0.66","6172078b966225960be2a7b5","650c16f0f2faf8d7a0d14c09","651c1bf9698d5e803271ef39","null","null","<p style=""font-size: 60px; font-family: BACS"">tmtEMBRDh</p>","","","","","","","","",""
"html-keyboard-response","156","219274","0.0-10.0-0.67","6172078b966225960be2a7b5","650c16f0f2faf8d7a0d14c09","651c1bf9698d5e803271ef39","null","null","<p style=""font-size: 60px; font-family: BACS"">GAcYdYAJ</p>","","","","","","","","",""
"html-keyboard-response","157","220293","0.0-10.0-0.68","6172078b966225960be2a7b5","650c16f0f2faf8d7a0d14c09","651c1bf9698d5e803271ef39","null","null","<p style=""font-size: 60px; font-family: BACS"">TdmABRDh</p>","","","","","","","","",""
"html-keyboard-response","158","221313","0.0-10.0-0.69","6172078b966225960be2a7b5","650c16f0f2faf8d7a0d14c09","651c1bf9698d5e803271ef39","null","null","<p style=""font-size: 60px; font-family: BACS"">rGUAYkuvb</p>","","","","","","","","",""
"html-keyboard-response","159","222334","0.0-10.0-0.70","6172078b966225960be2a7b5","650c16f0f2faf8d7a0d14c09","651c1bf9698d5e803271ef39","null","null","<p style=""font-size: 60px; font-family: BACS"">mBmlAYht</p>","","","","","","","","",""
"html-keyboard-response","160","223344","0.0-10.0-0.71","6172078b966225960be2a7b5","650c16f0f2faf8d7a0d14c09","651c1bf9698d5e803271ef39","null","null","<p style=""font-size: 60px; font-family: BACS"">TdTDPMYm</p>","","","","","","","","",""
"html-keyboard-response","161","224350","0.0-10.0-0.72","6172078b966225960be2a7b5","650c16f0f2faf8d7a0d14c09","651c1bf9698d5e803271ef39","null","null","<p style=""font-size: 60px; font-family: BACS"">tmAKTbk</p>","","","","","","","","",""
"html-keyboard-response","162","225363","0.0-10.0-0.73","6172078b966225960be2a7b5","650c16f0f2faf8d7a0d14c09","651c1bf9698d5e803271ef39","null","null","<p style=""font-size: 60px; font-family: BACS"">GAcYZAUu</p>","","","","","","","","",""
"html-keyboard-response","163","226371","0.0-10.0-0.74","6172078b966225960be2a7b5","650c16f0f2faf8d7a0d14c09","651c1bf9698d5e803271ef39","null","null","<p style=""font-size: 60px; font-family: BACS"">mBmlAlMck</p>","","","","","","","","",""
"html-keyboard-response","164","227386","0.0-10.0-0.75","6172078b966225960be2a7b5","650c16f0f2faf8d7a0d14c09","651c1bf9698d5e803271ef39","null","null","<p style=""font-size: 60px; font-family: BACS"">MBmEYht</p>","","","","","","","","",""
"html-keyboard-response","165","228390","0.0-10.0-0.76","6172078b966225960be2a7b5","650c16f0f2faf8d7a0d14c09","651c1bf9698d5e803271ef39","null","null","<p style=""font-size: 60px; font-family: BACS"">UJkGkuvb</p>","","","","","","","","",""
"html-keyboard-response","166","229396","0.0-10.0-0.77","6172078b966225960be2a7b5","650c16f0f2faf8d7a0d14c09","651c1bf9698d5e803271ef39","null","null","<p style=""font-size: 60px; font-family: BACS"">vQdOZvkL</p>","","","","","","","","",""
"html-keyboard-response","167","230413","0.0-10.0-0.78","6172078b966225960be2a7b5","650c16f0f2faf8d7a0d14c09","651c1bf9698d5e803271ef39","null","null","<p style=""font-size: 60px; font-family: BACS"">tmtEMYht</p>","","","","","","","","",""
"html-keyboard-response","168","231421","0.0-10.0-0.79","6172078b966225960be2a7b5","650c16f0f2faf8d7a0d14c09","651c1bf9698d5e803271ef39","null","null","<p style=""font-size: 60px; font-family: BACS"">mBmlABRDh</p>","","","","","","","","",""
"html-keyboard-response","169","239940","0.0-11.0","6172078b966225960be2a7b5","650c16f0f2faf8d7a0d14c09","651c1bf9698d5e803271ef39","8516"," ","<p>Great, you've seen the second block of words. You may now take a short break.</p>
      <p>Press the spacebar when you're ready to continue.</p>","","","","","","","","",""
"html-keyboard-response","170","240951","0.0-12.0-0.0","6172078b966225960be2a7b5","650c16f0f2faf8d7a0d14c09","651c1bf9698d5e803271ef39","null","null","<p style=""font-size: 60px; font-family: BACS"">NLQGmZAUu</p>","","","","","","","","",""
"html-keyboard-response","171","241959","0.0-12.0-0.1","6172078b966225960be2a7b5","650c16f0f2faf8d7a0d14c09","651c1bf9698d5e803271ef39","null","null","<p style=""font-size: 60px; font-family: BACS"">UvOGdYAJ</p>","","","","","","","","",""
"html-keyboard-response","172","242970","0.0-12.0-0.2","6172078b966225960be2a7b5","650c16f0f2faf8d7a0d14c09","651c1bf9698d5e803271ef39","null","null","<p style=""font-size: 60px; font-family: BACS"">btlckTbk</p>","","","","","","","","",""
"html-keyboard-response","173","243987","0.0-12.0-0.3","6172078b966225960be2a7b5","650c16f0f2faf8d7a0d14c09","651c1bf9698d5e803271ef39","null","null","<p style=""font-size: 60px; font-family: BACS"">GAcYZAUu</p>","","","","","","","","",""
"html-keyboard-response","174","244998","0.0-12.0-0.4","6172078b966225960be2a7b5","650c16f0f2faf8d7a0d14c09","651c1bf9698d5e803271ef39","null","null","<p style=""font-size: 60px; font-family: BACS"">advYOZvkL</p>","","","","","","","","",""
"html-keyboard-response","175","246009","0.0-12.0-0.5","6172078b966225960be2a7b5","650c16f0f2faf8d7a0d14c09","651c1bf9698d5e803271ef39","null","null","<p style=""font-size: 60px; font-family: BACS"">rGUAYcrdY</p>","","","","","","","","",""
"html-keyboard-response","176","247022","0.0-12.0-0.6","6172078b966225960be2a7b5","650c16f0f2faf8d7a0d14c09","651c1bf9698d5e803271ef39","null","null","<p style=""font-size: 60px; font-family: BACS"">UvOGZAUu</p>","","","","","","","","",""
"html-keyboard-response","177","248038","0.0-12.0-0.7","6172078b966225960be2a7b5","650c16f0f2faf8d7a0d14c09","651c1bf9698d5e803271ef39","null","null","<p style=""font-size: 60px; font-family: BACS"">GAcYZvkL</p>","","","","","","","","",""
"html-keyboard-response","178","249050","0.0-12.0-0.8","6172078b966225960be2a7b5","650c16f0f2faf8d7a0d14c09","651c1bf9698d5e803271ef39","null","null","<p style=""font-size: 60px; font-family: BACS"">TdmAPMYm</p>","","","","","","","","",""
"html-keyboard-response","179","250066","0.0-12.0-0.9","6172078b966225960be2a7b5","650c16f0f2faf8d7a0d14c09","651c1bf9698d5e803271ef39","null","null","<p style=""font-size: 60px; font-family: BACS"">tmAKTbk</p>","","","","","","","","",""
"html-keyboard-response","180","251071","0.0-12.0-0.10","6172078b966225960be2a7b5","650c16f0f2faf8d7a0d14c09","651c1bf9698d5e803271ef39","null","null","<p style=""font-size: 60px; font-family: BACS"">UJkGZAUu</p>","","","","","","","","",""
"html-keyboard-response","181","252088","0.0-12.0-0.11","6172078b966225960be2a7b5","650c16f0f2faf8d7a0d14c09","651c1bf9698d5e803271ef39","null","null","<p style=""font-size: 60px; font-family: BACS"">UvOGcrdY</p>","","","","","","","","",""
"html-keyboard-response","182","253102","0.0-12.0-0.12","6172078b966225960be2a7b5","650c16f0f2faf8d7a0d14c09","651c1bf9698d5e803271ef39","null","null","<p style=""font-size: 60px; font-family: BACS"">mBmlABRDh</p>","","","","","","","","",""
"html-keyboard-response","183","254114","0.0-12.0-0.13","6172078b966225960be2a7b5","650c16f0f2faf8d7a0d14c09","651c1bf9698d5e803271ef39","null","null","<p style=""font-size: 60px; font-family: BACS"">UJkGdYAJ</p>","","","","","","","","",""
"html-keyboard-response","184","255129","0.0-12.0-0.14","6172078b966225960be2a7b5","650c16f0f2faf8d7a0d14c09","651c1bf9698d5e803271ef39","null","null","<p style=""font-size: 60px; font-family: BACS"">tmAKlMck</p>","","","","","","","","",""
"html-keyboard-response","185","256140","0.0-12.0-0.15","6172078b966225960be2a7b5","650c16f0f2faf8d7a0d14c09","651c1bf9698d5e803271ef39","null","null","<p style=""font-size: 60px; font-family: BACS"">dRhtPMYm</p>","","","","","","","","",""
"html-keyboard-response","186","257151","0.0-12.0-0.16","6172078b966225960be2a7b5","650c16f0f2faf8d7a0d14c09","651c1bf9698d5e803271ef39","null","null","<p style=""font-size: 60px; font-family: BACS"">TdTDBRDh</p>","","","","","","","","",""
"html-keyboard-response","187","258161","0.0-12.0-0.17","6172078b966225960be2a7b5","650c16f0f2faf8d7a0d14c09","651c1bf9698d5e803271ef39","null","null","<p style=""font-size: 60px; font-family: BACS"">hlbtbPMYm</p>","","","","","","","","",""
"html-keyboard-response","188","259172","0.0-12.0-0.18","6172078b966225960be2a7b5","650c16f0f2faf8d7a0d14c09","651c1bf9698d5e803271ef39","null","null","<p style=""font-size: 60px; font-family: BACS"">UvOGZvkL</p>","","","","","","","","",""
"html-keyboard-response","189","260180","0.0-12.0-0.19","6172078b966225960be2a7b5","650c16f0f2faf8d7a0d14c09","651c1bf9698d5e803271ef39","null","null","<p style=""font-size: 60px; font-family: BACS"">NLQGmkuvb</p>","","","","","","","","",""
"html-keyboard-response","190","261191","0.0-12.0-0.20","6172078b966225960be2a7b5","650c16f0f2faf8d7a0d14c09","651c1bf9698d5e803271ef39","null","null","<p style=""font-size: 60px; font-family: BACS"">GAcYcrdY</p>","","","","","","","","",""
"html-keyboard-response","191","262196","0.0-12.0-0.21","6172078b966225960be2a7b5","650c16f0f2faf8d7a0d14c09","651c1bf9698d5e803271ef39","null","null","<p style=""font-size: 60px; font-family: BACS"">tmtEMlMck</p>","","","","","","","","",""
"html-keyboard-response","192","263208","0.0-12.0-0.22","6172078b966225960be2a7b5","650c16f0f2faf8d7a0d14c09","651c1bf9698d5e803271ef39","null","null","<p style=""font-size: 60px; font-family: BACS"">AmaclZAUu</p>","","","","","","","","",""
"html-keyboard-response","193","264222","0.0-12.0-0.23","6172078b966225960be2a7b5","650c16f0f2faf8d7a0d14c09","651c1bf9698d5e803271ef39","null","null","<p style=""font-size: 60px; font-family: BACS"">UJkGkuvb</p>","","","","","","","","",""
"html-keyboard-response","194","265237","0.0-12.0-0.24","6172078b966225960be2a7b5","650c16f0f2faf8d7a0d14c09","651c1bf9698d5e803271ef39","null","null","<p style=""font-size: 60px; font-family: BACS"">TdTDTbk</p>","","","","","","","","",""
"html-keyboard-response","195","266249","0.0-12.0-0.25","6172078b966225960be2a7b5","650c16f0f2faf8d7a0d14c09","651c1bf9698d5e803271ef39","null","null","<p style=""font-size: 60px; font-family: BACS"">dRhtBRDh</p>","","","","","","","","",""
"html-keyboard-response","196","267253","0.0-12.0-0.26","6172078b966225960be2a7b5","650c16f0f2faf8d7a0d14c09","651c1bf9698d5e803271ef39","null","null","<p style=""font-size: 60px; font-family: BACS"">UJkGZvkL</p>","","","","","","","","",""
"html-keyboard-response","197","268259","0.0-12.0-0.27","6172078b966225960be2a7b5","650c16f0f2faf8d7a0d14c09","651c1bf9698d5e803271ef39","null","null","<p style=""font-size: 60px; font-family: BACS"">TdmATbk</p>","","","","","","","","",""
"html-keyboard-response","198","269275","0.0-12.0-0.28","6172078b966225960be2a7b5","650c16f0f2faf8d7a0d14c09","651c1bf9698d5e803271ef39","null","null","<p style=""font-size: 60px; font-family: BACS"">rGUAYZAUu</p>","","","","","","","","",""
"html-keyboard-response","199","270286","0.0-12.0-0.29","6172078b966225960be2a7b5","650c16f0f2faf8d7a0d14c09","651c1bf9698d5e803271ef39","null","null","<p style=""font-size: 60px; font-family: BACS"">dRhtTbk</p>","","","","","","","","",""
"html-keyboard-response","200","271298","0.0-12.0-0.30","6172078b966225960be2a7b5","650c16f0f2faf8d7a0d14c09","651c1bf9698d5e803271ef39","null","null","<p style=""font-size: 60px; font-family: BACS"">btlckYht</p>","","","","","","","","",""
"html-keyboard-response","201","272307","0.0-12.0-0.31","6172078b966225960be2a7b5","650c16f0f2faf8d7a0d14c09","651c1bf9698d5e803271ef39","null","null","<p style=""font-size: 60px; font-family: BACS"">vmuLlcrdY</p>","","","","","","","","",""
"html-keyboard-response","202","273325","0.0-12.0-0.32","6172078b966225960be2a7b5","650c16f0f2faf8d7a0d14c09","651c1bf9698d5e803271ef39","null","null","<p style=""font-size: 60px; font-family: BACS"">advYOkuvb</p>","","","","","","","","",""
"html-keyboard-response","203","274342","0.0-12.0-0.33","6172078b966225960be2a7b5","650c16f0f2faf8d7a0d14c09","651c1bf9698d5e803271ef39","null","null","<p style=""font-size: 60px; font-family: BACS"">hlbtblMck</p>","","","","","","","","",""
"html-keyboard-response","204","275347","0.0-12.0-0.34","6172078b966225960be2a7b5","650c16f0f2faf8d7a0d14c09","651c1bf9698d5e803271ef39","null","null","<p style=""font-size: 60px; font-family: BACS"">NLQGmcrdY</p>","","","","","","","","",""
"html-keyboard-response","205","276359","0.0-12.0-0.35","6172078b966225960be2a7b5","650c16f0f2faf8d7a0d14c09","651c1bf9698d5e803271ef39","null","null","<p style=""font-size: 60px; font-family: BACS"">vmuLlZvkL</p>","","","","","","","","",""
"html-keyboard-response","206","277363","0.0-12.0-0.36","6172078b966225960be2a7b5","650c16f0f2faf8d7a0d14c09","651c1bf9698d5e803271ef39","null","null","<p style=""font-size: 60px; font-family: BACS"">MBmETbk</p>","","","","","","","","",""
"html-keyboard-response","207","278373","0.0-12.0-0.37","6172078b966225960be2a7b5","650c16f0f2faf8d7a0d14c09","651c1bf9698d5e803271ef39","null","null","<p style=""font-size: 60px; font-family: BACS"">vmuLldYAJ</p>","","","","","","","","",""
"html-keyboard-response","208","279386","0.0-12.0-0.38","6172078b966225960be2a7b5","650c16f0f2faf8d7a0d14c09","651c1bf9698d5e803271ef39","null","null","<p style=""font-size: 60px; font-family: BACS"">Amaclkuvb</p>","","","","","","","","",""
"html-keyboard-response","209","280392","0.0-12.0-0.39","6172078b966225960be2a7b5","650c16f0f2faf8d7a0d14c09","651c1bf9698d5e803271ef39","null","null","<p style=""font-size: 60px; font-family: BACS"">dRhtlMck</p>","","","","","","","","",""
"html-keyboard-response","210","281408","0.0-12.0-0.40","6172078b966225960be2a7b5","650c16f0f2faf8d7a0d14c09","651c1bf9698d5e803271ef39","null","null","<p style=""font-size: 60px; font-family: BACS"">mBmlATbk</p>","","","","","","","","",""
"html-keyboard-response","211","282411","0.0-12.0-0.41","6172078b966225960be2a7b5","650c16f0f2faf8d7a0d14c09","651c1bf9698d5e803271ef39","null","null","<p style=""font-size: 60px; font-family: BACS"">MBmEYht</p>","","","","","","","","",""
"html-keyboard-response","212","283420","0.0-12.0-0.42","6172078b966225960be2a7b5","650c16f0f2faf8d7a0d14c09","651c1bf9698d5e803271ef39","null","null","<p style=""font-size: 60px; font-family: BACS"">RYtkcPMYm</p>","","","","","","","","",""
"html-keyboard-response","213","284435","0.0-12.0-0.43","6172078b966225960be2a7b5","650c16f0f2faf8d7a0d14c09","651c1bf9698d5e803271ef39","null","null","<p style=""font-size: 60px; font-family: BACS"">vQdOkuvb</p>","","","","","","","","",""
"html-keyboard-response","214","285439","0.0-12.0-0.44","6172078b966225960be2a7b5","650c16f0f2faf8d7a0d14c09","651c1bf9698d5e803271ef39","null","null","<p style=""font-size: 60px; font-family: BACS"">hlbtbBRDh</p>","","","","","","","","",""
"html-keyboard-response","215","286452","0.0-12.0-0.45","6172078b966225960be2a7b5","650c16f0f2faf8d7a0d14c09","651c1bf9698d5e803271ef39","null","null","<p style=""font-size: 60px; font-family: BACS"">btlcklMck</p>","","","","","","","","",""
"html-keyboard-response","216","287457","0.0-12.0-0.46","6172078b966225960be2a7b5","650c16f0f2faf8d7a0d14c09","651c1bf9698d5e803271ef39","null","null","<p style=""font-size: 60px; font-family: BACS"">vmuLlkuvb</p>","","","","","","","","",""
"html-keyboard-response","217","288471","0.0-12.0-0.47","6172078b966225960be2a7b5","650c16f0f2faf8d7a0d14c09","651c1bf9698d5e803271ef39","null","null","<p style=""font-size: 60px; font-family: BACS"">tmAKPMYm</p>","","","","","","","","",""
"html-keyboard-response","218","289490","0.0-12.0-0.48","6172078b966225960be2a7b5","650c16f0f2faf8d7a0d14c09","651c1bf9698d5e803271ef39","null","null","<p style=""font-size: 60px; font-family: BACS"">hlbtbYht</p>","","","","","","","","",""
"html-keyboard-response","219","290501","0.0-12.0-0.49","6172078b966225960be2a7b5","650c16f0f2faf8d7a0d14c09","651c1bf9698d5e803271ef39","null","null","<p style=""font-size: 60px; font-family: BACS"">GAcYdYAJ</p>","","","","","","","","",""
"html-keyboard-response","220","291517","0.0-12.0-0.50","6172078b966225960be2a7b5","650c16f0f2faf8d7a0d14c09","651c1bf9698d5e803271ef39","null","null","<p style=""font-size: 60px; font-family: BACS"">tmtEMYht</p>","","","","","","","","",""
"html-keyboard-response","221","292528","0.0-12.0-0.51","6172078b966225960be2a7b5","650c16f0f2faf8d7a0d14c09","651c1bf9698d5e803271ef39","null","null","<p style=""font-size: 60px; font-family: BACS"">OYuvbZAUu</p>","","","","","","","","",""
"html-keyboard-response","222","293539","0.0-12.0-0.52","6172078b966225960be2a7b5","650c16f0f2faf8d7a0d14c09","651c1bf9698d5e803271ef39","null","null","<p style=""font-size: 60px; font-family: BACS"">mBmlAlMck</p>","","","","","","","","",""
"html-keyboard-response","223","294548","0.0-12.0-0.53","6172078b966225960be2a7b5","650c16f0f2faf8d7a0d14c09","651c1bf9698d5e803271ef39","null","null","<p style=""font-size: 60px; font-family: BACS"">advYOZAUu</p>","","","","","","","","",""
"html-keyboard-response","224","295555","0.0-12.0-0.54","6172078b966225960be2a7b5","650c16f0f2faf8d7a0d14c09","651c1bf9698d5e803271ef39","null","null","<p style=""font-size: 60px; font-family: BACS"">vQdOcrdY</p>","","","","","","","","",""
"html-keyboard-response","225","296571","0.0-12.0-0.55","6172078b966225960be2a7b5","650c16f0f2faf8d7a0d14c09","651c1bf9698d5e803271ef39","null","null","<p style=""font-size: 60px; font-family: BACS"">mBmlAYht</p>","","","","","","","","",""
"html-keyboard-response","226","297588","0.0-12.0-0.56","6172078b966225960be2a7b5","650c16f0f2faf8d7a0d14c09","651c1bf9698d5e803271ef39","null","null","<p style=""font-size: 60px; font-family: BACS"">OYuvbkuvb</p>","","","","","","","","",""
"html-keyboard-response","227","298603","0.0-12.0-0.57","6172078b966225960be2a7b5","650c16f0f2faf8d7a0d14c09","651c1bf9698d5e803271ef39","null","null","<p style=""font-size: 60px; font-family: BACS"">RYtkcYht</p>","","","","","","","","",""
"html-keyboard-response","228","299619","0.0-12.0-0.58","6172078b966225960be2a7b5","650c16f0f2faf8d7a0d14c09","651c1bf9698d5e803271ef39","null","null","<p style=""font-size: 60px; font-family: BACS"">AmaclZvkL</p>","","","","","","","","",""
"html-keyboard-response","229","300637","0.0-12.0-0.59","6172078b966225960be2a7b5","650c16f0f2faf8d7a0d14c09","651c1bf9698d5e803271ef39","null","null","<p style=""font-size: 60px; font-family: BACS"">TdmABRDh</p>","","","","","","","","",""
"html-keyboard-response","230","301650","0.0-12.0-0.60","6172078b966225960be2a7b5","650c16f0f2faf8d7a0d14c09","651c1bf9698d5e803271ef39","null","null","<p style=""font-size: 60px; font-family: BACS"">tmAKYht</p>","","","","","","","","",""
"html-keyboard-response","231","302663","0.0-12.0-0.61","6172078b966225960be2a7b5","650c16f0f2faf8d7a0d14c09","651c1bf9698d5e803271ef39","null","null","<p style=""font-size: 60px; font-family: BACS"">AmaclcrdY</p>","","","","","","","","",""
"html-keyboard-response","232","303676","0.0-12.0-0.62","6172078b966225960be2a7b5","650c16f0f2faf8d7a0d14c09","651c1bf9698d5e803271ef39","null","null","<p style=""font-size: 60px; font-family: BACS"">NLQGmZvkL</p>","","","","","","","","",""
"html-keyboard-response","233","304681","0.0-12.0-0.63","6172078b966225960be2a7b5","650c16f0f2faf8d7a0d14c09","651c1bf9698d5e803271ef39","null","null","<p style=""font-size: 60px; font-family: BACS"">MBmEPMYm</p>","","","","","","","","",""
"html-keyboard-response","234","305690","0.0-12.0-0.64","6172078b966225960be2a7b5","650c16f0f2faf8d7a0d14c09","651c1bf9698d5e803271ef39","null","null","<p style=""font-size: 60px; font-family: BACS"">vQdOdYAJ</p>","","","","","","","","",""
"html-keyboard-response","235","306692","0.0-12.0-0.65","6172078b966225960be2a7b5","650c16f0f2faf8d7a0d14c09","651c1bf9698d5e803271ef39","null","null","<p style=""font-size: 60px; font-family: BACS"">MBmEBRDh</p>","","","","","","","","",""
"html-keyboard-response","236","307709","0.0-12.0-0.66","6172078b966225960be2a7b5","650c16f0f2faf8d7a0d14c09","651c1bf9698d5e803271ef39","null","null","<p style=""font-size: 60px; font-family: BACS"">RYtkclMck</p>","","","","","","","","",""
"html-keyboard-response","237","308714","0.0-12.0-0.67","6172078b966225960be2a7b5","650c16f0f2faf8d7a0d14c09","651c1bf9698d5e803271ef39","null","null","<p style=""font-size: 60px; font-family: BACS"">vQdOZvkL</p>","","","","","","","","",""
"html-keyboard-response","238","309731","0.0-12.0-0.68","6172078b966225960be2a7b5","650c16f0f2faf8d7a0d14c09","651c1bf9698d5e803271ef39","null","null","<p style=""font-size: 60px; font-family: BACS"">tmtEMBRDh</p>","","","","","","","","",""
"html-keyboard-response","239","310751","0.0-12.0-0.69","6172078b966225960be2a7b5","650c16f0f2faf8d7a0d14c09","651c1bf9698d5e803271ef39","null","null","<p style=""font-size: 60px; font-family: BACS"">OYuvbcrdY</p>","","","","","","","","",""
"html-keyboard-response","240","311772","0.0-12.0-0.70","6172078b966225960be2a7b5","650c16f0f2faf8d7a0d14c09","651c1bf9698d5e803271ef39","null","null","<p style=""font-size: 60px; font-family: BACS"">TdTDlMck</p>","","","","","","","","",""
"html-keyboard-response","241","312781","0.0-12.0-0.71","6172078b966225960be2a7b5","650c16f0f2faf8d7a0d14c09","651c1bf9698d5e803271ef39","null","null","<p style=""font-size: 60px; font-family: BACS"">advYOdYAJ</p>","","","","","","","","",""
"html-keyboard-response","242","313788","0.0-12.0-0.72","6172078b966225960be2a7b5","650c16f0f2faf8d7a0d14c09","651c1bf9698d5e803271ef39","null","null","<p style=""font-size: 60px; font-family: BACS"">rGUAYkuvb</p>","","","","","","","","",""
"html-keyboard-response","243","314796","0.0-12.0-0.73","6172078b966225960be2a7b5","650c16f0f2faf8d7a0d14c09","651c1bf9698d5e803271ef39","null","null","<p style=""font-size: 60px; font-family: BACS"">RYtkcBRDh</p>","","","","","","","","",""
"html-keyboard-response","244","315811","0.0-12.0-0.74","6172078b966225960be2a7b5","650c16f0f2faf8d7a0d14c09","651c1bf9698d5e803271ef39","null","null","<p style=""font-size: 60px; font-family: BACS"">OYuvbdYAJ</p>","","","","","","","","",""
"html-keyboard-response","245","316831","0.0-12.0-0.75","6172078b966225960be2a7b5","650c16f0f2faf8d7a0d14c09","651c1bf9698d5e803271ef39","null","null","<p style=""font-size: 60px; font-family: BACS"">tmtEMTbk</p>","","","","","","","","",""
"html-keyboard-response","246","317841","0.0-12.0-0.76","6172078b966225960be2a7b5","650c16f0f2faf8d7a0d14c09","651c1bf9698d5e803271ef39","null","null","<p style=""font-size: 60px; font-family: BACS"">TdTDPMYm</p>","","","","","","","","",""
"html-keyboard-response","247","318851","0.0-12.0-0.77","6172078b966225960be2a7b5","650c16f0f2faf8d7a0d14c09","651c1bf9698d5e803271ef39","null","null","<p style=""font-size: 60px; font-family: BACS"">rGUAYdYAJ</p>","","","","","","","","",""
"html-keyboard-response","248","319873","0.0-12.0-0.78","6172078b966225960be2a7b5","650c16f0f2faf8d7a0d14c09","651c1bf9698d5e803271ef39","null","null","<p style=""font-size: 60px; font-family: BACS"">btlckPMYm</p>","","","","","","","","",""
"html-keyboard-response","249","320891","0.0-12.0-0.79","6172078b966225960be2a7b5","650c16f0f2faf8d7a0d14c09","651c1bf9698d5e803271ef39","null","null","<p style=""font-size: 60px; font-family: BACS"">TdmAYht</p>","","","","","","","","",""
"html-keyboard-response","250","337921","0.0-13.0","6172078b966225960be2a7b5","650c16f0f2faf8d7a0d14c09","651c1bf9698d5e803271ef39","17029"," ","<p>Great, you've seen the third block of words. You may now take a short break.</p>
      <p>Press the spacebar when you're ready to continue.</p>","","","","","","","","",""
"html-keyboard-response","251","338923","0.0-14.0-0.0","6172078b966225960be2a7b5","650c16f0f2faf8d7a0d14c09","651c1bf9698d5e803271ef39","null","null","<p style=""font-size: 60px; font-family: BACS"">mBmlAYht</p>","","","","","","","","",""
"html-keyboard-response","252","339941","0.0-14.0-0.1","6172078b966225960be2a7b5","650c16f0f2faf8d7a0d14c09","651c1bf9698d5e803271ef39","null","null","<p style=""font-size: 60px; font-family: BACS"">tmtEMlMck</p>","","","","","","","","",""
"html-keyboard-response","253","340947","0.0-14.0-0.2","6172078b966225960be2a7b5","650c16f0f2faf8d7a0d14c09","651c1bf9698d5e803271ef39","null","null","<p style=""font-size: 60px; font-family: BACS"">rGUAYdYAJ</p>","","","","","","","","",""
"html-keyboard-response","254","341952","0.0-14.0-0.3","6172078b966225960be2a7b5","650c16f0f2faf8d7a0d14c09","651c1bf9698d5e803271ef39","null","null","<p style=""font-size: 60px; font-family: BACS"">tmtEMTbk</p>","","","","","","","","",""
"html-keyboard-response","255","342971","0.0-14.0-0.4","6172078b966225960be2a7b5","650c16f0f2faf8d7a0d14c09","651c1bf9698d5e803271ef39","null","null","<p style=""font-size: 60px; font-family: BACS"">RYtkcPMYm</p>","","","","","","","","",""
"html-keyboard-response","256","343976","0.0-14.0-0.5","6172078b966225960be2a7b5","650c16f0f2faf8d7a0d14c09","651c1bf9698d5e803271ef39","null","null","<p style=""font-size: 60px; font-family: BACS"">mBmlATbk</p>","","","","","","","","",""
"html-keyboard-response","257","344996","0.0-14.0-0.6","6172078b966225960be2a7b5","650c16f0f2faf8d7a0d14c09","651c1bf9698d5e803271ef39","null","null","<p style=""font-size: 60px; font-family: BACS"">dRhtPMYm</p>","","","","","","","","",""
"html-keyboard-response","258","346011","0.0-14.0-0.7","6172078b966225960be2a7b5","650c16f0f2faf8d7a0d14c09","651c1bf9698d5e803271ef39","null","null","<p style=""font-size: 60px; font-family: BACS"">advYOZAUu</p>","","","","","","","","",""
"html-keyboard-response","259","347027","0.0-14.0-0.8","6172078b966225960be2a7b5","650c16f0f2faf8d7a0d14c09","651c1bf9698d5e803271ef39","null","null","<p style=""font-size: 60px; font-family: BACS"">UvOGZvkL</p>","","","","","","","","",""
"html-keyboard-response","260","348031","0.0-14.0-0.9","6172078b966225960be2a7b5","650c16f0f2faf8d7a0d14c09","651c1bf9698d5e803271ef39","null","null","<p style=""font-size: 60px; font-family: BACS"">tmAKTbk</p>","","","","","","","","",""
"html-keyboard-response","261","349050","0.0-14.0-0.10","6172078b966225960be2a7b5","650c16f0f2faf8d7a0d14c09","651c1bf9698d5e803271ef39","null","null","<p style=""font-size: 60px; font-family: BACS"">RYtkclMck</p>","","","","","","","","",""
"html-keyboard-response","262","350071","0.0-14.0-0.11","6172078b966225960be2a7b5","650c16f0f2faf8d7a0d14c09","651c1bf9698d5e803271ef39","null","null","<p style=""font-size: 60px; font-family: BACS"">NLQGmZvkL</p>","","","","","","","","",""
"html-keyboard-response","263","351081","0.0-14.0-0.12","6172078b966225960be2a7b5","650c16f0f2faf8d7a0d14c09","651c1bf9698d5e803271ef39","null","null","<p style=""font-size: 60px; font-family: BACS"">vmuLlcrdY</p>","","","","","","","","",""
"html-keyboard-response","264","352091","0.0-14.0-0.13","6172078b966225960be2a7b5","650c16f0f2faf8d7a0d14c09","651c1bf9698d5e803271ef39","null","null","<p style=""font-size: 60px; font-family: BACS"">vQdOZvkL</p>","","","","","","","","",""
"html-keyboard-response","265","353095","0.0-14.0-0.14","6172078b966225960be2a7b5","650c16f0f2faf8d7a0d14c09","651c1bf9698d5e803271ef39","null","null","<p style=""font-size: 60px; font-family: BACS"">dRhtlMck</p>","","","","","","","","",""
"html-keyboard-response","266","354103","0.0-14.0-0.15","6172078b966225960be2a7b5","650c16f0f2faf8d7a0d14c09","651c1bf9698d5e803271ef39","null","null","<p style=""font-size: 60px; font-family: BACS"">rGUAYZAUu</p>","","","","","","","","",""
"html-keyboard-response","267","355116","0.0-14.0-0.16","6172078b966225960be2a7b5","650c16f0f2faf8d7a0d14c09","651c1bf9698d5e803271ef39","null","null","<p style=""font-size: 60px; font-family: BACS"">TdmAPMYm</p>","","","","","","","","",""
"html-keyboard-response","268","356128","0.0-14.0-0.17","6172078b966225960be2a7b5","650c16f0f2faf8d7a0d14c09","651c1bf9698d5e803271ef39","null","null","<p style=""font-size: 60px; font-family: BACS"">UvOGcrdY</p>","","","","","","","","",""
"html-keyboard-response","269","357137","0.0-14.0-0.18","6172078b966225960be2a7b5","650c16f0f2faf8d7a0d14c09","651c1bf9698d5e803271ef39","null","null","<p style=""font-size: 60px; font-family: BACS"">TdTDBRDh</p>","","","","","","","","",""
"html-keyboard-response","270","358140","0.0-14.0-0.19","6172078b966225960be2a7b5","650c16f0f2faf8d7a0d14c09","651c1bf9698d5e803271ef39","null","null","<p style=""font-size: 60px; font-family: BACS"">MBmEYht</p>","","","","","","","","",""
"html-keyboard-response","271","359159","0.0-14.0-0.20","6172078b966225960be2a7b5","650c16f0f2faf8d7a0d14c09","651c1bf9698d5e803271ef39","null","null","<p style=""font-size: 60px; font-family: BACS"">dRhtTbk</p>","","","","","","","","",""
"html-keyboard-response","272","360180","0.0-14.0-0.21","6172078b966225960be2a7b5","650c16f0f2faf8d7a0d14c09","651c1bf9698d5e803271ef39","null","null","<p style=""font-size: 60px; font-family: BACS"">hlbtbYht</p>","","","","","","","","",""
"html-keyboard-response","273","361186","0.0-14.0-0.22","6172078b966225960be2a7b5","650c16f0f2faf8d7a0d14c09","651c1bf9698d5e803271ef39","null","null","<p style=""font-size: 60px; font-family: BACS"">btlcklMck</p>","","","","","","","","",""
"html-keyboard-response","274","362189","0.0-14.0-0.23","6172078b966225960be2a7b5","650c16f0f2faf8d7a0d14c09","651c1bf9698d5e803271ef39","null","null","<p style=""font-size: 60px; font-family: BACS"">NLQGmkuvb</p>","","","","","","","","",""
"html-keyboard-response","275","363202","0.0-14.0-0.24","6172078b966225960be2a7b5","650c16f0f2faf8d7a0d14c09","651c1bf9698d5e803271ef39","null","null","<p style=""font-size: 60px; font-family: BACS"">vQdOdYAJ</p>","","","","","","","","",""
"html-keyboard-response","276","364216","0.0-14.0-0.25","6172078b966225960be2a7b5","650c16f0f2faf8d7a0d14c09","651c1bf9698d5e803271ef39","null","null","<p style=""font-size: 60px; font-family: BACS"">RYtkcYht</p>","","","","","","","","",""
"html-keyboard-response","277","365233","0.0-14.0-0.26","6172078b966225960be2a7b5","650c16f0f2faf8d7a0d14c09","651c1bf9698d5e803271ef39","null","null","<p style=""font-size: 60px; font-family: BACS"">vmuLlkuvb</p>","","","","","","","","",""
"html-keyboard-response","278","366240","0.0-14.0-0.27","6172078b966225960be2a7b5","650c16f0f2faf8d7a0d14c09","651c1bf9698d5e803271ef39","null","null","<p style=""font-size: 60px; font-family: BACS"">AmaclZAUu</p>","","","","","","","","",""
"html-keyboard-response","279","367255","0.0-14.0-0.28","6172078b966225960be2a7b5","650c16f0f2faf8d7a0d14c09","651c1bf9698d5e803271ef39","null","null","<p style=""font-size: 60px; font-family: BACS"">MBmEPMYm</p>","","","","","","","","",""
"html-keyboard-response","280","368257","0.0-14.0-0.29","6172078b966225960be2a7b5","650c16f0f2faf8d7a0d14c09","651c1bf9698d5e803271ef39","null","null","<p style=""font-size: 60px; font-family: BACS"">mBmlABRDh</p>","","","","","","","","",""
"html-keyboard-response","281","369265","0.0-14.0-0.30","6172078b966225960be2a7b5","650c16f0f2faf8d7a0d14c09","651c1bf9698d5e803271ef39","null","null","<p style=""font-size: 60px; font-family: BACS"">Amaclkuvb</p>","","","","","","","","",""
"html-keyboard-response","282","370279","0.0-14.0-0.31","6172078b966225960be2a7b5","650c16f0f2faf8d7a0d14c09","651c1bf9698d5e803271ef39","null","null","<p style=""font-size: 60px; font-family: BACS"">vQdOcrdY</p>","","","","","","","","",""
"html-keyboard-response","283","371286","0.0-14.0-0.32","6172078b966225960be2a7b5","650c16f0f2faf8d7a0d14c09","651c1bf9698d5e803271ef39","null","null","<p style=""font-size: 60px; font-family: BACS"">UJkGkuvb</p>","","","","","","","","",""
"html-keyboard-response","284","372291","0.0-14.0-0.33","6172078b966225960be2a7b5","650c16f0f2faf8d7a0d14c09","651c1bf9698d5e803271ef39","null","null","<p style=""font-size: 60px; font-family: BACS"">TdmAYht</p>","","","","","","","","",""
"html-keyboard-response","285","373296","0.0-14.0-0.34","6172078b966225960be2a7b5","650c16f0f2faf8d7a0d14c09","651c1bf9698d5e803271ef39","null","null","<p style=""font-size: 60px; font-family: BACS"">btlckTbk</p>","","","","","","","","",""
"html-keyboard-response","286","374301","0.0-14.0-0.35","6172078b966225960be2a7b5","650c16f0f2faf8d7a0d14c09","651c1bf9698d5e803271ef39","null","null","<p style=""font-size: 60px; font-family: BACS"">advYOdYAJ</p>","","","","","","","","",""
"html-keyboard-response","287","375315","0.0-14.0-0.36","6172078b966225960be2a7b5","650c16f0f2faf8d7a0d14c09","651c1bf9698d5e803271ef39","null","null","<p style=""font-size: 60px; font-family: BACS"">btlckYht</p>","","","","","","","","",""
"html-keyboard-response","288","376323","0.0-14.0-0.37","6172078b966225960be2a7b5","650c16f0f2faf8d7a0d14c09","651c1bf9698d5e803271ef39","null","null","<p style=""font-size: 60px; font-family: BACS"">TdTDlMck</p>","","","","","","","","",""
"html-keyboard-response","289","377334","0.0-14.0-0.38","6172078b966225960be2a7b5","650c16f0f2faf8d7a0d14c09","651c1bf9698d5e803271ef39","null","null","<p style=""font-size: 60px; font-family: BACS"">btlckPMYm</p>","","","","","","","","",""
"html-keyboard-response","290","378350","0.0-14.0-0.39","6172078b966225960be2a7b5","650c16f0f2faf8d7a0d14c09","651c1bf9698d5e803271ef39","null","null","<p style=""font-size: 60px; font-family: BACS"">AmaclZvkL</p>","","","","","","","","",""
"html-keyboard-response","291","379359","0.0-14.0-0.40","6172078b966225960be2a7b5","650c16f0f2faf8d7a0d14c09","651c1bf9698d5e803271ef39","null","null","<p style=""font-size: 60px; font-family: BACS"">rGUAYkuvb</p>","","","","","","","","",""
"html-keyboard-response","292","380362","0.0-14.0-0.41","6172078b966225960be2a7b5","650c16f0f2faf8d7a0d14c09","651c1bf9698d5e803271ef39","null","null","<p style=""font-size: 60px; font-family: BACS"">UvOGdYAJ</p>","","","","","","","","",""
"html-keyboard-response","293","381379","0.0-14.0-0.42","6172078b966225960be2a7b5","650c16f0f2faf8d7a0d14c09","651c1bf9698d5e803271ef39","null","null","<p style=""font-size: 60px; font-family: BACS"">RYtkcBRDh</p>","","","","","","","","",""
"html-keyboard-response","294","382384","0.0-14.0-0.43","6172078b966225960be2a7b5","650c16f0f2faf8d7a0d14c09","651c1bf9698d5e803271ef39","null","null","<p style=""font-size: 60px; font-family: BACS"">TdTDTbk</p>","","","","","","","","",""
"html-keyboard-response","295","383388","0.0-14.0-0.44","6172078b966225960be2a7b5","650c16f0f2faf8d7a0d14c09","651c1bf9698d5e803271ef39","null","null","<p style=""font-size: 60px; font-family: BACS"">UJkGZAUu</p>","","","","","","","","",""
"html-keyboard-response","296","384405","0.0-14.0-0.45","6172078b966225960be2a7b5","650c16f0f2faf8d7a0d14c09","651c1bf9698d5e803271ef39","null","null","<p style=""font-size: 60px; font-family: BACS"">TdmABRDh</p>","","","","","","","","",""
"html-keyboard-response","297","385419","0.0-14.0-0.46","6172078b966225960be2a7b5","650c16f0f2faf8d7a0d14c09","651c1bf9698d5e803271ef39","null","null","<p style=""font-size: 60px; font-family: BACS"">tmAKPMYm</p>","","","","","","","","",""
"html-keyboard-response","298","386428","0.0-14.0-0.47","6172078b966225960be2a7b5","650c16f0f2faf8d7a0d14c09","651c1bf9698d5e803271ef39","null","null","<p style=""font-size: 60px; font-family: BACS"">GAcYZvkL</p>","","","","","","","","",""
"html-keyboard-response","299","387430","0.0-14.0-0.48","6172078b966225960be2a7b5","650c16f0f2faf8d7a0d14c09","651c1bf9698d5e803271ef39","null","null","<p style=""font-size: 60px; font-family: BACS"">NLQGmZAUu</p>","","","","","","","","",""
"html-keyboard-response","300","388446","0.0-14.0-0.49","6172078b966225960be2a7b5","650c16f0f2faf8d7a0d14c09","651c1bf9698d5e803271ef39","null","null","<p style=""font-size: 60px; font-family: BACS"">TdTDPMYm</p>","","","","","","","","",""
"html-keyboard-response","301","389448","0.0-14.0-0.50","6172078b966225960be2a7b5","650c16f0f2faf8d7a0d14c09","651c1bf9698d5e803271ef39","null","null","<p style=""font-size: 60px; font-family: BACS"">hlbtbBRDh</p>","","","","","","","","",""
"html-keyboard-response","302","390460","0.0-14.0-0.51","6172078b966225960be2a7b5","650c16f0f2faf8d7a0d14c09","651c1bf9698d5e803271ef39","null","null","<p style=""font-size: 60px; font-family: BACS"">mBmlAlMck</p>","","","","","","","","",""
"html-keyboard-response","303","391465","0.0-14.0-0.52","6172078b966225960be2a7b5","650c16f0f2faf8d7a0d14c09","651c1bf9698d5e803271ef39","null","null","<p style=""font-size: 60px; font-family: BACS"">MBmEBRDh</p>","","","","","","","","",""
"html-keyboard-response","304","392468","0.0-14.0-0.53","6172078b966225960be2a7b5","650c16f0f2faf8d7a0d14c09","651c1bf9698d5e803271ef39","null","null","<p style=""font-size: 60px; font-family: BACS"">GAcYdYAJ</p>","","","","","","","","",""
"html-keyboard-response","305","393475","0.0-14.0-0.54","6172078b966225960be2a7b5","650c16f0f2faf8d7a0d14c09","651c1bf9698d5e803271ef39","null","null","<p style=""font-size: 60px; font-family: BACS"">UJkGZvkL</p>","","","","","","","","",""
"html-keyboard-response","306","394488","0.0-14.0-0.55","6172078b966225960be2a7b5","650c16f0f2faf8d7a0d14c09","651c1bf9698d5e803271ef39","null","null","<p style=""font-size: 60px; font-family: BACS"">vQdOkuvb</p>","","","","","","","","",""
"html-keyboard-response","307","395496","0.0-14.0-0.56","6172078b966225960be2a7b5","650c16f0f2faf8d7a0d14c09","651c1bf9698d5e803271ef39","null","null","<p style=""font-size: 60px; font-family: BACS"">OYuvbZAUu</p>","","","","","","","","",""
"html-keyboard-response","308","396501","0.0-14.0-0.57","6172078b966225960be2a7b5","650c16f0f2faf8d7a0d14c09","651c1bf9698d5e803271ef39","null","null","<p style=""font-size: 60px; font-family: BACS"">tmAKYht</p>","","","","","","","","",""
"html-keyboard-response","309","397515","0.0-14.0-0.58","6172078b966225960be2a7b5","650c16f0f2faf8d7a0d14c09","651c1bf9698d5e803271ef39","null","null","<p style=""font-size: 60px; font-family: BACS"">rGUAYcrdY</p>","","","","","","","","",""
"html-keyboard-response","310","398523","0.0-14.0-0.59","6172078b966225960be2a7b5","650c16f0f2faf8d7a0d14c09","651c1bf9698d5e803271ef39","null","null","<p style=""font-size: 60px; font-family: BACS"">OYuvbdYAJ</p>","","","","","","","","",""
"html-keyboard-response","311","399532","0.0-14.0-0.60","6172078b966225960be2a7b5","650c16f0f2faf8d7a0d14c09","651c1bf9698d5e803271ef39","null","null","<p style=""font-size: 60px; font-family: BACS"">GAcYcrdY</p>","","","","","","","","",""
"html-keyboard-response","312","400546","0.0-14.0-0.61","6172078b966225960be2a7b5","650c16f0f2faf8d7a0d14c09","651c1bf9698d5e803271ef39","null","null","<p style=""font-size: 60px; font-family: BACS"">hlbtbPMYm</p>","","","","","","","","",""
"html-keyboard-response","313","401561","0.0-14.0-0.62","6172078b966225960be2a7b5","650c16f0f2faf8d7a0d14c09","651c1bf9698d5e803271ef39","null","null","<p style=""font-size: 60px; font-family: BACS"">dRhtBRDh</p>","","","","","","","","",""
"html-keyboard-response","314","402577","0.0-14.0-0.63","6172078b966225960be2a7b5","650c16f0f2faf8d7a0d14c09","651c1bf9698d5e803271ef39","null","null","<p style=""font-size: 60px; font-family: BACS"">GAcYZAUu</p>","","","","","","","","",""
"html-keyboard-response","315","403585","0.0-14.0-0.64","6172078b966225960be2a7b5","650c16f0f2faf8d7a0d14c09","651c1bf9698d5e803271ef39","null","null","<p style=""font-size: 60px; font-family: BACS"">tmtEMYht</p>","","","","","","","","",""
"html-keyboard-response","316","404598","0.0-14.0-0.65","6172078b966225960be2a7b5","650c16f0f2faf8d7a0d14c09","651c1bf9698d5e803271ef39","null","null","<p style=""font-size: 60px; font-family: BACS"">TdmATbk</p>","","","","","","","","",""
"html-keyboard-response","317","405620","0.0-14.0-0.66","6172078b966225960be2a7b5","650c16f0f2faf8d7a0d14c09","651c1bf9698d5e803271ef39","null","null","<p style=""font-size: 60px; font-family: BACS"">tmtEMBRDh</p>","","","","","","","","",""
"html-keyboard-response","318","406636","0.0-14.0-0.67","6172078b966225960be2a7b5","650c16f0f2faf8d7a0d14c09","651c1bf9698d5e803271ef39","null","null","<p style=""font-size: 60px; font-family: BACS"">OYuvbkuvb</p>","","","","","","","","",""
"html-keyboard-response","319","407639","0.0-14.0-0.68","6172078b966225960be2a7b5","650c16f0f2faf8d7a0d14c09","651c1bf9698d5e803271ef39","null","null","<p style=""font-size: 60px; font-family: BACS"">hlbtblMck</p>","","","","","","","","",""
"html-keyboard-response","320","408642","0.0-14.0-0.69","6172078b966225960be2a7b5","650c16f0f2faf8d7a0d14c09","651c1bf9698d5e803271ef39","null","null","<p style=""font-size: 60px; font-family: BACS"">OYuvbcrdY</p>","","","","","","","","",""
"html-keyboard-response","321","409658","0.0-14.0-0.70","6172078b966225960be2a7b5","650c16f0f2faf8d7a0d14c09","651c1bf9698d5e803271ef39","null","null","<p style=""font-size: 60px; font-family: BACS"">vmuLlZvkL</p>","","","","","","","","",""
"html-keyboard-response","322","410673","0.0-14.0-0.71","6172078b966225960be2a7b5","650c16f0f2faf8d7a0d14c09","651c1bf9698d5e803271ef39","null","null","<p style=""font-size: 60px; font-family: BACS"">tmAKlMck</p>","","","","","","","","",""
"html-keyboard-response","323","411703","0.0-14.0-0.72","6172078b966225960be2a7b5","650c16f0f2faf8d7a0d14c09","651c1bf9698d5e803271ef39","null","null","<p style=""font-size: 60px; font-family: BACS"">UvOGZAUu</p>","","","","","","","","",""
"html-keyboard-response","324","412715","0.0-14.0-0.73","6172078b966225960be2a7b5","650c16f0f2faf8d7a0d14c09","651c1bf9698d5e803271ef39","null","null","<p style=""font-size: 60px; font-family: BACS"">UJkGdYAJ</p>","","","","","","","","",""
"html-keyboard-response","325","413730","0.0-14.0-0.74","6172078b966225960be2a7b5","650c16f0f2faf8d7a0d14c09","651c1bf9698d5e803271ef39","null","null","<p style=""font-size: 60px; font-family: BACS"">NLQGmcrdY</p>","","","","","","","","",""
"html-keyboard-response","326","414735","0.0-14.0-0.75","6172078b966225960be2a7b5","650c16f0f2faf8d7a0d14c09","651c1bf9698d5e803271ef39","null","null","<p style=""font-size: 60px; font-family: BACS"">vmuLldYAJ</p>","","","","","","","","",""
"html-keyboard-response","327","415740","0.0-14.0-0.76","6172078b966225960be2a7b5","650c16f0f2faf8d7a0d14c09","651c1bf9698d5e803271ef39","null","null","<p style=""font-size: 60px; font-family: BACS"">advYOZvkL</p>","","","","","","","","",""
"html-keyboard-response","328","416762","0.0-14.0-0.77","6172078b966225960be2a7b5","650c16f0f2faf8d7a0d14c09","651c1bf9698d5e803271ef39","null","null","<p style=""font-size: 60px; font-family: BACS"">MBmETbk</p>","","","","","","","","",""
"html-keyboard-response","329","417766","0.0-14.0-0.78","6172078b966225960be2a7b5","650c16f0f2faf8d7a0d14c09","651c1bf9698d5e803271ef39","null","null","<p style=""font-size: 60px; font-family: BACS"">AmaclcrdY</p>","","","","","","","","",""
"html-keyboard-response","330","418771","0.0-14.0-0.79","6172078b966225960be2a7b5","650c16f0f2faf8d7a0d14c09","651c1bf9698d5e803271ef39","null","null","<p style=""font-size: 60px; font-family: BACS"">advYOkuvb</p>","","","","","","","","",""
"html-keyboard-response","331","430478","0.0-15.0","6172078b966225960be2a7b5","650c16f0f2faf8d7a0d14c09","651c1bf9698d5e803271ef39","11705"," ","<p>Great, you've seen the fourth block of words. You may now take a short break.</p>
      <p>Press the spacebar when you're ready to continue.</p>","","","","","","","","",""
"html-keyboard-response","332","431495","0.0-16.0-0.0","6172078b966225960be2a7b5","650c16f0f2faf8d7a0d14c09","651c1bf9698d5e803271ef39","null","null","<p style=""font-size: 60px; font-family: BACS"">hlbtbPMYm</p>","","","","","","","","",""
"html-keyboard-response","333","432502","0.0-16.0-0.1","6172078b966225960be2a7b5","650c16f0f2faf8d7a0d14c09","651c1bf9698d5e803271ef39","null","null","<p style=""font-size: 60px; font-family: BACS"">hlbtbPMYm</p>","","","","","","","","",""
"html-keyboard-response","334","433507","0.0-16.0-0.2","6172078b966225960be2a7b5","650c16f0f2faf8d7a0d14c09","651c1bf9698d5e803271ef39","null","null","<p style=""font-size: 60px; font-family: BACS"">hlbtbPMYm</p>","","","","","","","","",""
"html-keyboard-response","335","434521","0.0-16.0-0.3","6172078b966225960be2a7b5","650c16f0f2faf8d7a0d14c09","651c1bf9698d5e803271ef39","null","null","<p style=""font-size: 60px; font-family: BACS"">hlbtbPMYm</p>","","","","","","","","",""
"html-keyboard-response","336","435531","0.0-16.0-0.4","6172078b966225960be2a7b5","650c16f0f2faf8d7a0d14c09","651c1bf9698d5e803271ef39","null","null","<p style=""font-size: 60px; font-family: BACS"">hlbtbPMYm</p>","","","","","","","","",""
"html-keyboard-response","337","436547","0.0-16.0-0.5","6172078b966225960be2a7b5","650c16f0f2faf8d7a0d14c09","651c1bf9698d5e803271ef39","null","null","<p style=""font-size: 60px; font-family: BACS"">hlbtbPMYm</p>","","","","","","","","",""
"html-keyboard-response","338","437554","0.0-16.0-0.6","6172078b966225960be2a7b5","650c16f0f2faf8d7a0d14c09","651c1bf9698d5e803271ef39","null","null","<p style=""font-size: 60px; font-family: BACS"">hlbtbPMYm</p>","","","","","","","","",""
"html-keyboard-response","339","438566","0.0-16.0-0.7","6172078b966225960be2a7b5","650c16f0f2faf8d7a0d14c09","651c1bf9698d5e803271ef39","null","null","<p style=""font-size: 60px; font-family: BACS"">hlbtbPMYm</p>","","","","","","","","",""
"html-keyboard-response","340","439574","0.0-16.0-0.8","6172078b966225960be2a7b5","650c16f0f2faf8d7a0d14c09","651c1bf9698d5e803271ef39","null","null","<p style=""font-size: 60px; font-family: BACS"">hlbtbPMYm</p>","","","","","","","","",""
"html-keyboard-response","341","440576","0.0-16.0-0.9","6172078b966225960be2a7b5","650c16f0f2faf8d7a0d14c09","651c1bf9698d5e803271ef39","null","null","<p style=""font-size: 60px; font-family: BACS"">hlbtbPMYm</p>","","","","","","","","",""
"html-keyboard-response","342","441589","0.0-16.0-0.10","6172078b966225960be2a7b5","650c16f0f2faf8d7a0d14c09","651c1bf9698d5e803271ef39","null","null","<p style=""font-size: 60px; font-family: BACS"">hlbtbPMYm</p>","","","","","","","","",""
"html-keyboard-response","343","442607","0.0-16.0-0.11","6172078b966225960be2a7b5","650c16f0f2faf8d7a0d14c09","651c1bf9698d5e803271ef39","null","null","<p style=""font-size: 60px; font-family: BACS"">hlbtbPMYm</p>","","","","","","","","",""
"html-keyboard-response","344","443613","0.0-16.0-0.12","6172078b966225960be2a7b5","650c16f0f2faf8d7a0d14c09","651c1bf9698d5e803271ef39","null","null","<p style=""font-size: 60px; font-family: BACS"">hlbtbPMYm</p>","","","","","","","","",""
"html-keyboard-response","345","444622","0.0-16.0-0.13","6172078b966225960be2a7b5","650c16f0f2faf8d7a0d14c09","651c1bf9698d5e803271ef39","null","null","<p style=""font-size: 60px; font-family: BACS"">hlbtbPMYm</p>","","","","","","","","",""
"html-keyboard-response","346","445627","0.0-16.0-0.14","6172078b966225960be2a7b5","650c16f0f2faf8d7a0d14c09","651c1bf9698d5e803271ef39","null","null","<p style=""font-size: 60px; font-family: BACS"">hlbtbPMYm</p>","","","","","","","","",""
"html-keyboard-response","347","446638","0.0-16.0-0.15","6172078b966225960be2a7b5","650c16f0f2faf8d7a0d14c09","651c1bf9698d5e803271ef39","null","null","<p style=""font-size: 60px; font-family: BACS"">hlbtbPMYm</p>","","","","","","","","",""
"html-keyboard-response","348","447651","0.0-16.0-0.16","6172078b966225960be2a7b5","650c16f0f2faf8d7a0d14c09","651c1bf9698d5e803271ef39","null","null","<p style=""font-size: 60px; font-family: BACS"">hlbtbPMYm</p>","","","","","","","","",""
"html-keyboard-response","349","448661","0.0-16.0-0.17","6172078b966225960be2a7b5","650c16f0f2faf8d7a0d14c09","651c1bf9698d5e803271ef39","null","null","<p style=""font-size: 60px; font-family: BACS"">hlbtbPMYm</p>","","","","","","","","",""
"html-keyboard-response","350","449681","0.0-16.0-0.18","6172078b966225960be2a7b5","650c16f0f2faf8d7a0d14c09","651c1bf9698d5e803271ef39","null","null","<p style=""font-size: 60px; font-family: BACS"">hlbtbPMYm</p>","","","","","","","","",""
"html-keyboard-response","351","450701","0.0-16.0-0.19","6172078b966225960be2a7b5","650c16f0f2faf8d7a0d14c09","651c1bf9698d5e803271ef39","null","null","<p style=""font-size: 60px; font-family: BACS"">hlbtbPMYm</p>","","","","","","","","",""
"html-keyboard-response","352","451711","0.0-16.0-0.20","6172078b966225960be2a7b5","650c16f0f2faf8d7a0d14c09","651c1bf9698d5e803271ef39","null","null","<p style=""font-size: 60px; font-family: BACS"">hlbtbPMYm</p>","","","","","","","","",""
"html-keyboard-response","353","452722","0.0-16.0-0.21","6172078b966225960be2a7b5","650c16f0f2faf8d7a0d14c09","651c1bf9698d5e803271ef39","null","null","<p style=""font-size: 60px; font-family: BACS"">hlbtbPMYm</p>","","","","","","","","",""
"html-keyboard-response","354","453731","0.0-16.0-0.22","6172078b966225960be2a7b5","650c16f0f2faf8d7a0d14c09","651c1bf9698d5e803271ef39","null","null","<p style=""font-size: 60px; font-family: BACS"">hlbtbPMYm</p>","","","","","","","","",""
"html-keyboard-response","355","454751","0.0-16.0-0.23","6172078b966225960be2a7b5","650c16f0f2faf8d7a0d14c09","651c1bf9698d5e803271ef39","null","null","<p style=""font-size: 60px; font-family: BACS"">hlbtbPMYm</p>","","","","","","","","",""
"html-keyboard-response","356","455757","0.0-16.0-0.24","6172078b966225960be2a7b5","650c16f0f2faf8d7a0d14c09","651c1bf9698d5e803271ef39","null","null","<p style=""font-size: 60px; font-family: BACS"">hlbtbPMYm</p>","","","","","","","","",""
"html-keyboard-response","357","456761","0.0-16.0-0.25","6172078b966225960be2a7b5","650c16f0f2faf8d7a0d14c09","651c1bf9698d5e803271ef39","null","null","<p style=""font-size: 60px; font-family: BACS"">hlbtbPMYm</p>","","","","","","","","",""
"html-keyboard-response","358","457781","0.0-16.0-0.26","6172078b966225960be2a7b5","650c16f0f2faf8d7a0d14c09","651c1bf9698d5e803271ef39","null","null","<p style=""font-size: 60px; font-family: BACS"">hlbtbPMYm</p>","","","","","","","","",""
"html-keyboard-response","359","458791","0.0-16.0-0.27","6172078b966225960be2a7b5","650c16f0f2faf8d7a0d14c09","651c1bf9698d5e803271ef39","null","null","<p style=""font-size: 60px; font-family: BACS"">hlbtbPMYm</p>","","","","","","","","",""
"html-keyboard-response","360","459806","0.0-16.0-0.28","6172078b966225960be2a7b5","650c16f0f2faf8d7a0d14c09","651c1bf9698d5e803271ef39","null","null","<p style=""font-size: 60px; font-family: BACS"">hlbtbPMYm</p>","","","","","","","","",""
"html-keyboard-response","361","460810","0.0-16.0-0.29","6172078b966225960be2a7b5","650c16f0f2faf8d7a0d14c09","651c1bf9698d5e803271ef39","null","null","<p style=""font-size: 60px; font-family: BACS"">hlbtbPMYm</p>","","","","","","","","",""
"html-keyboard-response","362","461815","0.0-16.0-0.30","6172078b966225960be2a7b5","650c16f0f2faf8d7a0d14c09","651c1bf9698d5e803271ef39","null","null","<p style=""font-size: 60px; font-family: BACS"">hlbtbPMYm</p>","","","","","","","","",""
"html-keyboard-response","363","462822","0.0-16.0-0.31","6172078b966225960be2a7b5","650c16f0f2faf8d7a0d14c09","651c1bf9698d5e803271ef39","null","null","<p style=""font-size: 60px; font-family: BACS"">hlbtbPMYm</p>","","","","","","","","",""
"html-keyboard-response","364","463836","0.0-16.0-0.32","6172078b966225960be2a7b5","650c16f0f2faf8d7a0d14c09","651c1bf9698d5e803271ef39","null","null","<p style=""font-size: 60px; font-family: BACS"">hlbtbPMYm</p>","","","","","","","","",""
"html-keyboard-response","365","464847","0.0-16.0-0.33","6172078b966225960be2a7b5","650c16f0f2faf8d7a0d14c09","651c1bf9698d5e803271ef39","null","null","<p style=""font-size: 60px; font-family: BACS"">hlbtbPMYm</p>","","","","","","","","",""
"html-keyboard-response","366","465864","0.0-16.0-0.34","6172078b966225960be2a7b5","650c16f0f2faf8d7a0d14c09","651c1bf9698d5e803271ef39","null","null","<p style=""font-size: 60px; font-family: BACS"">hlbtbPMYm</p>","","","","","","","","",""
"html-keyboard-response","367","466869","0.0-16.0-0.35","6172078b966225960be2a7b5","650c16f0f2faf8d7a0d14c09","651c1bf9698d5e803271ef39","null","null","<p style=""font-size: 60px; font-family: BACS"">hlbtbPMYm</p>","","","","","","","","",""
"html-keyboard-response","368","467873","0.0-16.0-0.36","6172078b966225960be2a7b5","650c16f0f2faf8d7a0d14c09","651c1bf9698d5e803271ef39","null","null","<p style=""font-size: 60px; font-family: BACS"">hlbtbPMYm</p>","","","","","","","","",""
"html-keyboard-response","369","468877","0.0-16.0-0.37","6172078b966225960be2a7b5","650c16f0f2faf8d7a0d14c09","651c1bf9698d5e803271ef39","null","null","<p style=""font-size: 60px; font-family: BACS"">hlbtbPMYm</p>","","","","","","","","",""
"html-keyboard-response","370","469887","0.0-16.0-0.38","6172078b966225960be2a7b5","650c16f0f2faf8d7a0d14c09","651c1bf9698d5e803271ef39","null","null","<p style=""font-size: 60px; font-family: BACS"">hlbtbPMYm</p>","","","","","","","","",""
"html-keyboard-response","371","470900","0.0-16.0-0.39","6172078b966225960be2a7b5","650c16f0f2faf8d7a0d14c09","651c1bf9698d5e803271ef39","null","null","<p style=""font-size: 60px; font-family: BACS"">hlbtbPMYm</p>","","","","","","","","",""
"html-keyboard-response","372","471903","0.0-16.0-0.40","6172078b966225960be2a7b5","650c16f0f2faf8d7a0d14c09","651c1bf9698d5e803271ef39","null","null","<p style=""font-size: 60px; font-family: BACS"">hlbtbPMYm</p>","","","","","","","","",""
"html-keyboard-response","373","472918","0.0-16.0-0.41","6172078b966225960be2a7b5","650c16f0f2faf8d7a0d14c09","651c1bf9698d5e803271ef39","null","null","<p style=""font-size: 60px; font-family: BACS"">hlbtbPMYm</p>","","","","","","","","",""
"html-keyboard-response","374","473922","0.0-16.0-0.42","6172078b966225960be2a7b5","650c16f0f2faf8d7a0d14c09","651c1bf9698d5e803271ef39","null","null","<p style=""font-size: 60px; font-family: BACS"">hlbtbPMYm</p>","","","","","","","","",""
"html-keyboard-response","375","474937","0.0-16.0-0.43","6172078b966225960be2a7b5","650c16f0f2faf8d7a0d14c09","651c1bf9698d5e803271ef39","null","null","<p style=""font-size: 60px; font-family: BACS"">hlbtbPMYm</p>","","","","","","","","",""
"html-keyboard-response","376","475941","0.0-16.0-0.44","6172078b966225960be2a7b5","650c16f0f2faf8d7a0d14c09","651c1bf9698d5e803271ef39","null","null","<p style=""font-size: 60px; font-family: BACS"">hlbtbPMYm</p>","","","","","","","","",""
"html-keyboard-response","377","476945","0.0-16.0-0.45","6172078b966225960be2a7b5","650c16f0f2faf8d7a0d14c09","651c1bf9698d5e803271ef39","null","null","<p style=""font-size: 60px; font-family: BACS"">hlbtbPMYm</p>","","","","","","","","",""
"html-keyboard-response","378","477961","0.0-16.0-0.46","6172078b966225960be2a7b5","650c16f0f2faf8d7a0d14c09","651c1bf9698d5e803271ef39","null","null","<p style=""font-size: 60px; font-family: BACS"">hlbtbPMYm</p>","","","","","","","","",""
"html-keyboard-response","379","478964","0.0-16.0-0.47","6172078b966225960be2a7b5","650c16f0f2faf8d7a0d14c09","651c1bf9698d5e803271ef39","null","null","<p style=""font-size: 60px; font-family: BACS"">hlbtbPMYm</p>","","","","","","","","",""
"html-keyboard-response","380","479975","0.0-16.0-0.48","6172078b966225960be2a7b5","650c16f0f2faf8d7a0d14c09","651c1bf9698d5e803271ef39","null","null","<p style=""font-size: 60px; font-family: BACS"">hlbtbPMYm</p>","","","","","","","","",""
"html-keyboard-response","381","480980","0.0-16.0-0.49","6172078b966225960be2a7b5","650c16f0f2faf8d7a0d14c09","651c1bf9698d5e803271ef39","null","null","<p style=""font-size: 60px; font-family: BACS"">hlbtbPMYm</p>","","","","","","","","",""
"html-keyboard-response","382","481986","0.0-16.0-0.50","6172078b966225960be2a7b5","650c16f0f2faf8d7a0d14c09","651c1bf9698d5e803271ef39","null","null","<p style=""font-size: 60px; font-family: BACS"">hlbtbPMYm</p>","","","","","","","","",""
"html-keyboard-response","383","482994","0.0-16.0-0.51","6172078b966225960be2a7b5","650c16f0f2faf8d7a0d14c09","651c1bf9698d5e803271ef39","null","null","<p style=""font-size: 60px; font-family: BACS"">hlbtbPMYm</p>","","","","","","","","",""
"html-keyboard-response","384","484002","0.0-16.0-0.52","6172078b966225960be2a7b5","650c16f0f2faf8d7a0d14c09","651c1bf9698d5e803271ef39","null","null","<p style=""font-size: 60px; font-family: BACS"">hlbtbPMYm</p>","","","","","","","","",""
"html-keyboard-response","385","485018","0.0-16.0-0.53","6172078b966225960be2a7b5","650c16f0f2faf8d7a0d14c09","651c1bf9698d5e803271ef39","null","null","<p style=""font-size: 60px; font-family: BACS"">hlbtbPMYm</p>","","","","","","","","",""
"html-keyboard-response","386","486022","0.0-16.0-0.54","6172078b966225960be2a7b5","650c16f0f2faf8d7a0d14c09","651c1bf9698d5e803271ef39","null","null","<p style=""font-size: 60px; font-family: BACS"">hlbtbPMYm</p>","","","","","","","","",""
"html-keyboard-response","387","487025","0.0-16.0-0.55","6172078b966225960be2a7b5","650c16f0f2faf8d7a0d14c09","651c1bf9698d5e803271ef39","null","null","<p style=""font-size: 60px; font-family: BACS"">hlbtbPMYm</p>","","","","","","","","",""
"html-keyboard-response","388","488043","0.0-16.0-0.56","6172078b966225960be2a7b5","650c16f0f2faf8d7a0d14c09","651c1bf9698d5e803271ef39","null","null","<p style=""font-size: 60px; font-family: BACS"">hlbtbPMYm</p>","","","","","","","","",""
"html-keyboard-response","389","489060","0.0-16.0-0.57","6172078b966225960be2a7b5","650c16f0f2faf8d7a0d14c09","651c1bf9698d5e803271ef39","null","null","<p style=""font-size: 60px; font-family: BACS"">hlbtbPMYm</p>","","","","","","","","",""
"html-keyboard-response","390","490068","0.0-16.0-0.58","6172078b966225960be2a7b5","650c16f0f2faf8d7a0d14c09","651c1bf9698d5e803271ef39","null","null","<p style=""font-size: 60px; font-family: BACS"">hlbtbPMYm</p>","","","","","","","","",""
"html-keyboard-response","391","491071","0.0-16.0-0.59","6172078b966225960be2a7b5","650c16f0f2faf8d7a0d14c09","651c1bf9698d5e803271ef39","null","null","<p style=""font-size: 60px; font-family: BACS"">hlbtbPMYm</p>","","","","","","","","",""
"html-keyboard-response","392","492085","0.0-16.0-0.60","6172078b966225960be2a7b5","650c16f0f2faf8d7a0d14c09","651c1bf9698d5e803271ef39","null","null","<p style=""font-size: 60px; font-family: BACS"">hlbtbPMYm</p>","","","","","","","","",""
"html-keyboard-response","393","493099","0.0-16.0-0.61","6172078b966225960be2a7b5","650c16f0f2faf8d7a0d14c09","651c1bf9698d5e803271ef39","null","null","<p style=""font-size: 60px; font-family: BACS"">hlbtbPMYm</p>","","","","","","","","",""
"html-keyboard-response","394","494110","0.0-16.0-0.62","6172078b966225960be2a7b5","650c16f0f2faf8d7a0d14c09","651c1bf9698d5e803271ef39","null","null","<p style=""font-size: 60px; font-family: BACS"">hlbtbPMYm</p>","","","","","","","","",""
"html-keyboard-response","395","495115","0.0-16.0-0.63","6172078b966225960be2a7b5","650c16f0f2faf8d7a0d14c09","651c1bf9698d5e803271ef39","null","null","<p style=""font-size: 60px; font-family: BACS"">hlbtbPMYm</p>","","","","","","","","",""
"html-keyboard-response","396","496127","0.0-16.0-0.64","6172078b966225960be2a7b5","650c16f0f2faf8d7a0d14c09","651c1bf9698d5e803271ef39","null","null","<p style=""font-size: 60px; font-family: BACS"">hlbtbPMYm</p>","","","","","","","","",""
"html-keyboard-response","397","497137","0.0-16.0-0.65","6172078b966225960be2a7b5","650c16f0f2faf8d7a0d14c09","651c1bf9698d5e803271ef39","null","null","<p style=""font-size: 60px; font-family: BACS"">hlbtbPMYm</p>","","","","","","","","",""
"html-keyboard-response","398","498150","0.0-16.0-0.66","6172078b966225960be2a7b5","650c16f0f2faf8d7a0d14c09","651c1bf9698d5e803271ef39","null","null","<p style=""font-size: 60px; font-family: BACS"">hlbtbPMYm</p>","","","","","","","","",""
"html-keyboard-response","399","499162","0.0-16.0-0.67","6172078b966225960be2a7b5","650c16f0f2faf8d7a0d14c09","651c1bf9698d5e803271ef39","null","null","<p style=""font-size: 60px; font-family: BACS"">hlbtbPMYm</p>","","","","","","","","",""
