"trial_type","trial_index","time_elapsed","internal_node_id","subject_id","study_id","session_id","rt","response","stimulus","success","item","task","correct_response","testing_condition","correct","target","confound","name"
"pavlovia","0","1891","0.0-0.0","617679054948369cb824d837","650c16f0f2faf8d7a0d14c09","651c1e4555bcdef806a4637e","","","","","","","","","","","",""
"survey-html-form","1","7852","0.0-1.0","617679054948369cb824d837","650c16f0f2faf8d7a0d14c09","651c1e4555bcdef806a4637e","5958","{""ID"":""617679054948369cb824d837""}","","","","","","","","","",""
"html-keyboard-response","2","52019","0.0-2.0","617679054948369cb824d837","650c16f0f2faf8d7a0d14c09","651c1e4555bcdef806a4637e","44160"," ","<p style=""font-size: 15px;"">Before beginning, we ask that you read the consent information and confirm your agreement to participate in the experiment.</p>
      <p style=""font-size: 15px;""> We ask that you remember that this is a research project and that your participation is entirely voluntary. You can stop your participation at any time, without needing to provide any explanation. The study we're asking you to participate in aims at examining how readers process written words. You will be engaged in a session of apprximately 20 minutes, followed by a brief questionnaire. You will have the opportunity to take a few breaks during the experiment. You will be paid £4 for your participation, corresponding to a rate of £8/hour. While this experiment looks at cognitive faculties, this experiment doesn't constitute clinical proof of eventual pathologies.</p>
      <p style=""font-size: 15px;"">All of the information collected thanks to yours and others' participation will be held in a secure password-protected server, and will not be shared with anyone not authorised to view it. Your personal information will be kept with an arbitrary participant ID. Thanks to this data anonymity process, any researcher analysing the data won't be able to track the information back to a specific participant. Therefore, this process will make identifying you impossibile, even when results from the study will be published in scientific reviews, presented at congresses, or at any other public forum. More generally, the collected data will be treated in accordance with the laws on privacy and conformity to the Legislative Degree n. 196 ""Code regarding the protection of personal data"" of the 30th of June 2003 and to the European Regulation 2016/670 (General Data Protection Regulation - GDPR). The Data Protection Officer is Avv. Valentina Carollo, who can be contacted at the following email addresses: <a href=""mailto:dpo@sissa.it"">dpo@sissa.it</a> or <a href=""mailto:rpd@sissa.it"">rpd@sissa.it</a> - PEC: <a href=""mailto:protocollo@pec.sissa.it"">protocollo@pec.sissa.it</a>.</p>
      <p style=""font-size: 15px;""> Before expressing your consent to participate, we would like to remind you again that in case you need explanations on any aspect of the experimental procedure, the researcher is at your disposition (<a href=""mailto:aliebelt@sissa.it"">aliebelt@sissa.it</a>, <a href=""mailto:davide.crepaldi@sissa.it"">davide.crepaldi@sissa.it</a>).</p>
      <p style=""font-size: 15px;"">If you would like to download the informed consent form, you can do so here: <a href=""BASL-Informed_Consent.pdf"" download>informed consent form</a>.</p>
      <p style=""font-size: 15px;"">We ask that you press the spacebar to proceed to the consent section.</p>","","","","","","","","",""
"survey-html-form","3","100439","0.0-3.0","617679054948369cb824d837","650c16f0f2faf8d7a0d14c09","651c1e4555bcdef806a4637e","48414","{""consent1"":""YES"",""consent2"":""YES"",""consent3"":""YES"",""consent4"":""YES"",""consent5"":""YES"",""consent6"":""YES""}","","","","","","","","","",""
"fullscreen","4","108122","0.0-4.0","617679054948369cb824d837","650c16f0f2faf8d7a0d14c09","651c1e4555bcdef806a4637e","","","","true","","","","","","","",""
"html-keyboard-response","5","151912","0.0-5.0","617679054948369cb824d837","650c16f0f2faf8d7a0d14c09","651c1e4555bcdef806a4637e","43785"," ","<p>Welcome, and thank you very much for your time!</p>
      <p>In this experiment, you'll be a language expert who's been asked to take a look at words that Earth has received in its first communication with aliens. Your task, in this first part of the experiment, is to pay close attention to the words you'll be shown; later, world leaders will ask you questions on what you saw. The words will be shown to you quite quickly; it seems that the aliens were in a hurry :-)</p>
      <p>Press the spacebar to continue.<p>","","","","","","","","",""
"html-keyboard-response","6","151971","0.0-6.0","617679054948369cb824d837","650c16f0f2faf8d7a0d14c09","651c1e4555bcdef806a4637e","null","null","<p style=""font-size: 120px; font-family: BACS""> </p>","","","","","","","","",""
"html-keyboard-response","7","159259","0.0-7.0","617679054948369cb824d837","650c16f0f2faf8d7a0d14c09","651c1e4555bcdef806a4637e","7287"," ","<p>Here is an example of the words you'll see:</p>
      <img src='esempio.png' height='400px'>
      <p>When you're ready to begin, press the spacebar.</p></div>","","","","","","","","",""
"html-keyboard-response","8","160278","0.0-8.0-0.0","617679054948369cb824d837","650c16f0f2faf8d7a0d14c09","651c1e4555bcdef806a4637e","null","null","<p style=""font-size: 60px; font-family: BACS"">lBlEmtKP</p>","","","","","","","","",""
"html-keyboard-response","9","161284","0.0-8.0-0.1","617679054948369cb824d837","650c16f0f2faf8d7a0d14c09","651c1e4555bcdef806a4637e","null","null","<p style=""font-size: 60px; font-family: BACS"">AdDbPEdK</p>","","","","","","","","",""
"html-keyboard-response","10","162289","0.0-8.0-0.2","617679054948369cb824d837","650c16f0f2faf8d7a0d14c09","651c1e4555bcdef806a4637e","null","null","<p style=""font-size: 60px; font-family: BACS"">rvOvUZckv</p>","","","","","","","","",""
"html-keyboard-response","11","163311","0.0-8.0-0.3","617679054948369cb824d837","650c16f0f2faf8d7a0d14c09","651c1e4555bcdef806a4637e","null","null","<p style=""font-size: 60px; font-family: BACS"">kKEdMYht</p>","","","","","","","","",""
"html-keyboard-response","12","164314","0.0-8.0-0.4","617679054948369cb824d837","650c16f0f2faf8d7a0d14c09","651c1e4555bcdef806a4637e","null","null","<p style=""font-size: 60px; font-family: BACS"">dRhtBbM</p>","","","","","","","","",""
"html-keyboard-response","13","165322","0.0-8.0-0.5","617679054948369cb824d837","650c16f0f2faf8d7a0d14c09","651c1e4555bcdef806a4637e","null","null","<p style=""font-size: 60px; font-family: BACS"">NJZlkJdr</p>","","","","","","","","",""
"html-keyboard-response","14","166330","0.0-8.0-0.6","617679054948369cb824d837","650c16f0f2faf8d7a0d14c09","651c1e4555bcdef806a4637e","null","null","<p style=""font-size: 60px; font-family: BACS"">tDPRkPEdK</p>","","","","","","","","",""
"html-keyboard-response","15","167338","0.0-8.0-0.7","617679054948369cb824d837","650c16f0f2faf8d7a0d14c09","651c1e4555bcdef806a4637e","null","null","<p style=""font-size: 60px; font-family: BACS"">mhtcYht</p>","","","","","","","","",""
"html-keyboard-response","16","168346","0.0-8.0-0.8","617679054948369cb824d837","650c16f0f2faf8d7a0d14c09","651c1e4555bcdef806a4637e","null","null","<p style=""font-size: 60px; font-family: BACS"">alJYmkc</p>","","","","","","","","",""
"html-keyboard-response","17","169354","0.0-8.0-0.9","617679054948369cb824d837","650c16f0f2faf8d7a0d14c09","651c1e4555bcdef806a4637e","null","null","<p style=""font-size: 60px; font-family: BACS"">tDPRkBbM</p>","","","","","","","","",""
"html-keyboard-response","18","170363","0.0-8.0-0.10","617679054948369cb824d837","650c16f0f2faf8d7a0d14c09","651c1e4555bcdef806a4637e","null","null","<p style=""font-size: 60px; font-family: BACS"">hTtBbmtKP</p>","","","","","","","","",""
"html-keyboard-response","19","171369","0.0-8.0-0.11","617679054948369cb824d837","650c16f0f2faf8d7a0d14c09","651c1e4555bcdef806a4637e","null","null","<p style=""font-size: 60px; font-family: BACS"">NJZlmZb</p>","","","","","","","","",""
"html-keyboard-response","20","172378","0.0-8.0-0.12","617679054948369cb824d837","650c16f0f2faf8d7a0d14c09","651c1e4555bcdef806a4637e","null","null","<p style=""font-size: 60px; font-family: BACS"">KdARBbM</p>","","","","","","","","",""
"html-keyboard-response","21","173389","0.0-8.0-0.13","617679054948369cb824d837","650c16f0f2faf8d7a0d14c09","651c1e4555bcdef806a4637e","null","null","<p style=""font-size: 60px; font-family: BACS"">alJYmZb</p>","","","","","","","","",""
"html-keyboard-response","22","174394","0.0-8.0-0.14","617679054948369cb824d837","650c16f0f2faf8d7a0d14c09","651c1e4555bcdef806a4637e","null","null","<p style=""font-size: 60px; font-family: BACS"">bNdmGkJdr</p>","","","","","","","","",""
"html-keyboard-response","23","175403","0.0-8.0-0.15","617679054948369cb824d837","650c16f0f2faf8d7a0d14c09","651c1e4555bcdef806a4637e","null","null","<p style=""font-size: 60px; font-family: BACS"">lBlEdRA</p>","","","","","","","","",""
"html-keyboard-response","24","176410","0.0-8.0-0.16","617679054948369cb824d837","650c16f0f2faf8d7a0d14c09","651c1e4555bcdef806a4637e","null","null","<p style=""font-size: 60px; font-family: BACS"">ZNLOvmZb</p>","","","","","","","","",""
"html-keyboard-response","25","177417","0.0-8.0-0.17","617679054948369cb824d837","650c16f0f2faf8d7a0d14c09","651c1e4555bcdef806a4637e","null","null","<p style=""font-size: 60px; font-family: BACS"">AdDbdRA</p>","","","","","","","","",""
"html-keyboard-response","26","178427","0.0-8.0-0.18","617679054948369cb824d837","650c16f0f2faf8d7a0d14c09","651c1e4555bcdef806a4637e","null","null","<p style=""font-size: 60px; font-family: BACS"">bNdmGAOUl</p>","","","","","","","","",""
"html-keyboard-response","27","179434","0.0-8.0-0.19","617679054948369cb824d837","650c16f0f2faf8d7a0d14c09","651c1e4555bcdef806a4637e","null","null","<p style=""font-size: 60px; font-family: BACS"">adYrcmZb</p>","","","","","","","","",""
"html-keyboard-response","28","180442","0.0-8.0-0.20","617679054948369cb824d837","650c16f0f2faf8d7a0d14c09","651c1e4555bcdef806a4637e","null","null","<p style=""font-size: 60px; font-family: BACS"">AdDbmtKP</p>","","","","","","","","",""
"html-keyboard-response","29","181450","0.0-8.0-0.21","617679054948369cb824d837","650c16f0f2faf8d7a0d14c09","651c1e4555bcdef806a4637e","null","null","<p style=""font-size: 60px; font-family: BACS"">lBlEBbM</p>","","","","","","","","",""
"html-keyboard-response","30","182463","0.0-8.0-0.22","617679054948369cb824d837","650c16f0f2faf8d7a0d14c09","651c1e4555bcdef806a4637e","null","null","<p style=""font-size: 60px; font-family: BACS"">vAuNlAOUl</p>","","","","","","","","",""
"html-keyboard-response","31","183503","0.0-8.0-0.23","617679054948369cb824d837","650c16f0f2faf8d7a0d14c09","651c1e4555bcdef806a4637e","null","null","<p style=""font-size: 60px; font-family: BACS"">adYrckJdr</p>","","","","","","","","",""
"html-keyboard-response","32","184506","0.0-8.0-0.24","617679054948369cb824d837","650c16f0f2faf8d7a0d14c09","651c1e4555bcdef806a4637e","null","null","<p style=""font-size: 60px; font-family: BACS"">BlmclYht</p>","","","","","","","","",""
"html-keyboard-response","33","185545","0.0-8.0-0.25","617679054948369cb824d837","650c16f0f2faf8d7a0d14c09","651c1e4555bcdef806a4637e","null","null","<p style=""font-size: 60px; font-family: BACS"">alJYkJdr</p>","","","","","","","","",""
"html-keyboard-response","34","186553","0.0-8.0-0.26","617679054948369cb824d837","650c16f0f2faf8d7a0d14c09","651c1e4555bcdef806a4637e","null","null","<p style=""font-size: 60px; font-family: BACS"">KdARdRA</p>","","","","","","","","",""
"html-keyboard-response","35","187562","0.0-8.0-0.27","617679054948369cb824d837","650c16f0f2faf8d7a0d14c09","651c1e4555bcdef806a4637e","null","null","<p style=""font-size: 60px; font-family: BACS"">ZdNmUZckv</p>","","","","","","","","",""
"html-keyboard-response","36","188572","0.0-8.0-0.28","617679054948369cb824d837","650c16f0f2faf8d7a0d14c09","651c1e4555bcdef806a4637e","null","null","<p style=""font-size: 60px; font-family: BACS"">vAuNlmZb</p>","","","","","","","","",""
"html-keyboard-response","37","189584","0.0-8.0-0.29","617679054948369cb824d837","650c16f0f2faf8d7a0d14c09","651c1e4555bcdef806a4637e","null","null","<p style=""font-size: 60px; font-family: BACS"">tDPRkYht</p>","","","","","","","","",""
"html-keyboard-response","38","190593","0.0-8.0-0.30","617679054948369cb824d837","650c16f0f2faf8d7a0d14c09","651c1e4555bcdef806a4637e","null","null","<p style=""font-size: 60px; font-family: BACS"">DhMtPEdK</p>","","","","","","","","",""
"html-keyboard-response","39","191601","0.0-8.0-0.31","617679054948369cb824d837","650c16f0f2faf8d7a0d14c09","651c1e4555bcdef806a4637e","null","null","<p style=""font-size: 60px; font-family: BACS"">vAuNlmkc</p>","","","","","","","","",""
"html-keyboard-response","40","192610","0.0-8.0-0.32","617679054948369cb824d837","650c16f0f2faf8d7a0d14c09","651c1e4555bcdef806a4637e","null","null","<p style=""font-size: 60px; font-family: BACS"">ZdNmUAOUl</p>","","","","","","","","",""
"html-keyboard-response","41","193619","0.0-8.0-0.33","617679054948369cb824d837","650c16f0f2faf8d7a0d14c09","651c1e4555bcdef806a4637e","null","null","<p style=""font-size: 60px; font-family: BACS"">kKEdMdRA</p>","","","","","","","","",""
"html-keyboard-response","42","194626","0.0-8.0-0.34","617679054948369cb824d837","650c16f0f2faf8d7a0d14c09","651c1e4555bcdef806a4637e","null","null","<p style=""font-size: 60px; font-family: BACS"">AZlLNZckv</p>","","","","","","","","",""
"html-keyboard-response","43","195633","0.0-8.0-0.35","617679054948369cb824d837","650c16f0f2faf8d7a0d14c09","651c1e4555bcdef806a4637e","null","null","<p style=""font-size: 60px; font-family: BACS"">BlmcldRA</p>","","","","","","","","",""
"html-keyboard-response","44","196642","0.0-8.0-0.36","617679054948369cb824d837","650c16f0f2faf8d7a0d14c09","651c1e4555bcdef806a4637e","null","null","<p style=""font-size: 60px; font-family: BACS"">mhtcBbM</p>","","","","","","","","",""
"html-keyboard-response","45","197651","0.0-8.0-0.37","617679054948369cb824d837","650c16f0f2faf8d7a0d14c09","651c1e4555bcdef806a4637e","null","null","<p style=""font-size: 60px; font-family: BACS"">bNdmGmkc</p>","","","","","","","","",""
"html-keyboard-response","46","198658","0.0-8.0-0.38","617679054948369cb824d837","650c16f0f2faf8d7a0d14c09","651c1e4555bcdef806a4637e","null","null","<p style=""font-size: 60px; font-family: BACS"">adYrcZckv</p>","","","","","","","","",""
"html-keyboard-response","47","199669","0.0-8.0-0.39","617679054948369cb824d837","650c16f0f2faf8d7a0d14c09","651c1e4555bcdef806a4637e","null","null","<p style=""font-size: 60px; font-family: BACS"">mhtcPEdK</p>","","","","","","","","",""
"html-keyboard-response","48","200697","0.0-8.0-0.40","617679054948369cb824d837","650c16f0f2faf8d7a0d14c09","651c1e4555bcdef806a4637e","null","null","<p style=""font-size: 60px; font-family: BACS"">AdDbBbM</p>","","","","","","","","",""
"html-keyboard-response","49","201705","0.0-8.0-0.41","617679054948369cb824d837","650c16f0f2faf8d7a0d14c09","651c1e4555bcdef806a4637e","null","null","<p style=""font-size: 60px; font-family: BACS"">ZNLOvZckv</p>","","","","","","","","",""
"html-keyboard-response","50","202713","0.0-8.0-0.42","617679054948369cb824d837","650c16f0f2faf8d7a0d14c09","651c1e4555bcdef806a4637e","null","null","<p style=""font-size: 60px; font-family: BACS"">YadrkJdr</p>","","","","","","","","",""
"html-keyboard-response","51","203723","0.0-8.0-0.43","617679054948369cb824d837","650c16f0f2faf8d7a0d14c09","651c1e4555bcdef806a4637e","null","null","<p style=""font-size: 60px; font-family: BACS"">alJYAOUl</p>","","","","","","","","",""
"html-keyboard-response","52","204729","0.0-8.0-0.44","617679054948369cb824d837","650c16f0f2faf8d7a0d14c09","651c1e4555bcdef806a4637e","null","null","<p style=""font-size: 60px; font-family: BACS"">rvOvUmkc</p>","","","","","","","","",""
"html-keyboard-response","53","205740","0.0-8.0-0.45","617679054948369cb824d837","650c16f0f2faf8d7a0d14c09","651c1e4555bcdef806a4637e","null","null","<p style=""font-size: 60px; font-family: BACS"">mhtcmtKP</p>","","","","","","","","",""
"html-keyboard-response","54","206746","0.0-8.0-0.46","617679054948369cb824d837","650c16f0f2faf8d7a0d14c09","651c1e4555bcdef806a4637e","null","null","<p style=""font-size: 60px; font-family: BACS"">dRhtdRA</p>","","","","","","","","",""
"html-keyboard-response","55","207754","0.0-8.0-0.47","617679054948369cb824d837","650c16f0f2faf8d7a0d14c09","651c1e4555bcdef806a4637e","null","null","<p style=""font-size: 60px; font-family: BACS"">ZNLOvAOUl</p>","","","","","","","","",""
"html-keyboard-response","56","208762","0.0-8.0-0.48","617679054948369cb824d837","650c16f0f2faf8d7a0d14c09","651c1e4555bcdef806a4637e","null","null","<p style=""font-size: 60px; font-family: BACS"">hTtBbYht</p>","","","","","","","","",""
"html-keyboard-response","57","209772","0.0-8.0-0.49","617679054948369cb824d837","650c16f0f2faf8d7a0d14c09","651c1e4555bcdef806a4637e","null","null","<p style=""font-size: 60px; font-family: BACS"">NJZlmkc</p>","","","","","","","","",""
"html-keyboard-response","58","210778","0.0-8.0-0.50","617679054948369cb824d837","650c16f0f2faf8d7a0d14c09","651c1e4555bcdef806a4637e","null","null","<p style=""font-size: 60px; font-family: BACS"">rvOvUkJdr</p>","","","","","","","","",""
"html-keyboard-response","59","211785","0.0-8.0-0.51","617679054948369cb824d837","650c16f0f2faf8d7a0d14c09","651c1e4555bcdef806a4637e","null","null","<p style=""font-size: 60px; font-family: BACS"">AZlLNmkc</p>","","","","","","","","",""
"html-keyboard-response","60","212793","0.0-8.0-0.52","617679054948369cb824d837","650c16f0f2faf8d7a0d14c09","651c1e4555bcdef806a4637e","null","null","<p style=""font-size: 60px; font-family: BACS"">lBlEPEdK</p>","","","","","","","","",""
"html-keyboard-response","61","213803","0.0-8.0-0.53","617679054948369cb824d837","650c16f0f2faf8d7a0d14c09","651c1e4555bcdef806a4637e","null","null","<p style=""font-size: 60px; font-family: BACS"">YadrZckv</p>","","","","","","","","",""
"html-keyboard-response","62","214809","0.0-8.0-0.54","617679054948369cb824d837","650c16f0f2faf8d7a0d14c09","651c1e4555bcdef806a4637e","null","null","<p style=""font-size: 60px; font-family: BACS"">tDPRkmtKP</p>","","","","","","","","",""
"html-keyboard-response","63","215818","0.0-8.0-0.55","617679054948369cb824d837","650c16f0f2faf8d7a0d14c09","651c1e4555bcdef806a4637e","null","null","<p style=""font-size: 60px; font-family: BACS"">BlmclBbM</p>","","","","","","","","",""
"html-keyboard-response","64","216825","0.0-8.0-0.56","617679054948369cb824d837","650c16f0f2faf8d7a0d14c09","651c1e4555bcdef806a4637e","null","null","<p style=""font-size: 60px; font-family: BACS"">Yadrmkc</p>","","","","","","","","",""
"html-keyboard-response","65","217835","0.0-8.0-0.57","617679054948369cb824d837","650c16f0f2faf8d7a0d14c09","651c1e4555bcdef806a4637e","null","null","<p style=""font-size: 60px; font-family: BACS"">BlmclmtKP</p>","","","","","","","","",""
"html-keyboard-response","66","218842","0.0-8.0-0.58","617679054948369cb824d837","650c16f0f2faf8d7a0d14c09","651c1e4555bcdef806a4637e","null","null","<p style=""font-size: 60px; font-family: BACS"">KdARYht</p>","","","","","","","","",""
"html-keyboard-response","67","219849","0.0-8.0-0.59","617679054948369cb824d837","650c16f0f2faf8d7a0d14c09","651c1e4555bcdef806a4637e","null","null","<p style=""font-size: 60px; font-family: BACS"">ZdNmUkJdr</p>","","","","","","","","",""
"html-keyboard-response","68","220858","0.0-8.0-0.60","617679054948369cb824d837","650c16f0f2faf8d7a0d14c09","651c1e4555bcdef806a4637e","null","null","<p style=""font-size: 60px; font-family: BACS"">kKEdMmtKP</p>","","","","","","","","",""
"html-keyboard-response","69","221879","0.0-8.0-0.61","617679054948369cb824d837","650c16f0f2faf8d7a0d14c09","651c1e4555bcdef806a4637e","null","null","<p style=""font-size: 60px; font-family: BACS"">vAuNlZckv</p>","","","","","","","","",""
"html-keyboard-response","70","222881","0.0-8.0-0.62","617679054948369cb824d837","650c16f0f2faf8d7a0d14c09","651c1e4555bcdef806a4637e","null","null","<p style=""font-size: 60px; font-family: BACS"">dRhtPEdK</p>","","","","","","","","",""
"html-keyboard-response","71","223890","0.0-8.0-0.63","617679054948369cb824d837","650c16f0f2faf8d7a0d14c09","651c1e4555bcdef806a4637e","null","null","<p style=""font-size: 60px; font-family: BACS"">AZlLNmZb</p>","","","","","","","","",""
"html-keyboard-response","72","224904","0.0-8.0-0.64","617679054948369cb824d837","650c16f0f2faf8d7a0d14c09","651c1e4555bcdef806a4637e","null","null","<p style=""font-size: 60px; font-family: BACS"">NJZlAOUl</p>","","","","","","","","",""
"html-keyboard-response","73","225913","0.0-8.0-0.65","617679054948369cb824d837","650c16f0f2faf8d7a0d14c09","651c1e4555bcdef806a4637e","null","null","<p style=""font-size: 60px; font-family: BACS"">hTtBbdRA</p>","","","","","","","","",""
"html-keyboard-response","74","226922","0.0-8.0-0.66","617679054948369cb824d837","650c16f0f2faf8d7a0d14c09","651c1e4555bcdef806a4637e","null","null","<p style=""font-size: 60px; font-family: BACS"">DhMtYht</p>","","","","","","","","",""
"html-keyboard-response","75","227930","0.0-8.0-0.67","617679054948369cb824d837","650c16f0f2faf8d7a0d14c09","651c1e4555bcdef806a4637e","null","null","<p style=""font-size: 60px; font-family: BACS"">AZlLNAOUl</p>","","","","","","","","",""
"html-keyboard-response","76","228939","0.0-8.0-0.68","617679054948369cb824d837","650c16f0f2faf8d7a0d14c09","651c1e4555bcdef806a4637e","null","null","<p style=""font-size: 60px; font-family: BACS"">bNdmGZckv</p>","","","","","","","","",""
"html-keyboard-response","77","229946","0.0-8.0-0.69","617679054948369cb824d837","650c16f0f2faf8d7a0d14c09","651c1e4555bcdef806a4637e","null","null","<p style=""font-size: 60px; font-family: BACS"">hTtBbPEdK</p>","","","","","","","","",""
"html-keyboard-response","78","230954","0.0-8.0-0.70","617679054948369cb824d837","650c16f0f2faf8d7a0d14c09","651c1e4555bcdef806a4637e","null","null","<p style=""font-size: 60px; font-family: BACS"">ZdNmUmkc</p>","","","","","","","","",""
"html-keyboard-response","79","231961","0.0-8.0-0.71","617679054948369cb824d837","650c16f0f2faf8d7a0d14c09","651c1e4555bcdef806a4637e","null","null","<p style=""font-size: 60px; font-family: BACS"">rvOvUmZb</p>","","","","","","","","",""
"html-keyboard-response","80","232969","0.0-8.0-0.72","617679054948369cb824d837","650c16f0f2faf8d7a0d14c09","651c1e4555bcdef806a4637e","null","null","<p style=""font-size: 60px; font-family: BACS"">adYrcAOUl</p>","","","","","","","","",""
"html-keyboard-response","81","233977","0.0-8.0-0.73","617679054948369cb824d837","650c16f0f2faf8d7a0d14c09","651c1e4555bcdef806a4637e","null","null","<p style=""font-size: 60px; font-family: BACS"">DhMtBbM</p>","","","","","","","","",""
"html-keyboard-response","82","234985","0.0-8.0-0.74","617679054948369cb824d837","650c16f0f2faf8d7a0d14c09","651c1e4555bcdef806a4637e","null","null","<p style=""font-size: 60px; font-family: BACS"">kKEdMPEdK</p>","","","","","","","","",""
"html-keyboard-response","83","235993","0.0-8.0-0.75","617679054948369cb824d837","650c16f0f2faf8d7a0d14c09","651c1e4555bcdef806a4637e","null","null","<p style=""font-size: 60px; font-family: BACS"">YadrmZb</p>","","","","","","","","",""
"html-keyboard-response","84","237001","0.0-8.0-0.76","617679054948369cb824d837","650c16f0f2faf8d7a0d14c09","651c1e4555bcdef806a4637e","null","null","<p style=""font-size: 60px; font-family: BACS"">ZNLOvkJdr</p>","","","","","","","","",""
"html-keyboard-response","85","238009","0.0-8.0-0.77","617679054948369cb824d837","650c16f0f2faf8d7a0d14c09","651c1e4555bcdef806a4637e","null","null","<p style=""font-size: 60px; font-family: BACS"">dRhtYht</p>","","","","","","","","",""
"html-keyboard-response","86","239017","0.0-8.0-0.78","617679054948369cb824d837","650c16f0f2faf8d7a0d14c09","651c1e4555bcdef806a4637e","null","null","<p style=""font-size: 60px; font-family: BACS"">DhMtdRA</p>","","","","","","","","",""
"html-keyboard-response","87","240025","0.0-8.0-0.79","617679054948369cb824d837","650c16f0f2faf8d7a0d14c09","651c1e4555bcdef806a4637e","null","null","<p style=""font-size: 60px; font-family: BACS"">KdARmtKP</p>","","","","","","","","",""
"html-keyboard-response","88","285304","0.0-9.0","617679054948369cb824d837","650c16f0f2faf8d7a0d14c09","651c1e4555bcdef806a4637e","45274"," ","<p>Great, you've seen the first block of words. You may now take a short break.</p>
      <p>Press the spacebar when you're ready to continue.</p>","","","","","","","","",""
"html-keyboard-response","89","286315","0.0-10.0-0.0","617679054948369cb824d837","650c16f0f2faf8d7a0d14c09","651c1e4555bcdef806a4637e","null","null","<p style=""font-size: 60px; font-family: BACS"">NJZlmkc</p>","","","","","","","","",""
"html-keyboard-response","90","287321","0.0-10.0-0.1","617679054948369cb824d837","650c16f0f2faf8d7a0d14c09","651c1e4555bcdef806a4637e","null","null","<p style=""font-size: 60px; font-family: BACS"">DhMtdRA</p>","","","","","","","","",""
"html-keyboard-response","91","288329","0.0-10.0-0.2","617679054948369cb824d837","650c16f0f2faf8d7a0d14c09","651c1e4555bcdef806a4637e","null","null","<p style=""font-size: 60px; font-family: BACS"">KdARYht</p>","","","","","","","","",""
"html-keyboard-response","92","289338","0.0-10.0-0.3","617679054948369cb824d837","650c16f0f2faf8d7a0d14c09","651c1e4555bcdef806a4637e","null","null","<p style=""font-size: 60px; font-family: BACS"">NJZlAOUl</p>","","","","","","","","",""
"html-keyboard-response","93","290345","0.0-10.0-0.4","617679054948369cb824d837","650c16f0f2faf8d7a0d14c09","651c1e4555bcdef806a4637e","null","null","<p style=""font-size: 60px; font-family: BACS"">lBlEdRA</p>","","","","","","","","",""
"html-keyboard-response","94","291359","0.0-10.0-0.5","617679054948369cb824d837","650c16f0f2faf8d7a0d14c09","651c1e4555bcdef806a4637e","null","null","<p style=""font-size: 60px; font-family: BACS"">mhtcYht</p>","","","","","","","","",""
"html-keyboard-response","95","292397","0.0-10.0-0.6","617679054948369cb824d837","650c16f0f2faf8d7a0d14c09","651c1e4555bcdef806a4637e","null","null","<p style=""font-size: 60px; font-family: BACS"">vAuNlZckv</p>","","","","","","","","",""
"html-keyboard-response","96","293405","0.0-10.0-0.7","617679054948369cb824d837","650c16f0f2faf8d7a0d14c09","651c1e4555bcdef806a4637e","null","null","<p style=""font-size: 60px; font-family: BACS"">hTtBbmtKP</p>","","","","","","","","",""
"html-keyboard-response","97","294409","0.0-10.0-0.8","617679054948369cb824d837","650c16f0f2faf8d7a0d14c09","651c1e4555bcdef806a4637e","null","null","<p style=""font-size: 60px; font-family: BACS"">ZNLOvAOUl</p>","","","","","","","","",""
"html-keyboard-response","98","295418","0.0-10.0-0.9","617679054948369cb824d837","650c16f0f2faf8d7a0d14c09","651c1e4555bcdef806a4637e","null","null","<p style=""font-size: 60px; font-family: BACS"">ZdNmUkJdr</p>","","","","","","","","",""
"html-keyboard-response","99","296425","0.0-10.0-0.10","617679054948369cb824d837","650c16f0f2faf8d7a0d14c09","651c1e4555bcdef806a4637e","null","null","<p style=""font-size: 60px; font-family: BACS"">AZlLNZckv</p>","","","","","","","","",""
"html-keyboard-response","100","297435","0.0-10.0-0.11","617679054948369cb824d837","650c16f0f2faf8d7a0d14c09","651c1e4555bcdef806a4637e","null","null","<p style=""font-size: 60px; font-family: BACS"">AdDbmtKP</p>","","","","","","","","",""
"html-keyboard-response","101","298442","0.0-10.0-0.12","617679054948369cb824d837","650c16f0f2faf8d7a0d14c09","651c1e4555bcdef806a4637e","null","null","<p style=""font-size: 60px; font-family: BACS"">alJYkJdr</p>","","","","","","","","",""
"html-keyboard-response","102","299449","0.0-10.0-0.13","617679054948369cb824d837","650c16f0f2faf8d7a0d14c09","651c1e4555bcdef806a4637e","null","null","<p style=""font-size: 60px; font-family: BACS"">rvOvUZckv</p>","","","","","","","","",""
"html-keyboard-response","103","300458","0.0-10.0-0.14","617679054948369cb824d837","650c16f0f2faf8d7a0d14c09","651c1e4555bcdef806a4637e","null","null","<p style=""font-size: 60px; font-family: BACS"">AZlLNmZb</p>","","","","","","","","",""
"html-keyboard-response","104","301467","0.0-10.0-0.15","617679054948369cb824d837","650c16f0f2faf8d7a0d14c09","651c1e4555bcdef806a4637e","null","null","<p style=""font-size: 60px; font-family: BACS"">hTtBbYht</p>","","","","","","","","",""
"html-keyboard-response","105","302475","0.0-10.0-0.16","617679054948369cb824d837","650c16f0f2faf8d7a0d14c09","651c1e4555bcdef806a4637e","null","null","<p style=""font-size: 60px; font-family: BACS"">mhtcBbM</p>","","","","","","","","",""
"html-keyboard-response","106","303483","0.0-10.0-0.17","617679054948369cb824d837","650c16f0f2faf8d7a0d14c09","651c1e4555bcdef806a4637e","null","null","<p style=""font-size: 60px; font-family: BACS"">adYrcmZb</p>","","","","","","","","",""
"html-keyboard-response","107","304490","0.0-10.0-0.18","617679054948369cb824d837","650c16f0f2faf8d7a0d14c09","651c1e4555bcdef806a4637e","null","null","<p style=""font-size: 60px; font-family: BACS"">bNdmGZckv</p>","","","","","","","","",""
"html-keyboard-response","108","305499","0.0-10.0-0.19","617679054948369cb824d837","650c16f0f2faf8d7a0d14c09","651c1e4555bcdef806a4637e","null","null","<p style=""font-size: 60px; font-family: BACS"">alJYmZb</p>","","","","","","","","",""
"html-keyboard-response","109","306521","0.0-10.0-0.20","617679054948369cb824d837","650c16f0f2faf8d7a0d14c09","651c1e4555bcdef806a4637e","null","null","<p style=""font-size: 60px; font-family: BACS"">dRhtPEdK</p>","","","","","","","","",""
"html-keyboard-response","110","307532","0.0-10.0-0.21","617679054948369cb824d837","650c16f0f2faf8d7a0d14c09","651c1e4555bcdef806a4637e","null","null","<p style=""font-size: 60px; font-family: BACS"">BlmclYht</p>","","","","","","","","",""
"html-keyboard-response","111","308540","0.0-10.0-0.22","617679054948369cb824d837","650c16f0f2faf8d7a0d14c09","651c1e4555bcdef806a4637e","null","null","<p style=""font-size: 60px; font-family: BACS"">AdDbPEdK</p>","","","","","","","","",""
"html-keyboard-response","112","309545","0.0-10.0-0.23","617679054948369cb824d837","650c16f0f2faf8d7a0d14c09","651c1e4555bcdef806a4637e","null","null","<p style=""font-size: 60px; font-family: BACS"">rvOvUmZb</p>","","","","","","","","",""
"html-keyboard-response","113","310553","0.0-10.0-0.24","617679054948369cb824d837","650c16f0f2faf8d7a0d14c09","651c1e4555bcdef806a4637e","null","null","<p style=""font-size: 60px; font-family: BACS"">lBlEPEdK</p>","","","","","","","","",""
"html-keyboard-response","114","311561","0.0-10.0-0.25","617679054948369cb824d837","650c16f0f2faf8d7a0d14c09","651c1e4555bcdef806a4637e","null","null","<p style=""font-size: 60px; font-family: BACS"">NJZlkJdr</p>","","","","","","","","",""
"html-keyboard-response","115","312571","0.0-10.0-0.26","617679054948369cb824d837","650c16f0f2faf8d7a0d14c09","651c1e4555bcdef806a4637e","null","null","<p style=""font-size: 60px; font-family: BACS"">lBlEmtKP</p>","","","","","","","","",""
"html-keyboard-response","116","313579","0.0-10.0-0.27","617679054948369cb824d837","650c16f0f2faf8d7a0d14c09","651c1e4555bcdef806a4637e","null","null","<p style=""font-size: 60px; font-family: BACS"">dRhtYht</p>","","","","","","","","",""
"html-keyboard-response","117","314585","0.0-10.0-0.28","617679054948369cb824d837","650c16f0f2faf8d7a0d14c09","651c1e4555bcdef806a4637e","null","null","<p style=""font-size: 60px; font-family: BACS"">KdARdRA</p>","","","","","","","","",""
"html-keyboard-response","118","315593","0.0-10.0-0.29","617679054948369cb824d837","650c16f0f2faf8d7a0d14c09","651c1e4555bcdef806a4637e","null","null","<p style=""font-size: 60px; font-family: BACS"">alJYmkc</p>","","","","","","","","",""
"html-keyboard-response","119","316603","0.0-10.0-0.30","617679054948369cb824d837","650c16f0f2faf8d7a0d14c09","651c1e4555bcdef806a4637e","null","null","<p style=""font-size: 60px; font-family: BACS"">YadrmZb</p>","","","","","","","","",""
"html-keyboard-response","120","317609","0.0-10.0-0.31","617679054948369cb824d837","650c16f0f2faf8d7a0d14c09","651c1e4555bcdef806a4637e","null","null","<p style=""font-size: 60px; font-family: BACS"">ZdNmUAOUl</p>","","","","","","","","",""
"html-keyboard-response","121","318618","0.0-10.0-0.32","617679054948369cb824d837","650c16f0f2faf8d7a0d14c09","651c1e4555bcdef806a4637e","null","null","<p style=""font-size: 60px; font-family: BACS"">tDPRkPEdK</p>","","","","","","","","",""
"html-keyboard-response","122","319626","0.0-10.0-0.33","617679054948369cb824d837","650c16f0f2faf8d7a0d14c09","651c1e4555bcdef806a4637e","null","null","<p style=""font-size: 60px; font-family: BACS"">ZdNmUZckv</p>","","","","","","","","",""
"html-keyboard-response","123","320634","0.0-10.0-0.34","617679054948369cb824d837","650c16f0f2faf8d7a0d14c09","651c1e4555bcdef806a4637e","null","null","<p style=""font-size: 60px; font-family: BACS"">alJYAOUl</p>","","","","","","","","",""
"html-keyboard-response","124","321641","0.0-10.0-0.35","617679054948369cb824d837","650c16f0f2faf8d7a0d14c09","651c1e4555bcdef806a4637e","null","null","<p style=""font-size: 60px; font-family: BACS"">kKEdMYht</p>","","","","","","","","",""
"html-keyboard-response","125","322650","0.0-10.0-0.36","617679054948369cb824d837","650c16f0f2faf8d7a0d14c09","651c1e4555bcdef806a4637e","null","null","<p style=""font-size: 60px; font-family: BACS"">lBlEBbM</p>","","","","","","","","",""
"html-keyboard-response","126","323670","0.0-10.0-0.37","617679054948369cb824d837","650c16f0f2faf8d7a0d14c09","651c1e4555bcdef806a4637e","null","null","<p style=""font-size: 60px; font-family: BACS"">YadrkJdr</p>","","","","","","","","",""
"html-keyboard-response","127","324673","0.0-10.0-0.38","617679054948369cb824d837","650c16f0f2faf8d7a0d14c09","651c1e4555bcdef806a4637e","null","null","<p style=""font-size: 60px; font-family: BACS"">AdDbBbM</p>","","","","","","","","",""
"html-keyboard-response","128","325683","0.0-10.0-0.39","617679054948369cb824d837","650c16f0f2faf8d7a0d14c09","651c1e4555bcdef806a4637e","null","null","<p style=""font-size: 60px; font-family: BACS"">DhMtPEdK</p>","","","","","","","","",""
"html-keyboard-response","129","326690","0.0-10.0-0.40","617679054948369cb824d837","650c16f0f2faf8d7a0d14c09","651c1e4555bcdef806a4637e","null","null","<p style=""font-size: 60px; font-family: BACS"">vAuNlAOUl</p>","","","","","","","","",""
"html-keyboard-response","130","327697","0.0-10.0-0.41","617679054948369cb824d837","650c16f0f2faf8d7a0d14c09","651c1e4555bcdef806a4637e","null","null","<p style=""font-size: 60px; font-family: BACS"">bNdmGkJdr</p>","","","","","","","","",""
"html-keyboard-response","131","328706","0.0-10.0-0.42","617679054948369cb824d837","650c16f0f2faf8d7a0d14c09","651c1e4555bcdef806a4637e","null","null","<p style=""font-size: 60px; font-family: BACS"">hTtBbPEdK</p>","","","","","","","","",""
"html-keyboard-response","132","329714","0.0-10.0-0.43","617679054948369cb824d837","650c16f0f2faf8d7a0d14c09","651c1e4555bcdef806a4637e","null","null","<p style=""font-size: 60px; font-family: BACS"">Yadrmkc</p>","","","","","","","","",""
"html-keyboard-response","133","330722","0.0-10.0-0.44","617679054948369cb824d837","650c16f0f2faf8d7a0d14c09","651c1e4555bcdef806a4637e","null","null","<p style=""font-size: 60px; font-family: BACS"">NJZlmZb</p>","","","","","","","","",""
"html-keyboard-response","134","331730","0.0-10.0-0.45","617679054948369cb824d837","650c16f0f2faf8d7a0d14c09","651c1e4555bcdef806a4637e","null","null","<p style=""font-size: 60px; font-family: BACS"">kKEdMmtKP</p>","","","","","","","","",""
"html-keyboard-response","135","332738","0.0-10.0-0.46","617679054948369cb824d837","650c16f0f2faf8d7a0d14c09","651c1e4555bcdef806a4637e","null","null","<p style=""font-size: 60px; font-family: BACS"">adYrcZckv</p>","","","","","","","","",""
"html-keyboard-response","136","333745","0.0-10.0-0.47","617679054948369cb824d837","650c16f0f2faf8d7a0d14c09","651c1e4555bcdef806a4637e","null","null","<p style=""font-size: 60px; font-family: BACS"">hTtBbdRA</p>","","","","","","","","",""
"html-keyboard-response","137","334754","0.0-10.0-0.48","617679054948369cb824d837","650c16f0f2faf8d7a0d14c09","651c1e4555bcdef806a4637e","null","null","<p style=""font-size: 60px; font-family: BACS"">ZNLOvkJdr</p>","","","","","","","","",""
"html-keyboard-response","138","335762","0.0-10.0-0.49","617679054948369cb824d837","650c16f0f2faf8d7a0d14c09","651c1e4555bcdef806a4637e","null","null","<p style=""font-size: 60px; font-family: BACS"">AZlLNmkc</p>","","","","","","","","",""
"html-keyboard-response","139","336771","0.0-10.0-0.50","617679054948369cb824d837","650c16f0f2faf8d7a0d14c09","651c1e4555bcdef806a4637e","null","null","<p style=""font-size: 60px; font-family: BACS"">KdARmtKP</p>","","","","","","","","",""
"html-keyboard-response","140","337778","0.0-10.0-0.51","617679054948369cb824d837","650c16f0f2faf8d7a0d14c09","651c1e4555bcdef806a4637e","null","null","<p style=""font-size: 60px; font-family: BACS"">AZlLNAOUl</p>","","","","","","","","",""
"html-keyboard-response","141","338786","0.0-10.0-0.52","617679054948369cb824d837","650c16f0f2faf8d7a0d14c09","651c1e4555bcdef806a4637e","null","null","<p style=""font-size: 60px; font-family: BACS"">dRhtdRA</p>","","","","","","","","",""
"html-keyboard-response","142","339793","0.0-10.0-0.53","617679054948369cb824d837","650c16f0f2faf8d7a0d14c09","651c1e4555bcdef806a4637e","null","null","<p style=""font-size: 60px; font-family: BACS"">BlmclBbM</p>","","","","","","","","",""
"html-keyboard-response","143","340828","0.0-10.0-0.54","617679054948369cb824d837","650c16f0f2faf8d7a0d14c09","651c1e4555bcdef806a4637e","null","null","<p style=""font-size: 60px; font-family: BACS"">vAuNlmZb</p>","","","","","","","","",""
"html-keyboard-response","144","341866","0.0-10.0-0.55","617679054948369cb824d837","650c16f0f2faf8d7a0d14c09","651c1e4555bcdef806a4637e","null","null","<p style=""font-size: 60px; font-family: BACS"">tDPRkYht</p>","","","","","","","","",""
"html-keyboard-response","145","342873","0.0-10.0-0.56","617679054948369cb824d837","650c16f0f2faf8d7a0d14c09","651c1e4555bcdef806a4637e","null","null","<p style=""font-size: 60px; font-family: BACS"">rvOvUkJdr</p>","","","","","","","","",""
"html-keyboard-response","146","343882","0.0-10.0-0.57","617679054948369cb824d837","650c16f0f2faf8d7a0d14c09","651c1e4555bcdef806a4637e","null","null","<p style=""font-size: 60px; font-family: BACS"">mhtcmtKP</p>","","","","","","","","",""
"html-keyboard-response","147","344890","0.0-10.0-0.58","617679054948369cb824d837","650c16f0f2faf8d7a0d14c09","651c1e4555bcdef806a4637e","null","null","<p style=""font-size: 60px; font-family: BACS"">bNdmGmkc</p>","","","","","","","","",""
"html-keyboard-response","148","345898","0.0-10.0-0.59","617679054948369cb824d837","650c16f0f2faf8d7a0d14c09","651c1e4555bcdef806a4637e","null","null","<p style=""font-size: 60px; font-family: BACS"">DhMtYht</p>","","","","","","","","",""
"html-keyboard-response","149","346906","0.0-10.0-0.60","617679054948369cb824d837","650c16f0f2faf8d7a0d14c09","651c1e4555bcdef806a4637e","null","null","<p style=""font-size: 60px; font-family: BACS"">YadrZckv</p>","","","","","","","","",""
"html-keyboard-response","150","347914","0.0-10.0-0.61","617679054948369cb824d837","650c16f0f2faf8d7a0d14c09","651c1e4555bcdef806a4637e","null","null","<p style=""font-size: 60px; font-family: BACS"">ZdNmUmkc</p>","","","","","","","","",""
"html-keyboard-response","151","348921","0.0-10.0-0.62","617679054948369cb824d837","650c16f0f2faf8d7a0d14c09","651c1e4555bcdef806a4637e","null","null","<p style=""font-size: 60px; font-family: BACS"">tDPRkmtKP</p>","","","","","","","","",""
"html-keyboard-response","152","349930","0.0-10.0-0.63","617679054948369cb824d837","650c16f0f2faf8d7a0d14c09","651c1e4555bcdef806a4637e","null","null","<p style=""font-size: 60px; font-family: BACS"">vAuNlmkc</p>","","","","","","","","",""
"html-keyboard-response","153","350937","0.0-10.0-0.64","617679054948369cb824d837","650c16f0f2faf8d7a0d14c09","651c1e4555bcdef806a4637e","null","null","<p style=""font-size: 60px; font-family: BACS"">tDPRkBbM</p>","","","","","","","","",""
"html-keyboard-response","154","351946","0.0-10.0-0.65","617679054948369cb824d837","650c16f0f2faf8d7a0d14c09","651c1e4555bcdef806a4637e","null","null","<p style=""font-size: 60px; font-family: BACS"">mhtcPEdK</p>","","","","","","","","",""
"html-keyboard-response","155","352955","0.0-10.0-0.66","617679054948369cb824d837","650c16f0f2faf8d7a0d14c09","651c1e4555bcdef806a4637e","null","null","<p style=""font-size: 60px; font-family: BACS"">dRhtBbM</p>","","","","","","","","",""
"html-keyboard-response","156","353961","0.0-10.0-0.67","617679054948369cb824d837","650c16f0f2faf8d7a0d14c09","651c1e4555bcdef806a4637e","null","null","<p style=""font-size: 60px; font-family: BACS"">AdDbdRA</p>","","","","","","","","",""
"html-keyboard-response","157","354971","0.0-10.0-0.68","617679054948369cb824d837","650c16f0f2faf8d7a0d14c09","651c1e4555bcdef806a4637e","null","null","<p style=""font-size: 60px; font-family: BACS"">rvOvUmkc</p>","","","","","","","","",""
"html-keyboard-response","158","355978","0.0-10.0-0.69","617679054948369cb824d837","650c16f0f2faf8d7a0d14c09","651c1e4555bcdef806a4637e","null","null","<p style=""font-size: 60px; font-family: BACS"">KdARBbM</p>","","","","","","","","",""
"html-keyboard-response","159","356993","0.0-10.0-0.70","617679054948369cb824d837","650c16f0f2faf8d7a0d14c09","651c1e4555bcdef806a4637e","null","null","<p style=""font-size: 60px; font-family: BACS"">adYrcAOUl</p>","","","","","","","","",""
"html-keyboard-response","160","358001","0.0-10.0-0.71","617679054948369cb824d837","650c16f0f2faf8d7a0d14c09","651c1e4555bcdef806a4637e","null","null","<p style=""font-size: 60px; font-family: BACS"">BlmclmtKP</p>","","","","","","","","",""
"html-keyboard-response","161","359009","0.0-10.0-0.72","617679054948369cb824d837","650c16f0f2faf8d7a0d14c09","651c1e4555bcdef806a4637e","null","null","<p style=""font-size: 60px; font-family: BACS"">bNdmGAOUl</p>","","","","","","","","",""
"html-keyboard-response","162","360018","0.0-10.0-0.73","617679054948369cb824d837","650c16f0f2faf8d7a0d14c09","651c1e4555bcdef806a4637e","null","null","<p style=""font-size: 60px; font-family: BACS"">DhMtBbM</p>","","","","","","","","",""
"html-keyboard-response","163","361025","0.0-10.0-0.74","617679054948369cb824d837","650c16f0f2faf8d7a0d14c09","651c1e4555bcdef806a4637e","null","null","<p style=""font-size: 60px; font-family: BACS"">kKEdMdRA</p>","","","","","","","","",""
"html-keyboard-response","164","362033","0.0-10.0-0.75","617679054948369cb824d837","650c16f0f2faf8d7a0d14c09","651c1e4555bcdef806a4637e","null","null","<p style=""font-size: 60px; font-family: BACS"">ZNLOvZckv</p>","","","","","","","","",""
"html-keyboard-response","165","363042","0.0-10.0-0.76","617679054948369cb824d837","650c16f0f2faf8d7a0d14c09","651c1e4555bcdef806a4637e","null","null","<p style=""font-size: 60px; font-family: BACS"">kKEdMPEdK</p>","","","","","","","","",""
"html-keyboard-response","166","364050","0.0-10.0-0.77","617679054948369cb824d837","650c16f0f2faf8d7a0d14c09","651c1e4555bcdef806a4637e","null","null","<p style=""font-size: 60px; font-family: BACS"">BlmcldRA</p>","","","","","","","","",""
"html-keyboard-response","167","365058","0.0-10.0-0.78","617679054948369cb824d837","650c16f0f2faf8d7a0d14c09","651c1e4555bcdef806a4637e","null","null","<p style=""font-size: 60px; font-family: BACS"">adYrckJdr</p>","","","","","","","","",""
"html-keyboard-response","168","366066","0.0-10.0-0.79","617679054948369cb824d837","650c16f0f2faf8d7a0d14c09","651c1e4555bcdef806a4637e","null","null","<p style=""font-size: 60px; font-family: BACS"">ZNLOvmZb</p>","","","","","","","","",""
"html-keyboard-response","169","405531","0.0-11.0","617679054948369cb824d837","650c16f0f2faf8d7a0d14c09","651c1e4555bcdef806a4637e","39464"," ","<p>Great, you've seen the second block of words. You may now take a short break.</p>
      <p>Press the spacebar when you're ready to continue.</p>","","","","","","","","",""
"html-keyboard-response","170","406538","0.0-12.0-0.0","617679054948369cb824d837","650c16f0f2faf8d7a0d14c09","651c1e4555bcdef806a4637e","null","null","<p style=""font-size: 60px; font-family: BACS"">lBlEmtKP</p>","","","","","","","","",""
"html-keyboard-response","171","407545","0.0-12.0-0.1","617679054948369cb824d837","650c16f0f2faf8d7a0d14c09","651c1e4555bcdef806a4637e","null","null","<p style=""font-size: 60px; font-family: BACS"">KdARBbM</p>","","","","","","","","",""
"html-keyboard-response","172","408554","0.0-12.0-0.2","617679054948369cb824d837","650c16f0f2faf8d7a0d14c09","651c1e4555bcdef806a4637e","null","null","<p style=""font-size: 60px; font-family: BACS"">AdDbPEdK</p>","","","","","","","","",""
"html-keyboard-response","173","409562","0.0-12.0-0.3","617679054948369cb824d837","650c16f0f2faf8d7a0d14c09","651c1e4555bcdef806a4637e","null","null","<p style=""font-size: 60px; font-family: BACS"">rvOvUmZb</p>","","","","","","","","",""
"html-keyboard-response","174","410571","0.0-12.0-0.4","617679054948369cb824d837","650c16f0f2faf8d7a0d14c09","651c1e4555bcdef806a4637e","null","null","<p style=""font-size: 60px; font-family: BACS"">hTtBbdRA</p>","","","","","","","","",""
"html-keyboard-response","175","411578","0.0-12.0-0.5","617679054948369cb824d837","650c16f0f2faf8d7a0d14c09","651c1e4555bcdef806a4637e","null","null","<p style=""font-size: 60px; font-family: BACS"">tDPRkPEdK</p>","","","","","","","","",""
"html-keyboard-response","176","412586","0.0-12.0-0.6","617679054948369cb824d837","650c16f0f2faf8d7a0d14c09","651c1e4555bcdef806a4637e","null","null","<p style=""font-size: 60px; font-family: BACS"">vAuNlmZb</p>","","","","","","","","",""
"html-keyboard-response","177","413598","0.0-12.0-0.7","617679054948369cb824d837","650c16f0f2faf8d7a0d14c09","651c1e4555bcdef806a4637e","null","null","<p style=""font-size: 60px; font-family: BACS"">ZdNmUkJdr</p>","","","","","","","","",""
"html-keyboard-response","178","414648","0.0-12.0-0.8","617679054948369cb824d837","650c16f0f2faf8d7a0d14c09","651c1e4555bcdef806a4637e","null","null","<p style=""font-size: 60px; font-family: BACS"">hTtBbYht</p>","","","","","","","","",""
"html-keyboard-response","179","415650","0.0-12.0-0.9","617679054948369cb824d837","650c16f0f2faf8d7a0d14c09","651c1e4555bcdef806a4637e","null","null","<p style=""font-size: 60px; font-family: BACS"">alJYmkc</p>","","","","","","","","",""
"html-keyboard-response","180","416660","0.0-12.0-0.10","617679054948369cb824d837","650c16f0f2faf8d7a0d14c09","651c1e4555bcdef806a4637e","null","null","<p style=""font-size: 60px; font-family: BACS"">DhMtdRA</p>","","","","","","","","",""
"html-keyboard-response","181","417666","0.0-12.0-0.11","617679054948369cb824d837","650c16f0f2faf8d7a0d14c09","651c1e4555bcdef806a4637e","null","null","<p style=""font-size: 60px; font-family: BACS"">tDPRkBbM</p>","","","","","","","","",""
"html-keyboard-response","182","418674","0.0-12.0-0.12","617679054948369cb824d837","650c16f0f2faf8d7a0d14c09","651c1e4555bcdef806a4637e","null","null","<p style=""font-size: 60px; font-family: BACS"">NJZlAOUl</p>","","","","","","","","",""
"html-keyboard-response","183","419684","0.0-12.0-0.13","617679054948369cb824d837","650c16f0f2faf8d7a0d14c09","651c1e4555bcdef806a4637e","null","null","<p style=""font-size: 60px; font-family: BACS"">dRhtBbM</p>","","","","","","","","",""
"html-keyboard-response","184","420690","0.0-12.0-0.14","617679054948369cb824d837","650c16f0f2faf8d7a0d14c09","651c1e4555bcdef806a4637e","null","null","<p style=""font-size: 60px; font-family: BACS"">alJYAOUl</p>","","","","","","","","",""
"html-keyboard-response","185","421698","0.0-12.0-0.15","617679054948369cb824d837","650c16f0f2faf8d7a0d14c09","651c1e4555bcdef806a4637e","null","null","<p style=""font-size: 60px; font-family: BACS"">rvOvUZckv</p>","","","","","","","","",""
"html-keyboard-response","186","422705","0.0-12.0-0.16","617679054948369cb824d837","650c16f0f2faf8d7a0d14c09","651c1e4555bcdef806a4637e","null","null","<p style=""font-size: 60px; font-family: BACS"">NJZlmZb</p>","","","","","","","","",""
"html-keyboard-response","187","423714","0.0-12.0-0.17","617679054948369cb824d837","650c16f0f2faf8d7a0d14c09","651c1e4555bcdef806a4637e","null","null","<p style=""font-size: 60px; font-family: BACS"">lBlEBbM</p>","","","","","","","","",""
"html-keyboard-response","188","424722","0.0-12.0-0.18","617679054948369cb824d837","650c16f0f2faf8d7a0d14c09","651c1e4555bcdef806a4637e","null","null","<p style=""font-size: 60px; font-family: BACS"">tDPRkmtKP</p>","","","","","","","","",""
"html-keyboard-response","189","425729","0.0-12.0-0.19","617679054948369cb824d837","650c16f0f2faf8d7a0d14c09","651c1e4555bcdef806a4637e","null","null","<p style=""font-size: 60px; font-family: BACS"">BlmclYht</p>","","","","","","","","",""
"html-keyboard-response","190","426738","0.0-12.0-0.20","617679054948369cb824d837","650c16f0f2faf8d7a0d14c09","651c1e4555bcdef806a4637e","null","null","<p style=""font-size: 60px; font-family: BACS"">alJYkJdr</p>","","","","","","","","",""
"html-keyboard-response","191","427746","0.0-12.0-0.21","617679054948369cb824d837","650c16f0f2faf8d7a0d14c09","651c1e4555bcdef806a4637e","null","null","<p style=""font-size: 60px; font-family: BACS"">NJZlmkc</p>","","","","","","","","",""
"html-keyboard-response","192","428754","0.0-12.0-0.22","617679054948369cb824d837","650c16f0f2faf8d7a0d14c09","651c1e4555bcdef806a4637e","null","null","<p style=""font-size: 60px; font-family: BACS"">AdDbmtKP</p>","","","","","","","","",""
"html-keyboard-response","193","429761","0.0-12.0-0.23","617679054948369cb824d837","650c16f0f2faf8d7a0d14c09","651c1e4555bcdef806a4637e","null","null","<p style=""font-size: 60px; font-family: BACS"">mhtcBbM</p>","","","","","","","","",""
"html-keyboard-response","194","430771","0.0-12.0-0.24","617679054948369cb824d837","650c16f0f2faf8d7a0d14c09","651c1e4555bcdef806a4637e","null","null","<p style=""font-size: 60px; font-family: BACS"">lBlEPEdK</p>","","","","","","","","",""
"html-keyboard-response","195","431777","0.0-12.0-0.25","617679054948369cb824d837","650c16f0f2faf8d7a0d14c09","651c1e4555bcdef806a4637e","null","null","<p style=""font-size: 60px; font-family: BACS"">ZNLOvAOUl</p>","","","","","","","","",""
"html-keyboard-response","196","432796","0.0-12.0-0.26","617679054948369cb824d837","650c16f0f2faf8d7a0d14c09","651c1e4555bcdef806a4637e","null","null","<p style=""font-size: 60px; font-family: BACS"">tDPRkYht</p>","","","","","","","","",""
"html-keyboard-response","197","433819","0.0-12.0-0.27","617679054948369cb824d837","650c16f0f2faf8d7a0d14c09","651c1e4555bcdef806a4637e","null","null","<p style=""font-size: 60px; font-family: BACS"">AZlLNZckv</p>","","","","","","","","",""
"html-keyboard-response","198","434825","0.0-12.0-0.28","617679054948369cb824d837","650c16f0f2faf8d7a0d14c09","651c1e4555bcdef806a4637e","null","null","<p style=""font-size: 60px; font-family: BACS"">dRhtdRA</p>","","","","","","","","",""
"html-keyboard-response","199","435833","0.0-12.0-0.29","617679054948369cb824d837","650c16f0f2faf8d7a0d14c09","651c1e4555bcdef806a4637e","null","null","<p style=""font-size: 60px; font-family: BACS"">YadrZckv</p>","","","","","","","","",""
"html-keyboard-response","200","436842","0.0-12.0-0.30","617679054948369cb824d837","650c16f0f2faf8d7a0d14c09","651c1e4555bcdef806a4637e","null","null","<p style=""font-size: 60px; font-family: BACS"">BlmclBbM</p>","","","","","","","","",""
"html-keyboard-response","201","437850","0.0-12.0-0.31","617679054948369cb824d837","650c16f0f2faf8d7a0d14c09","651c1e4555bcdef806a4637e","null","null","<p style=""font-size: 60px; font-family: BACS"">AZlLNmkc</p>","","","","","","","","",""
"html-keyboard-response","202","438857","0.0-12.0-0.32","617679054948369cb824d837","650c16f0f2faf8d7a0d14c09","651c1e4555bcdef806a4637e","null","null","<p style=""font-size: 60px; font-family: BACS"">vAuNlZckv</p>","","","","","","","","",""
"html-keyboard-response","203","439866","0.0-12.0-0.33","617679054948369cb824d837","650c16f0f2faf8d7a0d14c09","651c1e4555bcdef806a4637e","null","null","<p style=""font-size: 60px; font-family: BACS"">DhMtPEdK</p>","","","","","","","","",""
"html-keyboard-response","204","440873","0.0-12.0-0.34","617679054948369cb824d837","650c16f0f2faf8d7a0d14c09","651c1e4555bcdef806a4637e","null","null","<p style=""font-size: 60px; font-family: BACS"">KdARYht</p>","","","","","","","","",""
"html-keyboard-response","205","441882","0.0-12.0-0.35","617679054948369cb824d837","650c16f0f2faf8d7a0d14c09","651c1e4555bcdef806a4637e","null","null","<p style=""font-size: 60px; font-family: BACS"">vAuNlAOUl</p>","","","","","","","","",""
"html-keyboard-response","206","442893","0.0-12.0-0.36","617679054948369cb824d837","650c16f0f2faf8d7a0d14c09","651c1e4555bcdef806a4637e","null","null","<p style=""font-size: 60px; font-family: BACS"">ZNLOvkJdr</p>","","","","","","","","",""
"html-keyboard-response","207","443901","0.0-12.0-0.37","617679054948369cb824d837","650c16f0f2faf8d7a0d14c09","651c1e4555bcdef806a4637e","null","null","<p style=""font-size: 60px; font-family: BACS"">dRhtYht</p>","","","","","","","","",""
"html-keyboard-response","208","444908","0.0-12.0-0.38","617679054948369cb824d837","650c16f0f2faf8d7a0d14c09","651c1e4555bcdef806a4637e","null","null","<p style=""font-size: 60px; font-family: BACS"">YadrmZb</p>","","","","","","","","",""
"html-keyboard-response","209","445914","0.0-12.0-0.39","617679054948369cb824d837","650c16f0f2faf8d7a0d14c09","651c1e4555bcdef806a4637e","null","null","<p style=""font-size: 60px; font-family: BACS"">rvOvUmkc</p>","","","","","","","","",""
"html-keyboard-response","210","446922","0.0-12.0-0.40","617679054948369cb824d837","650c16f0f2faf8d7a0d14c09","651c1e4555bcdef806a4637e","null","null","<p style=""font-size: 60px; font-family: BACS"">AdDbdRA</p>","","","","","","","","",""
"html-keyboard-response","211","447934","0.0-12.0-0.41","617679054948369cb824d837","650c16f0f2faf8d7a0d14c09","651c1e4555bcdef806a4637e","null","null","<p style=""font-size: 60px; font-family: BACS"">adYrcmZb</p>","","","","","","","","",""
"html-keyboard-response","212","448938","0.0-12.0-0.42","617679054948369cb824d837","650c16f0f2faf8d7a0d14c09","651c1e4555bcdef806a4637e","null","null","<p style=""font-size: 60px; font-family: BACS"">DhMtBbM</p>","","","","","","","","",""
"html-keyboard-response","213","449946","0.0-12.0-0.43","617679054948369cb824d837","650c16f0f2faf8d7a0d14c09","651c1e4555bcdef806a4637e","null","null","<p style=""font-size: 60px; font-family: BACS"">YadrkJdr</p>","","","","","","","","",""
"html-keyboard-response","214","450954","0.0-12.0-0.44","617679054948369cb824d837","650c16f0f2faf8d7a0d14c09","651c1e4555bcdef806a4637e","null","null","<p style=""font-size: 60px; font-family: BACS"">KdARmtKP</p>","","","","","","","","",""
"html-keyboard-response","215","451963","0.0-12.0-0.45","617679054948369cb824d837","650c16f0f2faf8d7a0d14c09","651c1e4555bcdef806a4637e","null","null","<p style=""font-size: 60px; font-family: BACS"">mhtcPEdK</p>","","","","","","","","",""
"html-keyboard-response","216","452972","0.0-12.0-0.46","617679054948369cb824d837","650c16f0f2faf8d7a0d14c09","651c1e4555bcdef806a4637e","null","null","<p style=""font-size: 60px; font-family: BACS"">DhMtYht</p>","","","","","","","","",""
"html-keyboard-response","217","453978","0.0-12.0-0.47","617679054948369cb824d837","650c16f0f2faf8d7a0d14c09","651c1e4555bcdef806a4637e","null","null","<p style=""font-size: 60px; font-family: BACS"">mhtcmtKP</p>","","","","","","","","",""
"html-keyboard-response","218","454986","0.0-12.0-0.48","617679054948369cb824d837","650c16f0f2faf8d7a0d14c09","651c1e4555bcdef806a4637e","null","null","<p style=""font-size: 60px; font-family: BACS"">AdDbBbM</p>","","","","","","","","",""
"html-keyboard-response","219","455994","0.0-12.0-0.49","617679054948369cb824d837","650c16f0f2faf8d7a0d14c09","651c1e4555bcdef806a4637e","null","null","<p style=""font-size: 60px; font-family: BACS"">BlmcldRA</p>","","","","","","","","",""
"html-keyboard-response","220","457004","0.0-12.0-0.50","617679054948369cb824d837","650c16f0f2faf8d7a0d14c09","651c1e4555bcdef806a4637e","null","null","<p style=""font-size: 60px; font-family: BACS"">ZdNmUmkc</p>","","","","","","","","",""
"html-keyboard-response","221","458009","0.0-12.0-0.51","617679054948369cb824d837","650c16f0f2faf8d7a0d14c09","651c1e4555bcdef806a4637e","null","null","<p style=""font-size: 60px; font-family: BACS"">AZlLNmZb</p>","","","","","","","","",""
"html-keyboard-response","222","459018","0.0-12.0-0.52","617679054948369cb824d837","650c16f0f2faf8d7a0d14c09","651c1e4555bcdef806a4637e","null","null","<p style=""font-size: 60px; font-family: BACS"">ZNLOvZckv</p>","","","","","","","","",""
"html-keyboard-response","223","460027","0.0-12.0-0.53","617679054948369cb824d837","650c16f0f2faf8d7a0d14c09","651c1e4555bcdef806a4637e","null","null","<p style=""font-size: 60px; font-family: BACS"">adYrcAOUl</p>","","","","","","","","",""
"html-keyboard-response","224","461035","0.0-12.0-0.54","617679054948369cb824d837","650c16f0f2faf8d7a0d14c09","651c1e4555bcdef806a4637e","null","null","<p style=""font-size: 60px; font-family: BACS"">kKEdMYht</p>","","","","","","","","",""
"html-keyboard-response","225","462042","0.0-12.0-0.55","617679054948369cb824d837","650c16f0f2faf8d7a0d14c09","651c1e4555bcdef806a4637e","null","null","<p style=""font-size: 60px; font-family: BACS"">AZlLNAOUl</p>","","","","","","","","",""
"html-keyboard-response","226","463050","0.0-12.0-0.56","617679054948369cb824d837","650c16f0f2faf8d7a0d14c09","651c1e4555bcdef806a4637e","null","null","<p style=""font-size: 60px; font-family: BACS"">bNdmGkJdr</p>","","","","","","","","",""
"html-keyboard-response","227","464058","0.0-12.0-0.57","617679054948369cb824d837","650c16f0f2faf8d7a0d14c09","651c1e4555bcdef806a4637e","null","null","<p style=""font-size: 60px; font-family: BACS"">dRhtPEdK</p>","","","","","","","","",""
"html-keyboard-response","228","465072","0.0-12.0-0.58","617679054948369cb824d837","650c16f0f2faf8d7a0d14c09","651c1e4555bcdef806a4637e","null","null","<p style=""font-size: 60px; font-family: BACS"">kKEdMdRA</p>","","","","","","","","",""
"html-keyboard-response","229","466081","0.0-12.0-0.59","617679054948369cb824d837","650c16f0f2faf8d7a0d14c09","651c1e4555bcdef806a4637e","null","null","<p style=""font-size: 60px; font-family: BACS"">Yadrmkc</p>","","","","","","","","",""
"html-keyboard-response","230","467094","0.0-12.0-0.60","617679054948369cb824d837","650c16f0f2faf8d7a0d14c09","651c1e4555bcdef806a4637e","null","null","<p style=""font-size: 60px; font-family: BACS"">ZdNmUAOUl</p>","","","","","","","","",""
"html-keyboard-response","231","468097","0.0-12.0-0.61","617679054948369cb824d837","650c16f0f2faf8d7a0d14c09","651c1e4555bcdef806a4637e","null","null","<p style=""font-size: 60px; font-family: BACS"">bNdmGZckv</p>","","","","","","","","",""
"html-keyboard-response","232","469105","0.0-12.0-0.62","617679054948369cb824d837","650c16f0f2faf8d7a0d14c09","651c1e4555bcdef806a4637e","null","null","<p style=""font-size: 60px; font-family: BACS"">lBlEdRA</p>","","","","","","","","",""
"html-keyboard-response","233","470113","0.0-12.0-0.63","617679054948369cb824d837","650c16f0f2faf8d7a0d14c09","651c1e4555bcdef806a4637e","null","null","<p style=""font-size: 60px; font-family: BACS"">adYrckJdr</p>","","","","","","","","",""
"html-keyboard-response","234","471121","0.0-12.0-0.64","617679054948369cb824d837","650c16f0f2faf8d7a0d14c09","651c1e4555bcdef806a4637e","null","null","<p style=""font-size: 60px; font-family: BACS"">kKEdMmtKP</p>","","","","","","","","",""
"html-keyboard-response","235","472129","0.0-12.0-0.65","617679054948369cb824d837","650c16f0f2faf8d7a0d14c09","651c1e4555bcdef806a4637e","null","null","<p style=""font-size: 60px; font-family: BACS"">ZNLOvmZb</p>","","","","","","","","",""
"html-keyboard-response","236","473137","0.0-12.0-0.66","617679054948369cb824d837","650c16f0f2faf8d7a0d14c09","651c1e4555bcdef806a4637e","null","null","<p style=""font-size: 60px; font-family: BACS"">hTtBbmtKP</p>","","","","","","","","",""
"html-keyboard-response","237","474145","0.0-12.0-0.67","617679054948369cb824d837","650c16f0f2faf8d7a0d14c09","651c1e4555bcdef806a4637e","null","null","<p style=""font-size: 60px; font-family: BACS"">NJZlkJdr</p>","","","","","","","","",""
"html-keyboard-response","238","475172","0.0-12.0-0.68","617679054948369cb824d837","650c16f0f2faf8d7a0d14c09","651c1e4555bcdef806a4637e","null","null","<p style=""font-size: 60px; font-family: BACS"">alJYmZb</p>","","","","","","","","",""
"html-keyboard-response","239","476178","0.0-12.0-0.69","617679054948369cb824d837","650c16f0f2faf8d7a0d14c09","651c1e4555bcdef806a4637e","null","null","<p style=""font-size: 60px; font-family: BACS"">vAuNlmkc</p>","","","","","","","","",""
"html-keyboard-response","240","477187","0.0-12.0-0.70","617679054948369cb824d837","650c16f0f2faf8d7a0d14c09","651c1e4555bcdef806a4637e","null","null","<p style=""font-size: 60px; font-family: BACS"">hTtBbPEdK</p>","","","","","","","","",""
"html-keyboard-response","241","478194","0.0-12.0-0.71","617679054948369cb824d837","650c16f0f2faf8d7a0d14c09","651c1e4555bcdef806a4637e","null","null","<p style=""font-size: 60px; font-family: BACS"">rvOvUkJdr</p>","","","","","","","","",""
"html-keyboard-response","242","479204","0.0-12.0-0.72","617679054948369cb824d837","650c16f0f2faf8d7a0d14c09","651c1e4555bcdef806a4637e","null","null","<p style=""font-size: 60px; font-family: BACS"">bNdmGmkc</p>","","","","","","","","",""
"html-keyboard-response","243","480211","0.0-12.0-0.73","617679054948369cb824d837","650c16f0f2faf8d7a0d14c09","651c1e4555bcdef806a4637e","null","null","<p style=""font-size: 60px; font-family: BACS"">ZdNmUZckv</p>","","","","","","","","",""
"html-keyboard-response","244","481217","0.0-12.0-0.74","617679054948369cb824d837","650c16f0f2faf8d7a0d14c09","651c1e4555bcdef806a4637e","null","null","<p style=""font-size: 60px; font-family: BACS"">KdARdRA</p>","","","","","","","","",""
"html-keyboard-response","245","482247","0.0-12.0-0.75","617679054948369cb824d837","650c16f0f2faf8d7a0d14c09","651c1e4555bcdef806a4637e","null","null","<p style=""font-size: 60px; font-family: BACS"">bNdmGAOUl</p>","","","","","","","","",""
"html-keyboard-response","246","483249","0.0-12.0-0.76","617679054948369cb824d837","650c16f0f2faf8d7a0d14c09","651c1e4555bcdef806a4637e","null","null","<p style=""font-size: 60px; font-family: BACS"">adYrcZckv</p>","","","","","","","","",""
"html-keyboard-response","247","484257","0.0-12.0-0.77","617679054948369cb824d837","650c16f0f2faf8d7a0d14c09","651c1e4555bcdef806a4637e","null","null","<p style=""font-size: 60px; font-family: BACS"">mhtcYht</p>","","","","","","","","",""
"html-keyboard-response","248","485267","0.0-12.0-0.78","617679054948369cb824d837","650c16f0f2faf8d7a0d14c09","651c1e4555bcdef806a4637e","null","null","<p style=""font-size: 60px; font-family: BACS"">BlmclmtKP</p>","","","","","","","","",""
"html-keyboard-response","249","486273","0.0-12.0-0.79","617679054948369cb824d837","650c16f0f2faf8d7a0d14c09","651c1e4555bcdef806a4637e","null","null","<p style=""font-size: 60px; font-family: BACS"">kKEdMPEdK</p>","","","","","","","","",""
"html-keyboard-response","250","506559","0.0-13.0","617679054948369cb824d837","650c16f0f2faf8d7a0d14c09","651c1e4555bcdef806a4637e","20284"," ","<p>Great, you've seen the third block of words. You may now take a short break.</p>
      <p>Press the spacebar when you're ready to continue.</p>","","","","","","","","",""
"html-keyboard-response","251","507561","0.0-14.0-0.0","617679054948369cb824d837","650c16f0f2faf8d7a0d14c09","651c1e4555bcdef806a4637e","null","null","<p style=""font-size: 60px; font-family: BACS"">dRhtPEdK</p>","","","","","","","","",""
"html-keyboard-response","252","508571","0.0-14.0-0.1","617679054948369cb824d837","650c16f0f2faf8d7a0d14c09","651c1e4555bcdef806a4637e","null","null","<p style=""font-size: 60px; font-family: BACS"">BlmclYht</p>","","","","","","","","",""
"html-keyboard-response","253","509577","0.0-14.0-0.2","617679054948369cb824d837","650c16f0f2faf8d7a0d14c09","651c1e4555bcdef806a4637e","null","null","<p style=""font-size: 60px; font-family: BACS"">lBlEmtKP</p>","","","","","","","","",""
"html-keyboard-response","254","510585","0.0-14.0-0.3","617679054948369cb824d837","650c16f0f2faf8d7a0d14c09","651c1e4555bcdef806a4637e","null","null","<p style=""font-size: 60px; font-family: BACS"">rvOvUmZb</p>","","","","","","","","",""
"html-keyboard-response","255","511593","0.0-14.0-0.4","617679054948369cb824d837","650c16f0f2faf8d7a0d14c09","651c1e4555bcdef806a4637e","null","null","<p style=""font-size: 60px; font-family: BACS"">tDPRkYht</p>","","","","","","","","",""
"html-keyboard-response","256","512601","0.0-14.0-0.5","617679054948369cb824d837","650c16f0f2faf8d7a0d14c09","651c1e4555bcdef806a4637e","null","null","<p style=""font-size: 60px; font-family: BACS"">mhtcPEdK</p>","","","","","","","","",""
"html-keyboard-response","257","513609","0.0-14.0-0.6","617679054948369cb824d837","650c16f0f2faf8d7a0d14c09","651c1e4555bcdef806a4637e","null","null","<p style=""font-size: 60px; font-family: BACS"">NJZlkJdr</p>","","","","","","","","",""
"html-keyboard-response","258","514619","0.0-14.0-0.7","617679054948369cb824d837","650c16f0f2faf8d7a0d14c09","651c1e4555bcdef806a4637e","null","null","<p style=""font-size: 60px; font-family: BACS"">AZlLNmkc</p>","","","","","","","","",""
"html-keyboard-response","259","515626","0.0-14.0-0.8","617679054948369cb824d837","650c16f0f2faf8d7a0d14c09","651c1e4555bcdef806a4637e","null","null","<p style=""font-size: 60px; font-family: BACS"">AdDbBbM</p>","","","","","","","","",""
"html-keyboard-response","260","516634","0.0-14.0-0.9","617679054948369cb824d837","650c16f0f2faf8d7a0d14c09","651c1e4555bcdef806a4637e","null","null","<p style=""font-size: 60px; font-family: BACS"">kKEdMPEdK</p>","","","","","","","","",""
"html-keyboard-response","261","517641","0.0-14.0-0.10","617679054948369cb824d837","650c16f0f2faf8d7a0d14c09","651c1e4555bcdef806a4637e","null","null","<p style=""font-size: 60px; font-family: BACS"">alJYmkc</p>","","","","","","","","",""
"html-keyboard-response","262","518649","0.0-14.0-0.11","617679054948369cb824d837","650c16f0f2faf8d7a0d14c09","651c1e4555bcdef806a4637e","null","null","<p style=""font-size: 60px; font-family: BACS"">lBlEBbM</p>","","","","","","","","",""
"html-keyboard-response","263","519657","0.0-14.0-0.12","617679054948369cb824d837","650c16f0f2faf8d7a0d14c09","651c1e4555bcdef806a4637e","null","null","<p style=""font-size: 60px; font-family: BACS"">alJYAOUl</p>","","","","","","","","",""
"html-keyboard-response","264","520665","0.0-14.0-0.13","617679054948369cb824d837","650c16f0f2faf8d7a0d14c09","651c1e4555bcdef806a4637e","null","null","<p style=""font-size: 60px; font-family: BACS"">ZdNmUmkc</p>","","","","","","","","",""
"html-keyboard-response","265","521675","0.0-14.0-0.14","617679054948369cb824d837","650c16f0f2faf8d7a0d14c09","651c1e4555bcdef806a4637e","null","null","<p style=""font-size: 60px; font-family: BACS"">DhMtdRA</p>","","","","","","","","",""
"html-keyboard-response","266","522681","0.0-14.0-0.15","617679054948369cb824d837","650c16f0f2faf8d7a0d14c09","651c1e4555bcdef806a4637e","null","null","<p style=""font-size: 60px; font-family: BACS"">BlmclmtKP</p>","","","","","","","","",""
"html-keyboard-response","267","523690","0.0-14.0-0.16","617679054948369cb824d837","650c16f0f2faf8d7a0d14c09","651c1e4555bcdef806a4637e","null","null","<p style=""font-size: 60px; font-family: BACS"">YadrZckv</p>","","","","","","","","",""
"html-keyboard-response","268","524698","0.0-14.0-0.17","617679054948369cb824d837","650c16f0f2faf8d7a0d14c09","651c1e4555bcdef806a4637e","null","null","<p style=""font-size: 60px; font-family: BACS"">bNdmGmkc</p>","","","","","","","","",""
"html-keyboard-response","269","525706","0.0-14.0-0.18","617679054948369cb824d837","650c16f0f2faf8d7a0d14c09","651c1e4555bcdef806a4637e","null","null","<p style=""font-size: 60px; font-family: BACS"">dRhtdRA</p>","","","","","","","","",""
"html-keyboard-response","270","526716","0.0-14.0-0.19","617679054948369cb824d837","650c16f0f2faf8d7a0d14c09","651c1e4555bcdef806a4637e","null","null","<p style=""font-size: 60px; font-family: BACS"">hTtBbmtKP</p>","","","","","","","","",""
"html-keyboard-response","271","527722","0.0-14.0-0.20","617679054948369cb824d837","650c16f0f2faf8d7a0d14c09","651c1e4555bcdef806a4637e","null","null","<p style=""font-size: 60px; font-family: BACS"">dRhtBbM</p>","","","","","","","","",""
"html-keyboard-response","272","528730","0.0-14.0-0.21","617679054948369cb824d837","650c16f0f2faf8d7a0d14c09","651c1e4555bcdef806a4637e","null","null","<p style=""font-size: 60px; font-family: BACS"">AZlLNZckv</p>","","","","","","","","",""
"html-keyboard-response","273","529737","0.0-14.0-0.22","617679054948369cb824d837","650c16f0f2faf8d7a0d14c09","651c1e4555bcdef806a4637e","null","null","<p style=""font-size: 60px; font-family: BACS"">BlmclBbM</p>","","","","","","","","",""
"html-keyboard-response","274","530746","0.0-14.0-0.23","617679054948369cb824d837","650c16f0f2faf8d7a0d14c09","651c1e4555bcdef806a4637e","null","null","<p style=""font-size: 60px; font-family: BACS"">AdDbPEdK</p>","","","","","","","","",""
"html-keyboard-response","275","531754","0.0-14.0-0.24","617679054948369cb824d837","650c16f0f2faf8d7a0d14c09","651c1e4555bcdef806a4637e","null","null","<p style=""font-size: 60px; font-family: BACS"">DhMtBbM</p>","","","","","","","","",""
"html-keyboard-response","276","532762","0.0-14.0-0.25","617679054948369cb824d837","650c16f0f2faf8d7a0d14c09","651c1e4555bcdef806a4637e","null","null","<p style=""font-size: 60px; font-family: BACS"">mhtcmtKP</p>","","","","","","","","",""
"html-keyboard-response","277","533769","0.0-14.0-0.26","617679054948369cb824d837","650c16f0f2faf8d7a0d14c09","651c1e4555bcdef806a4637e","null","null","<p style=""font-size: 60px; font-family: BACS"">ZNLOvZckv</p>","","","","","","","","",""
"html-keyboard-response","278","534778","0.0-14.0-0.27","617679054948369cb824d837","650c16f0f2faf8d7a0d14c09","651c1e4555bcdef806a4637e","null","null","<p style=""font-size: 60px; font-family: BACS"">hTtBbYht</p>","","","","","","","","",""
"html-keyboard-response","279","535786","0.0-14.0-0.28","617679054948369cb824d837","650c16f0f2faf8d7a0d14c09","651c1e4555bcdef806a4637e","null","null","<p style=""font-size: 60px; font-family: BACS"">ZNLOvAOUl</p>","","","","","","","","",""
"html-keyboard-response","280","536825","0.0-14.0-0.29","617679054948369cb824d837","650c16f0f2faf8d7a0d14c09","651c1e4555bcdef806a4637e","null","null","<p style=""font-size: 60px; font-family: BACS"">rvOvUmkc</p>","","","","","","","","",""
"html-keyboard-response","281","537834","0.0-14.0-0.30","617679054948369cb824d837","650c16f0f2faf8d7a0d14c09","651c1e4555bcdef806a4637e","null","null","<p style=""font-size: 60px; font-family: BACS"">adYrcAOUl</p>","","","","","","","","",""
"html-keyboard-response","282","538842","0.0-14.0-0.31","617679054948369cb824d837","650c16f0f2faf8d7a0d14c09","651c1e4555bcdef806a4637e","null","null","<p style=""font-size: 60px; font-family: BACS"">ZdNmUZckv</p>","","","","","","","","",""
"html-keyboard-response","283","539850","0.0-14.0-0.32","617679054948369cb824d837","650c16f0f2faf8d7a0d14c09","651c1e4555bcdef806a4637e","null","null","<p style=""font-size: 60px; font-family: BACS"">KdARmtKP</p>","","","","","","","","",""
"html-keyboard-response","284","540858","0.0-14.0-0.33","617679054948369cb824d837","650c16f0f2faf8d7a0d14c09","651c1e4555bcdef806a4637e","null","null","<p style=""font-size: 60px; font-family: BACS"">alJYkJdr</p>","","","","","","","","",""
"html-keyboard-response","285","541867","0.0-14.0-0.34","617679054948369cb824d837","650c16f0f2faf8d7a0d14c09","651c1e4555bcdef806a4637e","null","null","<p style=""font-size: 60px; font-family: BACS"">hTtBbdRA</p>","","","","","","","","",""
"html-keyboard-response","286","542874","0.0-14.0-0.35","617679054948369cb824d837","650c16f0f2faf8d7a0d14c09","651c1e4555bcdef806a4637e","null","null","<p style=""font-size: 60px; font-family: BACS"">NJZlmkc</p>","","","","","","","","",""
"html-keyboard-response","287","543882","0.0-14.0-0.36","617679054948369cb824d837","650c16f0f2faf8d7a0d14c09","651c1e4555bcdef806a4637e","null","null","<p style=""font-size: 60px; font-family: BACS"">mhtcYht</p>","","","","","","","","",""
"html-keyboard-response","288","544890","0.0-14.0-0.37","617679054948369cb824d837","650c16f0f2faf8d7a0d14c09","651c1e4555bcdef806a4637e","null","null","<p style=""font-size: 60px; font-family: BACS"">kKEdMmtKP</p>","","","","","","","","",""
"html-keyboard-response","289","545899","0.0-14.0-0.38","617679054948369cb824d837","650c16f0f2faf8d7a0d14c09","651c1e4555bcdef806a4637e","null","null","<p style=""font-size: 60px; font-family: BACS"">YadrmZb</p>","","","","","","","","",""
"html-keyboard-response","290","546909","0.0-14.0-0.39","617679054948369cb824d837","650c16f0f2faf8d7a0d14c09","651c1e4555bcdef806a4637e","null","null","<p style=""font-size: 60px; font-family: BACS"">lBlEPEdK</p>","","","","","","","","",""
"html-keyboard-response","291","547929","0.0-14.0-0.40","617679054948369cb824d837","650c16f0f2faf8d7a0d14c09","651c1e4555bcdef806a4637e","null","null","<p style=""font-size: 60px; font-family: BACS"">bNdmGAOUl</p>","","","","","","","","",""
"html-keyboard-response","292","548938","0.0-14.0-0.41","617679054948369cb824d837","650c16f0f2faf8d7a0d14c09","651c1e4555bcdef806a4637e","null","null","<p style=""font-size: 60px; font-family: BACS"">adYrcmZb</p>","","","","","","","","",""
"html-keyboard-response","293","549947","0.0-14.0-0.42","617679054948369cb824d837","650c16f0f2faf8d7a0d14c09","651c1e4555bcdef806a4637e","null","null","<p style=""font-size: 60px; font-family: BACS"">YadrkJdr</p>","","","","","","","","",""
"html-keyboard-response","294","550957","0.0-14.0-0.43","617679054948369cb824d837","650c16f0f2faf8d7a0d14c09","651c1e4555bcdef806a4637e","null","null","<p style=""font-size: 60px; font-family: BACS"">AZlLNAOUl</p>","","","","","","","","",""
"html-keyboard-response","295","551977","0.0-14.0-0.44","617679054948369cb824d837","650c16f0f2faf8d7a0d14c09","651c1e4555bcdef806a4637e","null","null","<p style=""font-size: 60px; font-family: BACS"">tDPRkBbM</p>","","","","","","","","",""
"html-keyboard-response","296","552998","0.0-14.0-0.45","617679054948369cb824d837","650c16f0f2faf8d7a0d14c09","651c1e4555bcdef806a4637e","null","null","<p style=""font-size: 60px; font-family: BACS"">DhMtPEdK</p>","","","","","","","","",""
"html-keyboard-response","297","554002","0.0-14.0-0.46","617679054948369cb824d837","650c16f0f2faf8d7a0d14c09","651c1e4555bcdef806a4637e","null","null","<p style=""font-size: 60px; font-family: BACS"">kKEdMdRA</p>","","","","","","","","",""
"html-keyboard-response","298","555010","0.0-14.0-0.47","617679054948369cb824d837","650c16f0f2faf8d7a0d14c09","651c1e4555bcdef806a4637e","null","null","<p style=""font-size: 60px; font-family: BACS"">DhMtYht</p>","","","","","","","","",""
"html-keyboard-response","299","556019","0.0-14.0-0.48","617679054948369cb824d837","650c16f0f2faf8d7a0d14c09","651c1e4555bcdef806a4637e","null","null","<p style=""font-size: 60px; font-family: BACS"">KdARBbM</p>","","","","","","","","",""
"html-keyboard-response","300","557025","0.0-14.0-0.49","617679054948369cb824d837","650c16f0f2faf8d7a0d14c09","651c1e4555bcdef806a4637e","null","null","<p style=""font-size: 60px; font-family: BACS"">Yadrmkc</p>","","","","","","","","",""
"html-keyboard-response","301","558035","0.0-14.0-0.50","617679054948369cb824d837","650c16f0f2faf8d7a0d14c09","651c1e4555bcdef806a4637e","null","null","<p style=""font-size: 60px; font-family: BACS"">ZNLOvkJdr</p>","","","","","","","","",""
"html-keyboard-response","302","559041","0.0-14.0-0.51","617679054948369cb824d837","650c16f0f2faf8d7a0d14c09","651c1e4555bcdef806a4637e","null","null","<p style=""font-size: 60px; font-family: BACS"">adYrcZckv</p>","","","","","","","","",""
"html-keyboard-response","303","560050","0.0-14.0-0.52","617679054948369cb824d837","650c16f0f2faf8d7a0d14c09","651c1e4555bcdef806a4637e","null","null","<p style=""font-size: 60px; font-family: BACS"">NJZlmZb</p>","","","","","","","","",""
"html-keyboard-response","304","561057","0.0-14.0-0.53","617679054948369cb824d837","650c16f0f2faf8d7a0d14c09","651c1e4555bcdef806a4637e","null","null","<p style=""font-size: 60px; font-family: BACS"">AdDbdRA</p>","","","","","","","","",""
"html-keyboard-response","305","562067","0.0-14.0-0.54","617679054948369cb824d837","650c16f0f2faf8d7a0d14c09","651c1e4555bcdef806a4637e","null","null","<p style=""font-size: 60px; font-family: BACS"">vAuNlmkc</p>","","","","","","","","",""
"html-keyboard-response","306","563074","0.0-14.0-0.55","617679054948369cb824d837","650c16f0f2faf8d7a0d14c09","651c1e4555bcdef806a4637e","null","null","<p style=""font-size: 60px; font-family: BACS"">mhtcBbM</p>","","","","","","","","",""
"html-keyboard-response","307","564084","0.0-14.0-0.56","617679054948369cb824d837","650c16f0f2faf8d7a0d14c09","651c1e4555bcdef806a4637e","null","null","<p style=""font-size: 60px; font-family: BACS"">rvOvUZckv</p>","","","","","","","","",""
"html-keyboard-response","308","565090","0.0-14.0-0.57","617679054948369cb824d837","650c16f0f2faf8d7a0d14c09","651c1e4555bcdef806a4637e","null","null","<p style=""font-size: 60px; font-family: BACS"">alJYmZb</p>","","","","","","","","",""
"html-keyboard-response","309","566098","0.0-14.0-0.58","617679054948369cb824d837","650c16f0f2faf8d7a0d14c09","651c1e4555bcdef806a4637e","null","null","<p style=""font-size: 60px; font-family: BACS"">vAuNlZckv</p>","","","","","","","","",""
"html-keyboard-response","310","567105","0.0-14.0-0.59","617679054948369cb824d837","650c16f0f2faf8d7a0d14c09","651c1e4555bcdef806a4637e","null","null","<p style=""font-size: 60px; font-family: BACS"">ZdNmUAOUl</p>","","","","","","","","",""
"html-keyboard-response","311","568113","0.0-14.0-0.60","617679054948369cb824d837","650c16f0f2faf8d7a0d14c09","651c1e4555bcdef806a4637e","null","null","<p style=""font-size: 60px; font-family: BACS"">kKEdMYht</p>","","","","","","","","",""
"html-keyboard-response","312","569122","0.0-14.0-0.61","617679054948369cb824d837","650c16f0f2faf8d7a0d14c09","651c1e4555bcdef806a4637e","null","null","<p style=""font-size: 60px; font-family: BACS"">vAuNlmZb</p>","","","","","","","","",""
"html-keyboard-response","313","570129","0.0-14.0-0.62","617679054948369cb824d837","650c16f0f2faf8d7a0d14c09","651c1e4555bcdef806a4637e","null","null","<p style=""font-size: 60px; font-family: BACS"">bNdmGkJdr</p>","","","","","","","","",""
"html-keyboard-response","314","571137","0.0-14.0-0.63","617679054948369cb824d837","650c16f0f2faf8d7a0d14c09","651c1e4555bcdef806a4637e","null","null","<p style=""font-size: 60px; font-family: BACS"">KdARdRA</p>","","","","","","","","",""
"html-keyboard-response","315","572147","0.0-14.0-0.64","617679054948369cb824d837","650c16f0f2faf8d7a0d14c09","651c1e4555bcdef806a4637e","null","null","<p style=""font-size: 60px; font-family: BACS"">AdDbmtKP</p>","","","","","","","","",""
"html-keyboard-response","316","573153","0.0-14.0-0.65","617679054948369cb824d837","650c16f0f2faf8d7a0d14c09","651c1e4555bcdef806a4637e","null","null","<p style=""font-size: 60px; font-family: BACS"">bNdmGZckv</p>","","","","","","","","",""
"html-keyboard-response","317","574162","0.0-14.0-0.66","617679054948369cb824d837","650c16f0f2faf8d7a0d14c09","651c1e4555bcdef806a4637e","null","null","<p style=""font-size: 60px; font-family: BACS"">tDPRkPEdK</p>","","","","","","","","",""
"html-keyboard-response","318","575171","0.0-14.0-0.67","617679054948369cb824d837","650c16f0f2faf8d7a0d14c09","651c1e4555bcdef806a4637e","null","null","<p style=""font-size: 60px; font-family: BACS"">KdARYht</p>","","","","","","","","",""
"html-keyboard-response","319","576178","0.0-14.0-0.68","617679054948369cb824d837","650c16f0f2faf8d7a0d14c09","651c1e4555bcdef806a4637e","null","null","<p style=""font-size: 60px; font-family: BACS"">NJZlAOUl</p>","","","","","","","","",""
"html-keyboard-response","320","577198","0.0-14.0-0.69","617679054948369cb824d837","650c16f0f2faf8d7a0d14c09","651c1e4555bcdef806a4637e","null","null","<p style=""font-size: 60px; font-family: BACS"">BlmcldRA</p>","","","","","","","","",""
"html-keyboard-response","321","578203","0.0-14.0-0.70","617679054948369cb824d837","650c16f0f2faf8d7a0d14c09","651c1e4555bcdef806a4637e","null","null","<p style=""font-size: 60px; font-family: BACS"">rvOvUkJdr</p>","","","","","","","","",""
"html-keyboard-response","322","579209","0.0-14.0-0.71","617679054948369cb824d837","650c16f0f2faf8d7a0d14c09","651c1e4555bcdef806a4637e","null","null","<p style=""font-size: 60px; font-family: BACS"">AZlLNmZb</p>","","","","","","","","",""
"html-keyboard-response","323","580217","0.0-14.0-0.72","617679054948369cb824d837","650c16f0f2faf8d7a0d14c09","651c1e4555bcdef806a4637e","null","null","<p style=""font-size: 60px; font-family: BACS"">hTtBbPEdK</p>","","","","","","","","",""
"html-keyboard-response","324","581225","0.0-14.0-0.73","617679054948369cb824d837","650c16f0f2faf8d7a0d14c09","651c1e4555bcdef806a4637e","null","null","<p style=""font-size: 60px; font-family: BACS"">ZNLOvmZb</p>","","","","","","","","",""
"html-keyboard-response","325","582235","0.0-14.0-0.74","617679054948369cb824d837","650c16f0f2faf8d7a0d14c09","651c1e4555bcdef806a4637e","null","null","<p style=""font-size: 60px; font-family: BACS"">ZdNmUkJdr</p>","","","","","","","","",""
"html-keyboard-response","326","583273","0.0-14.0-0.75","617679054948369cb824d837","650c16f0f2faf8d7a0d14c09","651c1e4555bcdef806a4637e","null","null","<p style=""font-size: 60px; font-family: BACS"">vAuNlAOUl</p>","","","","","","","","",""
"html-keyboard-response","327","584309","0.0-14.0-0.76","617679054948369cb824d837","650c16f0f2faf8d7a0d14c09","651c1e4555bcdef806a4637e","null","null","<p style=""font-size: 60px; font-family: BACS"">dRhtYht</p>","","","","","","","","",""
"html-keyboard-response","328","585314","0.0-14.0-0.77","617679054948369cb824d837","650c16f0f2faf8d7a0d14c09","651c1e4555bcdef806a4637e","null","null","<p style=""font-size: 60px; font-family: BACS"">adYrckJdr</p>","","","","","","","","",""
"html-keyboard-response","329","586323","0.0-14.0-0.78","617679054948369cb824d837","650c16f0f2faf8d7a0d14c09","651c1e4555bcdef806a4637e","null","null","<p style=""font-size: 60px; font-family: BACS"">tDPRkmtKP</p>","","","","","","","","",""
"html-keyboard-response","330","587330","0.0-14.0-0.79","617679054948369cb824d837","650c16f0f2faf8d7a0d14c09","651c1e4555bcdef806a4637e","null","null","<p style=""font-size: 60px; font-family: BACS"">lBlEdRA</p>","","","","","","","","",""
"html-keyboard-response","331","594893","0.0-15.0","617679054948369cb824d837","650c16f0f2faf8d7a0d14c09","651c1e4555bcdef806a4637e","7561"," ","<p>Great, you've seen the fourth block of words. You may now take a short break.</p>
      <p>Press the spacebar when you're ready to continue.</p>","","","","","","","","",""
"html-keyboard-response","332","595897","0.0-16.0-0.0","617679054948369cb824d837","650c16f0f2faf8d7a0d14c09","651c1e4555bcdef806a4637e","null","null","<p style=""font-size: 60px; font-family: BACS"">KdARmtKP</p>","","","","","","","","",""
"html-keyboard-response","333","596925","0.0-16.0-0.1","617679054948369cb824d837","650c16f0f2faf8d7a0d14c09","651c1e4555bcdef806a4637e","null","null","<p style=""font-size: 60px; font-family: BACS"">KdARmtKP</p>","","","","","","","","",""
"html-keyboard-response","334","597929","0.0-16.0-0.2","617679054948369cb824d837","650c16f0f2faf8d7a0d14c09","651c1e4555bcdef806a4637e","null","null","<p style=""font-size: 60px; font-family: BACS"">KdARmtKP</p>","","","","","","","","",""
"html-keyboard-response","335","598938","0.0-16.0-0.3","617679054948369cb824d837","650c16f0f2faf8d7a0d14c09","651c1e4555bcdef806a4637e","null","null","<p style=""font-size: 60px; font-family: BACS"">KdARmtKP</p>","","","","","","","","",""
"html-keyboard-response","336","599949","0.0-16.0-0.4","617679054948369cb824d837","650c16f0f2faf8d7a0d14c09","651c1e4555bcdef806a4637e","null","null","<p style=""font-size: 60px; font-family: BACS"">KdARmtKP</p>","","","","","","","","",""
"html-keyboard-response","337","600953","0.0-16.0-0.5","617679054948369cb824d837","650c16f0f2faf8d7a0d14c09","651c1e4555bcdef806a4637e","null","null","<p style=""font-size: 60px; font-family: BACS"">KdARmtKP</p>","","","","","","","","",""
"html-keyboard-response","338","601961","0.0-16.0-0.6","617679054948369cb824d837","650c16f0f2faf8d7a0d14c09","651c1e4555bcdef806a4637e","null","null","<p style=""font-size: 60px; font-family: BACS"">KdARmtKP</p>","","","","","","","","",""
"html-keyboard-response","339","602970","0.0-16.0-0.7","617679054948369cb824d837","650c16f0f2faf8d7a0d14c09","651c1e4555bcdef806a4637e","null","null","<p style=""font-size: 60px; font-family: BACS"">KdARmtKP</p>","","","","","","","","",""
"html-keyboard-response","340","603976","0.0-16.0-0.8","617679054948369cb824d837","650c16f0f2faf8d7a0d14c09","651c1e4555bcdef806a4637e","null","null","<p style=""font-size: 60px; font-family: BACS"">KdARmtKP</p>","","","","","","","","",""
"html-keyboard-response","341","604985","0.0-16.0-0.9","617679054948369cb824d837","650c16f0f2faf8d7a0d14c09","651c1e4555bcdef806a4637e","null","null","<p style=""font-size: 60px; font-family: BACS"">KdARmtKP</p>","","","","","","","","",""
"html-keyboard-response","342","605994","0.0-16.0-0.10","617679054948369cb824d837","650c16f0f2faf8d7a0d14c09","651c1e4555bcdef806a4637e","null","null","<p style=""font-size: 60px; font-family: BACS"">KdARmtKP</p>","","","","","","","","",""
"html-keyboard-response","343","607003","0.0-16.0-0.11","617679054948369cb824d837","650c16f0f2faf8d7a0d14c09","651c1e4555bcdef806a4637e","null","null","<p style=""font-size: 60px; font-family: BACS"">KdARmtKP</p>","","","","","","","","",""
"html-keyboard-response","344","608009","0.0-16.0-0.12","617679054948369cb824d837","650c16f0f2faf8d7a0d14c09","651c1e4555bcdef806a4637e","null","null","<p style=""font-size: 60px; font-family: BACS"">KdARmtKP</p>","","","","","","","","",""
"html-keyboard-response","345","609024","0.0-16.0-0.13","617679054948369cb824d837","650c16f0f2faf8d7a0d14c09","651c1e4555bcdef806a4637e","null","null","<p style=""font-size: 60px; font-family: BACS"">KdARmtKP</p>","","","","","","","","",""
"html-keyboard-response","346","610034","0.0-16.0-0.14","617679054948369cb824d837","650c16f0f2faf8d7a0d14c09","651c1e4555bcdef806a4637e","null","null","<p style=""font-size: 60px; font-family: BACS"">KdARmtKP</p>","","","","","","","","",""
"html-keyboard-response","347","611041","0.0-16.0-0.15","617679054948369cb824d837","650c16f0f2faf8d7a0d14c09","651c1e4555bcdef806a4637e","null","null","<p style=""font-size: 60px; font-family: BACS"">KdARmtKP</p>","","","","","","","","",""
"html-keyboard-response","348","612050","0.0-16.0-0.16","617679054948369cb824d837","650c16f0f2faf8d7a0d14c09","651c1e4555bcdef806a4637e","null","null","<p style=""font-size: 60px; font-family: BACS"">KdARmtKP</p>","","","","","","","","",""
"html-keyboard-response","349","613057","0.0-16.0-0.17","617679054948369cb824d837","650c16f0f2faf8d7a0d14c09","651c1e4555bcdef806a4637e","null","null","<p style=""font-size: 60px; font-family: BACS"">KdARmtKP</p>","","","","","","","","",""
"html-keyboard-response","350","614066","0.0-16.0-0.18","617679054948369cb824d837","650c16f0f2faf8d7a0d14c09","651c1e4555bcdef806a4637e","null","null","<p style=""font-size: 60px; font-family: BACS"">KdARmtKP</p>","","","","","","","","",""
"html-keyboard-response","351","615073","0.0-16.0-0.19","617679054948369cb824d837","650c16f0f2faf8d7a0d14c09","651c1e4555bcdef806a4637e","null","null","<p style=""font-size: 60px; font-family: BACS"">KdARmtKP</p>","","","","","","","","",""
"html-keyboard-response","352","616081","0.0-16.0-0.20","617679054948369cb824d837","650c16f0f2faf8d7a0d14c09","651c1e4555bcdef806a4637e","null","null","<p style=""font-size: 60px; font-family: BACS"">KdARmtKP</p>","","","","","","","","",""
"html-keyboard-response","353","617090","0.0-16.0-0.21","617679054948369cb824d837","650c16f0f2faf8d7a0d14c09","651c1e4555bcdef806a4637e","null","null","<p style=""font-size: 60px; font-family: BACS"">KdARmtKP</p>","","","","","","","","",""
"html-keyboard-response","354","618097","0.0-16.0-0.22","617679054948369cb824d837","650c16f0f2faf8d7a0d14c09","651c1e4555bcdef806a4637e","null","null","<p style=""font-size: 60px; font-family: BACS"">KdARmtKP</p>","","","","","","","","",""
"html-keyboard-response","355","619105","0.0-16.0-0.23","617679054948369cb824d837","650c16f0f2faf8d7a0d14c09","651c1e4555bcdef806a4637e","null","null","<p style=""font-size: 60px; font-family: BACS"">KdARmtKP</p>","","","","","","","","",""
"html-keyboard-response","356","620114","0.0-16.0-0.24","617679054948369cb824d837","650c16f0f2faf8d7a0d14c09","651c1e4555bcdef806a4637e","null","null","<p style=""font-size: 60px; font-family: BACS"">KdARmtKP</p>","","","","","","","","",""
"html-keyboard-response","357","621121","0.0-16.0-0.25","617679054948369cb824d837","650c16f0f2faf8d7a0d14c09","651c1e4555bcdef806a4637e","null","null","<p style=""font-size: 60px; font-family: BACS"">KdARmtKP</p>","","","","","","","","",""
"html-keyboard-response","358","622130","0.0-16.0-0.26","617679054948369cb824d837","650c16f0f2faf8d7a0d14c09","651c1e4555bcdef806a4637e","null","null","<p style=""font-size: 60px; font-family: BACS"">KdARmtKP</p>","","","","","","","","",""
"html-keyboard-response","359","623138","0.0-16.0-0.27","617679054948369cb824d837","650c16f0f2faf8d7a0d14c09","651c1e4555bcdef806a4637e","null","null","<p style=""font-size: 60px; font-family: BACS"">KdARmtKP</p>","","","","","","","","",""
"html-keyboard-response","360","624145","0.0-16.0-0.28","617679054948369cb824d837","650c16f0f2faf8d7a0d14c09","651c1e4555bcdef806a4637e","null","null","<p style=""font-size: 60px; font-family: BACS"">KdARmtKP</p>","","","","","","","","",""
"html-keyboard-response","361","625154","0.0-16.0-0.29","617679054948369cb824d837","650c16f0f2faf8d7a0d14c09","651c1e4555bcdef806a4637e","null","null","<p style=""font-size: 60px; font-family: BACS"">KdARmtKP</p>","","","","","","","","",""
"html-keyboard-response","362","626171","0.0-16.0-0.30","617679054948369cb824d837","650c16f0f2faf8d7a0d14c09","651c1e4555bcdef806a4637e","null","null","<p style=""font-size: 60px; font-family: BACS"">KdARmtKP</p>","","","","","","","","",""
"html-keyboard-response","363","627178","0.0-16.0-0.31","617679054948369cb824d837","650c16f0f2faf8d7a0d14c09","651c1e4555bcdef806a4637e","null","null","<p style=""font-size: 60px; font-family: BACS"">KdARmtKP</p>","","","","","","","","",""
"html-keyboard-response","364","628185","0.0-16.0-0.32","617679054948369cb824d837","650c16f0f2faf8d7a0d14c09","651c1e4555bcdef806a4637e","null","null","<p style=""font-size: 60px; font-family: BACS"">KdARmtKP</p>","","","","","","","","",""
"html-keyboard-response","365","629194","0.0-16.0-0.33","617679054948369cb824d837","650c16f0f2faf8d7a0d14c09","651c1e4555bcdef806a4637e","null","null","<p style=""font-size: 60px; font-family: BACS"">KdARmtKP</p>","","","","","","","","",""
"html-keyboard-response","366","630203","0.0-16.0-0.34","617679054948369cb824d837","650c16f0f2faf8d7a0d14c09","651c1e4555bcdef806a4637e","null","null","<p style=""font-size: 60px; font-family: BACS"">KdARmtKP</p>","","","","","","","","",""
"html-keyboard-response","367","631208","0.0-16.0-0.35","617679054948369cb824d837","650c16f0f2faf8d7a0d14c09","651c1e4555bcdef806a4637e","null","null","<p style=""font-size: 60px; font-family: BACS"">KdARmtKP</p>","","","","","","","","",""
"html-keyboard-response","368","632218","0.0-16.0-0.36","617679054948369cb824d837","650c16f0f2faf8d7a0d14c09","651c1e4555bcdef806a4637e","null","null","<p style=""font-size: 60px; font-family: BACS"">KdARmtKP</p>","","","","","","","","",""
"html-keyboard-response","369","633233","0.0-16.0-0.37","617679054948369cb824d837","650c16f0f2faf8d7a0d14c09","651c1e4555bcdef806a4637e","null","null","<p style=""font-size: 60px; font-family: BACS"">KdARmtKP</p>","","","","","","","","",""
"html-keyboard-response","370","634241","0.0-16.0-0.38","617679054948369cb824d837","650c16f0f2faf8d7a0d14c09","651c1e4555bcdef806a4637e","null","null","<p style=""font-size: 60px; font-family: BACS"">KdARmtKP</p>","","","","","","","","",""
"html-keyboard-response","371","635249","0.0-16.0-0.39","617679054948369cb824d837","650c16f0f2faf8d7a0d14c09","651c1e4555bcdef806a4637e","null","null","<p style=""font-size: 60px; font-family: BACS"">KdARmtKP</p>","","","","","","","","",""
"html-keyboard-response","372","636257","0.0-16.0-0.40","617679054948369cb824d837","650c16f0f2faf8d7a0d14c09","651c1e4555bcdef806a4637e","null","null","<p style=""font-size: 60px; font-family: BACS"">KdARmtKP</p>","","","","","","","","",""
"html-keyboard-response","373","637265","0.0-16.0-0.41","617679054948369cb824d837","650c16f0f2faf8d7a0d14c09","651c1e4555bcdef806a4637e","null","null","<p style=""font-size: 60px; font-family: BACS"">KdARmtKP</p>","","","","","","","","",""
"html-keyboard-response","374","638285","0.0-16.0-0.42","617679054948369cb824d837","650c16f0f2faf8d7a0d14c09","651c1e4555bcdef806a4637e","null","null","<p style=""font-size: 60px; font-family: BACS"">KdARmtKP</p>","","","","","","","","",""
"html-keyboard-response","375","639291","0.0-16.0-0.43","617679054948369cb824d837","650c16f0f2faf8d7a0d14c09","651c1e4555bcdef806a4637e","null","null","<p style=""font-size: 60px; font-family: BACS"">KdARmtKP</p>","","","","","","","","",""
"html-keyboard-response","376","640306","0.0-16.0-0.44","617679054948369cb824d837","650c16f0f2faf8d7a0d14c09","651c1e4555bcdef806a4637e","null","null","<p style=""font-size: 60px; font-family: BACS"">KdARmtKP</p>","","","","","","","","",""
"html-keyboard-response","377","641315","0.0-16.0-0.45","617679054948369cb824d837","650c16f0f2faf8d7a0d14c09","651c1e4555bcdef806a4637e","null","null","<p style=""font-size: 60px; font-family: BACS"">KdARmtKP</p>","","","","","","","","",""
"html-keyboard-response","378","642321","0.0-16.0-0.46","617679054948369cb824d837","650c16f0f2faf8d7a0d14c09","651c1e4555bcdef806a4637e","null","null","<p style=""font-size: 60px; font-family: BACS"">KdARmtKP</p>","","","","","","","","",""
"html-keyboard-response","379","643329","0.0-16.0-0.47","617679054948369cb824d837","650c16f0f2faf8d7a0d14c09","651c1e4555bcdef806a4637e","null","null","<p style=""font-size: 60px; font-family: BACS"">KdARmtKP</p>","","","","","","","","",""
"html-keyboard-response","380","644337","0.0-16.0-0.48","617679054948369cb824d837","650c16f0f2faf8d7a0d14c09","651c1e4555bcdef806a4637e","null","null","<p style=""font-size: 60px; font-family: BACS"">KdARmtKP</p>","","","","","","","","",""
"html-keyboard-response","381","645345","0.0-16.0-0.49","617679054948369cb824d837","650c16f0f2faf8d7a0d14c09","651c1e4555bcdef806a4637e","null","null","<p style=""font-size: 60px; font-family: BACS"">KdARmtKP</p>","","","","","","","","",""
"html-keyboard-response","382","646354","0.0-16.0-0.50","617679054948369cb824d837","650c16f0f2faf8d7a0d14c09","651c1e4555bcdef806a4637e","null","null","<p style=""font-size: 60px; font-family: BACS"">KdARmtKP</p>","","","","","","","","",""
"html-keyboard-response","383","647362","0.0-16.0-0.51","617679054948369cb824d837","650c16f0f2faf8d7a0d14c09","651c1e4555bcdef806a4637e","null","null","<p style=""font-size: 60px; font-family: BACS"">KdARmtKP</p>","","","","","","","","",""
"html-keyboard-response","384","648371","0.0-16.0-0.52","617679054948369cb824d837","650c16f0f2faf8d7a0d14c09","651c1e4555bcdef806a4637e","null","null","<p style=""font-size: 60px; font-family: BACS"">KdARmtKP</p>","","","","","","","","",""
"html-keyboard-response","385","649377","0.0-16.0-0.53","617679054948369cb824d837","650c16f0f2faf8d7a0d14c09","651c1e4555bcdef806a4637e","null","null","<p style=""font-size: 60px; font-family: BACS"">KdARmtKP</p>","","","","","","","","",""
"html-keyboard-response","386","650386","0.0-16.0-0.54","617679054948369cb824d837","650c16f0f2faf8d7a0d14c09","651c1e4555bcdef806a4637e","null","null","<p style=""font-size: 60px; font-family: BACS"">KdARmtKP</p>","","","","","","","","",""
"html-keyboard-response","387","651394","0.0-16.0-0.55","617679054948369cb824d837","650c16f0f2faf8d7a0d14c09","651c1e4555bcdef806a4637e","null","null","<p style=""font-size: 60px; font-family: BACS"">KdARmtKP</p>","","","","","","","","",""
"html-keyboard-response","388","652404","0.0-16.0-0.56","617679054948369cb824d837","650c16f0f2faf8d7a0d14c09","651c1e4555bcdef806a4637e","null","null","<p style=""font-size: 60px; font-family: BACS"">KdARmtKP</p>","","","","","","","","",""
"html-keyboard-response","389","653419","0.0-16.0-0.57","617679054948369cb824d837","650c16f0f2faf8d7a0d14c09","651c1e4555bcdef806a4637e","null","null","<p style=""font-size: 60px; font-family: BACS"">KdARmtKP</p>","","","","","","","","",""
"html-keyboard-response","390","654426","0.0-16.0-0.58","617679054948369cb824d837","650c16f0f2faf8d7a0d14c09","651c1e4555bcdef806a4637e","null","null","<p style=""font-size: 60px; font-family: BACS"">KdARmtKP</p>","","","","","","","","",""
"html-keyboard-response","391","655434","0.0-16.0-0.59","617679054948369cb824d837","650c16f0f2faf8d7a0d14c09","651c1e4555bcdef806a4637e","null","null","<p style=""font-size: 60px; font-family: BACS"">KdARmtKP</p>","","","","","","","","",""
"html-keyboard-response","392","656442","0.0-16.0-0.60","617679054948369cb824d837","650c16f0f2faf8d7a0d14c09","651c1e4555bcdef806a4637e","null","null","<p style=""font-size: 60px; font-family: BACS"">KdARmtKP</p>","","","","","","","","",""
"html-keyboard-response","393","657450","0.0-16.0-0.61","617679054948369cb824d837","650c16f0f2faf8d7a0d14c09","651c1e4555bcdef806a4637e","null","null","<p style=""font-size: 60px; font-family: BACS"">KdARmtKP</p>","","","","","","","","",""
"html-keyboard-response","394","658457","0.0-16.0-0.62","617679054948369cb824d837","650c16f0f2faf8d7a0d14c09","651c1e4555bcdef806a4637e","null","null","<p style=""font-size: 60px; font-family: BACS"">KdARmtKP</p>","","","","","","","","",""
"html-keyboard-response","395","659467","0.0-16.0-0.63","617679054948369cb824d837","650c16f0f2faf8d7a0d14c09","651c1e4555bcdef806a4637e","null","null","<p style=""font-size: 60px; font-family: BACS"">KdARmtKP</p>","","","","","","","","",""
"html-keyboard-response","396","660474","0.0-16.0-0.64","617679054948369cb824d837","650c16f0f2faf8d7a0d14c09","651c1e4555bcdef806a4637e","null","null","<p style=""font-size: 60px; font-family: BACS"">KdARmtKP</p>","","","","","","","","",""
"html-keyboard-response","397","661482","0.0-16.0-0.65","617679054948369cb824d837","650c16f0f2faf8d7a0d14c09","651c1e4555bcdef806a4637e","null","null","<p style=""font-size: 60px; font-family: BACS"">KdARmtKP</p>","","","","","","","","",""
"html-keyboard-response","398","662491","0.0-16.0-0.66","617679054948369cb824d837","650c16f0f2faf8d7a0d14c09","651c1e4555bcdef806a4637e","null","null","<p style=""font-size: 60px; font-family: BACS"">KdARmtKP</p>","","","","","","","","",""
"html-keyboard-response","399","663498","0.0-16.0-0.67","617679054948369cb824d837","650c16f0f2faf8d7a0d14c09","651c1e4555bcdef806a4637e","null","null","<p style=""font-size: 60px; font-family: BACS"">KdARmtKP</p>","","","","","","","","",""
