"trial_type","trial_index","time_elapsed","internal_node_id","subject_id","study_id","session_id","rt","response","stimulus","success","item","task","correct_response","testing_condition","correct","target","confound","name","view_history"
"pavlovia","0","1353","0.0-0.0","60fd0845a9a6b47d7adfea22","64e77d7b61f440b60e28659d","64ec94ef3b09f5c1e435504b","","","","","","","","","","","","",""
"survey-html-form","1","4338","0.0-1.0","60fd0845a9a6b47d7adfea22","64e77d7b61f440b60e28659d","64ec94ef3b09f5c1e435504b","2982","{""ID"":""60fd0845a9a6b47d7adfea22""}","","","","","","","","","","",""
"html-keyboard-response","2","5268","0.0-2.0","60fd0845a9a6b47d7adfea22","64e77d7b61f440b60e28659d","64ec94ef3b09f5c1e435504b","928"," ","<p style=""font-size: 15px;"">Before beginning, we ask that you read the consent information and confirm your agreement to participate in the experiment.</p>
      <p style=""font-size: 15px;""> We ask that you remember that this is a research project and that your participation is entirely voluntary. You can stop your participation at any time, without needing to provide any explanation. The study we're asking you to participate in aims at examining how readers process written words. You will be engaged in a session of apprximately 20 minutes, followed by a brief questionnaire. You will have the opportunity to take a few breaks during the experiment. You will be paid £4 for your participation, corresponding to a rate of £8/hour. While this experiment looks at cognitive faculties, this experiment doesn't constitute clinical proof of eventual pathologies.</p>
      <p style=""font-size: 15px;"">All of the information collected thanks to yours and others' participation will be held in a secure password-protected server, and will not be shared with anyone not authorised to view it. Your personal information will be kept with an arbitrary participant ID. Thanks to this data anonymity process, any researcher analysing the data won't be able to track the information back to a specific participant. Therefore, this process will make identifying you impossibile, even when results from the study will be published in scientific reviews, presented at congresses, or at any other public forum. More generally, the collected data will be treated in accordance with the laws on privacy and conformity to the Legislative Degree n. 196 ""Code regarding the protection of personal data"" of the 30th of June 2003 and to the European Regulation 2016/670 (General Data Protection Regulation - GDPR). The Data Protection Officer is Avv. Valentina Carollo, who can be contacted at the following email addresses: <a href=""mailto:dpo@sissa.it"">dpo@sissa.it</a> or <a href=""mailto:rpd@sissa.it"">rpd@sissa.it</a> - PEC: <a href=""mailto:protocollo@pec.sissa.it"">protocollo@pec.sissa.it</a>.</p>
      <p style=""font-size: 15px;""> Before expressing your consent to participate, we would like to remind you again that in case you need explanations on any aspect of the experimental procedure, the researcher is at your disposition (<a href=""mailto:aliebelt@sissa.it"">aliebelt@sissa.it</a>, <a href=""mailto:davide.crepaldi@sissa.it"">davide.crepaldi@sissa.it</a>).</p>
      <p style=""font-size: 15px;"">If you would like to download the informed consent form, you can do so here: <a href=""BASL-Informed_Consent.pdf"" download>informed consent form</a>.</p>
      <p style=""font-size: 15px;"">We ask that you press the spacebar to proceed to the consent section.</p>","","","","","","","","","",""
"survey-html-form","3","20633","0.0-3.0","60fd0845a9a6b47d7adfea22","64e77d7b61f440b60e28659d","64ec94ef3b09f5c1e435504b","15363","{""consent1"":""YES"",""consent2"":""YES"",""consent3"":""YES"",""consent4"":""YES"",""consent5"":""YES"",""consent6"":""YES""}","","","","","","","","","","",""
"fullscreen","4","27597","0.0-4.0","60fd0845a9a6b47d7adfea22","64e77d7b61f440b60e28659d","64ec94ef3b09f5c1e435504b","","","","true","","","","","","","","",""
"html-keyboard-response","5","45725","0.0-5.0","60fd0845a9a6b47d7adfea22","64e77d7b61f440b60e28659d","64ec94ef3b09f5c1e435504b","18125"," ","<p>Welcome, and thank you very much for your time!</p>
      <p>In this experiment, you'll be a language expert who's been asked to take a look at words that Earth has received in its first communication with aliens. Your task, in this first part of the experiment, is to pay close attention to the words you'll be shown; later, world leaders will ask you questions on what you saw. The words will be shown to you quite quickly; it seems that the aliens were in a hurry :-)</p>
      <p>Press the spacebar to continue.<p>","","","","","","","","","",""
"html-keyboard-response","6","54283","0.0-6.0","60fd0845a9a6b47d7adfea22","64e77d7b61f440b60e28659d","64ec94ef3b09f5c1e435504b","8556"," ","<p>Here is an example of the words you'll see:</p>
      <img src='esempio.png' height='400px'>
      <p>When you're ready to begin, press the spacebar.</p></div>","","","","","","","","","",""
"html-keyboard-response","7","55303","0.0-7.0-0.0","60fd0845a9a6b47d7adfea22","64e77d7b61f440b60e28659d","64ec94ef3b09f5c1e435504b","null","null","<p style=""font-size: 60px; font-family: BACS"">QLrOJZvkL</p>","","","","","","","","","",""
"html-keyboard-response","8","56317","0.0-7.0-0.1","60fd0845a9a6b47d7adfea22","64e77d7b61f440b60e28659d","64ec94ef3b09f5c1e435504b","null","null","<p style=""font-size: 60px; font-family: BACS"">DhMtPTl</p>","","","","","","","","","",""
"html-keyboard-response","9","57336","0.0-7.0-0.2","60fd0845a9a6b47d7adfea22","64e77d7b61f440b60e28659d","64ec94ef3b09f5c1e435504b","null","null","<p style=""font-size: 60px; font-family: BACS"">DRPkYMAB</p>","","","","","","","","","",""
"html-keyboard-response","10","58338","0.0-7.0-0.3","60fd0845a9a6b47d7adfea22","64e77d7b61f440b60e28659d","64ec94ef3b09f5c1e435504b","null","null","<p style=""font-size: 60px; font-family: BACS"">TObCORYlD</p>","","","","","","","","","",""
"html-keyboard-response","11","59343","0.0-7.0-0.4","60fd0845a9a6b47d7adfea22","64e77d7b61f440b60e28659d","64ec94ef3b09f5c1e435504b","null","null","<p style=""font-size: 60px; font-family: BACS"">LcNUJaQr</p>","","","","","","","","","",""
"html-keyboard-response","12","60359","0.0-7.0-0.5","60fd0845a9a6b47d7adfea22","64e77d7b61f440b60e28659d","64ec94ef3b09f5c1e435504b","null","null","<p style=""font-size: 60px; font-family: BACS"">NaJbukbY</p>","","","","","","","","","",""
"html-keyboard-response","13","61370","0.0-7.0-0.6","60fd0845a9a6b47d7adfea22","64e77d7b61f440b60e28659d","64ec94ef3b09f5c1e435504b","null","null","<p style=""font-size: 60px; font-family: BACS"">TObCOPEdK</p>","","","","","","","","","",""
"html-keyboard-response","14","62376","0.0-7.0-0.7","60fd0845a9a6b47d7adfea22","64e77d7b61f440b60e28659d","64ec94ef3b09f5c1e435504b","null","null","<p style=""font-size: 60px; font-family: BACS"">dGLAlaQr</p>","","","","","","","","","",""
"html-keyboard-response","15","63384","0.0-7.0-0.8","60fd0845a9a6b47d7adfea22","64e77d7b61f440b60e28659d","64ec94ef3b09f5c1e435504b","null","null","<p style=""font-size: 60px; font-family: BACS"">cRElDlRE</p>","","","","","","","","","",""
"html-keyboard-response","16","64387","0.0-7.0-0.9","60fd0845a9a6b47d7adfea22","64e77d7b61f440b60e28659d","64ec94ef3b09f5c1e435504b","null","null","<p style=""font-size: 60px; font-family: BACS"">LNUrJukbY</p>","","","","","","","","","",""
"html-keyboard-response","17","65393","0.0-7.0-0.10","60fd0845a9a6b47d7adfea22","64e77d7b61f440b60e28659d","64ec94ef3b09f5c1e435504b","null","null","<p style=""font-size: 60px; font-family: BACS"">tcYbdlRE</p>","","","","","","","","","",""
"html-keyboard-response","18","66409","0.0-7.0-0.11","60fd0845a9a6b47d7adfea22","64e77d7b61f440b60e28659d","64ec94ef3b09f5c1e435504b","null","null","<p style=""font-size: 60px; font-family: BACS"">UdYUQAld</p>","","","","","","","","","",""
"html-keyboard-response","19","67417","0.0-7.0-0.12","60fd0845a9a6b47d7adfea22","64e77d7b61f440b60e28659d","64ec94ef3b09f5c1e435504b","null","null","<p style=""font-size: 60px; font-family: BACS"">QLrOJrZYd</p>","","","","","","","","","",""
"html-keyboard-response","20","68420","0.0-7.0-0.13","60fd0845a9a6b47d7adfea22","64e77d7b61f440b60e28659d","64ec94ef3b09f5c1e435504b","null","null","<p style=""font-size: 60px; font-family: BACS"">NaJbaQr</p>","","","","","","","","","",""
"html-keyboard-response","21","69437","0.0-7.0-0.14","60fd0845a9a6b47d7adfea22","64e77d7b61f440b60e28659d","64ec94ef3b09f5c1e435504b","null","null","<p style=""font-size: 60px; font-family: BACS"">BdtACMAB</p>","","","","","","","","","",""
"html-keyboard-response","22","70454","0.0-7.0-0.15","60fd0845a9a6b47d7adfea22","64e77d7b61f440b60e28659d","64ec94ef3b09f5c1e435504b","null","null","<p style=""font-size: 60px; font-family: BACS"">LcNUJZvkL</p>","","","","","","","","","",""
"html-keyboard-response","23","71458","0.0-7.0-0.16","60fd0845a9a6b47d7adfea22","64e77d7b61f440b60e28659d","64ec94ef3b09f5c1e435504b","null","null","<p style=""font-size: 60px; font-family: BACS"">mUOcOukbY</p>","","","","","","","","","",""
"html-keyboard-response","24","72468","0.0-7.0-0.17","60fd0845a9a6b47d7adfea22","64e77d7b61f440b60e28659d","64ec94ef3b09f5c1e435504b","null","null","<p style=""font-size: 60px; font-family: BACS"">NaJbZvkL</p>","","","","","","","","","",""
"html-keyboard-response","25","73471","0.0-7.0-0.18","60fd0845a9a6b47d7adfea22","64e77d7b61f440b60e28659d","64ec94ef3b09f5c1e435504b","null","null","<p style=""font-size: 60px; font-family: BACS"">cRElDPEdK</p>","","","","","","","","","",""
"html-keyboard-response","26","74477","0.0-7.0-0.19","60fd0845a9a6b47d7adfea22","64e77d7b61f440b60e28659d","64ec94ef3b09f5c1e435504b","null","null","<p style=""font-size: 60px; font-family: BACS"">NaJbrZYd</p>","","","","","","","","","",""
"html-keyboard-response","27","75488","0.0-7.0-0.20","60fd0845a9a6b47d7adfea22","64e77d7b61f440b60e28659d","64ec94ef3b09f5c1e435504b","null","null","<p style=""font-size: 60px; font-family: BACS"">UdYUQZvkL</p>","","","","","","","","","",""
"html-keyboard-response","28","76503","0.0-7.0-0.21","60fd0845a9a6b47d7adfea22","64e77d7b61f440b60e28659d","64ec94ef3b09f5c1e435504b","null","null","<p style=""font-size: 60px; font-family: BACS"">LNUrJrZYd</p>","","","","","","","","","",""
"html-keyboard-response","29","77521","0.0-7.0-0.22","60fd0845a9a6b47d7adfea22","64e77d7b61f440b60e28659d","64ec94ef3b09f5c1e435504b","null","null","<p style=""font-size: 60px; font-family: BACS"">aLNlkAld</p>","","","","","","","","","",""
"html-keyboard-response","30","78527","0.0-7.0-0.23","60fd0845a9a6b47d7adfea22","64e77d7b61f440b60e28659d","64ec94ef3b09f5c1e435504b","null","null","<p style=""font-size: 60px; font-family: BACS"">QLrOJaQr</p>","","","","","","","","","",""
"html-keyboard-response","31","79542","0.0-7.0-0.24","60fd0845a9a6b47d7adfea22","64e77d7b61f440b60e28659d","64ec94ef3b09f5c1e435504b","null","null","<p style=""font-size: 60px; font-family: BACS"">TObCOMAB</p>","","","","","","","","","",""
"html-keyboard-response","32","80554","0.0-7.0-0.25","60fd0845a9a6b47d7adfea22","64e77d7b61f440b60e28659d","64ec94ef3b09f5c1e435504b","null","null","<p style=""font-size: 60px; font-family: BACS"">NbmQUukbY</p>","","","","","","","","","",""
"html-keyboard-response","33","81556","0.0-7.0-0.26","60fd0845a9a6b47d7adfea22","64e77d7b61f440b60e28659d","64ec94ef3b09f5c1e435504b","null","null","<p style=""font-size: 60px; font-family: BACS"">GZJYrZYd</p>","","","","","","","","","",""
"html-keyboard-response","34","82572","0.0-7.0-0.27","60fd0845a9a6b47d7adfea22","64e77d7b61f440b60e28659d","64ec94ef3b09f5c1e435504b","null","null","<p style=""font-size: 60px; font-family: BACS"">DhMtlRE</p>","","","","","","","","","",""
"html-keyboard-response","35","83575","0.0-7.0-0.28","60fd0845a9a6b47d7adfea22","64e77d7b61f440b60e28659d","64ec94ef3b09f5c1e435504b","null","null","<p style=""font-size: 60px; font-family: BACS"">GZJYAld</p>","","","","","","","","","",""
"html-keyboard-response","36","84577","0.0-7.0-0.29","60fd0845a9a6b47d7adfea22","64e77d7b61f440b60e28659d","64ec94ef3b09f5c1e435504b","null","null","<p style=""font-size: 60px; font-family: BACS"">PEtEPEdK</p>","","","","","","","","","",""
"html-keyboard-response","37","85592","0.0-7.0-0.30","60fd0845a9a6b47d7adfea22","64e77d7b61f440b60e28659d","64ec94ef3b09f5c1e435504b","null","null","<p style=""font-size: 60px; font-family: BACS"">LcNUJrZYd</p>","","","","","","","","","",""
"html-keyboard-response","38","86609","0.0-7.0-0.31","60fd0845a9a6b47d7adfea22","64e77d7b61f440b60e28659d","64ec94ef3b09f5c1e435504b","null","null","<p style=""font-size: 60px; font-family: BACS"">PEtERYlD</p>","","","","","","","","","",""
"html-keyboard-response","39","87623","0.0-7.0-0.32","60fd0845a9a6b47d7adfea22","64e77d7b61f440b60e28659d","64ec94ef3b09f5c1e435504b","null","null","<p style=""font-size: 60px; font-family: BACS"">GZJYZvkL</p>","","","","","","","","","",""
"html-keyboard-response","40","88639","0.0-7.0-0.33","60fd0845a9a6b47d7adfea22","64e77d7b61f440b60e28659d","64ec94ef3b09f5c1e435504b","null","null","<p style=""font-size: 60px; font-family: BACS"">BdtAClRE</p>","","","","","","","","","",""
"html-keyboard-response","41","89655","0.0-7.0-0.34","60fd0845a9a6b47d7adfea22","64e77d7b61f440b60e28659d","64ec94ef3b09f5c1e435504b","null","null","<p style=""font-size: 60px; font-family: BACS"">tcYbdPEdK</p>","","","","","","","","","",""
"html-keyboard-response","42","90657","0.0-7.0-0.35","60fd0845a9a6b47d7adfea22","64e77d7b61f440b60e28659d","64ec94ef3b09f5c1e435504b","null","null","<p style=""font-size: 60px; font-family: BACS"">aLNlkZvkL</p>","","","","","","","","","",""
"html-keyboard-response","43","91668","0.0-7.0-0.36","60fd0845a9a6b47d7adfea22","64e77d7b61f440b60e28659d","64ec94ef3b09f5c1e435504b","null","null","<p style=""font-size: 60px; font-family: BACS"">mUOcOAld</p>","","","","","","","","","",""
"html-keyboard-response","44","92676","0.0-7.0-0.37","60fd0845a9a6b47d7adfea22","64e77d7b61f440b60e28659d","64ec94ef3b09f5c1e435504b","null","null","<p style=""font-size: 60px; font-family: BACS"">BdtACPTl</p>","","","","","","","","","",""
"html-keyboard-response","45","93685","0.0-7.0-0.38","60fd0845a9a6b47d7adfea22","64e77d7b61f440b60e28659d","64ec94ef3b09f5c1e435504b","null","null","<p style=""font-size: 60px; font-family: BACS"">bROCRYlD</p>","","","","","","","","","",""
"html-keyboard-response","46","94688","0.0-7.0-0.39","60fd0845a9a6b47d7adfea22","64e77d7b61f440b60e28659d","64ec94ef3b09f5c1e435504b","null","null","<p style=""font-size: 60px; font-family: BACS"">BdtACPEdK</p>","","","","","","","","","",""
"html-keyboard-response","47","95691","0.0-7.0-0.40","60fd0845a9a6b47d7adfea22","64e77d7b61f440b60e28659d","64ec94ef3b09f5c1e435504b","null","null","<p style=""font-size: 60px; font-family: BACS"">UdYUQaQr</p>","","","","","","","","","",""
"html-keyboard-response","48","96694","0.0-7.0-0.41","60fd0845a9a6b47d7adfea22","64e77d7b61f440b60e28659d","64ec94ef3b09f5c1e435504b","null","null","<p style=""font-size: 60px; font-family: BACS"">DhMtRYlD</p>","","","","","","","","","",""
"html-keyboard-response","49","97698","0.0-7.0-0.42","60fd0845a9a6b47d7adfea22","64e77d7b61f440b60e28659d","64ec94ef3b09f5c1e435504b","null","null","<p style=""font-size: 60px; font-family: BACS"">DRPkYPEdK</p>","","","","","","","","","",""
"html-keyboard-response","50","98706","0.0-7.0-0.43","60fd0845a9a6b47d7adfea22","64e77d7b61f440b60e28659d","64ec94ef3b09f5c1e435504b","null","null","<p style=""font-size: 60px; font-family: BACS"">LcNUJAld</p>","","","","","","","","","",""
"html-keyboard-response","51","99716","0.0-7.0-0.44","60fd0845a9a6b47d7adfea22","64e77d7b61f440b60e28659d","64ec94ef3b09f5c1e435504b","null","null","<p style=""font-size: 60px; font-family: BACS"">aLNlkaQr</p>","","","","","","","","","",""
"html-keyboard-response","52","100732","0.0-7.0-0.45","60fd0845a9a6b47d7adfea22","64e77d7b61f440b60e28659d","64ec94ef3b09f5c1e435504b","null","null","<p style=""font-size: 60px; font-family: BACS"">cRElDRYlD</p>","","","","","","","","","",""
"html-keyboard-response","53","101745","0.0-7.0-0.46","60fd0845a9a6b47d7adfea22","64e77d7b61f440b60e28659d","64ec94ef3b09f5c1e435504b","null","null","<p style=""font-size: 60px; font-family: BACS"">PEtEMAB</p>","","","","","","","","","",""
"html-keyboard-response","54","102753","0.0-7.0-0.47","60fd0845a9a6b47d7adfea22","64e77d7b61f440b60e28659d","64ec94ef3b09f5c1e435504b","null","null","<p style=""font-size: 60px; font-family: BACS"">DhMtPEdK</p>","","","","","","","","","",""
"html-keyboard-response","55","103769","0.0-7.0-0.48","60fd0845a9a6b47d7adfea22","64e77d7b61f440b60e28659d","64ec94ef3b09f5c1e435504b","null","null","<p style=""font-size: 60px; font-family: BACS"">bROClRE</p>","","","","","","","","","",""
"html-keyboard-response","56","104777","0.0-7.0-0.49","60fd0845a9a6b47d7adfea22","64e77d7b61f440b60e28659d","64ec94ef3b09f5c1e435504b","null","null","<p style=""font-size: 60px; font-family: BACS"">DRPkYRYlD</p>","","","","","","","","","",""
"html-keyboard-response","57","105787","0.0-7.0-0.50","60fd0845a9a6b47d7adfea22","64e77d7b61f440b60e28659d","64ec94ef3b09f5c1e435504b","null","null","<p style=""font-size: 60px; font-family: BACS"">dGLAlAld</p>","","","","","","","","","",""
"html-keyboard-response","58","106789","0.0-7.0-0.51","60fd0845a9a6b47d7adfea22","64e77d7b61f440b60e28659d","64ec94ef3b09f5c1e435504b","null","null","<p style=""font-size: 60px; font-family: BACS"">TObCOlRE</p>","","","","","","","","","",""
"html-keyboard-response","59","107807","0.0-7.0-0.52","60fd0845a9a6b47d7adfea22","64e77d7b61f440b60e28659d","64ec94ef3b09f5c1e435504b","null","null","<p style=""font-size: 60px; font-family: BACS"">tcYbdMAB</p>","","","","","","","","","",""
"html-keyboard-response","60","108821","0.0-7.0-0.53","60fd0845a9a6b47d7adfea22","64e77d7b61f440b60e28659d","64ec94ef3b09f5c1e435504b","null","null","<p style=""font-size: 60px; font-family: BACS"">hbkdRYlD</p>","","","","","","","","","",""
"html-keyboard-response","61","109826","0.0-7.0-0.54","60fd0845a9a6b47d7adfea22","64e77d7b61f440b60e28659d","64ec94ef3b09f5c1e435504b","null","null","<p style=""font-size: 60px; font-family: BACS"">NbmQUrZYd</p>","","","","","","","","","",""
"html-keyboard-response","62","110838","0.0-7.0-0.55","60fd0845a9a6b47d7adfea22","64e77d7b61f440b60e28659d","64ec94ef3b09f5c1e435504b","null","null","<p style=""font-size: 60px; font-family: BACS"">QLrOJukbY</p>","","","","","","","","","",""
"html-keyboard-response","63","111854","0.0-7.0-0.56","60fd0845a9a6b47d7adfea22","64e77d7b61f440b60e28659d","64ec94ef3b09f5c1e435504b","null","null","<p style=""font-size: 60px; font-family: BACS"">bROCMAB</p>","","","","","","","","","",""
"html-keyboard-response","64","112870","0.0-7.0-0.57","60fd0845a9a6b47d7adfea22","64e77d7b61f440b60e28659d","64ec94ef3b09f5c1e435504b","null","null","<p style=""font-size: 60px; font-family: BACS"">dGLAlrZYd</p>","","","","","","","","","",""
"html-keyboard-response","65","113887","0.0-7.0-0.58","60fd0845a9a6b47d7adfea22","64e77d7b61f440b60e28659d","64ec94ef3b09f5c1e435504b","null","null","<p style=""font-size: 60px; font-family: BACS"">kPkRAPEdK</p>","","","","","","","","","",""
"html-keyboard-response","66","114889","0.0-7.0-0.59","60fd0845a9a6b47d7adfea22","64e77d7b61f440b60e28659d","64ec94ef3b09f5c1e435504b","null","null","<p style=""font-size: 60px; font-family: BACS"">LNUrJaQr</p>","","","","","","","","","",""
"html-keyboard-response","67","115906","0.0-7.0-0.60","60fd0845a9a6b47d7adfea22","64e77d7b61f440b60e28659d","64ec94ef3b09f5c1e435504b","null","null","<p style=""font-size: 60px; font-family: BACS"">GZJYukbY</p>","","","","","","","","","",""
"html-keyboard-response","68","116915","0.0-7.0-0.61","60fd0845a9a6b47d7adfea22","64e77d7b61f440b60e28659d","64ec94ef3b09f5c1e435504b","null","null","<p style=""font-size: 60px; font-family: BACS"">hbkdMAB</p>","","","","","","","","","",""
"html-keyboard-response","69","117925","0.0-7.0-0.62","60fd0845a9a6b47d7adfea22","64e77d7b61f440b60e28659d","64ec94ef3b09f5c1e435504b","null","null","<p style=""font-size: 60px; font-family: BACS"">LNUrJAld</p>","","","","","","","","","",""
"html-keyboard-response","70","118932","0.0-7.0-0.63","60fd0845a9a6b47d7adfea22","64e77d7b61f440b60e28659d","64ec94ef3b09f5c1e435504b","null","null","<p style=""font-size: 60px; font-family: BACS"">hbkdPTl</p>","","","","","","","","","",""
"html-keyboard-response","71","119949","0.0-7.0-0.64","60fd0845a9a6b47d7adfea22","64e77d7b61f440b60e28659d","64ec94ef3b09f5c1e435504b","null","null","<p style=""font-size: 60px; font-family: BACS"">mUOcOZvkL</p>","","","","","","","","","",""
"html-keyboard-response","72","120966","0.0-7.0-0.65","60fd0845a9a6b47d7adfea22","64e77d7b61f440b60e28659d","64ec94ef3b09f5c1e435504b","null","null","<p style=""font-size: 60px; font-family: BACS"">UdYUQukbY</p>","","","","","","","","","",""
"html-keyboard-response","73","121982","0.0-7.0-0.66","60fd0845a9a6b47d7adfea22","64e77d7b61f440b60e28659d","64ec94ef3b09f5c1e435504b","null","null","<p style=""font-size: 60px; font-family: BACS"">bROCPTl</p>","","","","","","","","","",""
"html-keyboard-response","74","122997","0.0-7.0-0.67","60fd0845a9a6b47d7adfea22","64e77d7b61f440b60e28659d","64ec94ef3b09f5c1e435504b","null","null","<p style=""font-size: 60px; font-family: BACS"">dGLAlukbY</p>","","","","","","","","","",""
"html-keyboard-response","75","124001","0.0-7.0-0.68","60fd0845a9a6b47d7adfea22","64e77d7b61f440b60e28659d","64ec94ef3b09f5c1e435504b","null","null","<p style=""font-size: 60px; font-family: BACS"">cRElDPTl</p>","","","","","","","","","",""
"html-keyboard-response","76","125004","0.0-7.0-0.69","60fd0845a9a6b47d7adfea22","64e77d7b61f440b60e28659d","64ec94ef3b09f5c1e435504b","null","null","<p style=""font-size: 60px; font-family: BACS"">PEtElRE</p>","","","","","","","","","",""
"html-keyboard-response","77","126017","0.0-7.0-0.70","60fd0845a9a6b47d7adfea22","64e77d7b61f440b60e28659d","64ec94ef3b09f5c1e435504b","null","null","<p style=""font-size: 60px; font-family: BACS"">DRPkYPTl</p>","","","","","","","","","",""
"html-keyboard-response","78","127021","0.0-7.0-0.71","60fd0845a9a6b47d7adfea22","64e77d7b61f440b60e28659d","64ec94ef3b09f5c1e435504b","null","null","<p style=""font-size: 60px; font-family: BACS"">mUOcOaQr</p>","","","","","","","","","",""
"html-keyboard-response","79","128023","0.0-7.0-0.72","60fd0845a9a6b47d7adfea22","64e77d7b61f440b60e28659d","64ec94ef3b09f5c1e435504b","null","null","<p style=""font-size: 60px; font-family: BACS"">hbkdlRE</p>","","","","","","","","","",""
"html-keyboard-response","80","129039","0.0-7.0-0.73","60fd0845a9a6b47d7adfea22","64e77d7b61f440b60e28659d","64ec94ef3b09f5c1e435504b","null","null","<p style=""font-size: 60px; font-family: BACS"">kPkRARYlD</p>","","","","","","","","","",""
"html-keyboard-response","81","130052","0.0-7.0-0.74","60fd0845a9a6b47d7adfea22","64e77d7b61f440b60e28659d","64ec94ef3b09f5c1e435504b","null","null","<p style=""font-size: 60px; font-family: BACS"">NbmQUZvkL</p>","","","","","","","","","",""
"html-keyboard-response","82","131056","0.0-7.0-0.75","60fd0845a9a6b47d7adfea22","64e77d7b61f440b60e28659d","64ec94ef3b09f5c1e435504b","null","null","<p style=""font-size: 60px; font-family: BACS"">aLNlkrZYd</p>","","","","","","","","","",""
"html-keyboard-response","83","132058","0.0-7.0-0.76","60fd0845a9a6b47d7adfea22","64e77d7b61f440b60e28659d","64ec94ef3b09f5c1e435504b","null","null","<p style=""font-size: 60px; font-family: BACS"">kPkRAPTl</p>","","","","","","","","","",""
"html-keyboard-response","84","133072","0.0-7.0-0.77","60fd0845a9a6b47d7adfea22","64e77d7b61f440b60e28659d","64ec94ef3b09f5c1e435504b","null","null","<p style=""font-size: 60px; font-family: BACS"">NbmQUAld</p>","","","","","","","","","",""
"html-keyboard-response","85","134088","0.0-7.0-0.78","60fd0845a9a6b47d7adfea22","64e77d7b61f440b60e28659d","64ec94ef3b09f5c1e435504b","null","null","<p style=""font-size: 60px; font-family: BACS"">kPkRAMAB</p>","","","","","","","","","",""
"html-keyboard-response","86","135105","0.0-7.0-0.79","60fd0845a9a6b47d7adfea22","64e77d7b61f440b60e28659d","64ec94ef3b09f5c1e435504b","null","null","<p style=""font-size: 60px; font-family: BACS"">tcYbdPTl</p>","","","","","","","","","",""
"html-keyboard-response","87","148662","0.0-8.0","60fd0845a9a6b47d7adfea22","64e77d7b61f440b60e28659d","64ec94ef3b09f5c1e435504b","13554"," ","<p>Great, you've seen the first block of words. You may now take a short break.</p>
      <p>Press the spacebar when you're ready to continue.</p>","","","","","","","","","",""
"html-keyboard-response","88","149667","0.0-9.0-0.0","60fd0845a9a6b47d7adfea22","64e77d7b61f440b60e28659d","64ec94ef3b09f5c1e435504b","null","null","<p style=""font-size: 60px; font-family: BACS"">LNUrJrZYd</p>","","","","","","","","","",""
"html-keyboard-response","89","150677","0.0-9.0-0.1","60fd0845a9a6b47d7adfea22","64e77d7b61f440b60e28659d","64ec94ef3b09f5c1e435504b","null","null","<p style=""font-size: 60px; font-family: BACS"">LcNUJaQr</p>","","","","","","","","","",""
"html-keyboard-response","90","151694","0.0-9.0-0.2","60fd0845a9a6b47d7adfea22","64e77d7b61f440b60e28659d","64ec94ef3b09f5c1e435504b","null","null","<p style=""font-size: 60px; font-family: BACS"">TObCOlRE</p>","","","","","","","","","",""
"html-keyboard-response","91","152696","0.0-9.0-0.3","60fd0845a9a6b47d7adfea22","64e77d7b61f440b60e28659d","64ec94ef3b09f5c1e435504b","null","null","<p style=""font-size: 60px; font-family: BACS"">NbmQUrZYd</p>","","","","","","","","","",""
"html-keyboard-response","92","153705","0.0-9.0-0.4","60fd0845a9a6b47d7adfea22","64e77d7b61f440b60e28659d","64ec94ef3b09f5c1e435504b","null","null","<p style=""font-size: 60px; font-family: BACS"">aLNlkaQr</p>","","","","","","","","","",""
"html-keyboard-response","93","154709","0.0-9.0-0.5","60fd0845a9a6b47d7adfea22","64e77d7b61f440b60e28659d","64ec94ef3b09f5c1e435504b","null","null","<p style=""font-size: 60px; font-family: BACS"">GZJYukbY</p>","","","","","","","","","",""
"html-keyboard-response","94","155724","0.0-9.0-0.6","60fd0845a9a6b47d7adfea22","64e77d7b61f440b60e28659d","64ec94ef3b09f5c1e435504b","null","null","<p style=""font-size: 60px; font-family: BACS"">UdYUQZvkL</p>","","","","","","","","","",""
"html-keyboard-response","95","156739","0.0-9.0-0.7","60fd0845a9a6b47d7adfea22","64e77d7b61f440b60e28659d","64ec94ef3b09f5c1e435504b","null","null","<p style=""font-size: 60px; font-family: BACS"">DhMtPTl</p>","","","","","","","","","",""
"html-keyboard-response","96","157744","0.0-9.0-0.8","60fd0845a9a6b47d7adfea22","64e77d7b61f440b60e28659d","64ec94ef3b09f5c1e435504b","null","null","<p style=""font-size: 60px; font-family: BACS"">GZJYrZYd</p>","","","","","","","","","",""
"html-keyboard-response","97","158753","0.0-9.0-0.9","60fd0845a9a6b47d7adfea22","64e77d7b61f440b60e28659d","64ec94ef3b09f5c1e435504b","null","null","<p style=""font-size: 60px; font-family: BACS"">tcYbdMAB</p>","","","","","","","","","",""
"html-keyboard-response","98","159757","0.0-9.0-0.10","60fd0845a9a6b47d7adfea22","64e77d7b61f440b60e28659d","64ec94ef3b09f5c1e435504b","null","null","<p style=""font-size: 60px; font-family: BACS"">aLNlkrZYd</p>","","","","","","","","","",""
"html-keyboard-response","99","160772","0.0-9.0-0.11","60fd0845a9a6b47d7adfea22","64e77d7b61f440b60e28659d","64ec94ef3b09f5c1e435504b","null","null","<p style=""font-size: 60px; font-family: BACS"">tcYbdPEdK</p>","","","","","","","","","",""
"html-keyboard-response","100","161786","0.0-9.0-0.12","60fd0845a9a6b47d7adfea22","64e77d7b61f440b60e28659d","64ec94ef3b09f5c1e435504b","null","null","<p style=""font-size: 60px; font-family: BACS"">cRElDPTl</p>","","","","","","","","","",""
"html-keyboard-response","101","162789","0.0-9.0-0.13","60fd0845a9a6b47d7adfea22","64e77d7b61f440b60e28659d","64ec94ef3b09f5c1e435504b","null","null","<p style=""font-size: 60px; font-family: BACS"">GZJYZvkL</p>","","","","","","","","","",""
"html-keyboard-response","102","163805","0.0-9.0-0.14","60fd0845a9a6b47d7adfea22","64e77d7b61f440b60e28659d","64ec94ef3b09f5c1e435504b","null","null","<p style=""font-size: 60px; font-family: BACS"">hbkdPTl</p>","","","","","","","","","",""
"html-keyboard-response","103","164823","0.0-9.0-0.15","60fd0845a9a6b47d7adfea22","64e77d7b61f440b60e28659d","64ec94ef3b09f5c1e435504b","null","null","<p style=""font-size: 60px; font-family: BACS"">LNUrJaQr</p>","","","","","","","","","",""
"html-keyboard-response","104","165840","0.0-9.0-0.16","60fd0845a9a6b47d7adfea22","64e77d7b61f440b60e28659d","64ec94ef3b09f5c1e435504b","null","null","<p style=""font-size: 60px; font-family: BACS"">DRPkYMAB</p>","","","","","","","","","",""
"html-keyboard-response","105","166857","0.0-9.0-0.17","60fd0845a9a6b47d7adfea22","64e77d7b61f440b60e28659d","64ec94ef3b09f5c1e435504b","null","null","<p style=""font-size: 60px; font-family: BACS"">DhMtPEdK</p>","","","","","","","","","",""
"html-keyboard-response","106","167873","0.0-9.0-0.18","60fd0845a9a6b47d7adfea22","64e77d7b61f440b60e28659d","64ec94ef3b09f5c1e435504b","null","null","<p style=""font-size: 60px; font-family: BACS"">hbkdlRE</p>","","","","","","","","","",""
"html-keyboard-response","107","168885","0.0-9.0-0.19","60fd0845a9a6b47d7adfea22","64e77d7b61f440b60e28659d","64ec94ef3b09f5c1e435504b","null","null","<p style=""font-size: 60px; font-family: BACS"">cRElDRYlD</p>","","","","","","","","","",""
"html-keyboard-response","108","169888","0.0-9.0-0.20","60fd0845a9a6b47d7adfea22","64e77d7b61f440b60e28659d","64ec94ef3b09f5c1e435504b","null","null","<p style=""font-size: 60px; font-family: BACS"">UdYUQukbY</p>","","","","","","","","","",""
"html-keyboard-response","109","170903","0.0-9.0-0.21","60fd0845a9a6b47d7adfea22","64e77d7b61f440b60e28659d","64ec94ef3b09f5c1e435504b","null","null","<p style=""font-size: 60px; font-family: BACS"">NaJbrZYd</p>","","","","","","","","","",""
"html-keyboard-response","110","171912","0.0-9.0-0.22","60fd0845a9a6b47d7adfea22","64e77d7b61f440b60e28659d","64ec94ef3b09f5c1e435504b","null","null","<p style=""font-size: 60px; font-family: BACS"">DhMtRYlD</p>","","","","","","","","","",""
"html-keyboard-response","111","172927","0.0-9.0-0.23","60fd0845a9a6b47d7adfea22","64e77d7b61f440b60e28659d","64ec94ef3b09f5c1e435504b","null","null","<p style=""font-size: 60px; font-family: BACS"">NbmQUukbY</p>","","","","","","","","","",""
"html-keyboard-response","112","173929","0.0-9.0-0.24","60fd0845a9a6b47d7adfea22","64e77d7b61f440b60e28659d","64ec94ef3b09f5c1e435504b","null","null","<p style=""font-size: 60px; font-family: BACS"">hbkdMAB</p>","","","","","","","","","",""
"html-keyboard-response","113","174944","0.0-9.0-0.25","60fd0845a9a6b47d7adfea22","64e77d7b61f440b60e28659d","64ec94ef3b09f5c1e435504b","null","null","<p style=""font-size: 60px; font-family: BACS"">kPkRAPEdK</p>","","","","","","","","","",""
"html-keyboard-response","114","175954","0.0-9.0-0.26","60fd0845a9a6b47d7adfea22","64e77d7b61f440b60e28659d","64ec94ef3b09f5c1e435504b","null","null","<p style=""font-size: 60px; font-family: BACS"">QLrOJrZYd</p>","","","","","","","","","",""
"html-keyboard-response","115","176969","0.0-9.0-0.27","60fd0845a9a6b47d7adfea22","64e77d7b61f440b60e28659d","64ec94ef3b09f5c1e435504b","null","null","<p style=""font-size: 60px; font-family: BACS"">cRElDlRE</p>","","","","","","","","","",""
"html-keyboard-response","116","177973","0.0-9.0-0.28","60fd0845a9a6b47d7adfea22","64e77d7b61f440b60e28659d","64ec94ef3b09f5c1e435504b","null","null","<p style=""font-size: 60px; font-family: BACS"">aLNlkZvkL</p>","","","","","","","","","",""
"html-keyboard-response","117","178976","0.0-9.0-0.29","60fd0845a9a6b47d7adfea22","64e77d7b61f440b60e28659d","64ec94ef3b09f5c1e435504b","null","null","<p style=""font-size: 60px; font-family: BACS"">UdYUQaQr</p>","","","","","","","","","",""
"html-keyboard-response","118","179977","0.0-9.0-0.30","60fd0845a9a6b47d7adfea22","64e77d7b61f440b60e28659d","64ec94ef3b09f5c1e435504b","null","null","<p style=""font-size: 60px; font-family: BACS"">LNUrJukbY</p>","","","","","","","","","",""
"html-keyboard-response","119","180989","0.0-9.0-0.31","60fd0845a9a6b47d7adfea22","64e77d7b61f440b60e28659d","64ec94ef3b09f5c1e435504b","null","null","<p style=""font-size: 60px; font-family: BACS"">NaJbaQr</p>","","","","","","","","","",""
"html-keyboard-response","120","181994","0.0-9.0-0.32","60fd0845a9a6b47d7adfea22","64e77d7b61f440b60e28659d","64ec94ef3b09f5c1e435504b","null","null","<p style=""font-size: 60px; font-family: BACS"">PEtERYlD</p>","","","","","","","","","",""
"html-keyboard-response","121","182998","0.0-9.0-0.33","60fd0845a9a6b47d7adfea22","64e77d7b61f440b60e28659d","64ec94ef3b09f5c1e435504b","null","null","<p style=""font-size: 60px; font-family: BACS"">UdYUQAld</p>","","","","","","","","","",""
"html-keyboard-response","122","184010","0.0-9.0-0.34","60fd0845a9a6b47d7adfea22","64e77d7b61f440b60e28659d","64ec94ef3b09f5c1e435504b","null","null","<p style=""font-size: 60px; font-family: BACS"">dGLAlrZYd</p>","","","","","","","","","",""
"html-keyboard-response","123","185024","0.0-9.0-0.35","60fd0845a9a6b47d7adfea22","64e77d7b61f440b60e28659d","64ec94ef3b09f5c1e435504b","null","null","<p style=""font-size: 60px; font-family: BACS"">NbmQUAld</p>","","","","","","","","","",""
"html-keyboard-response","124","186033","0.0-9.0-0.36","60fd0845a9a6b47d7adfea22","64e77d7b61f440b60e28659d","64ec94ef3b09f5c1e435504b","null","null","<p style=""font-size: 60px; font-family: BACS"">BdtACMAB</p>","","","","","","","","","",""
"html-keyboard-response","125","187034","0.0-9.0-0.37","60fd0845a9a6b47d7adfea22","64e77d7b61f440b60e28659d","64ec94ef3b09f5c1e435504b","null","null","<p style=""font-size: 60px; font-family: BACS"">QLrOJZvkL</p>","","","","","","","","","",""
"html-keyboard-response","126","188043","0.0-9.0-0.38","60fd0845a9a6b47d7adfea22","64e77d7b61f440b60e28659d","64ec94ef3b09f5c1e435504b","null","null","<p style=""font-size: 60px; font-family: BACS"">BdtACPTl</p>","","","","","","","","","",""
"html-keyboard-response","127","189061","0.0-9.0-0.39","60fd0845a9a6b47d7adfea22","64e77d7b61f440b60e28659d","64ec94ef3b09f5c1e435504b","null","null","<p style=""font-size: 60px; font-family: BACS"">mUOcOZvkL</p>","","","","","","","","","",""
"html-keyboard-response","128","190069","0.0-9.0-0.40","60fd0845a9a6b47d7adfea22","64e77d7b61f440b60e28659d","64ec94ef3b09f5c1e435504b","null","null","<p style=""font-size: 60px; font-family: BACS"">LcNUJrZYd</p>","","","","","","","","","",""
"html-keyboard-response","129","191079","0.0-9.0-0.41","60fd0845a9a6b47d7adfea22","64e77d7b61f440b60e28659d","64ec94ef3b09f5c1e435504b","null","null","<p style=""font-size: 60px; font-family: BACS"">hbkdRYlD</p>","","","","","","","","","",""
"html-keyboard-response","130","192088","0.0-9.0-0.42","60fd0845a9a6b47d7adfea22","64e77d7b61f440b60e28659d","64ec94ef3b09f5c1e435504b","null","null","<p style=""font-size: 60px; font-family: BACS"">PEtEMAB</p>","","","","","","","","","",""
"html-keyboard-response","131","193089","0.0-9.0-0.43","60fd0845a9a6b47d7adfea22","64e77d7b61f440b60e28659d","64ec94ef3b09f5c1e435504b","null","null","<p style=""font-size: 60px; font-family: BACS"">DRPkYPTl</p>","","","","","","","","","",""
"html-keyboard-response","132","194094","0.0-9.0-0.44","60fd0845a9a6b47d7adfea22","64e77d7b61f440b60e28659d","64ec94ef3b09f5c1e435504b","null","null","<p style=""font-size: 60px; font-family: BACS"">bROClRE</p>","","","","","","","","","",""
"html-keyboard-response","133","195110","0.0-9.0-0.45","60fd0845a9a6b47d7adfea22","64e77d7b61f440b60e28659d","64ec94ef3b09f5c1e435504b","null","null","<p style=""font-size: 60px; font-family: BACS"">dGLAlaQr</p>","","","","","","","","","",""
"html-keyboard-response","134","196125","0.0-9.0-0.46","60fd0845a9a6b47d7adfea22","64e77d7b61f440b60e28659d","64ec94ef3b09f5c1e435504b","null","null","<p style=""font-size: 60px; font-family: BACS"">BdtAClRE</p>","","","","","","","","","",""
"html-keyboard-response","135","197137","0.0-9.0-0.47","60fd0845a9a6b47d7adfea22","64e77d7b61f440b60e28659d","64ec94ef3b09f5c1e435504b","null","null","<p style=""font-size: 60px; font-family: BACS"">DRPkYPEdK</p>","","","","","","","","","",""
"html-keyboard-response","136","198145","0.0-9.0-0.48","60fd0845a9a6b47d7adfea22","64e77d7b61f440b60e28659d","64ec94ef3b09f5c1e435504b","null","null","<p style=""font-size: 60px; font-family: BACS"">kPkRARYlD</p>","","","","","","","","","",""
"html-keyboard-response","137","199154","0.0-9.0-0.49","60fd0845a9a6b47d7adfea22","64e77d7b61f440b60e28659d","64ec94ef3b09f5c1e435504b","null","null","<p style=""font-size: 60px; font-family: BACS"">DhMtlRE</p>","","","","","","","","","",""
"html-keyboard-response","138","200172","0.0-9.0-0.50","60fd0845a9a6b47d7adfea22","64e77d7b61f440b60e28659d","64ec94ef3b09f5c1e435504b","null","null","<p style=""font-size: 60px; font-family: BACS"">GZJYAld</p>","","","","","","","","","",""
"html-keyboard-response","139","201188","0.0-9.0-0.51","60fd0845a9a6b47d7adfea22","64e77d7b61f440b60e28659d","64ec94ef3b09f5c1e435504b","null","null","<p style=""font-size: 60px; font-family: BACS"">PEtElRE</p>","","","","","","","","","",""
"html-keyboard-response","140","202195","0.0-9.0-0.52","60fd0845a9a6b47d7adfea22","64e77d7b61f440b60e28659d","64ec94ef3b09f5c1e435504b","null","null","<p style=""font-size: 60px; font-family: BACS"">mUOcOaQr</p>","","","","","","","","","",""
"html-keyboard-response","141","203204","0.0-9.0-0.53","60fd0845a9a6b47d7adfea22","64e77d7b61f440b60e28659d","64ec94ef3b09f5c1e435504b","null","null","<p style=""font-size: 60px; font-family: BACS"">BdtACPEdK</p>","","","","","","","","","",""
"html-keyboard-response","142","204207","0.0-9.0-0.54","60fd0845a9a6b47d7adfea22","64e77d7b61f440b60e28659d","64ec94ef3b09f5c1e435504b","null","null","<p style=""font-size: 60px; font-family: BACS"">LcNUJAld</p>","","","","","","","","","",""
"html-keyboard-response","143","205209","0.0-9.0-0.55","60fd0845a9a6b47d7adfea22","64e77d7b61f440b60e28659d","64ec94ef3b09f5c1e435504b","null","null","<p style=""font-size: 60px; font-family: BACS"">PEtEPEdK</p>","","","","","","","","","",""
"html-keyboard-response","144","206227","0.0-9.0-0.56","60fd0845a9a6b47d7adfea22","64e77d7b61f440b60e28659d","64ec94ef3b09f5c1e435504b","null","null","<p style=""font-size: 60px; font-family: BACS"">mUOcOukbY</p>","","","","","","","","","",""
"html-keyboard-response","145","207244","0.0-9.0-0.57","60fd0845a9a6b47d7adfea22","64e77d7b61f440b60e28659d","64ec94ef3b09f5c1e435504b","null","null","<p style=""font-size: 60px; font-family: BACS"">dGLAlAld</p>","","","","","","","","","",""
"html-keyboard-response","146","208255","0.0-9.0-0.58","60fd0845a9a6b47d7adfea22","64e77d7b61f440b60e28659d","64ec94ef3b09f5c1e435504b","null","null","<p style=""font-size: 60px; font-family: BACS"">LcNUJZvkL</p>","","","","","","","","","",""
"html-keyboard-response","147","209257","0.0-9.0-0.59","60fd0845a9a6b47d7adfea22","64e77d7b61f440b60e28659d","64ec94ef3b09f5c1e435504b","null","null","<p style=""font-size: 60px; font-family: BACS"">TObCOPEdK</p>","","","","","","","","","",""
"html-keyboard-response","148","210272","0.0-9.0-0.60","60fd0845a9a6b47d7adfea22","64e77d7b61f440b60e28659d","64ec94ef3b09f5c1e435504b","null","null","<p style=""font-size: 60px; font-family: BACS"">mUOcOAld</p>","","","","","","","","","",""
"html-keyboard-response","149","211287","0.0-9.0-0.61","60fd0845a9a6b47d7adfea22","64e77d7b61f440b60e28659d","64ec94ef3b09f5c1e435504b","null","null","<p style=""font-size: 60px; font-family: BACS"">QLrOJaQr</p>","","","","","","","","","",""
"html-keyboard-response","150","212294","0.0-9.0-0.62","60fd0845a9a6b47d7adfea22","64e77d7b61f440b60e28659d","64ec94ef3b09f5c1e435504b","null","null","<p style=""font-size: 60px; font-family: BACS"">LNUrJAld</p>","","","","","","","","","",""
"html-keyboard-response","151","213297","0.0-9.0-0.63","60fd0845a9a6b47d7adfea22","64e77d7b61f440b60e28659d","64ec94ef3b09f5c1e435504b","null","null","<p style=""font-size: 60px; font-family: BACS"">kPkRAPTl</p>","","","","","","","","","",""
"html-keyboard-response","152","214305","0.0-9.0-0.64","60fd0845a9a6b47d7adfea22","64e77d7b61f440b60e28659d","64ec94ef3b09f5c1e435504b","null","null","<p style=""font-size: 60px; font-family: BACS"">DRPkYRYlD</p>","","","","","","","","","",""
"html-keyboard-response","153","215325","0.0-9.0-0.65","60fd0845a9a6b47d7adfea22","64e77d7b61f440b60e28659d","64ec94ef3b09f5c1e435504b","null","null","<p style=""font-size: 60px; font-family: BACS"">QLrOJukbY</p>","","","","","","","","","",""
"html-keyboard-response","154","216328","0.0-9.0-0.66","60fd0845a9a6b47d7adfea22","64e77d7b61f440b60e28659d","64ec94ef3b09f5c1e435504b","null","null","<p style=""font-size: 60px; font-family: BACS"">kPkRAMAB</p>","","","","","","","","","",""
"html-keyboard-response","155","217339","0.0-9.0-0.67","60fd0845a9a6b47d7adfea22","64e77d7b61f440b60e28659d","64ec94ef3b09f5c1e435504b","null","null","<p style=""font-size: 60px; font-family: BACS"">cRElDPEdK</p>","","","","","","","","","",""
"html-keyboard-response","156","218344","0.0-9.0-0.68","60fd0845a9a6b47d7adfea22","64e77d7b61f440b60e28659d","64ec94ef3b09f5c1e435504b","null","null","<p style=""font-size: 60px; font-family: BACS"">tcYbdlRE</p>","","","","","","","","","",""
"html-keyboard-response","157","219351","0.0-9.0-0.69","60fd0845a9a6b47d7adfea22","64e77d7b61f440b60e28659d","64ec94ef3b09f5c1e435504b","null","null","<p style=""font-size: 60px; font-family: BACS"">NbmQUZvkL</p>","","","","","","","","","",""
"html-keyboard-response","158","220358","0.0-9.0-0.70","60fd0845a9a6b47d7adfea22","64e77d7b61f440b60e28659d","64ec94ef3b09f5c1e435504b","null","null","<p style=""font-size: 60px; font-family: BACS"">NaJbukbY</p>","","","","","","","","","",""
"html-keyboard-response","159","221363","0.0-9.0-0.71","60fd0845a9a6b47d7adfea22","64e77d7b61f440b60e28659d","64ec94ef3b09f5c1e435504b","null","null","<p style=""font-size: 60px; font-family: BACS"">tcYbdPTl</p>","","","","","","","","","",""
"html-keyboard-response","160","222376","0.0-9.0-0.72","60fd0845a9a6b47d7adfea22","64e77d7b61f440b60e28659d","64ec94ef3b09f5c1e435504b","null","null","<p style=""font-size: 60px; font-family: BACS"">TObCOMAB</p>","","","","","","","","","",""
"html-keyboard-response","161","223386","0.0-9.0-0.73","60fd0845a9a6b47d7adfea22","64e77d7b61f440b60e28659d","64ec94ef3b09f5c1e435504b","null","null","<p style=""font-size: 60px; font-family: BACS"">bROCPTl</p>","","","","","","","","","",""
"html-keyboard-response","162","224395","0.0-9.0-0.74","60fd0845a9a6b47d7adfea22","64e77d7b61f440b60e28659d","64ec94ef3b09f5c1e435504b","null","null","<p style=""font-size: 60px; font-family: BACS"">NaJbZvkL</p>","","","","","","","","","",""
"html-keyboard-response","163","225408","0.0-9.0-0.75","60fd0845a9a6b47d7adfea22","64e77d7b61f440b60e28659d","64ec94ef3b09f5c1e435504b","null","null","<p style=""font-size: 60px; font-family: BACS"">dGLAlukbY</p>","","","","","","","","","",""
"html-keyboard-response","164","226411","0.0-9.0-0.76","60fd0845a9a6b47d7adfea22","64e77d7b61f440b60e28659d","64ec94ef3b09f5c1e435504b","null","null","<p style=""font-size: 60px; font-family: BACS"">bROCRYlD</p>","","","","","","","","","",""
"html-keyboard-response","165","227427","0.0-9.0-0.77","60fd0845a9a6b47d7adfea22","64e77d7b61f440b60e28659d","64ec94ef3b09f5c1e435504b","null","null","<p style=""font-size: 60px; font-family: BACS"">aLNlkAld</p>","","","","","","","","","",""
"html-keyboard-response","166","228438","0.0-9.0-0.78","60fd0845a9a6b47d7adfea22","64e77d7b61f440b60e28659d","64ec94ef3b09f5c1e435504b","null","null","<p style=""font-size: 60px; font-family: BACS"">TObCORYlD</p>","","","","","","","","","",""
"html-keyboard-response","167","229442","0.0-9.0-0.79","60fd0845a9a6b47d7adfea22","64e77d7b61f440b60e28659d","64ec94ef3b09f5c1e435504b","null","null","<p style=""font-size: 60px; font-family: BACS"">bROCMAB</p>","","","","","","","","","",""
"html-keyboard-response","168","234266","0.0-10.0","60fd0845a9a6b47d7adfea22","64e77d7b61f440b60e28659d","64ec94ef3b09f5c1e435504b","4822"," ","<p>Great, you've seen the second block of words. You may now take a short break.</p>
      <p>Press the spacebar when you're ready to continue.</p>","","","","","","","","","",""
"html-keyboard-response","169","235274","0.0-11.0-0.0","60fd0845a9a6b47d7adfea22","64e77d7b61f440b60e28659d","64ec94ef3b09f5c1e435504b","null","null","<p style=""font-size: 60px; font-family: BACS"">NbmQUAld</p>","","","","","","","","","",""
"html-keyboard-response","170","236289","0.0-11.0-0.1","60fd0845a9a6b47d7adfea22","64e77d7b61f440b60e28659d","64ec94ef3b09f5c1e435504b","null","null","<p style=""font-size: 60px; font-family: BACS"">DhMtlRE</p>","","","","","","","","","",""
"html-keyboard-response","171","237303","0.0-11.0-0.2","60fd0845a9a6b47d7adfea22","64e77d7b61f440b60e28659d","64ec94ef3b09f5c1e435504b","null","null","<p style=""font-size: 60px; font-family: BACS"">LNUrJaQr</p>","","","","","","","","","",""
"html-keyboard-response","172","238319","0.0-11.0-0.3","60fd0845a9a6b47d7adfea22","64e77d7b61f440b60e28659d","64ec94ef3b09f5c1e435504b","null","null","<p style=""font-size: 60px; font-family: BACS"">dGLAlAld</p>","","","","","","","","","",""
"html-keyboard-response","173","239335","0.0-11.0-0.4","60fd0845a9a6b47d7adfea22","64e77d7b61f440b60e28659d","64ec94ef3b09f5c1e435504b","null","null","<p style=""font-size: 60px; font-family: BACS"">LNUrJukbY</p>","","","","","","","","","",""
"html-keyboard-response","174","240351","0.0-11.0-0.5","60fd0845a9a6b47d7adfea22","64e77d7b61f440b60e28659d","64ec94ef3b09f5c1e435504b","null","null","<p style=""font-size: 60px; font-family: BACS"">TObCOPEdK</p>","","","","","","","","","",""
"html-keyboard-response","175","241361","0.0-11.0-0.6","60fd0845a9a6b47d7adfea22","64e77d7b61f440b60e28659d","64ec94ef3b09f5c1e435504b","null","null","<p style=""font-size: 60px; font-family: BACS"">DRPkYMAB</p>","","","","","","","","","",""
"html-keyboard-response","176","242371","0.0-11.0-0.7","60fd0845a9a6b47d7adfea22","64e77d7b61f440b60e28659d","64ec94ef3b09f5c1e435504b","null","null","<p style=""font-size: 60px; font-family: BACS"">bROClRE</p>","","","","","","","","","",""
"html-keyboard-response","177","243387","0.0-11.0-0.8","60fd0845a9a6b47d7adfea22","64e77d7b61f440b60e28659d","64ec94ef3b09f5c1e435504b","null","null","<p style=""font-size: 60px; font-family: BACS"">LcNUJrZYd</p>","","","","","","","","","",""
"html-keyboard-response","178","244390","0.0-11.0-0.9","60fd0845a9a6b47d7adfea22","64e77d7b61f440b60e28659d","64ec94ef3b09f5c1e435504b","null","null","<p style=""font-size: 60px; font-family: BACS"">kPkRAPTl</p>","","","","","","","","","",""
"html-keyboard-response","179","245405","0.0-11.0-0.10","60fd0845a9a6b47d7adfea22","64e77d7b61f440b60e28659d","64ec94ef3b09f5c1e435504b","null","null","<p style=""font-size: 60px; font-family: BACS"">tcYbdPEdK</p>","","","","","","","","","",""
"html-keyboard-response","180","246411","0.0-11.0-0.11","60fd0845a9a6b47d7adfea22","64e77d7b61f440b60e28659d","64ec94ef3b09f5c1e435504b","null","null","<p style=""font-size: 60px; font-family: BACS"">QLrOJZvkL</p>","","","","","","","","","",""
"html-keyboard-response","181","247422","0.0-11.0-0.12","60fd0845a9a6b47d7adfea22","64e77d7b61f440b60e28659d","64ec94ef3b09f5c1e435504b","null","null","<p style=""font-size: 60px; font-family: BACS"">bROCMAB</p>","","","","","","","","","",""
"html-keyboard-response","182","248438","0.0-11.0-0.13","60fd0845a9a6b47d7adfea22","64e77d7b61f440b60e28659d","64ec94ef3b09f5c1e435504b","null","null","<p style=""font-size: 60px; font-family: BACS"">cRElDRYlD</p>","","","","","","","","","",""
"html-keyboard-response","183","249445","0.0-11.0-0.14","60fd0845a9a6b47d7adfea22","64e77d7b61f440b60e28659d","64ec94ef3b09f5c1e435504b","null","null","<p style=""font-size: 60px; font-family: BACS"">BdtACPEdK</p>","","","","","","","","","",""
"html-keyboard-response","184","250454","0.0-11.0-0.15","60fd0845a9a6b47d7adfea22","64e77d7b61f440b60e28659d","64ec94ef3b09f5c1e435504b","null","null","<p style=""font-size: 60px; font-family: BACS"">hbkdMAB</p>","","","","","","","","","",""
"html-keyboard-response","185","251457","0.0-11.0-0.16","60fd0845a9a6b47d7adfea22","64e77d7b61f440b60e28659d","64ec94ef3b09f5c1e435504b","null","null","<p style=""font-size: 60px; font-family: BACS"">aLNlkrZYd</p>","","","","","","","","","",""
"html-keyboard-response","186","252461","0.0-11.0-0.17","60fd0845a9a6b47d7adfea22","64e77d7b61f440b60e28659d","64ec94ef3b09f5c1e435504b","null","null","<p style=""font-size: 60px; font-family: BACS"">GZJYukbY</p>","","","","","","","","","",""
"html-keyboard-response","187","253477","0.0-11.0-0.18","60fd0845a9a6b47d7adfea22","64e77d7b61f440b60e28659d","64ec94ef3b09f5c1e435504b","null","null","<p style=""font-size: 60px; font-family: BACS"">cRElDlRE</p>","","","","","","","","","",""
"html-keyboard-response","188","254487","0.0-11.0-0.19","60fd0845a9a6b47d7adfea22","64e77d7b61f440b60e28659d","64ec94ef3b09f5c1e435504b","null","null","<p style=""font-size: 60px; font-family: BACS"">LNUrJrZYd</p>","","","","","","","","","",""
"html-keyboard-response","189","255502","0.0-11.0-0.20","60fd0845a9a6b47d7adfea22","64e77d7b61f440b60e28659d","64ec94ef3b09f5c1e435504b","null","null","<p style=""font-size: 60px; font-family: BACS"">PEtEPEdK</p>","","","","","","","","","",""
"html-keyboard-response","190","256506","0.0-11.0-0.21","60fd0845a9a6b47d7adfea22","64e77d7b61f440b60e28659d","64ec94ef3b09f5c1e435504b","null","null","<p style=""font-size: 60px; font-family: BACS"">NaJbZvkL</p>","","","","","","","","","",""
"html-keyboard-response","191","257522","0.0-11.0-0.22","60fd0845a9a6b47d7adfea22","64e77d7b61f440b60e28659d","64ec94ef3b09f5c1e435504b","null","null","<p style=""font-size: 60px; font-family: BACS"">LcNUJAld</p>","","","","","","","","","",""
"html-keyboard-response","192","258528","0.0-11.0-0.23","60fd0845a9a6b47d7adfea22","64e77d7b61f440b60e28659d","64ec94ef3b09f5c1e435504b","null","null","<p style=""font-size: 60px; font-family: BACS"">QLrOJukbY</p>","","","","","","","","","",""
"html-keyboard-response","193","259539","0.0-11.0-0.24","60fd0845a9a6b47d7adfea22","64e77d7b61f440b60e28659d","64ec94ef3b09f5c1e435504b","null","null","<p style=""font-size: 60px; font-family: BACS"">hbkdlRE</p>","","","","","","","","","",""
"html-keyboard-response","194","260552","0.0-11.0-0.25","60fd0845a9a6b47d7adfea22","64e77d7b61f440b60e28659d","64ec94ef3b09f5c1e435504b","null","null","<p style=""font-size: 60px; font-family: BACS"">QLrOJrZYd</p>","","","","","","","","","",""
"html-keyboard-response","195","261562","0.0-11.0-0.26","60fd0845a9a6b47d7adfea22","64e77d7b61f440b60e28659d","64ec94ef3b09f5c1e435504b","null","null","<p style=""font-size: 60px; font-family: BACS"">DRPkYRYlD</p>","","","","","","","","","",""
"html-keyboard-response","196","262573","0.0-11.0-0.27","60fd0845a9a6b47d7adfea22","64e77d7b61f440b60e28659d","64ec94ef3b09f5c1e435504b","null","null","<p style=""font-size: 60px; font-family: BACS"">LNUrJAld</p>","","","","","","","","","",""
"html-keyboard-response","197","263588","0.0-11.0-0.28","60fd0845a9a6b47d7adfea22","64e77d7b61f440b60e28659d","64ec94ef3b09f5c1e435504b","null","null","<p style=""font-size: 60px; font-family: BACS"">kPkRAPEdK</p>","","","","","","","","","",""
"html-keyboard-response","198","264604","0.0-11.0-0.29","60fd0845a9a6b47d7adfea22","64e77d7b61f440b60e28659d","64ec94ef3b09f5c1e435504b","null","null","<p style=""font-size: 60px; font-family: BACS"">TObCOMAB</p>","","","","","","","","","",""
"html-keyboard-response","199","265607","0.0-11.0-0.30","60fd0845a9a6b47d7adfea22","64e77d7b61f440b60e28659d","64ec94ef3b09f5c1e435504b","null","null","<p style=""font-size: 60px; font-family: BACS"">GZJYZvkL</p>","","","","","","","","","",""
"html-keyboard-response","200","266611","0.0-11.0-0.31","60fd0845a9a6b47d7adfea22","64e77d7b61f440b60e28659d","64ec94ef3b09f5c1e435504b","null","null","<p style=""font-size: 60px; font-family: BACS"">mUOcOAld</p>","","","","","","","","","",""
"html-keyboard-response","201","267622","0.0-11.0-0.32","60fd0845a9a6b47d7adfea22","64e77d7b61f440b60e28659d","64ec94ef3b09f5c1e435504b","null","null","<p style=""font-size: 60px; font-family: BACS"">tcYbdlRE</p>","","","","","","","","","",""
"html-keyboard-response","202","268639","0.0-11.0-0.33","60fd0845a9a6b47d7adfea22","64e77d7b61f440b60e28659d","64ec94ef3b09f5c1e435504b","null","null","<p style=""font-size: 60px; font-family: BACS"">mUOcOaQr</p>","","","","","","","","","",""
"html-keyboard-response","203","269653","0.0-11.0-0.34","60fd0845a9a6b47d7adfea22","64e77d7b61f440b60e28659d","64ec94ef3b09f5c1e435504b","null","null","<p style=""font-size: 60px; font-family: BACS"">tcYbdMAB</p>","","","","","","","","","",""
"html-keyboard-response","204","270657","0.0-11.0-0.35","60fd0845a9a6b47d7adfea22","64e77d7b61f440b60e28659d","64ec94ef3b09f5c1e435504b","null","null","<p style=""font-size: 60px; font-family: BACS"">DhMtPTl</p>","","","","","","","","","",""
"html-keyboard-response","205","271672","0.0-11.0-0.36","60fd0845a9a6b47d7adfea22","64e77d7b61f440b60e28659d","64ec94ef3b09f5c1e435504b","null","null","<p style=""font-size: 60px; font-family: BACS"">NaJbaQr</p>","","","","","","","","","",""
"html-keyboard-response","206","272681","0.0-11.0-0.37","60fd0845a9a6b47d7adfea22","64e77d7b61f440b60e28659d","64ec94ef3b09f5c1e435504b","null","null","<p style=""font-size: 60px; font-family: BACS"">bROCPTl</p>","","","","","","","","","",""
"html-keyboard-response","207","273683","0.0-11.0-0.38","60fd0845a9a6b47d7adfea22","64e77d7b61f440b60e28659d","64ec94ef3b09f5c1e435504b","null","null","<p style=""font-size: 60px; font-family: BACS"">kPkRARYlD</p>","","","","","","","","","",""
"html-keyboard-response","208","274699","0.0-11.0-0.39","60fd0845a9a6b47d7adfea22","64e77d7b61f440b60e28659d","64ec94ef3b09f5c1e435504b","null","null","<p style=""font-size: 60px; font-family: BACS"">UdYUQZvkL</p>","","","","","","","","","",""
"html-keyboard-response","209","275710","0.0-11.0-0.40","60fd0845a9a6b47d7adfea22","64e77d7b61f440b60e28659d","64ec94ef3b09f5c1e435504b","null","null","<p style=""font-size: 60px; font-family: BACS"">hbkdRYlD</p>","","","","","","","","","",""
"html-keyboard-response","210","276726","0.0-11.0-0.41","60fd0845a9a6b47d7adfea22","64e77d7b61f440b60e28659d","64ec94ef3b09f5c1e435504b","null","null","<p style=""font-size: 60px; font-family: BACS"">GZJYAld</p>","","","","","","","","","",""
"html-keyboard-response","211","277741","0.0-11.0-0.42","60fd0845a9a6b47d7adfea22","64e77d7b61f440b60e28659d","64ec94ef3b09f5c1e435504b","null","null","<p style=""font-size: 60px; font-family: BACS"">LcNUJZvkL</p>","","","","","","","","","",""
"html-keyboard-response","212","278753","0.0-11.0-0.43","60fd0845a9a6b47d7adfea22","64e77d7b61f440b60e28659d","64ec94ef3b09f5c1e435504b","null","null","<p style=""font-size: 60px; font-family: BACS"">BdtACPTl</p>","","","","","","","","","",""
"html-keyboard-response","213","279761","0.0-11.0-0.44","60fd0845a9a6b47d7adfea22","64e77d7b61f440b60e28659d","64ec94ef3b09f5c1e435504b","null","null","<p style=""font-size: 60px; font-family: BACS"">cRElDPEdK</p>","","","","","","","","","",""
"html-keyboard-response","214","280774","0.0-11.0-0.45","60fd0845a9a6b47d7adfea22","64e77d7b61f440b60e28659d","64ec94ef3b09f5c1e435504b","null","null","<p style=""font-size: 60px; font-family: BACS"">QLrOJaQr</p>","","","","","","","","","",""
"html-keyboard-response","215","281788","0.0-11.0-0.46","60fd0845a9a6b47d7adfea22","64e77d7b61f440b60e28659d","64ec94ef3b09f5c1e435504b","null","null","<p style=""font-size: 60px; font-family: BACS"">aLNlkAld</p>","","","","","","","","","",""
"html-keyboard-response","216","282796","0.0-11.0-0.47","60fd0845a9a6b47d7adfea22","64e77d7b61f440b60e28659d","64ec94ef3b09f5c1e435504b","null","null","<p style=""font-size: 60px; font-family: BACS"">kPkRAMAB</p>","","","","","","","","","",""
"html-keyboard-response","217","283805","0.0-11.0-0.48","60fd0845a9a6b47d7adfea22","64e77d7b61f440b60e28659d","64ec94ef3b09f5c1e435504b","null","null","<p style=""font-size: 60px; font-family: BACS"">UdYUQukbY</p>","","","","","","","","","",""
"html-keyboard-response","218","284820","0.0-11.0-0.49","60fd0845a9a6b47d7adfea22","64e77d7b61f440b60e28659d","64ec94ef3b09f5c1e435504b","null","null","<p style=""font-size: 60px; font-family: BACS"">TObCOlRE</p>","","","","","","","","","",""
"html-keyboard-response","219","285828","0.0-11.0-0.50","60fd0845a9a6b47d7adfea22","64e77d7b61f440b60e28659d","64ec94ef3b09f5c1e435504b","null","null","<p style=""font-size: 60px; font-family: BACS"">NaJbukbY</p>","","","","","","","","","",""
"html-keyboard-response","220","286845","0.0-11.0-0.51","60fd0845a9a6b47d7adfea22","64e77d7b61f440b60e28659d","64ec94ef3b09f5c1e435504b","null","null","<p style=""font-size: 60px; font-family: BACS"">DhMtPEdK</p>","","","","","","","","","",""
"html-keyboard-response","221","287860","0.0-11.0-0.52","60fd0845a9a6b47d7adfea22","64e77d7b61f440b60e28659d","64ec94ef3b09f5c1e435504b","null","null","<p style=""font-size: 60px; font-family: BACS"">NbmQUZvkL</p>","","","","","","","","","",""
"html-keyboard-response","222","288862","0.0-11.0-0.53","60fd0845a9a6b47d7adfea22","64e77d7b61f440b60e28659d","64ec94ef3b09f5c1e435504b","null","null","<p style=""font-size: 60px; font-family: BACS"">hbkdPTl</p>","","","","","","","","","",""
"html-keyboard-response","223","289870","0.0-11.0-0.54","60fd0845a9a6b47d7adfea22","64e77d7b61f440b60e28659d","64ec94ef3b09f5c1e435504b","null","null","<p style=""font-size: 60px; font-family: BACS"">dGLAlaQr</p>","","","","","","","","","",""
"html-keyboard-response","224","290873","0.0-11.0-0.55","60fd0845a9a6b47d7adfea22","64e77d7b61f440b60e28659d","64ec94ef3b09f5c1e435504b","null","null","<p style=""font-size: 60px; font-family: BACS"">bROCRYlD</p>","","","","","","","","","",""
"html-keyboard-response","225","291888","0.0-11.0-0.56","60fd0845a9a6b47d7adfea22","64e77d7b61f440b60e28659d","64ec94ef3b09f5c1e435504b","null","null","<p style=""font-size: 60px; font-family: BACS"">mUOcOZvkL</p>","","","","","","","","","",""
"html-keyboard-response","226","292904","0.0-11.0-0.57","60fd0845a9a6b47d7adfea22","64e77d7b61f440b60e28659d","64ec94ef3b09f5c1e435504b","null","null","<p style=""font-size: 60px; font-family: BACS"">aLNlkaQr</p>","","","","","","","","","",""
"html-keyboard-response","227","293912","0.0-11.0-0.58","60fd0845a9a6b47d7adfea22","64e77d7b61f440b60e28659d","64ec94ef3b09f5c1e435504b","null","null","<p style=""font-size: 60px; font-family: BACS"">mUOcOukbY</p>","","","","","","","","","",""
"html-keyboard-response","228","294918","0.0-11.0-0.59","60fd0845a9a6b47d7adfea22","64e77d7b61f440b60e28659d","64ec94ef3b09f5c1e435504b","null","null","<p style=""font-size: 60px; font-family: BACS"">BdtAClRE</p>","","","","","","","","","",""
"html-keyboard-response","229","295926","0.0-11.0-0.60","60fd0845a9a6b47d7adfea22","64e77d7b61f440b60e28659d","64ec94ef3b09f5c1e435504b","null","null","<p style=""font-size: 60px; font-family: BACS"">UdYUQaQr</p>","","","","","","","","","",""
"html-keyboard-response","230","296936","0.0-11.0-0.61","60fd0845a9a6b47d7adfea22","64e77d7b61f440b60e28659d","64ec94ef3b09f5c1e435504b","null","null","<p style=""font-size: 60px; font-family: BACS"">BdtACMAB</p>","","","","","","","","","",""
"html-keyboard-response","231","297943","0.0-11.0-0.62","60fd0845a9a6b47d7adfea22","64e77d7b61f440b60e28659d","64ec94ef3b09f5c1e435504b","null","null","<p style=""font-size: 60px; font-family: BACS"">TObCORYlD</p>","","","","","","","","","",""
"html-keyboard-response","232","298951","0.0-11.0-0.63","60fd0845a9a6b47d7adfea22","64e77d7b61f440b60e28659d","64ec94ef3b09f5c1e435504b","null","null","<p style=""font-size: 60px; font-family: BACS"">NbmQUrZYd</p>","","","","","","","","","",""
"html-keyboard-response","233","299965","0.0-11.0-0.64","60fd0845a9a6b47d7adfea22","64e77d7b61f440b60e28659d","64ec94ef3b09f5c1e435504b","null","null","<p style=""font-size: 60px; font-family: BACS"">DRPkYPTl</p>","","","","","","","","","",""
"html-keyboard-response","234","300970","0.0-11.0-0.65","60fd0845a9a6b47d7adfea22","64e77d7b61f440b60e28659d","64ec94ef3b09f5c1e435504b","null","null","<p style=""font-size: 60px; font-family: BACS"">NbmQUukbY</p>","","","","","","","","","",""
"html-keyboard-response","235","301978","0.0-11.0-0.66","60fd0845a9a6b47d7adfea22","64e77d7b61f440b60e28659d","64ec94ef3b09f5c1e435504b","null","null","<p style=""font-size: 60px; font-family: BACS"">PEtERYlD</p>","","","","","","","","","",""
"html-keyboard-response","236","302988","0.0-11.0-0.67","60fd0845a9a6b47d7adfea22","64e77d7b61f440b60e28659d","64ec94ef3b09f5c1e435504b","null","null","<p style=""font-size: 60px; font-family: BACS"">cRElDPTl</p>","","","","","","","","","",""
"html-keyboard-response","237","304005","0.0-11.0-0.68","60fd0845a9a6b47d7adfea22","64e77d7b61f440b60e28659d","64ec94ef3b09f5c1e435504b","null","null","<p style=""font-size: 60px; font-family: BACS"">GZJYrZYd</p>","","","","","","","","","",""
"html-keyboard-response","238","305021","0.0-11.0-0.69","60fd0845a9a6b47d7adfea22","64e77d7b61f440b60e28659d","64ec94ef3b09f5c1e435504b","null","null","<p style=""font-size: 60px; font-family: BACS"">aLNlkZvkL</p>","","","","","","","","","",""
"html-keyboard-response","239","306028","0.0-11.0-0.70","60fd0845a9a6b47d7adfea22","64e77d7b61f440b60e28659d","64ec94ef3b09f5c1e435504b","null","null","<p style=""font-size: 60px; font-family: BACS"">UdYUQAld</p>","","","","","","","","","",""
"html-keyboard-response","240","307039","0.0-11.0-0.71","60fd0845a9a6b47d7adfea22","64e77d7b61f440b60e28659d","64ec94ef3b09f5c1e435504b","null","null","<p style=""font-size: 60px; font-family: BACS"">tcYbdPTl</p>","","","","","","","","","",""
"html-keyboard-response","241","308047","0.0-11.0-0.72","60fd0845a9a6b47d7adfea22","64e77d7b61f440b60e28659d","64ec94ef3b09f5c1e435504b","null","null","<p style=""font-size: 60px; font-family: BACS"">DhMtRYlD</p>","","","","","","","","","",""
"html-keyboard-response","242","309056","0.0-11.0-0.73","60fd0845a9a6b47d7adfea22","64e77d7b61f440b60e28659d","64ec94ef3b09f5c1e435504b","null","null","<p style=""font-size: 60px; font-family: BACS"">LcNUJaQr</p>","","","","","","","","","",""
"html-keyboard-response","243","310061","0.0-11.0-0.74","60fd0845a9a6b47d7adfea22","64e77d7b61f440b60e28659d","64ec94ef3b09f5c1e435504b","null","null","<p style=""font-size: 60px; font-family: BACS"">dGLAlukbY</p>","","","","","","","","","",""
"html-keyboard-response","244","311073","0.0-11.0-0.75","60fd0845a9a6b47d7adfea22","64e77d7b61f440b60e28659d","64ec94ef3b09f5c1e435504b","null","null","<p style=""font-size: 60px; font-family: BACS"">PEtElRE</p>","","","","","","","","","",""
"html-keyboard-response","245","312088","0.0-11.0-0.76","60fd0845a9a6b47d7adfea22","64e77d7b61f440b60e28659d","64ec94ef3b09f5c1e435504b","null","null","<p style=""font-size: 60px; font-family: BACS"">dGLAlrZYd</p>","","","","","","","","","",""
"html-keyboard-response","246","313095","0.0-11.0-0.77","60fd0845a9a6b47d7adfea22","64e77d7b61f440b60e28659d","64ec94ef3b09f5c1e435504b","null","null","<p style=""font-size: 60px; font-family: BACS"">PEtEMAB</p>","","","","","","","","","",""
"html-keyboard-response","247","314106","0.0-11.0-0.78","60fd0845a9a6b47d7adfea22","64e77d7b61f440b60e28659d","64ec94ef3b09f5c1e435504b","null","null","<p style=""font-size: 60px; font-family: BACS"">DRPkYPEdK</p>","","","","","","","","","",""
"html-keyboard-response","248","315122","0.0-11.0-0.79","60fd0845a9a6b47d7adfea22","64e77d7b61f440b60e28659d","64ec94ef3b09f5c1e435504b","null","null","<p style=""font-size: 60px; font-family: BACS"">NaJbrZYd</p>","","","","","","","","","",""
"html-keyboard-response","249","321074","0.0-12.0","60fd0845a9a6b47d7adfea22","64e77d7b61f440b60e28659d","64ec94ef3b09f5c1e435504b","5951"," ","<p>Great, you've seen the third block of words. You may now take a short break.</p>
      <p>Press the spacebar when you're ready to continue.</p>","","","","","","","","","",""
"html-keyboard-response","250","322090","0.0-13.0-0.0","60fd0845a9a6b47d7adfea22","64e77d7b61f440b60e28659d","64ec94ef3b09f5c1e435504b","null","null","<p style=""font-size: 60px; font-family: BACS"">NaJbrZYd</p>","","","","","","","","","",""
"html-keyboard-response","251","323104","0.0-13.0-0.1","60fd0845a9a6b47d7adfea22","64e77d7b61f440b60e28659d","64ec94ef3b09f5c1e435504b","null","null","<p style=""font-size: 60px; font-family: BACS"">LcNUJZvkL</p>","","","","","","","","","",""
"html-keyboard-response","252","324112","0.0-13.0-0.2","60fd0845a9a6b47d7adfea22","64e77d7b61f440b60e28659d","64ec94ef3b09f5c1e435504b","null","null","<p style=""font-size: 60px; font-family: BACS"">NaJbukbY</p>","","","","","","","","","",""
"html-keyboard-response","253","325122","0.0-13.0-0.3","60fd0845a9a6b47d7adfea22","64e77d7b61f440b60e28659d","64ec94ef3b09f5c1e435504b","null","null","<p style=""font-size: 60px; font-family: BACS"">tcYbdPEdK</p>","","","","","","","","","",""
"html-keyboard-response","254","326139","0.0-13.0-0.4","60fd0845a9a6b47d7adfea22","64e77d7b61f440b60e28659d","64ec94ef3b09f5c1e435504b","null","null","<p style=""font-size: 60px; font-family: BACS"">LcNUJrZYd</p>","","","","","","","","","",""
"html-keyboard-response","255","327141","0.0-13.0-0.5","60fd0845a9a6b47d7adfea22","64e77d7b61f440b60e28659d","64ec94ef3b09f5c1e435504b","null","null","<p style=""font-size: 60px; font-family: BACS"">BdtACPTl</p>","","","","","","","","","",""
"html-keyboard-response","256","328146","0.0-13.0-0.6","60fd0845a9a6b47d7adfea22","64e77d7b61f440b60e28659d","64ec94ef3b09f5c1e435504b","null","null","<p style=""font-size: 60px; font-family: BACS"">QLrOJaQr</p>","","","","","","","","","",""
"html-keyboard-response","257","329158","0.0-13.0-0.7","60fd0845a9a6b47d7adfea22","64e77d7b61f440b60e28659d","64ec94ef3b09f5c1e435504b","null","null","<p style=""font-size: 60px; font-family: BACS"">GZJYrZYd</p>","","","","","","","","","",""
"html-keyboard-response","258","330162","0.0-13.0-0.8","60fd0845a9a6b47d7adfea22","64e77d7b61f440b60e28659d","64ec94ef3b09f5c1e435504b","null","null","<p style=""font-size: 60px; font-family: BACS"">LNUrJukbY</p>","","","","","","","","","",""
"html-keyboard-response","259","331178","0.0-13.0-0.9","60fd0845a9a6b47d7adfea22","64e77d7b61f440b60e28659d","64ec94ef3b09f5c1e435504b","null","null","<p style=""font-size: 60px; font-family: BACS"">cRElDPTl</p>","","","","","","","","","",""
"html-keyboard-response","260","332189","0.0-13.0-0.10","60fd0845a9a6b47d7adfea22","64e77d7b61f440b60e28659d","64ec94ef3b09f5c1e435504b","null","null","<p style=""font-size: 60px; font-family: BACS"">kPkRARYlD</p>","","","","","","","","","",""
"html-keyboard-response","261","333206","0.0-13.0-0.11","60fd0845a9a6b47d7adfea22","64e77d7b61f440b60e28659d","64ec94ef3b09f5c1e435504b","null","null","<p style=""font-size: 60px; font-family: BACS"">UdYUQukbY</p>","","","","","","","","","",""
"html-keyboard-response","262","334223","0.0-13.0-0.12","60fd0845a9a6b47d7adfea22","64e77d7b61f440b60e28659d","64ec94ef3b09f5c1e435504b","null","null","<p style=""font-size: 60px; font-family: BACS"">LcNUJAld</p>","","","","","","","","","",""
"html-keyboard-response","263","335238","0.0-13.0-0.13","60fd0845a9a6b47d7adfea22","64e77d7b61f440b60e28659d","64ec94ef3b09f5c1e435504b","null","null","<p style=""font-size: 60px; font-family: BACS"">BdtACPEdK</p>","","","","","","","","","",""
"html-keyboard-response","264","336255","0.0-13.0-0.14","60fd0845a9a6b47d7adfea22","64e77d7b61f440b60e28659d","64ec94ef3b09f5c1e435504b","null","null","<p style=""font-size: 60px; font-family: BACS"">aLNlkrZYd</p>","","","","","","","","","",""
"html-keyboard-response","265","337259","0.0-13.0-0.15","60fd0845a9a6b47d7adfea22","64e77d7b61f440b60e28659d","64ec94ef3b09f5c1e435504b","null","null","<p style=""font-size: 60px; font-family: BACS"">UdYUQaQr</p>","","","","","","","","","",""
"html-keyboard-response","266","338263","0.0-13.0-0.16","60fd0845a9a6b47d7adfea22","64e77d7b61f440b60e28659d","64ec94ef3b09f5c1e435504b","null","null","<p style=""font-size: 60px; font-family: BACS"">GZJYZvkL</p>","","","","","","","","","",""
"html-keyboard-response","267","339267","0.0-13.0-0.17","60fd0845a9a6b47d7adfea22","64e77d7b61f440b60e28659d","64ec94ef3b09f5c1e435504b","null","null","<p style=""font-size: 60px; font-family: BACS"">mUOcOAld</p>","","","","","","","","","",""
"html-keyboard-response","268","340275","0.0-13.0-0.18","60fd0845a9a6b47d7adfea22","64e77d7b61f440b60e28659d","64ec94ef3b09f5c1e435504b","null","null","<p style=""font-size: 60px; font-family: BACS"">dGLAlukbY</p>","","","","","","","","","",""
"html-keyboard-response","269","341292","0.0-13.0-0.19","60fd0845a9a6b47d7adfea22","64e77d7b61f440b60e28659d","64ec94ef3b09f5c1e435504b","null","null","<p style=""font-size: 60px; font-family: BACS"">GZJYAld</p>","","","","","","","","","",""
"html-keyboard-response","270","342310","0.0-13.0-0.20","60fd0845a9a6b47d7adfea22","64e77d7b61f440b60e28659d","64ec94ef3b09f5c1e435504b","null","null","<p style=""font-size: 60px; font-family: BACS"">DhMtPTl</p>","","","","","","","","","",""
"html-keyboard-response","271","343316","0.0-13.0-0.21","60fd0845a9a6b47d7adfea22","64e77d7b61f440b60e28659d","64ec94ef3b09f5c1e435504b","null","null","<p style=""font-size: 60px; font-family: BACS"">TObCOMAB</p>","","","","","","","","","",""
"html-keyboard-response","272","344324","0.0-13.0-0.22","60fd0845a9a6b47d7adfea22","64e77d7b61f440b60e28659d","64ec94ef3b09f5c1e435504b","null","null","<p style=""font-size: 60px; font-family: BACS"">DRPkYPEdK</p>","","","","","","","","","",""
"html-keyboard-response","273","345333","0.0-13.0-0.23","60fd0845a9a6b47d7adfea22","64e77d7b61f440b60e28659d","64ec94ef3b09f5c1e435504b","null","null","<p style=""font-size: 60px; font-family: BACS"">tcYbdlRE</p>","","","","","","","","","",""
"html-keyboard-response","274","346336","0.0-13.0-0.24","60fd0845a9a6b47d7adfea22","64e77d7b61f440b60e28659d","64ec94ef3b09f5c1e435504b","null","null","<p style=""font-size: 60px; font-family: BACS"">LNUrJaQr</p>","","","","","","","","","",""
"html-keyboard-response","275","347339","0.0-13.0-0.25","60fd0845a9a6b47d7adfea22","64e77d7b61f440b60e28659d","64ec94ef3b09f5c1e435504b","null","null","<p style=""font-size: 60px; font-family: BACS"">TObCOlRE</p>","","","","","","","","","",""
"html-keyboard-response","276","348346","0.0-13.0-0.26","60fd0845a9a6b47d7adfea22","64e77d7b61f440b60e28659d","64ec94ef3b09f5c1e435504b","null","null","<p style=""font-size: 60px; font-family: BACS"">aLNlkZvkL</p>","","","","","","","","","",""
"html-keyboard-response","277","349354","0.0-13.0-0.27","60fd0845a9a6b47d7adfea22","64e77d7b61f440b60e28659d","64ec94ef3b09f5c1e435504b","null","null","<p style=""font-size: 60px; font-family: BACS"">NbmQUrZYd</p>","","","","","","","","","",""
"html-keyboard-response","278","350356","0.0-13.0-0.28","60fd0845a9a6b47d7adfea22","64e77d7b61f440b60e28659d","64ec94ef3b09f5c1e435504b","null","null","<p style=""font-size: 60px; font-family: BACS"">LcNUJaQr</p>","","","","","","","","","",""
"html-keyboard-response","279","351362","0.0-13.0-0.29","60fd0845a9a6b47d7adfea22","64e77d7b61f440b60e28659d","64ec94ef3b09f5c1e435504b","null","null","<p style=""font-size: 60px; font-family: BACS"">hbkdMAB</p>","","","","","","","","","",""
"html-keyboard-response","280","352374","0.0-13.0-0.30","60fd0845a9a6b47d7adfea22","64e77d7b61f440b60e28659d","64ec94ef3b09f5c1e435504b","null","null","<p style=""font-size: 60px; font-family: BACS"">QLrOJukbY</p>","","","","","","","","","",""
"html-keyboard-response","281","353390","0.0-13.0-0.31","60fd0845a9a6b47d7adfea22","64e77d7b61f440b60e28659d","64ec94ef3b09f5c1e435504b","null","null","<p style=""font-size: 60px; font-family: BACS"">kPkRAMAB</p>","","","","","","","","","",""
"html-keyboard-response","282","354406","0.0-13.0-0.32","60fd0845a9a6b47d7adfea22","64e77d7b61f440b60e28659d","64ec94ef3b09f5c1e435504b","null","null","<p style=""font-size: 60px; font-family: BACS"">TObCORYlD</p>","","","","","","","","","",""
"html-keyboard-response","283","355422","0.0-13.0-0.33","60fd0845a9a6b47d7adfea22","64e77d7b61f440b60e28659d","64ec94ef3b09f5c1e435504b","null","null","<p style=""font-size: 60px; font-family: BACS"">bROClRE</p>","","","","","","","","","",""
"html-keyboard-response","284","356434","0.0-13.0-0.34","60fd0845a9a6b47d7adfea22","64e77d7b61f440b60e28659d","64ec94ef3b09f5c1e435504b","null","null","<p style=""font-size: 60px; font-family: BACS"">DhMtPEdK</p>","","","","","","","","","",""
"html-keyboard-response","285","357442","0.0-13.0-0.35","60fd0845a9a6b47d7adfea22","64e77d7b61f440b60e28659d","64ec94ef3b09f5c1e435504b","null","null","<p style=""font-size: 60px; font-family: BACS"">NaJbaQr</p>","","","","","","","","","",""
"html-keyboard-response","286","358457","0.0-13.0-0.36","60fd0845a9a6b47d7adfea22","64e77d7b61f440b60e28659d","64ec94ef3b09f5c1e435504b","null","null","<p style=""font-size: 60px; font-family: BACS"">PEtElRE</p>","","","","","","","","","",""
"html-keyboard-response","287","359464","0.0-13.0-0.37","60fd0845a9a6b47d7adfea22","64e77d7b61f440b60e28659d","64ec94ef3b09f5c1e435504b","null","null","<p style=""font-size: 60px; font-family: BACS"">NbmQUZvkL</p>","","","","","","","","","",""
"html-keyboard-response","288","360470","0.0-13.0-0.38","60fd0845a9a6b47d7adfea22","64e77d7b61f440b60e28659d","64ec94ef3b09f5c1e435504b","null","null","<p style=""font-size: 60px; font-family: BACS"">BdtAClRE</p>","","","","","","","","","",""
"html-keyboard-response","289","361477","0.0-13.0-0.39","60fd0845a9a6b47d7adfea22","64e77d7b61f440b60e28659d","64ec94ef3b09f5c1e435504b","null","null","<p style=""font-size: 60px; font-family: BACS"">DRPkYPTl</p>","","","","","","","","","",""
"html-keyboard-response","290","362485","0.0-13.0-0.40","60fd0845a9a6b47d7adfea22","64e77d7b61f440b60e28659d","64ec94ef3b09f5c1e435504b","null","null","<p style=""font-size: 60px; font-family: BACS"">PEtEPEdK</p>","","","","","","","","","",""
"html-keyboard-response","291","363501","0.0-13.0-0.41","60fd0845a9a6b47d7adfea22","64e77d7b61f440b60e28659d","64ec94ef3b09f5c1e435504b","null","null","<p style=""font-size: 60px; font-family: BACS"">DRPkYMAB</p>","","","","","","","","","",""
"html-keyboard-response","292","364509","0.0-13.0-0.42","60fd0845a9a6b47d7adfea22","64e77d7b61f440b60e28659d","64ec94ef3b09f5c1e435504b","null","null","<p style=""font-size: 60px; font-family: BACS"">cRElDRYlD</p>","","","","","","","","","",""
"html-keyboard-response","293","365520","0.0-13.0-0.43","60fd0845a9a6b47d7adfea22","64e77d7b61f440b60e28659d","64ec94ef3b09f5c1e435504b","null","null","<p style=""font-size: 60px; font-family: BACS"">hbkdPTl</p>","","","","","","","","","",""
"html-keyboard-response","294","366523","0.0-13.0-0.44","60fd0845a9a6b47d7adfea22","64e77d7b61f440b60e28659d","64ec94ef3b09f5c1e435504b","null","null","<p style=""font-size: 60px; font-family: BACS"">DhMtlRE</p>","","","","","","","","","",""
"html-keyboard-response","295","367538","0.0-13.0-0.45","60fd0845a9a6b47d7adfea22","64e77d7b61f440b60e28659d","64ec94ef3b09f5c1e435504b","null","null","<p style=""font-size: 60px; font-family: BACS"">UdYUQAld</p>","","","","","","","","","",""
"html-keyboard-response","296","368554","0.0-13.0-0.46","60fd0845a9a6b47d7adfea22","64e77d7b61f440b60e28659d","64ec94ef3b09f5c1e435504b","null","null","<p style=""font-size: 60px; font-family: BACS"">aLNlkaQr</p>","","","","","","","","","",""
"html-keyboard-response","297","369556","0.0-13.0-0.47","60fd0845a9a6b47d7adfea22","64e77d7b61f440b60e28659d","64ec94ef3b09f5c1e435504b","null","null","<p style=""font-size: 60px; font-family: BACS"">BdtACMAB</p>","","","","","","","","","",""
"html-keyboard-response","298","370572","0.0-13.0-0.48","60fd0845a9a6b47d7adfea22","64e77d7b61f440b60e28659d","64ec94ef3b09f5c1e435504b","null","null","<p style=""font-size: 60px; font-family: BACS"">LNUrJAld</p>","","","","","","","","","",""
"html-keyboard-response","299","371576","0.0-13.0-0.49","60fd0845a9a6b47d7adfea22","64e77d7b61f440b60e28659d","64ec94ef3b09f5c1e435504b","null","null","<p style=""font-size: 60px; font-family: BACS"">hbkdlRE</p>","","","","","","","","","",""
"html-keyboard-response","300","372590","0.0-13.0-0.50","60fd0845a9a6b47d7adfea22","64e77d7b61f440b60e28659d","64ec94ef3b09f5c1e435504b","null","null","<p style=""font-size: 60px; font-family: BACS"">bROCPTl</p>","","","","","","","","","",""
"html-keyboard-response","301","373605","0.0-13.0-0.51","60fd0845a9a6b47d7adfea22","64e77d7b61f440b60e28659d","64ec94ef3b09f5c1e435504b","null","null","<p style=""font-size: 60px; font-family: BACS"">QLrOJrZYd</p>","","","","","","","","","",""
"html-keyboard-response","302","374607","0.0-13.0-0.52","60fd0845a9a6b47d7adfea22","64e77d7b61f440b60e28659d","64ec94ef3b09f5c1e435504b","null","null","<p style=""font-size: 60px; font-family: BACS"">PEtERYlD</p>","","","","","","","","","",""
"html-keyboard-response","303","375622","0.0-13.0-0.53","60fd0845a9a6b47d7adfea22","64e77d7b61f440b60e28659d","64ec94ef3b09f5c1e435504b","null","null","<p style=""font-size: 60px; font-family: BACS"">tcYbdMAB</p>","","","","","","","","","",""
"html-keyboard-response","304","376625","0.0-13.0-0.54","60fd0845a9a6b47d7adfea22","64e77d7b61f440b60e28659d","64ec94ef3b09f5c1e435504b","null","null","<p style=""font-size: 60px; font-family: BACS"">mUOcOaQr</p>","","","","","","","","","",""
"html-keyboard-response","305","377639","0.0-13.0-0.55","60fd0845a9a6b47d7adfea22","64e77d7b61f440b60e28659d","64ec94ef3b09f5c1e435504b","null","null","<p style=""font-size: 60px; font-family: BACS"">GZJYukbY</p>","","","","","","","","","",""
"html-keyboard-response","306","378656","0.0-13.0-0.56","60fd0845a9a6b47d7adfea22","64e77d7b61f440b60e28659d","64ec94ef3b09f5c1e435504b","null","null","<p style=""font-size: 60px; font-family: BACS"">TObCOPEdK</p>","","","","","","","","","",""
"html-keyboard-response","307","379670","0.0-13.0-0.57","60fd0845a9a6b47d7adfea22","64e77d7b61f440b60e28659d","64ec94ef3b09f5c1e435504b","null","null","<p style=""font-size: 60px; font-family: BACS"">LNUrJrZYd</p>","","","","","","","","","",""
"html-keyboard-response","308","380685","0.0-13.0-0.58","60fd0845a9a6b47d7adfea22","64e77d7b61f440b60e28659d","64ec94ef3b09f5c1e435504b","null","null","<p style=""font-size: 60px; font-family: BACS"">NbmQUAld</p>","","","","","","","","","",""
"html-keyboard-response","309","381691","0.0-13.0-0.59","60fd0845a9a6b47d7adfea22","64e77d7b61f440b60e28659d","64ec94ef3b09f5c1e435504b","null","null","<p style=""font-size: 60px; font-family: BACS"">cRElDlRE</p>","","","","","","","","","",""
"html-keyboard-response","310","382706","0.0-13.0-0.60","60fd0845a9a6b47d7adfea22","64e77d7b61f440b60e28659d","64ec94ef3b09f5c1e435504b","null","null","<p style=""font-size: 60px; font-family: BACS"">QLrOJZvkL</p>","","","","","","","","","",""
"html-keyboard-response","311","383722","0.0-13.0-0.61","60fd0845a9a6b47d7adfea22","64e77d7b61f440b60e28659d","64ec94ef3b09f5c1e435504b","null","null","<p style=""font-size: 60px; font-family: BACS"">cRElDPEdK</p>","","","","","","","","","",""
"html-keyboard-response","312","384724","0.0-13.0-0.62","60fd0845a9a6b47d7adfea22","64e77d7b61f440b60e28659d","64ec94ef3b09f5c1e435504b","null","null","<p style=""font-size: 60px; font-family: BACS"">hbkdRYlD</p>","","","","","","","","","",""
"html-keyboard-response","313","385738","0.0-13.0-0.63","60fd0845a9a6b47d7adfea22","64e77d7b61f440b60e28659d","64ec94ef3b09f5c1e435504b","null","null","<p style=""font-size: 60px; font-family: BACS"">NbmQUukbY</p>","","","","","","","","","",""
"html-keyboard-response","314","386744","0.0-13.0-0.64","60fd0845a9a6b47d7adfea22","64e77d7b61f440b60e28659d","64ec94ef3b09f5c1e435504b","null","null","<p style=""font-size: 60px; font-family: BACS"">dGLAlAld</p>","","","","","","","","","",""
"html-keyboard-response","315","387752","0.0-13.0-0.65","60fd0845a9a6b47d7adfea22","64e77d7b61f440b60e28659d","64ec94ef3b09f5c1e435504b","null","null","<p style=""font-size: 60px; font-family: BACS"">DRPkYRYlD</p>","","","","","","","","","",""
"html-keyboard-response","316","388758","0.0-13.0-0.66","60fd0845a9a6b47d7adfea22","64e77d7b61f440b60e28659d","64ec94ef3b09f5c1e435504b","null","null","<p style=""font-size: 60px; font-family: BACS"">aLNlkAld</p>","","","","","","","","","",""
"html-keyboard-response","317","389772","0.0-13.0-0.67","60fd0845a9a6b47d7adfea22","64e77d7b61f440b60e28659d","64ec94ef3b09f5c1e435504b","null","null","<p style=""font-size: 60px; font-family: BACS"">DhMtRYlD</p>","","","","","","","","","",""
"html-keyboard-response","318","390779","0.0-13.0-0.68","60fd0845a9a6b47d7adfea22","64e77d7b61f440b60e28659d","64ec94ef3b09f5c1e435504b","null","null","<p style=""font-size: 60px; font-family: BACS"">mUOcOZvkL</p>","","","","","","","","","",""
"html-keyboard-response","319","391790","0.0-13.0-0.69","60fd0845a9a6b47d7adfea22","64e77d7b61f440b60e28659d","64ec94ef3b09f5c1e435504b","null","null","<p style=""font-size: 60px; font-family: BACS"">bROCRYlD</p>","","","","","","","","","",""
"html-keyboard-response","320","392806","0.0-13.0-0.70","60fd0845a9a6b47d7adfea22","64e77d7b61f440b60e28659d","64ec94ef3b09f5c1e435504b","null","null","<p style=""font-size: 60px; font-family: BACS"">dGLAlrZYd</p>","","","","","","","","","",""
"html-keyboard-response","321","393822","0.0-13.0-0.71","60fd0845a9a6b47d7adfea22","64e77d7b61f440b60e28659d","64ec94ef3b09f5c1e435504b","null","null","<p style=""font-size: 60px; font-family: BACS"">UdYUQZvkL</p>","","","","","","","","","",""
"html-keyboard-response","322","394829","0.0-13.0-0.72","60fd0845a9a6b47d7adfea22","64e77d7b61f440b60e28659d","64ec94ef3b09f5c1e435504b","null","null","<p style=""font-size: 60px; font-family: BACS"">dGLAlaQr</p>","","","","","","","","","",""
"html-keyboard-response","323","395841","0.0-13.0-0.73","60fd0845a9a6b47d7adfea22","64e77d7b61f440b60e28659d","64ec94ef3b09f5c1e435504b","null","null","<p style=""font-size: 60px; font-family: BACS"">kPkRAPTl</p>","","","","","","","","","",""
"html-keyboard-response","324","396855","0.0-13.0-0.74","60fd0845a9a6b47d7adfea22","64e77d7b61f440b60e28659d","64ec94ef3b09f5c1e435504b","null","null","<p style=""font-size: 60px; font-family: BACS"">bROCMAB</p>","","","","","","","","","",""
"html-keyboard-response","325","397872","0.0-13.0-0.75","60fd0845a9a6b47d7adfea22","64e77d7b61f440b60e28659d","64ec94ef3b09f5c1e435504b","null","null","<p style=""font-size: 60px; font-family: BACS"">kPkRAPEdK</p>","","","","","","","","","",""
"html-keyboard-response","326","398888","0.0-13.0-0.76","60fd0845a9a6b47d7adfea22","64e77d7b61f440b60e28659d","64ec94ef3b09f5c1e435504b","null","null","<p style=""font-size: 60px; font-family: BACS"">mUOcOukbY</p>","","","","","","","","","",""
"html-keyboard-response","327","399891","0.0-13.0-0.77","60fd0845a9a6b47d7adfea22","64e77d7b61f440b60e28659d","64ec94ef3b09f5c1e435504b","null","null","<p style=""font-size: 60px; font-family: BACS"">PEtEMAB</p>","","","","","","","","","",""
"html-keyboard-response","328","400903","0.0-13.0-0.78","60fd0845a9a6b47d7adfea22","64e77d7b61f440b60e28659d","64ec94ef3b09f5c1e435504b","null","null","<p style=""font-size: 60px; font-family: BACS"">NaJbZvkL</p>","","","","","","","","","",""
"html-keyboard-response","329","401913","0.0-13.0-0.79","60fd0845a9a6b47d7adfea22","64e77d7b61f440b60e28659d","64ec94ef3b09f5c1e435504b","null","null","<p style=""font-size: 60px; font-family: BACS"">tcYbdPTl</p>","","","","","","","","","",""
"html-keyboard-response","330","417365","0.0-14.0","60fd0845a9a6b47d7adfea22","64e77d7b61f440b60e28659d","64ec94ef3b09f5c1e435504b","15453"," ","<p>Great, you've seen the fourth block of words. You may now take a short break.</p>
      <p>Press the spacebar when you're ready to continue.</p>","","","","","","","","","",""
"html-keyboard-response","331","418377","0.0-15.0-0.0","60fd0845a9a6b47d7adfea22","64e77d7b61f440b60e28659d","64ec94ef3b09f5c1e435504b","null","null","<p style=""font-size: 60px; font-family: BACS"">tcYbdPTl</p>","","","","","","","","","",""
"html-keyboard-response","332","419389","0.0-15.0-0.1","60fd0845a9a6b47d7adfea22","64e77d7b61f440b60e28659d","64ec94ef3b09f5c1e435504b","null","null","<p style=""font-size: 60px; font-family: BACS"">tcYbdPTl</p>","","","","","","","","","",""
"html-keyboard-response","333","420403","0.0-15.0-0.2","60fd0845a9a6b47d7adfea22","64e77d7b61f440b60e28659d","64ec94ef3b09f5c1e435504b","null","null","<p style=""font-size: 60px; font-family: BACS"">tcYbdPTl</p>","","","","","","","","","",""
"html-keyboard-response","334","421405","0.0-15.0-0.3","60fd0845a9a6b47d7adfea22","64e77d7b61f440b60e28659d","64ec94ef3b09f5c1e435504b","null","null","<p style=""font-size: 60px; font-family: BACS"">tcYbdPTl</p>","","","","","","","","","",""
"html-keyboard-response","335","422421","0.0-15.0-0.4","60fd0845a9a6b47d7adfea22","64e77d7b61f440b60e28659d","64ec94ef3b09f5c1e435504b","null","null","<p style=""font-size: 60px; font-family: BACS"">tcYbdPTl</p>","","","","","","","","","",""
"html-keyboard-response","336","423435","0.0-15.0-0.5","60fd0845a9a6b47d7adfea22","64e77d7b61f440b60e28659d","64ec94ef3b09f5c1e435504b","null","null","<p style=""font-size: 60px; font-family: BACS"">tcYbdPTl</p>","","","","","","","","","",""
"html-keyboard-response","337","424444","0.0-15.0-0.6","60fd0845a9a6b47d7adfea22","64e77d7b61f440b60e28659d","64ec94ef3b09f5c1e435504b","null","null","<p style=""font-size: 60px; font-family: BACS"">tcYbdPTl</p>","","","","","","","","","",""
"html-keyboard-response","338","425453","0.0-15.0-0.7","60fd0845a9a6b47d7adfea22","64e77d7b61f440b60e28659d","64ec94ef3b09f5c1e435504b","null","null","<p style=""font-size: 60px; font-family: BACS"">tcYbdPTl</p>","","","","","","","","","",""
"html-keyboard-response","339","426468","0.0-15.0-0.8","60fd0845a9a6b47d7adfea22","64e77d7b61f440b60e28659d","64ec94ef3b09f5c1e435504b","null","null","<p style=""font-size: 60px; font-family: BACS"">tcYbdPTl</p>","","","","","","","","","",""
"html-keyboard-response","340","427472","0.0-15.0-0.9","60fd0845a9a6b47d7adfea22","64e77d7b61f440b60e28659d","64ec94ef3b09f5c1e435504b","null","null","<p style=""font-size: 60px; font-family: BACS"">tcYbdPTl</p>","","","","","","","","","",""
"html-keyboard-response","341","428488","0.0-15.0-0.10","60fd0845a9a6b47d7adfea22","64e77d7b61f440b60e28659d","64ec94ef3b09f5c1e435504b","null","null","<p style=""font-size: 60px; font-family: BACS"">tcYbdPTl</p>","","","","","","","","","",""
"html-keyboard-response","342","429492","0.0-15.0-0.11","60fd0845a9a6b47d7adfea22","64e77d7b61f440b60e28659d","64ec94ef3b09f5c1e435504b","null","null","<p style=""font-size: 60px; font-family: BACS"">tcYbdPTl</p>","","","","","","","","","",""
"html-keyboard-response","343","430505","0.0-15.0-0.12","60fd0845a9a6b47d7adfea22","64e77d7b61f440b60e28659d","64ec94ef3b09f5c1e435504b","null","null","<p style=""font-size: 60px; font-family: BACS"">tcYbdPTl</p>","","","","","","","","","",""
"html-keyboard-response","344","431521","0.0-15.0-0.13","60fd0845a9a6b47d7adfea22","64e77d7b61f440b60e28659d","64ec94ef3b09f5c1e435504b","null","null","<p style=""font-size: 60px; font-family: BACS"">tcYbdPTl</p>","","","","","","","","","",""
"html-keyboard-response","345","432533","0.0-15.0-0.14","60fd0845a9a6b47d7adfea22","64e77d7b61f440b60e28659d","64ec94ef3b09f5c1e435504b","null","null","<p style=""font-size: 60px; font-family: BACS"">tcYbdPTl</p>","","","","","","","","","",""
"html-keyboard-response","346","433539","0.0-15.0-0.15","60fd0845a9a6b47d7adfea22","64e77d7b61f440b60e28659d","64ec94ef3b09f5c1e435504b","null","null","<p style=""font-size: 60px; font-family: BACS"">tcYbdPTl</p>","","","","","","","","","",""
"html-keyboard-response","347","434554","0.0-15.0-0.16","60fd0845a9a6b47d7adfea22","64e77d7b61f440b60e28659d","64ec94ef3b09f5c1e435504b","null","null","<p style=""font-size: 60px; font-family: BACS"">tcYbdPTl</p>","","","","","","","","","",""
"html-keyboard-response","348","435559","0.0-15.0-0.17","60fd0845a9a6b47d7adfea22","64e77d7b61f440b60e28659d","64ec94ef3b09f5c1e435504b","null","null","<p style=""font-size: 60px; font-family: BACS"">tcYbdPTl</p>","","","","","","","","","",""
"html-keyboard-response","349","436565","0.0-15.0-0.18","60fd0845a9a6b47d7adfea22","64e77d7b61f440b60e28659d","64ec94ef3b09f5c1e435504b","null","null","<p style=""font-size: 60px; font-family: BACS"">tcYbdPTl</p>","","","","","","","","","",""
"html-keyboard-response","350","437569","0.0-15.0-0.19","60fd0845a9a6b47d7adfea22","64e77d7b61f440b60e28659d","64ec94ef3b09f5c1e435504b","null","null","<p style=""font-size: 60px; font-family: BACS"">tcYbdPTl</p>","","","","","","","","","",""
"html-keyboard-response","351","438583","0.0-15.0-0.20","60fd0845a9a6b47d7adfea22","64e77d7b61f440b60e28659d","64ec94ef3b09f5c1e435504b","null","null","<p style=""font-size: 60px; font-family: BACS"">tcYbdPTl</p>","","","","","","","","","",""
"html-keyboard-response","352","439593","0.0-15.0-0.21","60fd0845a9a6b47d7adfea22","64e77d7b61f440b60e28659d","64ec94ef3b09f5c1e435504b","null","null","<p style=""font-size: 60px; font-family: BACS"">tcYbdPTl</p>","","","","","","","","","",""
"html-keyboard-response","353","440600","0.0-15.0-0.22","60fd0845a9a6b47d7adfea22","64e77d7b61f440b60e28659d","64ec94ef3b09f5c1e435504b","null","null","<p style=""font-size: 60px; font-family: BACS"">tcYbdPTl</p>","","","","","","","","","",""
"html-keyboard-response","354","441603","0.0-15.0-0.23","60fd0845a9a6b47d7adfea22","64e77d7b61f440b60e28659d","64ec94ef3b09f5c1e435504b","null","null","<p style=""font-size: 60px; font-family: BACS"">tcYbdPTl</p>","","","","","","","","","",""
"html-keyboard-response","355","442620","0.0-15.0-0.24","60fd0845a9a6b47d7adfea22","64e77d7b61f440b60e28659d","64ec94ef3b09f5c1e435504b","null","null","<p style=""font-size: 60px; font-family: BACS"">tcYbdPTl</p>","","","","","","","","","",""
"html-keyboard-response","356","443629","0.0-15.0-0.25","60fd0845a9a6b47d7adfea22","64e77d7b61f440b60e28659d","64ec94ef3b09f5c1e435504b","null","null","<p style=""font-size: 60px; font-family: BACS"">tcYbdPTl</p>","","","","","","","","","",""
"html-keyboard-response","357","444639","0.0-15.0-0.26","60fd0845a9a6b47d7adfea22","64e77d7b61f440b60e28659d","64ec94ef3b09f5c1e435504b","null","null","<p style=""font-size: 60px; font-family: BACS"">tcYbdPTl</p>","","","","","","","","","",""
"html-keyboard-response","358","445651","0.0-15.0-0.27","60fd0845a9a6b47d7adfea22","64e77d7b61f440b60e28659d","64ec94ef3b09f5c1e435504b","null","null","<p style=""font-size: 60px; font-family: BACS"">tcYbdPTl</p>","","","","","","","","","",""
"html-keyboard-response","359","446659","0.0-15.0-0.28","60fd0845a9a6b47d7adfea22","64e77d7b61f440b60e28659d","64ec94ef3b09f5c1e435504b","null","null","<p style=""font-size: 60px; font-family: BACS"">tcYbdPTl</p>","","","","","","","","","",""
"html-keyboard-response","360","447673","0.0-15.0-0.29","60fd0845a9a6b47d7adfea22","64e77d7b61f440b60e28659d","64ec94ef3b09f5c1e435504b","null","null","<p style=""font-size: 60px; font-family: BACS"">tcYbdPTl</p>","","","","","","","","","",""
"html-keyboard-response","361","448688","0.0-15.0-0.30","60fd0845a9a6b47d7adfea22","64e77d7b61f440b60e28659d","64ec94ef3b09f5c1e435504b","null","null","<p style=""font-size: 60px; font-family: BACS"">tcYbdPTl</p>","","","","","","","","","",""
"html-keyboard-response","362","449703","0.0-15.0-0.31","60fd0845a9a6b47d7adfea22","64e77d7b61f440b60e28659d","64ec94ef3b09f5c1e435504b","null","null","<p style=""font-size: 60px; font-family: BACS"">tcYbdPTl</p>","","","","","","","","","",""
"html-keyboard-response","363","450710","0.0-15.0-0.32","60fd0845a9a6b47d7adfea22","64e77d7b61f440b60e28659d","64ec94ef3b09f5c1e435504b","null","null","<p style=""font-size: 60px; font-family: BACS"">tcYbdPTl</p>","","","","","","","","","",""
"html-keyboard-response","364","451719","0.0-15.0-0.33","60fd0845a9a6b47d7adfea22","64e77d7b61f440b60e28659d","64ec94ef3b09f5c1e435504b","null","null","<p style=""font-size: 60px; font-family: BACS"">tcYbdPTl</p>","","","","","","","","","",""
"html-keyboard-response","365","452721","0.0-15.0-0.34","60fd0845a9a6b47d7adfea22","64e77d7b61f440b60e28659d","64ec94ef3b09f5c1e435504b","null","null","<p style=""font-size: 60px; font-family: BACS"">tcYbdPTl</p>","","","","","","","","","",""
"html-keyboard-response","366","453726","0.0-15.0-0.35","60fd0845a9a6b47d7adfea22","64e77d7b61f440b60e28659d","64ec94ef3b09f5c1e435504b","null","null","<p style=""font-size: 60px; font-family: BACS"">tcYbdPTl</p>","","","","","","","","","",""
"html-keyboard-response","367","454730","0.0-15.0-0.36","60fd0845a9a6b47d7adfea22","64e77d7b61f440b60e28659d","64ec94ef3b09f5c1e435504b","null","null","<p style=""font-size: 60px; font-family: BACS"">tcYbdPTl</p>","","","","","","","","","",""
"html-keyboard-response","368","455741","0.0-15.0-0.37","60fd0845a9a6b47d7adfea22","64e77d7b61f440b60e28659d","64ec94ef3b09f5c1e435504b","null","null","<p style=""font-size: 60px; font-family: BACS"">tcYbdPTl</p>","","","","","","","","","",""
"html-keyboard-response","369","456750","0.0-15.0-0.38","60fd0845a9a6b47d7adfea22","64e77d7b61f440b60e28659d","64ec94ef3b09f5c1e435504b","null","null","<p style=""font-size: 60px; font-family: BACS"">tcYbdPTl</p>","","","","","","","","","",""
"html-keyboard-response","370","457760","0.0-15.0-0.39","60fd0845a9a6b47d7adfea22","64e77d7b61f440b60e28659d","64ec94ef3b09f5c1e435504b","null","null","<p style=""font-size: 60px; font-family: BACS"">tcYbdPTl</p>","","","","","","","","","",""
"html-keyboard-response","371","458768","0.0-15.0-0.40","60fd0845a9a6b47d7adfea22","64e77d7b61f440b60e28659d","64ec94ef3b09f5c1e435504b","null","null","<p style=""font-size: 60px; font-family: BACS"">tcYbdPTl</p>","","","","","","","","","",""
"html-keyboard-response","372","459777","0.0-15.0-0.41","60fd0845a9a6b47d7adfea22","64e77d7b61f440b60e28659d","64ec94ef3b09f5c1e435504b","null","null","<p style=""font-size: 60px; font-family: BACS"">tcYbdPTl</p>","","","","","","","","","",""
"html-keyboard-response","373","460793","0.0-15.0-0.42","60fd0845a9a6b47d7adfea22","64e77d7b61f440b60e28659d","64ec94ef3b09f5c1e435504b","null","null","<p style=""font-size: 60px; font-family: BACS"">tcYbdPTl</p>","","","","","","","","","",""
"html-keyboard-response","374","461812","0.0-15.0-0.43","60fd0845a9a6b47d7adfea22","64e77d7b61f440b60e28659d","64ec94ef3b09f5c1e435504b","null","null","<p style=""font-size: 60px; font-family: BACS"">tcYbdPTl</p>","","","","","","","","","",""
"html-keyboard-response","375","462818","0.0-15.0-0.44","60fd0845a9a6b47d7adfea22","64e77d7b61f440b60e28659d","64ec94ef3b09f5c1e435504b","null","null","<p style=""font-size: 60px; font-family: BACS"">tcYbdPTl</p>","","","","","","","","","",""
"html-keyboard-response","376","463838","0.0-15.0-0.45","60fd0845a9a6b47d7adfea22","64e77d7b61f440b60e28659d","64ec94ef3b09f5c1e435504b","null","null","<p style=""font-size: 60px; font-family: BACS"">tcYbdPTl</p>","","","","","","","","","",""
"html-keyboard-response","377","464844","0.0-15.0-0.46","60fd0845a9a6b47d7adfea22","64e77d7b61f440b60e28659d","64ec94ef3b09f5c1e435504b","null","null","<p style=""font-size: 60px; font-family: BACS"">tcYbdPTl</p>","","","","","","","","","",""
"html-keyboard-response","378","465854","0.0-15.0-0.47","60fd0845a9a6b47d7adfea22","64e77d7b61f440b60e28659d","64ec94ef3b09f5c1e435504b","null","null","<p style=""font-size: 60px; font-family: BACS"">tcYbdPTl</p>","","","","","","","","","",""
"html-keyboard-response","379","466856","0.0-15.0-0.48","60fd0845a9a6b47d7adfea22","64e77d7b61f440b60e28659d","64ec94ef3b09f5c1e435504b","null","null","<p style=""font-size: 60px; font-family: BACS"">tcYbdPTl</p>","","","","","","","","","",""
"html-keyboard-response","380","467871","0.0-15.0-0.49","60fd0845a9a6b47d7adfea22","64e77d7b61f440b60e28659d","64ec94ef3b09f5c1e435504b","null","null","<p style=""font-size: 60px; font-family: BACS"">tcYbdPTl</p>","","","","","","","","","",""
"html-keyboard-response","381","468876","0.0-15.0-0.50","60fd0845a9a6b47d7adfea22","64e77d7b61f440b60e28659d","64ec94ef3b09f5c1e435504b","null","null","<p style=""font-size: 60px; font-family: BACS"">tcYbdPTl</p>","","","","","","","","","",""
"html-keyboard-response","382","469878","0.0-15.0-0.51","60fd0845a9a6b47d7adfea22","64e77d7b61f440b60e28659d","64ec94ef3b09f5c1e435504b","null","null","<p style=""font-size: 60px; font-family: BACS"">tcYbdPTl</p>","","","","","","","","","",""
"html-keyboard-response","383","470888","0.0-15.0-0.52","60fd0845a9a6b47d7adfea22","64e77d7b61f440b60e28659d","64ec94ef3b09f5c1e435504b","null","null","<p style=""font-size: 60px; font-family: BACS"">tcYbdPTl</p>","","","","","","","","","",""
"html-keyboard-response","384","471893","0.0-15.0-0.53","60fd0845a9a6b47d7adfea22","64e77d7b61f440b60e28659d","64ec94ef3b09f5c1e435504b","null","null","<p style=""font-size: 60px; font-family: BACS"">tcYbdPTl</p>","","","","","","","","","",""
"html-keyboard-response","385","472910","0.0-15.0-0.54","60fd0845a9a6b47d7adfea22","64e77d7b61f440b60e28659d","64ec94ef3b09f5c1e435504b","null","null","<p style=""font-size: 60px; font-family: BACS"">tcYbdPTl</p>","","","","","","","","","",""
"html-keyboard-response","386","473925","0.0-15.0-0.55","60fd0845a9a6b47d7adfea22","64e77d7b61f440b60e28659d","64ec94ef3b09f5c1e435504b","null","null","<p style=""font-size: 60px; font-family: BACS"">tcYbdPTl</p>","","","","","","","","","",""
"html-keyboard-response","387","474943","0.0-15.0-0.56","60fd0845a9a6b47d7adfea22","64e77d7b61f440b60e28659d","64ec94ef3b09f5c1e435504b","null","null","<p style=""font-size: 60px; font-family: BACS"">tcYbdPTl</p>","","","","","","","","","",""
"html-keyboard-response","388","475959","0.0-15.0-0.57","60fd0845a9a6b47d7adfea22","64e77d7b61f440b60e28659d","64ec94ef3b09f5c1e435504b","null","null","<p style=""font-size: 60px; font-family: BACS"">tcYbdPTl</p>","","","","","","","","","",""
"html-keyboard-response","389","476971","0.0-15.0-0.58","60fd0845a9a6b47d7adfea22","64e77d7b61f440b60e28659d","64ec94ef3b09f5c1e435504b","null","null","<p style=""font-size: 60px; font-family: BACS"">tcYbdPTl</p>","","","","","","","","","",""
"html-keyboard-response","390","477980","0.0-15.0-0.59","60fd0845a9a6b47d7adfea22","64e77d7b61f440b60e28659d","64ec94ef3b09f5c1e435504b","null","null","<p style=""font-size: 60px; font-family: BACS"">tcYbdPTl</p>","","","","","","","","","",""
"html-keyboard-response","391","478989","0.0-15.0-0.60","60fd0845a9a6b47d7adfea22","64e77d7b61f440b60e28659d","64ec94ef3b09f5c1e435504b","null","null","<p style=""font-size: 60px; font-family: BACS"">tcYbdPTl</p>","","","","","","","","","",""
"html-keyboard-response","392","480003","0.0-15.0-0.61","60fd0845a9a6b47d7adfea22","64e77d7b61f440b60e28659d","64ec94ef3b09f5c1e435504b","null","null","<p style=""font-size: 60px; font-family: BACS"">tcYbdPTl</p>","","","","","","","","","",""
"html-keyboard-response","393","481004","0.0-15.0-0.62","60fd0845a9a6b47d7adfea22","64e77d7b61f440b60e28659d","64ec94ef3b09f5c1e435504b","null","null","<p style=""font-size: 60px; font-family: BACS"">tcYbdPTl</p>","","","","","","","","","",""
"html-keyboard-response","394","482008","0.0-15.0-0.63","60fd0845a9a6b47d7adfea22","64e77d7b61f440b60e28659d","64ec94ef3b09f5c1e435504b","null","null","<p style=""font-size: 60px; font-family: BACS"">tcYbdPTl</p>","","","","","","","","","",""
"html-keyboard-response","395","483013","0.0-15.0-0.64","60fd0845a9a6b47d7adfea22","64e77d7b61f440b60e28659d","64ec94ef3b09f5c1e435504b","null","null","<p style=""font-size: 60px; font-family: BACS"">tcYbdPTl</p>","","","","","","","","","",""
