"trial_type","trial_index","time_elapsed","internal_node_id","subject_id","study_id","session_id","rt","response","stimulus","success","item","task","correct_response","testing_condition","correct","target","confound","name"
"pavlovia","0","702","0.0-0.0","6156a440279fdf408ee663ae","650c16f0f2faf8d7a0d14c09","651c1e502697d537867db5a1","","","","","","","","","","","",""
"survey-html-form","1","3812","0.0-1.0","6156a440279fdf408ee663ae","650c16f0f2faf8d7a0d14c09","651c1e502697d537867db5a1","3109","{""ID"":""6156a440279fdf408ee663ae""}","","","","","","","","","",""
"html-keyboard-response","2","23087","0.0-2.0","6156a440279fdf408ee663ae","650c16f0f2faf8d7a0d14c09","651c1e502697d537867db5a1","19274"," ","<p style=""font-size: 15px;"">Before beginning, we ask that you read the consent information and confirm your agreement to participate in the experiment.</p>
      <p style=""font-size: 15px;""> We ask that you remember that this is a research project and that your participation is entirely voluntary. You can stop your participation at any time, without needing to provide any explanation. The study we're asking you to participate in aims at examining how readers process written words. You will be engaged in a session of apprximately 20 minutes, followed by a brief questionnaire. You will have the opportunity to take a few breaks during the experiment. You will be paid £4 for your participation, corresponding to a rate of £8/hour. While this experiment looks at cognitive faculties, this experiment doesn't constitute clinical proof of eventual pathologies.</p>
      <p style=""font-size: 15px;"">All of the information collected thanks to yours and others' participation will be held in a secure password-protected server, and will not be shared with anyone not authorised to view it. Your personal information will be kept with an arbitrary participant ID. Thanks to this data anonymity process, any researcher analysing the data won't be able to track the information back to a specific participant. Therefore, this process will make identifying you impossibile, even when results from the study will be published in scientific reviews, presented at congresses, or at any other public forum. More generally, the collected data will be treated in accordance with the laws on privacy and conformity to the Legislative Degree n. 196 ""Code regarding the protection of personal data"" of the 30th of June 2003 and to the European Regulation 2016/670 (General Data Protection Regulation - GDPR). The Data Protection Officer is Avv. Valentina Carollo, who can be contacted at the following email addresses: <a href=""mailto:dpo@sissa.it"">dpo@sissa.it</a> or <a href=""mailto:rpd@sissa.it"">rpd@sissa.it</a> - PEC: <a href=""mailto:protocollo@pec.sissa.it"">protocollo@pec.sissa.it</a>.</p>
      <p style=""font-size: 15px;""> Before expressing your consent to participate, we would like to remind you again that in case you need explanations on any aspect of the experimental procedure, the researcher is at your disposition (<a href=""mailto:aliebelt@sissa.it"">aliebelt@sissa.it</a>, <a href=""mailto:davide.crepaldi@sissa.it"">davide.crepaldi@sissa.it</a>).</p>
      <p style=""font-size: 15px;"">If you would like to download the informed consent form, you can do so here: <a href=""BASL-Informed_Consent.pdf"" download>informed consent form</a>.</p>
      <p style=""font-size: 15px;"">We ask that you press the spacebar to proceed to the consent section.</p>","","","","","","","","",""
"survey-html-form","3","39188","0.0-3.0","6156a440279fdf408ee663ae","650c16f0f2faf8d7a0d14c09","651c1e502697d537867db5a1","16100","{""consent1"":""YES"",""consent2"":""YES"",""consent3"":""YES"",""consent4"":""YES"",""consent5"":""YES"",""consent6"":""YES""}","","","","","","","","","",""
"fullscreen","4","42267","0.0-4.0","6156a440279fdf408ee663ae","650c16f0f2faf8d7a0d14c09","651c1e502697d537867db5a1","","","","true","","","","","","","",""
"html-keyboard-response","5","55775","0.0-5.0","6156a440279fdf408ee663ae","650c16f0f2faf8d7a0d14c09","651c1e502697d537867db5a1","13507"," ","<p>Welcome, and thank you very much for your time!</p>
      <p>In this experiment, you'll be a language expert who's been asked to take a look at words that Earth has received in its first communication with aliens. Your task, in this first part of the experiment, is to pay close attention to the words you'll be shown; later, world leaders will ask you questions on what you saw. The words will be shown to you quite quickly; it seems that the aliens were in a hurry :-)</p>
      <p>Press the spacebar to continue.<p>","","","","","","","","",""
"html-keyboard-response","6","55828","0.0-6.0","6156a440279fdf408ee663ae","650c16f0f2faf8d7a0d14c09","651c1e502697d537867db5a1","null","null","<p style=""font-size: 120px; font-family: BACS""> </p>","","","","","","","","",""
"html-keyboard-response","7","58572","0.0-7.0","6156a440279fdf408ee663ae","650c16f0f2faf8d7a0d14c09","651c1e502697d537867db5a1","2743"," ","<p>Here is an example of the words you'll see:</p>
      <img src='esempio.png' height='400px'>
      <p>When you're ready to begin, press the spacebar.</p></div>","","","","","","","","",""
"html-keyboard-response","8","59580","0.0-8.0-0.0","6156a440279fdf408ee663ae","650c16f0f2faf8d7a0d14c09","651c1e502697d537867db5a1","null","null","<p style=""font-size: 60px; font-family: BACS"">damYbUbG</p>","","","","","","","","",""
"html-keyboard-response","9","60594","0.0-8.0-0.1","6156a440279fdf408ee663ae","650c16f0f2faf8d7a0d14c09","651c1e502697d537867db5a1","null","null","<p style=""font-size: 60px; font-family: BACS"">ktBdOtM</p>","","","","","","","","",""
"html-keyboard-response","10","61610","0.0-8.0-0.2","6156a440279fdf408ee663ae","650c16f0f2faf8d7a0d14c09","651c1e502697d537867db5a1","null","null","<p style=""font-size: 60px; font-family: BACS"">rkYLArv</p>","","","","","","","","",""
"html-keyboard-response","11","62627","0.0-8.0-0.3","6156a440279fdf408ee663ae","650c16f0f2faf8d7a0d14c09","651c1e502697d537867db5a1","null","null","<p style=""font-size: 60px; font-family: BACS"">NaAQdlvk</p>","","","","","","","","",""
"html-keyboard-response","12","63641","0.0-8.0-0.4","6156a440279fdf408ee663ae","650c16f0f2faf8d7a0d14c09","651c1e502697d537867db5a1","null","null","<p style=""font-size: 60px; font-family: BACS"">YlYcOMC</p>","","","","","","","","",""
"html-keyboard-response","13","64657","0.0-8.0-0.5","6156a440279fdf408ee663ae","650c16f0f2faf8d7a0d14c09","651c1e502697d537867db5a1","null","null","<p style=""font-size: 60px; font-family: BACS"">dRbDbOtM</p>","","","","","","","","",""
"html-keyboard-response","14","65672","0.0-8.0-0.6","6156a440279fdf408ee663ae","650c16f0f2faf8d7a0d14c09","651c1e502697d537867db5a1","null","null","<p style=""font-size: 60px; font-family: BACS"">vQdOUbG</p>","","","","","","","","",""
"html-keyboard-response","15","66688","0.0-8.0-0.7","6156a440279fdf408ee663ae","650c16f0f2faf8d7a0d14c09","651c1e502697d537867db5a1","null","null","<p style=""font-size: 60px; font-family: BACS"">YlYcOtM</p>","","","","","","","","",""
"html-keyboard-response","16","67704","0.0-8.0-0.8","6156a440279fdf408ee663ae","650c16f0f2faf8d7a0d14c09","651c1e502697d537867db5a1","null","null","<p style=""font-size: 60px; font-family: BACS"">alJYvcb</p>","","","","","","","","",""
"html-keyboard-response","17","68720","0.0-8.0-0.9","6156a440279fdf408ee663ae","650c16f0f2faf8d7a0d14c09","651c1e502697d537867db5a1","null","null","<p style=""font-size: 60px; font-family: BACS"">rkYLUbG</p>","","","","","","","","",""
"html-keyboard-response","18","69736","0.0-8.0-0.10","6156a440279fdf408ee663ae","650c16f0f2faf8d7a0d14c09","651c1e502697d537867db5a1","null","null","<p style=""font-size: 60px; font-family: BACS"">vQdOvcb</p>","","","","","","","","",""
"html-keyboard-response","19","70751","0.0-8.0-0.11","6156a440279fdf408ee663ae","650c16f0f2faf8d7a0d14c09","651c1e502697d537867db5a1","null","null","<p style=""font-size: 60px; font-family: BACS"">dRbDbOdOP</p>","","","","","","","","",""
"html-keyboard-response","20","71753","0.0-8.0-0.12","6156a440279fdf408ee663ae","650c16f0f2faf8d7a0d14c09","651c1e502697d537867db5a1","null","null","<p style=""font-size: 60px; font-family: BACS"">BPAlOtM</p>","","","","","","","","",""
"html-keyboard-response","21","72767","0.0-8.0-0.13","6156a440279fdf408ee663ae","650c16f0f2faf8d7a0d14c09","651c1e502697d537867db5a1","null","null","<p style=""font-size: 60px; font-family: BACS"">NaAQdkdrO</p>","","","","","","","","",""
"html-keyboard-response","22","73782","0.0-8.0-0.14","6156a440279fdf408ee663ae","650c16f0f2faf8d7a0d14c09","651c1e502697d537867db5a1","null","null","<p style=""font-size: 60px; font-family: BACS"">dRbDbmhc</p>","","","","","","","","",""
"html-keyboard-response","23","74798","0.0-8.0-0.15","6156a440279fdf408ee663ae","650c16f0f2faf8d7a0d14c09","651c1e502697d537867db5a1","null","null","<p style=""font-size: 60px; font-family: BACS"">lmbYUbG</p>","","","","","","","","",""
"html-keyboard-response","24","75815","0.0-8.0-0.16","6156a440279fdf408ee663ae","650c16f0f2faf8d7a0d14c09","651c1e502697d537867db5a1","null","null","<p style=""font-size: 60px; font-family: BACS"">dRbDbKEdl</p>","","","","","","","","",""
"html-keyboard-response","25","76830","0.0-8.0-0.17","6156a440279fdf408ee663ae","650c16f0f2faf8d7a0d14c09","651c1e502697d537867db5a1","null","null","<p style=""font-size: 60px; font-family: BACS"">UYZlZkdrO</p>","","","","","","","","",""
"html-keyboard-response","26","77836","0.0-8.0-0.18","6156a440279fdf408ee663ae","650c16f0f2faf8d7a0d14c09","651c1e502697d537867db5a1","null","null","<p style=""font-size: 60px; font-family: BACS"">PhktkOMC</p>","","","","","","","","",""
"html-keyboard-response","27","78838","0.0-8.0-0.19","6156a440279fdf408ee663ae","650c16f0f2faf8d7a0d14c09","651c1e502697d537867db5a1","null","null","<p style=""font-size: 60px; font-family: BACS"">alJYlvk</p>","","","","","","","","",""
"html-keyboard-response","28","79860","0.0-8.0-0.20","6156a440279fdf408ee663ae","650c16f0f2faf8d7a0d14c09","651c1e502697d537867db5a1","null","null","<p style=""font-size: 60px; font-family: BACS"">PhktkKEdl</p>","","","","","","","","",""
"html-keyboard-response","29","80876","0.0-8.0-0.21","6156a440279fdf408ee663ae","650c16f0f2faf8d7a0d14c09","651c1e502697d537867db5a1","null","null","<p style=""font-size: 60px; font-family: BACS"">ktBdOdOP</p>","","","","","","","","",""
"html-keyboard-response","30","82669","0.0-8.0-0.22","6156a440279fdf408ee663ae","650c16f0f2faf8d7a0d14c09","651c1e502697d537867db5a1","null","null","<p style=""font-size: 60px; font-family: BACS"">bmbNkdrO</p>","","","","","","","","",""
"html-keyboard-response","31","83672","0.0-8.0-0.23","6156a440279fdf408ee663ae","650c16f0f2faf8d7a0d14c09","651c1e502697d537867db5a1","null","null","<p style=""font-size: 60px; font-family: BACS"">BPAlKEdl</p>","","","","","","","","",""
"html-keyboard-response","32","84674","0.0-8.0-0.24","6156a440279fdf408ee663ae","650c16f0f2faf8d7a0d14c09","651c1e502697d537867db5a1","null","null","<p style=""font-size: 60px; font-family: BACS"">Udbdlvk</p>","","","","","","","","",""
"html-keyboard-response","33","85689","0.0-8.0-0.25","6156a440279fdf408ee663ae","650c16f0f2faf8d7a0d14c09","651c1e502697d537867db5a1","null","null","<p style=""font-size: 60px; font-family: BACS"">YObAmhc</p>","","","","","","","","",""
"html-keyboard-response","34","86704","0.0-8.0-0.26","6156a440279fdf408ee663ae","650c16f0f2faf8d7a0d14c09","651c1e502697d537867db5a1","null","null","<p style=""font-size: 60px; font-family: BACS"">UYZlZvcb</p>","","","","","","","","",""
"html-keyboard-response","35","87720","0.0-8.0-0.27","6156a440279fdf408ee663ae","650c16f0f2faf8d7a0d14c09","651c1e502697d537867db5a1","null","null","<p style=""font-size: 60px; font-family: BACS"">dMYBPOdOP</p>","","","","","","","","",""
"html-keyboard-response","36","88736","0.0-8.0-0.28","6156a440279fdf408ee663ae","650c16f0f2faf8d7a0d14c09","651c1e502697d537867db5a1","null","null","<p style=""font-size: 60px; font-family: BACS"">PhktkOtM</p>","","","","","","","","",""
"html-keyboard-response","37","89750","0.0-8.0-0.29","6156a440279fdf408ee663ae","650c16f0f2faf8d7a0d14c09","651c1e502697d537867db5a1","null","null","<p style=""font-size: 60px; font-family: BACS"">UdbdUbG</p>","","","","","","","","",""
"html-keyboard-response","38","90767","0.0-8.0-0.30","6156a440279fdf408ee663ae","650c16f0f2faf8d7a0d14c09","651c1e502697d537867db5a1","null","null","<p style=""font-size: 60px; font-family: BACS"">TAdhMOMC</p>","","","","","","","","",""
"html-keyboard-response","39","91782","0.0-8.0-0.31","6156a440279fdf408ee663ae","650c16f0f2faf8d7a0d14c09","651c1e502697d537867db5a1","null","null","<p style=""font-size: 60px; font-family: BACS"">UdbdkdrO</p>","","","","","","","","",""
"html-keyboard-response","40","92798","0.0-8.0-0.32","6156a440279fdf408ee663ae","650c16f0f2faf8d7a0d14c09","651c1e502697d537867db5a1","null","null","<p style=""font-size: 60px; font-family: BACS"">BPAlmhc</p>","","","","","","","","",""
"html-keyboard-response","41","93813","0.0-8.0-0.33","6156a440279fdf408ee663ae","650c16f0f2faf8d7a0d14c09","651c1e502697d537867db5a1","null","null","<p style=""font-size: 60px; font-family: BACS"">alJYkdrO</p>","","","","","","","","",""
"html-keyboard-response","42","94829","0.0-8.0-0.34","6156a440279fdf408ee663ae","650c16f0f2faf8d7a0d14c09","651c1e502697d537867db5a1","null","null","<p style=""font-size: 60px; font-family: BACS"">TAdhMOtM</p>","","","","","","","","",""
"html-keyboard-response","43","95845","0.0-8.0-0.35","6156a440279fdf408ee663ae","650c16f0f2faf8d7a0d14c09","651c1e502697d537867db5a1","null","null","<p style=""font-size: 60px; font-family: BACS"">NaJbArv</p>","","","","","","","","",""
"html-keyboard-response","44","96860","0.0-8.0-0.36","6156a440279fdf408ee663ae","650c16f0f2faf8d7a0d14c09","651c1e502697d537867db5a1","null","null","<p style=""font-size: 60px; font-family: BACS"">lKdbcOMC</p>","","","","","","","","",""
"html-keyboard-response","45","97876","0.0-8.0-0.37","6156a440279fdf408ee663ae","650c16f0f2faf8d7a0d14c09","651c1e502697d537867db5a1","null","null","<p style=""font-size: 60px; font-family: BACS"">YlYcmhc</p>","","","","","","","","",""
"html-keyboard-response","46","98891","0.0-8.0-0.38","6156a440279fdf408ee663ae","650c16f0f2faf8d7a0d14c09","651c1e502697d537867db5a1","null","null","<p style=""font-size: 60px; font-family: BACS"">UYZlZArv</p>","","","","","","","","",""
"html-keyboard-response","47","99907","0.0-8.0-0.39","6156a440279fdf408ee663ae","650c16f0f2faf8d7a0d14c09","651c1e502697d537867db5a1","null","null","<p style=""font-size: 60px; font-family: BACS"">dMYBPOtM</p>","","","","","","","","",""
"html-keyboard-response","48","100923","0.0-8.0-0.40","6156a440279fdf408ee663ae","650c16f0f2faf8d7a0d14c09","651c1e502697d537867db5a1","null","null","<p style=""font-size: 60px; font-family: BACS"">alJYArv</p>","","","","","","","","",""
"html-keyboard-response","49","101938","0.0-8.0-0.41","6156a440279fdf408ee663ae","650c16f0f2faf8d7a0d14c09","651c1e502697d537867db5a1","null","null","<p style=""font-size: 60px; font-family: BACS"">RtRhOtM</p>","","","","","","","","",""
"html-keyboard-response","50","102954","0.0-8.0-0.42","6156a440279fdf408ee663ae","650c16f0f2faf8d7a0d14c09","651c1e502697d537867db5a1","null","null","<p style=""font-size: 60px; font-family: BACS"">YObAKEdl</p>","","","","","","","","",""
"html-keyboard-response","51","103970","0.0-8.0-0.43","6156a440279fdf408ee663ae","650c16f0f2faf8d7a0d14c09","651c1e502697d537867db5a1","null","null","<p style=""font-size: 60px; font-family: BACS"">lmbYkdrO</p>","","","","","","","","",""
"html-keyboard-response","52","104985","0.0-8.0-0.44","6156a440279fdf408ee663ae","650c16f0f2faf8d7a0d14c09","651c1e502697d537867db5a1","null","null","<p style=""font-size: 60px; font-family: BACS"">damYblvk</p>","","","","","","","","",""
"html-keyboard-response","53","106001","0.0-8.0-0.45","6156a440279fdf408ee663ae","650c16f0f2faf8d7a0d14c09","651c1e502697d537867db5a1","null","null","<p style=""font-size: 60px; font-family: BACS"">UYZlZUbG</p>","","","","","","","","",""
"html-keyboard-response","54","107016","0.0-8.0-0.46","6156a440279fdf408ee663ae","650c16f0f2faf8d7a0d14c09","651c1e502697d537867db5a1","null","null","<p style=""font-size: 60px; font-family: BACS"">lKdbcKEdl</p>","","","","","","","","",""
"html-keyboard-response","55","108032","0.0-8.0-0.47","6156a440279fdf408ee663ae","650c16f0f2faf8d7a0d14c09","651c1e502697d537867db5a1","null","null","<p style=""font-size: 60px; font-family: BACS"">RtRhmhc</p>","","","","","","","","",""
"html-keyboard-response","56","109048","0.0-8.0-0.48","6156a440279fdf408ee663ae","650c16f0f2faf8d7a0d14c09","651c1e502697d537867db5a1","null","null","<p style=""font-size: 60px; font-family: BACS"">YObAOMC</p>","","","","","","","","",""
"html-keyboard-response","57","110063","0.0-8.0-0.49","6156a440279fdf408ee663ae","650c16f0f2faf8d7a0d14c09","651c1e502697d537867db5a1","null","null","<p style=""font-size: 60px; font-family: BACS"">ktBdKEdl</p>","","","","","","","","",""
"html-keyboard-response","58","111079","0.0-8.0-0.50","6156a440279fdf408ee663ae","650c16f0f2faf8d7a0d14c09","651c1e502697d537867db5a1","null","null","<p style=""font-size: 60px; font-family: BACS"">Udbdvcb</p>","","","","","","","","",""
"html-keyboard-response","59","112095","0.0-8.0-0.51","6156a440279fdf408ee663ae","650c16f0f2faf8d7a0d14c09","651c1e502697d537867db5a1","null","null","<p style=""font-size: 60px; font-family: BACS"">BPAlOdOP</p>","","","","","","","","",""
"html-keyboard-response","60","113110","0.0-8.0-0.52","6156a440279fdf408ee663ae","650c16f0f2faf8d7a0d14c09","651c1e502697d537867db5a1","null","null","<p style=""font-size: 60px; font-family: BACS"">vQdOlvk</p>","","","","","","","","",""
"html-keyboard-response","61","114126","0.0-8.0-0.53","6156a440279fdf408ee663ae","650c16f0f2faf8d7a0d14c09","651c1e502697d537867db5a1","null","null","<p style=""font-size: 60px; font-family: BACS"">RtRhOMC</p>","","","","","","","","",""
"html-keyboard-response","62","115143","0.0-8.0-0.54","6156a440279fdf408ee663ae","650c16f0f2faf8d7a0d14c09","651c1e502697d537867db5a1","null","null","<p style=""font-size: 60px; font-family: BACS"">lmbYArv</p>","","","","","","","","",""
"html-keyboard-response","63","116157","0.0-8.0-0.55","6156a440279fdf408ee663ae","650c16f0f2faf8d7a0d14c09","651c1e502697d537867db5a1","null","null","<p style=""font-size: 60px; font-family: BACS"">dMYBPOMC</p>","","","","","","","","",""
"html-keyboard-response","64","117173","0.0-8.0-0.56","6156a440279fdf408ee663ae","650c16f0f2faf8d7a0d14c09","651c1e502697d537867db5a1","null","null","<p style=""font-size: 60px; font-family: BACS"">rkYLvcb</p>","","","","","","","","",""
"html-keyboard-response","65","118189","0.0-8.0-0.57","6156a440279fdf408ee663ae","650c16f0f2faf8d7a0d14c09","651c1e502697d537867db5a1","null","null","<p style=""font-size: 60px; font-family: BACS"">YObAOdOP</p>","","","","","","","","",""
"html-keyboard-response","66","119204","0.0-8.0-0.58","6156a440279fdf408ee663ae","650c16f0f2faf8d7a0d14c09","651c1e502697d537867db5a1","null","null","<p style=""font-size: 60px; font-family: BACS"">NaJbvcb</p>","","","","","","","","",""
"html-keyboard-response","67","120219","0.0-8.0-0.59","6156a440279fdf408ee663ae","650c16f0f2faf8d7a0d14c09","651c1e502697d537867db5a1","null","null","<p style=""font-size: 60px; font-family: BACS"">RtRhKEdl</p>","","","","","","","","",""
"html-keyboard-response","68","121235","0.0-8.0-0.60","6156a440279fdf408ee663ae","650c16f0f2faf8d7a0d14c09","651c1e502697d537867db5a1","null","null","<p style=""font-size: 60px; font-family: BACS"">TAdhMmhc</p>","","","","","","","","",""
"html-keyboard-response","69","122250","0.0-8.0-0.61","6156a440279fdf408ee663ae","650c16f0f2faf8d7a0d14c09","651c1e502697d537867db5a1","null","null","<p style=""font-size: 60px; font-family: BACS"">rkYLkdrO</p>","","","","","","","","",""
"html-keyboard-response","70","123266","0.0-8.0-0.62","6156a440279fdf408ee663ae","650c16f0f2faf8d7a0d14c09","651c1e502697d537867db5a1","null","null","<p style=""font-size: 60px; font-family: BACS"">vQdOArv</p>","","","","","","","","",""
"html-keyboard-response","71","124281","0.0-8.0-0.63","6156a440279fdf408ee663ae","650c16f0f2faf8d7a0d14c09","651c1e502697d537867db5a1","null","null","<p style=""font-size: 60px; font-family: BACS"">bmbNlvk</p>","","","","","","","","",""
"html-keyboard-response","72","125297","0.0-8.0-0.64","6156a440279fdf408ee663ae","650c16f0f2faf8d7a0d14c09","651c1e502697d537867db5a1","null","null","<p style=""font-size: 60px; font-family: BACS"">TAdhMOdOP</p>","","","","","","","","",""
"html-keyboard-response","73","126313","0.0-8.0-0.65","6156a440279fdf408ee663ae","650c16f0f2faf8d7a0d14c09","651c1e502697d537867db5a1","null","null","<p style=""font-size: 60px; font-family: BACS"">NaJblvk</p>","","","","","","","","",""
"html-keyboard-response","74","127329","0.0-8.0-0.66","6156a440279fdf408ee663ae","650c16f0f2faf8d7a0d14c09","651c1e502697d537867db5a1","null","null","<p style=""font-size: 60px; font-family: BACS"">bmbNArv</p>","","","","","","","","",""
"html-keyboard-response","75","128344","0.0-8.0-0.67","6156a440279fdf408ee663ae","650c16f0f2faf8d7a0d14c09","651c1e502697d537867db5a1","null","null","<p style=""font-size: 60px; font-family: BACS"">NaAQdUbG</p>","","","","","","","","",""
"html-keyboard-response","76","129360","0.0-8.0-0.68","6156a440279fdf408ee663ae","650c16f0f2faf8d7a0d14c09","651c1e502697d537867db5a1","null","null","<p style=""font-size: 60px; font-family: BACS"">YlYcOdOP</p>","","","","","","","","",""
"html-keyboard-response","77","130376","0.0-8.0-0.69","6156a440279fdf408ee663ae","650c16f0f2faf8d7a0d14c09","651c1e502697d537867db5a1","null","null","<p style=""font-size: 60px; font-family: BACS"">damYbkdrO</p>","","","","","","","","",""
"html-keyboard-response","78","131391","0.0-8.0-0.70","6156a440279fdf408ee663ae","650c16f0f2faf8d7a0d14c09","651c1e502697d537867db5a1","null","null","<p style=""font-size: 60px; font-family: BACS"">ktBdOMC</p>","","","","","","","","",""
"html-keyboard-response","79","132407","0.0-8.0-0.71","6156a440279fdf408ee663ae","650c16f0f2faf8d7a0d14c09","651c1e502697d537867db5a1","null","null","<p style=""font-size: 60px; font-family: BACS"">damYbvcb</p>","","","","","","","","",""
"html-keyboard-response","80","133422","0.0-8.0-0.72","6156a440279fdf408ee663ae","650c16f0f2faf8d7a0d14c09","651c1e502697d537867db5a1","null","null","<p style=""font-size: 60px; font-family: BACS"">NaAQdArv</p>","","","","","","","","",""
"html-keyboard-response","81","134437","0.0-8.0-0.73","6156a440279fdf408ee663ae","650c16f0f2faf8d7a0d14c09","651c1e502697d537867db5a1","null","null","<p style=""font-size: 60px; font-family: BACS"">lKdbcOdOP</p>","","","","","","","","",""
"html-keyboard-response","82","135453","0.0-8.0-0.74","6156a440279fdf408ee663ae","650c16f0f2faf8d7a0d14c09","651c1e502697d537867db5a1","null","null","<p style=""font-size: 60px; font-family: BACS"">NaJbUbG</p>","","","","","","","","",""
"html-keyboard-response","83","136469","0.0-8.0-0.75","6156a440279fdf408ee663ae","650c16f0f2faf8d7a0d14c09","651c1e502697d537867db5a1","null","null","<p style=""font-size: 60px; font-family: BACS"">bmbNvcb</p>","","","","","","","","",""
"html-keyboard-response","84","137484","0.0-8.0-0.76","6156a440279fdf408ee663ae","650c16f0f2faf8d7a0d14c09","651c1e502697d537867db5a1","null","null","<p style=""font-size: 60px; font-family: BACS"">lmbYlvk</p>","","","","","","","","",""
"html-keyboard-response","85","138485","0.0-8.0-0.77","6156a440279fdf408ee663ae","650c16f0f2faf8d7a0d14c09","651c1e502697d537867db5a1","null","null","<p style=""font-size: 60px; font-family: BACS"">lKdbcmhc</p>","","","","","","","","",""
"html-keyboard-response","86","139500","0.0-8.0-0.78","6156a440279fdf408ee663ae","650c16f0f2faf8d7a0d14c09","651c1e502697d537867db5a1","null","null","<p style=""font-size: 60px; font-family: BACS"">dMYBPKEdl</p>","","","","","","","","",""
"html-keyboard-response","87","140516","0.0-8.0-0.79","6156a440279fdf408ee663ae","650c16f0f2faf8d7a0d14c09","651c1e502697d537867db5a1","null","null","<p style=""font-size: 60px; font-family: BACS"">Phktkmhc</p>","","","","","","","","",""
"html-keyboard-response","88","149214","0.0-9.0","6156a440279fdf408ee663ae","650c16f0f2faf8d7a0d14c09","651c1e502697d537867db5a1","8697"," ","<p>Great, you've seen the first block of words. You may now take a short break.</p>
      <p>Press the spacebar when you're ready to continue.</p>","","","","","","","","",""
"html-keyboard-response","89","150219","0.0-10.0-0.0","6156a440279fdf408ee663ae","650c16f0f2faf8d7a0d14c09","651c1e502697d537867db5a1","null","null","<p style=""font-size: 60px; font-family: BACS"">dMYBPOtM</p>","","","","","","","","",""
"html-keyboard-response","90","151235","0.0-10.0-0.1","6156a440279fdf408ee663ae","650c16f0f2faf8d7a0d14c09","651c1e502697d537867db5a1","null","null","<p style=""font-size: 60px; font-family: BACS"">UYZlZkdrO</p>","","","","","","","","",""
"html-keyboard-response","91","152251","0.0-10.0-0.2","6156a440279fdf408ee663ae","650c16f0f2faf8d7a0d14c09","651c1e502697d537867db5a1","null","null","<p style=""font-size: 60px; font-family: BACS"">RtRhKEdl</p>","","","","","","","","",""
"html-keyboard-response","92","153253","0.0-10.0-0.3","6156a440279fdf408ee663ae","650c16f0f2faf8d7a0d14c09","651c1e502697d537867db5a1","null","null","<p style=""font-size: 60px; font-family: BACS"">lKdbcOMC</p>","","","","","","","","",""
"html-keyboard-response","93","154266","0.0-10.0-0.4","6156a440279fdf408ee663ae","650c16f0f2faf8d7a0d14c09","651c1e502697d537867db5a1","null","null","<p style=""font-size: 60px; font-family: BACS"">dMYBPOdOP</p>","","","","","","","","",""
"html-keyboard-response","94","155267","0.0-10.0-0.5","6156a440279fdf408ee663ae","650c16f0f2faf8d7a0d14c09","651c1e502697d537867db5a1","null","null","<p style=""font-size: 60px; font-family: BACS"">bmbNArv</p>","","","","","","","","",""
"html-keyboard-response","95","156282","0.0-10.0-0.6","6156a440279fdf408ee663ae","650c16f0f2faf8d7a0d14c09","651c1e502697d537867db5a1","null","null","<p style=""font-size: 60px; font-family: BACS"">NaJbUbG</p>","","","","","","","","",""
"html-keyboard-response","96","157297","0.0-10.0-0.7","6156a440279fdf408ee663ae","650c16f0f2faf8d7a0d14c09","651c1e502697d537867db5a1","null","null","<p style=""font-size: 60px; font-family: BACS"">damYbvcb</p>","","","","","","","","",""
"html-keyboard-response","97","158313","0.0-10.0-0.8","6156a440279fdf408ee663ae","650c16f0f2faf8d7a0d14c09","651c1e502697d537867db5a1","null","null","<p style=""font-size: 60px; font-family: BACS"">YlYcOtM</p>","","","","","","","","",""
"html-keyboard-response","98","159328","0.0-10.0-0.9","6156a440279fdf408ee663ae","650c16f0f2faf8d7a0d14c09","651c1e502697d537867db5a1","null","null","<p style=""font-size: 60px; font-family: BACS"">PhktkOMC</p>","","","","","","","","",""
"html-keyboard-response","99","160344","0.0-10.0-0.10","6156a440279fdf408ee663ae","650c16f0f2faf8d7a0d14c09","651c1e502697d537867db5a1","null","null","<p style=""font-size: 60px; font-family: BACS"">dRbDbOdOP</p>","","","","","","","","",""
"html-keyboard-response","100","161360","0.0-10.0-0.11","6156a440279fdf408ee663ae","650c16f0f2faf8d7a0d14c09","651c1e502697d537867db5a1","null","null","<p style=""font-size: 60px; font-family: BACS"">dMYBPOMC</p>","","","","","","","","",""
"html-keyboard-response","101","162375","0.0-10.0-0.12","6156a440279fdf408ee663ae","650c16f0f2faf8d7a0d14c09","651c1e502697d537867db5a1","null","null","<p style=""font-size: 60px; font-family: BACS"">lKdbcKEdl</p>","","","","","","","","",""
"html-keyboard-response","102","163391","0.0-10.0-0.13","6156a440279fdf408ee663ae","650c16f0f2faf8d7a0d14c09","651c1e502697d537867db5a1","null","null","<p style=""font-size: 60px; font-family: BACS"">ktBdOdOP</p>","","","","","","","","",""
"html-keyboard-response","103","164407","0.0-10.0-0.14","6156a440279fdf408ee663ae","650c16f0f2faf8d7a0d14c09","651c1e502697d537867db5a1","null","null","<p style=""font-size: 60px; font-family: BACS"">TAdhMOtM</p>","","","","","","","","",""
"html-keyboard-response","104","165422","0.0-10.0-0.15","6156a440279fdf408ee663ae","650c16f0f2faf8d7a0d14c09","651c1e502697d537867db5a1","null","null","<p style=""font-size: 60px; font-family: BACS"">YObAKEdl</p>","","","","","","","","",""
"html-keyboard-response","105","166438","0.0-10.0-0.16","6156a440279fdf408ee663ae","650c16f0f2faf8d7a0d14c09","651c1e502697d537867db5a1","null","null","<p style=""font-size: 60px; font-family: BACS"">RtRhOMC</p>","","","","","","","","",""
"html-keyboard-response","106","167453","0.0-10.0-0.17","6156a440279fdf408ee663ae","650c16f0f2faf8d7a0d14c09","651c1e502697d537867db5a1","null","null","<p style=""font-size: 60px; font-family: BACS"">bmbNlvk</p>","","","","","","","","",""
"html-keyboard-response","107","168469","0.0-10.0-0.18","6156a440279fdf408ee663ae","650c16f0f2faf8d7a0d14c09","651c1e502697d537867db5a1","null","null","<p style=""font-size: 60px; font-family: BACS"">ktBdOtM</p>","","","","","","","","",""
"html-keyboard-response","108","169485","0.0-10.0-0.19","6156a440279fdf408ee663ae","650c16f0f2faf8d7a0d14c09","651c1e502697d537867db5a1","null","null","<p style=""font-size: 60px; font-family: BACS"">UYZlZArv</p>","","","","","","","","",""
"html-keyboard-response","109","170500","0.0-10.0-0.20","6156a440279fdf408ee663ae","650c16f0f2faf8d7a0d14c09","651c1e502697d537867db5a1","null","null","<p style=""font-size: 60px; font-family: BACS"">PhktkOtM</p>","","","","","","","","",""
"html-keyboard-response","110","171516","0.0-10.0-0.21","6156a440279fdf408ee663ae","650c16f0f2faf8d7a0d14c09","651c1e502697d537867db5a1","null","null","<p style=""font-size: 60px; font-family: BACS"">TAdhMmhc</p>","","","","","","","","",""
"html-keyboard-response","111","172532","0.0-10.0-0.22","6156a440279fdf408ee663ae","650c16f0f2faf8d7a0d14c09","651c1e502697d537867db5a1","null","null","<p style=""font-size: 60px; font-family: BACS"">vQdOlvk</p>","","","","","","","","",""
"html-keyboard-response","112","173548","0.0-10.0-0.23","6156a440279fdf408ee663ae","650c16f0f2faf8d7a0d14c09","651c1e502697d537867db5a1","null","null","<p style=""font-size: 60px; font-family: BACS"">YObAmhc</p>","","","","","","","","",""
"html-keyboard-response","113","174563","0.0-10.0-0.24","6156a440279fdf408ee663ae","650c16f0f2faf8d7a0d14c09","651c1e502697d537867db5a1","null","null","<p style=""font-size: 60px; font-family: BACS"">TAdhMOMC</p>","","","","","","","","",""
"html-keyboard-response","114","175578","0.0-10.0-0.25","6156a440279fdf408ee663ae","650c16f0f2faf8d7a0d14c09","651c1e502697d537867db5a1","null","null","<p style=""font-size: 60px; font-family: BACS"">YObAOdOP</p>","","","","","","","","",""
"html-keyboard-response","115","176594","0.0-10.0-0.26","6156a440279fdf408ee663ae","650c16f0f2faf8d7a0d14c09","651c1e502697d537867db5a1","null","null","<p style=""font-size: 60px; font-family: BACS"">NaAQdkdrO</p>","","","","","","","","",""
"html-keyboard-response","116","177610","0.0-10.0-0.27","6156a440279fdf408ee663ae","650c16f0f2faf8d7a0d14c09","651c1e502697d537867db5a1","null","null","<p style=""font-size: 60px; font-family: BACS"">lmbYArv</p>","","","","","","","","",""
"html-keyboard-response","117","178625","0.0-10.0-0.28","6156a440279fdf408ee663ae","650c16f0f2faf8d7a0d14c09","651c1e502697d537867db5a1","null","null","<p style=""font-size: 60px; font-family: BACS"">RtRhmhc</p>","","","","","","","","",""
"html-keyboard-response","118","179641","0.0-10.0-0.29","6156a440279fdf408ee663ae","650c16f0f2faf8d7a0d14c09","651c1e502697d537867db5a1","null","null","<p style=""font-size: 60px; font-family: BACS"">UYZlZUbG</p>","","","","","","","","",""
"html-keyboard-response","119","180641","0.0-10.0-0.30","6156a440279fdf408ee663ae","650c16f0f2faf8d7a0d14c09","651c1e502697d537867db5a1","null","null","<p style=""font-size: 60px; font-family: BACS"">YObAOMC</p>","","","","","","","","",""
"html-keyboard-response","120","181656","0.0-10.0-0.31","6156a440279fdf408ee663ae","650c16f0f2faf8d7a0d14c09","651c1e502697d537867db5a1","null","null","<p style=""font-size: 60px; font-family: BACS"">ktBdKEdl</p>","","","","","","","","",""
"html-keyboard-response","121","182672","0.0-10.0-0.32","6156a440279fdf408ee663ae","650c16f0f2faf8d7a0d14c09","651c1e502697d537867db5a1","null","null","<p style=""font-size: 60px; font-family: BACS"">alJYArv</p>","","","","","","","","",""
"html-keyboard-response","122","183687","0.0-10.0-0.33","6156a440279fdf408ee663ae","650c16f0f2faf8d7a0d14c09","651c1e502697d537867db5a1","null","null","<p style=""font-size: 60px; font-family: BACS"">rkYLvcb</p>","","","","","","","","",""
"html-keyboard-response","123","184702","0.0-10.0-0.34","6156a440279fdf408ee663ae","650c16f0f2faf8d7a0d14c09","651c1e502697d537867db5a1","null","null","<p style=""font-size: 60px; font-family: BACS"">dRbDbmhc</p>","","","","","","","","",""
"html-keyboard-response","124","185719","0.0-10.0-0.35","6156a440279fdf408ee663ae","650c16f0f2faf8d7a0d14c09","651c1e502697d537867db5a1","null","null","<p style=""font-size: 60px; font-family: BACS"">damYbUbG</p>","","","","","","","","",""
"html-keyboard-response","125","186734","0.0-10.0-0.36","6156a440279fdf408ee663ae","650c16f0f2faf8d7a0d14c09","651c1e502697d537867db5a1","null","null","<p style=""font-size: 60px; font-family: BACS"">vQdOArv</p>","","","","","","","","",""
"html-keyboard-response","126","187750","0.0-10.0-0.37","6156a440279fdf408ee663ae","650c16f0f2faf8d7a0d14c09","651c1e502697d537867db5a1","null","null","<p style=""font-size: 60px; font-family: BACS"">dMYBPKEdl</p>","","","","","","","","",""
"html-keyboard-response","127","188765","0.0-10.0-0.38","6156a440279fdf408ee663ae","650c16f0f2faf8d7a0d14c09","651c1e502697d537867db5a1","null","null","<p style=""font-size: 60px; font-family: BACS"">alJYkdrO</p>","","","","","","","","",""
"html-keyboard-response","128","189781","0.0-10.0-0.39","6156a440279fdf408ee663ae","650c16f0f2faf8d7a0d14c09","651c1e502697d537867db5a1","null","null","<p style=""font-size: 60px; font-family: BACS"">YlYcOdOP</p>","","","","","","","","",""
"html-keyboard-response","129","190797","0.0-10.0-0.40","6156a440279fdf408ee663ae","650c16f0f2faf8d7a0d14c09","651c1e502697d537867db5a1","null","null","<p style=""font-size: 60px; font-family: BACS"">rkYLArv</p>","","","","","","","","",""
"html-keyboard-response","130","191812","0.0-10.0-0.41","6156a440279fdf408ee663ae","650c16f0f2faf8d7a0d14c09","651c1e502697d537867db5a1","null","null","<p style=""font-size: 60px; font-family: BACS"">Phktkmhc</p>","","","","","","","","",""
"html-keyboard-response","131","192827","0.0-10.0-0.42","6156a440279fdf408ee663ae","650c16f0f2faf8d7a0d14c09","651c1e502697d537867db5a1","null","null","<p style=""font-size: 60px; font-family: BACS"">lKdbcOdOP</p>","","","","","","","","",""
"html-keyboard-response","132","193843","0.0-10.0-0.43","6156a440279fdf408ee663ae","650c16f0f2faf8d7a0d14c09","651c1e502697d537867db5a1","null","null","<p style=""font-size: 60px; font-family: BACS"">dRbDbKEdl</p>","","","","","","","","",""
"html-keyboard-response","133","194859","0.0-10.0-0.44","6156a440279fdf408ee663ae","650c16f0f2faf8d7a0d14c09","651c1e502697d537867db5a1","null","null","<p style=""font-size: 60px; font-family: BACS"">RtRhOtM</p>","","","","","","","","",""
"html-keyboard-response","134","195874","0.0-10.0-0.45","6156a440279fdf408ee663ae","650c16f0f2faf8d7a0d14c09","651c1e502697d537867db5a1","null","null","<p style=""font-size: 60px; font-family: BACS"">TAdhMOdOP</p>","","","","","","","","",""
"html-keyboard-response","135","196875","0.0-10.0-0.46","6156a440279fdf408ee663ae","650c16f0f2faf8d7a0d14c09","651c1e502697d537867db5a1","null","null","<p style=""font-size: 60px; font-family: BACS"">UYZlZvcb</p>","","","","","","","","",""
"html-keyboard-response","136","197891","0.0-10.0-0.47","6156a440279fdf408ee663ae","650c16f0f2faf8d7a0d14c09","651c1e502697d537867db5a1","null","null","<p style=""font-size: 60px; font-family: BACS"">BPAlOdOP</p>","","","","","","","","",""
"html-keyboard-response","137","198906","0.0-10.0-0.48","6156a440279fdf408ee663ae","650c16f0f2faf8d7a0d14c09","651c1e502697d537867db5a1","null","null","<p style=""font-size: 60px; font-family: BACS"">rkYLUbG</p>","","","","","","","","",""
"html-keyboard-response","138","199921","0.0-10.0-0.49","6156a440279fdf408ee663ae","650c16f0f2faf8d7a0d14c09","651c1e502697d537867db5a1","null","null","<p style=""font-size: 60px; font-family: BACS"">lKdbcmhc</p>","","","","","","","","",""
"html-keyboard-response","139","200937","0.0-10.0-0.50","6156a440279fdf408ee663ae","650c16f0f2faf8d7a0d14c09","651c1e502697d537867db5a1","null","null","<p style=""font-size: 60px; font-family: BACS"">Udbdvcb</p>","","","","","","","","",""
"html-keyboard-response","140","201953","0.0-10.0-0.51","6156a440279fdf408ee663ae","650c16f0f2faf8d7a0d14c09","651c1e502697d537867db5a1","null","null","<p style=""font-size: 60px; font-family: BACS"">dRbDbOtM</p>","","","","","","","","",""
"html-keyboard-response","141","202969","0.0-10.0-0.52","6156a440279fdf408ee663ae","650c16f0f2faf8d7a0d14c09","651c1e502697d537867db5a1","null","null","<p style=""font-size: 60px; font-family: BACS"">UdbdUbG</p>","","","","","","","","",""
"html-keyboard-response","142","203984","0.0-10.0-0.53","6156a440279fdf408ee663ae","650c16f0f2faf8d7a0d14c09","651c1e502697d537867db5a1","null","null","<p style=""font-size: 60px; font-family: BACS"">NaAQdArv</p>","","","","","","","","",""
"html-keyboard-response","143","205000","0.0-10.0-0.54","6156a440279fdf408ee663ae","650c16f0f2faf8d7a0d14c09","651c1e502697d537867db5a1","null","null","<p style=""font-size: 60px; font-family: BACS"">vQdOvcb</p>","","","","","","","","",""
"html-keyboard-response","144","206015","0.0-10.0-0.55","6156a440279fdf408ee663ae","650c16f0f2faf8d7a0d14c09","651c1e502697d537867db5a1","null","null","<p style=""font-size: 60px; font-family: BACS"">damYblvk</p>","","","","","","","","",""
"html-keyboard-response","145","207032","0.0-10.0-0.56","6156a440279fdf408ee663ae","650c16f0f2faf8d7a0d14c09","651c1e502697d537867db5a1","null","null","<p style=""font-size: 60px; font-family: BACS"">rkYLkdrO</p>","","","","","","","","",""
"html-keyboard-response","146","208046","0.0-10.0-0.57","6156a440279fdf408ee663ae","650c16f0f2faf8d7a0d14c09","651c1e502697d537867db5a1","null","null","<p style=""font-size: 60px; font-family: BACS"">BPAlOtM</p>","","","","","","","","",""
"html-keyboard-response","147","209062","0.0-10.0-0.58","6156a440279fdf408ee663ae","650c16f0f2faf8d7a0d14c09","651c1e502697d537867db5a1","null","null","<p style=""font-size: 60px; font-family: BACS"">damYbkdrO</p>","","","","","","","","",""
"html-keyboard-response","148","210078","0.0-10.0-0.59","6156a440279fdf408ee663ae","650c16f0f2faf8d7a0d14c09","651c1e502697d537867db5a1","null","null","<p style=""font-size: 60px; font-family: BACS"">bmbNvcb</p>","","","","","","","","",""
"html-keyboard-response","149","211094","0.0-10.0-0.60","6156a440279fdf408ee663ae","650c16f0f2faf8d7a0d14c09","651c1e502697d537867db5a1","null","null","<p style=""font-size: 60px; font-family: BACS"">NaAQdlvk</p>","","","","","","","","",""
"html-keyboard-response","150","212109","0.0-10.0-0.61","6156a440279fdf408ee663ae","650c16f0f2faf8d7a0d14c09","651c1e502697d537867db5a1","null","null","<p style=""font-size: 60px; font-family: BACS"">YlYcmhc</p>","","","","","","","","",""
"html-keyboard-response","151","213125","0.0-10.0-0.62","6156a440279fdf408ee663ae","650c16f0f2faf8d7a0d14c09","651c1e502697d537867db5a1","null","null","<p style=""font-size: 60px; font-family: BACS"">PhktkKEdl</p>","","","","","","","","",""
"html-keyboard-response","152","214140","0.0-10.0-0.63","6156a440279fdf408ee663ae","650c16f0f2faf8d7a0d14c09","651c1e502697d537867db5a1","null","null","<p style=""font-size: 60px; font-family: BACS"">lmbYlvk</p>","","","","","","","","",""
"html-keyboard-response","153","215156","0.0-10.0-0.64","6156a440279fdf408ee663ae","650c16f0f2faf8d7a0d14c09","651c1e502697d537867db5a1","null","null","<p style=""font-size: 60px; font-family: BACS"">alJYvcb</p>","","","","","","","","",""
"html-keyboard-response","154","216172","0.0-10.0-0.65","6156a440279fdf408ee663ae","650c16f0f2faf8d7a0d14c09","651c1e502697d537867db5a1","null","null","<p style=""font-size: 60px; font-family: BACS"">BPAlmhc</p>","","","","","","","","",""
"html-keyboard-response","155","217187","0.0-10.0-0.66","6156a440279fdf408ee663ae","650c16f0f2faf8d7a0d14c09","651c1e502697d537867db5a1","null","null","<p style=""font-size: 60px; font-family: BACS"">ktBdOMC</p>","","","","","","","","",""
"html-keyboard-response","156","218203","0.0-10.0-0.67","6156a440279fdf408ee663ae","650c16f0f2faf8d7a0d14c09","651c1e502697d537867db5a1","null","null","<p style=""font-size: 60px; font-family: BACS"">NaJbArv</p>","","","","","","","","",""
"html-keyboard-response","157","219219","0.0-10.0-0.68","6156a440279fdf408ee663ae","650c16f0f2faf8d7a0d14c09","651c1e502697d537867db5a1","null","null","<p style=""font-size: 60px; font-family: BACS"">YlYcOMC</p>","","","","","","","","",""
"html-keyboard-response","158","220234","0.0-10.0-0.69","6156a440279fdf408ee663ae","650c16f0f2faf8d7a0d14c09","651c1e502697d537867db5a1","null","null","<p style=""font-size: 60px; font-family: BACS"">alJYlvk</p>","","","","","","","","",""
"html-keyboard-response","159","221250","0.0-10.0-0.70","6156a440279fdf408ee663ae","650c16f0f2faf8d7a0d14c09","651c1e502697d537867db5a1","null","null","<p style=""font-size: 60px; font-family: BACS"">vQdOUbG</p>","","","","","","","","",""
"html-keyboard-response","160","222265","0.0-10.0-0.71","6156a440279fdf408ee663ae","650c16f0f2faf8d7a0d14c09","651c1e502697d537867db5a1","null","null","<p style=""font-size: 60px; font-family: BACS"">UdbdkdrO</p>","","","","","","","","",""
"html-keyboard-response","161","223281","0.0-10.0-0.72","6156a440279fdf408ee663ae","650c16f0f2faf8d7a0d14c09","651c1e502697d537867db5a1","null","null","<p style=""font-size: 60px; font-family: BACS"">NaJbvcb</p>","","","","","","","","",""
"html-keyboard-response","162","224297","0.0-10.0-0.73","6156a440279fdf408ee663ae","650c16f0f2faf8d7a0d14c09","651c1e502697d537867db5a1","null","null","<p style=""font-size: 60px; font-family: BACS"">lmbYUbG</p>","","","","","","","","",""
"html-keyboard-response","163","225312","0.0-10.0-0.74","6156a440279fdf408ee663ae","650c16f0f2faf8d7a0d14c09","651c1e502697d537867db5a1","null","null","<p style=""font-size: 60px; font-family: BACS"">NaJblvk</p>","","","","","","","","",""
"html-keyboard-response","164","226327","0.0-10.0-0.75","6156a440279fdf408ee663ae","650c16f0f2faf8d7a0d14c09","651c1e502697d537867db5a1","null","null","<p style=""font-size: 60px; font-family: BACS"">bmbNkdrO</p>","","","","","","","","",""
"html-keyboard-response","165","227344","0.0-10.0-0.76","6156a440279fdf408ee663ae","650c16f0f2faf8d7a0d14c09","651c1e502697d537867db5a1","null","null","<p style=""font-size: 60px; font-family: BACS"">Udbdlvk</p>","","","","","","","","",""
"html-keyboard-response","166","228359","0.0-10.0-0.77","6156a440279fdf408ee663ae","650c16f0f2faf8d7a0d14c09","651c1e502697d537867db5a1","null","null","<p style=""font-size: 60px; font-family: BACS"">NaAQdUbG</p>","","","","","","","","",""
"html-keyboard-response","167","229375","0.0-10.0-0.78","6156a440279fdf408ee663ae","650c16f0f2faf8d7a0d14c09","651c1e502697d537867db5a1","null","null","<p style=""font-size: 60px; font-family: BACS"">lmbYkdrO</p>","","","","","","","","",""
"html-keyboard-response","168","230390","0.0-10.0-0.79","6156a440279fdf408ee663ae","650c16f0f2faf8d7a0d14c09","651c1e502697d537867db5a1","null","null","<p style=""font-size: 60px; font-family: BACS"">BPAlKEdl</p>","","","","","","","","",""
"html-keyboard-response","169","263806","0.0-11.0","6156a440279fdf408ee663ae","650c16f0f2faf8d7a0d14c09","651c1e502697d537867db5a1","33422"," ","<p>Great, you've seen the second block of words. You may now take a short break.</p>
      <p>Press the spacebar when you're ready to continue.</p>","","","","","","","","",""
"html-keyboard-response","170","264821","0.0-12.0-0.0","6156a440279fdf408ee663ae","650c16f0f2faf8d7a0d14c09","651c1e502697d537867db5a1","null","null","<p style=""font-size: 60px; font-family: BACS"">UYZlZvcb</p>","","","","","","","","",""
"html-keyboard-response","171","265837","0.0-12.0-0.1","6156a440279fdf408ee663ae","650c16f0f2faf8d7a0d14c09","651c1e502697d537867db5a1","null","null","<p style=""font-size: 60px; font-family: BACS"">dMYBPOdOP</p>","","","","","","","","",""
"html-keyboard-response","172","266853","0.0-12.0-0.2","6156a440279fdf408ee663ae","650c16f0f2faf8d7a0d14c09","651c1e502697d537867db5a1","null","null","<p style=""font-size: 60px; font-family: BACS"">NaJblvk</p>","","","","","","","","",""
"html-keyboard-response","173","267868","0.0-12.0-0.3","6156a440279fdf408ee663ae","650c16f0f2faf8d7a0d14c09","651c1e502697d537867db5a1","null","null","<p style=""font-size: 60px; font-family: BACS"">dRbDbKEdl</p>","","","","","","","","",""
"html-keyboard-response","174","268884","0.0-12.0-0.4","6156a440279fdf408ee663ae","650c16f0f2faf8d7a0d14c09","651c1e502697d537867db5a1","null","null","<p style=""font-size: 60px; font-family: BACS"">dMYBPOMC</p>","","","","","","","","",""
"html-keyboard-response","175","269884","0.0-12.0-0.5","6156a440279fdf408ee663ae","650c16f0f2faf8d7a0d14c09","651c1e502697d537867db5a1","null","null","<p style=""font-size: 60px; font-family: BACS"">bmbNArv</p>","","","","","","","","",""
"html-keyboard-response","176","270900","0.0-12.0-0.6","6156a440279fdf408ee663ae","650c16f0f2faf8d7a0d14c09","651c1e502697d537867db5a1","null","null","<p style=""font-size: 60px; font-family: BACS"">TAdhMmhc</p>","","","","","","","","",""
"html-keyboard-response","177","271915","0.0-12.0-0.7","6156a440279fdf408ee663ae","650c16f0f2faf8d7a0d14c09","651c1e502697d537867db5a1","null","null","<p style=""font-size: 60px; font-family: BACS"">YObAKEdl</p>","","","","","","","","",""
"html-keyboard-response","178","272916","0.0-12.0-0.8","6156a440279fdf408ee663ae","650c16f0f2faf8d7a0d14c09","651c1e502697d537867db5a1","null","null","<p style=""font-size: 60px; font-family: BACS"">BPAlmhc</p>","","","","","","","","",""
"html-keyboard-response","179","273931","0.0-12.0-0.9","6156a440279fdf408ee663ae","650c16f0f2faf8d7a0d14c09","651c1e502697d537867db5a1","null","null","<p style=""font-size: 60px; font-family: BACS"">vQdOUbG</p>","","","","","","","","",""
"html-keyboard-response","180","274946","0.0-12.0-0.10","6156a440279fdf408ee663ae","650c16f0f2faf8d7a0d14c09","651c1e502697d537867db5a1","null","null","<p style=""font-size: 60px; font-family: BACS"">alJYArv</p>","","","","","","","","",""
"html-keyboard-response","181","275947","0.0-12.0-0.11","6156a440279fdf408ee663ae","650c16f0f2faf8d7a0d14c09","651c1e502697d537867db5a1","null","null","<p style=""font-size: 60px; font-family: BACS"">dMYBPOtM</p>","","","","","","","","",""
"html-keyboard-response","182","276962","0.0-12.0-0.12","6156a440279fdf408ee663ae","650c16f0f2faf8d7a0d14c09","651c1e502697d537867db5a1","null","null","<p style=""font-size: 60px; font-family: BACS"">Udbdlvk</p>","","","","","","","","",""
"html-keyboard-response","183","277978","0.0-12.0-0.13","6156a440279fdf408ee663ae","650c16f0f2faf8d7a0d14c09","651c1e502697d537867db5a1","null","null","<p style=""font-size: 60px; font-family: BACS"">YlYcmhc</p>","","","","","","","","",""
"html-keyboard-response","184","278978","0.0-12.0-0.14","6156a440279fdf408ee663ae","650c16f0f2faf8d7a0d14c09","651c1e502697d537867db5a1","null","null","<p style=""font-size: 60px; font-family: BACS"">rkYLUbG</p>","","","","","","","","",""
"html-keyboard-response","185","279994","0.0-12.0-0.15","6156a440279fdf408ee663ae","650c16f0f2faf8d7a0d14c09","651c1e502697d537867db5a1","null","null","<p style=""font-size: 60px; font-family: BACS"">RtRhOtM</p>","","","","","","","","",""
"html-keyboard-response","186","281009","0.0-12.0-0.16","6156a440279fdf408ee663ae","650c16f0f2faf8d7a0d14c09","651c1e502697d537867db5a1","null","null","<p style=""font-size: 60px; font-family: BACS"">UYZlZArv</p>","","","","","","","","",""
"html-keyboard-response","187","282025","0.0-12.0-0.17","6156a440279fdf408ee663ae","650c16f0f2faf8d7a0d14c09","651c1e502697d537867db5a1","null","null","<p style=""font-size: 60px; font-family: BACS"">damYbkdrO</p>","","","","","","","","",""
"html-keyboard-response","188","283040","0.0-12.0-0.18","6156a440279fdf408ee663ae","650c16f0f2faf8d7a0d14c09","651c1e502697d537867db5a1","null","null","<p style=""font-size: 60px; font-family: BACS"">dMYBPKEdl</p>","","","","","","","","",""
"html-keyboard-response","189","284056","0.0-12.0-0.19","6156a440279fdf408ee663ae","650c16f0f2faf8d7a0d14c09","651c1e502697d537867db5a1","null","null","<p style=""font-size: 60px; font-family: BACS"">TAdhMOtM</p>","","","","","","","","",""
"html-keyboard-response","190","285072","0.0-12.0-0.20","6156a440279fdf408ee663ae","650c16f0f2faf8d7a0d14c09","651c1e502697d537867db5a1","null","null","<p style=""font-size: 60px; font-family: BACS"">YlYcOdOP</p>","","","","","","","","",""
"html-keyboard-response","191","286087","0.0-12.0-0.21","6156a440279fdf408ee663ae","650c16f0f2faf8d7a0d14c09","651c1e502697d537867db5a1","null","null","<p style=""font-size: 60px; font-family: BACS"">NaAQdUbG</p>","","","","","","","","",""
"html-keyboard-response","192","287088","0.0-12.0-0.22","6156a440279fdf408ee663ae","650c16f0f2faf8d7a0d14c09","651c1e502697d537867db5a1","null","null","<p style=""font-size: 60px; font-family: BACS"">alJYkdrO</p>","","","","","","","","",""
"html-keyboard-response","193","288104","0.0-12.0-0.23","6156a440279fdf408ee663ae","650c16f0f2faf8d7a0d14c09","651c1e502697d537867db5a1","null","null","<p style=""font-size: 60px; font-family: BACS"">damYbvcb</p>","","","","","","","","",""
"html-keyboard-response","194","289119","0.0-12.0-0.24","6156a440279fdf408ee663ae","650c16f0f2faf8d7a0d14c09","651c1e502697d537867db5a1","null","null","<p style=""font-size: 60px; font-family: BACS"">dRbDbmhc</p>","","","","","","","","",""
"html-keyboard-response","195","290134","0.0-12.0-0.25","6156a440279fdf408ee663ae","650c16f0f2faf8d7a0d14c09","651c1e502697d537867db5a1","null","null","<p style=""font-size: 60px; font-family: BACS"">NaAQdlvk</p>","","","","","","","","",""
"html-keyboard-response","196","291149","0.0-12.0-0.26","6156a440279fdf408ee663ae","650c16f0f2faf8d7a0d14c09","651c1e502697d537867db5a1","null","null","<p style=""font-size: 60px; font-family: BACS"">YObAOdOP</p>","","","","","","","","",""
"html-keyboard-response","197","292165","0.0-12.0-0.27","6156a440279fdf408ee663ae","650c16f0f2faf8d7a0d14c09","651c1e502697d537867db5a1","null","null","<p style=""font-size: 60px; font-family: BACS"">alJYvcb</p>","","","","","","","","",""
"html-keyboard-response","198","293181","0.0-12.0-0.28","6156a440279fdf408ee663ae","650c16f0f2faf8d7a0d14c09","651c1e502697d537867db5a1","null","null","<p style=""font-size: 60px; font-family: BACS"">lmbYArv</p>","","","","","","","","",""
"html-keyboard-response","199","294196","0.0-12.0-0.29","6156a440279fdf408ee663ae","650c16f0f2faf8d7a0d14c09","651c1e502697d537867db5a1","null","null","<p style=""font-size: 60px; font-family: BACS"">damYbUbG</p>","","","","","","","","",""
"html-keyboard-response","200","295198","0.0-12.0-0.30","6156a440279fdf408ee663ae","650c16f0f2faf8d7a0d14c09","651c1e502697d537867db5a1","null","null","<p style=""font-size: 60px; font-family: BACS"">lKdbcmhc</p>","","","","","","","","",""
"html-keyboard-response","201","296212","0.0-12.0-0.31","6156a440279fdf408ee663ae","650c16f0f2faf8d7a0d14c09","651c1e502697d537867db5a1","null","null","<p style=""font-size: 60px; font-family: BACS"">TAdhMOMC</p>","","","","","","","","",""
"html-keyboard-response","202","297228","0.0-12.0-0.32","6156a440279fdf408ee663ae","650c16f0f2faf8d7a0d14c09","651c1e502697d537867db5a1","null","null","<p style=""font-size: 60px; font-family: BACS"">PhktkOtM</p>","","","","","","","","",""
"html-keyboard-response","203","298243","0.0-12.0-0.33","6156a440279fdf408ee663ae","650c16f0f2faf8d7a0d14c09","651c1e502697d537867db5a1","null","null","<p style=""font-size: 60px; font-family: BACS"">BPAlKEdl</p>","","","","","","","","",""
"html-keyboard-response","204","299259","0.0-12.0-0.34","6156a440279fdf408ee663ae","650c16f0f2faf8d7a0d14c09","651c1e502697d537867db5a1","null","null","<p style=""font-size: 60px; font-family: BACS"">ktBdOdOP</p>","","","","","","","","",""
"html-keyboard-response","205","300275","0.0-12.0-0.35","6156a440279fdf408ee663ae","650c16f0f2faf8d7a0d14c09","651c1e502697d537867db5a1","null","null","<p style=""font-size: 60px; font-family: BACS"">rkYLkdrO</p>","","","","","","","","",""
"html-keyboard-response","206","301290","0.0-12.0-0.36","6156a440279fdf408ee663ae","650c16f0f2faf8d7a0d14c09","651c1e502697d537867db5a1","null","null","<p style=""font-size: 60px; font-family: BACS"">YlYcOMC</p>","","","","","","","","",""
"html-keyboard-response","207","302306","0.0-12.0-0.37","6156a440279fdf408ee663ae","650c16f0f2faf8d7a0d14c09","651c1e502697d537867db5a1","null","null","<p style=""font-size: 60px; font-family: BACS"">rkYLArv</p>","","","","","","","","",""
"html-keyboard-response","208","303322","0.0-12.0-0.38","6156a440279fdf408ee663ae","650c16f0f2faf8d7a0d14c09","651c1e502697d537867db5a1","null","null","<p style=""font-size: 60px; font-family: BACS"">Phktkmhc</p>","","","","","","","","",""
"html-keyboard-response","209","304338","0.0-12.0-0.39","6156a440279fdf408ee663ae","650c16f0f2faf8d7a0d14c09","651c1e502697d537867db5a1","null","null","<p style=""font-size: 60px; font-family: BACS"">NaAQdArv</p>","","","","","","","","",""
"html-keyboard-response","210","305353","0.0-12.0-0.40","6156a440279fdf408ee663ae","650c16f0f2faf8d7a0d14c09","651c1e502697d537867db5a1","null","null","<p style=""font-size: 60px; font-family: BACS"">vQdOvcb</p>","","","","","","","","",""
"html-keyboard-response","211","306368","0.0-12.0-0.41","6156a440279fdf408ee663ae","650c16f0f2faf8d7a0d14c09","651c1e502697d537867db5a1","null","null","<p style=""font-size: 60px; font-family: BACS"">lKdbcOdOP</p>","","","","","","","","",""
"html-keyboard-response","212","307369","0.0-12.0-0.42","6156a440279fdf408ee663ae","650c16f0f2faf8d7a0d14c09","651c1e502697d537867db5a1","null","null","<p style=""font-size: 60px; font-family: BACS"">vQdOlvk</p>","","","","","","","","",""
"html-keyboard-response","213","308384","0.0-12.0-0.43","6156a440279fdf408ee663ae","650c16f0f2faf8d7a0d14c09","651c1e502697d537867db5a1","null","null","<p style=""font-size: 60px; font-family: BACS"">ktBdOtM</p>","","","","","","","","",""
"html-keyboard-response","214","309400","0.0-12.0-0.44","6156a440279fdf408ee663ae","650c16f0f2faf8d7a0d14c09","651c1e502697d537867db5a1","null","null","<p style=""font-size: 60px; font-family: BACS"">NaAQdkdrO</p>","","","","","","","","",""
"html-keyboard-response","215","310415","0.0-12.0-0.45","6156a440279fdf408ee663ae","650c16f0f2faf8d7a0d14c09","651c1e502697d537867db5a1","null","null","<p style=""font-size: 60px; font-family: BACS"">vQdOArv</p>","","","","","","","","",""
"html-keyboard-response","216","311431","0.0-12.0-0.46","6156a440279fdf408ee663ae","650c16f0f2faf8d7a0d14c09","651c1e502697d537867db5a1","null","null","<p style=""font-size: 60px; font-family: BACS"">UYZlZkdrO</p>","","","","","","","","",""
"html-keyboard-response","217","312446","0.0-12.0-0.47","6156a440279fdf408ee663ae","650c16f0f2faf8d7a0d14c09","651c1e502697d537867db5a1","null","null","<p style=""font-size: 60px; font-family: BACS"">RtRhKEdl</p>","","","","","","","","",""
"html-keyboard-response","218","313462","0.0-12.0-0.48","6156a440279fdf408ee663ae","650c16f0f2faf8d7a0d14c09","651c1e502697d537867db5a1","null","null","<p style=""font-size: 60px; font-family: BACS"">UdbdkdrO</p>","","","","","","","","",""
"html-keyboard-response","219","314478","0.0-12.0-0.49","6156a440279fdf408ee663ae","650c16f0f2faf8d7a0d14c09","651c1e502697d537867db5a1","null","null","<p style=""font-size: 60px; font-family: BACS"">dRbDbOtM</p>","","","","","","","","",""
"html-keyboard-response","220","315478","0.0-12.0-0.50","6156a440279fdf408ee663ae","650c16f0f2faf8d7a0d14c09","651c1e502697d537867db5a1","null","null","<p style=""font-size: 60px; font-family: BACS"">lKdbcOMC</p>","","","","","","","","",""
"html-keyboard-response","221","316494","0.0-12.0-0.51","6156a440279fdf408ee663ae","650c16f0f2faf8d7a0d14c09","651c1e502697d537867db5a1","null","null","<p style=""font-size: 60px; font-family: BACS"">dRbDbOdOP</p>","","","","","","","","",""
"html-keyboard-response","222","317509","0.0-12.0-0.52","6156a440279fdf408ee663ae","650c16f0f2faf8d7a0d14c09","651c1e502697d537867db5a1","null","null","<p style=""font-size: 60px; font-family: BACS"">alJYlvk</p>","","","","","","","","",""
"html-keyboard-response","223","318525","0.0-12.0-0.53","6156a440279fdf408ee663ae","650c16f0f2faf8d7a0d14c09","651c1e502697d537867db5a1","null","null","<p style=""font-size: 60px; font-family: BACS"">NaJbvcb</p>","","","","","","","","",""
"html-keyboard-response","224","319541","0.0-12.0-0.54","6156a440279fdf408ee663ae","650c16f0f2faf8d7a0d14c09","651c1e502697d537867db5a1","null","null","<p style=""font-size: 60px; font-family: BACS"">lKdbcKEdl</p>","","","","","","","","",""
"html-keyboard-response","225","320556","0.0-12.0-0.55","6156a440279fdf408ee663ae","650c16f0f2faf8d7a0d14c09","651c1e502697d537867db5a1","null","null","<p style=""font-size: 60px; font-family: BACS"">lmbYlvk</p>","","","","","","","","",""
"html-keyboard-response","226","321571","0.0-12.0-0.56","6156a440279fdf408ee663ae","650c16f0f2faf8d7a0d14c09","651c1e502697d537867db5a1","null","null","<p style=""font-size: 60px; font-family: BACS"">YObAmhc</p>","","","","","","","","",""
"html-keyboard-response","227","322587","0.0-12.0-0.57","6156a440279fdf408ee663ae","650c16f0f2faf8d7a0d14c09","651c1e502697d537867db5a1","null","null","<p style=""font-size: 60px; font-family: BACS"">TAdhMOdOP</p>","","","","","","","","",""
"html-keyboard-response","228","323602","0.0-12.0-0.58","6156a440279fdf408ee663ae","650c16f0f2faf8d7a0d14c09","651c1e502697d537867db5a1","null","null","<p style=""font-size: 60px; font-family: BACS"">ktBdOMC</p>","","","","","","","","",""
"html-keyboard-response","229","324609","0.0-12.0-0.59","6156a440279fdf408ee663ae","650c16f0f2faf8d7a0d14c09","651c1e502697d537867db5a1","null","null","<p style=""font-size: 60px; font-family: BACS"">UYZlZUbG</p>","","","","","","","","",""
"html-keyboard-response","230","325624","0.0-12.0-0.60","6156a440279fdf408ee663ae","650c16f0f2faf8d7a0d14c09","651c1e502697d537867db5a1","null","null","<p style=""font-size: 60px; font-family: BACS"">bmbNlvk</p>","","","","","","","","",""
"html-keyboard-response","231","326640","0.0-12.0-0.61","6156a440279fdf408ee663ae","650c16f0f2faf8d7a0d14c09","651c1e502697d537867db5a1","null","null","<p style=""font-size: 60px; font-family: BACS"">PhktkKEdl</p>","","","","","","","","",""
"html-keyboard-response","232","327656","0.0-12.0-0.62","6156a440279fdf408ee663ae","650c16f0f2faf8d7a0d14c09","651c1e502697d537867db5a1","null","null","<p style=""font-size: 60px; font-family: BACS"">YObAOMC</p>","","","","","","","","",""
"html-keyboard-response","233","328671","0.0-12.0-0.63","6156a440279fdf408ee663ae","650c16f0f2faf8d7a0d14c09","651c1e502697d537867db5a1","null","null","<p style=""font-size: 60px; font-family: BACS"">RtRhmhc</p>","","","","","","","","",""
"html-keyboard-response","234","329673","0.0-12.0-0.64","6156a440279fdf408ee663ae","650c16f0f2faf8d7a0d14c09","651c1e502697d537867db5a1","null","null","<p style=""font-size: 60px; font-family: BACS"">YlYcOtM</p>","","","","","","","","",""
"html-keyboard-response","235","330687","0.0-12.0-0.65","6156a440279fdf408ee663ae","650c16f0f2faf8d7a0d14c09","651c1e502697d537867db5a1","null","null","<p style=""font-size: 60px; font-family: BACS"">NaJbUbG</p>","","","","","","","","",""
"html-keyboard-response","236","331702","0.0-12.0-0.66","6156a440279fdf408ee663ae","650c16f0f2faf8d7a0d14c09","651c1e502697d537867db5a1","null","null","<p style=""font-size: 60px; font-family: BACS"">RtRhOMC</p>","","","","","","","","",""
"html-keyboard-response","237","332718","0.0-12.0-0.67","6156a440279fdf408ee663ae","650c16f0f2faf8d7a0d14c09","651c1e502697d537867db5a1","null","null","<p style=""font-size: 60px; font-family: BACS"">bmbNkdrO</p>","","","","","","","","",""
"html-keyboard-response","238","333733","0.0-12.0-0.68","6156a440279fdf408ee663ae","650c16f0f2faf8d7a0d14c09","651c1e502697d537867db5a1","null","null","<p style=""font-size: 60px; font-family: BACS"">BPAlOtM</p>","","","","","","","","",""
"html-keyboard-response","239","334734","0.0-12.0-0.69","6156a440279fdf408ee663ae","650c16f0f2faf8d7a0d14c09","651c1e502697d537867db5a1","null","null","<p style=""font-size: 60px; font-family: BACS"">lmbYUbG</p>","","","","","","","","",""
"html-keyboard-response","240","335750","0.0-12.0-0.70","6156a440279fdf408ee663ae","650c16f0f2faf8d7a0d14c09","651c1e502697d537867db5a1","null","null","<p style=""font-size: 60px; font-family: BACS"">bmbNvcb</p>","","","","","","","","",""
"html-keyboard-response","241","336765","0.0-12.0-0.71","6156a440279fdf408ee663ae","650c16f0f2faf8d7a0d14c09","651c1e502697d537867db5a1","null","null","<p style=""font-size: 60px; font-family: BACS"">BPAlOdOP</p>","","","","","","","","",""
"html-keyboard-response","242","337780","0.0-12.0-0.72","6156a440279fdf408ee663ae","650c16f0f2faf8d7a0d14c09","651c1e502697d537867db5a1","null","null","<p style=""font-size: 60px; font-family: BACS"">PhktkOMC</p>","","","","","","","","",""
"html-keyboard-response","243","338796","0.0-12.0-0.73","6156a440279fdf408ee663ae","650c16f0f2faf8d7a0d14c09","651c1e502697d537867db5a1","null","null","<p style=""font-size: 60px; font-family: BACS"">rkYLvcb</p>","","","","","","","","",""
"html-keyboard-response","244","339797","0.0-12.0-0.74","6156a440279fdf408ee663ae","650c16f0f2faf8d7a0d14c09","651c1e502697d537867db5a1","null","null","<p style=""font-size: 60px; font-family: BACS"">damYblvk</p>","","","","","","","","",""
"html-keyboard-response","245","340812","0.0-12.0-0.75","6156a440279fdf408ee663ae","650c16f0f2faf8d7a0d14c09","651c1e502697d537867db5a1","null","null","<p style=""font-size: 60px; font-family: BACS"">NaJbArv</p>","","","","","","","","",""
"html-keyboard-response","246","341828","0.0-12.0-0.76","6156a440279fdf408ee663ae","650c16f0f2faf8d7a0d14c09","651c1e502697d537867db5a1","null","null","<p style=""font-size: 60px; font-family: BACS"">ktBdKEdl</p>","","","","","","","","",""
"html-keyboard-response","247","342843","0.0-12.0-0.77","6156a440279fdf408ee663ae","650c16f0f2faf8d7a0d14c09","651c1e502697d537867db5a1","null","null","<p style=""font-size: 60px; font-family: BACS"">UdbdUbG</p>","","","","","","","","",""
"html-keyboard-response","248","343859","0.0-12.0-0.78","6156a440279fdf408ee663ae","650c16f0f2faf8d7a0d14c09","651c1e502697d537867db5a1","null","null","<p style=""font-size: 60px; font-family: BACS"">lmbYkdrO</p>","","","","","","","","",""
"html-keyboard-response","249","344874","0.0-12.0-0.79","6156a440279fdf408ee663ae","650c16f0f2faf8d7a0d14c09","651c1e502697d537867db5a1","null","null","<p style=""font-size: 60px; font-family: BACS"">Udbdvcb</p>","","","","","","","","",""
"html-keyboard-response","250","360693","0.0-13.0","6156a440279fdf408ee663ae","650c16f0f2faf8d7a0d14c09","651c1e502697d537867db5a1","15818"," ","<p>Great, you've seen the third block of words. You may now take a short break.</p>
      <p>Press the spacebar when you're ready to continue.</p>","","","","","","","","",""
"html-keyboard-response","251","361702","0.0-14.0-0.0","6156a440279fdf408ee663ae","650c16f0f2faf8d7a0d14c09","651c1e502697d537867db5a1","null","null","<p style=""font-size: 60px; font-family: BACS"">RtRhOMC</p>","","","","","","","","",""
"html-keyboard-response","252","362719","0.0-14.0-0.1","6156a440279fdf408ee663ae","650c16f0f2faf8d7a0d14c09","651c1e502697d537867db5a1","null","null","<p style=""font-size: 60px; font-family: BACS"">TAdhMOdOP</p>","","","","","","","","",""
"html-keyboard-response","253","363734","0.0-14.0-0.2","6156a440279fdf408ee663ae","650c16f0f2faf8d7a0d14c09","651c1e502697d537867db5a1","null","null","<p style=""font-size: 60px; font-family: BACS"">alJYlvk</p>","","","","","","","","",""
"html-keyboard-response","254","364749","0.0-14.0-0.3","6156a440279fdf408ee663ae","650c16f0f2faf8d7a0d14c09","651c1e502697d537867db5a1","null","null","<p style=""font-size: 60px; font-family: BACS"">YObAOMC</p>","","","","","","","","",""
"html-keyboard-response","255","365750","0.0-14.0-0.4","6156a440279fdf408ee663ae","650c16f0f2faf8d7a0d14c09","651c1e502697d537867db5a1","null","null","<p style=""font-size: 60px; font-family: BACS"">NaJbUbG</p>","","","","","","","","",""
"html-keyboard-response","256","366766","0.0-14.0-0.5","6156a440279fdf408ee663ae","650c16f0f2faf8d7a0d14c09","651c1e502697d537867db5a1","null","null","<p style=""font-size: 60px; font-family: BACS"">alJYArv</p>","","","","","","","","",""
"html-keyboard-response","257","367781","0.0-14.0-0.6","6156a440279fdf408ee663ae","650c16f0f2faf8d7a0d14c09","651c1e502697d537867db5a1","null","null","<p style=""font-size: 60px; font-family: BACS"">YObAKEdl</p>","","","","","","","","",""
"html-keyboard-response","258","368797","0.0-14.0-0.7","6156a440279fdf408ee663ae","650c16f0f2faf8d7a0d14c09","651c1e502697d537867db5a1","null","null","<p style=""font-size: 60px; font-family: BACS"">YlYcOMC</p>","","","","","","","","",""
"html-keyboard-response","259","369812","0.0-14.0-0.8","6156a440279fdf408ee663ae","650c16f0f2faf8d7a0d14c09","651c1e502697d537867db5a1","null","null","<p style=""font-size: 60px; font-family: BACS"">vQdOvcb</p>","","","","","","","","",""
"html-keyboard-response","260","370828","0.0-14.0-0.9","6156a440279fdf408ee663ae","650c16f0f2faf8d7a0d14c09","651c1e502697d537867db5a1","null","null","<p style=""font-size: 60px; font-family: BACS"">Phktkmhc</p>","","","","","","","","",""
"html-keyboard-response","261","371844","0.0-14.0-0.10","6156a440279fdf408ee663ae","650c16f0f2faf8d7a0d14c09","651c1e502697d537867db5a1","null","null","<p style=""font-size: 60px; font-family: BACS"">ktBdOMC</p>","","","","","","","","",""
"html-keyboard-response","262","372859","0.0-14.0-0.11","6156a440279fdf408ee663ae","650c16f0f2faf8d7a0d14c09","651c1e502697d537867db5a1","null","null","<p style=""font-size: 60px; font-family: BACS"">lmbYlvk</p>","","","","","","","","",""
"html-keyboard-response","263","373874","0.0-14.0-0.12","6156a440279fdf408ee663ae","650c16f0f2faf8d7a0d14c09","651c1e502697d537867db5a1","null","null","<p style=""font-size: 60px; font-family: BACS"">UdbdkdrO</p>","","","","","","","","",""
"html-keyboard-response","264","374890","0.0-14.0-0.13","6156a440279fdf408ee663ae","650c16f0f2faf8d7a0d14c09","651c1e502697d537867db5a1","null","null","<p style=""font-size: 60px; font-family: BACS"">damYblvk</p>","","","","","","","","",""
"html-keyboard-response","265","375905","0.0-14.0-0.14","6156a440279fdf408ee663ae","650c16f0f2faf8d7a0d14c09","651c1e502697d537867db5a1","null","null","<p style=""font-size: 60px; font-family: BACS"">NaAQdUbG</p>","","","","","","","","",""
"html-keyboard-response","266","376906","0.0-14.0-0.15","6156a440279fdf408ee663ae","650c16f0f2faf8d7a0d14c09","651c1e502697d537867db5a1","null","null","<p style=""font-size: 60px; font-family: BACS"">PhktkOtM</p>","","","","","","","","",""
"html-keyboard-response","267","377922","0.0-14.0-0.16","6156a440279fdf408ee663ae","650c16f0f2faf8d7a0d14c09","651c1e502697d537867db5a1","null","null","<p style=""font-size: 60px; font-family: BACS"">RtRhmhc</p>","","","","","","","","",""
"html-keyboard-response","268","378937","0.0-14.0-0.17","6156a440279fdf408ee663ae","650c16f0f2faf8d7a0d14c09","651c1e502697d537867db5a1","null","null","<p style=""font-size: 60px; font-family: BACS"">PhktkKEdl</p>","","","","","","","","",""
"html-keyboard-response","269","379953","0.0-14.0-0.18","6156a440279fdf408ee663ae","650c16f0f2faf8d7a0d14c09","651c1e502697d537867db5a1","null","null","<p style=""font-size: 60px; font-family: BACS"">TAdhMOtM</p>","","","","","","","","",""
"html-keyboard-response","270","380968","0.0-14.0-0.19","6156a440279fdf408ee663ae","650c16f0f2faf8d7a0d14c09","651c1e502697d537867db5a1","null","null","<p style=""font-size: 60px; font-family: BACS"">YlYcmhc</p>","","","","","","","","",""
"html-keyboard-response","271","381984","0.0-14.0-0.20","6156a440279fdf408ee663ae","650c16f0f2faf8d7a0d14c09","651c1e502697d537867db5a1","null","null","<p style=""font-size: 60px; font-family: BACS"">bmbNArv</p>","","","","","","","","",""
"html-keyboard-response","272","383000","0.0-14.0-0.21","6156a440279fdf408ee663ae","650c16f0f2faf8d7a0d14c09","651c1e502697d537867db5a1","null","null","<p style=""font-size: 60px; font-family: BACS"">BPAlOtM</p>","","","","","","","","",""
"html-keyboard-response","273","384015","0.0-14.0-0.22","6156a440279fdf408ee663ae","650c16f0f2faf8d7a0d14c09","651c1e502697d537867db5a1","null","null","<p style=""font-size: 60px; font-family: BACS"">lmbYArv</p>","","","","","","","","",""
"html-keyboard-response","274","385015","0.0-14.0-0.23","6156a440279fdf408ee663ae","650c16f0f2faf8d7a0d14c09","651c1e502697d537867db5a1","null","null","<p style=""font-size: 60px; font-family: BACS"">bmbNlvk</p>","","","","","","","","",""
"html-keyboard-response","275","386031","0.0-14.0-0.24","6156a440279fdf408ee663ae","650c16f0f2faf8d7a0d14c09","651c1e502697d537867db5a1","null","null","<p style=""font-size: 60px; font-family: BACS"">lKdbcmhc</p>","","","","","","","","",""
"html-keyboard-response","276","387046","0.0-14.0-0.25","6156a440279fdf408ee663ae","650c16f0f2faf8d7a0d14c09","651c1e502697d537867db5a1","null","null","<p style=""font-size: 60px; font-family: BACS"">ktBdKEdl</p>","","","","","","","","",""
"html-keyboard-response","277","388061","0.0-14.0-0.26","6156a440279fdf408ee663ae","650c16f0f2faf8d7a0d14c09","651c1e502697d537867db5a1","null","null","<p style=""font-size: 60px; font-family: BACS"">TAdhMOMC</p>","","","","","","","","",""
"html-keyboard-response","278","389078","0.0-14.0-0.27","6156a440279fdf408ee663ae","650c16f0f2faf8d7a0d14c09","651c1e502697d537867db5a1","null","null","<p style=""font-size: 60px; font-family: BACS"">rkYLArv</p>","","","","","","","","",""
"html-keyboard-response","279","390092","0.0-14.0-0.28","6156a440279fdf408ee663ae","650c16f0f2faf8d7a0d14c09","651c1e502697d537867db5a1","null","null","<p style=""font-size: 60px; font-family: BACS"">TAdhMmhc</p>","","","","","","","","",""
"html-keyboard-response","280","391109","0.0-14.0-0.29","6156a440279fdf408ee663ae","650c16f0f2faf8d7a0d14c09","651c1e502697d537867db5a1","null","null","<p style=""font-size: 60px; font-family: BACS"">dMYBPOMC</p>","","","","","","","","",""
"html-keyboard-response","281","392124","0.0-14.0-0.30","6156a440279fdf408ee663ae","650c16f0f2faf8d7a0d14c09","651c1e502697d537867db5a1","null","null","<p style=""font-size: 60px; font-family: BACS"">lKdbcOdOP</p>","","","","","","","","",""
"html-keyboard-response","282","393140","0.0-14.0-0.31","6156a440279fdf408ee663ae","650c16f0f2faf8d7a0d14c09","651c1e502697d537867db5a1","null","null","<p style=""font-size: 60px; font-family: BACS"">ktBdOtM</p>","","","","","","","","",""
"html-keyboard-response","283","394155","0.0-14.0-0.32","6156a440279fdf408ee663ae","650c16f0f2faf8d7a0d14c09","651c1e502697d537867db5a1","null","null","<p style=""font-size: 60px; font-family: BACS"">NaJblvk</p>","","","","","","","","",""
"html-keyboard-response","284","395171","0.0-14.0-0.33","6156a440279fdf408ee663ae","650c16f0f2faf8d7a0d14c09","651c1e502697d537867db5a1","null","null","<p style=""font-size: 60px; font-family: BACS"">YObAmhc</p>","","","","","","","","",""
"html-keyboard-response","285","396187","0.0-14.0-0.34","6156a440279fdf408ee663ae","650c16f0f2faf8d7a0d14c09","651c1e502697d537867db5a1","null","null","<p style=""font-size: 60px; font-family: BACS"">ktBdOdOP</p>","","","","","","","","",""
"html-keyboard-response","286","397202","0.0-14.0-0.35","6156a440279fdf408ee663ae","650c16f0f2faf8d7a0d14c09","651c1e502697d537867db5a1","null","null","<p style=""font-size: 60px; font-family: BACS"">UYZlZArv</p>","","","","","","","","",""
"html-keyboard-response","287","398218","0.0-14.0-0.36","6156a440279fdf408ee663ae","650c16f0f2faf8d7a0d14c09","651c1e502697d537867db5a1","null","null","<p style=""font-size: 60px; font-family: BACS"">vQdOlvk</p>","","","","","","","","",""
"html-keyboard-response","288","399234","0.0-14.0-0.37","6156a440279fdf408ee663ae","650c16f0f2faf8d7a0d14c09","651c1e502697d537867db5a1","null","null","<p style=""font-size: 60px; font-family: BACS"">YlYcOdOP</p>","","","","","","","","",""
"html-keyboard-response","289","400249","0.0-14.0-0.38","6156a440279fdf408ee663ae","650c16f0f2faf8d7a0d14c09","651c1e502697d537867db5a1","null","null","<p style=""font-size: 60px; font-family: BACS"">damYbvcb</p>","","","","","","","","",""
"html-keyboard-response","290","401264","0.0-14.0-0.39","6156a440279fdf408ee663ae","650c16f0f2faf8d7a0d14c09","651c1e502697d537867db5a1","null","null","<p style=""font-size: 60px; font-family: BACS"">dRbDbOtM</p>","","","","","","","","",""
"html-keyboard-response","291","402280","0.0-14.0-0.40","6156a440279fdf408ee663ae","650c16f0f2faf8d7a0d14c09","651c1e502697d537867db5a1","null","null","<p style=""font-size: 60px; font-family: BACS"">lmbYUbG</p>","","","","","","","","",""
"html-keyboard-response","292","403296","0.0-14.0-0.41","6156a440279fdf408ee663ae","650c16f0f2faf8d7a0d14c09","651c1e502697d537867db5a1","null","null","<p style=""font-size: 60px; font-family: BACS"">dMYBPOdOP</p>","","","","","","","","",""
"html-keyboard-response","293","404311","0.0-14.0-0.42","6156a440279fdf408ee663ae","650c16f0f2faf8d7a0d14c09","651c1e502697d537867db5a1","null","null","<p style=""font-size: 60px; font-family: BACS"">bmbNkdrO</p>","","","","","","","","",""
"html-keyboard-response","294","405327","0.0-14.0-0.43","6156a440279fdf408ee663ae","650c16f0f2faf8d7a0d14c09","651c1e502697d537867db5a1","null","null","<p style=""font-size: 60px; font-family: BACS"">NaJbvcb</p>","","","","","","","","",""
"html-keyboard-response","295","406343","0.0-14.0-0.44","6156a440279fdf408ee663ae","650c16f0f2faf8d7a0d14c09","651c1e502697d537867db5a1","null","null","<p style=""font-size: 60px; font-family: BACS"">UdbdUbG</p>","","","","","","","","",""
"html-keyboard-response","296","407358","0.0-14.0-0.45","6156a440279fdf408ee663ae","650c16f0f2faf8d7a0d14c09","651c1e502697d537867db5a1","null","null","<p style=""font-size: 60px; font-family: BACS"">RtRhKEdl</p>","","","","","","","","",""
"html-keyboard-response","297","408374","0.0-14.0-0.46","6156a440279fdf408ee663ae","650c16f0f2faf8d7a0d14c09","651c1e502697d537867db5a1","null","null","<p style=""font-size: 60px; font-family: BACS"">alJYvcb</p>","","","","","","","","",""
"html-keyboard-response","298","409389","0.0-14.0-0.47","6156a440279fdf408ee663ae","650c16f0f2faf8d7a0d14c09","651c1e502697d537867db5a1","null","null","<p style=""font-size: 60px; font-family: BACS"">lmbYkdrO</p>","","","","","","","","",""
"html-keyboard-response","299","410405","0.0-14.0-0.48","6156a440279fdf408ee663ae","650c16f0f2faf8d7a0d14c09","651c1e502697d537867db5a1","null","null","<p style=""font-size: 60px; font-family: BACS"">BPAlKEdl</p>","","","","","","","","",""
"html-keyboard-response","300","411420","0.0-14.0-0.49","6156a440279fdf408ee663ae","650c16f0f2faf8d7a0d14c09","651c1e502697d537867db5a1","null","null","<p style=""font-size: 60px; font-family: BACS"">Udbdlvk</p>","","","","","","","","",""
"html-keyboard-response","301","412437","0.0-14.0-0.50","6156a440279fdf408ee663ae","650c16f0f2faf8d7a0d14c09","651c1e502697d537867db5a1","null","null","<p style=""font-size: 60px; font-family: BACS"">PhktkOMC</p>","","","","","","","","",""
"html-keyboard-response","302","413452","0.0-14.0-0.51","6156a440279fdf408ee663ae","650c16f0f2faf8d7a0d14c09","651c1e502697d537867db5a1","null","null","<p style=""font-size: 60px; font-family: BACS"">RtRhOtM</p>","","","","","","","","",""
"html-keyboard-response","303","414467","0.0-14.0-0.52","6156a440279fdf408ee663ae","650c16f0f2faf8d7a0d14c09","651c1e502697d537867db5a1","null","null","<p style=""font-size: 60px; font-family: BACS"">YObAOdOP</p>","","","","","","","","",""
"html-keyboard-response","304","415483","0.0-14.0-0.53","6156a440279fdf408ee663ae","650c16f0f2faf8d7a0d14c09","651c1e502697d537867db5a1","null","null","<p style=""font-size: 60px; font-family: BACS"">dMYBPKEdl</p>","","","","","","","","",""
"html-keyboard-response","305","416499","0.0-14.0-0.54","6156a440279fdf408ee663ae","650c16f0f2faf8d7a0d14c09","651c1e502697d537867db5a1","null","null","<p style=""font-size: 60px; font-family: BACS"">Udbdvcb</p>","","","","","","","","",""
"html-keyboard-response","306","417514","0.0-14.0-0.55","6156a440279fdf408ee663ae","650c16f0f2faf8d7a0d14c09","651c1e502697d537867db5a1","null","null","<p style=""font-size: 60px; font-family: BACS"">rkYLUbG</p>","","","","","","","","",""
"html-keyboard-response","307","418531","0.0-14.0-0.56","6156a440279fdf408ee663ae","650c16f0f2faf8d7a0d14c09","651c1e502697d537867db5a1","null","null","<p style=""font-size: 60px; font-family: BACS"">NaAQdlvk</p>","","","","","","","","",""
"html-keyboard-response","308","419545","0.0-14.0-0.57","6156a440279fdf408ee663ae","650c16f0f2faf8d7a0d14c09","651c1e502697d537867db5a1","null","null","<p style=""font-size: 60px; font-family: BACS"">rkYLvcb</p>","","","","","","","","",""
"html-keyboard-response","309","420561","0.0-14.0-0.58","6156a440279fdf408ee663ae","650c16f0f2faf8d7a0d14c09","651c1e502697d537867db5a1","null","null","<p style=""font-size: 60px; font-family: BACS"">dRbDbOdOP</p>","","","","","","","","",""
"html-keyboard-response","310","421578","0.0-14.0-0.59","6156a440279fdf408ee663ae","650c16f0f2faf8d7a0d14c09","651c1e502697d537867db5a1","null","null","<p style=""font-size: 60px; font-family: BACS"">lKdbcOMC</p>","","","","","","","","",""
"html-keyboard-response","311","422593","0.0-14.0-0.60","6156a440279fdf408ee663ae","650c16f0f2faf8d7a0d14c09","651c1e502697d537867db5a1","null","null","<p style=""font-size: 60px; font-family: BACS"">alJYkdrO</p>","","","","","","","","",""
"html-keyboard-response","312","423608","0.0-14.0-0.61","6156a440279fdf408ee663ae","650c16f0f2faf8d7a0d14c09","651c1e502697d537867db5a1","null","null","<p style=""font-size: 60px; font-family: BACS"">dRbDbmhc</p>","","","","","","","","",""
"html-keyboard-response","313","424624","0.0-14.0-0.62","6156a440279fdf408ee663ae","650c16f0f2faf8d7a0d14c09","651c1e502697d537867db5a1","null","null","<p style=""font-size: 60px; font-family: BACS"">NaAQdArv</p>","","","","","","","","",""
"html-keyboard-response","314","425640","0.0-14.0-0.63","6156a440279fdf408ee663ae","650c16f0f2faf8d7a0d14c09","651c1e502697d537867db5a1","null","null","<p style=""font-size: 60px; font-family: BACS"">UYZlZkdrO</p>","","","","","","","","",""
"html-keyboard-response","315","426655","0.0-14.0-0.64","6156a440279fdf408ee663ae","650c16f0f2faf8d7a0d14c09","651c1e502697d537867db5a1","null","null","<p style=""font-size: 60px; font-family: BACS"">damYbUbG</p>","","","","","","","","",""
"html-keyboard-response","316","427671","0.0-14.0-0.65","6156a440279fdf408ee663ae","650c16f0f2faf8d7a0d14c09","651c1e502697d537867db5a1","null","null","<p style=""font-size: 60px; font-family: BACS"">dMYBPOtM</p>","","","","","","","","",""
"html-keyboard-response","317","428686","0.0-14.0-0.66","6156a440279fdf408ee663ae","650c16f0f2faf8d7a0d14c09","651c1e502697d537867db5a1","null","null","<p style=""font-size: 60px; font-family: BACS"">lKdbcKEdl</p>","","","","","","","","",""
"html-keyboard-response","318","429701","0.0-14.0-0.67","6156a440279fdf408ee663ae","650c16f0f2faf8d7a0d14c09","651c1e502697d537867db5a1","null","null","<p style=""font-size: 60px; font-family: BACS"">rkYLkdrO</p>","","","","","","","","",""
"html-keyboard-response","319","430702","0.0-14.0-0.68","6156a440279fdf408ee663ae","650c16f0f2faf8d7a0d14c09","651c1e502697d537867db5a1","null","null","<p style=""font-size: 60px; font-family: BACS"">vQdOUbG</p>","","","","","","","","",""
"html-keyboard-response","320","431717","0.0-14.0-0.69","6156a440279fdf408ee663ae","650c16f0f2faf8d7a0d14c09","651c1e502697d537867db5a1","null","null","<p style=""font-size: 60px; font-family: BACS"">YlYcOtM</p>","","","","","","","","",""
"html-keyboard-response","321","432733","0.0-14.0-0.70","6156a440279fdf408ee663ae","650c16f0f2faf8d7a0d14c09","651c1e502697d537867db5a1","null","null","<p style=""font-size: 60px; font-family: BACS"">bmbNvcb</p>","","","","","","","","",""
"html-keyboard-response","322","433748","0.0-14.0-0.71","6156a440279fdf408ee663ae","650c16f0f2faf8d7a0d14c09","651c1e502697d537867db5a1","null","null","<p style=""font-size: 60px; font-family: BACS"">NaJbArv</p>","","","","","","","","",""
"html-keyboard-response","323","434764","0.0-14.0-0.72","6156a440279fdf408ee663ae","650c16f0f2faf8d7a0d14c09","651c1e502697d537867db5a1","null","null","<p style=""font-size: 60px; font-family: BACS"">UYZlZUbG</p>","","","","","","","","",""
"html-keyboard-response","324","435780","0.0-14.0-0.73","6156a440279fdf408ee663ae","650c16f0f2faf8d7a0d14c09","651c1e502697d537867db5a1","null","null","<p style=""font-size: 60px; font-family: BACS"">damYbkdrO</p>","","","","","","","","",""
"html-keyboard-response","325","436796","0.0-14.0-0.74","6156a440279fdf408ee663ae","650c16f0f2faf8d7a0d14c09","651c1e502697d537867db5a1","null","null","<p style=""font-size: 60px; font-family: BACS"">UYZlZvcb</p>","","","","","","","","",""
"html-keyboard-response","326","437811","0.0-14.0-0.75","6156a440279fdf408ee663ae","650c16f0f2faf8d7a0d14c09","651c1e502697d537867db5a1","null","null","<p style=""font-size: 60px; font-family: BACS"">BPAlOdOP</p>","","","","","","","","",""
"html-keyboard-response","327","438827","0.0-14.0-0.76","6156a440279fdf408ee663ae","650c16f0f2faf8d7a0d14c09","651c1e502697d537867db5a1","null","null","<p style=""font-size: 60px; font-family: BACS"">NaAQdkdrO</p>","","","","","","","","",""
"html-keyboard-response","328","439843","0.0-14.0-0.77","6156a440279fdf408ee663ae","650c16f0f2faf8d7a0d14c09","651c1e502697d537867db5a1","null","null","<p style=""font-size: 60px; font-family: BACS"">BPAlmhc</p>","","","","","","","","",""
"html-keyboard-response","329","440859","0.0-14.0-0.78","6156a440279fdf408ee663ae","650c16f0f2faf8d7a0d14c09","651c1e502697d537867db5a1","null","null","<p style=""font-size: 60px; font-family: BACS"">vQdOArv</p>","","","","","","","","",""
"html-keyboard-response","330","441874","0.0-14.0-0.79","6156a440279fdf408ee663ae","650c16f0f2faf8d7a0d14c09","651c1e502697d537867db5a1","null","null","<p style=""font-size: 60px; font-family: BACS"">dRbDbKEdl</p>","","","","","","","","",""
"html-keyboard-response","331","462122","0.0-15.0","6156a440279fdf408ee663ae","650c16f0f2faf8d7a0d14c09","651c1e502697d537867db5a1","20258"," ","<p>Great, you've seen the fourth block of words. You may now take a short break.</p>
      <p>Press the spacebar when you're ready to continue.</p>","","","","","","","","",""
"html-keyboard-response","332","463128","0.0-16.0-0.0","6156a440279fdf408ee663ae","650c16f0f2faf8d7a0d14c09","651c1e502697d537867db5a1","null","null","<p style=""font-size: 60px; font-family: BACS"">Phktkmhc</p>","","","","","","","","",""
"html-keyboard-response","333","464129","0.0-16.0-0.1","6156a440279fdf408ee663ae","650c16f0f2faf8d7a0d14c09","651c1e502697d537867db5a1","null","null","<p style=""font-size: 60px; font-family: BACS"">Phktkmhc</p>","","","","","","","","",""
"html-keyboard-response","334","465144","0.0-16.0-0.2","6156a440279fdf408ee663ae","650c16f0f2faf8d7a0d14c09","651c1e502697d537867db5a1","null","null","<p style=""font-size: 60px; font-family: BACS"">Phktkmhc</p>","","","","","","","","",""
"html-keyboard-response","335","466160","0.0-16.0-0.3","6156a440279fdf408ee663ae","650c16f0f2faf8d7a0d14c09","651c1e502697d537867db5a1","null","null","<p style=""font-size: 60px; font-family: BACS"">Phktkmhc</p>","","","","","","","","",""
"html-keyboard-response","336","467175","0.0-16.0-0.4","6156a440279fdf408ee663ae","650c16f0f2faf8d7a0d14c09","651c1e502697d537867db5a1","null","null","<p style=""font-size: 60px; font-family: BACS"">Phktkmhc</p>","","","","","","","","",""
"html-keyboard-response","337","468191","0.0-16.0-0.5","6156a440279fdf408ee663ae","650c16f0f2faf8d7a0d14c09","651c1e502697d537867db5a1","null","null","<p style=""font-size: 60px; font-family: BACS"">Phktkmhc</p>","","","","","","","","",""
"html-keyboard-response","338","469207","0.0-16.0-0.6","6156a440279fdf408ee663ae","650c16f0f2faf8d7a0d14c09","651c1e502697d537867db5a1","null","null","<p style=""font-size: 60px; font-family: BACS"">Phktkmhc</p>","","","","","","","","",""
"html-keyboard-response","339","470223","0.0-16.0-0.7","6156a440279fdf408ee663ae","650c16f0f2faf8d7a0d14c09","651c1e502697d537867db5a1","null","null","<p style=""font-size: 60px; font-family: BACS"">Phktkmhc</p>","","","","","","","","",""
"html-keyboard-response","340","471239","0.0-16.0-0.8","6156a440279fdf408ee663ae","650c16f0f2faf8d7a0d14c09","651c1e502697d537867db5a1","null","null","<p style=""font-size: 60px; font-family: BACS"">Phktkmhc</p>","","","","","","","","",""
"html-keyboard-response","341","472254","0.0-16.0-0.9","6156a440279fdf408ee663ae","650c16f0f2faf8d7a0d14c09","651c1e502697d537867db5a1","null","null","<p style=""font-size: 60px; font-family: BACS"">Phktkmhc</p>","","","","","","","","",""
"html-keyboard-response","342","473269","0.0-16.0-0.10","6156a440279fdf408ee663ae","650c16f0f2faf8d7a0d14c09","651c1e502697d537867db5a1","null","null","<p style=""font-size: 60px; font-family: BACS"">Phktkmhc</p>","","","","","","","","",""
"html-keyboard-response","343","474285","0.0-16.0-0.11","6156a440279fdf408ee663ae","650c16f0f2faf8d7a0d14c09","651c1e502697d537867db5a1","null","null","<p style=""font-size: 60px; font-family: BACS"">Phktkmhc</p>","","","","","","","","",""
"html-keyboard-response","344","475301","0.0-16.0-0.12","6156a440279fdf408ee663ae","650c16f0f2faf8d7a0d14c09","651c1e502697d537867db5a1","null","null","<p style=""font-size: 60px; font-family: BACS"">Phktkmhc</p>","","","","","","","","",""
"html-keyboard-response","345","476316","0.0-16.0-0.13","6156a440279fdf408ee663ae","650c16f0f2faf8d7a0d14c09","651c1e502697d537867db5a1","null","null","<p style=""font-size: 60px; font-family: BACS"">Phktkmhc</p>","","","","","","","","",""
"html-keyboard-response","346","477332","0.0-16.0-0.14","6156a440279fdf408ee663ae","650c16f0f2faf8d7a0d14c09","651c1e502697d537867db5a1","null","null","<p style=""font-size: 60px; font-family: BACS"">Phktkmhc</p>","","","","","","","","",""
"html-keyboard-response","347","478348","0.0-16.0-0.15","6156a440279fdf408ee663ae","650c16f0f2faf8d7a0d14c09","651c1e502697d537867db5a1","null","null","<p style=""font-size: 60px; font-family: BACS"">Phktkmhc</p>","","","","","","","","",""
"html-keyboard-response","348","479364","0.0-16.0-0.16","6156a440279fdf408ee663ae","650c16f0f2faf8d7a0d14c09","651c1e502697d537867db5a1","null","null","<p style=""font-size: 60px; font-family: BACS"">Phktkmhc</p>","","","","","","","","",""
"html-keyboard-response","349","480379","0.0-16.0-0.17","6156a440279fdf408ee663ae","650c16f0f2faf8d7a0d14c09","651c1e502697d537867db5a1","null","null","<p style=""font-size: 60px; font-family: BACS"">Phktkmhc</p>","","","","","","","","",""
"html-keyboard-response","350","481394","0.0-16.0-0.18","6156a440279fdf408ee663ae","650c16f0f2faf8d7a0d14c09","651c1e502697d537867db5a1","null","null","<p style=""font-size: 60px; font-family: BACS"">Phktkmhc</p>","","","","","","","","",""
"html-keyboard-response","351","482411","0.0-16.0-0.19","6156a440279fdf408ee663ae","650c16f0f2faf8d7a0d14c09","651c1e502697d537867db5a1","null","null","<p style=""font-size: 60px; font-family: BACS"">Phktkmhc</p>","","","","","","","","",""
"html-keyboard-response","352","483426","0.0-16.0-0.20","6156a440279fdf408ee663ae","650c16f0f2faf8d7a0d14c09","651c1e502697d537867db5a1","null","null","<p style=""font-size: 60px; font-family: BACS"">Phktkmhc</p>","","","","","","","","",""
"html-keyboard-response","353","484441","0.0-16.0-0.21","6156a440279fdf408ee663ae","650c16f0f2faf8d7a0d14c09","651c1e502697d537867db5a1","null","null","<p style=""font-size: 60px; font-family: BACS"">Phktkmhc</p>","","","","","","","","",""
"html-keyboard-response","354","485457","0.0-16.0-0.22","6156a440279fdf408ee663ae","650c16f0f2faf8d7a0d14c09","651c1e502697d537867db5a1","null","null","<p style=""font-size: 60px; font-family: BACS"">Phktkmhc</p>","","","","","","","","",""
"html-keyboard-response","355","486472","0.0-16.0-0.23","6156a440279fdf408ee663ae","650c16f0f2faf8d7a0d14c09","651c1e502697d537867db5a1","null","null","<p style=""font-size: 60px; font-family: BACS"">Phktkmhc</p>","","","","","","","","",""
"html-keyboard-response","356","487473","0.0-16.0-0.24","6156a440279fdf408ee663ae","650c16f0f2faf8d7a0d14c09","651c1e502697d537867db5a1","null","null","<p style=""font-size: 60px; font-family: BACS"">Phktkmhc</p>","","","","","","","","",""
"html-keyboard-response","357","488488","0.0-16.0-0.25","6156a440279fdf408ee663ae","650c16f0f2faf8d7a0d14c09","651c1e502697d537867db5a1","null","null","<p style=""font-size: 60px; font-family: BACS"">Phktkmhc</p>","","","","","","","","",""
"html-keyboard-response","358","489504","0.0-16.0-0.26","6156a440279fdf408ee663ae","650c16f0f2faf8d7a0d14c09","651c1e502697d537867db5a1","null","null","<p style=""font-size: 60px; font-family: BACS"">Phktkmhc</p>","","","","","","","","",""
"html-keyboard-response","359","490520","0.0-16.0-0.27","6156a440279fdf408ee663ae","650c16f0f2faf8d7a0d14c09","651c1e502697d537867db5a1","null","null","<p style=""font-size: 60px; font-family: BACS"">Phktkmhc</p>","","","","","","","","",""
"html-keyboard-response","360","491534","0.0-16.0-0.28","6156a440279fdf408ee663ae","650c16f0f2faf8d7a0d14c09","651c1e502697d537867db5a1","null","null","<p style=""font-size: 60px; font-family: BACS"">Phktkmhc</p>","","","","","","","","",""
"html-keyboard-response","361","492550","0.0-16.0-0.29","6156a440279fdf408ee663ae","650c16f0f2faf8d7a0d14c09","651c1e502697d537867db5a1","null","null","<p style=""font-size: 60px; font-family: BACS"">Phktkmhc</p>","","","","","","","","",""
"html-keyboard-response","362","493566","0.0-16.0-0.30","6156a440279fdf408ee663ae","650c16f0f2faf8d7a0d14c09","651c1e502697d537867db5a1","null","null","<p style=""font-size: 60px; font-family: BACS"">Phktkmhc</p>","","","","","","","","",""
"html-keyboard-response","363","494582","0.0-16.0-0.31","6156a440279fdf408ee663ae","650c16f0f2faf8d7a0d14c09","651c1e502697d537867db5a1","null","null","<p style=""font-size: 60px; font-family: BACS"">Phktkmhc</p>","","","","","","","","",""
"html-keyboard-response","364","495597","0.0-16.0-0.32","6156a440279fdf408ee663ae","650c16f0f2faf8d7a0d14c09","651c1e502697d537867db5a1","null","null","<p style=""font-size: 60px; font-family: BACS"">Phktkmhc</p>","","","","","","","","",""
"html-keyboard-response","365","496613","0.0-16.0-0.33","6156a440279fdf408ee663ae","650c16f0f2faf8d7a0d14c09","651c1e502697d537867db5a1","null","null","<p style=""font-size: 60px; font-family: BACS"">Phktkmhc</p>","","","","","","","","",""
"html-keyboard-response","366","497628","0.0-16.0-0.34","6156a440279fdf408ee663ae","650c16f0f2faf8d7a0d14c09","651c1e502697d537867db5a1","null","null","<p style=""font-size: 60px; font-family: BACS"">Phktkmhc</p>","","","","","","","","",""
"html-keyboard-response","367","498644","0.0-16.0-0.35","6156a440279fdf408ee663ae","650c16f0f2faf8d7a0d14c09","651c1e502697d537867db5a1","null","null","<p style=""font-size: 60px; font-family: BACS"">Phktkmhc</p>","","","","","","","","",""
"html-keyboard-response","368","499660","0.0-16.0-0.36","6156a440279fdf408ee663ae","650c16f0f2faf8d7a0d14c09","651c1e502697d537867db5a1","null","null","<p style=""font-size: 60px; font-family: BACS"">Phktkmhc</p>","","","","","","","","",""
"html-keyboard-response","369","500676","0.0-16.0-0.37","6156a440279fdf408ee663ae","650c16f0f2faf8d7a0d14c09","651c1e502697d537867db5a1","null","null","<p style=""font-size: 60px; font-family: BACS"">Phktkmhc</p>","","","","","","","","",""
"html-keyboard-response","370","501692","0.0-16.0-0.38","6156a440279fdf408ee663ae","650c16f0f2faf8d7a0d14c09","651c1e502697d537867db5a1","null","null","<p style=""font-size: 60px; font-family: BACS"">Phktkmhc</p>","","","","","","","","",""
"html-keyboard-response","371","502707","0.0-16.0-0.39","6156a440279fdf408ee663ae","650c16f0f2faf8d7a0d14c09","651c1e502697d537867db5a1","null","null","<p style=""font-size: 60px; font-family: BACS"">Phktkmhc</p>","","","","","","","","",""
"html-keyboard-response","372","503723","0.0-16.0-0.40","6156a440279fdf408ee663ae","650c16f0f2faf8d7a0d14c09","651c1e502697d537867db5a1","null","null","<p style=""font-size: 60px; font-family: BACS"">Phktkmhc</p>","","","","","","","","",""
"html-keyboard-response","373","504738","0.0-16.0-0.41","6156a440279fdf408ee663ae","650c16f0f2faf8d7a0d14c09","651c1e502697d537867db5a1","null","null","<p style=""font-size: 60px; font-family: BACS"">Phktkmhc</p>","","","","","","","","",""
"html-keyboard-response","374","505754","0.0-16.0-0.42","6156a440279fdf408ee663ae","650c16f0f2faf8d7a0d14c09","651c1e502697d537867db5a1","null","null","<p style=""font-size: 60px; font-family: BACS"">Phktkmhc</p>","","","","","","","","",""
"html-keyboard-response","375","506769","0.0-16.0-0.43","6156a440279fdf408ee663ae","650c16f0f2faf8d7a0d14c09","651c1e502697d537867db5a1","null","null","<p style=""font-size: 60px; font-family: BACS"">Phktkmhc</p>","","","","","","","","",""
"html-keyboard-response","376","507785","0.0-16.0-0.44","6156a440279fdf408ee663ae","650c16f0f2faf8d7a0d14c09","651c1e502697d537867db5a1","null","null","<p style=""font-size: 60px; font-family: BACS"">Phktkmhc</p>","","","","","","","","",""
"html-keyboard-response","377","508801","0.0-16.0-0.45","6156a440279fdf408ee663ae","650c16f0f2faf8d7a0d14c09","651c1e502697d537867db5a1","null","null","<p style=""font-size: 60px; font-family: BACS"">Phktkmhc</p>","","","","","","","","",""
"html-keyboard-response","378","509817","0.0-16.0-0.46","6156a440279fdf408ee663ae","650c16f0f2faf8d7a0d14c09","651c1e502697d537867db5a1","null","null","<p style=""font-size: 60px; font-family: BACS"">Phktkmhc</p>","","","","","","","","",""
"html-keyboard-response","379","510832","0.0-16.0-0.47","6156a440279fdf408ee663ae","650c16f0f2faf8d7a0d14c09","651c1e502697d537867db5a1","null","null","<p style=""font-size: 60px; font-family: BACS"">Phktkmhc</p>","","","","","","","","",""
"html-keyboard-response","380","511848","0.0-16.0-0.48","6156a440279fdf408ee663ae","650c16f0f2faf8d7a0d14c09","651c1e502697d537867db5a1","null","null","<p style=""font-size: 60px; font-family: BACS"">Phktkmhc</p>","","","","","","","","",""
"html-keyboard-response","381","512863","0.0-16.0-0.49","6156a440279fdf408ee663ae","650c16f0f2faf8d7a0d14c09","651c1e502697d537867db5a1","null","null","<p style=""font-size: 60px; font-family: BACS"">Phktkmhc</p>","","","","","","","","",""
"html-keyboard-response","382","513879","0.0-16.0-0.50","6156a440279fdf408ee663ae","650c16f0f2faf8d7a0d14c09","651c1e502697d537867db5a1","null","null","<p style=""font-size: 60px; font-family: BACS"">Phktkmhc</p>","","","","","","","","",""
"html-keyboard-response","383","514894","0.0-16.0-0.51","6156a440279fdf408ee663ae","650c16f0f2faf8d7a0d14c09","651c1e502697d537867db5a1","null","null","<p style=""font-size: 60px; font-family: BACS"">Phktkmhc</p>","","","","","","","","",""
"html-keyboard-response","384","515910","0.0-16.0-0.52","6156a440279fdf408ee663ae","650c16f0f2faf8d7a0d14c09","651c1e502697d537867db5a1","null","null","<p style=""font-size: 60px; font-family: BACS"">Phktkmhc</p>","","","","","","","","",""
"html-keyboard-response","385","516926","0.0-16.0-0.53","6156a440279fdf408ee663ae","650c16f0f2faf8d7a0d14c09","651c1e502697d537867db5a1","null","null","<p style=""font-size: 60px; font-family: BACS"">Phktkmhc</p>","","","","","","","","",""
"html-keyboard-response","386","517942","0.0-16.0-0.54","6156a440279fdf408ee663ae","650c16f0f2faf8d7a0d14c09","651c1e502697d537867db5a1","null","null","<p style=""font-size: 60px; font-family: BACS"">Phktkmhc</p>","","","","","","","","",""
"html-keyboard-response","387","518957","0.0-16.0-0.55","6156a440279fdf408ee663ae","650c16f0f2faf8d7a0d14c09","651c1e502697d537867db5a1","null","null","<p style=""font-size: 60px; font-family: BACS"">Phktkmhc</p>","","","","","","","","",""
"html-keyboard-response","388","519972","0.0-16.0-0.56","6156a440279fdf408ee663ae","650c16f0f2faf8d7a0d14c09","651c1e502697d537867db5a1","null","null","<p style=""font-size: 60px; font-family: BACS"">Phktkmhc</p>","","","","","","","","",""
"html-keyboard-response","389","520988","0.0-16.0-0.57","6156a440279fdf408ee663ae","650c16f0f2faf8d7a0d14c09","651c1e502697d537867db5a1","null","null","<p style=""font-size: 60px; font-family: BACS"">Phktkmhc</p>","","","","","","","","",""
"html-keyboard-response","390","522004","0.0-16.0-0.58","6156a440279fdf408ee663ae","650c16f0f2faf8d7a0d14c09","651c1e502697d537867db5a1","null","null","<p style=""font-size: 60px; font-family: BACS"">Phktkmhc</p>","","","","","","","","",""
"html-keyboard-response","391","523031","0.0-16.0-0.59","6156a440279fdf408ee663ae","650c16f0f2faf8d7a0d14c09","651c1e502697d537867db5a1","null","null","<p style=""font-size: 60px; font-family: BACS"">Phktkmhc</p>","","","","","","","","",""
"html-keyboard-response","392","524046","0.0-16.0-0.60","6156a440279fdf408ee663ae","650c16f0f2faf8d7a0d14c09","651c1e502697d537867db5a1","null","null","<p style=""font-size: 60px; font-family: BACS"">Phktkmhc</p>","","","","","","","","",""
"html-keyboard-response","393","525062","0.0-16.0-0.61","6156a440279fdf408ee663ae","650c16f0f2faf8d7a0d14c09","651c1e502697d537867db5a1","null","null","<p style=""font-size: 60px; font-family: BACS"">Phktkmhc</p>","","","","","","","","",""
"html-keyboard-response","394","526078","0.0-16.0-0.62","6156a440279fdf408ee663ae","650c16f0f2faf8d7a0d14c09","651c1e502697d537867db5a1","null","null","<p style=""font-size: 60px; font-family: BACS"">Phktkmhc</p>","","","","","","","","",""
"html-keyboard-response","395","527093","0.0-16.0-0.63","6156a440279fdf408ee663ae","650c16f0f2faf8d7a0d14c09","651c1e502697d537867db5a1","null","null","<p style=""font-size: 60px; font-family: BACS"">Phktkmhc</p>","","","","","","","","",""
"html-keyboard-response","396","528109","0.0-16.0-0.64","6156a440279fdf408ee663ae","650c16f0f2faf8d7a0d14c09","651c1e502697d537867db5a1","null","null","<p style=""font-size: 60px; font-family: BACS"">Phktkmhc</p>","","","","","","","","",""
"html-keyboard-response","397","529124","0.0-16.0-0.65","6156a440279fdf408ee663ae","650c16f0f2faf8d7a0d14c09","651c1e502697d537867db5a1","null","null","<p style=""font-size: 60px; font-family: BACS"">Phktkmhc</p>","","","","","","","","",""
"html-keyboard-response","398","530140","0.0-16.0-0.66","6156a440279fdf408ee663ae","650c16f0f2faf8d7a0d14c09","651c1e502697d537867db5a1","null","null","<p style=""font-size: 60px; font-family: BACS"">Phktkmhc</p>","","","","","","","","",""
"html-keyboard-response","399","531156","0.0-16.0-0.67","6156a440279fdf408ee663ae","650c16f0f2faf8d7a0d14c09","651c1e502697d537867db5a1","null","null","<p style=""font-size: 60px; font-family: BACS"">Phktkmhc</p>","","","","","","","","",""
"html-keyboard-response","400","532171","0.0-16.0-0.68","6156a440279fdf408ee663ae","650c16f0f2faf8d7a0d14c09","651c1e502697d537867db5a1","null","null","<p style=""font-size: 60px; font-family: BACS"">Phktkmhc</p>","","","","","","","","",""
