"trial_type","trial_index","time_elapsed","internal_node_id","subject_id","study_id","session_id","rt","response","stimulus","success","item","task","correct_response","testing_condition","correct","target","confound","name"
"pavlovia","0","964","0.0-0.0","5fd9c5c67fa7c74ec42bb318","650c16f0f2faf8d7a0d14c09","651c354cec89511cd107ab90","","","","","","","","","","","",""
"survey-html-form","1","80559","0.0-1.0","5fd9c5c67fa7c74ec42bb318","650c16f0f2faf8d7a0d14c09","651c354cec89511cd107ab90","79594","{""ID"":""5fd9c5c67fa7c74ec42bb318""}","","","","","","","","","",""
"html-keyboard-response","2","83818","0.0-2.0","5fd9c5c67fa7c74ec42bb318","650c16f0f2faf8d7a0d14c09","651c354cec89511cd107ab90","3258"," ","<p style=""font-size: 15px;"">Before beginning, we ask that you read the consent information and confirm your agreement to participate in the experiment.</p>
      <p style=""font-size: 15px;""> We ask that you remember that this is a research project and that your participation is entirely voluntary. You can stop your participation at any time, without needing to provide any explanation. The study we're asking you to participate in aims at examining how readers process written words. You will be engaged in a session of apprximately 20 minutes, followed by a brief questionnaire. You will have the opportunity to take a few breaks during the experiment. You will be paid £4 for your participation, corresponding to a rate of £8/hour. While this experiment looks at cognitive faculties, this experiment doesn't constitute clinical proof of eventual pathologies.</p>
      <p style=""font-size: 15px;"">All of the information collected thanks to yours and others' participation will be held in a secure password-protected server, and will not be shared with anyone not authorised to view it. Your personal information will be kept with an arbitrary participant ID. Thanks to this data anonymity process, any researcher analysing the data won't be able to track the information back to a specific participant. Therefore, this process will make identifying you impossibile, even when results from the study will be published in scientific reviews, presented at congresses, or at any other public forum. More generally, the collected data will be treated in accordance with the laws on privacy and conformity to the Legislative Degree n. 196 ""Code regarding the protection of personal data"" of the 30th of June 2003 and to the European Regulation 2016/670 (General Data Protection Regulation - GDPR). The Data Protection Officer is Avv. Valentina Carollo, who can be contacted at the following email addresses: <a href=""mailto:dpo@sissa.it"">dpo@sissa.it</a> or <a href=""mailto:rpd@sissa.it"">rpd@sissa.it</a> - PEC: <a href=""mailto:protocollo@pec.sissa.it"">protocollo@pec.sissa.it</a>.</p>
      <p style=""font-size: 15px;""> Before expressing your consent to participate, we would like to remind you again that in case you need explanations on any aspect of the experimental procedure, the researcher is at your disposition (<a href=""mailto:aliebelt@sissa.it"">aliebelt@sissa.it</a>, <a href=""mailto:davide.crepaldi@sissa.it"">davide.crepaldi@sissa.it</a>).</p>
      <p style=""font-size: 15px;"">If you would like to download the informed consent form, you can do so here: <a href=""BASL-Informed_Consent.pdf"" download>informed consent form</a>.</p>
      <p style=""font-size: 15px;"">We ask that you press the spacebar to proceed to the consent section.</p>","","","","","","","","",""
"survey-html-form","3","99307","0.0-3.0","5fd9c5c67fa7c74ec42bb318","650c16f0f2faf8d7a0d14c09","651c354cec89511cd107ab90","15488","{""consent1"":""YES"",""consent2"":""YES"",""consent3"":""YES"",""consent4"":""YES"",""consent5"":""YES"",""consent6"":""YES""}","","","","","","","","","",""
"fullscreen","4","173657","0.0-4.0","5fd9c5c67fa7c74ec42bb318","650c16f0f2faf8d7a0d14c09","651c354cec89511cd107ab90","","","","true","","","","","","","",""
"html-keyboard-response","5","189967","0.0-5.0","5fd9c5c67fa7c74ec42bb318","650c16f0f2faf8d7a0d14c09","651c354cec89511cd107ab90","16309"," ","<p>Welcome, and thank you very much for your time!</p>
      <p>In this experiment, you'll be a language expert who's been asked to take a look at words that Earth has received in its first communication with aliens. Your task, in this first part of the experiment, is to pay close attention to the words you'll be shown; later, world leaders will ask you questions on what you saw. The words will be shown to you quite quickly; it seems that the aliens were in a hurry :-)</p>
      <p>Press the spacebar to continue.<p>","","","","","","","","",""
"html-keyboard-response","6","190028","0.0-6.0","5fd9c5c67fa7c74ec42bb318","650c16f0f2faf8d7a0d14c09","651c354cec89511cd107ab90","null","null","<p style=""font-size: 120px; font-family: BACS""> </p>","","","","","","","","",""
"html-keyboard-response","7","194143","0.0-7.0","5fd9c5c67fa7c74ec42bb318","650c16f0f2faf8d7a0d14c09","651c354cec89511cd107ab90","4114"," ","<p>Here is an example of the words you'll see:</p>
      <img src='esempio.png' height='400px'>
      <p>When you're ready to begin, press the spacebar.</p></div>","","","","","","","","",""
"html-keyboard-response","8","195156","0.0-8.0-0.0","5fd9c5c67fa7c74ec42bb318","650c16f0f2faf8d7a0d14c09","651c354cec89511cd107ab90","null","null","<p style=""font-size: 60px; font-family: BACS"">kcCRtdPc</p>","","","","","","","","",""
"html-keyboard-response","9","196163","0.0-8.0-0.1","5fd9c5c67fa7c74ec42bb318","650c16f0f2faf8d7a0d14c09","651c354cec89511cd107ab90","null","null","<p style=""font-size: 60px; font-family: BACS"">TdTDBRDh</p>","","","","","","","","",""
"html-keyboard-response","10","197171","0.0-8.0-0.2","5fd9c5c67fa7c74ec42bb318","650c16f0f2faf8d7a0d14c09","651c354cec89511cd107ab90","null","null","<p style=""font-size: 60px; font-family: BACS"">DkTCPBCAd</p>","","","","","","","","",""
"html-keyboard-response","11","198187","0.0-8.0-0.3","5fd9c5c67fa7c74ec42bb318","650c16f0f2faf8d7a0d14c09","651c354cec89511cd107ab90","null","null","<p style=""font-size: 60px; font-family: BACS"">dJNrJUG</p>","","","","","","","","",""
"html-keyboard-response","12","199190","0.0-8.0-0.4","5fd9c5c67fa7c74ec42bb318","650c16f0f2faf8d7a0d14c09","651c354cec89511cd107ab90","null","null","<p style=""font-size: 60px; font-family: BACS"">ArQuYbN</p>","","","","","","","","",""
"html-keyboard-response","13","200192","0.0-8.0-0.5","5fd9c5c67fa7c74ec42bb318","650c16f0f2faf8d7a0d14c09","651c354cec89511cd107ab90","null","null","<p style=""font-size: 60px; font-family: BACS"">NaAQdAOUl</p>","","","","","","","","",""
"html-keyboard-response","14","201207","0.0-8.0-0.6","5fd9c5c67fa7c74ec42bb318","650c16f0f2faf8d7a0d14c09","651c354cec89511cd107ab90","null","null","<p style=""font-size: 60px; font-family: BACS"">QbkAcJUG</p>","","","","","","","","",""
"html-keyboard-response","15","202215","0.0-8.0-0.7","5fd9c5c67fa7c74ec42bb318","650c16f0f2faf8d7a0d14c09","651c354cec89511cd107ab90","null","null","<p style=""font-size: 60px; font-family: BACS"">tDPRkdBC</p>","","","","","","","","",""
"html-keyboard-response","16","203228","0.0-8.0-0.8","5fd9c5c67fa7c74ec42bb318","650c16f0f2faf8d7a0d14c09","651c354cec89511cd107ab90","null","null","<p style=""font-size: 60px; font-family: BACS"">dJNrYLU</p>","","","","","","","","",""
"html-keyboard-response","17","204231","0.0-8.0-0.9","5fd9c5c67fa7c74ec42bb318","650c16f0f2faf8d7a0d14c09","651c354cec89511cd107ab90","null","null","<p style=""font-size: 60px; font-family: BACS"">TdTDdPc</p>","","","","","","","","",""
"html-keyboard-response","18","205243","0.0-8.0-0.10","5fd9c5c67fa7c74ec42bb318","650c16f0f2faf8d7a0d14c09","651c354cec89511cd107ab90","null","null","<p style=""font-size: 60px; font-family: BACS"">rvOvUYbN</p>","","","","","","","","",""
"html-keyboard-response","19","206246","0.0-8.0-0.11","5fd9c5c67fa7c74ec42bb318","650c16f0f2faf8d7a0d14c09","651c354cec89511cd107ab90","null","null","<p style=""font-size: 60px; font-family: BACS"">ArQuYLU</p>","","","","","","","","",""
"html-keyboard-response","20","207263","0.0-8.0-0.12","5fd9c5c67fa7c74ec42bb318","650c16f0f2faf8d7a0d14c09","651c354cec89511cd107ab90","null","null","<p style=""font-size: 60px; font-family: BACS"">AYkEhdBC</p>","","","","","","","","",""
"html-keyboard-response","21","208266","0.0-8.0-0.13","5fd9c5c67fa7c74ec42bb318","650c16f0f2faf8d7a0d14c09","651c354cec89511cd107ab90","null","null","<p style=""font-size: 60px; font-family: BACS"">JmNkYZUZ</p>","","","","","","","","",""
"html-keyboard-response","22","209274","0.0-8.0-0.14","5fd9c5c67fa7c74ec42bb318","650c16f0f2faf8d7a0d14c09","651c354cec89511cd107ab90","null","null","<p style=""font-size: 60px; font-family: BACS"">MBmEBCAd</p>","","","","","","","","",""
"html-keyboard-response","23","210281","0.0-8.0-0.15","5fd9c5c67fa7c74ec42bb318","650c16f0f2faf8d7a0d14c09","651c354cec89511cd107ab90","null","null","<p style=""font-size: 60px; font-family: BACS"">RdPtDdBC</p>","","","","","","","","",""
"html-keyboard-response","24","211297","0.0-8.0-0.16","5fd9c5c67fa7c74ec42bb318","650c16f0f2faf8d7a0d14c09","651c354cec89511cd107ab90","null","null","<p style=""font-size: 60px; font-family: BACS"">YObABYhT</p>","","","","","","","","",""
"html-keyboard-response","25","212299","0.0-8.0-0.17","5fd9c5c67fa7c74ec42bb318","650c16f0f2faf8d7a0d14c09","651c354cec89511cd107ab90","null","null","<p style=""font-size: 60px; font-family: BACS"">NaAQdJUG</p>","","","","","","","","",""
"html-keyboard-response","26","213314","0.0-8.0-0.18","5fd9c5c67fa7c74ec42bb318","650c16f0f2faf8d7a0d14c09","651c354cec89511cd107ab90","null","null","<p style=""font-size: 60px; font-family: BACS"">tDPRkBYhT</p>","","","","","","","","",""
"html-keyboard-response","27","214325","0.0-8.0-0.19","5fd9c5c67fa7c74ec42bb318","650c16f0f2faf8d7a0d14c09","651c354cec89511cd107ab90","null","null","<p style=""font-size: 60px; font-family: BACS"">rvOvUYLU</p>","","","","","","","","",""
"html-keyboard-response","28","215331","0.0-8.0-0.20","5fd9c5c67fa7c74ec42bb318","650c16f0f2faf8d7a0d14c09","651c354cec89511cd107ab90","null","null","<p style=""font-size: 60px; font-family: BACS"">QbkAcYZUZ</p>","","","","","","","","",""
"html-keyboard-response","29","216346","0.0-8.0-0.21","5fd9c5c67fa7c74ec42bb318","650c16f0f2faf8d7a0d14c09","651c354cec89511cd107ab90","null","null","<p style=""font-size: 60px; font-family: BACS"">JmNkAOUl</p>","","","","","","","","",""
"html-keyboard-response","30","217358","0.0-8.0-0.22","5fd9c5c67fa7c74ec42bb318","650c16f0f2faf8d7a0d14c09","651c354cec89511cd107ab90","null","null","<p style=""font-size: 60px; font-family: BACS"">EhRmdBC</p>","","","","","","","","",""
"html-keyboard-response","31","218365","0.0-8.0-0.23","5fd9c5c67fa7c74ec42bb318","650c16f0f2faf8d7a0d14c09","651c354cec89511cd107ab90","null","null","<p style=""font-size: 60px; font-family: BACS"">kLvdNYbN</p>","","","","","","","","",""
"html-keyboard-response","32","219372","0.0-8.0-0.24","5fd9c5c67fa7c74ec42bb318","650c16f0f2faf8d7a0d14c09","651c354cec89511cd107ab90","null","null","<p style=""font-size: 60px; font-family: BACS"">vQdOYLU</p>","","","","","","","","",""
"html-keyboard-response","33","220384","0.0-8.0-0.25","5fd9c5c67fa7c74ec42bb318","650c16f0f2faf8d7a0d14c09","651c354cec89511cd107ab90","null","null","<p style=""font-size: 60px; font-family: BACS"">JmNkJUG</p>","","","","","","","","",""
"html-keyboard-response","34","221388","0.0-8.0-0.26","5fd9c5c67fa7c74ec42bb318","650c16f0f2faf8d7a0d14c09","651c354cec89511cd107ab90","null","null","<p style=""font-size: 60px; font-family: BACS"">kcCRtBRDh</p>","","","","","","","","",""
"html-keyboard-response","35","222395","0.0-8.0-0.27","5fd9c5c67fa7c74ec42bb318","650c16f0f2faf8d7a0d14c09","651c354cec89511cd107ab90","null","null","<p style=""font-size: 60px; font-family: BACS"">AYkEhdPc</p>","","","","","","","","",""
"html-keyboard-response","36","223412","0.0-8.0-0.28","5fd9c5c67fa7c74ec42bb318","650c16f0f2faf8d7a0d14c09","651c354cec89511cd107ab90","null","null","<p style=""font-size: 60px; font-family: BACS"">vQdOYbN</p>","","","","","","","","",""
"html-keyboard-response","37","224426","0.0-8.0-0.29","5fd9c5c67fa7c74ec42bb318","650c16f0f2faf8d7a0d14c09","651c354cec89511cd107ab90","null","null","<p style=""font-size: 60px; font-family: BACS"">RdPtDBYhT</p>","","","","","","","","",""
"html-keyboard-response","38","225439","0.0-8.0-0.30","5fd9c5c67fa7c74ec42bb318","650c16f0f2faf8d7a0d14c09","651c354cec89511cd107ab90","null","null","<p style=""font-size: 60px; font-family: BACS"">TdTDdBC</p>","","","","","","","","",""
"html-keyboard-response","39","226443","0.0-8.0-0.31","5fd9c5c67fa7c74ec42bb318","650c16f0f2faf8d7a0d14c09","651c354cec89511cd107ab90","null","null","<p style=""font-size: 60px; font-family: BACS"">DkTCPBYhT</p>","","","","","","","","",""
"html-keyboard-response","40","227447","0.0-8.0-0.32","5fd9c5c67fa7c74ec42bb318","650c16f0f2faf8d7a0d14c09","651c354cec89511cd107ab90","null","null","<p style=""font-size: 60px; font-family: BACS"">ArQuYZUZ</p>","","","","","","","","",""
"html-keyboard-response","41","228462","0.0-8.0-0.33","5fd9c5c67fa7c74ec42bb318","650c16f0f2faf8d7a0d14c09","651c354cec89511cd107ab90","null","null","<p style=""font-size: 60px; font-family: BACS"">kcCRtBYhT</p>","","","","","","","","",""
"html-keyboard-response","42","229466","0.0-8.0-0.34","5fd9c5c67fa7c74ec42bb318","650c16f0f2faf8d7a0d14c09","651c354cec89511cd107ab90","null","null","<p style=""font-size: 60px; font-family: BACS"">QbkAcAOUl</p>","","","","","","","","",""
"html-keyboard-response","43","230475","0.0-8.0-0.35","5fd9c5c67fa7c74ec42bb318","650c16f0f2faf8d7a0d14c09","651c354cec89511cd107ab90","null","null","<p style=""font-size: 60px; font-family: BACS"">EhRmBYhT</p>","","","","","","","","",""
"html-keyboard-response","44","231478","0.0-8.0-0.36","5fd9c5c67fa7c74ec42bb318","650c16f0f2faf8d7a0d14c09","651c354cec89511cd107ab90","null","null","<p style=""font-size: 60px; font-family: BACS"">PYkCdPc</p>","","","","","","","","",""
"html-keyboard-response","45","232483","0.0-8.0-0.37","5fd9c5c67fa7c74ec42bb318","650c16f0f2faf8d7a0d14c09","651c354cec89511cd107ab90","null","null","<p style=""font-size: 60px; font-family: BACS"">QbkAcYbN</p>","","","","","","","","",""
"html-keyboard-response","46","233485","0.0-8.0-0.38","5fd9c5c67fa7c74ec42bb318","650c16f0f2faf8d7a0d14c09","651c354cec89511cd107ab90","null","null","<p style=""font-size: 60px; font-family: BACS"">EhRmBCAd</p>","","","","","","","","",""
"html-keyboard-response","47","234492","0.0-8.0-0.39","5fd9c5c67fa7c74ec42bb318","650c16f0f2faf8d7a0d14c09","651c354cec89511cd107ab90","null","null","<p style=""font-size: 60px; font-family: BACS"">ZYcQUAOUl</p>","","","","","","","","",""
"html-keyboard-response","48","235495","0.0-8.0-0.40","5fd9c5c67fa7c74ec42bb318","650c16f0f2faf8d7a0d14c09","651c354cec89511cd107ab90","null","null","<p style=""font-size: 60px; font-family: BACS"">RdPtDBRDh</p>","","","","","","","","",""
"html-keyboard-response","49","236514","0.0-8.0-0.41","5fd9c5c67fa7c74ec42bb318","650c16f0f2faf8d7a0d14c09","651c354cec89511cd107ab90","null","null","<p style=""font-size: 60px; font-family: BACS"">ZYcQUYZUZ</p>","","","","","","","","",""
"html-keyboard-response","50","237537","0.0-8.0-0.42","5fd9c5c67fa7c74ec42bb318","650c16f0f2faf8d7a0d14c09","651c354cec89511cd107ab90","null","null","<p style=""font-size: 60px; font-family: BACS"">DkTCPdBC</p>","","","","","","","","",""
"html-keyboard-response","51","238552","0.0-8.0-0.43","5fd9c5c67fa7c74ec42bb318","650c16f0f2faf8d7a0d14c09","651c354cec89511cd107ab90","null","null","<p style=""font-size: 60px; font-family: BACS"">rvOvUYZUZ</p>","","","","","","","","",""
"html-keyboard-response","52","239575","0.0-8.0-0.44","5fd9c5c67fa7c74ec42bb318","650c16f0f2faf8d7a0d14c09","651c354cec89511cd107ab90","null","null","<p style=""font-size: 60px; font-family: BACS"">YObABRDh</p>","","","","","","","","",""
"html-keyboard-response","53","240597","0.0-8.0-0.45","5fd9c5c67fa7c74ec42bb318","650c16f0f2faf8d7a0d14c09","651c354cec89511cd107ab90","null","null","<p style=""font-size: 60px; font-family: BACS"">JmNkYLU</p>","","","","","","","","",""
"html-keyboard-response","54","241603","0.0-8.0-0.46","5fd9c5c67fa7c74ec42bb318","650c16f0f2faf8d7a0d14c09","651c354cec89511cd107ab90","null","null","<p style=""font-size: 60px; font-family: BACS"">kLvdNYZUZ</p>","","","","","","","","",""
"html-keyboard-response","55","242621","0.0-8.0-0.47","5fd9c5c67fa7c74ec42bb318","650c16f0f2faf8d7a0d14c09","651c354cec89511cd107ab90","null","null","<p style=""font-size: 60px; font-family: BACS"">rvOvUJUG</p>","","","","","","","","",""
"html-keyboard-response","56","243626","0.0-8.0-0.48","5fd9c5c67fa7c74ec42bb318","650c16f0f2faf8d7a0d14c09","651c354cec89511cd107ab90","null","null","<p style=""font-size: 60px; font-family: BACS"">kcCRtBCAd</p>","","","","","","","","",""
"html-keyboard-response","57","244632","0.0-8.0-0.49","5fd9c5c67fa7c74ec42bb318","650c16f0f2faf8d7a0d14c09","651c354cec89511cd107ab90","null","null","<p style=""font-size: 60px; font-family: BACS"">AYkEhBRDh</p>","","","","","","","","",""
"html-keyboard-response","58","245645","0.0-8.0-0.50","5fd9c5c67fa7c74ec42bb318","650c16f0f2faf8d7a0d14c09","651c354cec89511cd107ab90","null","null","<p style=""font-size: 60px; font-family: BACS"">UrOQYLU</p>","","","","","","","","",""
"html-keyboard-response","59","246647","0.0-8.0-0.51","5fd9c5c67fa7c74ec42bb318","650c16f0f2faf8d7a0d14c09","651c354cec89511cd107ab90","null","null","<p style=""font-size: 60px; font-family: BACS"">kLvdNJUG</p>","","","","","","","","",""
"html-keyboard-response","60","247658","0.0-8.0-0.52","5fd9c5c67fa7c74ec42bb318","650c16f0f2faf8d7a0d14c09","651c354cec89511cd107ab90","null","null","<p style=""font-size: 60px; font-family: BACS"">MBmEdPc</p>","","","","","","","","",""
"html-keyboard-response","61","248664","0.0-8.0-0.53","5fd9c5c67fa7c74ec42bb318","650c16f0f2faf8d7a0d14c09","651c354cec89511cd107ab90","null","null","<p style=""font-size: 60px; font-family: BACS"">PYkCBYhT</p>","","","","","","","","",""
"html-keyboard-response","62","249667","0.0-8.0-0.54","5fd9c5c67fa7c74ec42bb318","650c16f0f2faf8d7a0d14c09","651c354cec89511cd107ab90","null","null","<p style=""font-size: 60px; font-family: BACS"">NaAQdYZUZ</p>","","","","","","","","",""
"html-keyboard-response","63","250681","0.0-8.0-0.55","5fd9c5c67fa7c74ec42bb318","650c16f0f2faf8d7a0d14c09","651c354cec89511cd107ab90","null","null","<p style=""font-size: 60px; font-family: BACS"">PYkCdBC</p>","","","","","","","","",""
"html-keyboard-response","64","251694","0.0-8.0-0.56","5fd9c5c67fa7c74ec42bb318","650c16f0f2faf8d7a0d14c09","651c354cec89511cd107ab90","null","null","<p style=""font-size: 60px; font-family: BACS"">MBmEBRDh</p>","","","","","","","","",""
"html-keyboard-response","65","252718","0.0-8.0-0.57","5fd9c5c67fa7c74ec42bb318","650c16f0f2faf8d7a0d14c09","651c354cec89511cd107ab90","null","null","<p style=""font-size: 60px; font-family: BACS"">dJNrYZUZ</p>","","","","","","","","",""
"html-keyboard-response","66","253738","0.0-8.0-0.58","5fd9c5c67fa7c74ec42bb318","650c16f0f2faf8d7a0d14c09","651c354cec89511cd107ab90","null","null","<p style=""font-size: 60px; font-family: BACS"">NaAQdYbN</p>","","","","","","","","",""
"html-keyboard-response","67","254742","0.0-8.0-0.59","5fd9c5c67fa7c74ec42bb318","650c16f0f2faf8d7a0d14c09","651c354cec89511cd107ab90","null","null","<p style=""font-size: 60px; font-family: BACS"">DkTCPdPc</p>","","","","","","","","",""
"html-keyboard-response","68","255750","0.0-8.0-0.60","5fd9c5c67fa7c74ec42bb318","650c16f0f2faf8d7a0d14c09","651c354cec89511cd107ab90","null","null","<p style=""font-size: 60px; font-family: BACS"">vQdOAOUl</p>","","","","","","","","",""
"html-keyboard-response","69","256751","0.0-8.0-0.61","5fd9c5c67fa7c74ec42bb318","650c16f0f2faf8d7a0d14c09","651c354cec89511cd107ab90","null","null","<p style=""font-size: 60px; font-family: BACS"">YObABCAd</p>","","","","","","","","",""
"html-keyboard-response","70","257759","0.0-8.0-0.62","5fd9c5c67fa7c74ec42bb318","650c16f0f2faf8d7a0d14c09","651c354cec89511cd107ab90","null","null","<p style=""font-size: 60px; font-family: BACS"">tDPRkBRDh</p>","","","","","","","","",""
"html-keyboard-response","71","258760","0.0-8.0-0.63","5fd9c5c67fa7c74ec42bb318","650c16f0f2faf8d7a0d14c09","651c354cec89511cd107ab90","null","null","<p style=""font-size: 60px; font-family: BACS"">UrOQAOUl</p>","","","","","","","","",""
"html-keyboard-response","72","259773","0.0-8.0-0.64","5fd9c5c67fa7c74ec42bb318","650c16f0f2faf8d7a0d14c09","651c354cec89511cd107ab90","null","null","<p style=""font-size: 60px; font-family: BACS"">EhRmBRDh</p>","","","","","","","","",""
"html-keyboard-response","73","260778","0.0-8.0-0.65","5fd9c5c67fa7c74ec42bb318","650c16f0f2faf8d7a0d14c09","651c354cec89511cd107ab90","null","null","<p style=""font-size: 60px; font-family: BACS"">ArQuAOUl</p>","","","","","","","","",""
"html-keyboard-response","74","261779","0.0-8.0-0.66","5fd9c5c67fa7c74ec42bb318","650c16f0f2faf8d7a0d14c09","651c354cec89511cd107ab90","null","null","<p style=""font-size: 60px; font-family: BACS"">tDPRkdPc</p>","","","","","","","","",""
"html-keyboard-response","75","262781","0.0-8.0-0.67","5fd9c5c67fa7c74ec42bb318","650c16f0f2faf8d7a0d14c09","651c354cec89511cd107ab90","null","null","<p style=""font-size: 60px; font-family: BACS"">UrOQYbN</p>","","","","","","","","",""
"html-keyboard-response","76","263795","0.0-8.0-0.68","5fd9c5c67fa7c74ec42bb318","650c16f0f2faf8d7a0d14c09","651c354cec89511cd107ab90","null","null","<p style=""font-size: 60px; font-family: BACS"">PYkCBCAd</p>","","","","","","","","",""
"html-keyboard-response","77","264810","0.0-8.0-0.69","5fd9c5c67fa7c74ec42bb318","650c16f0f2faf8d7a0d14c09","651c354cec89511cd107ab90","null","null","<p style=""font-size: 60px; font-family: BACS"">kLvdNYLU</p>","","","","","","","","",""
"html-keyboard-response","78","265826","0.0-8.0-0.70","5fd9c5c67fa7c74ec42bb318","650c16f0f2faf8d7a0d14c09","651c354cec89511cd107ab90","null","null","<p style=""font-size: 60px; font-family: BACS"">AYkEhBCAd</p>","","","","","","","","",""
"html-keyboard-response","79","266841","0.0-8.0-0.71","5fd9c5c67fa7c74ec42bb318","650c16f0f2faf8d7a0d14c09","651c354cec89511cd107ab90","null","null","<p style=""font-size: 60px; font-family: BACS"">YObAdBC</p>","","","","","","","","",""
"html-keyboard-response","80","267852","0.0-8.0-0.72","5fd9c5c67fa7c74ec42bb318","650c16f0f2faf8d7a0d14c09","651c354cec89511cd107ab90","null","null","<p style=""font-size: 60px; font-family: BACS"">UrOQJUG</p>","","","","","","","","",""
"html-keyboard-response","81","268856","0.0-8.0-0.73","5fd9c5c67fa7c74ec42bb318","650c16f0f2faf8d7a0d14c09","651c354cec89511cd107ab90","null","null","<p style=""font-size: 60px; font-family: BACS"">dJNrAOUl</p>","","","","","","","","",""
"html-keyboard-response","82","269870","0.0-8.0-0.74","5fd9c5c67fa7c74ec42bb318","650c16f0f2faf8d7a0d14c09","651c354cec89511cd107ab90","null","null","<p style=""font-size: 60px; font-family: BACS"">RdPtDdPc</p>","","","","","","","","",""
"html-keyboard-response","83","270873","0.0-8.0-0.75","5fd9c5c67fa7c74ec42bb318","650c16f0f2faf8d7a0d14c09","651c354cec89511cd107ab90","null","null","<p style=""font-size: 60px; font-family: BACS"">MBmEBYhT</p>","","","","","","","","",""
"html-keyboard-response","84","271881","0.0-8.0-0.76","5fd9c5c67fa7c74ec42bb318","650c16f0f2faf8d7a0d14c09","651c354cec89511cd107ab90","null","null","<p style=""font-size: 60px; font-family: BACS"">TdTDBCAd</p>","","","","","","","","",""
"html-keyboard-response","85","272892","0.0-8.0-0.77","5fd9c5c67fa7c74ec42bb318","650c16f0f2faf8d7a0d14c09","651c354cec89511cd107ab90","null","null","<p style=""font-size: 60px; font-family: BACS"">ZYcQUYLU</p>","","","","","","","","",""
"html-keyboard-response","86","273895","0.0-8.0-0.78","5fd9c5c67fa7c74ec42bb318","650c16f0f2faf8d7a0d14c09","651c354cec89511cd107ab90","null","null","<p style=""font-size: 60px; font-family: BACS"">vQdOJUG</p>","","","","","","","","",""
"html-keyboard-response","87","274900","0.0-8.0-0.79","5fd9c5c67fa7c74ec42bb318","650c16f0f2faf8d7a0d14c09","651c354cec89511cd107ab90","null","null","<p style=""font-size: 60px; font-family: BACS"">ZYcQUYbN</p>","","","","","","","","",""
"html-keyboard-response","88","322660","0.0-9.0","5fd9c5c67fa7c74ec42bb318","650c16f0f2faf8d7a0d14c09","651c354cec89511cd107ab90","47760"," ","<p>Great, you've seen the first block of words. You may now take a short break.</p>
      <p>Press the spacebar when you're ready to continue.</p>","","","","","","","","",""
"html-keyboard-response","89","323668","0.0-10.0-0.0","5fd9c5c67fa7c74ec42bb318","650c16f0f2faf8d7a0d14c09","651c354cec89511cd107ab90","null","null","<p style=""font-size: 60px; font-family: BACS"">vQdOYbN</p>","","","","","","","","",""
"html-keyboard-response","90","324678","0.0-10.0-0.1","5fd9c5c67fa7c74ec42bb318","650c16f0f2faf8d7a0d14c09","651c354cec89511cd107ab90","null","null","<p style=""font-size: 60px; font-family: BACS"">kLvdNYZUZ</p>","","","","","","","","",""
"html-keyboard-response","91","325681","0.0-10.0-0.2","5fd9c5c67fa7c74ec42bb318","650c16f0f2faf8d7a0d14c09","651c354cec89511cd107ab90","null","null","<p style=""font-size: 60px; font-family: BACS"">tDPRkdPc</p>","","","","","","","","",""
"html-keyboard-response","92","326686","0.0-10.0-0.3","5fd9c5c67fa7c74ec42bb318","650c16f0f2faf8d7a0d14c09","651c354cec89511cd107ab90","null","null","<p style=""font-size: 60px; font-family: BACS"">NaAQdAOUl</p>","","","","","","","","",""
"html-keyboard-response","93","327694","0.0-10.0-0.4","5fd9c5c67fa7c74ec42bb318","650c16f0f2faf8d7a0d14c09","651c354cec89511cd107ab90","null","null","<p style=""font-size: 60px; font-family: BACS"">DkTCPdBC</p>","","","","","","","","",""
"html-keyboard-response","94","328698","0.0-10.0-0.5","5fd9c5c67fa7c74ec42bb318","650c16f0f2faf8d7a0d14c09","651c354cec89511cd107ab90","null","null","<p style=""font-size: 60px; font-family: BACS"">NaAQdYZUZ</p>","","","","","","","","",""
"html-keyboard-response","95","329699","0.0-10.0-0.6","5fd9c5c67fa7c74ec42bb318","650c16f0f2faf8d7a0d14c09","651c354cec89511cd107ab90","null","null","<p style=""font-size: 60px; font-family: BACS"">DkTCPdPc</p>","","","","","","","","",""
"html-keyboard-response","96","330716","0.0-10.0-0.7","5fd9c5c67fa7c74ec42bb318","650c16f0f2faf8d7a0d14c09","651c354cec89511cd107ab90","null","null","<p style=""font-size: 60px; font-family: BACS"">MBmEBYhT</p>","","","","","","","","",""
"html-keyboard-response","97","331742","0.0-10.0-0.8","5fd9c5c67fa7c74ec42bb318","650c16f0f2faf8d7a0d14c09","651c354cec89511cd107ab90","null","null","<p style=""font-size: 60px; font-family: BACS"">AYkEhBRDh</p>","","","","","","","","",""
"html-keyboard-response","98","332764","0.0-10.0-0.9","5fd9c5c67fa7c74ec42bb318","650c16f0f2faf8d7a0d14c09","651c354cec89511cd107ab90","null","null","<p style=""font-size: 60px; font-family: BACS"">ArQuAOUl</p>","","","","","","","","",""
"html-keyboard-response","99","333776","0.0-10.0-0.10","5fd9c5c67fa7c74ec42bb318","650c16f0f2faf8d7a0d14c09","651c354cec89511cd107ab90","null","null","<p style=""font-size: 60px; font-family: BACS"">RdPtDdPc</p>","","","","","","","","",""
"html-keyboard-response","100","334798","0.0-10.0-0.11","5fd9c5c67fa7c74ec42bb318","650c16f0f2faf8d7a0d14c09","651c354cec89511cd107ab90","null","null","<p style=""font-size: 60px; font-family: BACS"">QbkAcJUG</p>","","","","","","","","",""
"html-keyboard-response","101","335803","0.0-10.0-0.12","5fd9c5c67fa7c74ec42bb318","650c16f0f2faf8d7a0d14c09","651c354cec89511cd107ab90","null","null","<p style=""font-size: 60px; font-family: BACS"">YObABRDh</p>","","","","","","","","",""
"html-keyboard-response","102","336812","0.0-10.0-0.13","5fd9c5c67fa7c74ec42bb318","650c16f0f2faf8d7a0d14c09","651c354cec89511cd107ab90","null","null","<p style=""font-size: 60px; font-family: BACS"">UrOQYLU</p>","","","","","","","","",""
"html-keyboard-response","103","337840","0.0-10.0-0.14","5fd9c5c67fa7c74ec42bb318","650c16f0f2faf8d7a0d14c09","651c354cec89511cd107ab90","null","null","<p style=""font-size: 60px; font-family: BACS"">vQdOAOUl</p>","","","","","","","","",""
"html-keyboard-response","104","338851","0.0-10.0-0.15","5fd9c5c67fa7c74ec42bb318","650c16f0f2faf8d7a0d14c09","651c354cec89511cd107ab90","null","null","<p style=""font-size: 60px; font-family: BACS"">RdPtDBRDh</p>","","","","","","","","",""
"html-keyboard-response","105","339862","0.0-10.0-0.16","5fd9c5c67fa7c74ec42bb318","650c16f0f2faf8d7a0d14c09","651c354cec89511cd107ab90","null","null","<p style=""font-size: 60px; font-family: BACS"">tDPRkBYhT</p>","","","","","","","","",""
"html-keyboard-response","106","340869","0.0-10.0-0.17","5fd9c5c67fa7c74ec42bb318","650c16f0f2faf8d7a0d14c09","651c354cec89511cd107ab90","null","null","<p style=""font-size: 60px; font-family: BACS"">kcCRtBRDh</p>","","","","","","","","",""
"html-keyboard-response","107","341871","0.0-10.0-0.18","5fd9c5c67fa7c74ec42bb318","650c16f0f2faf8d7a0d14c09","651c354cec89511cd107ab90","null","null","<p style=""font-size: 60px; font-family: BACS"">rvOvUYLU</p>","","","","","","","","",""
"html-keyboard-response","108","342873","0.0-10.0-0.19","5fd9c5c67fa7c74ec42bb318","650c16f0f2faf8d7a0d14c09","651c354cec89511cd107ab90","null","null","<p style=""font-size: 60px; font-family: BACS"">EhRmdBC</p>","","","","","","","","",""
"html-keyboard-response","109","343884","0.0-10.0-0.20","5fd9c5c67fa7c74ec42bb318","650c16f0f2faf8d7a0d14c09","651c354cec89511cd107ab90","null","null","<p style=""font-size: 60px; font-family: BACS"">DkTCPBCAd</p>","","","","","","","","",""
"html-keyboard-response","110","344885","0.0-10.0-0.21","5fd9c5c67fa7c74ec42bb318","650c16f0f2faf8d7a0d14c09","651c354cec89511cd107ab90","null","null","<p style=""font-size: 60px; font-family: BACS"">QbkAcAOUl</p>","","","","","","","","",""
"html-keyboard-response","111","345891","0.0-10.0-0.22","5fd9c5c67fa7c74ec42bb318","650c16f0f2faf8d7a0d14c09","651c354cec89511cd107ab90","null","null","<p style=""font-size: 60px; font-family: BACS"">TdTDBRDh</p>","","","","","","","","",""
"html-keyboard-response","112","346904","0.0-10.0-0.23","5fd9c5c67fa7c74ec42bb318","650c16f0f2faf8d7a0d14c09","651c354cec89511cd107ab90","null","null","<p style=""font-size: 60px; font-family: BACS"">rvOvUYbN</p>","","","","","","","","",""
"html-keyboard-response","113","347920","0.0-10.0-0.24","5fd9c5c67fa7c74ec42bb318","650c16f0f2faf8d7a0d14c09","651c354cec89511cd107ab90","null","null","<p style=""font-size: 60px; font-family: BACS"">RdPtDdBC</p>","","","","","","","","",""
"html-keyboard-response","114","348933","0.0-10.0-0.25","5fd9c5c67fa7c74ec42bb318","650c16f0f2faf8d7a0d14c09","651c354cec89511cd107ab90","null","null","<p style=""font-size: 60px; font-family: BACS"">YObABCAd</p>","","","","","","","","",""
"html-keyboard-response","115","349943","0.0-10.0-0.26","5fd9c5c67fa7c74ec42bb318","650c16f0f2faf8d7a0d14c09","651c354cec89511cd107ab90","null","null","<p style=""font-size: 60px; font-family: BACS"">ArQuYZUZ</p>","","","","","","","","",""
"html-keyboard-response","116","350948","0.0-10.0-0.27","5fd9c5c67fa7c74ec42bb318","650c16f0f2faf8d7a0d14c09","651c354cec89511cd107ab90","null","null","<p style=""font-size: 60px; font-family: BACS"">TdTDdBC</p>","","","","","","","","",""
"html-keyboard-response","117","351957","0.0-10.0-0.28","5fd9c5c67fa7c74ec42bb318","650c16f0f2faf8d7a0d14c09","651c354cec89511cd107ab90","null","null","<p style=""font-size: 60px; font-family: BACS"">UrOQJUG</p>","","","","","","","","",""
"html-keyboard-response","118","352963","0.0-10.0-0.29","5fd9c5c67fa7c74ec42bb318","650c16f0f2faf8d7a0d14c09","651c354cec89511cd107ab90","null","null","<p style=""font-size: 60px; font-family: BACS"">ZYcQUAOUl</p>","","","","","","","","",""
"html-keyboard-response","119","353965","0.0-10.0-0.30","5fd9c5c67fa7c74ec42bb318","650c16f0f2faf8d7a0d14c09","651c354cec89511cd107ab90","null","null","<p style=""font-size: 60px; font-family: BACS"">DkTCPBYhT</p>","","","","","","","","",""
"html-keyboard-response","120","354966","0.0-10.0-0.31","5fd9c5c67fa7c74ec42bb318","650c16f0f2faf8d7a0d14c09","651c354cec89511cd107ab90","null","null","<p style=""font-size: 60px; font-family: BACS"">YObAdBC</p>","","","","","","","","",""
"html-keyboard-response","121","355980","0.0-10.0-0.32","5fd9c5c67fa7c74ec42bb318","650c16f0f2faf8d7a0d14c09","651c354cec89511cd107ab90","null","null","<p style=""font-size: 60px; font-family: BACS"">vQdOYLU</p>","","","","","","","","",""
"html-keyboard-response","122","356988","0.0-10.0-0.33","5fd9c5c67fa7c74ec42bb318","650c16f0f2faf8d7a0d14c09","651c354cec89511cd107ab90","null","null","<p style=""font-size: 60px; font-family: BACS"">QbkAcYZUZ</p>","","","","","","","","",""
"html-keyboard-response","123","357998","0.0-10.0-0.34","5fd9c5c67fa7c74ec42bb318","650c16f0f2faf8d7a0d14c09","651c354cec89511cd107ab90","null","null","<p style=""font-size: 60px; font-family: BACS"">kLvdNJUG</p>","","","","","","","","",""
"html-keyboard-response","124","359005","0.0-10.0-0.35","5fd9c5c67fa7c74ec42bb318","650c16f0f2faf8d7a0d14c09","651c354cec89511cd107ab90","null","null","<p style=""font-size: 60px; font-family: BACS"">AYkEhdBC</p>","","","","","","","","",""
"html-keyboard-response","125","360020","0.0-10.0-0.36","5fd9c5c67fa7c74ec42bb318","650c16f0f2faf8d7a0d14c09","651c354cec89511cd107ab90","null","null","<p style=""font-size: 60px; font-family: BACS"">kLvdNYLU</p>","","","","","","","","",""
"html-keyboard-response","126","361021","0.0-10.0-0.37","5fd9c5c67fa7c74ec42bb318","650c16f0f2faf8d7a0d14c09","651c354cec89511cd107ab90","null","null","<p style=""font-size: 60px; font-family: BACS"">dJNrAOUl</p>","","","","","","","","",""
"html-keyboard-response","127","362033","0.0-10.0-0.38","5fd9c5c67fa7c74ec42bb318","650c16f0f2faf8d7a0d14c09","651c354cec89511cd107ab90","null","null","<p style=""font-size: 60px; font-family: BACS"">rvOvUYZUZ</p>","","","","","","","","",""
"html-keyboard-response","128","363034","0.0-10.0-0.39","5fd9c5c67fa7c74ec42bb318","650c16f0f2faf8d7a0d14c09","651c354cec89511cd107ab90","null","null","<p style=""font-size: 60px; font-family: BACS"">PYkCBYhT</p>","","","","","","","","",""
"html-keyboard-response","129","364039","0.0-10.0-0.40","5fd9c5c67fa7c74ec42bb318","650c16f0f2faf8d7a0d14c09","651c354cec89511cd107ab90","null","null","<p style=""font-size: 60px; font-family: BACS"">QbkAcYbN</p>","","","","","","","","",""
"html-keyboard-response","130","365051","0.0-10.0-0.41","5fd9c5c67fa7c74ec42bb318","650c16f0f2faf8d7a0d14c09","651c354cec89511cd107ab90","null","null","<p style=""font-size: 60px; font-family: BACS"">AYkEhBCAd</p>","","","","","","","","",""
"html-keyboard-response","131","366064","0.0-10.0-0.42","5fd9c5c67fa7c74ec42bb318","650c16f0f2faf8d7a0d14c09","651c354cec89511cd107ab90","null","null","<p style=""font-size: 60px; font-family: BACS"">tDPRkBRDh</p>","","","","","","","","",""
"html-keyboard-response","132","367073","0.0-10.0-0.43","5fd9c5c67fa7c74ec42bb318","650c16f0f2faf8d7a0d14c09","651c354cec89511cd107ab90","null","null","<p style=""font-size: 60px; font-family: BACS"">ZYcQUYLU</p>","","","","","","","","",""
"html-keyboard-response","133","368084","0.0-10.0-0.44","5fd9c5c67fa7c74ec42bb318","650c16f0f2faf8d7a0d14c09","651c354cec89511cd107ab90","null","null","<p style=""font-size: 60px; font-family: BACS"">ArQuYbN</p>","","","","","","","","",""
"html-keyboard-response","134","369092","0.0-10.0-0.45","5fd9c5c67fa7c74ec42bb318","650c16f0f2faf8d7a0d14c09","651c354cec89511cd107ab90","null","null","<p style=""font-size: 60px; font-family: BACS"">AYkEhdPc</p>","","","","","","","","",""
"html-keyboard-response","135","370104","0.0-10.0-0.46","5fd9c5c67fa7c74ec42bb318","650c16f0f2faf8d7a0d14c09","651c354cec89511cd107ab90","null","null","<p style=""font-size: 60px; font-family: BACS"">dJNrYLU</p>","","","","","","","","",""
"html-keyboard-response","136","371116","0.0-10.0-0.47","5fd9c5c67fa7c74ec42bb318","650c16f0f2faf8d7a0d14c09","651c354cec89511cd107ab90","null","null","<p style=""font-size: 60px; font-family: BACS"">NaAQdJUG</p>","","","","","","","","",""
"html-keyboard-response","137","372126","0.0-10.0-0.48","5fd9c5c67fa7c74ec42bb318","650c16f0f2faf8d7a0d14c09","651c354cec89511cd107ab90","null","null","<p style=""font-size: 60px; font-family: BACS"">EhRmBYhT</p>","","","","","","","","",""
"html-keyboard-response","138","373140","0.0-10.0-0.49","5fd9c5c67fa7c74ec42bb318","650c16f0f2faf8d7a0d14c09","651c354cec89511cd107ab90","null","null","<p style=""font-size: 60px; font-family: BACS"">TdTDBCAd</p>","","","","","","","","",""
"html-keyboard-response","139","374154","0.0-10.0-0.50","5fd9c5c67fa7c74ec42bb318","650c16f0f2faf8d7a0d14c09","651c354cec89511cd107ab90","null","null","<p style=""font-size: 60px; font-family: BACS"">UrOQAOUl</p>","","","","","","","","",""
"html-keyboard-response","140","375166","0.0-10.0-0.51","5fd9c5c67fa7c74ec42bb318","650c16f0f2faf8d7a0d14c09","651c354cec89511cd107ab90","null","null","<p style=""font-size: 60px; font-family: BACS"">MBmEBRDh</p>","","","","","","","","",""
"html-keyboard-response","141","376171","0.0-10.0-0.52","5fd9c5c67fa7c74ec42bb318","650c16f0f2faf8d7a0d14c09","651c354cec89511cd107ab90","null","null","<p style=""font-size: 60px; font-family: BACS"">kcCRtBYhT</p>","","","","","","","","",""
"html-keyboard-response","142","377172","0.0-10.0-0.53","5fd9c5c67fa7c74ec42bb318","650c16f0f2faf8d7a0d14c09","651c354cec89511cd107ab90","null","null","<p style=""font-size: 60px; font-family: BACS"">JmNkJUG</p>","","","","","","","","",""
"html-keyboard-response","143","378176","0.0-10.0-0.54","5fd9c5c67fa7c74ec42bb318","650c16f0f2faf8d7a0d14c09","651c354cec89511cd107ab90","null","null","<p style=""font-size: 60px; font-family: BACS"">PYkCdBC</p>","","","","","","","","",""
"html-keyboard-response","144","379178","0.0-10.0-0.55","5fd9c5c67fa7c74ec42bb318","650c16f0f2faf8d7a0d14c09","651c354cec89511cd107ab90","null","null","<p style=""font-size: 60px; font-family: BACS"">dJNrJUG</p>","","","","","","","","",""
"html-keyboard-response","145","380183","0.0-10.0-0.56","5fd9c5c67fa7c74ec42bb318","650c16f0f2faf8d7a0d14c09","651c354cec89511cd107ab90","null","null","<p style=""font-size: 60px; font-family: BACS"">JmNkYZUZ</p>","","","","","","","","",""
"html-keyboard-response","146","381197","0.0-10.0-0.57","5fd9c5c67fa7c74ec42bb318","650c16f0f2faf8d7a0d14c09","651c354cec89511cd107ab90","null","null","<p style=""font-size: 60px; font-family: BACS"">EhRmBCAd</p>","","","","","","","","",""
"html-keyboard-response","147","382206","0.0-10.0-0.58","5fd9c5c67fa7c74ec42bb318","650c16f0f2faf8d7a0d14c09","651c354cec89511cd107ab90","null","null","<p style=""font-size: 60px; font-family: BACS"">UrOQYbN</p>","","","","","","","","",""
"html-keyboard-response","148","383211","0.0-10.0-0.59","5fd9c5c67fa7c74ec42bb318","650c16f0f2faf8d7a0d14c09","651c354cec89511cd107ab90","null","null","<p style=""font-size: 60px; font-family: BACS"">kcCRtBCAd</p>","","","","","","","","",""
"html-keyboard-response","149","384213","0.0-10.0-0.60","5fd9c5c67fa7c74ec42bb318","650c16f0f2faf8d7a0d14c09","651c354cec89511cd107ab90","null","null","<p style=""font-size: 60px; font-family: BACS"">vQdOJUG</p>","","","","","","","","",""
"html-keyboard-response","150","385234","0.0-10.0-0.61","5fd9c5c67fa7c74ec42bb318","650c16f0f2faf8d7a0d14c09","651c354cec89511cd107ab90","null","null","<p style=""font-size: 60px; font-family: BACS"">dJNrYZUZ</p>","","","","","","","","",""
"html-keyboard-response","151","386248","0.0-10.0-0.62","5fd9c5c67fa7c74ec42bb318","650c16f0f2faf8d7a0d14c09","651c354cec89511cd107ab90","null","null","<p style=""font-size: 60px; font-family: BACS"">ZYcQUYbN</p>","","","","","","","","",""
"html-keyboard-response","152","387257","0.0-10.0-0.63","5fd9c5c67fa7c74ec42bb318","650c16f0f2faf8d7a0d14c09","651c354cec89511cd107ab90","null","null","<p style=""font-size: 60px; font-family: BACS"">ArQuYLU</p>","","","","","","","","",""
"html-keyboard-response","153","388271","0.0-10.0-0.64","5fd9c5c67fa7c74ec42bb318","650c16f0f2faf8d7a0d14c09","651c354cec89511cd107ab90","null","null","<p style=""font-size: 60px; font-family: BACS"">YObABYhT</p>","","","","","","","","",""
"html-keyboard-response","154","389287","0.0-10.0-0.65","5fd9c5c67fa7c74ec42bb318","650c16f0f2faf8d7a0d14c09","651c354cec89511cd107ab90","null","null","<p style=""font-size: 60px; font-family: BACS"">kcCRtdPc</p>","","","","","","","","",""
"html-keyboard-response","155","390306","0.0-10.0-0.66","5fd9c5c67fa7c74ec42bb318","650c16f0f2faf8d7a0d14c09","651c354cec89511cd107ab90","null","null","<p style=""font-size: 60px; font-family: BACS"">RdPtDBYhT</p>","","","","","","","","",""
"html-keyboard-response","156","391326","0.0-10.0-0.67","5fd9c5c67fa7c74ec42bb318","650c16f0f2faf8d7a0d14c09","651c354cec89511cd107ab90","null","null","<p style=""font-size: 60px; font-family: BACS"">EhRmBRDh</p>","","","","","","","","",""
"html-keyboard-response","157","392342","0.0-10.0-0.68","5fd9c5c67fa7c74ec42bb318","650c16f0f2faf8d7a0d14c09","651c354cec89511cd107ab90","null","null","<p style=""font-size: 60px; font-family: BACS"">rvOvUJUG</p>","","","","","","","","",""
"html-keyboard-response","158","393353","0.0-10.0-0.69","5fd9c5c67fa7c74ec42bb318","650c16f0f2faf8d7a0d14c09","651c354cec89511cd107ab90","null","null","<p style=""font-size: 60px; font-family: BACS"">PYkCdPc</p>","","","","","","","","",""
"html-keyboard-response","159","394376","0.0-10.0-0.70","5fd9c5c67fa7c74ec42bb318","650c16f0f2faf8d7a0d14c09","651c354cec89511cd107ab90","null","null","<p style=""font-size: 60px; font-family: BACS"">ZYcQUYZUZ</p>","","","","","","","","",""
"html-keyboard-response","160","395398","0.0-10.0-0.71","5fd9c5c67fa7c74ec42bb318","650c16f0f2faf8d7a0d14c09","651c354cec89511cd107ab90","null","null","<p style=""font-size: 60px; font-family: BACS"">PYkCBCAd</p>","","","","","","","","",""
"html-keyboard-response","161","396415","0.0-10.0-0.72","5fd9c5c67fa7c74ec42bb318","650c16f0f2faf8d7a0d14c09","651c354cec89511cd107ab90","null","null","<p style=""font-size: 60px; font-family: BACS"">MBmEdPc</p>","","","","","","","","",""
"html-keyboard-response","162","397437","0.0-10.0-0.73","5fd9c5c67fa7c74ec42bb318","650c16f0f2faf8d7a0d14c09","651c354cec89511cd107ab90","null","null","<p style=""font-size: 60px; font-family: BACS"">tDPRkdBC</p>","","","","","","","","",""
"html-keyboard-response","163","398455","0.0-10.0-0.74","5fd9c5c67fa7c74ec42bb318","650c16f0f2faf8d7a0d14c09","651c354cec89511cd107ab90","null","null","<p style=""font-size: 60px; font-family: BACS"">kLvdNYbN</p>","","","","","","","","",""
"html-keyboard-response","164","399475","0.0-10.0-0.75","5fd9c5c67fa7c74ec42bb318","650c16f0f2faf8d7a0d14c09","651c354cec89511cd107ab90","null","null","<p style=""font-size: 60px; font-family: BACS"">JmNkYLU</p>","","","","","","","","",""
"html-keyboard-response","165","400498","0.0-10.0-0.76","5fd9c5c67fa7c74ec42bb318","650c16f0f2faf8d7a0d14c09","651c354cec89511cd107ab90","null","null","<p style=""font-size: 60px; font-family: BACS"">MBmEBCAd</p>","","","","","","","","",""
"html-keyboard-response","166","401517","0.0-10.0-0.77","5fd9c5c67fa7c74ec42bb318","650c16f0f2faf8d7a0d14c09","651c354cec89511cd107ab90","null","null","<p style=""font-size: 60px; font-family: BACS"">NaAQdYbN</p>","","","","","","","","",""
"html-keyboard-response","167","402536","0.0-10.0-0.78","5fd9c5c67fa7c74ec42bb318","650c16f0f2faf8d7a0d14c09","651c354cec89511cd107ab90","null","null","<p style=""font-size: 60px; font-family: BACS"">JmNkAOUl</p>","","","","","","","","",""
"html-keyboard-response","168","403551","0.0-10.0-0.79","5fd9c5c67fa7c74ec42bb318","650c16f0f2faf8d7a0d14c09","651c354cec89511cd107ab90","null","null","<p style=""font-size: 60px; font-family: BACS"">TdTDdPc</p>","","","","","","","","",""
"html-keyboard-response","169","475380","0.0-11.0","5fd9c5c67fa7c74ec42bb318","650c16f0f2faf8d7a0d14c09","651c354cec89511cd107ab90","71829"," ","<p>Great, you've seen the second block of words. You may now take a short break.</p>
      <p>Press the spacebar when you're ready to continue.</p>","","","","","","","","",""
"html-keyboard-response","170","476390","0.0-12.0-0.0","5fd9c5c67fa7c74ec42bb318","650c16f0f2faf8d7a0d14c09","651c354cec89511cd107ab90","null","null","<p style=""font-size: 60px; font-family: BACS"">YObAdBC</p>","","","","","","","","",""
"html-keyboard-response","171","477395","0.0-12.0-0.1","5fd9c5c67fa7c74ec42bb318","650c16f0f2faf8d7a0d14c09","651c354cec89511cd107ab90","null","null","<p style=""font-size: 60px; font-family: BACS"">EhRmBCAd</p>","","","","","","","","",""
"html-keyboard-response","172","478402","0.0-12.0-0.2","5fd9c5c67fa7c74ec42bb318","650c16f0f2faf8d7a0d14c09","651c354cec89511cd107ab90","null","null","<p style=""font-size: 60px; font-family: BACS"">RdPtDdPc</p>","","","","","","","","",""
"html-keyboard-response","173","479417","0.0-12.0-0.3","5fd9c5c67fa7c74ec42bb318","650c16f0f2faf8d7a0d14c09","651c354cec89511cd107ab90","null","null","<p style=""font-size: 60px; font-family: BACS"">UrOQYLU</p>","","","","","","","","",""
"html-keyboard-response","174","480424","0.0-12.0-0.4","5fd9c5c67fa7c74ec42bb318","650c16f0f2faf8d7a0d14c09","651c354cec89511cd107ab90","null","null","<p style=""font-size: 60px; font-family: BACS"">tDPRkdBC</p>","","","","","","","","",""
"html-keyboard-response","175","481435","0.0-12.0-0.5","5fd9c5c67fa7c74ec42bb318","650c16f0f2faf8d7a0d14c09","651c354cec89511cd107ab90","null","null","<p style=""font-size: 60px; font-family: BACS"">kLvdNYbN</p>","","","","","","","","",""
"html-keyboard-response","176","482437","0.0-12.0-0.6","5fd9c5c67fa7c74ec42bb318","650c16f0f2faf8d7a0d14c09","651c354cec89511cd107ab90","null","null","<p style=""font-size: 60px; font-family: BACS"">dJNrAOUl</p>","","","","","","","","",""
"html-keyboard-response","177","483453","0.0-12.0-0.7","5fd9c5c67fa7c74ec42bb318","650c16f0f2faf8d7a0d14c09","651c354cec89511cd107ab90","null","null","<p style=""font-size: 60px; font-family: BACS"">AYkEhBCAd</p>","","","","","","","","",""
"html-keyboard-response","178","484465","0.0-12.0-0.8","5fd9c5c67fa7c74ec42bb318","650c16f0f2faf8d7a0d14c09","651c354cec89511cd107ab90","null","null","<p style=""font-size: 60px; font-family: BACS"">RdPtDBYhT</p>","","","","","","","","",""
"html-keyboard-response","179","485471","0.0-12.0-0.9","5fd9c5c67fa7c74ec42bb318","650c16f0f2faf8d7a0d14c09","651c354cec89511cd107ab90","null","null","<p style=""font-size: 60px; font-family: BACS"">dJNrJUG</p>","","","","","","","","",""
"html-keyboard-response","180","486477","0.0-12.0-0.10","5fd9c5c67fa7c74ec42bb318","650c16f0f2faf8d7a0d14c09","651c354cec89511cd107ab90","null","null","<p style=""font-size: 60px; font-family: BACS"">EhRmBRDh</p>","","","","","","","","",""
"html-keyboard-response","181","487482","0.0-12.0-0.11","5fd9c5c67fa7c74ec42bb318","650c16f0f2faf8d7a0d14c09","651c354cec89511cd107ab90","null","null","<p style=""font-size: 60px; font-family: BACS"">UrOQJUG</p>","","","","","","","","",""
"html-keyboard-response","182","488494","0.0-12.0-0.12","5fd9c5c67fa7c74ec42bb318","650c16f0f2faf8d7a0d14c09","651c354cec89511cd107ab90","null","null","<p style=""font-size: 60px; font-family: BACS"">QbkAcAOUl</p>","","","","","","","","",""
"html-keyboard-response","183","489511","0.0-12.0-0.13","5fd9c5c67fa7c74ec42bb318","650c16f0f2faf8d7a0d14c09","651c354cec89511cd107ab90","null","null","<p style=""font-size: 60px; font-family: BACS"">TdTDdBC</p>","","","","","","","","",""
"html-keyboard-response","184","490512","0.0-12.0-0.14","5fd9c5c67fa7c74ec42bb318","650c16f0f2faf8d7a0d14c09","651c354cec89511cd107ab90","null","null","<p style=""font-size: 60px; font-family: BACS"">PYkCdPc</p>","","","","","","","","",""
"html-keyboard-response","185","491516","0.0-12.0-0.15","5fd9c5c67fa7c74ec42bb318","650c16f0f2faf8d7a0d14c09","651c354cec89511cd107ab90","null","null","<p style=""font-size: 60px; font-family: BACS"">ArQuAOUl</p>","","","","","","","","",""
"html-keyboard-response","186","492524","0.0-12.0-0.16","5fd9c5c67fa7c74ec42bb318","650c16f0f2faf8d7a0d14c09","651c354cec89511cd107ab90","null","null","<p style=""font-size: 60px; font-family: BACS"">kcCRtBYhT</p>","","","","","","","","",""
"html-keyboard-response","187","493526","0.0-12.0-0.17","5fd9c5c67fa7c74ec42bb318","650c16f0f2faf8d7a0d14c09","651c354cec89511cd107ab90","null","null","<p style=""font-size: 60px; font-family: BACS"">JmNkYLU</p>","","","","","","","","",""
"html-keyboard-response","188","494532","0.0-12.0-0.18","5fd9c5c67fa7c74ec42bb318","650c16f0f2faf8d7a0d14c09","651c354cec89511cd107ab90","null","null","<p style=""font-size: 60px; font-family: BACS"">vQdOJUG</p>","","","","","","","","",""
"html-keyboard-response","189","495534","0.0-12.0-0.19","5fd9c5c67fa7c74ec42bb318","650c16f0f2faf8d7a0d14c09","651c354cec89511cd107ab90","null","null","<p style=""font-size: 60px; font-family: BACS"">kLvdNYZUZ</p>","","","","","","","","",""
"html-keyboard-response","190","496535","0.0-12.0-0.20","5fd9c5c67fa7c74ec42bb318","650c16f0f2faf8d7a0d14c09","651c354cec89511cd107ab90","null","null","<p style=""font-size: 60px; font-family: BACS"">MBmEBYhT</p>","","","","","","","","",""
"html-keyboard-response","191","497549","0.0-12.0-0.21","5fd9c5c67fa7c74ec42bb318","650c16f0f2faf8d7a0d14c09","651c354cec89511cd107ab90","null","null","<p style=""font-size: 60px; font-family: BACS"">ArQuYZUZ</p>","","","","","","","","",""
"html-keyboard-response","192","498561","0.0-12.0-0.22","5fd9c5c67fa7c74ec42bb318","650c16f0f2faf8d7a0d14c09","651c354cec89511cd107ab90","null","null","<p style=""font-size: 60px; font-family: BACS"">UrOQYbN</p>","","","","","","","","",""
"html-keyboard-response","193","499572","0.0-12.0-0.23","5fd9c5c67fa7c74ec42bb318","650c16f0f2faf8d7a0d14c09","651c354cec89511cd107ab90","null","null","<p style=""font-size: 60px; font-family: BACS"">ZYcQUYZUZ</p>","","","","","","","","",""
"html-keyboard-response","194","500579","0.0-12.0-0.24","5fd9c5c67fa7c74ec42bb318","650c16f0f2faf8d7a0d14c09","651c354cec89511cd107ab90","null","null","<p style=""font-size: 60px; font-family: BACS"">NaAQdAOUl</p>","","","","","","","","",""
"html-keyboard-response","195","501589","0.0-12.0-0.25","5fd9c5c67fa7c74ec42bb318","650c16f0f2faf8d7a0d14c09","651c354cec89511cd107ab90","null","null","<p style=""font-size: 60px; font-family: BACS"">DkTCPdBC</p>","","","","","","","","",""
"html-keyboard-response","196","502599","0.0-12.0-0.26","5fd9c5c67fa7c74ec42bb318","650c16f0f2faf8d7a0d14c09","651c354cec89511cd107ab90","null","null","<p style=""font-size: 60px; font-family: BACS"">kLvdNYLU</p>","","","","","","","","",""
"html-keyboard-response","197","503606","0.0-12.0-0.27","5fd9c5c67fa7c74ec42bb318","650c16f0f2faf8d7a0d14c09","651c354cec89511cd107ab90","null","null","<p style=""font-size: 60px; font-family: BACS"">ArQuYbN</p>","","","","","","","","",""
"html-keyboard-response","198","504608","0.0-12.0-0.28","5fd9c5c67fa7c74ec42bb318","650c16f0f2faf8d7a0d14c09","651c354cec89511cd107ab90","null","null","<p style=""font-size: 60px; font-family: BACS"">NaAQdJUG</p>","","","","","","","","",""
"html-keyboard-response","199","505612","0.0-12.0-0.29","5fd9c5c67fa7c74ec42bb318","650c16f0f2faf8d7a0d14c09","651c354cec89511cd107ab90","null","null","<p style=""font-size: 60px; font-family: BACS"">EhRmBYhT</p>","","","","","","","","",""
"html-keyboard-response","200","506630","0.0-12.0-0.30","5fd9c5c67fa7c74ec42bb318","650c16f0f2faf8d7a0d14c09","651c354cec89511cd107ab90","null","null","<p style=""font-size: 60px; font-family: BACS"">YObABCAd</p>","","","","","","","","",""
"html-keyboard-response","201","507635","0.0-12.0-0.31","5fd9c5c67fa7c74ec42bb318","650c16f0f2faf8d7a0d14c09","651c354cec89511cd107ab90","null","null","<p style=""font-size: 60px; font-family: BACS"">TdTDBRDh</p>","","","","","","","","",""
"html-keyboard-response","202","508641","0.0-12.0-0.32","5fd9c5c67fa7c74ec42bb318","650c16f0f2faf8d7a0d14c09","651c354cec89511cd107ab90","null","null","<p style=""font-size: 60px; font-family: BACS"">DkTCPBYhT</p>","","","","","","","","",""
"html-keyboard-response","203","509642","0.0-12.0-0.33","5fd9c5c67fa7c74ec42bb318","650c16f0f2faf8d7a0d14c09","651c354cec89511cd107ab90","null","null","<p style=""font-size: 60px; font-family: BACS"">AYkEhdPc</p>","","","","","","","","",""
"html-keyboard-response","204","510646","0.0-12.0-0.34","5fd9c5c67fa7c74ec42bb318","650c16f0f2faf8d7a0d14c09","651c354cec89511cd107ab90","null","null","<p style=""font-size: 60px; font-family: BACS"">rvOvUYbN</p>","","","","","","","","",""
"html-keyboard-response","205","511662","0.0-12.0-0.35","5fd9c5c67fa7c74ec42bb318","650c16f0f2faf8d7a0d14c09","651c354cec89511cd107ab90","null","null","<p style=""font-size: 60px; font-family: BACS"">JmNkJUG</p>","","","","","","","","",""
"html-keyboard-response","206","512667","0.0-12.0-0.36","5fd9c5c67fa7c74ec42bb318","650c16f0f2faf8d7a0d14c09","651c354cec89511cd107ab90","null","null","<p style=""font-size: 60px; font-family: BACS"">EhRmdBC</p>","","","","","","","","",""
"html-keyboard-response","207","513669","0.0-12.0-0.37","5fd9c5c67fa7c74ec42bb318","650c16f0f2faf8d7a0d14c09","651c354cec89511cd107ab90","null","null","<p style=""font-size: 60px; font-family: BACS"">rvOvUYLU</p>","","","","","","","","",""
"html-keyboard-response","208","514681","0.0-12.0-0.38","5fd9c5c67fa7c74ec42bb318","650c16f0f2faf8d7a0d14c09","651c354cec89511cd107ab90","null","null","<p style=""font-size: 60px; font-family: BACS"">RdPtDdBC</p>","","","","","","","","",""
"html-keyboard-response","209","515698","0.0-12.0-0.39","5fd9c5c67fa7c74ec42bb318","650c16f0f2faf8d7a0d14c09","651c354cec89511cd107ab90","null","null","<p style=""font-size: 60px; font-family: BACS"">kcCRtBRDh</p>","","","","","","","","",""
"html-keyboard-response","210","516700","0.0-12.0-0.40","5fd9c5c67fa7c74ec42bb318","650c16f0f2faf8d7a0d14c09","651c354cec89511cd107ab90","null","null","<p style=""font-size: 60px; font-family: BACS"">dJNrYLU</p>","","","","","","","","",""
"html-keyboard-response","211","517713","0.0-12.0-0.41","5fd9c5c67fa7c74ec42bb318","650c16f0f2faf8d7a0d14c09","651c354cec89511cd107ab90","null","null","<p style=""font-size: 60px; font-family: BACS"">RdPtDBRDh</p>","","","","","","","","",""
"html-keyboard-response","212","518724","0.0-12.0-0.42","5fd9c5c67fa7c74ec42bb318","650c16f0f2faf8d7a0d14c09","651c354cec89511cd107ab90","null","null","<p style=""font-size: 60px; font-family: BACS"">ArQuYLU</p>","","","","","","","","",""
"html-keyboard-response","213","519736","0.0-12.0-0.43","5fd9c5c67fa7c74ec42bb318","650c16f0f2faf8d7a0d14c09","651c354cec89511cd107ab90","null","null","<p style=""font-size: 60px; font-family: BACS"">QbkAcYZUZ</p>","","","","","","","","",""
"html-keyboard-response","214","520740","0.0-12.0-0.44","5fd9c5c67fa7c74ec42bb318","650c16f0f2faf8d7a0d14c09","651c354cec89511cd107ab90","null","null","<p style=""font-size: 60px; font-family: BACS"">MBmEdPc</p>","","","","","","","","",""
"html-keyboard-response","215","521744","0.0-12.0-0.45","5fd9c5c67fa7c74ec42bb318","650c16f0f2faf8d7a0d14c09","651c354cec89511cd107ab90","null","null","<p style=""font-size: 60px; font-family: BACS"">dJNrYZUZ</p>","","","","","","","","",""
"html-keyboard-response","216","522745","0.0-12.0-0.46","5fd9c5c67fa7c74ec42bb318","650c16f0f2faf8d7a0d14c09","651c354cec89511cd107ab90","null","null","<p style=""font-size: 60px; font-family: BACS"">vQdOYLU</p>","","","","","","","","",""
"html-keyboard-response","217","523756","0.0-12.0-0.47","5fd9c5c67fa7c74ec42bb318","650c16f0f2faf8d7a0d14c09","651c354cec89511cd107ab90","null","null","<p style=""font-size: 60px; font-family: BACS"">TdTDBCAd</p>","","","","","","","","",""
"html-keyboard-response","218","524769","0.0-12.0-0.48","5fd9c5c67fa7c74ec42bb318","650c16f0f2faf8d7a0d14c09","651c354cec89511cd107ab90","null","null","<p style=""font-size: 60px; font-family: BACS"">tDPRkdPc</p>","","","","","","","","",""
"html-keyboard-response","219","525779","0.0-12.0-0.49","5fd9c5c67fa7c74ec42bb318","650c16f0f2faf8d7a0d14c09","651c354cec89511cd107ab90","null","null","<p style=""font-size: 60px; font-family: BACS"">DkTCPBCAd</p>","","","","","","","","",""
"html-keyboard-response","220","526793","0.0-12.0-0.50","5fd9c5c67fa7c74ec42bb318","650c16f0f2faf8d7a0d14c09","651c354cec89511cd107ab90","null","null","<p style=""font-size: 60px; font-family: BACS"">rvOvUJUG</p>","","","","","","","","",""
"html-keyboard-response","221","527798","0.0-12.0-0.51","5fd9c5c67fa7c74ec42bb318","650c16f0f2faf8d7a0d14c09","651c354cec89511cd107ab90","null","null","<p style=""font-size: 60px; font-family: BACS"">NaAQdYbN</p>","","","","","","","","",""
"html-keyboard-response","222","528811","0.0-12.0-0.52","5fd9c5c67fa7c74ec42bb318","650c16f0f2faf8d7a0d14c09","651c354cec89511cd107ab90","null","null","<p style=""font-size: 60px; font-family: BACS"">AYkEhBRDh</p>","","","","","","","","",""
"html-keyboard-response","223","529829","0.0-12.0-0.53","5fd9c5c67fa7c74ec42bb318","650c16f0f2faf8d7a0d14c09","651c354cec89511cd107ab90","null","null","<p style=""font-size: 60px; font-family: BACS"">QbkAcJUG</p>","","","","","","","","",""
"html-keyboard-response","224","530839","0.0-12.0-0.54","5fd9c5c67fa7c74ec42bb318","650c16f0f2faf8d7a0d14c09","651c354cec89511cd107ab90","null","null","<p style=""font-size: 60px; font-family: BACS"">rvOvUYZUZ</p>","","","","","","","","",""
"html-keyboard-response","225","531842","0.0-12.0-0.55","5fd9c5c67fa7c74ec42bb318","650c16f0f2faf8d7a0d14c09","651c354cec89511cd107ab90","null","null","<p style=""font-size: 60px; font-family: BACS"">AYkEhdBC</p>","","","","","","","","",""
"html-keyboard-response","226","532849","0.0-12.0-0.56","5fd9c5c67fa7c74ec42bb318","650c16f0f2faf8d7a0d14c09","651c354cec89511cd107ab90","null","null","<p style=""font-size: 60px; font-family: BACS"">kcCRtdPc</p>","","","","","","","","",""
"html-keyboard-response","227","533860","0.0-12.0-0.57","5fd9c5c67fa7c74ec42bb318","650c16f0f2faf8d7a0d14c09","651c354cec89511cd107ab90","null","null","<p style=""font-size: 60px; font-family: BACS"">MBmEBCAd</p>","","","","","","","","",""
"html-keyboard-response","228","534863","0.0-12.0-0.58","5fd9c5c67fa7c74ec42bb318","650c16f0f2faf8d7a0d14c09","651c354cec89511cd107ab90","null","null","<p style=""font-size: 60px; font-family: BACS"">ZYcQUYLU</p>","","","","","","","","",""
"html-keyboard-response","229","535867","0.0-12.0-0.59","5fd9c5c67fa7c74ec42bb318","650c16f0f2faf8d7a0d14c09","651c354cec89511cd107ab90","null","null","<p style=""font-size: 60px; font-family: BACS"">PYkCdBC</p>","","","","","","","","",""
"html-keyboard-response","230","536872","0.0-12.0-0.60","5fd9c5c67fa7c74ec42bb318","650c16f0f2faf8d7a0d14c09","651c354cec89511cd107ab90","null","null","<p style=""font-size: 60px; font-family: BACS"">YObABYhT</p>","","","","","","","","",""
"html-keyboard-response","231","537878","0.0-12.0-0.61","5fd9c5c67fa7c74ec42bb318","650c16f0f2faf8d7a0d14c09","651c354cec89511cd107ab90","null","null","<p style=""font-size: 60px; font-family: BACS"">QbkAcYbN</p>","","","","","","","","",""
"html-keyboard-response","232","538885","0.0-12.0-0.62","5fd9c5c67fa7c74ec42bb318","650c16f0f2faf8d7a0d14c09","651c354cec89511cd107ab90","null","null","<p style=""font-size: 60px; font-family: BACS"">kcCRtBCAd</p>","","","","","","","","",""
"html-keyboard-response","233","539888","0.0-12.0-0.63","5fd9c5c67fa7c74ec42bb318","650c16f0f2faf8d7a0d14c09","651c354cec89511cd107ab90","null","null","<p style=""font-size: 60px; font-family: BACS"">UrOQAOUl</p>","","","","","","","","",""
"html-keyboard-response","234","540895","0.0-12.0-0.64","5fd9c5c67fa7c74ec42bb318","650c16f0f2faf8d7a0d14c09","651c354cec89511cd107ab90","null","null","<p style=""font-size: 60px; font-family: BACS"">kLvdNJUG</p>","","","","","","","","",""
"html-keyboard-response","235","541907","0.0-12.0-0.65","5fd9c5c67fa7c74ec42bb318","650c16f0f2faf8d7a0d14c09","651c354cec89511cd107ab90","null","null","<p style=""font-size: 60px; font-family: BACS"">ZYcQUAOUl</p>","","","","","","","","",""
"html-keyboard-response","236","542912","0.0-12.0-0.66","5fd9c5c67fa7c74ec42bb318","650c16f0f2faf8d7a0d14c09","651c354cec89511cd107ab90","null","null","<p style=""font-size: 60px; font-family: BACS"">PYkCBYhT</p>","","","","","","","","",""
"html-keyboard-response","237","543923","0.0-12.0-0.67","5fd9c5c67fa7c74ec42bb318","650c16f0f2faf8d7a0d14c09","651c354cec89511cd107ab90","null","null","<p style=""font-size: 60px; font-family: BACS"">DkTCPdPc</p>","","","","","","","","",""
"html-keyboard-response","238","544926","0.0-12.0-0.68","5fd9c5c67fa7c74ec42bb318","650c16f0f2faf8d7a0d14c09","651c354cec89511cd107ab90","null","null","<p style=""font-size: 60px; font-family: BACS"">PYkCBCAd</p>","","","","","","","","",""
"html-keyboard-response","239","545927","0.0-12.0-0.69","5fd9c5c67fa7c74ec42bb318","650c16f0f2faf8d7a0d14c09","651c354cec89511cd107ab90","null","null","<p style=""font-size: 60px; font-family: BACS"">ZYcQUYbN</p>","","","","","","","","",""
"html-keyboard-response","240","546930","0.0-12.0-0.70","5fd9c5c67fa7c74ec42bb318","650c16f0f2faf8d7a0d14c09","651c354cec89511cd107ab90","null","null","<p style=""font-size: 60px; font-family: BACS"">vQdOAOUl</p>","","","","","","","","",""
"html-keyboard-response","241","547946","0.0-12.0-0.71","5fd9c5c67fa7c74ec42bb318","650c16f0f2faf8d7a0d14c09","651c354cec89511cd107ab90","null","null","<p style=""font-size: 60px; font-family: BACS"">NaAQdYZUZ</p>","","","","","","","","",""
"html-keyboard-response","242","548949","0.0-12.0-0.72","5fd9c5c67fa7c74ec42bb318","650c16f0f2faf8d7a0d14c09","651c354cec89511cd107ab90","null","null","<p style=""font-size: 60px; font-family: BACS"">TdTDdPc</p>","","","","","","","","",""
"html-keyboard-response","243","549953","0.0-12.0-0.73","5fd9c5c67fa7c74ec42bb318","650c16f0f2faf8d7a0d14c09","651c354cec89511cd107ab90","null","null","<p style=""font-size: 60px; font-family: BACS"">tDPRkBYhT</p>","","","","","","","","",""
"html-keyboard-response","244","550961","0.0-12.0-0.74","5fd9c5c67fa7c74ec42bb318","650c16f0f2faf8d7a0d14c09","651c354cec89511cd107ab90","null","null","<p style=""font-size: 60px; font-family: BACS"">MBmEBRDh</p>","","","","","","","","",""
"html-keyboard-response","245","551963","0.0-12.0-0.75","5fd9c5c67fa7c74ec42bb318","650c16f0f2faf8d7a0d14c09","651c354cec89511cd107ab90","null","null","<p style=""font-size: 60px; font-family: BACS"">JmNkYZUZ</p>","","","","","","","","",""
"html-keyboard-response","246","552965","0.0-12.0-0.76","5fd9c5c67fa7c74ec42bb318","650c16f0f2faf8d7a0d14c09","651c354cec89511cd107ab90","null","null","<p style=""font-size: 60px; font-family: BACS"">YObABRDh</p>","","","","","","","","",""
"html-keyboard-response","247","553966","0.0-12.0-0.77","5fd9c5c67fa7c74ec42bb318","650c16f0f2faf8d7a0d14c09","651c354cec89511cd107ab90","null","null","<p style=""font-size: 60px; font-family: BACS"">vQdOYbN</p>","","","","","","","","",""
"html-keyboard-response","248","554969","0.0-12.0-0.78","5fd9c5c67fa7c74ec42bb318","650c16f0f2faf8d7a0d14c09","651c354cec89511cd107ab90","null","null","<p style=""font-size: 60px; font-family: BACS"">JmNkAOUl</p>","","","","","","","","",""
"html-keyboard-response","249","555989","0.0-12.0-0.79","5fd9c5c67fa7c74ec42bb318","650c16f0f2faf8d7a0d14c09","651c354cec89511cd107ab90","null","null","<p style=""font-size: 60px; font-family: BACS"">tDPRkBRDh</p>","","","","","","","","",""
"html-keyboard-response","250","683766","0.0-13.0","5fd9c5c67fa7c74ec42bb318","650c16f0f2faf8d7a0d14c09","651c354cec89511cd107ab90","127776"," ","<p>Great, you've seen the third block of words. You may now take a short break.</p>
      <p>Press the spacebar when you're ready to continue.</p>","","","","","","","","",""
"html-keyboard-response","251","684775","0.0-14.0-0.0","5fd9c5c67fa7c74ec42bb318","650c16f0f2faf8d7a0d14c09","651c354cec89511cd107ab90","null","null","<p style=""font-size: 60px; font-family: BACS"">kcCRtdPc</p>","","","","","","","","",""
"html-keyboard-response","252","685777","0.0-14.0-0.1","5fd9c5c67fa7c74ec42bb318","650c16f0f2faf8d7a0d14c09","651c354cec89511cd107ab90","null","null","<p style=""font-size: 60px; font-family: BACS"">RdPtDdBC</p>","","","","","","","","",""
"html-keyboard-response","253","686788","0.0-14.0-0.2","5fd9c5c67fa7c74ec42bb318","650c16f0f2faf8d7a0d14c09","651c354cec89511cd107ab90","null","null","<p style=""font-size: 60px; font-family: BACS"">MBmEBCAd</p>","","","","","","","","",""
"html-keyboard-response","254","687794","0.0-14.0-0.3","5fd9c5c67fa7c74ec42bb318","650c16f0f2faf8d7a0d14c09","651c354cec89511cd107ab90","null","null","<p style=""font-size: 60px; font-family: BACS"">kLvdNYLU</p>","","","","","","","","",""
"html-keyboard-response","255","688798","0.0-14.0-0.4","5fd9c5c67fa7c74ec42bb318","650c16f0f2faf8d7a0d14c09","651c354cec89511cd107ab90","null","null","<p style=""font-size: 60px; font-family: BACS"">UrOQAOUl</p>","","","","","","","","",""
"html-keyboard-response","256","689801","0.0-14.0-0.5","5fd9c5c67fa7c74ec42bb318","650c16f0f2faf8d7a0d14c09","651c354cec89511cd107ab90","null","null","<p style=""font-size: 60px; font-family: BACS"">ArQuYLU</p>","","","","","","","","",""
"html-keyboard-response","257","690804","0.0-14.0-0.6","5fd9c5c67fa7c74ec42bb318","650c16f0f2faf8d7a0d14c09","651c354cec89511cd107ab90","null","null","<p style=""font-size: 60px; font-family: BACS"">EhRmBYhT</p>","","","","","","","","",""
"html-keyboard-response","258","691813","0.0-14.0-0.7","5fd9c5c67fa7c74ec42bb318","650c16f0f2faf8d7a0d14c09","651c354cec89511cd107ab90","null","null","<p style=""font-size: 60px; font-family: BACS"">ZYcQUYLU</p>","","","","","","","","",""
"html-keyboard-response","259","692822","0.0-14.0-0.8","5fd9c5c67fa7c74ec42bb318","650c16f0f2faf8d7a0d14c09","651c354cec89511cd107ab90","null","null","<p style=""font-size: 60px; font-family: BACS"">kcCRtBYhT</p>","","","","","","","","",""
"html-keyboard-response","260","693831","0.0-14.0-0.9","5fd9c5c67fa7c74ec42bb318","650c16f0f2faf8d7a0d14c09","651c354cec89511cd107ab90","null","null","<p style=""font-size: 60px; font-family: BACS"">rvOvUYLU</p>","","","","","","","","",""
"html-keyboard-response","261","694832","0.0-14.0-0.10","5fd9c5c67fa7c74ec42bb318","650c16f0f2faf8d7a0d14c09","651c354cec89511cd107ab90","null","null","<p style=""font-size: 60px; font-family: BACS"">EhRmBCAd</p>","","","","","","","","",""
"html-keyboard-response","262","695838","0.0-14.0-0.11","5fd9c5c67fa7c74ec42bb318","650c16f0f2faf8d7a0d14c09","651c354cec89511cd107ab90","null","null","<p style=""font-size: 60px; font-family: BACS"">AYkEhdBC</p>","","","","","","","","",""
"html-keyboard-response","263","696853","0.0-14.0-0.12","5fd9c5c67fa7c74ec42bb318","650c16f0f2faf8d7a0d14c09","651c354cec89511cd107ab90","null","null","<p style=""font-size: 60px; font-family: BACS"">dJNrYLU</p>","","","","","","","","",""
"html-keyboard-response","264","697869","0.0-14.0-0.13","5fd9c5c67fa7c74ec42bb318","650c16f0f2faf8d7a0d14c09","651c354cec89511cd107ab90","null","null","<p style=""font-size: 60px; font-family: BACS"">kcCRtBRDh</p>","","","","","","","","",""
"html-keyboard-response","265","698870","0.0-14.0-0.14","5fd9c5c67fa7c74ec42bb318","650c16f0f2faf8d7a0d14c09","651c354cec89511cd107ab90","null","null","<p style=""font-size: 60px; font-family: BACS"">rvOvUYZUZ</p>","","","","","","","","",""
"html-keyboard-response","266","699875","0.0-14.0-0.15","5fd9c5c67fa7c74ec42bb318","650c16f0f2faf8d7a0d14c09","651c354cec89511cd107ab90","null","null","<p style=""font-size: 60px; font-family: BACS"">vQdOYLU</p>","","","","","","","","",""
"html-keyboard-response","267","700890","0.0-14.0-0.16","5fd9c5c67fa7c74ec42bb318","650c16f0f2faf8d7a0d14c09","651c354cec89511cd107ab90","null","null","<p style=""font-size: 60px; font-family: BACS"">PYkCBCAd</p>","","","","","","","","",""
"html-keyboard-response","268","701898","0.0-14.0-0.17","5fd9c5c67fa7c74ec42bb318","650c16f0f2faf8d7a0d14c09","651c354cec89511cd107ab90","null","null","<p style=""font-size: 60px; font-family: BACS"">NaAQdYbN</p>","","","","","","","","",""
"html-keyboard-response","269","702914","0.0-14.0-0.18","5fd9c5c67fa7c74ec42bb318","650c16f0f2faf8d7a0d14c09","651c354cec89511cd107ab90","null","null","<p style=""font-size: 60px; font-family: BACS"">AYkEhdPc</p>","","","","","","","","",""
"html-keyboard-response","270","703918","0.0-14.0-0.19","5fd9c5c67fa7c74ec42bb318","650c16f0f2faf8d7a0d14c09","651c354cec89511cd107ab90","null","null","<p style=""font-size: 60px; font-family: BACS"">rvOvUYbN</p>","","","","","","","","",""
"html-keyboard-response","271","704925","0.0-14.0-0.20","5fd9c5c67fa7c74ec42bb318","650c16f0f2faf8d7a0d14c09","651c354cec89511cd107ab90","null","null","<p style=""font-size: 60px; font-family: BACS"">DkTCPBCAd</p>","","","","","","","","",""
"html-keyboard-response","272","705927","0.0-14.0-0.21","5fd9c5c67fa7c74ec42bb318","650c16f0f2faf8d7a0d14c09","651c354cec89511cd107ab90","null","null","<p style=""font-size: 60px; font-family: BACS"">NaAQdYZUZ</p>","","","","","","","","",""
"html-keyboard-response","273","706932","0.0-14.0-0.22","5fd9c5c67fa7c74ec42bb318","650c16f0f2faf8d7a0d14c09","651c354cec89511cd107ab90","null","null","<p style=""font-size: 60px; font-family: BACS"">JmNkAOUl</p>","","","","","","","","",""
"html-keyboard-response","274","707935","0.0-14.0-0.23","5fd9c5c67fa7c74ec42bb318","650c16f0f2faf8d7a0d14c09","651c354cec89511cd107ab90","null","null","<p style=""font-size: 60px; font-family: BACS"">dJNrJUG</p>","","","","","","","","",""
"html-keyboard-response","275","708941","0.0-14.0-0.24","5fd9c5c67fa7c74ec42bb318","650c16f0f2faf8d7a0d14c09","651c354cec89511cd107ab90","null","null","<p style=""font-size: 60px; font-family: BACS"">DkTCPBYhT</p>","","","","","","","","",""
"html-keyboard-response","276","709947","0.0-14.0-0.25","5fd9c5c67fa7c74ec42bb318","650c16f0f2faf8d7a0d14c09","651c354cec89511cd107ab90","null","null","<p style=""font-size: 60px; font-family: BACS"">dJNrAOUl</p>","","","","","","","","",""
"html-keyboard-response","277","710965","0.0-14.0-0.26","5fd9c5c67fa7c74ec42bb318","650c16f0f2faf8d7a0d14c09","651c354cec89511cd107ab90","null","null","<p style=""font-size: 60px; font-family: BACS"">TdTDBCAd</p>","","","","","","","","",""
"html-keyboard-response","278","711991","0.0-14.0-0.27","5fd9c5c67fa7c74ec42bb318","650c16f0f2faf8d7a0d14c09","651c354cec89511cd107ab90","null","null","<p style=""font-size: 60px; font-family: BACS"">UrOQYLU</p>","","","","","","","","",""
"html-keyboard-response","279","713014","0.0-14.0-0.28","5fd9c5c67fa7c74ec42bb318","650c16f0f2faf8d7a0d14c09","651c354cec89511cd107ab90","null","null","<p style=""font-size: 60px; font-family: BACS"">kLvdNYZUZ</p>","","","","","","","","",""
"html-keyboard-response","280","714016","0.0-14.0-0.29","5fd9c5c67fa7c74ec42bb318","650c16f0f2faf8d7a0d14c09","651c354cec89511cd107ab90","null","null","<p style=""font-size: 60px; font-family: BACS"">ZYcQUAOUl</p>","","","","","","","","",""
"html-keyboard-response","281","715031","0.0-14.0-0.30","5fd9c5c67fa7c74ec42bb318","650c16f0f2faf8d7a0d14c09","651c354cec89511cd107ab90","null","null","<p style=""font-size: 60px; font-family: BACS"">RdPtDdPc</p>","","","","","","","","",""
"html-keyboard-response","282","716035","0.0-14.0-0.31","5fd9c5c67fa7c74ec42bb318","650c16f0f2faf8d7a0d14c09","651c354cec89511cd107ab90","null","null","<p style=""font-size: 60px; font-family: BACS"">rvOvUJUG</p>","","","","","","","","",""
"html-keyboard-response","283","717043","0.0-14.0-0.32","5fd9c5c67fa7c74ec42bb318","650c16f0f2faf8d7a0d14c09","651c354cec89511cd107ab90","null","null","<p style=""font-size: 60px; font-family: BACS"">MBmEBRDh</p>","","","","","","","","",""
"html-keyboard-response","284","718054","0.0-14.0-0.33","5fd9c5c67fa7c74ec42bb318","650c16f0f2faf8d7a0d14c09","651c354cec89511cd107ab90","null","null","<p style=""font-size: 60px; font-family: BACS"">UrOQYbN</p>","","","","","","","","",""
"html-keyboard-response","285","719054","0.0-14.0-0.34","5fd9c5c67fa7c74ec42bb318","650c16f0f2faf8d7a0d14c09","651c354cec89511cd107ab90","null","null","<p style=""font-size: 60px; font-family: BACS"">PYkCdPc</p>","","","","","","","","",""
"html-keyboard-response","286","720058","0.0-14.0-0.35","5fd9c5c67fa7c74ec42bb318","650c16f0f2faf8d7a0d14c09","651c354cec89511cd107ab90","null","null","<p style=""font-size: 60px; font-family: BACS"">QbkAcYZUZ</p>","","","","","","","","",""
"html-keyboard-response","287","721058","0.0-14.0-0.36","5fd9c5c67fa7c74ec42bb318","650c16f0f2faf8d7a0d14c09","651c354cec89511cd107ab90","null","null","<p style=""font-size: 60px; font-family: BACS"">kcCRtBCAd</p>","","","","","","","","",""
"html-keyboard-response","288","722064","0.0-14.0-0.37","5fd9c5c67fa7c74ec42bb318","650c16f0f2faf8d7a0d14c09","651c354cec89511cd107ab90","null","null","<p style=""font-size: 60px; font-family: BACS"">MBmEdPc</p>","","","","","","","","",""
"html-keyboard-response","289","723068","0.0-14.0-0.38","5fd9c5c67fa7c74ec42bb318","650c16f0f2faf8d7a0d14c09","651c354cec89511cd107ab90","null","null","<p style=""font-size: 60px; font-family: BACS"">kLvdNJUG</p>","","","","","","","","",""
"html-keyboard-response","290","724069","0.0-14.0-0.39","5fd9c5c67fa7c74ec42bb318","650c16f0f2faf8d7a0d14c09","651c354cec89511cd107ab90","null","null","<p style=""font-size: 60px; font-family: BACS"">PYkCBYhT</p>","","","","","","","","",""
"html-keyboard-response","291","725078","0.0-14.0-0.40","5fd9c5c67fa7c74ec42bb318","650c16f0f2faf8d7a0d14c09","651c354cec89511cd107ab90","null","null","<p style=""font-size: 60px; font-family: BACS"">ArQuYbN</p>","","","","","","","","",""
"html-keyboard-response","292","726079","0.0-14.0-0.41","5fd9c5c67fa7c74ec42bb318","650c16f0f2faf8d7a0d14c09","651c354cec89511cd107ab90","null","null","<p style=""font-size: 60px; font-family: BACS"">UrOQJUG</p>","","","","","","","","",""
"html-keyboard-response","293","727090","0.0-14.0-0.42","5fd9c5c67fa7c74ec42bb318","650c16f0f2faf8d7a0d14c09","651c354cec89511cd107ab90","null","null","<p style=""font-size: 60px; font-family: BACS"">TdTDBRDh</p>","","","","","","","","",""
"html-keyboard-response","294","728095","0.0-14.0-0.43","5fd9c5c67fa7c74ec42bb318","650c16f0f2faf8d7a0d14c09","651c354cec89511cd107ab90","null","null","<p style=""font-size: 60px; font-family: BACS"">vQdOJUG</p>","","","","","","","","",""
"html-keyboard-response","295","729108","0.0-14.0-0.44","5fd9c5c67fa7c74ec42bb318","650c16f0f2faf8d7a0d14c09","651c354cec89511cd107ab90","null","null","<p style=""font-size: 60px; font-family: BACS"">TdTDdPc</p>","","","","","","","","",""
"html-keyboard-response","296","730111","0.0-14.0-0.45","5fd9c5c67fa7c74ec42bb318","650c16f0f2faf8d7a0d14c09","651c354cec89511cd107ab90","null","null","<p style=""font-size: 60px; font-family: BACS"">ArQuYZUZ</p>","","","","","","","","",""
"html-keyboard-response","297","731128","0.0-14.0-0.46","5fd9c5c67fa7c74ec42bb318","650c16f0f2faf8d7a0d14c09","651c354cec89511cd107ab90","null","null","<p style=""font-size: 60px; font-family: BACS"">kLvdNYbN</p>","","","","","","","","",""
"html-keyboard-response","298","732144","0.0-14.0-0.47","5fd9c5c67fa7c74ec42bb318","650c16f0f2faf8d7a0d14c09","651c354cec89511cd107ab90","null","null","<p style=""font-size: 60px; font-family: BACS"">tDPRkdPc</p>","","","","","","","","",""
"html-keyboard-response","299","733150","0.0-14.0-0.48","5fd9c5c67fa7c74ec42bb318","650c16f0f2faf8d7a0d14c09","651c354cec89511cd107ab90","null","null","<p style=""font-size: 60px; font-family: BACS"">ArQuAOUl</p>","","","","","","","","",""
"html-keyboard-response","300","734152","0.0-14.0-0.49","5fd9c5c67fa7c74ec42bb318","650c16f0f2faf8d7a0d14c09","651c354cec89511cd107ab90","null","null","<p style=""font-size: 60px; font-family: BACS"">ZYcQUYZUZ</p>","","","","","","","","",""
"html-keyboard-response","301","735155","0.0-14.0-0.50","5fd9c5c67fa7c74ec42bb318","650c16f0f2faf8d7a0d14c09","651c354cec89511cd107ab90","null","null","<p style=""font-size: 60px; font-family: BACS"">YObAdBC</p>","","","","","","","","",""
"html-keyboard-response","302","736157","0.0-14.0-0.51","5fd9c5c67fa7c74ec42bb318","650c16f0f2faf8d7a0d14c09","651c354cec89511cd107ab90","null","null","<p style=""font-size: 60px; font-family: BACS"">EhRmBRDh</p>","","","","","","","","",""
"html-keyboard-response","303","737162","0.0-14.0-0.52","5fd9c5c67fa7c74ec42bb318","650c16f0f2faf8d7a0d14c09","651c354cec89511cd107ab90","null","null","<p style=""font-size: 60px; font-family: BACS"">dJNrYZUZ</p>","","","","","","","","",""
"html-keyboard-response","304","738163","0.0-14.0-0.53","5fd9c5c67fa7c74ec42bb318","650c16f0f2faf8d7a0d14c09","651c354cec89511cd107ab90","null","null","<p style=""font-size: 60px; font-family: BACS"">tDPRkBRDh</p>","","","","","","","","",""
"html-keyboard-response","305","739169","0.0-14.0-0.54","5fd9c5c67fa7c74ec42bb318","650c16f0f2faf8d7a0d14c09","651c354cec89511cd107ab90","null","null","<p style=""font-size: 60px; font-family: BACS"">JmNkYZUZ</p>","","","","","","","","",""
"html-keyboard-response","306","740172","0.0-14.0-0.55","5fd9c5c67fa7c74ec42bb318","650c16f0f2faf8d7a0d14c09","651c354cec89511cd107ab90","null","null","<p style=""font-size: 60px; font-family: BACS"">vQdOAOUl</p>","","","","","","","","",""
"html-keyboard-response","307","741187","0.0-14.0-0.56","5fd9c5c67fa7c74ec42bb318","650c16f0f2faf8d7a0d14c09","651c354cec89511cd107ab90","null","null","<p style=""font-size: 60px; font-family: BACS"">AYkEhBRDh</p>","","","","","","","","",""
"html-keyboard-response","308","742193","0.0-14.0-0.57","5fd9c5c67fa7c74ec42bb318","650c16f0f2faf8d7a0d14c09","651c354cec89511cd107ab90","null","null","<p style=""font-size: 60px; font-family: BACS"">DkTCPdPc</p>","","","","","","","","",""
"html-keyboard-response","309","743203","0.0-14.0-0.58","5fd9c5c67fa7c74ec42bb318","650c16f0f2faf8d7a0d14c09","651c354cec89511cd107ab90","null","null","<p style=""font-size: 60px; font-family: BACS"">TdTDdBC</p>","","","","","","","","",""
"html-keyboard-response","310","744210","0.0-14.0-0.59","5fd9c5c67fa7c74ec42bb318","650c16f0f2faf8d7a0d14c09","651c354cec89511cd107ab90","null","null","<p style=""font-size: 60px; font-family: BACS"">QbkAcAOUl</p>","","","","","","","","",""
"html-keyboard-response","311","745215","0.0-14.0-0.60","5fd9c5c67fa7c74ec42bb318","650c16f0f2faf8d7a0d14c09","651c354cec89511cd107ab90","null","null","<p style=""font-size: 60px; font-family: BACS"">MBmEBYhT</p>","","","","","","","","",""
"html-keyboard-response","312","746230","0.0-14.0-0.61","5fd9c5c67fa7c74ec42bb318","650c16f0f2faf8d7a0d14c09","651c354cec89511cd107ab90","null","null","<p style=""font-size: 60px; font-family: BACS"">JmNkJUG</p>","","","","","","","","",""
"html-keyboard-response","313","747236","0.0-14.0-0.62","5fd9c5c67fa7c74ec42bb318","650c16f0f2faf8d7a0d14c09","651c354cec89511cd107ab90","null","null","<p style=""font-size: 60px; font-family: BACS"">EhRmdBC</p>","","","","","","","","",""
"html-keyboard-response","314","748246","0.0-14.0-0.63","5fd9c5c67fa7c74ec42bb318","650c16f0f2faf8d7a0d14c09","651c354cec89511cd107ab90","null","null","<p style=""font-size: 60px; font-family: BACS"">NaAQdAOUl</p>","","","","","","","","",""
"html-keyboard-response","315","749250","0.0-14.0-0.64","5fd9c5c67fa7c74ec42bb318","650c16f0f2faf8d7a0d14c09","651c354cec89511cd107ab90","null","null","<p style=""font-size: 60px; font-family: BACS"">DkTCPdBC</p>","","","","","","","","",""
"html-keyboard-response","316","750252","0.0-14.0-0.65","5fd9c5c67fa7c74ec42bb318","650c16f0f2faf8d7a0d14c09","651c354cec89511cd107ab90","null","null","<p style=""font-size: 60px; font-family: BACS"">YObABYhT</p>","","","","","","","","",""
"html-keyboard-response","317","751263","0.0-14.0-0.66","5fd9c5c67fa7c74ec42bb318","650c16f0f2faf8d7a0d14c09","651c354cec89511cd107ab90","null","null","<p style=""font-size: 60px; font-family: BACS"">JmNkYLU</p>","","","","","","","","",""
"html-keyboard-response","318","752283","0.0-14.0-0.67","5fd9c5c67fa7c74ec42bb318","650c16f0f2faf8d7a0d14c09","651c354cec89511cd107ab90","null","null","<p style=""font-size: 60px; font-family: BACS"">YObABCAd</p>","","","","","","","","",""
"html-keyboard-response","319","753299","0.0-14.0-0.68","5fd9c5c67fa7c74ec42bb318","650c16f0f2faf8d7a0d14c09","651c354cec89511cd107ab90","null","null","<p style=""font-size: 60px; font-family: BACS"">QbkAcJUG</p>","","","","","","","","",""
"html-keyboard-response","320","754325","0.0-14.0-0.69","5fd9c5c67fa7c74ec42bb318","650c16f0f2faf8d7a0d14c09","651c354cec89511cd107ab90","null","null","<p style=""font-size: 60px; font-family: BACS"">ZYcQUYbN</p>","","","","","","","","",""
"html-keyboard-response","321","755346","0.0-14.0-0.70","5fd9c5c67fa7c74ec42bb318","650c16f0f2faf8d7a0d14c09","651c354cec89511cd107ab90","null","null","<p style=""font-size: 60px; font-family: BACS"">tDPRkdBC</p>","","","","","","","","",""
"html-keyboard-response","322","756348","0.0-14.0-0.71","5fd9c5c67fa7c74ec42bb318","650c16f0f2faf8d7a0d14c09","651c354cec89511cd107ab90","null","null","<p style=""font-size: 60px; font-family: BACS"">NaAQdJUG</p>","","","","","","","","",""
"html-keyboard-response","323","757373","0.0-14.0-0.72","5fd9c5c67fa7c74ec42bb318","650c16f0f2faf8d7a0d14c09","651c354cec89511cd107ab90","null","null","<p style=""font-size: 60px; font-family: BACS"">AYkEhBCAd</p>","","","","","","","","",""
"html-keyboard-response","324","758394","0.0-14.0-0.73","5fd9c5c67fa7c74ec42bb318","650c16f0f2faf8d7a0d14c09","651c354cec89511cd107ab90","null","null","<p style=""font-size: 60px; font-family: BACS"">tDPRkBYhT</p>","","","","","","","","",""
"html-keyboard-response","325","759397","0.0-14.0-0.74","5fd9c5c67fa7c74ec42bb318","650c16f0f2faf8d7a0d14c09","651c354cec89511cd107ab90","null","null","<p style=""font-size: 60px; font-family: BACS"">PYkCdBC</p>","","","","","","","","",""
"html-keyboard-response","326","760399","0.0-14.0-0.75","5fd9c5c67fa7c74ec42bb318","650c16f0f2faf8d7a0d14c09","651c354cec89511cd107ab90","null","null","<p style=""font-size: 60px; font-family: BACS"">RdPtDBRDh</p>","","","","","","","","",""
"html-keyboard-response","327","761410","0.0-14.0-0.76","5fd9c5c67fa7c74ec42bb318","650c16f0f2faf8d7a0d14c09","651c354cec89511cd107ab90","null","null","<p style=""font-size: 60px; font-family: BACS"">vQdOYbN</p>","","","","","","","","",""
"html-keyboard-response","328","762414","0.0-14.0-0.77","5fd9c5c67fa7c74ec42bb318","650c16f0f2faf8d7a0d14c09","651c354cec89511cd107ab90","null","null","<p style=""font-size: 60px; font-family: BACS"">RdPtDBYhT</p>","","","","","","","","",""
"html-keyboard-response","329","763419","0.0-14.0-0.78","5fd9c5c67fa7c74ec42bb318","650c16f0f2faf8d7a0d14c09","651c354cec89511cd107ab90","null","null","<p style=""font-size: 60px; font-family: BACS"">YObABRDh</p>","","","","","","","","",""
"html-keyboard-response","330","764423","0.0-14.0-0.79","5fd9c5c67fa7c74ec42bb318","650c16f0f2faf8d7a0d14c09","651c354cec89511cd107ab90","null","null","<p style=""font-size: 60px; font-family: BACS"">QbkAcYbN</p>","","","","","","","","",""
"html-keyboard-response","331","770016","0.0-15.0","5fd9c5c67fa7c74ec42bb318","650c16f0f2faf8d7a0d14c09","651c354cec89511cd107ab90","5592"," ","<p>Great, you've seen the fourth block of words. You may now take a short break.</p>
      <p>Press the spacebar when you're ready to continue.</p>","","","","","","","","",""
"html-keyboard-response","332","771018","0.0-16.0-0.0","5fd9c5c67fa7c74ec42bb318","650c16f0f2faf8d7a0d14c09","651c354cec89511cd107ab90","null","null","<p style=""font-size: 60px; font-family: BACS"">ZYcQUYbN</p>","","","","","","","","",""
"html-keyboard-response","333","772020","0.0-16.0-0.1","5fd9c5c67fa7c74ec42bb318","650c16f0f2faf8d7a0d14c09","651c354cec89511cd107ab90","null","null","<p style=""font-size: 60px; font-family: BACS"">ZYcQUYbN</p>","","","","","","","","",""
"html-keyboard-response","334","773029","0.0-16.0-0.2","5fd9c5c67fa7c74ec42bb318","650c16f0f2faf8d7a0d14c09","651c354cec89511cd107ab90","null","null","<p style=""font-size: 60px; font-family: BACS"">ZYcQUYbN</p>","","","","","","","","",""
"html-keyboard-response","335","774031","0.0-16.0-0.3","5fd9c5c67fa7c74ec42bb318","650c16f0f2faf8d7a0d14c09","651c354cec89511cd107ab90","null","null","<p style=""font-size: 60px; font-family: BACS"">ZYcQUYbN</p>","","","","","","","","",""
"html-keyboard-response","336","775043","0.0-16.0-0.4","5fd9c5c67fa7c74ec42bb318","650c16f0f2faf8d7a0d14c09","651c354cec89511cd107ab90","null","null","<p style=""font-size: 60px; font-family: BACS"">ZYcQUYbN</p>","","","","","","","","",""
"html-keyboard-response","337","776059","0.0-16.0-0.5","5fd9c5c67fa7c74ec42bb318","650c16f0f2faf8d7a0d14c09","651c354cec89511cd107ab90","null","null","<p style=""font-size: 60px; font-family: BACS"">ZYcQUYbN</p>","","","","","","","","",""
"html-keyboard-response","338","777062","0.0-16.0-0.6","5fd9c5c67fa7c74ec42bb318","650c16f0f2faf8d7a0d14c09","651c354cec89511cd107ab90","null","null","<p style=""font-size: 60px; font-family: BACS"">ZYcQUYbN</p>","","","","","","","","",""
"html-keyboard-response","339","778068","0.0-16.0-0.7","5fd9c5c67fa7c74ec42bb318","650c16f0f2faf8d7a0d14c09","651c354cec89511cd107ab90","null","null","<p style=""font-size: 60px; font-family: BACS"">ZYcQUYbN</p>","","","","","","","","",""
"html-keyboard-response","340","779069","0.0-16.0-0.8","5fd9c5c67fa7c74ec42bb318","650c16f0f2faf8d7a0d14c09","651c354cec89511cd107ab90","null","null","<p style=""font-size: 60px; font-family: BACS"">ZYcQUYbN</p>","","","","","","","","",""
"html-keyboard-response","341","780074","0.0-16.0-0.9","5fd9c5c67fa7c74ec42bb318","650c16f0f2faf8d7a0d14c09","651c354cec89511cd107ab90","null","null","<p style=""font-size: 60px; font-family: BACS"">ZYcQUYbN</p>","","","","","","","","",""
"html-keyboard-response","342","781091","0.0-16.0-0.10","5fd9c5c67fa7c74ec42bb318","650c16f0f2faf8d7a0d14c09","651c354cec89511cd107ab90","null","null","<p style=""font-size: 60px; font-family: BACS"">ZYcQUYbN</p>","","","","","","","","",""
"html-keyboard-response","343","782097","0.0-16.0-0.11","5fd9c5c67fa7c74ec42bb318","650c16f0f2faf8d7a0d14c09","651c354cec89511cd107ab90","null","null","<p style=""font-size: 60px; font-family: BACS"">ZYcQUYbN</p>","","","","","","","","",""
"html-keyboard-response","344","783098","0.0-16.0-0.12","5fd9c5c67fa7c74ec42bb318","650c16f0f2faf8d7a0d14c09","651c354cec89511cd107ab90","null","null","<p style=""font-size: 60px; font-family: BACS"">ZYcQUYbN</p>","","","","","","","","",""
"html-keyboard-response","345","784099","0.0-16.0-0.13","5fd9c5c67fa7c74ec42bb318","650c16f0f2faf8d7a0d14c09","651c354cec89511cd107ab90","null","null","<p style=""font-size: 60px; font-family: BACS"">ZYcQUYbN</p>","","","","","","","","",""
"html-keyboard-response","346","785101","0.0-16.0-0.14","5fd9c5c67fa7c74ec42bb318","650c16f0f2faf8d7a0d14c09","651c354cec89511cd107ab90","null","null","<p style=""font-size: 60px; font-family: BACS"">ZYcQUYbN</p>","","","","","","","","",""
"html-keyboard-response","347","786113","0.0-16.0-0.15","5fd9c5c67fa7c74ec42bb318","650c16f0f2faf8d7a0d14c09","651c354cec89511cd107ab90","null","null","<p style=""font-size: 60px; font-family: BACS"">ZYcQUYbN</p>","","","","","","","","",""
"html-keyboard-response","348","787116","0.0-16.0-0.16","5fd9c5c67fa7c74ec42bb318","650c16f0f2faf8d7a0d14c09","651c354cec89511cd107ab90","null","null","<p style=""font-size: 60px; font-family: BACS"">ZYcQUYbN</p>","","","","","","","","",""
"html-keyboard-response","349","788118","0.0-16.0-0.17","5fd9c5c67fa7c74ec42bb318","650c16f0f2faf8d7a0d14c09","651c354cec89511cd107ab90","null","null","<p style=""font-size: 60px; font-family: BACS"">ZYcQUYbN</p>","","","","","","","","",""
"html-keyboard-response","350","789121","0.0-16.0-0.18","5fd9c5c67fa7c74ec42bb318","650c16f0f2faf8d7a0d14c09","651c354cec89511cd107ab90","null","null","<p style=""font-size: 60px; font-family: BACS"">ZYcQUYbN</p>","","","","","","","","",""
"html-keyboard-response","351","790134","0.0-16.0-0.19","5fd9c5c67fa7c74ec42bb318","650c16f0f2faf8d7a0d14c09","651c354cec89511cd107ab90","null","null","<p style=""font-size: 60px; font-family: BACS"">ZYcQUYbN</p>","","","","","","","","",""
"html-keyboard-response","352","791147","0.0-16.0-0.20","5fd9c5c67fa7c74ec42bb318","650c16f0f2faf8d7a0d14c09","651c354cec89511cd107ab90","null","null","<p style=""font-size: 60px; font-family: BACS"">ZYcQUYbN</p>","","","","","","","","",""
"html-keyboard-response","353","792152","0.0-16.0-0.21","5fd9c5c67fa7c74ec42bb318","650c16f0f2faf8d7a0d14c09","651c354cec89511cd107ab90","null","null","<p style=""font-size: 60px; font-family: BACS"">ZYcQUYbN</p>","","","","","","","","",""
"html-keyboard-response","354","793156","0.0-16.0-0.22","5fd9c5c67fa7c74ec42bb318","650c16f0f2faf8d7a0d14c09","651c354cec89511cd107ab90","null","null","<p style=""font-size: 60px; font-family: BACS"">ZYcQUYbN</p>","","","","","","","","",""
"html-keyboard-response","355","794163","0.0-16.0-0.23","5fd9c5c67fa7c74ec42bb318","650c16f0f2faf8d7a0d14c09","651c354cec89511cd107ab90","null","null","<p style=""font-size: 60px; font-family: BACS"">ZYcQUYbN</p>","","","","","","","","",""
"html-keyboard-response","356","795179","0.0-16.0-0.24","5fd9c5c67fa7c74ec42bb318","650c16f0f2faf8d7a0d14c09","651c354cec89511cd107ab90","null","null","<p style=""font-size: 60px; font-family: BACS"">ZYcQUYbN</p>","","","","","","","","",""
"html-keyboard-response","357","796194","0.0-16.0-0.25","5fd9c5c67fa7c74ec42bb318","650c16f0f2faf8d7a0d14c09","651c354cec89511cd107ab90","null","null","<p style=""font-size: 60px; font-family: BACS"">ZYcQUYbN</p>","","","","","","","","",""
"html-keyboard-response","358","797202","0.0-16.0-0.26","5fd9c5c67fa7c74ec42bb318","650c16f0f2faf8d7a0d14c09","651c354cec89511cd107ab90","null","null","<p style=""font-size: 60px; font-family: BACS"">ZYcQUYbN</p>","","","","","","","","",""
"html-keyboard-response","359","798213","0.0-16.0-0.27","5fd9c5c67fa7c74ec42bb318","650c16f0f2faf8d7a0d14c09","651c354cec89511cd107ab90","null","null","<p style=""font-size: 60px; font-family: BACS"">ZYcQUYbN</p>","","","","","","","","",""
"html-keyboard-response","360","799225","0.0-16.0-0.28","5fd9c5c67fa7c74ec42bb318","650c16f0f2faf8d7a0d14c09","651c354cec89511cd107ab90","null","null","<p style=""font-size: 60px; font-family: BACS"">ZYcQUYbN</p>","","","","","","","","",""
"html-keyboard-response","361","800230","0.0-16.0-0.29","5fd9c5c67fa7c74ec42bb318","650c16f0f2faf8d7a0d14c09","651c354cec89511cd107ab90","null","null","<p style=""font-size: 60px; font-family: BACS"">ZYcQUYbN</p>","","","","","","","","",""
"html-keyboard-response","362","801237","0.0-16.0-0.30","5fd9c5c67fa7c74ec42bb318","650c16f0f2faf8d7a0d14c09","651c354cec89511cd107ab90","null","null","<p style=""font-size: 60px; font-family: BACS"">ZYcQUYbN</p>","","","","","","","","",""
"html-keyboard-response","363","802241","0.0-16.0-0.31","5fd9c5c67fa7c74ec42bb318","650c16f0f2faf8d7a0d14c09","651c354cec89511cd107ab90","null","null","<p style=""font-size: 60px; font-family: BACS"">ZYcQUYbN</p>","","","","","","","","",""
"html-keyboard-response","364","803248","0.0-16.0-0.32","5fd9c5c67fa7c74ec42bb318","650c16f0f2faf8d7a0d14c09","651c354cec89511cd107ab90","null","null","<p style=""font-size: 60px; font-family: BACS"">ZYcQUYbN</p>","","","","","","","","",""
"html-keyboard-response","365","804265","0.0-16.0-0.33","5fd9c5c67fa7c74ec42bb318","650c16f0f2faf8d7a0d14c09","651c354cec89511cd107ab90","null","null","<p style=""font-size: 60px; font-family: BACS"">ZYcQUYbN</p>","","","","","","","","",""
"html-keyboard-response","366","805287","0.0-16.0-0.34","5fd9c5c67fa7c74ec42bb318","650c16f0f2faf8d7a0d14c09","651c354cec89511cd107ab90","null","null","<p style=""font-size: 60px; font-family: BACS"">ZYcQUYbN</p>","","","","","","","","",""
"html-keyboard-response","367","806288","0.0-16.0-0.35","5fd9c5c67fa7c74ec42bb318","650c16f0f2faf8d7a0d14c09","651c354cec89511cd107ab90","null","null","<p style=""font-size: 60px; font-family: BACS"">ZYcQUYbN</p>","","","","","","","","",""
"html-keyboard-response","368","807292","0.0-16.0-0.36","5fd9c5c67fa7c74ec42bb318","650c16f0f2faf8d7a0d14c09","651c354cec89511cd107ab90","null","null","<p style=""font-size: 60px; font-family: BACS"">ZYcQUYbN</p>","","","","","","","","",""
"html-keyboard-response","369","808294","0.0-16.0-0.37","5fd9c5c67fa7c74ec42bb318","650c16f0f2faf8d7a0d14c09","651c354cec89511cd107ab90","null","null","<p style=""font-size: 60px; font-family: BACS"">ZYcQUYbN</p>","","","","","","","","",""
"html-keyboard-response","370","809295","0.0-16.0-0.38","5fd9c5c67fa7c74ec42bb318","650c16f0f2faf8d7a0d14c09","651c354cec89511cd107ab90","null","null","<p style=""font-size: 60px; font-family: BACS"">ZYcQUYbN</p>","","","","","","","","",""
"html-keyboard-response","371","810296","0.0-16.0-0.39","5fd9c5c67fa7c74ec42bb318","650c16f0f2faf8d7a0d14c09","651c354cec89511cd107ab90","null","null","<p style=""font-size: 60px; font-family: BACS"">ZYcQUYbN</p>","","","","","","","","",""
"html-keyboard-response","372","811306","0.0-16.0-0.40","5fd9c5c67fa7c74ec42bb318","650c16f0f2faf8d7a0d14c09","651c354cec89511cd107ab90","null","null","<p style=""font-size: 60px; font-family: BACS"">ZYcQUYbN</p>","","","","","","","","",""
"html-keyboard-response","373","812313","0.0-16.0-0.41","5fd9c5c67fa7c74ec42bb318","650c16f0f2faf8d7a0d14c09","651c354cec89511cd107ab90","null","null","<p style=""font-size: 60px; font-family: BACS"">ZYcQUYbN</p>","","","","","","","","",""
"html-keyboard-response","374","813318","0.0-16.0-0.42","5fd9c5c67fa7c74ec42bb318","650c16f0f2faf8d7a0d14c09","651c354cec89511cd107ab90","null","null","<p style=""font-size: 60px; font-family: BACS"">ZYcQUYbN</p>","","","","","","","","",""
"html-keyboard-response","375","814329","0.0-16.0-0.43","5fd9c5c67fa7c74ec42bb318","650c16f0f2faf8d7a0d14c09","651c354cec89511cd107ab90","null","null","<p style=""font-size: 60px; font-family: BACS"">ZYcQUYbN</p>","","","","","","","","",""
"html-keyboard-response","376","815333","0.0-16.0-0.44","5fd9c5c67fa7c74ec42bb318","650c16f0f2faf8d7a0d14c09","651c354cec89511cd107ab90","null","null","<p style=""font-size: 60px; font-family: BACS"">ZYcQUYbN</p>","","","","","","","","",""
"html-keyboard-response","377","816338","0.0-16.0-0.45","5fd9c5c67fa7c74ec42bb318","650c16f0f2faf8d7a0d14c09","651c354cec89511cd107ab90","null","null","<p style=""font-size: 60px; font-family: BACS"">ZYcQUYbN</p>","","","","","","","","",""
"html-keyboard-response","378","817342","0.0-16.0-0.46","5fd9c5c67fa7c74ec42bb318","650c16f0f2faf8d7a0d14c09","651c354cec89511cd107ab90","null","null","<p style=""font-size: 60px; font-family: BACS"">ZYcQUYbN</p>","","","","","","","","",""
"html-keyboard-response","379","818357","0.0-16.0-0.47","5fd9c5c67fa7c74ec42bb318","650c16f0f2faf8d7a0d14c09","651c354cec89511cd107ab90","null","null","<p style=""font-size: 60px; font-family: BACS"">ZYcQUYbN</p>","","","","","","","","",""
"html-keyboard-response","380","819369","0.0-16.0-0.48","5fd9c5c67fa7c74ec42bb318","650c16f0f2faf8d7a0d14c09","651c354cec89511cd107ab90","null","null","<p style=""font-size: 60px; font-family: BACS"">ZYcQUYbN</p>","","","","","","","","",""
"html-keyboard-response","381","820385","0.0-16.0-0.49","5fd9c5c67fa7c74ec42bb318","650c16f0f2faf8d7a0d14c09","651c354cec89511cd107ab90","null","null","<p style=""font-size: 60px; font-family: BACS"">ZYcQUYbN</p>","","","","","","","","",""
"html-keyboard-response","382","821387","0.0-16.0-0.50","5fd9c5c67fa7c74ec42bb318","650c16f0f2faf8d7a0d14c09","651c354cec89511cd107ab90","null","null","<p style=""font-size: 60px; font-family: BACS"">ZYcQUYbN</p>","","","","","","","","",""
"html-keyboard-response","383","822392","0.0-16.0-0.51","5fd9c5c67fa7c74ec42bb318","650c16f0f2faf8d7a0d14c09","651c354cec89511cd107ab90","null","null","<p style=""font-size: 60px; font-family: BACS"">ZYcQUYbN</p>","","","","","","","","",""
"html-keyboard-response","384","823408","0.0-16.0-0.52","5fd9c5c67fa7c74ec42bb318","650c16f0f2faf8d7a0d14c09","651c354cec89511cd107ab90","null","null","<p style=""font-size: 60px; font-family: BACS"">ZYcQUYbN</p>","","","","","","","","",""
"html-keyboard-response","385","824412","0.0-16.0-0.53","5fd9c5c67fa7c74ec42bb318","650c16f0f2faf8d7a0d14c09","651c354cec89511cd107ab90","null","null","<p style=""font-size: 60px; font-family: BACS"">ZYcQUYbN</p>","","","","","","","","",""
"html-keyboard-response","386","825414","0.0-16.0-0.54","5fd9c5c67fa7c74ec42bb318","650c16f0f2faf8d7a0d14c09","651c354cec89511cd107ab90","null","null","<p style=""font-size: 60px; font-family: BACS"">ZYcQUYbN</p>","","","","","","","","",""
"html-keyboard-response","387","826421","0.0-16.0-0.55","5fd9c5c67fa7c74ec42bb318","650c16f0f2faf8d7a0d14c09","651c354cec89511cd107ab90","null","null","<p style=""font-size: 60px; font-family: BACS"">ZYcQUYbN</p>","","","","","","","","",""
"html-keyboard-response","388","827435","0.0-16.0-0.56","5fd9c5c67fa7c74ec42bb318","650c16f0f2faf8d7a0d14c09","651c354cec89511cd107ab90","null","null","<p style=""font-size: 60px; font-family: BACS"">ZYcQUYbN</p>","","","","","","","","",""
"html-keyboard-response","389","828438","0.0-16.0-0.57","5fd9c5c67fa7c74ec42bb318","650c16f0f2faf8d7a0d14c09","651c354cec89511cd107ab90","null","null","<p style=""font-size: 60px; font-family: BACS"">ZYcQUYbN</p>","","","","","","","","",""
"html-keyboard-response","390","829450","0.0-16.0-0.58","5fd9c5c67fa7c74ec42bb318","650c16f0f2faf8d7a0d14c09","651c354cec89511cd107ab90","null","null","<p style=""font-size: 60px; font-family: BACS"">ZYcQUYbN</p>","","","","","","","","",""
"html-keyboard-response","391","830456","0.0-16.0-0.59","5fd9c5c67fa7c74ec42bb318","650c16f0f2faf8d7a0d14c09","651c354cec89511cd107ab90","null","null","<p style=""font-size: 60px; font-family: BACS"">ZYcQUYbN</p>","","","","","","","","",""
"html-keyboard-response","392","831468","0.0-16.0-0.60","5fd9c5c67fa7c74ec42bb318","650c16f0f2faf8d7a0d14c09","651c354cec89511cd107ab90","null","null","<p style=""font-size: 60px; font-family: BACS"">ZYcQUYbN</p>","","","","","","","","",""
"html-keyboard-response","393","832469","0.0-16.0-0.61","5fd9c5c67fa7c74ec42bb318","650c16f0f2faf8d7a0d14c09","651c354cec89511cd107ab90","null","null","<p style=""font-size: 60px; font-family: BACS"">ZYcQUYbN</p>","","","","","","","","",""
"html-keyboard-response","394","833474","0.0-16.0-0.62","5fd9c5c67fa7c74ec42bb318","650c16f0f2faf8d7a0d14c09","651c354cec89511cd107ab90","null","null","<p style=""font-size: 60px; font-family: BACS"">ZYcQUYbN</p>","","","","","","","","",""
"html-keyboard-response","395","834478","0.0-16.0-0.63","5fd9c5c67fa7c74ec42bb318","650c16f0f2faf8d7a0d14c09","651c354cec89511cd107ab90","null","null","<p style=""font-size: 60px; font-family: BACS"">ZYcQUYbN</p>","","","","","","","","",""
"html-keyboard-response","396","835493","0.0-16.0-0.64","5fd9c5c67fa7c74ec42bb318","650c16f0f2faf8d7a0d14c09","651c354cec89511cd107ab90","null","null","<p style=""font-size: 60px; font-family: BACS"">ZYcQUYbN</p>","","","","","","","","",""
"html-keyboard-response","397","836497","0.0-16.0-0.65","5fd9c5c67fa7c74ec42bb318","650c16f0f2faf8d7a0d14c09","651c354cec89511cd107ab90","null","null","<p style=""font-size: 60px; font-family: BACS"">ZYcQUYbN</p>","","","","","","","","",""
"html-keyboard-response","398","837514","0.0-16.0-0.66","5fd9c5c67fa7c74ec42bb318","650c16f0f2faf8d7a0d14c09","651c354cec89511cd107ab90","null","null","<p style=""font-size: 60px; font-family: BACS"">ZYcQUYbN</p>","","","","","","","","",""
"html-keyboard-response","399","838518","0.0-16.0-0.67","5fd9c5c67fa7c74ec42bb318","650c16f0f2faf8d7a0d14c09","651c354cec89511cd107ab90","null","null","<p style=""font-size: 60px; font-family: BACS"">ZYcQUYbN</p>","","","","","","","","",""
