"trial_type","trial_index","time_elapsed","internal_node_id","subject_id","study_id","session_id","rt","response","stimulus","success","item","task","correct_response","testing_condition","correct","target","confound","name","view_history"
"pavlovia","0","2733","0.0-0.0","6171d922c871ba795b6a4827","650c16f0f2faf8d7a0d14c09","651d21d2a5246a3a0a2b6757","","","","","","","","","","","","",""
"survey-html-form","1","18280","0.0-1.0","6171d922c871ba795b6a4827","650c16f0f2faf8d7a0d14c09","651d21d2a5246a3a0a2b6757","15545","{""ID"":""6171d922c871ba795b6a4827""}","","","","","","","","","","",""
"html-keyboard-response","2","76263","0.0-2.0","6171d922c871ba795b6a4827","650c16f0f2faf8d7a0d14c09","651d21d2a5246a3a0a2b6757","57979"," ","<p style=""font-size: 15px;"">Before beginning, we ask that you read the consent information and confirm your agreement to participate in the experiment.</p>
      <p style=""font-size: 15px;""> We ask that you remember that this is a research project and that your participation is entirely voluntary. You can stop your participation at any time, without needing to provide any explanation. The study we're asking you to participate in aims at examining how readers process written words. You will be engaged in a session of apprximately 20 minutes, followed by a brief questionnaire. You will have the opportunity to take a few breaks during the experiment. You will be paid £4 for your participation, corresponding to a rate of £8/hour. While this experiment looks at cognitive faculties, this experiment doesn't constitute clinical proof of eventual pathologies.</p>
      <p style=""font-size: 15px;"">All of the information collected thanks to yours and others' participation will be held in a secure password-protected server, and will not be shared with anyone not authorised to view it. Your personal information will be kept with an arbitrary participant ID. Thanks to this data anonymity process, any researcher analysing the data won't be able to track the information back to a specific participant. Therefore, this process will make identifying you impossibile, even when results from the study will be published in scientific reviews, presented at congresses, or at any other public forum. More generally, the collected data will be treated in accordance with the laws on privacy and conformity to the Legislative Degree n. 196 ""Code regarding the protection of personal data"" of the 30th of June 2003 and to the European Regulation 2016/670 (General Data Protection Regulation - GDPR). The Data Protection Officer is Avv. Valentina Carollo, who can be contacted at the following email addresses: <a href=""mailto:dpo@sissa.it"">dpo@sissa.it</a> or <a href=""mailto:rpd@sissa.it"">rpd@sissa.it</a> - PEC: <a href=""mailto:protocollo@pec.sissa.it"">protocollo@pec.sissa.it</a>.</p>
      <p style=""font-size: 15px;""> Before expressing your consent to participate, we would like to remind you again that in case you need explanations on any aspect of the experimental procedure, the researcher is at your disposition (<a href=""mailto:aliebelt@sissa.it"">aliebelt@sissa.it</a>, <a href=""mailto:davide.crepaldi@sissa.it"">davide.crepaldi@sissa.it</a>).</p>
      <p style=""font-size: 15px;"">If you would like to download the informed consent form, you can do so here: <a href=""BASL-Informed_Consent.pdf"" download>informed consent form</a>.</p>
      <p style=""font-size: 15px;"">We ask that you press the spacebar to proceed to the consent section.</p>","","","","","","","","","",""
"survey-html-form","3","281986","0.0-3.0","6171d922c871ba795b6a4827","650c16f0f2faf8d7a0d14c09","651d21d2a5246a3a0a2b6757","205719","{""consent1"":""YES"",""consent2"":""YES"",""consent3"":""YES"",""consent4"":""YES"",""consent5"":""YES"",""consent6"":""YES""}","","","","","","","","","","",""
"fullscreen","4","293958","0.0-4.0","6171d922c871ba795b6a4827","650c16f0f2faf8d7a0d14c09","651d21d2a5246a3a0a2b6757","","","","true","","","","","","","","",""
"html-keyboard-response","5","439508","0.0-5.0","6171d922c871ba795b6a4827","650c16f0f2faf8d7a0d14c09","651d21d2a5246a3a0a2b6757","145548"," ","<p>Welcome, and thank you very much for your time!</p>
      <p>In this experiment, you'll be a language expert who's been asked to take a look at words that Earth has received in its first communication with aliens. Your task, in this first part of the experiment, is to pay close attention to the words you'll be shown; later, world leaders will ask you questions on what you saw. The words will be shown to you quite quickly; it seems that the aliens were in a hurry :-)</p>
      <p>Press the spacebar to continue.<p>","","","","","","","","","",""
"html-keyboard-response","6","439568","0.0-6.0","6171d922c871ba795b6a4827","650c16f0f2faf8d7a0d14c09","651d21d2a5246a3a0a2b6757","null","null","<p style=""font-size: 120px; font-family: BACS""> </p>","","","","","","","","","",""
"html-keyboard-response","7","551497","0.0-7.0","6171d922c871ba795b6a4827","650c16f0f2faf8d7a0d14c09","651d21d2a5246a3a0a2b6757","111916"," ","<p>Here is an example of the words you'll see:</p>
      <img src='esempio.png' height='400px'>
      <p>When you're ready to begin, press the spacebar.</p></div>","","","","","","","","","",""
"html-keyboard-response","8","552513","0.0-8.0-0.0","6171d922c871ba795b6a4827","650c16f0f2faf8d7a0d14c09","651d21d2a5246a3a0a2b6757","null","null","<p style=""font-size: 60px; font-family: BACS"">AZlLNYmb</p>","","","","","","","","","",""
"html-keyboard-response","9","553529","0.0-8.0-0.1","6171d922c871ba795b6a4827","650c16f0f2faf8d7a0d14c09","651d21d2a5246a3a0a2b6757","null","null","<p style=""font-size: 60px; font-family: BACS"">bRABtYKPB</p>","","","","","","","","","",""
"html-keyboard-response","10","554545","0.0-8.0-0.2","6171d922c871ba795b6a4827","650c16f0f2faf8d7a0d14c09","651d21d2a5246a3a0a2b6757","null","null","<p style=""font-size: 60px; font-family: BACS"">OLJblYmb</p>","","","","","","","","","",""
"html-keyboard-response","11","555547","0.0-8.0-0.3","6171d922c871ba795b6a4827","650c16f0f2faf8d7a0d14c09","651d21d2a5246a3a0a2b6757","null","null","<p style=""font-size: 60px; font-family: BACS"">ObOQlLUOk</p>","","","","","","","","","",""
"html-keyboard-response","12","556561","0.0-8.0-0.4","6171d922c871ba795b6a4827","650c16f0f2faf8d7a0d14c09","651d21d2a5246a3a0a2b6757","null","null","<p style=""font-size: 60px; font-family: BACS"">tKDmhOYK</p>","","","","","","","","","",""
"html-keyboard-response","13","557564","0.0-8.0-0.5","6171d922c871ba795b6a4827","650c16f0f2faf8d7a0d14c09","651d21d2a5246a3a0a2b6757","null","null","<p style=""font-size: 60px; font-family: BACS"">kabJbYmb</p>","","","","","","","","","",""
"html-keyboard-response","14","558579","0.0-8.0-0.6","6171d922c871ba795b6a4827","650c16f0f2faf8d7a0d14c09","651d21d2a5246a3a0a2b6757","null","null","<p style=""font-size: 60px; font-family: BACS"">OLJblZckv</p>","","","","","","","","","",""
"html-keyboard-response","15","559582","0.0-8.0-0.7","6171d922c871ba795b6a4827","650c16f0f2faf8d7a0d14c09","651d21d2a5246a3a0a2b6757","null","null","<p style=""font-size: 60px; font-family: BACS"">kKRCEPBT</p>","","","","","","","","","",""
"html-keyboard-response","16","560597","0.0-8.0-0.8","6171d922c871ba795b6a4827","650c16f0f2faf8d7a0d14c09","651d21d2a5246a3a0a2b6757","null","null","<p style=""font-size: 60px; font-family: BACS"">ctktOYK</p>","","","","","","","","","",""
"html-keyboard-response","17","561613","0.0-8.0-0.9","6171d922c871ba795b6a4827","650c16f0f2faf8d7a0d14c09","651d21d2a5246a3a0a2b6757","null","null","<p style=""font-size: 60px; font-family: BACS"">COTKdEPD</p>","","","","","","","","","",""
"html-keyboard-response","18","562615","0.0-8.0-0.10","6171d922c871ba795b6a4827","650c16f0f2faf8d7a0d14c09","651d21d2a5246a3a0a2b6757","null","null","<p style=""font-size: 60px; font-family: BACS"">EdBbOYK</p>","","","","","","","","","",""
"html-keyboard-response","19","563630","0.0-8.0-0.11","6171d922c871ba795b6a4827","650c16f0f2faf8d7a0d14c09","651d21d2a5246a3a0a2b6757","null","null","<p style=""font-size: 60px; font-family: BACS"">AZlLNJud</p>","","","","","","","","","",""
"html-keyboard-response","20","564633","0.0-8.0-0.12","6171d922c871ba795b6a4827","650c16f0f2faf8d7a0d14c09","651d21d2a5246a3a0a2b6757","null","null","<p style=""font-size: 60px; font-family: BACS"">ctktdEPD</p>","","","","","","","","","",""
"html-keyboard-response","21","565649","0.0-8.0-0.13","6171d922c871ba795b6a4827","650c16f0f2faf8d7a0d14c09","651d21d2a5246a3a0a2b6757","null","null","<p style=""font-size: 60px; font-family: BACS"">NulkYmb</p>","","","","","","","","","",""
"html-keyboard-response","22","566651","0.0-8.0-0.14","6171d922c871ba795b6a4827","650c16f0f2faf8d7a0d14c09","651d21d2a5246a3a0a2b6757","null","null","<p style=""font-size: 60px; font-family: BACS"">tKDmhYKPB</p>","","","","","","","","","",""
"html-keyboard-response","23","567666","0.0-8.0-0.15","6171d922c871ba795b6a4827","650c16f0f2faf8d7a0d14c09","651d21d2a5246a3a0a2b6757","null","null","<p style=""font-size: 60px; font-family: BACS"">YNrAmLUOk</p>","","","","","","","","","",""
"html-keyboard-response","24","568682","0.0-8.0-0.16","6171d922c871ba795b6a4827","650c16f0f2faf8d7a0d14c09","651d21d2a5246a3a0a2b6757","null","null","<p style=""font-size: 60px; font-family: BACS"">EdBbEPBT</p>","","","","","","","","","",""
"html-keyboard-response","25","569685","0.0-8.0-0.17","6171d922c871ba795b6a4827","650c16f0f2faf8d7a0d14c09","651d21d2a5246a3a0a2b6757","null","null","<p style=""font-size: 60px; font-family: BACS"">COTKOYK</p>","","","","","","","","","",""
"html-keyboard-response","26","570702","0.0-8.0-0.18","6171d922c871ba795b6a4827","650c16f0f2faf8d7a0d14c09","651d21d2a5246a3a0a2b6757","null","null","<p style=""font-size: 60px; font-family: BACS"">kabJbZckv</p>","","","","","","","","","",""
"html-keyboard-response","27","571718","0.0-8.0-0.19","6171d922c871ba795b6a4827","650c16f0f2faf8d7a0d14c09","651d21d2a5246a3a0a2b6757","null","null","<p style=""font-size: 60px; font-family: BACS"">adkrLcO</p>","","","","","","","","","",""
"html-keyboard-response","28","572720","0.0-8.0-0.20","6171d922c871ba795b6a4827","650c16f0f2faf8d7a0d14c09","651d21d2a5246a3a0a2b6757","null","null","<p style=""font-size: 60px; font-family: BACS"">ctktYKPB</p>","","","","","","","","","",""
"html-keyboard-response","29","573734","0.0-8.0-0.21","6171d922c871ba795b6a4827","650c16f0f2faf8d7a0d14c09","651d21d2a5246a3a0a2b6757","null","null","<p style=""font-size: 60px; font-family: BACS"">adYrcYmb</p>","","","","","","","","","",""
"html-keyboard-response","30","574736","0.0-8.0-0.22","6171d922c871ba795b6a4827","650c16f0f2faf8d7a0d14c09","651d21d2a5246a3a0a2b6757","null","null","<p style=""font-size: 60px; font-family: BACS"">dRbDbEPBT</p>","","","","","","","","","",""
"html-keyboard-response","31","575739","0.0-8.0-0.23","6171d922c871ba795b6a4827","650c16f0f2faf8d7a0d14c09","651d21d2a5246a3a0a2b6757","null","null","<p style=""font-size: 60px; font-family: BACS"">kabJbJud</p>","","","","","","","","","",""
"html-keyboard-response","32","576752","0.0-8.0-0.24","6171d922c871ba795b6a4827","650c16f0f2faf8d7a0d14c09","651d21d2a5246a3a0a2b6757","null","null","<p style=""font-size: 60px; font-family: BACS"">PEkhAEPBT</p>","","","","","","","","","",""
"html-keyboard-response","33","577754","0.0-8.0-0.25","6171d922c871ba795b6a4827","650c16f0f2faf8d7a0d14c09","651d21d2a5246a3a0a2b6757","null","null","<p style=""font-size: 60px; font-family: BACS"">NulkJud</p>","","","","","","","","","",""
"html-keyboard-response","34","578755","0.0-8.0-0.26","6171d922c871ba795b6a4827","650c16f0f2faf8d7a0d14c09","651d21d2a5246a3a0a2b6757","null","null","<p style=""font-size: 60px; font-family: BACS"">bRABtOYK</p>","","","","","","","","","",""
"html-keyboard-response","35","579771","0.0-8.0-0.27","6171d922c871ba795b6a4827","650c16f0f2faf8d7a0d14c09","651d21d2a5246a3a0a2b6757","null","null","<p style=""font-size: 60px; font-family: BACS"">JdGmYmb</p>","","","","","","","","","",""
"html-keyboard-response","36","580772","0.0-8.0-0.28","6171d922c871ba795b6a4827","650c16f0f2faf8d7a0d14c09","651d21d2a5246a3a0a2b6757","null","null","<p style=""font-size: 60px; font-family: BACS"">PEkhAOYK</p>","","","","","","","","","",""
"html-keyboard-response","37","581773","0.0-8.0-0.29","6171d922c871ba795b6a4827","650c16f0f2faf8d7a0d14c09","651d21d2a5246a3a0a2b6757","null","null","<p style=""font-size: 60px; font-family: BACS"">dRbDbYKPB</p>","","","","","","","","","",""
"html-keyboard-response","38","582774","0.0-8.0-0.30","6171d922c871ba795b6a4827","650c16f0f2faf8d7a0d14c09","651d21d2a5246a3a0a2b6757","null","null","<p style=""font-size: 60px; font-family: BACS"">AZlLNZckv</p>","","","","","","","","","",""
"html-keyboard-response","39","583776","0.0-8.0-0.31","6171d922c871ba795b6a4827","650c16f0f2faf8d7a0d14c09","651d21d2a5246a3a0a2b6757","null","null","<p style=""font-size: 60px; font-family: BACS"">ObOQlYmb</p>","","","","","","","","","",""
"html-keyboard-response","40","584778","0.0-8.0-0.32","6171d922c871ba795b6a4827","650c16f0f2faf8d7a0d14c09","651d21d2a5246a3a0a2b6757","null","null","<p style=""font-size: 60px; font-family: BACS"">adkrLUOk</p>","","","","","","","","","",""
"html-keyboard-response","41","585779","0.0-8.0-0.33","6171d922c871ba795b6a4827","650c16f0f2faf8d7a0d14c09","651d21d2a5246a3a0a2b6757","null","null","<p style=""font-size: 60px; font-family: BACS"">tKDmhdEPD</p>","","","","","","","","","",""
"html-keyboard-response","42","586781","0.0-8.0-0.34","6171d922c871ba795b6a4827","650c16f0f2faf8d7a0d14c09","651d21d2a5246a3a0a2b6757","null","null","<p style=""font-size: 60px; font-family: BACS"">lkAkLcO</p>","","","","","","","","","",""
"html-keyboard-response","43","587782","0.0-8.0-0.35","6171d922c871ba795b6a4827","650c16f0f2faf8d7a0d14c09","651d21d2a5246a3a0a2b6757","null","null","<p style=""font-size: 60px; font-family: BACS"">EdBbYKPB</p>","","","","","","","","","",""
"html-keyboard-response","44","588783","0.0-8.0-0.36","6171d922c871ba795b6a4827","650c16f0f2faf8d7a0d14c09","651d21d2a5246a3a0a2b6757","null","null","<p style=""font-size: 60px; font-family: BACS"">COTKEPBT</p>","","","","","","","","","",""
"html-keyboard-response","45","589784","0.0-8.0-0.37","6171d922c871ba795b6a4827","650c16f0f2faf8d7a0d14c09","651d21d2a5246a3a0a2b6757","null","null","<p style=""font-size: 60px; font-family: BACS"">kKRCYDTk</p>","","","","","","","","","",""
"html-keyboard-response","46","590786","0.0-8.0-0.38","6171d922c871ba795b6a4827","650c16f0f2faf8d7a0d14c09","651d21d2a5246a3a0a2b6757","null","null","<p style=""font-size: 60px; font-family: BACS"">kabJbLcO</p>","","","","","","","","","",""
"html-keyboard-response","47","591787","0.0-8.0-0.39","6171d922c871ba795b6a4827","650c16f0f2faf8d7a0d14c09","651d21d2a5246a3a0a2b6757","null","null","<p style=""font-size: 60px; font-family: BACS"">adkrZckv</p>","","","","","","","","","",""
"html-keyboard-response","48","592788","0.0-8.0-0.40","6171d922c871ba795b6a4827","650c16f0f2faf8d7a0d14c09","651d21d2a5246a3a0a2b6757","null","null","<p style=""font-size: 60px; font-family: BACS"">YNrAmLcO</p>","","","","","","","","","",""
"html-keyboard-response","49","593789","0.0-8.0-0.41","6171d922c871ba795b6a4827","650c16f0f2faf8d7a0d14c09","651d21d2a5246a3a0a2b6757","null","null","<p style=""font-size: 60px; font-family: BACS"">CkBOPEPBT</p>","","","","","","","","","",""
"html-keyboard-response","50","594789","0.0-8.0-0.42","6171d922c871ba795b6a4827","650c16f0f2faf8d7a0d14c09","651d21d2a5246a3a0a2b6757","null","null","<p style=""font-size: 60px; font-family: BACS"">YNrAmZckv</p>","","","","","","","","","",""
"html-keyboard-response","51","595789","0.0-8.0-0.43","6171d922c871ba795b6a4827","650c16f0f2faf8d7a0d14c09","651d21d2a5246a3a0a2b6757","null","null","<p style=""font-size: 60px; font-family: BACS"">adkrJud</p>","","","","","","","","","",""
"html-keyboard-response","52","596790","0.0-8.0-0.44","6171d922c871ba795b6a4827","650c16f0f2faf8d7a0d14c09","651d21d2a5246a3a0a2b6757","null","null","<p style=""font-size: 60px; font-family: BACS"">AZlLNLUOk</p>","","","","","","","","","",""
"html-keyboard-response","53","597791","0.0-8.0-0.45","6171d922c871ba795b6a4827","650c16f0f2faf8d7a0d14c09","651d21d2a5246a3a0a2b6757","null","null","<p style=""font-size: 60px; font-family: BACS"">YNrAmJud</p>","","","","","","","","","",""
"html-keyboard-response","54","598792","0.0-8.0-0.46","6171d922c871ba795b6a4827","650c16f0f2faf8d7a0d14c09","651d21d2a5246a3a0a2b6757","null","null","<p style=""font-size: 60px; font-family: BACS"">CkBOPdEPD</p>","","","","","","","","","",""
"html-keyboard-response","55","599794","0.0-8.0-0.47","6171d922c871ba795b6a4827","650c16f0f2faf8d7a0d14c09","651d21d2a5246a3a0a2b6757","null","null","<p style=""font-size: 60px; font-family: BACS"">PEkhAYDTk</p>","","","","","","","","","",""
"html-keyboard-response","56","600796","0.0-8.0-0.48","6171d922c871ba795b6a4827","650c16f0f2faf8d7a0d14c09","651d21d2a5246a3a0a2b6757","null","null","<p style=""font-size: 60px; font-family: BACS"">dRbDbdEPD</p>","","","","","","","","","",""
"html-keyboard-response","57","601797","0.0-8.0-0.49","6171d922c871ba795b6a4827","650c16f0f2faf8d7a0d14c09","651d21d2a5246a3a0a2b6757","null","null","<p style=""font-size: 60px; font-family: BACS"">dYdAYDTk</p>","","","","","","","","","",""
"html-keyboard-response","58","602799","0.0-8.0-0.50","6171d922c871ba795b6a4827","650c16f0f2faf8d7a0d14c09","651d21d2a5246a3a0a2b6757","null","null","<p style=""font-size: 60px; font-family: BACS"">NulkLcO</p>","","","","","","","","","",""
"html-keyboard-response","59","603803","0.0-8.0-0.51","6171d922c871ba795b6a4827","650c16f0f2faf8d7a0d14c09","651d21d2a5246a3a0a2b6757","null","null","<p style=""font-size: 60px; font-family: BACS"">JdGmLUOk</p>","","","","","","","","","",""
"html-keyboard-response","60","604804","0.0-8.0-0.52","6171d922c871ba795b6a4827","650c16f0f2faf8d7a0d14c09","651d21d2a5246a3a0a2b6757","null","null","<p style=""font-size: 60px; font-family: BACS"">kKRCdEPD</p>","","","","","","","","","",""
"html-keyboard-response","61","605804","0.0-8.0-0.53","6171d922c871ba795b6a4827","650c16f0f2faf8d7a0d14c09","651d21d2a5246a3a0a2b6757","null","null","<p style=""font-size: 60px; font-family: BACS"">COTKYDTk</p>","","","","","","","","","",""
"html-keyboard-response","62","606806","0.0-8.0-0.54","6171d922c871ba795b6a4827","650c16f0f2faf8d7a0d14c09","651d21d2a5246a3a0a2b6757","null","null","<p style=""font-size: 60px; font-family: BACS"">lkAkJud</p>","","","","","","","","","",""
"html-keyboard-response","63","607809","0.0-8.0-0.55","6171d922c871ba795b6a4827","650c16f0f2faf8d7a0d14c09","651d21d2a5246a3a0a2b6757","null","null","<p style=""font-size: 60px; font-family: BACS"">CkBOPYKPB</p>","","","","","","","","","",""
"html-keyboard-response","64","608811","0.0-8.0-0.56","6171d922c871ba795b6a4827","650c16f0f2faf8d7a0d14c09","651d21d2a5246a3a0a2b6757","null","null","<p style=""font-size: 60px; font-family: BACS"">JdGmJud</p>","","","","","","","","","",""
"html-keyboard-response","65","609813","0.0-8.0-0.57","6171d922c871ba795b6a4827","650c16f0f2faf8d7a0d14c09","651d21d2a5246a3a0a2b6757","null","null","<p style=""font-size: 60px; font-family: BACS"">bRABtYDTk</p>","","","","","","","","","",""
"html-keyboard-response","66","610814","0.0-8.0-0.58","6171d922c871ba795b6a4827","650c16f0f2faf8d7a0d14c09","651d21d2a5246a3a0a2b6757","null","null","<p style=""font-size: 60px; font-family: BACS"">dYdAEPBT</p>","","","","","","","","","",""
"html-keyboard-response","67","611815","0.0-8.0-0.59","6171d922c871ba795b6a4827","650c16f0f2faf8d7a0d14c09","651d21d2a5246a3a0a2b6757","null","null","<p style=""font-size: 60px; font-family: BACS"">NulkLUOk</p>","","","","","","","","","",""
"html-keyboard-response","68","612816","0.0-8.0-0.60","6171d922c871ba795b6a4827","650c16f0f2faf8d7a0d14c09","651d21d2a5246a3a0a2b6757","null","null","<p style=""font-size: 60px; font-family: BACS"">OLJblLcO</p>","","","","","","","","","",""
"html-keyboard-response","69","613817","0.0-8.0-0.61","6171d922c871ba795b6a4827","650c16f0f2faf8d7a0d14c09","651d21d2a5246a3a0a2b6757","null","null","<p style=""font-size: 60px; font-family: BACS"">EdBbYDTk</p>","","","","","","","","","",""
"html-keyboard-response","70","614818","0.0-8.0-0.62","6171d922c871ba795b6a4827","650c16f0f2faf8d7a0d14c09","651d21d2a5246a3a0a2b6757","null","null","<p style=""font-size: 60px; font-family: BACS"">PEkhAdEPD</p>","","","","","","","","","",""
"html-keyboard-response","71","615820","0.0-8.0-0.63","6171d922c871ba795b6a4827","650c16f0f2faf8d7a0d14c09","651d21d2a5246a3a0a2b6757","null","null","<p style=""font-size: 60px; font-family: BACS"">ObOQlZckv</p>","","","","","","","","","",""
"html-keyboard-response","72","616821","0.0-8.0-0.64","6171d922c871ba795b6a4827","650c16f0f2faf8d7a0d14c09","651d21d2a5246a3a0a2b6757","null","null","<p style=""font-size: 60px; font-family: BACS"">adYrcJud</p>","","","","","","","","","",""
"html-keyboard-response","73","617822","0.0-8.0-0.65","6171d922c871ba795b6a4827","650c16f0f2faf8d7a0d14c09","651d21d2a5246a3a0a2b6757","null","null","<p style=""font-size: 60px; font-family: BACS"">OLJblLUOk</p>","","","","","","","","","",""
"html-keyboard-response","74","618824","0.0-8.0-0.66","6171d922c871ba795b6a4827","650c16f0f2faf8d7a0d14c09","651d21d2a5246a3a0a2b6757","null","null","<p style=""font-size: 60px; font-family: BACS"">adYrcLcO</p>","","","","","","","","","",""
"html-keyboard-response","75","619826","0.0-8.0-0.67","6171d922c871ba795b6a4827","650c16f0f2faf8d7a0d14c09","651d21d2a5246a3a0a2b6757","null","null","<p style=""font-size: 60px; font-family: BACS"">lkAkZckv</p>","","","","","","","","","",""
"html-keyboard-response","76","620826","0.0-8.0-0.68","6171d922c871ba795b6a4827","650c16f0f2faf8d7a0d14c09","651d21d2a5246a3a0a2b6757","null","null","<p style=""font-size: 60px; font-family: BACS"">dYdAdEPD</p>","","","","","","","","","",""
"html-keyboard-response","77","621827","0.0-8.0-0.69","6171d922c871ba795b6a4827","650c16f0f2faf8d7a0d14c09","651d21d2a5246a3a0a2b6757","null","null","<p style=""font-size: 60px; font-family: BACS"">CkBOPOYK</p>","","","","","","","","","",""
"html-keyboard-response","78","622829","0.0-8.0-0.70","6171d922c871ba795b6a4827","650c16f0f2faf8d7a0d14c09","651d21d2a5246a3a0a2b6757","null","null","<p style=""font-size: 60px; font-family: BACS"">adYrcLUOk</p>","","","","","","","","","",""
"html-keyboard-response","79","623831","0.0-8.0-0.71","6171d922c871ba795b6a4827","650c16f0f2faf8d7a0d14c09","651d21d2a5246a3a0a2b6757","null","null","<p style=""font-size: 60px; font-family: BACS"">ctktYDTk</p>","","","","","","","","","",""
"html-keyboard-response","80","624832","0.0-8.0-0.72","6171d922c871ba795b6a4827","650c16f0f2faf8d7a0d14c09","651d21d2a5246a3a0a2b6757","null","null","<p style=""font-size: 60px; font-family: BACS"">ObOQlLcO</p>","","","","","","","","","",""
"html-keyboard-response","81","625833","0.0-8.0-0.73","6171d922c871ba795b6a4827","650c16f0f2faf8d7a0d14c09","651d21d2a5246a3a0a2b6757","null","null","<p style=""font-size: 60px; font-family: BACS"">bRABtEPBT</p>","","","","","","","","","",""
"html-keyboard-response","82","626834","0.0-8.0-0.74","6171d922c871ba795b6a4827","650c16f0f2faf8d7a0d14c09","651d21d2a5246a3a0a2b6757","null","null","<p style=""font-size: 60px; font-family: BACS"">JdGmZckv</p>","","","","","","","","","",""
"html-keyboard-response","83","627835","0.0-8.0-0.75","6171d922c871ba795b6a4827","650c16f0f2faf8d7a0d14c09","651d21d2a5246a3a0a2b6757","null","null","<p style=""font-size: 60px; font-family: BACS"">dYdAYKPB</p>","","","","","","","","","",""
"html-keyboard-response","84","628836","0.0-8.0-0.76","6171d922c871ba795b6a4827","650c16f0f2faf8d7a0d14c09","651d21d2a5246a3a0a2b6757","null","null","<p style=""font-size: 60px; font-family: BACS"">tKDmhYDTk</p>","","","","","","","","","",""
"html-keyboard-response","85","629837","0.0-8.0-0.77","6171d922c871ba795b6a4827","650c16f0f2faf8d7a0d14c09","651d21d2a5246a3a0a2b6757","null","null","<p style=""font-size: 60px; font-family: BACS"">lkAkYmb</p>","","","","","","","","","",""
"html-keyboard-response","86","630839","0.0-8.0-0.78","6171d922c871ba795b6a4827","650c16f0f2faf8d7a0d14c09","651d21d2a5246a3a0a2b6757","null","null","<p style=""font-size: 60px; font-family: BACS"">kKRCYKPB</p>","","","","","","","","","",""
"html-keyboard-response","87","631840","0.0-8.0-0.79","6171d922c871ba795b6a4827","650c16f0f2faf8d7a0d14c09","651d21d2a5246a3a0a2b6757","null","null","<p style=""font-size: 60px; font-family: BACS"">dRbDbOYK</p>","","","","","","","","","",""
"html-keyboard-response","88","646521","0.0-9.0","6171d922c871ba795b6a4827","650c16f0f2faf8d7a0d14c09","651d21d2a5246a3a0a2b6757","14679"," ","<p>Great, you've seen the first block of words. You may now take a short break.</p>
      <p>Press the spacebar when you're ready to continue.</p>","","","","","","","","","",""
"html-keyboard-response","89","647521","0.0-10.0-0.0","6171d922c871ba795b6a4827","650c16f0f2faf8d7a0d14c09","651d21d2a5246a3a0a2b6757","null","null","<p style=""font-size: 60px; font-family: BACS"">PEkhAEPBT</p>","","","","","","","","","",""
"html-keyboard-response","90","648522","0.0-10.0-0.1","6171d922c871ba795b6a4827","650c16f0f2faf8d7a0d14c09","651d21d2a5246a3a0a2b6757","null","null","<p style=""font-size: 60px; font-family: BACS"">lkAkYmb</p>","","","","","","","","","",""
"html-keyboard-response","91","649524","0.0-10.0-0.2","6171d922c871ba795b6a4827","650c16f0f2faf8d7a0d14c09","651d21d2a5246a3a0a2b6757","null","null","<p style=""font-size: 60px; font-family: BACS"">JdGmZckv</p>","","","","","","","","","",""
"html-keyboard-response","92","650525","0.0-10.0-0.3","6171d922c871ba795b6a4827","650c16f0f2faf8d7a0d14c09","651d21d2a5246a3a0a2b6757","null","null","<p style=""font-size: 60px; font-family: BACS"">kKRCYKPB</p>","","","","","","","","","",""
"html-keyboard-response","93","651526","0.0-10.0-0.4","6171d922c871ba795b6a4827","650c16f0f2faf8d7a0d14c09","651d21d2a5246a3a0a2b6757","null","null","<p style=""font-size: 60px; font-family: BACS"">bRABtYDTk</p>","","","","","","","","","",""
"html-keyboard-response","94","652526","0.0-10.0-0.5","6171d922c871ba795b6a4827","650c16f0f2faf8d7a0d14c09","651d21d2a5246a3a0a2b6757","null","null","<p style=""font-size: 60px; font-family: BACS"">AZlLNLUOk</p>","","","","","","","","","",""
"html-keyboard-response","95","653526","0.0-10.0-0.6","6171d922c871ba795b6a4827","650c16f0f2faf8d7a0d14c09","651d21d2a5246a3a0a2b6757","null","null","<p style=""font-size: 60px; font-family: BACS"">NulkLcO</p>","","","","","","","","","",""
"html-keyboard-response","96","654527","0.0-10.0-0.7","6171d922c871ba795b6a4827","650c16f0f2faf8d7a0d14c09","651d21d2a5246a3a0a2b6757","null","null","<p style=""font-size: 60px; font-family: BACS"">YNrAmLUOk</p>","","","","","","","","","",""
"html-keyboard-response","97","655528","0.0-10.0-0.8","6171d922c871ba795b6a4827","650c16f0f2faf8d7a0d14c09","651d21d2a5246a3a0a2b6757","null","null","<p style=""font-size: 60px; font-family: BACS"">adYrcJud</p>","","","","","","","","","",""
"html-keyboard-response","98","656529","0.0-10.0-0.9","6171d922c871ba795b6a4827","650c16f0f2faf8d7a0d14c09","651d21d2a5246a3a0a2b6757","null","null","<p style=""font-size: 60px; font-family: BACS"">COTKYDTk</p>","","","","","","","","","",""
"html-keyboard-response","99","657530","0.0-10.0-0.10","6171d922c871ba795b6a4827","650c16f0f2faf8d7a0d14c09","651d21d2a5246a3a0a2b6757","null","null","<p style=""font-size: 60px; font-family: BACS"">adYrcYmb</p>","","","","","","","","","",""
"html-keyboard-response","100","658531","0.0-10.0-0.11","6171d922c871ba795b6a4827","650c16f0f2faf8d7a0d14c09","651d21d2a5246a3a0a2b6757","null","null","<p style=""font-size: 60px; font-family: BACS"">lkAkJud</p>","","","","","","","","","",""
"html-keyboard-response","101","659532","0.0-10.0-0.12","6171d922c871ba795b6a4827","650c16f0f2faf8d7a0d14c09","651d21d2a5246a3a0a2b6757","null","null","<p style=""font-size: 60px; font-family: BACS"">adkrLcO</p>","","","","","","","","","",""
"html-keyboard-response","102","660533","0.0-10.0-0.13","6171d922c871ba795b6a4827","650c16f0f2faf8d7a0d14c09","651d21d2a5246a3a0a2b6757","null","null","<p style=""font-size: 60px; font-family: BACS"">ObOQlLUOk</p>","","","","","","","","","",""
"html-keyboard-response","103","661534","0.0-10.0-0.14","6171d922c871ba795b6a4827","650c16f0f2faf8d7a0d14c09","651d21d2a5246a3a0a2b6757","null","null","<p style=""font-size: 60px; font-family: BACS"">OLJblLcO</p>","","","","","","","","","",""
"html-keyboard-response","104","662536","0.0-10.0-0.15","6171d922c871ba795b6a4827","650c16f0f2faf8d7a0d14c09","651d21d2a5246a3a0a2b6757","null","null","<p style=""font-size: 60px; font-family: BACS"">COTKdEPD</p>","","","","","","","","","",""
"html-keyboard-response","105","663536","0.0-10.0-0.16","6171d922c871ba795b6a4827","650c16f0f2faf8d7a0d14c09","651d21d2a5246a3a0a2b6757","null","null","<p style=""font-size: 60px; font-family: BACS"">JdGmJud</p>","","","","","","","","","",""
"html-keyboard-response","106","664538","0.0-10.0-0.17","6171d922c871ba795b6a4827","650c16f0f2faf8d7a0d14c09","651d21d2a5246a3a0a2b6757","null","null","<p style=""font-size: 60px; font-family: BACS"">kabJbLcO</p>","","","","","","","","","",""
"html-keyboard-response","107","665540","0.0-10.0-0.18","6171d922c871ba795b6a4827","650c16f0f2faf8d7a0d14c09","651d21d2a5246a3a0a2b6757","null","null","<p style=""font-size: 60px; font-family: BACS"">EdBbOYK</p>","","","","","","","","","",""
"html-keyboard-response","108","666541","0.0-10.0-0.19","6171d922c871ba795b6a4827","650c16f0f2faf8d7a0d14c09","651d21d2a5246a3a0a2b6757","null","null","<p style=""font-size: 60px; font-family: BACS"">ctktYKPB</p>","","","","","","","","","",""
"html-keyboard-response","109","667546","0.0-10.0-0.20","6171d922c871ba795b6a4827","650c16f0f2faf8d7a0d14c09","651d21d2a5246a3a0a2b6757","null","null","<p style=""font-size: 60px; font-family: BACS"">lkAkZckv</p>","","","","","","","","","",""
"html-keyboard-response","110","668546","0.0-10.0-0.21","6171d922c871ba795b6a4827","650c16f0f2faf8d7a0d14c09","651d21d2a5246a3a0a2b6757","null","null","<p style=""font-size: 60px; font-family: BACS"">COTKOYK</p>","","","","","","","","","",""
"html-keyboard-response","111","669547","0.0-10.0-0.22","6171d922c871ba795b6a4827","650c16f0f2faf8d7a0d14c09","651d21d2a5246a3a0a2b6757","null","null","<p style=""font-size: 60px; font-family: BACS"">PEkhAYDTk</p>","","","","","","","","","",""
"html-keyboard-response","112","670549","0.0-10.0-0.23","6171d922c871ba795b6a4827","650c16f0f2faf8d7a0d14c09","651d21d2a5246a3a0a2b6757","null","null","<p style=""font-size: 60px; font-family: BACS"">OLJblLUOk</p>","","","","","","","","","",""
"html-keyboard-response","113","671550","0.0-10.0-0.24","6171d922c871ba795b6a4827","650c16f0f2faf8d7a0d14c09","651d21d2a5246a3a0a2b6757","null","null","<p style=""font-size: 60px; font-family: BACS"">AZlLNYmb</p>","","","","","","","","","",""
"html-keyboard-response","114","672552","0.0-10.0-0.25","6171d922c871ba795b6a4827","650c16f0f2faf8d7a0d14c09","651d21d2a5246a3a0a2b6757","null","null","<p style=""font-size: 60px; font-family: BACS"">lkAkLcO</p>","","","","","","","","","",""
"html-keyboard-response","115","673552","0.0-10.0-0.26","6171d922c871ba795b6a4827","650c16f0f2faf8d7a0d14c09","651d21d2a5246a3a0a2b6757","null","null","<p style=""font-size: 60px; font-family: BACS"">ctktOYK</p>","","","","","","","","","",""
"html-keyboard-response","116","674554","0.0-10.0-0.27","6171d922c871ba795b6a4827","650c16f0f2faf8d7a0d14c09","651d21d2a5246a3a0a2b6757","null","null","<p style=""font-size: 60px; font-family: BACS"">adkrJud</p>","","","","","","","","","",""
"html-keyboard-response","117","675555","0.0-10.0-0.28","6171d922c871ba795b6a4827","650c16f0f2faf8d7a0d14c09","651d21d2a5246a3a0a2b6757","null","null","<p style=""font-size: 60px; font-family: BACS"">dYdAEPBT</p>","","","","","","","","","",""
"html-keyboard-response","118","676557","0.0-10.0-0.29","6171d922c871ba795b6a4827","650c16f0f2faf8d7a0d14c09","651d21d2a5246a3a0a2b6757","null","null","<p style=""font-size: 60px; font-family: BACS"">JdGmLUOk</p>","","","","","","","","","",""
"html-keyboard-response","119","677557","0.0-10.0-0.30","6171d922c871ba795b6a4827","650c16f0f2faf8d7a0d14c09","651d21d2a5246a3a0a2b6757","null","null","<p style=""font-size: 60px; font-family: BACS"">kabJbJud</p>","","","","","","","","","",""
"html-keyboard-response","120","678558","0.0-10.0-0.31","6171d922c871ba795b6a4827","650c16f0f2faf8d7a0d14c09","651d21d2a5246a3a0a2b6757","null","null","<p style=""font-size: 60px; font-family: BACS"">adkrLUOk</p>","","","","","","","","","",""
"html-keyboard-response","121","679558","0.0-10.0-0.32","6171d922c871ba795b6a4827","650c16f0f2faf8d7a0d14c09","651d21d2a5246a3a0a2b6757","null","null","<p style=""font-size: 60px; font-family: BACS"">AZlLNZckv</p>","","","","","","","","","",""
"html-keyboard-response","122","680559","0.0-10.0-0.33","6171d922c871ba795b6a4827","650c16f0f2faf8d7a0d14c09","651d21d2a5246a3a0a2b6757","null","null","<p style=""font-size: 60px; font-family: BACS"">PEkhAOYK</p>","","","","","","","","","",""
"html-keyboard-response","123","681560","0.0-10.0-0.34","6171d922c871ba795b6a4827","650c16f0f2faf8d7a0d14c09","651d21d2a5246a3a0a2b6757","null","null","<p style=""font-size: 60px; font-family: BACS"">EdBbYKPB</p>","","","","","","","","","",""
"html-keyboard-response","124","682562","0.0-10.0-0.35","6171d922c871ba795b6a4827","650c16f0f2faf8d7a0d14c09","651d21d2a5246a3a0a2b6757","null","null","<p style=""font-size: 60px; font-family: BACS"">CkBOPdEPD</p>","","","","","","","","","",""
"html-keyboard-response","125","683563","0.0-10.0-0.36","6171d922c871ba795b6a4827","650c16f0f2faf8d7a0d14c09","651d21d2a5246a3a0a2b6757","null","null","<p style=""font-size: 60px; font-family: BACS"">tKDmhYDTk</p>","","","","","","","","","",""
"html-keyboard-response","126","684565","0.0-10.0-0.37","6171d922c871ba795b6a4827","650c16f0f2faf8d7a0d14c09","651d21d2a5246a3a0a2b6757","null","null","<p style=""font-size: 60px; font-family: BACS"">kabJbYmb</p>","","","","","","","","","",""
"html-keyboard-response","127","685565","0.0-10.0-0.38","6171d922c871ba795b6a4827","650c16f0f2faf8d7a0d14c09","651d21d2a5246a3a0a2b6757","null","null","<p style=""font-size: 60px; font-family: BACS"">dRbDbdEPD</p>","","","","","","","","","",""
"html-keyboard-response","128","686566","0.0-10.0-0.39","6171d922c871ba795b6a4827","650c16f0f2faf8d7a0d14c09","651d21d2a5246a3a0a2b6757","null","null","<p style=""font-size: 60px; font-family: BACS"">CkBOPEPBT</p>","","","","","","","","","",""
"html-keyboard-response","129","687566","0.0-10.0-0.40","6171d922c871ba795b6a4827","650c16f0f2faf8d7a0d14c09","651d21d2a5246a3a0a2b6757","null","null","<p style=""font-size: 60px; font-family: BACS"">YNrAmLcO</p>","","","","","","","","","",""
"html-keyboard-response","130","688569","0.0-10.0-0.41","6171d922c871ba795b6a4827","650c16f0f2faf8d7a0d14c09","651d21d2a5246a3a0a2b6757","null","null","<p style=""font-size: 60px; font-family: BACS"">tKDmhOYK</p>","","","","","","","","","",""
"html-keyboard-response","131","689570","0.0-10.0-0.42","6171d922c871ba795b6a4827","650c16f0f2faf8d7a0d14c09","651d21d2a5246a3a0a2b6757","null","null","<p style=""font-size: 60px; font-family: BACS"">NulkLUOk</p>","","","","","","","","","",""
"html-keyboard-response","132","690571","0.0-10.0-0.43","6171d922c871ba795b6a4827","650c16f0f2faf8d7a0d14c09","651d21d2a5246a3a0a2b6757","null","null","<p style=""font-size: 60px; font-family: BACS"">OLJblYmb</p>","","","","","","","","","",""
"html-keyboard-response","133","691573","0.0-10.0-0.44","6171d922c871ba795b6a4827","650c16f0f2faf8d7a0d14c09","651d21d2a5246a3a0a2b6757","null","null","<p style=""font-size: 60px; font-family: BACS"">kKRCYDTk</p>","","","","","","","","","",""
"html-keyboard-response","134","692574","0.0-10.0-0.45","6171d922c871ba795b6a4827","650c16f0f2faf8d7a0d14c09","651d21d2a5246a3a0a2b6757","null","null","<p style=""font-size: 60px; font-family: BACS"">YNrAmJud</p>","","","","","","","","","",""
"html-keyboard-response","135","693575","0.0-10.0-0.46","6171d922c871ba795b6a4827","650c16f0f2faf8d7a0d14c09","651d21d2a5246a3a0a2b6757","null","null","<p style=""font-size: 60px; font-family: BACS"">tKDmhYKPB</p>","","","","","","","","","",""
"html-keyboard-response","136","694577","0.0-10.0-0.47","6171d922c871ba795b6a4827","650c16f0f2faf8d7a0d14c09","651d21d2a5246a3a0a2b6757","null","null","<p style=""font-size: 60px; font-family: BACS"">dRbDbEPBT</p>","","","","","","","","","",""
"html-keyboard-response","137","695578","0.0-10.0-0.48","6171d922c871ba795b6a4827","650c16f0f2faf8d7a0d14c09","651d21d2a5246a3a0a2b6757","null","null","<p style=""font-size: 60px; font-family: BACS"">NulkYmb</p>","","","","","","","","","",""
"html-keyboard-response","138","696579","0.0-10.0-0.49","6171d922c871ba795b6a4827","650c16f0f2faf8d7a0d14c09","651d21d2a5246a3a0a2b6757","null","null","<p style=""font-size: 60px; font-family: BACS"">bRABtEPBT</p>","","","","","","","","","",""
"html-keyboard-response","139","697580","0.0-10.0-0.50","6171d922c871ba795b6a4827","650c16f0f2faf8d7a0d14c09","651d21d2a5246a3a0a2b6757","null","null","<p style=""font-size: 60px; font-family: BACS"">adYrcLcO</p>","","","","","","","","","",""
"html-keyboard-response","140","698581","0.0-10.0-0.51","6171d922c871ba795b6a4827","650c16f0f2faf8d7a0d14c09","651d21d2a5246a3a0a2b6757","null","null","<p style=""font-size: 60px; font-family: BACS"">dYdAYKPB</p>","","","","","","","","","",""
"html-keyboard-response","141","699582","0.0-10.0-0.52","6171d922c871ba795b6a4827","650c16f0f2faf8d7a0d14c09","651d21d2a5246a3a0a2b6757","null","null","<p style=""font-size: 60px; font-family: BACS"">ObOQlZckv</p>","","","","","","","","","",""
"html-keyboard-response","142","700582","0.0-10.0-0.53","6171d922c871ba795b6a4827","650c16f0f2faf8d7a0d14c09","651d21d2a5246a3a0a2b6757","null","null","<p style=""font-size: 60px; font-family: BACS"">PEkhAdEPD</p>","","","","","","","","","",""
"html-keyboard-response","143","701583","0.0-10.0-0.54","6171d922c871ba795b6a4827","650c16f0f2faf8d7a0d14c09","651d21d2a5246a3a0a2b6757","null","null","<p style=""font-size: 60px; font-family: BACS"">bRABtYKPB</p>","","","","","","","","","",""
"html-keyboard-response","144","702585","0.0-10.0-0.55","6171d922c871ba795b6a4827","650c16f0f2faf8d7a0d14c09","651d21d2a5246a3a0a2b6757","null","null","<p style=""font-size: 60px; font-family: BACS"">AZlLNJud</p>","","","","","","","","","",""
"html-keyboard-response","145","703586","0.0-10.0-0.56","6171d922c871ba795b6a4827","650c16f0f2faf8d7a0d14c09","651d21d2a5246a3a0a2b6757","null","null","<p style=""font-size: 60px; font-family: BACS"">COTKEPBT</p>","","","","","","","","","",""
"html-keyboard-response","146","704587","0.0-10.0-0.57","6171d922c871ba795b6a4827","650c16f0f2faf8d7a0d14c09","651d21d2a5246a3a0a2b6757","null","null","<p style=""font-size: 60px; font-family: BACS"">dYdAdEPD</p>","","","","","","","","","",""
"html-keyboard-response","147","705588","0.0-10.0-0.58","6171d922c871ba795b6a4827","650c16f0f2faf8d7a0d14c09","651d21d2a5246a3a0a2b6757","null","null","<p style=""font-size: 60px; font-family: BACS"">NulkJud</p>","","","","","","","","","",""
"html-keyboard-response","148","706590","0.0-10.0-0.59","6171d922c871ba795b6a4827","650c16f0f2faf8d7a0d14c09","651d21d2a5246a3a0a2b6757","null","null","<p style=""font-size: 60px; font-family: BACS"">OLJblZckv</p>","","","","","","","","","",""
"html-keyboard-response","149","707591","0.0-10.0-0.60","6171d922c871ba795b6a4827","650c16f0f2faf8d7a0d14c09","651d21d2a5246a3a0a2b6757","null","null","<p style=""font-size: 60px; font-family: BACS"">ObOQlYmb</p>","","","","","","","","","",""
"html-keyboard-response","150","708592","0.0-10.0-0.61","6171d922c871ba795b6a4827","650c16f0f2faf8d7a0d14c09","651d21d2a5246a3a0a2b6757","null","null","<p style=""font-size: 60px; font-family: BACS"">ctktdEPD</p>","","","","","","","","","",""
"html-keyboard-response","151","709592","0.0-10.0-0.62","6171d922c871ba795b6a4827","650c16f0f2faf8d7a0d14c09","651d21d2a5246a3a0a2b6757","null","null","<p style=""font-size: 60px; font-family: BACS"">bRABtOYK</p>","","","","","","","","","",""
"html-keyboard-response","152","710593","0.0-10.0-0.63","6171d922c871ba795b6a4827","650c16f0f2faf8d7a0d14c09","651d21d2a5246a3a0a2b6757","null","null","<p style=""font-size: 60px; font-family: BACS"">EdBbYDTk</p>","","","","","","","","","",""
"html-keyboard-response","153","711595","0.0-10.0-0.64","6171d922c871ba795b6a4827","650c16f0f2faf8d7a0d14c09","651d21d2a5246a3a0a2b6757","null","null","<p style=""font-size: 60px; font-family: BACS"">JdGmYmb</p>","","","","","","","","","",""
"html-keyboard-response","154","712597","0.0-10.0-0.65","6171d922c871ba795b6a4827","650c16f0f2faf8d7a0d14c09","651d21d2a5246a3a0a2b6757","null","null","<p style=""font-size: 60px; font-family: BACS"">dRbDbOYK</p>","","","","","","","","","",""
"html-keyboard-response","155","713598","0.0-10.0-0.66","6171d922c871ba795b6a4827","650c16f0f2faf8d7a0d14c09","651d21d2a5246a3a0a2b6757","null","null","<p style=""font-size: 60px; font-family: BACS"">ctktYDTk</p>","","","","","","","","","",""
"html-keyboard-response","156","714599","0.0-10.0-0.67","6171d922c871ba795b6a4827","650c16f0f2faf8d7a0d14c09","651d21d2a5246a3a0a2b6757","null","null","<p style=""font-size: 60px; font-family: BACS"">kKRCdEPD</p>","","","","","","","","","",""
"html-keyboard-response","157","715599","0.0-10.0-0.68","6171d922c871ba795b6a4827","650c16f0f2faf8d7a0d14c09","651d21d2a5246a3a0a2b6757","null","null","<p style=""font-size: 60px; font-family: BACS"">dRbDbYKPB</p>","","","","","","","","","",""
"html-keyboard-response","158","716601","0.0-10.0-0.69","6171d922c871ba795b6a4827","650c16f0f2faf8d7a0d14c09","651d21d2a5246a3a0a2b6757","null","null","<p style=""font-size: 60px; font-family: BACS"">kabJbZckv</p>","","","","","","","","","",""
"html-keyboard-response","159","717602","0.0-10.0-0.70","6171d922c871ba795b6a4827","650c16f0f2faf8d7a0d14c09","651d21d2a5246a3a0a2b6757","null","null","<p style=""font-size: 60px; font-family: BACS"">adYrcLUOk</p>","","","","","","","","","",""
"html-keyboard-response","160","718603","0.0-10.0-0.71","6171d922c871ba795b6a4827","650c16f0f2faf8d7a0d14c09","651d21d2a5246a3a0a2b6757","null","null","<p style=""font-size: 60px; font-family: BACS"">CkBOPYKPB</p>","","","","","","","","","",""
"html-keyboard-response","161","719604","0.0-10.0-0.72","6171d922c871ba795b6a4827","650c16f0f2faf8d7a0d14c09","651d21d2a5246a3a0a2b6757","null","null","<p style=""font-size: 60px; font-family: BACS"">dYdAYDTk</p>","","","","","","","","","",""
"html-keyboard-response","162","720605","0.0-10.0-0.73","6171d922c871ba795b6a4827","650c16f0f2faf8d7a0d14c09","651d21d2a5246a3a0a2b6757","null","null","<p style=""font-size: 60px; font-family: BACS"">CkBOPOYK</p>","","","","","","","","","",""
"html-keyboard-response","163","721606","0.0-10.0-0.74","6171d922c871ba795b6a4827","650c16f0f2faf8d7a0d14c09","651d21d2a5246a3a0a2b6757","null","null","<p style=""font-size: 60px; font-family: BACS"">adkrZckv</p>","","","","","","","","","",""
"html-keyboard-response","164","722607","0.0-10.0-0.75","6171d922c871ba795b6a4827","650c16f0f2faf8d7a0d14c09","651d21d2a5246a3a0a2b6757","null","null","<p style=""font-size: 60px; font-family: BACS"">tKDmhdEPD</p>","","","","","","","","","",""
"html-keyboard-response","165","723608","0.0-10.0-0.76","6171d922c871ba795b6a4827","650c16f0f2faf8d7a0d14c09","651d21d2a5246a3a0a2b6757","null","null","<p style=""font-size: 60px; font-family: BACS"">EdBbEPBT</p>","","","","","","","","","",""
"html-keyboard-response","166","724609","0.0-10.0-0.77","6171d922c871ba795b6a4827","650c16f0f2faf8d7a0d14c09","651d21d2a5246a3a0a2b6757","null","null","<p style=""font-size: 60px; font-family: BACS"">ObOQlLcO</p>","","","","","","","","","",""
"html-keyboard-response","167","725610","0.0-10.0-0.78","6171d922c871ba795b6a4827","650c16f0f2faf8d7a0d14c09","651d21d2a5246a3a0a2b6757","null","null","<p style=""font-size: 60px; font-family: BACS"">YNrAmZckv</p>","","","","","","","","","",""
"html-keyboard-response","168","726610","0.0-10.0-0.79","6171d922c871ba795b6a4827","650c16f0f2faf8d7a0d14c09","651d21d2a5246a3a0a2b6757","null","null","<p style=""font-size: 60px; font-family: BACS"">kKRCEPBT</p>","","","","","","","","","",""
"html-keyboard-response","169","743122","0.0-11.0","6171d922c871ba795b6a4827","650c16f0f2faf8d7a0d14c09","651d21d2a5246a3a0a2b6757","16512"," ","<p>Great, you've seen the second block of words. You may now take a short break.</p>
      <p>Press the spacebar when you're ready to continue.</p>","","","","","","","","","",""
"html-keyboard-response","170","744123","0.0-12.0-0.0","6171d922c871ba795b6a4827","650c16f0f2faf8d7a0d14c09","651d21d2a5246a3a0a2b6757","null","null","<p style=""font-size: 60px; font-family: BACS"">JdGmLUOk</p>","","","","","","","","","",""
"html-keyboard-response","171","745125","0.0-12.0-0.1","6171d922c871ba795b6a4827","650c16f0f2faf8d7a0d14c09","651d21d2a5246a3a0a2b6757","null","null","<p style=""font-size: 60px; font-family: BACS"">kKRCYDTk</p>","","","","","","","","","",""
"html-keyboard-response","172","746126","0.0-12.0-0.2","6171d922c871ba795b6a4827","650c16f0f2faf8d7a0d14c09","651d21d2a5246a3a0a2b6757","null","null","<p style=""font-size: 60px; font-family: BACS"">kabJbYmb</p>","","","","","","","","","",""
"html-keyboard-response","173","747127","0.0-12.0-0.3","6171d922c871ba795b6a4827","650c16f0f2faf8d7a0d14c09","651d21d2a5246a3a0a2b6757","null","null","<p style=""font-size: 60px; font-family: BACS"">ObOQlZckv</p>","","","","","","","","","",""
"html-keyboard-response","174","748129","0.0-12.0-0.4","6171d922c871ba795b6a4827","650c16f0f2faf8d7a0d14c09","651d21d2a5246a3a0a2b6757","null","null","<p style=""font-size: 60px; font-family: BACS"">ctktOYK</p>","","","","","","","","","",""
"html-keyboard-response","175","749131","0.0-12.0-0.5","6171d922c871ba795b6a4827","650c16f0f2faf8d7a0d14c09","651d21d2a5246a3a0a2b6757","null","null","<p style=""font-size: 60px; font-family: BACS"">adkrJud</p>","","","","","","","","","",""
"html-keyboard-response","176","750131","0.0-12.0-0.6","6171d922c871ba795b6a4827","650c16f0f2faf8d7a0d14c09","651d21d2a5246a3a0a2b6757","null","null","<p style=""font-size: 60px; font-family: BACS"">YNrAmLUOk</p>","","","","","","","","","",""
"html-keyboard-response","177","751132","0.0-12.0-0.7","6171d922c871ba795b6a4827","650c16f0f2faf8d7a0d14c09","651d21d2a5246a3a0a2b6757","null","null","<p style=""font-size: 60px; font-family: BACS"">PEkhAEPBT</p>","","","","","","","","","",""
"html-keyboard-response","178","752133","0.0-12.0-0.8","6171d922c871ba795b6a4827","650c16f0f2faf8d7a0d14c09","651d21d2a5246a3a0a2b6757","null","null","<p style=""font-size: 60px; font-family: BACS"">adYrcYmb</p>","","","","","","","","","",""
"html-keyboard-response","179","753134","0.0-12.0-0.9","6171d922c871ba795b6a4827","650c16f0f2faf8d7a0d14c09","651d21d2a5246a3a0a2b6757","null","null","<p style=""font-size: 60px; font-family: BACS"">dRbDbdEPD</p>","","","","","","","","","",""
"html-keyboard-response","180","754135","0.0-12.0-0.10","6171d922c871ba795b6a4827","650c16f0f2faf8d7a0d14c09","651d21d2a5246a3a0a2b6757","null","null","<p style=""font-size: 60px; font-family: BACS"">ctktYDTk</p>","","","","","","","","","",""
"html-keyboard-response","181","755136","0.0-12.0-0.11","6171d922c871ba795b6a4827","650c16f0f2faf8d7a0d14c09","651d21d2a5246a3a0a2b6757","null","null","<p style=""font-size: 60px; font-family: BACS"">adYrcLcO</p>","","","","","","","","","",""
"html-keyboard-response","182","756146","0.0-12.0-0.12","6171d922c871ba795b6a4827","650c16f0f2faf8d7a0d14c09","651d21d2a5246a3a0a2b6757","null","null","<p style=""font-size: 60px; font-family: BACS"">EdBbYDTk</p>","","","","","","","","","",""
"html-keyboard-response","183","757148","0.0-12.0-0.13","6171d922c871ba795b6a4827","650c16f0f2faf8d7a0d14c09","651d21d2a5246a3a0a2b6757","null","null","<p style=""font-size: 60px; font-family: BACS"">dRbDbYKPB</p>","","","","","","","","","",""
"html-keyboard-response","184","758150","0.0-12.0-0.14","6171d922c871ba795b6a4827","650c16f0f2faf8d7a0d14c09","651d21d2a5246a3a0a2b6757","null","null","<p style=""font-size: 60px; font-family: BACS"">ObOQlYmb</p>","","","","","","","","","",""
"html-keyboard-response","185","759151","0.0-12.0-0.15","6171d922c871ba795b6a4827","650c16f0f2faf8d7a0d14c09","651d21d2a5246a3a0a2b6757","null","null","<p style=""font-size: 60px; font-family: BACS"">dYdAYDTk</p>","","","","","","","","","",""
"html-keyboard-response","186","760152","0.0-12.0-0.16","6171d922c871ba795b6a4827","650c16f0f2faf8d7a0d14c09","651d21d2a5246a3a0a2b6757","null","null","<p style=""font-size: 60px; font-family: BACS"">CkBOPEPBT</p>","","","","","","","","","",""
"html-keyboard-response","187","761153","0.0-12.0-0.17","6171d922c871ba795b6a4827","650c16f0f2faf8d7a0d14c09","651d21d2a5246a3a0a2b6757","null","null","<p style=""font-size: 60px; font-family: BACS"">COTKYDTk</p>","","","","","","","","","",""
"html-keyboard-response","188","762156","0.0-12.0-0.18","6171d922c871ba795b6a4827","650c16f0f2faf8d7a0d14c09","651d21d2a5246a3a0a2b6757","null","null","<p style=""font-size: 60px; font-family: BACS"">CkBOPOYK</p>","","","","","","","","","",""
"html-keyboard-response","189","763156","0.0-12.0-0.19","6171d922c871ba795b6a4827","650c16f0f2faf8d7a0d14c09","651d21d2a5246a3a0a2b6757","null","null","<p style=""font-size: 60px; font-family: BACS"">AZlLNZckv</p>","","","","","","","","","",""
"html-keyboard-response","190","764157","0.0-12.0-0.20","6171d922c871ba795b6a4827","650c16f0f2faf8d7a0d14c09","651d21d2a5246a3a0a2b6757","null","null","<p style=""font-size: 60px; font-family: BACS"">dYdAYKPB</p>","","","","","","","","","",""
"html-keyboard-response","191","765159","0.0-12.0-0.21","6171d922c871ba795b6a4827","650c16f0f2faf8d7a0d14c09","651d21d2a5246a3a0a2b6757","null","null","<p style=""font-size: 60px; font-family: BACS"">OLJblZckv</p>","","","","","","","","","",""
"html-keyboard-response","192","766160","0.0-12.0-0.22","6171d922c871ba795b6a4827","650c16f0f2faf8d7a0d14c09","651d21d2a5246a3a0a2b6757","null","null","<p style=""font-size: 60px; font-family: BACS"">NulkLcO</p>","","","","","","","","","",""
"html-keyboard-response","193","767161","0.0-12.0-0.23","6171d922c871ba795b6a4827","650c16f0f2faf8d7a0d14c09","651d21d2a5246a3a0a2b6757","null","null","<p style=""font-size: 60px; font-family: BACS"">dRbDbEPBT</p>","","","","","","","","","",""
"html-keyboard-response","194","768162","0.0-12.0-0.24","6171d922c871ba795b6a4827","650c16f0f2faf8d7a0d14c09","651d21d2a5246a3a0a2b6757","null","null","<p style=""font-size: 60px; font-family: BACS"">kabJbZckv</p>","","","","","","","","","",""
"html-keyboard-response","195","769164","0.0-12.0-0.25","6171d922c871ba795b6a4827","650c16f0f2faf8d7a0d14c09","651d21d2a5246a3a0a2b6757","null","null","<p style=""font-size: 60px; font-family: BACS"">dYdAEPBT</p>","","","","","","","","","",""
"html-keyboard-response","196","770165","0.0-12.0-0.26","6171d922c871ba795b6a4827","650c16f0f2faf8d7a0d14c09","651d21d2a5246a3a0a2b6757","null","null","<p style=""font-size: 60px; font-family: BACS"">dRbDbOYK</p>","","","","","","","","","",""
"html-keyboard-response","197","771166","0.0-12.0-0.27","6171d922c871ba795b6a4827","650c16f0f2faf8d7a0d14c09","651d21d2a5246a3a0a2b6757","null","null","<p style=""font-size: 60px; font-family: BACS"">tKDmhYDTk</p>","","","","","","","","","",""
"html-keyboard-response","198","772167","0.0-12.0-0.28","6171d922c871ba795b6a4827","650c16f0f2faf8d7a0d14c09","651d21d2a5246a3a0a2b6757","null","null","<p style=""font-size: 60px; font-family: BACS"">AZlLNJud</p>","","","","","","","","","",""
"html-keyboard-response","199","773169","0.0-12.0-0.29","6171d922c871ba795b6a4827","650c16f0f2faf8d7a0d14c09","651d21d2a5246a3a0a2b6757","null","null","<p style=""font-size: 60px; font-family: BACS"">bRABtOYK</p>","","","","","","","","","",""
"html-keyboard-response","200","774170","0.0-12.0-0.30","6171d922c871ba795b6a4827","650c16f0f2faf8d7a0d14c09","651d21d2a5246a3a0a2b6757","null","null","<p style=""font-size: 60px; font-family: BACS"">CkBOPdEPD</p>","","","","","","","","","",""
"html-keyboard-response","201","775172","0.0-12.0-0.31","6171d922c871ba795b6a4827","650c16f0f2faf8d7a0d14c09","651d21d2a5246a3a0a2b6757","null","null","<p style=""font-size: 60px; font-family: BACS"">tKDmhYKPB</p>","","","","","","","","","",""
"html-keyboard-response","202","776173","0.0-12.0-0.32","6171d922c871ba795b6a4827","650c16f0f2faf8d7a0d14c09","651d21d2a5246a3a0a2b6757","null","null","<p style=""font-size: 60px; font-family: BACS"">YNrAmZckv</p>","","","","","","","","","",""
"html-keyboard-response","203","777174","0.0-12.0-0.33","6171d922c871ba795b6a4827","650c16f0f2faf8d7a0d14c09","651d21d2a5246a3a0a2b6757","null","null","<p style=""font-size: 60px; font-family: BACS"">adkrLcO</p>","","","","","","","","","",""
"html-keyboard-response","204","778176","0.0-12.0-0.34","6171d922c871ba795b6a4827","650c16f0f2faf8d7a0d14c09","651d21d2a5246a3a0a2b6757","null","null","<p style=""font-size: 60px; font-family: BACS"">dYdAdEPD</p>","","","","","","","","","",""
"html-keyboard-response","205","779177","0.0-12.0-0.35","6171d922c871ba795b6a4827","650c16f0f2faf8d7a0d14c09","651d21d2a5246a3a0a2b6757","null","null","<p style=""font-size: 60px; font-family: BACS"">lkAkLcO</p>","","","","","","","","","",""
"html-keyboard-response","206","780179","0.0-12.0-0.36","6171d922c871ba795b6a4827","650c16f0f2faf8d7a0d14c09","651d21d2a5246a3a0a2b6757","null","null","<p style=""font-size: 60px; font-family: BACS"">OLJblYmb</p>","","","","","","","","","",""
"html-keyboard-response","207","781180","0.0-12.0-0.37","6171d922c871ba795b6a4827","650c16f0f2faf8d7a0d14c09","651d21d2a5246a3a0a2b6757","null","null","<p style=""font-size: 60px; font-family: BACS"">bRABtEPBT</p>","","","","","","","","","",""
"html-keyboard-response","208","782182","0.0-12.0-0.38","6171d922c871ba795b6a4827","650c16f0f2faf8d7a0d14c09","651d21d2a5246a3a0a2b6757","null","null","<p style=""font-size: 60px; font-family: BACS"">NulkJud</p>","","","","","","","","","",""
"html-keyboard-response","209","783184","0.0-12.0-0.39","6171d922c871ba795b6a4827","650c16f0f2faf8d7a0d14c09","651d21d2a5246a3a0a2b6757","null","null","<p style=""font-size: 60px; font-family: BACS"">AZlLNLUOk</p>","","","","","","","","","",""
"html-keyboard-response","210","784184","0.0-12.0-0.40","6171d922c871ba795b6a4827","650c16f0f2faf8d7a0d14c09","651d21d2a5246a3a0a2b6757","null","null","<p style=""font-size: 60px; font-family: BACS"">lkAkYmb</p>","","","","","","","","","",""
"html-keyboard-response","211","785185","0.0-12.0-0.41","6171d922c871ba795b6a4827","650c16f0f2faf8d7a0d14c09","651d21d2a5246a3a0a2b6757","null","null","<p style=""font-size: 60px; font-family: BACS"">PEkhAdEPD</p>","","","","","","","","","",""
"html-keyboard-response","212","786186","0.0-12.0-0.42","6171d922c871ba795b6a4827","650c16f0f2faf8d7a0d14c09","651d21d2a5246a3a0a2b6757","null","null","<p style=""font-size: 60px; font-family: BACS"">EdBbYKPB</p>","","","","","","","","","",""
"html-keyboard-response","213","787188","0.0-12.0-0.43","6171d922c871ba795b6a4827","650c16f0f2faf8d7a0d14c09","651d21d2a5246a3a0a2b6757","null","null","<p style=""font-size: 60px; font-family: BACS"">tKDmhOYK</p>","","","","","","","","","",""
"html-keyboard-response","214","788189","0.0-12.0-0.44","6171d922c871ba795b6a4827","650c16f0f2faf8d7a0d14c09","651d21d2a5246a3a0a2b6757","null","null","<p style=""font-size: 60px; font-family: BACS"">kabJbJud</p>","","","","","","","","","",""
"html-keyboard-response","215","789191","0.0-12.0-0.45","6171d922c871ba795b6a4827","650c16f0f2faf8d7a0d14c09","651d21d2a5246a3a0a2b6757","null","null","<p style=""font-size: 60px; font-family: BACS"">COTKEPBT</p>","","","","","","","","","",""
"html-keyboard-response","216","790192","0.0-12.0-0.46","6171d922c871ba795b6a4827","650c16f0f2faf8d7a0d14c09","651d21d2a5246a3a0a2b6757","null","null","<p style=""font-size: 60px; font-family: BACS"">JdGmYmb</p>","","","","","","","","","",""
"html-keyboard-response","217","791193","0.0-12.0-0.47","6171d922c871ba795b6a4827","650c16f0f2faf8d7a0d14c09","651d21d2a5246a3a0a2b6757","null","null","<p style=""font-size: 60px; font-family: BACS"">YNrAmLcO</p>","","","","","","","","","",""
"html-keyboard-response","218","792195","0.0-12.0-0.48","6171d922c871ba795b6a4827","650c16f0f2faf8d7a0d14c09","651d21d2a5246a3a0a2b6757","null","null","<p style=""font-size: 60px; font-family: BACS"">adkrLUOk</p>","","","","","","","","","",""
"html-keyboard-response","219","793196","0.0-12.0-0.49","6171d922c871ba795b6a4827","650c16f0f2faf8d7a0d14c09","651d21d2a5246a3a0a2b6757","null","null","<p style=""font-size: 60px; font-family: BACS"">lkAkZckv</p>","","","","","","","","","",""
"html-keyboard-response","220","794196","0.0-12.0-0.50","6171d922c871ba795b6a4827","650c16f0f2faf8d7a0d14c09","651d21d2a5246a3a0a2b6757","null","null","<p style=""font-size: 60px; font-family: BACS"">bRABtYDTk</p>","","","","","","","","","",""
"html-keyboard-response","221","795197","0.0-12.0-0.51","6171d922c871ba795b6a4827","650c16f0f2faf8d7a0d14c09","651d21d2a5246a3a0a2b6757","null","null","<p style=""font-size: 60px; font-family: BACS"">ctktdEPD</p>","","","","","","","","","",""
"html-keyboard-response","222","796199","0.0-12.0-0.52","6171d922c871ba795b6a4827","650c16f0f2faf8d7a0d14c09","651d21d2a5246a3a0a2b6757","null","null","<p style=""font-size: 60px; font-family: BACS"">PEkhAOYK</p>","","","","","","","","","",""
"html-keyboard-response","223","797200","0.0-12.0-0.53","6171d922c871ba795b6a4827","650c16f0f2faf8d7a0d14c09","651d21d2a5246a3a0a2b6757","null","null","<p style=""font-size: 60px; font-family: BACS"">YNrAmJud</p>","","","","","","","","","",""
"html-keyboard-response","224","798202","0.0-12.0-0.54","6171d922c871ba795b6a4827","650c16f0f2faf8d7a0d14c09","651d21d2a5246a3a0a2b6757","null","null","<p style=""font-size: 60px; font-family: BACS"">JdGmZckv</p>","","","","","","","","","",""
"html-keyboard-response","225","799204","0.0-12.0-0.55","6171d922c871ba795b6a4827","650c16f0f2faf8d7a0d14c09","651d21d2a5246a3a0a2b6757","null","null","<p style=""font-size: 60px; font-family: BACS"">ctktYKPB</p>","","","","","","","","","",""
"html-keyboard-response","226","800205","0.0-12.0-0.56","6171d922c871ba795b6a4827","650c16f0f2faf8d7a0d14c09","651d21d2a5246a3a0a2b6757","null","null","<p style=""font-size: 60px; font-family: BACS"">adkrZckv</p>","","","","","","","","","",""
"html-keyboard-response","227","801208","0.0-12.0-0.57","6171d922c871ba795b6a4827","650c16f0f2faf8d7a0d14c09","651d21d2a5246a3a0a2b6757","null","null","<p style=""font-size: 60px; font-family: BACS"">CkBOPYKPB</p>","","","","","","","","","",""
"html-keyboard-response","228","802209","0.0-12.0-0.58","6171d922c871ba795b6a4827","650c16f0f2faf8d7a0d14c09","651d21d2a5246a3a0a2b6757","null","null","<p style=""font-size: 60px; font-family: BACS"">ObOQlLUOk</p>","","","","","","","","","",""
"html-keyboard-response","229","803211","0.0-12.0-0.59","6171d922c871ba795b6a4827","650c16f0f2faf8d7a0d14c09","651d21d2a5246a3a0a2b6757","null","null","<p style=""font-size: 60px; font-family: BACS"">NulkYmb</p>","","","","","","","","","",""
"html-keyboard-response","230","804212","0.0-12.0-0.60","6171d922c871ba795b6a4827","650c16f0f2faf8d7a0d14c09","651d21d2a5246a3a0a2b6757","null","null","<p style=""font-size: 60px; font-family: BACS"">COTKOYK</p>","","","","","","","","","",""
"html-keyboard-response","231","805213","0.0-12.0-0.61","6171d922c871ba795b6a4827","650c16f0f2faf8d7a0d14c09","651d21d2a5246a3a0a2b6757","null","null","<p style=""font-size: 60px; font-family: BACS"">bRABtYKPB</p>","","","","","","","","","",""
"html-keyboard-response","232","806213","0.0-12.0-0.62","6171d922c871ba795b6a4827","650c16f0f2faf8d7a0d14c09","651d21d2a5246a3a0a2b6757","null","null","<p style=""font-size: 60px; font-family: BACS"">ObOQlLcO</p>","","","","","","","","","",""
"html-keyboard-response","233","807215","0.0-12.0-0.63","6171d922c871ba795b6a4827","650c16f0f2faf8d7a0d14c09","651d21d2a5246a3a0a2b6757","null","null","<p style=""font-size: 60px; font-family: BACS"">EdBbEPBT</p>","","","","","","","","","",""
"html-keyboard-response","234","808217","0.0-12.0-0.64","6171d922c871ba795b6a4827","650c16f0f2faf8d7a0d14c09","651d21d2a5246a3a0a2b6757","null","null","<p style=""font-size: 60px; font-family: BACS"">kKRCYKPB</p>","","","","","","","","","",""
"html-keyboard-response","235","809218","0.0-12.0-0.65","6171d922c871ba795b6a4827","650c16f0f2faf8d7a0d14c09","651d21d2a5246a3a0a2b6757","null","null","<p style=""font-size: 60px; font-family: BACS"">EdBbOYK</p>","","","","","","","","","",""
"html-keyboard-response","236","810218","0.0-12.0-0.66","6171d922c871ba795b6a4827","650c16f0f2faf8d7a0d14c09","651d21d2a5246a3a0a2b6757","null","null","<p style=""font-size: 60px; font-family: BACS"">kabJbLcO</p>","","","","","","","","","",""
"html-keyboard-response","237","811218","0.0-12.0-0.67","6171d922c871ba795b6a4827","650c16f0f2faf8d7a0d14c09","651d21d2a5246a3a0a2b6757","null","null","<p style=""font-size: 60px; font-family: BACS"">lkAkJud</p>","","","","","","","","","",""
"html-keyboard-response","238","812219","0.0-12.0-0.68","6171d922c871ba795b6a4827","650c16f0f2faf8d7a0d14c09","651d21d2a5246a3a0a2b6757","null","null","<p style=""font-size: 60px; font-family: BACS"">tKDmhdEPD</p>","","","","","","","","","",""
"html-keyboard-response","239","813221","0.0-12.0-0.69","6171d922c871ba795b6a4827","650c16f0f2faf8d7a0d14c09","651d21d2a5246a3a0a2b6757","null","null","<p style=""font-size: 60px; font-family: BACS"">OLJblLcO</p>","","","","","","","","","",""
"html-keyboard-response","240","814222","0.0-12.0-0.70","6171d922c871ba795b6a4827","650c16f0f2faf8d7a0d14c09","651d21d2a5246a3a0a2b6757","null","null","<p style=""font-size: 60px; font-family: BACS"">adYrcLUOk</p>","","","","","","","","","",""
"html-keyboard-response","241","815223","0.0-12.0-0.71","6171d922c871ba795b6a4827","650c16f0f2faf8d7a0d14c09","651d21d2a5246a3a0a2b6757","null","null","<p style=""font-size: 60px; font-family: BACS"">COTKdEPD</p>","","","","","","","","","",""
"html-keyboard-response","242","816224","0.0-12.0-0.72","6171d922c871ba795b6a4827","650c16f0f2faf8d7a0d14c09","651d21d2a5246a3a0a2b6757","null","null","<p style=""font-size: 60px; font-family: BACS"">AZlLNYmb</p>","","","","","","","","","",""
"html-keyboard-response","243","817225","0.0-12.0-0.73","6171d922c871ba795b6a4827","650c16f0f2faf8d7a0d14c09","651d21d2a5246a3a0a2b6757","null","null","<p style=""font-size: 60px; font-family: BACS"">adYrcJud</p>","","","","","","","","","",""
"html-keyboard-response","244","818226","0.0-12.0-0.74","6171d922c871ba795b6a4827","650c16f0f2faf8d7a0d14c09","651d21d2a5246a3a0a2b6757","null","null","<p style=""font-size: 60px; font-family: BACS"">OLJblLUOk</p>","","","","","","","","","",""
"html-keyboard-response","245","819227","0.0-12.0-0.75","6171d922c871ba795b6a4827","650c16f0f2faf8d7a0d14c09","651d21d2a5246a3a0a2b6757","null","null","<p style=""font-size: 60px; font-family: BACS"">PEkhAYDTk</p>","","","","","","","","","",""
"html-keyboard-response","246","820228","0.0-12.0-0.76","6171d922c871ba795b6a4827","650c16f0f2faf8d7a0d14c09","651d21d2a5246a3a0a2b6757","null","null","<p style=""font-size: 60px; font-family: BACS"">NulkLUOk</p>","","","","","","","","","",""
"html-keyboard-response","247","821230","0.0-12.0-0.77","6171d922c871ba795b6a4827","650c16f0f2faf8d7a0d14c09","651d21d2a5246a3a0a2b6757","null","null","<p style=""font-size: 60px; font-family: BACS"">kKRCEPBT</p>","","","","","","","","","",""
"html-keyboard-response","248","822231","0.0-12.0-0.78","6171d922c871ba795b6a4827","650c16f0f2faf8d7a0d14c09","651d21d2a5246a3a0a2b6757","null","null","<p style=""font-size: 60px; font-family: BACS"">JdGmJud</p>","","","","","","","","","",""
"html-keyboard-response","249","823232","0.0-12.0-0.79","6171d922c871ba795b6a4827","650c16f0f2faf8d7a0d14c09","651d21d2a5246a3a0a2b6757","null","null","<p style=""font-size: 60px; font-family: BACS"">kKRCdEPD</p>","","","","","","","","","",""
"html-keyboard-response","250","844506","0.0-13.0","6171d922c871ba795b6a4827","650c16f0f2faf8d7a0d14c09","651d21d2a5246a3a0a2b6757","21273"," ","<p>Great, you've seen the third block of words. You may now take a short break.</p>
      <p>Press the spacebar when you're ready to continue.</p>","","","","","","","","","",""
"html-keyboard-response","251","845507","0.0-14.0-0.0","6171d922c871ba795b6a4827","650c16f0f2faf8d7a0d14c09","651d21d2a5246a3a0a2b6757","null","null","<p style=""font-size: 60px; font-family: BACS"">tKDmhOYK</p>","","","","","","","","","",""
"html-keyboard-response","252","846509","0.0-14.0-0.1","6171d922c871ba795b6a4827","650c16f0f2faf8d7a0d14c09","651d21d2a5246a3a0a2b6757","null","null","<p style=""font-size: 60px; font-family: BACS"">adYrcLcO</p>","","","","","","","","","",""
"html-keyboard-response","253","847511","0.0-14.0-0.2","6171d922c871ba795b6a4827","650c16f0f2faf8d7a0d14c09","651d21d2a5246a3a0a2b6757","null","null","<p style=""font-size: 60px; font-family: BACS"">bRABtYDTk</p>","","","","","","","","","",""
"html-keyboard-response","254","848511","0.0-14.0-0.3","6171d922c871ba795b6a4827","650c16f0f2faf8d7a0d14c09","651d21d2a5246a3a0a2b6757","null","null","<p style=""font-size: 60px; font-family: BACS"">NulkJud</p>","","","","","","","","","",""
"html-keyboard-response","255","849512","0.0-14.0-0.4","6171d922c871ba795b6a4827","650c16f0f2faf8d7a0d14c09","651d21d2a5246a3a0a2b6757","null","null","<p style=""font-size: 60px; font-family: BACS"">dYdAYKPB</p>","","","","","","","","","",""
"html-keyboard-response","256","850513","0.0-14.0-0.5","6171d922c871ba795b6a4827","650c16f0f2faf8d7a0d14c09","651d21d2a5246a3a0a2b6757","null","null","<p style=""font-size: 60px; font-family: BACS"">dRbDbdEPD</p>","","","","","","","","","",""
"html-keyboard-response","257","851523","0.0-14.0-0.6","6171d922c871ba795b6a4827","650c16f0f2faf8d7a0d14c09","651d21d2a5246a3a0a2b6757","null","null","<p style=""font-size: 60px; font-family: BACS"">bRABtOYK</p>","","","","","","","","","",""
"html-keyboard-response","258","852523","0.0-14.0-0.7","6171d922c871ba795b6a4827","650c16f0f2faf8d7a0d14c09","651d21d2a5246a3a0a2b6757","null","null","<p style=""font-size: 60px; font-family: BACS"">adkrZckv</p>","","","","","","","","","",""
"html-keyboard-response","259","853524","0.0-14.0-0.8","6171d922c871ba795b6a4827","650c16f0f2faf8d7a0d14c09","651d21d2a5246a3a0a2b6757","null","null","<p style=""font-size: 60px; font-family: BACS"">OLJblLcO</p>","","","","","","","","","",""
"html-keyboard-response","260","854526","0.0-14.0-0.9","6171d922c871ba795b6a4827","650c16f0f2faf8d7a0d14c09","651d21d2a5246a3a0a2b6757","null","null","<p style=""font-size: 60px; font-family: BACS"">ObOQlLUOk</p>","","","","","","","","","",""
"html-keyboard-response","261","855527","0.0-14.0-0.10","6171d922c871ba795b6a4827","650c16f0f2faf8d7a0d14c09","651d21d2a5246a3a0a2b6757","null","null","<p style=""font-size: 60px; font-family: BACS"">tKDmhdEPD</p>","","","","","","","","","",""
"html-keyboard-response","262","856529","0.0-14.0-0.11","6171d922c871ba795b6a4827","650c16f0f2faf8d7a0d14c09","651d21d2a5246a3a0a2b6757","null","null","<p style=""font-size: 60px; font-family: BACS"">dRbDbEPBT</p>","","","","","","","","","",""
"html-keyboard-response","263","857530","0.0-14.0-0.12","6171d922c871ba795b6a4827","650c16f0f2faf8d7a0d14c09","651d21d2a5246a3a0a2b6757","null","null","<p style=""font-size: 60px; font-family: BACS"">AZlLNJud</p>","","","","","","","","","",""
"html-keyboard-response","264","858531","0.0-14.0-0.13","6171d922c871ba795b6a4827","650c16f0f2faf8d7a0d14c09","651d21d2a5246a3a0a2b6757","null","null","<p style=""font-size: 60px; font-family: BACS"">NulkLcO</p>","","","","","","","","","",""
"html-keyboard-response","265","859532","0.0-14.0-0.14","6171d922c871ba795b6a4827","650c16f0f2faf8d7a0d14c09","651d21d2a5246a3a0a2b6757","null","null","<p style=""font-size: 60px; font-family: BACS"">EdBbYKPB</p>","","","","","","","","","",""
"html-keyboard-response","266","860533","0.0-14.0-0.15","6171d922c871ba795b6a4827","650c16f0f2faf8d7a0d14c09","651d21d2a5246a3a0a2b6757","null","null","<p style=""font-size: 60px; font-family: BACS"">kKRCEPBT</p>","","","","","","","","","",""
"html-keyboard-response","267","861535","0.0-14.0-0.16","6171d922c871ba795b6a4827","650c16f0f2faf8d7a0d14c09","651d21d2a5246a3a0a2b6757","null","null","<p style=""font-size: 60px; font-family: BACS"">YNrAmZckv</p>","","","","","","","","","",""
"html-keyboard-response","268","862537","0.0-14.0-0.17","6171d922c871ba795b6a4827","650c16f0f2faf8d7a0d14c09","651d21d2a5246a3a0a2b6757","null","null","<p style=""font-size: 60px; font-family: BACS"">ctktYKPB</p>","","","","","","","","","",""
"html-keyboard-response","269","863538","0.0-14.0-0.18","6171d922c871ba795b6a4827","650c16f0f2faf8d7a0d14c09","651d21d2a5246a3a0a2b6757","null","null","<p style=""font-size: 60px; font-family: BACS"">dRbDbOYK</p>","","","","","","","","","",""
"html-keyboard-response","270","864540","0.0-14.0-0.19","6171d922c871ba795b6a4827","650c16f0f2faf8d7a0d14c09","651d21d2a5246a3a0a2b6757","null","null","<p style=""font-size: 60px; font-family: BACS"">kKRCYKPB</p>","","","","","","","","","",""
"html-keyboard-response","271","865541","0.0-14.0-0.20","6171d922c871ba795b6a4827","650c16f0f2faf8d7a0d14c09","651d21d2a5246a3a0a2b6757","null","null","<p style=""font-size: 60px; font-family: BACS"">CkBOPdEPD</p>","","","","","","","","","",""
"html-keyboard-response","272","866542","0.0-14.0-0.21","6171d922c871ba795b6a4827","650c16f0f2faf8d7a0d14c09","651d21d2a5246a3a0a2b6757","null","null","<p style=""font-size: 60px; font-family: BACS"">ctktOYK</p>","","","","","","","","","",""
"html-keyboard-response","273","867543","0.0-14.0-0.22","6171d922c871ba795b6a4827","650c16f0f2faf8d7a0d14c09","651d21d2a5246a3a0a2b6757","null","null","<p style=""font-size: 60px; font-family: BACS"">bRABtYKPB</p>","","","","","","","","","",""
"html-keyboard-response","274","868545","0.0-14.0-0.23","6171d922c871ba795b6a4827","650c16f0f2faf8d7a0d14c09","651d21d2a5246a3a0a2b6757","null","null","<p style=""font-size: 60px; font-family: BACS"">AZlLNLUOk</p>","","","","","","","","","",""
"html-keyboard-response","275","869546","0.0-14.0-0.24","6171d922c871ba795b6a4827","650c16f0f2faf8d7a0d14c09","651d21d2a5246a3a0a2b6757","null","null","<p style=""font-size: 60px; font-family: BACS"">tKDmhYKPB</p>","","","","","","","","","",""
"html-keyboard-response","276","870547","0.0-14.0-0.25","6171d922c871ba795b6a4827","650c16f0f2faf8d7a0d14c09","651d21d2a5246a3a0a2b6757","null","null","<p style=""font-size: 60px; font-family: BACS"">adYrcLUOk</p>","","","","","","","","","",""
"html-keyboard-response","277","871549","0.0-14.0-0.26","6171d922c871ba795b6a4827","650c16f0f2faf8d7a0d14c09","651d21d2a5246a3a0a2b6757","null","null","<p style=""font-size: 60px; font-family: BACS"">YNrAmLcO</p>","","","","","","","","","",""
"html-keyboard-response","278","872550","0.0-14.0-0.27","6171d922c871ba795b6a4827","650c16f0f2faf8d7a0d14c09","651d21d2a5246a3a0a2b6757","null","null","<p style=""font-size: 60px; font-family: BACS"">OLJblZckv</p>","","","","","","","","","",""
"html-keyboard-response","279","873551","0.0-14.0-0.28","6171d922c871ba795b6a4827","650c16f0f2faf8d7a0d14c09","651d21d2a5246a3a0a2b6757","null","null","<p style=""font-size: 60px; font-family: BACS"">PEkhAEPBT</p>","","","","","","","","","",""
"html-keyboard-response","280","874552","0.0-14.0-0.29","6171d922c871ba795b6a4827","650c16f0f2faf8d7a0d14c09","651d21d2a5246a3a0a2b6757","null","null","<p style=""font-size: 60px; font-family: BACS"">JdGmYmb</p>","","","","","","","","","",""
"html-keyboard-response","281","875554","0.0-14.0-0.30","6171d922c871ba795b6a4827","650c16f0f2faf8d7a0d14c09","651d21d2a5246a3a0a2b6757","null","null","<p style=""font-size: 60px; font-family: BACS"">CkBOPEPBT</p>","","","","","","","","","",""
"html-keyboard-response","282","876555","0.0-14.0-0.31","6171d922c871ba795b6a4827","650c16f0f2faf8d7a0d14c09","651d21d2a5246a3a0a2b6757","null","null","<p style=""font-size: 60px; font-family: BACS"">OLJblLUOk</p>","","","","","","","","","",""
"html-keyboard-response","283","877557","0.0-14.0-0.32","6171d922c871ba795b6a4827","650c16f0f2faf8d7a0d14c09","651d21d2a5246a3a0a2b6757","null","null","<p style=""font-size: 60px; font-family: BACS"">lkAkYmb</p>","","","","","","","","","",""
"html-keyboard-response","284","878559","0.0-14.0-0.33","6171d922c871ba795b6a4827","650c16f0f2faf8d7a0d14c09","651d21d2a5246a3a0a2b6757","null","null","<p style=""font-size: 60px; font-family: BACS"">YNrAmJud</p>","","","","","","","","","",""
"html-keyboard-response","285","879560","0.0-14.0-0.34","6171d922c871ba795b6a4827","650c16f0f2faf8d7a0d14c09","651d21d2a5246a3a0a2b6757","null","null","<p style=""font-size: 60px; font-family: BACS"">dRbDbYKPB</p>","","","","","","","","","",""
"html-keyboard-response","286","880561","0.0-14.0-0.35","6171d922c871ba795b6a4827","650c16f0f2faf8d7a0d14c09","651d21d2a5246a3a0a2b6757","null","null","<p style=""font-size: 60px; font-family: BACS"">adkrLcO</p>","","","","","","","","","",""
"html-keyboard-response","287","881562","0.0-14.0-0.36","6171d922c871ba795b6a4827","650c16f0f2faf8d7a0d14c09","651d21d2a5246a3a0a2b6757","null","null","<p style=""font-size: 60px; font-family: BACS"">ObOQlYmb</p>","","","","","","","","","",""
"html-keyboard-response","288","882563","0.0-14.0-0.37","6171d922c871ba795b6a4827","650c16f0f2faf8d7a0d14c09","651d21d2a5246a3a0a2b6757","null","null","<p style=""font-size: 60px; font-family: BACS"">EdBbYDTk</p>","","","","","","","","","",""
"html-keyboard-response","289","883564","0.0-14.0-0.38","6171d922c871ba795b6a4827","650c16f0f2faf8d7a0d14c09","651d21d2a5246a3a0a2b6757","null","null","<p style=""font-size: 60px; font-family: BACS"">lkAkJud</p>","","","","","","","","","",""
"html-keyboard-response","290","884566","0.0-14.0-0.39","6171d922c871ba795b6a4827","650c16f0f2faf8d7a0d14c09","651d21d2a5246a3a0a2b6757","null","null","<p style=""font-size: 60px; font-family: BACS"">COTKOYK</p>","","","","","","","","","",""
"html-keyboard-response","291","885568","0.0-14.0-0.40","6171d922c871ba795b6a4827","650c16f0f2faf8d7a0d14c09","651d21d2a5246a3a0a2b6757","null","null","<p style=""font-size: 60px; font-family: BACS"">PEkhAdEPD</p>","","","","","","","","","",""
"html-keyboard-response","292","886570","0.0-14.0-0.41","6171d922c871ba795b6a4827","650c16f0f2faf8d7a0d14c09","651d21d2a5246a3a0a2b6757","null","null","<p style=""font-size: 60px; font-family: BACS"">AZlLNZckv</p>","","","","","","","","","",""
"html-keyboard-response","293","887571","0.0-14.0-0.42","6171d922c871ba795b6a4827","650c16f0f2faf8d7a0d14c09","651d21d2a5246a3a0a2b6757","null","null","<p style=""font-size: 60px; font-family: BACS"">EdBbOYK</p>","","","","","","","","","",""
"html-keyboard-response","294","888573","0.0-14.0-0.43","6171d922c871ba795b6a4827","650c16f0f2faf8d7a0d14c09","651d21d2a5246a3a0a2b6757","null","null","<p style=""font-size: 60px; font-family: BACS"">NulkYmb</p>","","","","","","","","","",""
"html-keyboard-response","295","889581","0.0-14.0-0.44","6171d922c871ba795b6a4827","650c16f0f2faf8d7a0d14c09","651d21d2a5246a3a0a2b6757","null","null","<p style=""font-size: 60px; font-family: BACS"">dYdAEPBT</p>","","","","","","","","","",""
"html-keyboard-response","296","890583","0.0-14.0-0.45","6171d922c871ba795b6a4827","650c16f0f2faf8d7a0d14c09","651d21d2a5246a3a0a2b6757","null","null","<p style=""font-size: 60px; font-family: BACS"">lkAkZckv</p>","","","","","","","","","",""
"html-keyboard-response","297","891585","0.0-14.0-0.46","6171d922c871ba795b6a4827","650c16f0f2faf8d7a0d14c09","651d21d2a5246a3a0a2b6757","null","null","<p style=""font-size: 60px; font-family: BACS"">kabJbLcO</p>","","","","","","","","","",""
"html-keyboard-response","298","892588","0.0-14.0-0.47","6171d922c871ba795b6a4827","650c16f0f2faf8d7a0d14c09","651d21d2a5246a3a0a2b6757","null","null","<p style=""font-size: 60px; font-family: BACS"">kKRCYDTk</p>","","","","","","","","","",""
"html-keyboard-response","299","893589","0.0-14.0-0.48","6171d922c871ba795b6a4827","650c16f0f2faf8d7a0d14c09","651d21d2a5246a3a0a2b6757","null","null","<p style=""font-size: 60px; font-family: BACS"">AZlLNYmb</p>","","","","","","","","","",""
"html-keyboard-response","300","894591","0.0-14.0-0.49","6171d922c871ba795b6a4827","650c16f0f2faf8d7a0d14c09","651d21d2a5246a3a0a2b6757","null","null","<p style=""font-size: 60px; font-family: BACS"">COTKYDTk</p>","","","","","","","","","",""
"html-keyboard-response","301","895592","0.0-14.0-0.50","6171d922c871ba795b6a4827","650c16f0f2faf8d7a0d14c09","651d21d2a5246a3a0a2b6757","null","null","<p style=""font-size: 60px; font-family: BACS"">CkBOPOYK</p>","","","","","","","","","",""
"html-keyboard-response","302","896593","0.0-14.0-0.51","6171d922c871ba795b6a4827","650c16f0f2faf8d7a0d14c09","651d21d2a5246a3a0a2b6757","null","null","<p style=""font-size: 60px; font-family: BACS"">adYrcJud</p>","","","","","","","","","",""
"html-keyboard-response","303","897594","0.0-14.0-0.52","6171d922c871ba795b6a4827","650c16f0f2faf8d7a0d14c09","651d21d2a5246a3a0a2b6757","null","null","<p style=""font-size: 60px; font-family: BACS"">dYdAYDTk</p>","","","","","","","","","",""
"html-keyboard-response","304","898596","0.0-14.0-0.53","6171d922c871ba795b6a4827","650c16f0f2faf8d7a0d14c09","651d21d2a5246a3a0a2b6757","null","null","<p style=""font-size: 60px; font-family: BACS"">JdGmLUOk</p>","","","","","","","","","",""
"html-keyboard-response","305","899597","0.0-14.0-0.54","6171d922c871ba795b6a4827","650c16f0f2faf8d7a0d14c09","651d21d2a5246a3a0a2b6757","null","null","<p style=""font-size: 60px; font-family: BACS"">PEkhAOYK</p>","","","","","","","","","",""
"html-keyboard-response","306","900599","0.0-14.0-0.55","6171d922c871ba795b6a4827","650c16f0f2faf8d7a0d14c09","651d21d2a5246a3a0a2b6757","null","null","<p style=""font-size: 60px; font-family: BACS"">ctktYDTk</p>","","","","","","","","","",""
"html-keyboard-response","307","901600","0.0-14.0-0.56","6171d922c871ba795b6a4827","650c16f0f2faf8d7a0d14c09","651d21d2a5246a3a0a2b6757","null","null","<p style=""font-size: 60px; font-family: BACS"">COTKdEPD</p>","","","","","","","","","",""
"html-keyboard-response","308","902603","0.0-14.0-0.57","6171d922c871ba795b6a4827","650c16f0f2faf8d7a0d14c09","651d21d2a5246a3a0a2b6757","null","null","<p style=""font-size: 60px; font-family: BACS"">adkrLUOk</p>","","","","","","","","","",""
"html-keyboard-response","309","903606","0.0-14.0-0.58","6171d922c871ba795b6a4827","650c16f0f2faf8d7a0d14c09","651d21d2a5246a3a0a2b6757","null","null","<p style=""font-size: 60px; font-family: BACS"">OLJblYmb</p>","","","","","","","","","",""
"html-keyboard-response","310","904608","0.0-14.0-0.59","6171d922c871ba795b6a4827","650c16f0f2faf8d7a0d14c09","651d21d2a5246a3a0a2b6757","null","null","<p style=""font-size: 60px; font-family: BACS"">kKRCdEPD</p>","","","","","","","","","",""
"html-keyboard-response","311","905610","0.0-14.0-0.60","6171d922c871ba795b6a4827","650c16f0f2faf8d7a0d14c09","651d21d2a5246a3a0a2b6757","null","null","<p style=""font-size: 60px; font-family: BACS"">kabJbJud</p>","","","","","","","","","",""
"html-keyboard-response","312","906610","0.0-14.0-0.61","6171d922c871ba795b6a4827","650c16f0f2faf8d7a0d14c09","651d21d2a5246a3a0a2b6757","null","null","<p style=""font-size: 60px; font-family: BACS"">ObOQlLcO</p>","","","","","","","","","",""
"html-keyboard-response","313","907624","0.0-14.0-0.62","6171d922c871ba795b6a4827","650c16f0f2faf8d7a0d14c09","651d21d2a5246a3a0a2b6757","null","null","<p style=""font-size: 60px; font-family: BACS"">adkrJud</p>","","","","","","","","","",""
"html-keyboard-response","314","908626","0.0-14.0-0.63","6171d922c871ba795b6a4827","650c16f0f2faf8d7a0d14c09","651d21d2a5246a3a0a2b6757","null","null","<p style=""font-size: 60px; font-family: BACS"">YNrAmLUOk</p>","","","","","","","","","",""
"html-keyboard-response","315","909628","0.0-14.0-0.64","6171d922c871ba795b6a4827","650c16f0f2faf8d7a0d14c09","651d21d2a5246a3a0a2b6757","null","null","<p style=""font-size: 60px; font-family: BACS"">tKDmhYDTk</p>","","","","","","","","","",""
"html-keyboard-response","316","910629","0.0-14.0-0.65","6171d922c871ba795b6a4827","650c16f0f2faf8d7a0d14c09","651d21d2a5246a3a0a2b6757","null","null","<p style=""font-size: 60px; font-family: BACS"">adYrcYmb</p>","","","","","","","","","",""
"html-keyboard-response","317","911630","0.0-14.0-0.66","6171d922c871ba795b6a4827","650c16f0f2faf8d7a0d14c09","651d21d2a5246a3a0a2b6757","null","null","<p style=""font-size: 60px; font-family: BACS"">lkAkLcO</p>","","","","","","","","","",""
"html-keyboard-response","318","912632","0.0-14.0-0.67","6171d922c871ba795b6a4827","650c16f0f2faf8d7a0d14c09","651d21d2a5246a3a0a2b6757","null","null","<p style=""font-size: 60px; font-family: BACS"">COTKEPBT</p>","","","","","","","","","",""
"html-keyboard-response","319","913633","0.0-14.0-0.68","6171d922c871ba795b6a4827","650c16f0f2faf8d7a0d14c09","651d21d2a5246a3a0a2b6757","null","null","<p style=""font-size: 60px; font-family: BACS"">ctktdEPD</p>","","","","","","","","","",""
"html-keyboard-response","320","914634","0.0-14.0-0.69","6171d922c871ba795b6a4827","650c16f0f2faf8d7a0d14c09","651d21d2a5246a3a0a2b6757","null","null","<p style=""font-size: 60px; font-family: BACS"">kabJbYmb</p>","","","","","","","","","",""
"html-keyboard-response","321","915635","0.0-14.0-0.70","6171d922c871ba795b6a4827","650c16f0f2faf8d7a0d14c09","651d21d2a5246a3a0a2b6757","null","null","<p style=""font-size: 60px; font-family: BACS"">CkBOPYKPB</p>","","","","","","","","","",""
"html-keyboard-response","322","916636","0.0-14.0-0.71","6171d922c871ba795b6a4827","650c16f0f2faf8d7a0d14c09","651d21d2a5246a3a0a2b6757","null","null","<p style=""font-size: 60px; font-family: BACS"">EdBbEPBT</p>","","","","","","","","","",""
"html-keyboard-response","323","917637","0.0-14.0-0.72","6171d922c871ba795b6a4827","650c16f0f2faf8d7a0d14c09","651d21d2a5246a3a0a2b6757","null","null","<p style=""font-size: 60px; font-family: BACS"">JdGmZckv</p>","","","","","","","","","",""
"html-keyboard-response","324","918637","0.0-14.0-0.73","6171d922c871ba795b6a4827","650c16f0f2faf8d7a0d14c09","651d21d2a5246a3a0a2b6757","null","null","<p style=""font-size: 60px; font-family: BACS"">NulkLUOk</p>","","","","","","","","","",""
"html-keyboard-response","325","919639","0.0-14.0-0.74","6171d922c871ba795b6a4827","650c16f0f2faf8d7a0d14c09","651d21d2a5246a3a0a2b6757","null","null","<p style=""font-size: 60px; font-family: BACS"">bRABtEPBT</p>","","","","","","","","","",""
"html-keyboard-response","326","920641","0.0-14.0-0.75","6171d922c871ba795b6a4827","650c16f0f2faf8d7a0d14c09","651d21d2a5246a3a0a2b6757","null","null","<p style=""font-size: 60px; font-family: BACS"">ObOQlZckv</p>","","","","","","","","","",""
"html-keyboard-response","327","921642","0.0-14.0-0.76","6171d922c871ba795b6a4827","650c16f0f2faf8d7a0d14c09","651d21d2a5246a3a0a2b6757","null","null","<p style=""font-size: 60px; font-family: BACS"">dYdAdEPD</p>","","","","","","","","","",""
"html-keyboard-response","328","922643","0.0-14.0-0.77","6171d922c871ba795b6a4827","650c16f0f2faf8d7a0d14c09","651d21d2a5246a3a0a2b6757","null","null","<p style=""font-size: 60px; font-family: BACS"">JdGmJud</p>","","","","","","","","","",""
"html-keyboard-response","329","923645","0.0-14.0-0.78","6171d922c871ba795b6a4827","650c16f0f2faf8d7a0d14c09","651d21d2a5246a3a0a2b6757","null","null","<p style=""font-size: 60px; font-family: BACS"">kabJbZckv</p>","","","","","","","","","",""
"html-keyboard-response","330","924646","0.0-14.0-0.79","6171d922c871ba795b6a4827","650c16f0f2faf8d7a0d14c09","651d21d2a5246a3a0a2b6757","null","null","<p style=""font-size: 60px; font-family: BACS"">PEkhAYDTk</p>","","","","","","","","","",""
"html-keyboard-response","331","957926","0.0-15.0","6171d922c871ba795b6a4827","650c16f0f2faf8d7a0d14c09","651d21d2a5246a3a0a2b6757","33280"," ","<p>Great, you've seen the fourth block of words. You may now take a short break.</p>
      <p>Press the spacebar when you're ready to continue.</p>","","","","","","","","","",""
"html-keyboard-response","332","958927","0.0-16.0-0.0","6171d922c871ba795b6a4827","650c16f0f2faf8d7a0d14c09","651d21d2a5246a3a0a2b6757","null","null","<p style=""font-size: 60px; font-family: BACS"">dRbDbOYK</p>","","","","","","","","","",""
"html-keyboard-response","333","959927","0.0-16.0-0.1","6171d922c871ba795b6a4827","650c16f0f2faf8d7a0d14c09","651d21d2a5246a3a0a2b6757","null","null","<p style=""font-size: 60px; font-family: BACS"">dRbDbOYK</p>","","","","","","","","","",""
"html-keyboard-response","334","960928","0.0-16.0-0.2","6171d922c871ba795b6a4827","650c16f0f2faf8d7a0d14c09","651d21d2a5246a3a0a2b6757","null","null","<p style=""font-size: 60px; font-family: BACS"">dRbDbOYK</p>","","","","","","","","","",""
"html-keyboard-response","335","961928","0.0-16.0-0.3","6171d922c871ba795b6a4827","650c16f0f2faf8d7a0d14c09","651d21d2a5246a3a0a2b6757","null","null","<p style=""font-size: 60px; font-family: BACS"">dRbDbOYK</p>","","","","","","","","","",""
"html-keyboard-response","336","962929","0.0-16.0-0.4","6171d922c871ba795b6a4827","650c16f0f2faf8d7a0d14c09","651d21d2a5246a3a0a2b6757","null","null","<p style=""font-size: 60px; font-family: BACS"">dRbDbOYK</p>","","","","","","","","","",""
"html-keyboard-response","337","963930","0.0-16.0-0.5","6171d922c871ba795b6a4827","650c16f0f2faf8d7a0d14c09","651d21d2a5246a3a0a2b6757","null","null","<p style=""font-size: 60px; font-family: BACS"">dRbDbOYK</p>","","","","","","","","","",""
"html-keyboard-response","338","964932","0.0-16.0-0.6","6171d922c871ba795b6a4827","650c16f0f2faf8d7a0d14c09","651d21d2a5246a3a0a2b6757","null","null","<p style=""font-size: 60px; font-family: BACS"">dRbDbOYK</p>","","","","","","","","","",""
"html-keyboard-response","339","965932","0.0-16.0-0.7","6171d922c871ba795b6a4827","650c16f0f2faf8d7a0d14c09","651d21d2a5246a3a0a2b6757","null","null","<p style=""font-size: 60px; font-family: BACS"">dRbDbOYK</p>","","","","","","","","","",""
"html-keyboard-response","340","966933","0.0-16.0-0.8","6171d922c871ba795b6a4827","650c16f0f2faf8d7a0d14c09","651d21d2a5246a3a0a2b6757","null","null","<p style=""font-size: 60px; font-family: BACS"">dRbDbOYK</p>","","","","","","","","","",""
"html-keyboard-response","341","967935","0.0-16.0-0.9","6171d922c871ba795b6a4827","650c16f0f2faf8d7a0d14c09","651d21d2a5246a3a0a2b6757","null","null","<p style=""font-size: 60px; font-family: BACS"">dRbDbOYK</p>","","","","","","","","","",""
"html-keyboard-response","342","968936","0.0-16.0-0.10","6171d922c871ba795b6a4827","650c16f0f2faf8d7a0d14c09","651d21d2a5246a3a0a2b6757","null","null","<p style=""font-size: 60px; font-family: BACS"">dRbDbOYK</p>","","","","","","","","","",""
"html-keyboard-response","343","969937","0.0-16.0-0.11","6171d922c871ba795b6a4827","650c16f0f2faf8d7a0d14c09","651d21d2a5246a3a0a2b6757","null","null","<p style=""font-size: 60px; font-family: BACS"">dRbDbOYK</p>","","","","","","","","","",""
"html-keyboard-response","344","970940","0.0-16.0-0.12","6171d922c871ba795b6a4827","650c16f0f2faf8d7a0d14c09","651d21d2a5246a3a0a2b6757","null","null","<p style=""font-size: 60px; font-family: BACS"">dRbDbOYK</p>","","","","","","","","","",""
"html-keyboard-response","345","971940","0.0-16.0-0.13","6171d922c871ba795b6a4827","650c16f0f2faf8d7a0d14c09","651d21d2a5246a3a0a2b6757","null","null","<p style=""font-size: 60px; font-family: BACS"">dRbDbOYK</p>","","","","","","","","","",""
"html-keyboard-response","346","972941","0.0-16.0-0.14","6171d922c871ba795b6a4827","650c16f0f2faf8d7a0d14c09","651d21d2a5246a3a0a2b6757","null","null","<p style=""font-size: 60px; font-family: BACS"">dRbDbOYK</p>","","","","","","","","","",""
"html-keyboard-response","347","973941","0.0-16.0-0.15","6171d922c871ba795b6a4827","650c16f0f2faf8d7a0d14c09","651d21d2a5246a3a0a2b6757","null","null","<p style=""font-size: 60px; font-family: BACS"">dRbDbOYK</p>","","","","","","","","","",""
"html-keyboard-response","348","974942","0.0-16.0-0.16","6171d922c871ba795b6a4827","650c16f0f2faf8d7a0d14c09","651d21d2a5246a3a0a2b6757","null","null","<p style=""font-size: 60px; font-family: BACS"">dRbDbOYK</p>","","","","","","","","","",""
"html-keyboard-response","349","975943","0.0-16.0-0.17","6171d922c871ba795b6a4827","650c16f0f2faf8d7a0d14c09","651d21d2a5246a3a0a2b6757","null","null","<p style=""font-size: 60px; font-family: BACS"">dRbDbOYK</p>","","","","","","","","","",""
"html-keyboard-response","350","976945","0.0-16.0-0.18","6171d922c871ba795b6a4827","650c16f0f2faf8d7a0d14c09","651d21d2a5246a3a0a2b6757","null","null","<p style=""font-size: 60px; font-family: BACS"">dRbDbOYK</p>","","","","","","","","","",""
"html-keyboard-response","351","977946","0.0-16.0-0.19","6171d922c871ba795b6a4827","650c16f0f2faf8d7a0d14c09","651d21d2a5246a3a0a2b6757","null","null","<p style=""font-size: 60px; font-family: BACS"">dRbDbOYK</p>","","","","","","","","","",""
"html-keyboard-response","352","978948","0.0-16.0-0.20","6171d922c871ba795b6a4827","650c16f0f2faf8d7a0d14c09","651d21d2a5246a3a0a2b6757","null","null","<p style=""font-size: 60px; font-family: BACS"">dRbDbOYK</p>","","","","","","","","","",""
"html-keyboard-response","353","979948","0.0-16.0-0.21","6171d922c871ba795b6a4827","650c16f0f2faf8d7a0d14c09","651d21d2a5246a3a0a2b6757","null","null","<p style=""font-size: 60px; font-family: BACS"">dRbDbOYK</p>","","","","","","","","","",""
"html-keyboard-response","354","980949","0.0-16.0-0.22","6171d922c871ba795b6a4827","650c16f0f2faf8d7a0d14c09","651d21d2a5246a3a0a2b6757","null","null","<p style=""font-size: 60px; font-family: BACS"">dRbDbOYK</p>","","","","","","","","","",""
"html-keyboard-response","355","981949","0.0-16.0-0.23","6171d922c871ba795b6a4827","650c16f0f2faf8d7a0d14c09","651d21d2a5246a3a0a2b6757","null","null","<p style=""font-size: 60px; font-family: BACS"">dRbDbOYK</p>","","","","","","","","","",""
"html-keyboard-response","356","982950","0.0-16.0-0.24","6171d922c871ba795b6a4827","650c16f0f2faf8d7a0d14c09","651d21d2a5246a3a0a2b6757","null","null","<p style=""font-size: 60px; font-family: BACS"">dRbDbOYK</p>","","","","","","","","","",""
"html-keyboard-response","357","983950","0.0-16.0-0.25","6171d922c871ba795b6a4827","650c16f0f2faf8d7a0d14c09","651d21d2a5246a3a0a2b6757","null","null","<p style=""font-size: 60px; font-family: BACS"">dRbDbOYK</p>","","","","","","","","","",""
"html-keyboard-response","358","984951","0.0-16.0-0.26","6171d922c871ba795b6a4827","650c16f0f2faf8d7a0d14c09","651d21d2a5246a3a0a2b6757","null","null","<p style=""font-size: 60px; font-family: BACS"">dRbDbOYK</p>","","","","","","","","","",""
"html-keyboard-response","359","985952","0.0-16.0-0.27","6171d922c871ba795b6a4827","650c16f0f2faf8d7a0d14c09","651d21d2a5246a3a0a2b6757","null","null","<p style=""font-size: 60px; font-family: BACS"">dRbDbOYK</p>","","","","","","","","","",""
"html-keyboard-response","360","986954","0.0-16.0-0.28","6171d922c871ba795b6a4827","650c16f0f2faf8d7a0d14c09","651d21d2a5246a3a0a2b6757","null","null","<p style=""font-size: 60px; font-family: BACS"">dRbDbOYK</p>","","","","","","","","","",""
"html-keyboard-response","361","987955","0.0-16.0-0.29","6171d922c871ba795b6a4827","650c16f0f2faf8d7a0d14c09","651d21d2a5246a3a0a2b6757","null","null","<p style=""font-size: 60px; font-family: BACS"">dRbDbOYK</p>","","","","","","","","","",""
"html-keyboard-response","362","988957","0.0-16.0-0.30","6171d922c871ba795b6a4827","650c16f0f2faf8d7a0d14c09","651d21d2a5246a3a0a2b6757","null","null","<p style=""font-size: 60px; font-family: BACS"">dRbDbOYK</p>","","","","","","","","","",""
"html-keyboard-response","363","989957","0.0-16.0-0.31","6171d922c871ba795b6a4827","650c16f0f2faf8d7a0d14c09","651d21d2a5246a3a0a2b6757","null","null","<p style=""font-size: 60px; font-family: BACS"">dRbDbOYK</p>","","","","","","","","","",""
"html-keyboard-response","364","990959","0.0-16.0-0.32","6171d922c871ba795b6a4827","650c16f0f2faf8d7a0d14c09","651d21d2a5246a3a0a2b6757","null","null","<p style=""font-size: 60px; font-family: BACS"">dRbDbOYK</p>","","","","","","","","","",""
"html-keyboard-response","365","991959","0.0-16.0-0.33","6171d922c871ba795b6a4827","650c16f0f2faf8d7a0d14c09","651d21d2a5246a3a0a2b6757","null","null","<p style=""font-size: 60px; font-family: BACS"">dRbDbOYK</p>","","","","","","","","","",""
"html-keyboard-response","366","992961","0.0-16.0-0.34","6171d922c871ba795b6a4827","650c16f0f2faf8d7a0d14c09","651d21d2a5246a3a0a2b6757","null","null","<p style=""font-size: 60px; font-family: BACS"">dRbDbOYK</p>","","","","","","","","","",""
"html-keyboard-response","367","993961","0.0-16.0-0.35","6171d922c871ba795b6a4827","650c16f0f2faf8d7a0d14c09","651d21d2a5246a3a0a2b6757","null","null","<p style=""font-size: 60px; font-family: BACS"">dRbDbOYK</p>","","","","","","","","","",""
"html-keyboard-response","368","994962","0.0-16.0-0.36","6171d922c871ba795b6a4827","650c16f0f2faf8d7a0d14c09","651d21d2a5246a3a0a2b6757","null","null","<p style=""font-size: 60px; font-family: BACS"">dRbDbOYK</p>","","","","","","","","","",""
"html-keyboard-response","369","995962","0.0-16.0-0.37","6171d922c871ba795b6a4827","650c16f0f2faf8d7a0d14c09","651d21d2a5246a3a0a2b6757","null","null","<p style=""font-size: 60px; font-family: BACS"">dRbDbOYK</p>","","","","","","","","","",""
"html-keyboard-response","370","996963","0.0-16.0-0.38","6171d922c871ba795b6a4827","650c16f0f2faf8d7a0d14c09","651d21d2a5246a3a0a2b6757","null","null","<p style=""font-size: 60px; font-family: BACS"">dRbDbOYK</p>","","","","","","","","","",""
"html-keyboard-response","371","997964","0.0-16.0-0.39","6171d922c871ba795b6a4827","650c16f0f2faf8d7a0d14c09","651d21d2a5246a3a0a2b6757","null","null","<p style=""font-size: 60px; font-family: BACS"">dRbDbOYK</p>","","","","","","","","","",""
"html-keyboard-response","372","998964","0.0-16.0-0.40","6171d922c871ba795b6a4827","650c16f0f2faf8d7a0d14c09","651d21d2a5246a3a0a2b6757","null","null","<p style=""font-size: 60px; font-family: BACS"">dRbDbOYK</p>","","","","","","","","","",""
"html-keyboard-response","373","999964","0.0-16.0-0.41","6171d922c871ba795b6a4827","650c16f0f2faf8d7a0d14c09","651d21d2a5246a3a0a2b6757","null","null","<p style=""font-size: 60px; font-family: BACS"">dRbDbOYK</p>","","","","","","","","","",""
"html-keyboard-response","374","1000965","0.0-16.0-0.42","6171d922c871ba795b6a4827","650c16f0f2faf8d7a0d14c09","651d21d2a5246a3a0a2b6757","null","null","<p style=""font-size: 60px; font-family: BACS"">dRbDbOYK</p>","","","","","","","","","",""
"html-keyboard-response","375","1001965","0.0-16.0-0.43","6171d922c871ba795b6a4827","650c16f0f2faf8d7a0d14c09","651d21d2a5246a3a0a2b6757","null","null","<p style=""font-size: 60px; font-family: BACS"">dRbDbOYK</p>","","","","","","","","","",""
"html-keyboard-response","376","1002965","0.0-16.0-0.44","6171d922c871ba795b6a4827","650c16f0f2faf8d7a0d14c09","651d21d2a5246a3a0a2b6757","null","null","<p style=""font-size: 60px; font-family: BACS"">dRbDbOYK</p>","","","","","","","","","",""
"html-keyboard-response","377","1003965","0.0-16.0-0.45","6171d922c871ba795b6a4827","650c16f0f2faf8d7a0d14c09","651d21d2a5246a3a0a2b6757","null","null","<p style=""font-size: 60px; font-family: BACS"">dRbDbOYK</p>","","","","","","","","","",""
"html-keyboard-response","378","1004967","0.0-16.0-0.46","6171d922c871ba795b6a4827","650c16f0f2faf8d7a0d14c09","651d21d2a5246a3a0a2b6757","null","null","<p style=""font-size: 60px; font-family: BACS"">dRbDbOYK</p>","","","","","","","","","",""
"html-keyboard-response","379","1005967","0.0-16.0-0.47","6171d922c871ba795b6a4827","650c16f0f2faf8d7a0d14c09","651d21d2a5246a3a0a2b6757","null","null","<p style=""font-size: 60px; font-family: BACS"">dRbDbOYK</p>","","","","","","","","","",""
"html-keyboard-response","380","1006968","0.0-16.0-0.48","6171d922c871ba795b6a4827","650c16f0f2faf8d7a0d14c09","651d21d2a5246a3a0a2b6757","null","null","<p style=""font-size: 60px; font-family: BACS"">dRbDbOYK</p>","","","","","","","","","",""
"html-keyboard-response","381","1007970","0.0-16.0-0.49","6171d922c871ba795b6a4827","650c16f0f2faf8d7a0d14c09","651d21d2a5246a3a0a2b6757","null","null","<p style=""font-size: 60px; font-family: BACS"">dRbDbOYK</p>","","","","","","","","","",""
"html-keyboard-response","382","1008971","0.0-16.0-0.50","6171d922c871ba795b6a4827","650c16f0f2faf8d7a0d14c09","651d21d2a5246a3a0a2b6757","null","null","<p style=""font-size: 60px; font-family: BACS"">dRbDbOYK</p>","","","","","","","","","",""
"html-keyboard-response","383","1009971","0.0-16.0-0.51","6171d922c871ba795b6a4827","650c16f0f2faf8d7a0d14c09","651d21d2a5246a3a0a2b6757","null","null","<p style=""font-size: 60px; font-family: BACS"">dRbDbOYK</p>","","","","","","","","","",""
"html-keyboard-response","384","1010972","0.0-16.0-0.52","6171d922c871ba795b6a4827","650c16f0f2faf8d7a0d14c09","651d21d2a5246a3a0a2b6757","null","null","<p style=""font-size: 60px; font-family: BACS"">dRbDbOYK</p>","","","","","","","","","",""
"html-keyboard-response","385","1011972","0.0-16.0-0.53","6171d922c871ba795b6a4827","650c16f0f2faf8d7a0d14c09","651d21d2a5246a3a0a2b6757","null","null","<p style=""font-size: 60px; font-family: BACS"">dRbDbOYK</p>","","","","","","","","","",""
"html-keyboard-response","386","1012974","0.0-16.0-0.54","6171d922c871ba795b6a4827","650c16f0f2faf8d7a0d14c09","651d21d2a5246a3a0a2b6757","null","null","<p style=""font-size: 60px; font-family: BACS"">dRbDbOYK</p>","","","","","","","","","",""
"html-keyboard-response","387","1013974","0.0-16.0-0.55","6171d922c871ba795b6a4827","650c16f0f2faf8d7a0d14c09","651d21d2a5246a3a0a2b6757","null","null","<p style=""font-size: 60px; font-family: BACS"">dRbDbOYK</p>","","","","","","","","","",""
"html-keyboard-response","388","1014975","0.0-16.0-0.56","6171d922c871ba795b6a4827","650c16f0f2faf8d7a0d14c09","651d21d2a5246a3a0a2b6757","null","null","<p style=""font-size: 60px; font-family: BACS"">dRbDbOYK</p>","","","","","","","","","",""
"html-keyboard-response","389","1015976","0.0-16.0-0.57","6171d922c871ba795b6a4827","650c16f0f2faf8d7a0d14c09","651d21d2a5246a3a0a2b6757","null","null","<p style=""font-size: 60px; font-family: BACS"">dRbDbOYK</p>","","","","","","","","","",""
"html-keyboard-response","390","1016978","0.0-16.0-0.58","6171d922c871ba795b6a4827","650c16f0f2faf8d7a0d14c09","651d21d2a5246a3a0a2b6757","null","null","<p style=""font-size: 60px; font-family: BACS"">dRbDbOYK</p>","","","","","","","","","",""
"html-keyboard-response","391","1017978","0.0-16.0-0.59","6171d922c871ba795b6a4827","650c16f0f2faf8d7a0d14c09","651d21d2a5246a3a0a2b6757","null","null","<p style=""font-size: 60px; font-family: BACS"">dRbDbOYK</p>","","","","","","","","","",""
"html-keyboard-response","392","1018980","0.0-16.0-0.60","6171d922c871ba795b6a4827","650c16f0f2faf8d7a0d14c09","651d21d2a5246a3a0a2b6757","null","null","<p style=""font-size: 60px; font-family: BACS"">dRbDbOYK</p>","","","","","","","","","",""
"html-keyboard-response","393","1019980","0.0-16.0-0.61","6171d922c871ba795b6a4827","650c16f0f2faf8d7a0d14c09","651d21d2a5246a3a0a2b6757","null","null","<p style=""font-size: 60px; font-family: BACS"">dRbDbOYK</p>","","","","","","","","","",""
"html-keyboard-response","394","1020981","0.0-16.0-0.62","6171d922c871ba795b6a4827","650c16f0f2faf8d7a0d14c09","651d21d2a5246a3a0a2b6757","null","null","<p style=""font-size: 60px; font-family: BACS"">dRbDbOYK</p>","","","","","","","","","",""
