"trial_type","trial_index","time_elapsed","internal_node_id","subject_id","study_id","session_id","rt","response","stimulus","success","item","task","correct_response","testing_condition","correct","target","confound","name"
"pavlovia","0","779","0.0-0.0","611bdb0fed7c9df6dce28c3f","650c16f0f2faf8d7a0d14c09","651c1cba5a3f15cef621aa6e","","","","","","","","","","","",""
"survey-html-form","1","9081","0.0-1.0","611bdb0fed7c9df6dce28c3f","650c16f0f2faf8d7a0d14c09","651c1cba5a3f15cef621aa6e","8300","{""ID"":""611bdb0fed7c9df6dce28c3f""}","","","","","","","","","",""
"html-keyboard-response","2","30902","0.0-2.0","611bdb0fed7c9df6dce28c3f","650c16f0f2faf8d7a0d14c09","651c1cba5a3f15cef621aa6e","21820"," ","<p style=""font-size: 15px;"">Before beginning, we ask that you read the consent information and confirm your agreement to participate in the experiment.</p>
      <p style=""font-size: 15px;""> We ask that you remember that this is a research project and that your participation is entirely voluntary. You can stop your participation at any time, without needing to provide any explanation. The study we're asking you to participate in aims at examining how readers process written words. You will be engaged in a session of apprximately 20 minutes, followed by a brief questionnaire. You will have the opportunity to take a few breaks during the experiment. You will be paid £4 for your participation, corresponding to a rate of £8/hour. While this experiment looks at cognitive faculties, this experiment doesn't constitute clinical proof of eventual pathologies.</p>
      <p style=""font-size: 15px;"">All of the information collected thanks to yours and others' participation will be held in a secure password-protected server, and will not be shared with anyone not authorised to view it. Your personal information will be kept with an arbitrary participant ID. Thanks to this data anonymity process, any researcher analysing the data won't be able to track the information back to a specific participant. Therefore, this process will make identifying you impossibile, even when results from the study will be published in scientific reviews, presented at congresses, or at any other public forum. More generally, the collected data will be treated in accordance with the laws on privacy and conformity to the Legislative Degree n. 196 ""Code regarding the protection of personal data"" of the 30th of June 2003 and to the European Regulation 2016/670 (General Data Protection Regulation - GDPR). The Data Protection Officer is Avv. Valentina Carollo, who can be contacted at the following email addresses: <a href=""mailto:dpo@sissa.it"">dpo@sissa.it</a> or <a href=""mailto:rpd@sissa.it"">rpd@sissa.it</a> - PEC: <a href=""mailto:protocollo@pec.sissa.it"">protocollo@pec.sissa.it</a>.</p>
      <p style=""font-size: 15px;""> Before expressing your consent to participate, we would like to remind you again that in case you need explanations on any aspect of the experimental procedure, the researcher is at your disposition (<a href=""mailto:aliebelt@sissa.it"">aliebelt@sissa.it</a>, <a href=""mailto:davide.crepaldi@sissa.it"">davide.crepaldi@sissa.it</a>).</p>
      <p style=""font-size: 15px;"">If you would like to download the informed consent form, you can do so here: <a href=""BASL-Informed_Consent.pdf"" download>informed consent form</a>.</p>
      <p style=""font-size: 15px;"">We ask that you press the spacebar to proceed to the consent section.</p>","","","","","","","","",""
"survey-html-form","3","57239","0.0-3.0","611bdb0fed7c9df6dce28c3f","650c16f0f2faf8d7a0d14c09","651c1cba5a3f15cef621aa6e","26337","{""consent1"":""YES"",""consent2"":""YES"",""consent3"":""YES"",""consent4"":""YES"",""consent5"":""YES"",""consent6"":""YES""}","","","","","","","","","",""
"fullscreen","4","66766","0.0-4.0","611bdb0fed7c9df6dce28c3f","650c16f0f2faf8d7a0d14c09","651c1cba5a3f15cef621aa6e","","","","true","","","","","","","",""
"html-keyboard-response","5","91796","0.0-5.0","611bdb0fed7c9df6dce28c3f","650c16f0f2faf8d7a0d14c09","651c1cba5a3f15cef621aa6e","25028"," ","<p>Welcome, and thank you very much for your time!</p>
      <p>In this experiment, you'll be a language expert who's been asked to take a look at words that Earth has received in its first communication with aliens. Your task, in this first part of the experiment, is to pay close attention to the words you'll be shown; later, world leaders will ask you questions on what you saw. The words will be shown to you quite quickly; it seems that the aliens were in a hurry :-)</p>
      <p>Press the spacebar to continue.<p>","","","","","","","","",""
"html-keyboard-response","6","91850","0.0-6.0","611bdb0fed7c9df6dce28c3f","650c16f0f2faf8d7a0d14c09","651c1cba5a3f15cef621aa6e","null","null","<p style=""font-size: 120px; font-family: BACS""> </p>","","","","","","","","",""
"html-keyboard-response","7","99491","0.0-7.0","611bdb0fed7c9df6dce28c3f","650c16f0f2faf8d7a0d14c09","651c1cba5a3f15cef621aa6e","7639"," ","<p>Here is an example of the words you'll see:</p>
      <img src='esempio.png' height='400px'>
      <p>When you're ready to begin, press the spacebar.</p></div>","","","","","","","","",""
"html-keyboard-response","8","100498","0.0-8.0-0.0","611bdb0fed7c9df6dce28c3f","650c16f0f2faf8d7a0d14c09","651c1cba5a3f15cef621aa6e","null","null","<p style=""font-size: 60px; font-family: BACS"">ObOQluda</p>","","","","","","","","",""
"html-keyboard-response","9","101513","0.0-8.0-0.1","611bdb0fed7c9df6dce28c3f","650c16f0f2faf8d7a0d14c09","651c1cba5a3f15cef621aa6e","null","null","<p style=""font-size: 60px; font-family: BACS"">EdBbDlDT</p>","","","","","","","","",""
"html-keyboard-response","10","102527","0.0-8.0-0.2","611bdb0fed7c9df6dce28c3f","650c16f0f2faf8d7a0d14c09","651c1cba5a3f15cef621aa6e","null","null","<p style=""font-size: 60px; font-family: BACS"">vkYGlAOUl</p>","","","","","","","","",""
"html-keyboard-response","11","103540","0.0-8.0-0.3","611bdb0fed7c9df6dce28c3f","650c16f0f2faf8d7a0d14c09","651c1cba5a3f15cef621aa6e","null","null","<p style=""font-size: 60px; font-family: BACS"">chAhRCdc</p>","","","","","","","","",""
"html-keyboard-response","12","104555","0.0-8.0-0.4","611bdb0fed7c9df6dce28c3f","650c16f0f2faf8d7a0d14c09","651c1cba5a3f15cef621aa6e","null","null","<p style=""font-size: 60px; font-family: BACS"">LNUrJark</p>","","","","","","","","",""
"html-keyboard-response","13","105570","0.0-8.0-0.5","611bdb0fed7c9df6dce28c3f","650c16f0f2faf8d7a0d14c09","651c1cba5a3f15cef621aa6e","null","null","<p style=""font-size: 60px; font-family: BACS"">QcQAJAOUl</p>","","","","","","","","",""
"html-keyboard-response","14","106573","0.0-8.0-0.6","611bdb0fed7c9df6dce28c3f","650c16f0f2faf8d7a0d14c09","651c1cba5a3f15cef621aa6e","null","null","<p style=""font-size: 60px; font-family: BACS"">LvuOGkbu</p>","","","","","","","","",""
"html-keyboard-response","15","107576","0.0-8.0-0.7","611bdb0fed7c9df6dce28c3f","650c16f0f2faf8d7a0d14c09","651c1cba5a3f15cef621aa6e","null","null","<p style=""font-size: 60px; font-family: BACS"">AJLrAOUl</p>","","","","","","","","",""
"html-keyboard-response","16","108585","0.0-8.0-0.8","611bdb0fed7c9df6dce28c3f","650c16f0f2faf8d7a0d14c09","651c1cba5a3f15cef621aa6e","null","null","<p style=""font-size: 60px; font-family: BACS"">PdDTDlDT</p>","","","","","","","","",""
"html-keyboard-response","17","109600","0.0-8.0-0.9","611bdb0fed7c9df6dce28c3f","650c16f0f2faf8d7a0d14c09","651c1cba5a3f15cef621aa6e","null","null","<p style=""font-size: 60px; font-family: BACS"">TKDkAkd</p>","","","","","","","","",""
"html-keyboard-response","18","110608","0.0-8.0-0.10","611bdb0fed7c9df6dce28c3f","650c16f0f2faf8d7a0d14c09","651c1cba5a3f15cef621aa6e","null","null","<p style=""font-size: 60px; font-family: BACS"">QcQAJark</p>","","","","","","","","",""
"html-keyboard-response","19","111621","0.0-8.0-0.11","611bdb0fed7c9df6dce28c3f","650c16f0f2faf8d7a0d14c09","651c1cba5a3f15cef621aa6e","null","null","<p style=""font-size: 60px; font-family: BACS"">JmvmOkbu</p>","","","","","","","","",""
"html-keyboard-response","20","112635","0.0-8.0-0.12","611bdb0fed7c9df6dce28c3f","650c16f0f2faf8d7a0d14c09","651c1cba5a3f15cef621aa6e","null","null","<p style=""font-size: 60px; font-family: BACS"">PlEKAdYl</p>","","","","","","","","",""
"html-keyboard-response","21","113641","0.0-8.0-0.13","611bdb0fed7c9df6dce28c3f","650c16f0f2faf8d7a0d14c09","651c1cba5a3f15cef621aa6e","null","null","<p style=""font-size: 60px; font-family: BACS"">ubALmAOUl</p>","","","","","","","","",""
"html-keyboard-response","22","114653","0.0-8.0-0.14","611bdb0fed7c9df6dce28c3f","650c16f0f2faf8d7a0d14c09","651c1cba5a3f15cef621aa6e","null","null","<p style=""font-size: 60px; font-family: BACS"">QcQAJuda</p>","","","","","","","","",""
"html-keyboard-response","23","115658","0.0-8.0-0.15","611bdb0fed7c9df6dce28c3f","650c16f0f2faf8d7a0d14c09","651c1cba5a3f15cef621aa6e","null","null","<p style=""font-size: 60px; font-family: BACS"">PdDTRCdc</p>","","","","","","","","",""
"html-keyboard-response","24","116672","0.0-8.0-0.16","611bdb0fed7c9df6dce28c3f","650c16f0f2faf8d7a0d14c09","651c1cba5a3f15cef621aa6e","null","null","<p style=""font-size: 60px; font-family: BACS"">mBbKDlDT</p>","","","","","","","","",""
"html-keyboard-response","25","117682","0.0-8.0-0.17","611bdb0fed7c9df6dce28c3f","650c16f0f2faf8d7a0d14c09","651c1cba5a3f15cef621aa6e","null","null","<p style=""font-size: 60px; font-family: BACS"">JauQAOUl</p>","","","","","","","","",""
"html-keyboard-response","26","118695","0.0-8.0-0.18","611bdb0fed7c9df6dce28c3f","650c16f0f2faf8d7a0d14c09","651c1cba5a3f15cef621aa6e","null","null","<p style=""font-size: 60px; font-family: BACS"">TKDkDlDT</p>","","","","","","","","",""
"html-keyboard-response","27","119697","0.0-8.0-0.19","611bdb0fed7c9df6dce28c3f","650c16f0f2faf8d7a0d14c09","651c1cba5a3f15cef621aa6e","null","null","<p style=""font-size: 60px; font-family: BACS"">LvuOGUdvY</p>","","","","","","","","",""
"html-keyboard-response","28","120706","0.0-8.0-0.20","611bdb0fed7c9df6dce28c3f","650c16f0f2faf8d7a0d14c09","651c1cba5a3f15cef621aa6e","null","null","<p style=""font-size: 60px; font-family: BACS"">EdBbAdYl</p>","","","","","","","","",""
"html-keyboard-response","29","121709","0.0-8.0-0.21","611bdb0fed7c9df6dce28c3f","650c16f0f2faf8d7a0d14c09","651c1cba5a3f15cef621aa6e","null","null","<p style=""font-size: 60px; font-family: BACS"">BKDRYAkd</p>","","","","","","","","",""
"html-keyboard-response","30","122717","0.0-8.0-0.22","611bdb0fed7c9df6dce28c3f","650c16f0f2faf8d7a0d14c09","651c1cba5a3f15cef621aa6e","null","null","<p style=""font-size: 60px; font-family: BACS"">lhCTCAdYl</p>","","","","","","","","",""
"html-keyboard-response","31","123721","0.0-8.0-0.23","611bdb0fed7c9df6dce28c3f","650c16f0f2faf8d7a0d14c09","651c1cba5a3f15cef621aa6e","null","null","<p style=""font-size: 60px; font-family: BACS"">EdBbRCdc</p>","","","","","","","","",""
"html-keyboard-response","32","124726","0.0-8.0-0.24","611bdb0fed7c9df6dce28c3f","650c16f0f2faf8d7a0d14c09","651c1cba5a3f15cef621aa6e","null","null","<p style=""font-size: 60px; font-family: BACS"">ZNLOvAOUl</p>","","","","","","","","",""
"html-keyboard-response","33","125739","0.0-8.0-0.25","611bdb0fed7c9df6dce28c3f","650c16f0f2faf8d7a0d14c09","651c1cba5a3f15cef621aa6e","null","null","<p style=""font-size: 60px; font-family: BACS"">TKDkRCdc</p>","","","","","","","","",""
"html-keyboard-response","34","126751","0.0-8.0-0.26","611bdb0fed7c9df6dce28c3f","650c16f0f2faf8d7a0d14c09","651c1cba5a3f15cef621aa6e","null","null","<p style=""font-size: 60px; font-family: BACS"">ZNLOvark</p>","","","","","","","","",""
"html-keyboard-response","35","127762","0.0-8.0-0.27","611bdb0fed7c9df6dce28c3f","650c16f0f2faf8d7a0d14c09","651c1cba5a3f15cef621aa6e","null","null","<p style=""font-size: 60px; font-family: BACS"">JmvmOAOUl</p>","","","","","","","","",""
"html-keyboard-response","36","128769","0.0-8.0-0.28","611bdb0fed7c9df6dce28c3f","650c16f0f2faf8d7a0d14c09","651c1cba5a3f15cef621aa6e","null","null","<p style=""font-size: 60px; font-family: BACS"">PdDTAkd</p>","","","","","","","","",""
"html-keyboard-response","37","129773","0.0-8.0-0.29","611bdb0fed7c9df6dce28c3f","650c16f0f2faf8d7a0d14c09","651c1cba5a3f15cef621aa6e","null","null","<p style=""font-size: 60px; font-family: BACS"">LNUrJuda</p>","","","","","","","","",""
"html-keyboard-response","38","130784","0.0-8.0-0.30","611bdb0fed7c9df6dce28c3f","650c16f0f2faf8d7a0d14c09","651c1cba5a3f15cef621aa6e","null","null","<p style=""font-size: 60px; font-family: BACS"">BKDRYAdYl</p>","","","","","","","","",""
"html-keyboard-response","39","131787","0.0-8.0-0.31","611bdb0fed7c9df6dce28c3f","650c16f0f2faf8d7a0d14c09","651c1cba5a3f15cef621aa6e","null","null","<p style=""font-size: 60px; font-family: BACS"">DCmhDlDT</p>","","","","","","","","",""
"html-keyboard-response","40","132801","0.0-8.0-0.32","611bdb0fed7c9df6dce28c3f","650c16f0f2faf8d7a0d14c09","651c1cba5a3f15cef621aa6e","null","null","<p style=""font-size: 60px; font-family: BACS"">CkBOPAdYl</p>","","","","","","","","",""
"html-keyboard-response","41","133811","0.0-8.0-0.33","611bdb0fed7c9df6dce28c3f","650c16f0f2faf8d7a0d14c09","651c1cba5a3f15cef621aa6e","null","null","<p style=""font-size: 60px; font-family: BACS"">chAhDlDT</p>","","","","","","","","",""
"html-keyboard-response","42","134822","0.0-8.0-0.34","611bdb0fed7c9df6dce28c3f","650c16f0f2faf8d7a0d14c09","651c1cba5a3f15cef621aa6e","null","null","<p style=""font-size: 60px; font-family: BACS"">JmvmOark</p>","","","","","","","","",""
"html-keyboard-response","43","135826","0.0-8.0-0.35","611bdb0fed7c9df6dce28c3f","650c16f0f2faf8d7a0d14c09","651c1cba5a3f15cef621aa6e","null","null","<p style=""font-size: 60px; font-family: BACS"">AJLruda</p>","","","","","","","","",""
"html-keyboard-response","44","136838","0.0-8.0-0.36","611bdb0fed7c9df6dce28c3f","650c16f0f2faf8d7a0d14c09","651c1cba5a3f15cef621aa6e","null","null","<p style=""font-size: 60px; font-family: BACS"">lhCTCDOk</p>","","","","","","","","",""
"html-keyboard-response","45","137850","0.0-8.0-0.37","611bdb0fed7c9df6dce28c3f","650c16f0f2faf8d7a0d14c09","651c1cba5a3f15cef621aa6e","null","null","<p style=""font-size: 60px; font-family: BACS"">QcQAJUdvY</p>","","","","","","","","",""
"html-keyboard-response","46","138857","0.0-8.0-0.38","611bdb0fed7c9df6dce28c3f","650c16f0f2faf8d7a0d14c09","651c1cba5a3f15cef621aa6e","null","null","<p style=""font-size: 60px; font-family: BACS"">chAhDOk</p>","","","","","","","","",""
"html-keyboard-response","47","139870","0.0-8.0-0.39","611bdb0fed7c9df6dce28c3f","650c16f0f2faf8d7a0d14c09","651c1cba5a3f15cef621aa6e","null","null","<p style=""font-size: 60px; font-family: BACS"">vkYGlUdvY</p>","","","","","","","","",""
"html-keyboard-response","48","140875","0.0-8.0-0.40","611bdb0fed7c9df6dce28c3f","650c16f0f2faf8d7a0d14c09","651c1cba5a3f15cef621aa6e","null","null","<p style=""font-size: 60px; font-family: BACS"">JauQkbu</p>","","","","","","","","",""
"html-keyboard-response","49","141878","0.0-8.0-0.41","611bdb0fed7c9df6dce28c3f","650c16f0f2faf8d7a0d14c09","651c1cba5a3f15cef621aa6e","null","null","<p style=""font-size: 60px; font-family: BACS"">LvuOGuda</p>","","","","","","","","",""
"html-keyboard-response","50","142891","0.0-8.0-0.42","611bdb0fed7c9df6dce28c3f","650c16f0f2faf8d7a0d14c09","651c1cba5a3f15cef621aa6e","null","null","<p style=""font-size: 60px; font-family: BACS"">CkBOPAkd</p>","","","","","","","","",""
"html-keyboard-response","51","143906","0.0-8.0-0.43","611bdb0fed7c9df6dce28c3f","650c16f0f2faf8d7a0d14c09","651c1cba5a3f15cef621aa6e","null","null","<p style=""font-size: 60px; font-family: BACS"">mBbKRCdc</p>","","","","","","","","",""
"html-keyboard-response","52","144921","0.0-8.0-0.44","611bdb0fed7c9df6dce28c3f","650c16f0f2faf8d7a0d14c09","651c1cba5a3f15cef621aa6e","null","null","<p style=""font-size: 60px; font-family: BACS"">ZNLOvuda</p>","","","","","","","","",""
"html-keyboard-response","53","145925","0.0-8.0-0.45","611bdb0fed7c9df6dce28c3f","650c16f0f2faf8d7a0d14c09","651c1cba5a3f15cef621aa6e","null","null","<p style=""font-size: 60px; font-family: BACS"">BKDRYDlDT</p>","","","","","","","","",""
"html-keyboard-response","54","146929","0.0-8.0-0.46","611bdb0fed7c9df6dce28c3f","650c16f0f2faf8d7a0d14c09","651c1cba5a3f15cef621aa6e","null","null","<p style=""font-size: 60px; font-family: BACS"">vkYGlark</p>","","","","","","","","",""
"html-keyboard-response","55","147932","0.0-8.0-0.47","611bdb0fed7c9df6dce28c3f","650c16f0f2faf8d7a0d14c09","651c1cba5a3f15cef621aa6e","null","null","<p style=""font-size: 60px; font-family: BACS"">ubALmkbu</p>","","","","","","","","",""
"html-keyboard-response","56","148940","0.0-8.0-0.48","611bdb0fed7c9df6dce28c3f","650c16f0f2faf8d7a0d14c09","651c1cba5a3f15cef621aa6e","null","null","<p style=""font-size: 60px; font-family: BACS"">mBbKAdYl</p>","","","","","","","","",""
"html-keyboard-response","57","149948","0.0-8.0-0.49","611bdb0fed7c9df6dce28c3f","650c16f0f2faf8d7a0d14c09","651c1cba5a3f15cef621aa6e","null","null","<p style=""font-size: 60px; font-family: BACS"">LNUrJUdvY</p>","","","","","","","","",""
"html-keyboard-response","58","150956","0.0-8.0-0.50","611bdb0fed7c9df6dce28c3f","650c16f0f2faf8d7a0d14c09","651c1cba5a3f15cef621aa6e","null","null","<p style=""font-size: 60px; font-family: BACS"">DCmhDOk</p>","","","","","","","","",""
"html-keyboard-response","59","151959","0.0-8.0-0.51","611bdb0fed7c9df6dce28c3f","650c16f0f2faf8d7a0d14c09","651c1cba5a3f15cef621aa6e","null","null","<p style=""font-size: 60px; font-family: BACS"">PlEKAkd</p>","","","","","","","","",""
"html-keyboard-response","60","152969","0.0-8.0-0.52","611bdb0fed7c9df6dce28c3f","650c16f0f2faf8d7a0d14c09","651c1cba5a3f15cef621aa6e","null","null","<p style=""font-size: 60px; font-family: BACS"">PdDTAdYl</p>","","","","","","","","",""
"html-keyboard-response","61","153972","0.0-8.0-0.53","611bdb0fed7c9df6dce28c3f","650c16f0f2faf8d7a0d14c09","651c1cba5a3f15cef621aa6e","null","null","<p style=""font-size: 60px; font-family: BACS"">EdBbAkd</p>","","","","","","","","",""
"html-keyboard-response","62","154982","0.0-8.0-0.54","611bdb0fed7c9df6dce28c3f","650c16f0f2faf8d7a0d14c09","651c1cba5a3f15cef621aa6e","null","null","<p style=""font-size: 60px; font-family: BACS"">AJLrUdvY</p>","","","","","","","","",""
"html-keyboard-response","63","155993","0.0-8.0-0.55","611bdb0fed7c9df6dce28c3f","650c16f0f2faf8d7a0d14c09","651c1cba5a3f15cef621aa6e","null","null","<p style=""font-size: 60px; font-family: BACS"">LNUrJkbu</p>","","","","","","","","",""
"html-keyboard-response","64","156998","0.0-8.0-0.56","611bdb0fed7c9df6dce28c3f","650c16f0f2faf8d7a0d14c09","651c1cba5a3f15cef621aa6e","null","null","<p style=""font-size: 60px; font-family: BACS"">LvuOGark</p>","","","","","","","","",""
"html-keyboard-response","65","158008","0.0-8.0-0.57","611bdb0fed7c9df6dce28c3f","650c16f0f2faf8d7a0d14c09","651c1cba5a3f15cef621aa6e","null","null","<p style=""font-size: 60px; font-family: BACS"">mBbKDOk</p>","","","","","","","","",""
"html-keyboard-response","66","159018","0.0-8.0-0.58","611bdb0fed7c9df6dce28c3f","650c16f0f2faf8d7a0d14c09","651c1cba5a3f15cef621aa6e","null","null","<p style=""font-size: 60px; font-family: BACS"">JauQuda</p>","","","","","","","","",""
"html-keyboard-response","67","160030","0.0-8.0-0.59","611bdb0fed7c9df6dce28c3f","650c16f0f2faf8d7a0d14c09","651c1cba5a3f15cef621aa6e","null","null","<p style=""font-size: 60px; font-family: BACS"">TKDkDOk</p>","","","","","","","","",""
"html-keyboard-response","68","161036","0.0-8.0-0.60","611bdb0fed7c9df6dce28c3f","650c16f0f2faf8d7a0d14c09","651c1cba5a3f15cef621aa6e","null","null","<p style=""font-size: 60px; font-family: BACS"">lhCTCAkd</p>","","","","","","","","",""
"html-keyboard-response","69","162050","0.0-8.0-0.61","611bdb0fed7c9df6dce28c3f","650c16f0f2faf8d7a0d14c09","651c1cba5a3f15cef621aa6e","null","null","<p style=""font-size: 60px; font-family: BACS"">ubALmark</p>","","","","","","","","",""
"html-keyboard-response","70","163063","0.0-8.0-0.62","611bdb0fed7c9df6dce28c3f","650c16f0f2faf8d7a0d14c09","651c1cba5a3f15cef621aa6e","null","null","<p style=""font-size: 60px; font-family: BACS"">DCmhAkd</p>","","","","","","","","",""
"html-keyboard-response","71","164066","0.0-8.0-0.63","611bdb0fed7c9df6dce28c3f","650c16f0f2faf8d7a0d14c09","651c1cba5a3f15cef621aa6e","null","null","<p style=""font-size: 60px; font-family: BACS"">ubALmUdvY</p>","","","","","","","","",""
"html-keyboard-response","72","165070","0.0-8.0-0.64","611bdb0fed7c9df6dce28c3f","650c16f0f2faf8d7a0d14c09","651c1cba5a3f15cef621aa6e","null","null","<p style=""font-size: 60px; font-family: BACS"">CkBOPRCdc</p>","","","","","","","","",""
"html-keyboard-response","73","166080","0.0-8.0-0.65","611bdb0fed7c9df6dce28c3f","650c16f0f2faf8d7a0d14c09","651c1cba5a3f15cef621aa6e","null","null","<p style=""font-size: 60px; font-family: BACS"">JauQUdvY</p>","","","","","","","","",""
"html-keyboard-response","74","167088","0.0-8.0-0.66","611bdb0fed7c9df6dce28c3f","650c16f0f2faf8d7a0d14c09","651c1cba5a3f15cef621aa6e","null","null","<p style=""font-size: 60px; font-family: BACS"">BKDRYDOk</p>","","","","","","","","",""
"html-keyboard-response","75","168100","0.0-8.0-0.67","611bdb0fed7c9df6dce28c3f","650c16f0f2faf8d7a0d14c09","651c1cba5a3f15cef621aa6e","null","null","<p style=""font-size: 60px; font-family: BACS"">DCmhRCdc</p>","","","","","","","","",""
"html-keyboard-response","76","169110","0.0-8.0-0.68","611bdb0fed7c9df6dce28c3f","650c16f0f2faf8d7a0d14c09","651c1cba5a3f15cef621aa6e","null","null","<p style=""font-size: 60px; font-family: BACS"">ObOQlAOUl</p>","","","","","","","","",""
"html-keyboard-response","77","170122","0.0-8.0-0.69","611bdb0fed7c9df6dce28c3f","650c16f0f2faf8d7a0d14c09","651c1cba5a3f15cef621aa6e","null","null","<p style=""font-size: 60px; font-family: BACS"">vkYGlkbu</p>","","","","","","","","",""
"html-keyboard-response","78","171131","0.0-8.0-0.70","611bdb0fed7c9df6dce28c3f","650c16f0f2faf8d7a0d14c09","651c1cba5a3f15cef621aa6e","null","null","<p style=""font-size: 60px; font-family: BACS"">chAhAdYl</p>","","","","","","","","",""
"html-keyboard-response","79","172142","0.0-8.0-0.71","611bdb0fed7c9df6dce28c3f","650c16f0f2faf8d7a0d14c09","651c1cba5a3f15cef621aa6e","null","null","<p style=""font-size: 60px; font-family: BACS"">PlEKDOk</p>","","","","","","","","",""
"html-keyboard-response","80","173156","0.0-8.0-0.72","611bdb0fed7c9df6dce28c3f","650c16f0f2faf8d7a0d14c09","651c1cba5a3f15cef621aa6e","null","null","<p style=""font-size: 60px; font-family: BACS"">JmvmOuda</p>","","","","","","","","",""
"html-keyboard-response","81","174168","0.0-8.0-0.73","611bdb0fed7c9df6dce28c3f","650c16f0f2faf8d7a0d14c09","651c1cba5a3f15cef621aa6e","null","null","<p style=""font-size: 60px; font-family: BACS"">PlEKRCdc</p>","","","","","","","","",""
"html-keyboard-response","82","175184","0.0-8.0-0.74","611bdb0fed7c9df6dce28c3f","650c16f0f2faf8d7a0d14c09","651c1cba5a3f15cef621aa6e","null","null","<p style=""font-size: 60px; font-family: BACS"">CkBOPDOk</p>","","","","","","","","",""
"html-keyboard-response","83","176186","0.0-8.0-0.75","611bdb0fed7c9df6dce28c3f","650c16f0f2faf8d7a0d14c09","651c1cba5a3f15cef621aa6e","null","null","<p style=""font-size: 60px; font-family: BACS"">ZNLOvkbu</p>","","","","","","","","",""
"html-keyboard-response","84","177189","0.0-8.0-0.76","611bdb0fed7c9df6dce28c3f","650c16f0f2faf8d7a0d14c09","651c1cba5a3f15cef621aa6e","null","null","<p style=""font-size: 60px; font-family: BACS"">ObOQlUdvY</p>","","","","","","","","",""
"html-keyboard-response","85","178196","0.0-8.0-0.77","611bdb0fed7c9df6dce28c3f","650c16f0f2faf8d7a0d14c09","651c1cba5a3f15cef621aa6e","null","null","<p style=""font-size: 60px; font-family: BACS"">lhCTCDlDT</p>","","","","","","","","",""
"html-keyboard-response","86","179199","0.0-8.0-0.78","611bdb0fed7c9df6dce28c3f","650c16f0f2faf8d7a0d14c09","651c1cba5a3f15cef621aa6e","null","null","<p style=""font-size: 60px; font-family: BACS"">ObOQlkbu</p>","","","","","","","","",""
"html-keyboard-response","87","180204","0.0-8.0-0.79","611bdb0fed7c9df6dce28c3f","650c16f0f2faf8d7a0d14c09","651c1cba5a3f15cef621aa6e","null","null","<p style=""font-size: 60px; font-family: BACS"">AJLrark</p>","","","","","","","","",""
"html-keyboard-response","88","230039","0.0-9.0","611bdb0fed7c9df6dce28c3f","650c16f0f2faf8d7a0d14c09","651c1cba5a3f15cef621aa6e","49834"," ","<p>Great, you've seen the first block of words. You may now take a short break.</p>
      <p>Press the spacebar when you're ready to continue.</p>","","","","","","","","",""
"html-keyboard-response","89","231045","0.0-10.0-0.0","611bdb0fed7c9df6dce28c3f","650c16f0f2faf8d7a0d14c09","651c1cba5a3f15cef621aa6e","null","null","<p style=""font-size: 60px; font-family: BACS"">JmvmOuda</p>","","","","","","","","",""
"html-keyboard-response","90","232046","0.0-10.0-0.1","611bdb0fed7c9df6dce28c3f","650c16f0f2faf8d7a0d14c09","651c1cba5a3f15cef621aa6e","null","null","<p style=""font-size: 60px; font-family: BACS"">PlEKRCdc</p>","","","","","","","","",""
"html-keyboard-response","91","233051","0.0-10.0-0.2","611bdb0fed7c9df6dce28c3f","650c16f0f2faf8d7a0d14c09","651c1cba5a3f15cef621aa6e","null","null","<p style=""font-size: 60px; font-family: BACS"">AJLrAOUl</p>","","","","","","","","",""
"html-keyboard-response","92","234065","0.0-10.0-0.3","611bdb0fed7c9df6dce28c3f","650c16f0f2faf8d7a0d14c09","651c1cba5a3f15cef621aa6e","null","null","<p style=""font-size: 60px; font-family: BACS"">LNUrJark</p>","","","","","","","","",""
"html-keyboard-response","93","235075","0.0-10.0-0.4","611bdb0fed7c9df6dce28c3f","650c16f0f2faf8d7a0d14c09","651c1cba5a3f15cef621aa6e","null","null","<p style=""font-size: 60px; font-family: BACS"">BKDRYDOk</p>","","","","","","","","",""
"html-keyboard-response","94","236086","0.0-10.0-0.5","611bdb0fed7c9df6dce28c3f","650c16f0f2faf8d7a0d14c09","651c1cba5a3f15cef621aa6e","null","null","<p style=""font-size: 60px; font-family: BACS"">QcQAJuda</p>","","","","","","","","",""
"html-keyboard-response","95","237096","0.0-10.0-0.6","611bdb0fed7c9df6dce28c3f","650c16f0f2faf8d7a0d14c09","651c1cba5a3f15cef621aa6e","null","null","<p style=""font-size: 60px; font-family: BACS"">ubALmkbu</p>","","","","","","","","",""
"html-keyboard-response","96","238097","0.0-10.0-0.7","611bdb0fed7c9df6dce28c3f","650c16f0f2faf8d7a0d14c09","651c1cba5a3f15cef621aa6e","null","null","<p style=""font-size: 60px; font-family: BACS"">TKDkDlDT</p>","","","","","","","","",""
"html-keyboard-response","97","239111","0.0-10.0-0.8","611bdb0fed7c9df6dce28c3f","650c16f0f2faf8d7a0d14c09","651c1cba5a3f15cef621aa6e","null","null","<p style=""font-size: 60px; font-family: BACS"">ObOQlUdvY</p>","","","","","","","","",""
"html-keyboard-response","98","240123","0.0-10.0-0.9","611bdb0fed7c9df6dce28c3f","650c16f0f2faf8d7a0d14c09","651c1cba5a3f15cef621aa6e","null","null","<p style=""font-size: 60px; font-family: BACS"">ubALmark</p>","","","","","","","","",""
"html-keyboard-response","99","241139","0.0-10.0-0.10","611bdb0fed7c9df6dce28c3f","650c16f0f2faf8d7a0d14c09","651c1cba5a3f15cef621aa6e","null","null","<p style=""font-size: 60px; font-family: BACS"">AJLrUdvY</p>","","","","","","","","",""
"html-keyboard-response","100","242149","0.0-10.0-0.11","611bdb0fed7c9df6dce28c3f","650c16f0f2faf8d7a0d14c09","651c1cba5a3f15cef621aa6e","null","null","<p style=""font-size: 60px; font-family: BACS"">ObOQlkbu</p>","","","","","","","","",""
"html-keyboard-response","101","243153","0.0-10.0-0.12","611bdb0fed7c9df6dce28c3f","650c16f0f2faf8d7a0d14c09","651c1cba5a3f15cef621aa6e","null","null","<p style=""font-size: 60px; font-family: BACS"">TKDkAkd</p>","","","","","","","","",""
"html-keyboard-response","102","244167","0.0-10.0-0.13","611bdb0fed7c9df6dce28c3f","650c16f0f2faf8d7a0d14c09","651c1cba5a3f15cef621aa6e","null","null","<p style=""font-size: 60px; font-family: BACS"">LvuOGuda</p>","","","","","","","","",""
"html-keyboard-response","103","245171","0.0-10.0-0.14","611bdb0fed7c9df6dce28c3f","650c16f0f2faf8d7a0d14c09","651c1cba5a3f15cef621aa6e","null","null","<p style=""font-size: 60px; font-family: BACS"">JauQAOUl</p>","","","","","","","","",""
"html-keyboard-response","104","246182","0.0-10.0-0.15","611bdb0fed7c9df6dce28c3f","650c16f0f2faf8d7a0d14c09","651c1cba5a3f15cef621aa6e","null","null","<p style=""font-size: 60px; font-family: BACS"">PlEKDOk</p>","","","","","","","","",""
"html-keyboard-response","105","247191","0.0-10.0-0.16","611bdb0fed7c9df6dce28c3f","650c16f0f2faf8d7a0d14c09","651c1cba5a3f15cef621aa6e","null","null","<p style=""font-size: 60px; font-family: BACS"">LvuOGkbu</p>","","","","","","","","",""
"html-keyboard-response","106","248204","0.0-10.0-0.17","611bdb0fed7c9df6dce28c3f","650c16f0f2faf8d7a0d14c09","651c1cba5a3f15cef621aa6e","null","null","<p style=""font-size: 60px; font-family: BACS"">EdBbAdYl</p>","","","","","","","","",""
"html-keyboard-response","107","249228","0.0-10.0-0.18","611bdb0fed7c9df6dce28c3f","650c16f0f2faf8d7a0d14c09","651c1cba5a3f15cef621aa6e","null","null","<p style=""font-size: 60px; font-family: BACS"">mBbKRCdc</p>","","","","","","","","",""
"html-keyboard-response","108","250244","0.0-10.0-0.19","611bdb0fed7c9df6dce28c3f","650c16f0f2faf8d7a0d14c09","651c1cba5a3f15cef621aa6e","null","null","<p style=""font-size: 60px; font-family: BACS"">DCmhDlDT</p>","","","","","","","","",""
"html-keyboard-response","109","251249","0.0-10.0-0.20","611bdb0fed7c9df6dce28c3f","650c16f0f2faf8d7a0d14c09","651c1cba5a3f15cef621aa6e","null","null","<p style=""font-size: 60px; font-family: BACS"">PlEKAdYl</p>","","","","","","","","",""
"html-keyboard-response","110","252263","0.0-10.0-0.21","611bdb0fed7c9df6dce28c3f","650c16f0f2faf8d7a0d14c09","651c1cba5a3f15cef621aa6e","null","null","<p style=""font-size: 60px; font-family: BACS"">CkBOPAkd</p>","","","","","","","","",""
"html-keyboard-response","111","253279","0.0-10.0-0.22","611bdb0fed7c9df6dce28c3f","650c16f0f2faf8d7a0d14c09","651c1cba5a3f15cef621aa6e","null","null","<p style=""font-size: 60px; font-family: BACS"">TKDkDOk</p>","","","","","","","","",""
"html-keyboard-response","112","254282","0.0-10.0-0.23","611bdb0fed7c9df6dce28c3f","650c16f0f2faf8d7a0d14c09","651c1cba5a3f15cef621aa6e","null","null","<p style=""font-size: 60px; font-family: BACS"">ZNLOvuda</p>","","","","","","","","",""
"html-keyboard-response","113","255295","0.0-10.0-0.24","611bdb0fed7c9df6dce28c3f","650c16f0f2faf8d7a0d14c09","651c1cba5a3f15cef621aa6e","null","null","<p style=""font-size: 60px; font-family: BACS"">PdDTDlDT</p>","","","","","","","","",""
"html-keyboard-response","114","256309","0.0-10.0-0.25","611bdb0fed7c9df6dce28c3f","650c16f0f2faf8d7a0d14c09","651c1cba5a3f15cef621aa6e","null","null","<p style=""font-size: 60px; font-family: BACS"">AJLruda</p>","","","","","","","","",""
"html-keyboard-response","115","257325","0.0-10.0-0.26","611bdb0fed7c9df6dce28c3f","650c16f0f2faf8d7a0d14c09","651c1cba5a3f15cef621aa6e","null","null","<p style=""font-size: 60px; font-family: BACS"">BKDRYAdYl</p>","","","","","","","","",""
"html-keyboard-response","116","258341","0.0-10.0-0.27","611bdb0fed7c9df6dce28c3f","650c16f0f2faf8d7a0d14c09","651c1cba5a3f15cef621aa6e","null","null","<p style=""font-size: 60px; font-family: BACS"">JmvmOkbu</p>","","","","","","","","",""
"html-keyboard-response","117","259354","0.0-10.0-0.28","611bdb0fed7c9df6dce28c3f","650c16f0f2faf8d7a0d14c09","651c1cba5a3f15cef621aa6e","null","null","<p style=""font-size: 60px; font-family: BACS"">lhCTCDlDT</p>","","","","","","","","",""
"html-keyboard-response","118","260366","0.0-10.0-0.29","611bdb0fed7c9df6dce28c3f","650c16f0f2faf8d7a0d14c09","651c1cba5a3f15cef621aa6e","null","null","<p style=""font-size: 60px; font-family: BACS"">LNUrJuda</p>","","","","","","","","",""
"html-keyboard-response","119","261374","0.0-10.0-0.30","611bdb0fed7c9df6dce28c3f","650c16f0f2faf8d7a0d14c09","651c1cba5a3f15cef621aa6e","null","null","<p style=""font-size: 60px; font-family: BACS"">lhCTCAkd</p>","","","","","","","","",""
"html-keyboard-response","120","262383","0.0-10.0-0.31","611bdb0fed7c9df6dce28c3f","650c16f0f2faf8d7a0d14c09","651c1cba5a3f15cef621aa6e","null","null","<p style=""font-size: 60px; font-family: BACS"">ZNLOvark</p>","","","","","","","","",""
"html-keyboard-response","121","263396","0.0-10.0-0.32","611bdb0fed7c9df6dce28c3f","650c16f0f2faf8d7a0d14c09","651c1cba5a3f15cef621aa6e","null","null","<p style=""font-size: 60px; font-family: BACS"">vkYGlUdvY</p>","","","","","","","","",""
"html-keyboard-response","122","264409","0.0-10.0-0.33","611bdb0fed7c9df6dce28c3f","650c16f0f2faf8d7a0d14c09","651c1cba5a3f15cef621aa6e","null","null","<p style=""font-size: 60px; font-family: BACS"">QcQAJark</p>","","","","","","","","",""
"html-keyboard-response","123","265415","0.0-10.0-0.34","611bdb0fed7c9df6dce28c3f","650c16f0f2faf8d7a0d14c09","651c1cba5a3f15cef621aa6e","null","null","<p style=""font-size: 60px; font-family: BACS"">DCmhDOk</p>","","","","","","","","",""
"html-keyboard-response","124","266431","0.0-10.0-0.35","611bdb0fed7c9df6dce28c3f","650c16f0f2faf8d7a0d14c09","651c1cba5a3f15cef621aa6e","null","null","<p style=""font-size: 60px; font-family: BACS"">QcQAJUdvY</p>","","","","","","","","",""
"html-keyboard-response","125","267442","0.0-10.0-0.36","611bdb0fed7c9df6dce28c3f","650c16f0f2faf8d7a0d14c09","651c1cba5a3f15cef621aa6e","null","null","<p style=""font-size: 60px; font-family: BACS"">JauQuda</p>","","","","","","","","",""
"html-keyboard-response","126","268447","0.0-10.0-0.37","611bdb0fed7c9df6dce28c3f","650c16f0f2faf8d7a0d14c09","651c1cba5a3f15cef621aa6e","null","null","<p style=""font-size: 60px; font-family: BACS"">mBbKDlDT</p>","","","","","","","","",""
"html-keyboard-response","127","269462","0.0-10.0-0.38","611bdb0fed7c9df6dce28c3f","650c16f0f2faf8d7a0d14c09","651c1cba5a3f15cef621aa6e","null","null","<p style=""font-size: 60px; font-family: BACS"">DCmhRCdc</p>","","","","","","","","",""
"html-keyboard-response","128","270474","0.0-10.0-0.39","611bdb0fed7c9df6dce28c3f","650c16f0f2faf8d7a0d14c09","651c1cba5a3f15cef621aa6e","null","null","<p style=""font-size: 60px; font-family: BACS"">PlEKAkd</p>","","","","","","","","",""
"html-keyboard-response","129","271475","0.0-10.0-0.40","611bdb0fed7c9df6dce28c3f","650c16f0f2faf8d7a0d14c09","651c1cba5a3f15cef621aa6e","null","null","<p style=""font-size: 60px; font-family: BACS"">CkBOPDOk</p>","","","","","","","","",""
"html-keyboard-response","130","272492","0.0-10.0-0.41","611bdb0fed7c9df6dce28c3f","650c16f0f2faf8d7a0d14c09","651c1cba5a3f15cef621aa6e","null","null","<p style=""font-size: 60px; font-family: BACS"">ubALmAOUl</p>","","","","","","","","",""
"html-keyboard-response","131","273503","0.0-10.0-0.42","611bdb0fed7c9df6dce28c3f","650c16f0f2faf8d7a0d14c09","651c1cba5a3f15cef621aa6e","null","null","<p style=""font-size: 60px; font-family: BACS"">EdBbDlDT</p>","","","","","","","","",""
"html-keyboard-response","132","274510","0.0-10.0-0.43","611bdb0fed7c9df6dce28c3f","650c16f0f2faf8d7a0d14c09","651c1cba5a3f15cef621aa6e","null","null","<p style=""font-size: 60px; font-family: BACS"">lhCTCDOk</p>","","","","","","","","",""
"html-keyboard-response","133","275522","0.0-10.0-0.44","611bdb0fed7c9df6dce28c3f","650c16f0f2faf8d7a0d14c09","651c1cba5a3f15cef621aa6e","null","null","<p style=""font-size: 60px; font-family: BACS"">CkBOPRCdc</p>","","","","","","","","",""
"html-keyboard-response","134","276527","0.0-10.0-0.45","611bdb0fed7c9df6dce28c3f","650c16f0f2faf8d7a0d14c09","651c1cba5a3f15cef621aa6e","null","null","<p style=""font-size: 60px; font-family: BACS"">mBbKDOk</p>","","","","","","","","",""
"html-keyboard-response","135","277531","0.0-10.0-0.46","611bdb0fed7c9df6dce28c3f","650c16f0f2faf8d7a0d14c09","651c1cba5a3f15cef621aa6e","null","null","<p style=""font-size: 60px; font-family: BACS"">chAhDlDT</p>","","","","","","","","",""
"html-keyboard-response","136","278540","0.0-10.0-0.47","611bdb0fed7c9df6dce28c3f","650c16f0f2faf8d7a0d14c09","651c1cba5a3f15cef621aa6e","null","null","<p style=""font-size: 60px; font-family: BACS"">CkBOPAdYl</p>","","","","","","","","",""
"html-keyboard-response","137","279554","0.0-10.0-0.48","611bdb0fed7c9df6dce28c3f","650c16f0f2faf8d7a0d14c09","651c1cba5a3f15cef621aa6e","null","null","<p style=""font-size: 60px; font-family: BACS"">ObOQluda</p>","","","","","","","","",""
"html-keyboard-response","138","280565","0.0-10.0-0.49","611bdb0fed7c9df6dce28c3f","650c16f0f2faf8d7a0d14c09","651c1cba5a3f15cef621aa6e","null","null","<p style=""font-size: 60px; font-family: BACS"">EdBbAkd</p>","","","","","","","","",""
"html-keyboard-response","139","281572","0.0-10.0-0.50","611bdb0fed7c9df6dce28c3f","650c16f0f2faf8d7a0d14c09","651c1cba5a3f15cef621aa6e","null","null","<p style=""font-size: 60px; font-family: BACS"">BKDRYDlDT</p>","","","","","","","","",""
"html-keyboard-response","140","282574","0.0-10.0-0.51","611bdb0fed7c9df6dce28c3f","650c16f0f2faf8d7a0d14c09","651c1cba5a3f15cef621aa6e","null","null","<p style=""font-size: 60px; font-family: BACS"">QcQAJAOUl</p>","","","","","","","","",""
"html-keyboard-response","141","283580","0.0-10.0-0.52","611bdb0fed7c9df6dce28c3f","650c16f0f2faf8d7a0d14c09","651c1cba5a3f15cef621aa6e","null","null","<p style=""font-size: 60px; font-family: BACS"">EdBbRCdc</p>","","","","","","","","",""
"html-keyboard-response","142","284589","0.0-10.0-0.53","611bdb0fed7c9df6dce28c3f","650c16f0f2faf8d7a0d14c09","651c1cba5a3f15cef621aa6e","null","null","<p style=""font-size: 60px; font-family: BACS"">ZNLOvAOUl</p>","","","","","","","","",""
"html-keyboard-response","143","285592","0.0-10.0-0.54","611bdb0fed7c9df6dce28c3f","650c16f0f2faf8d7a0d14c09","651c1cba5a3f15cef621aa6e","null","null","<p style=""font-size: 60px; font-family: BACS"">PdDTAdYl</p>","","","","","","","","",""
"html-keyboard-response","144","286605","0.0-10.0-0.55","611bdb0fed7c9df6dce28c3f","650c16f0f2faf8d7a0d14c09","651c1cba5a3f15cef621aa6e","null","null","<p style=""font-size: 60px; font-family: BACS"">vkYGlark</p>","","","","","","","","",""
"html-keyboard-response","145","287607","0.0-10.0-0.56","611bdb0fed7c9df6dce28c3f","650c16f0f2faf8d7a0d14c09","651c1cba5a3f15cef621aa6e","null","null","<p style=""font-size: 60px; font-family: BACS"">BKDRYAkd</p>","","","","","","","","",""
"html-keyboard-response","146","288621","0.0-10.0-0.57","611bdb0fed7c9df6dce28c3f","650c16f0f2faf8d7a0d14c09","651c1cba5a3f15cef621aa6e","null","null","<p style=""font-size: 60px; font-family: BACS"">AJLrark</p>","","","","","","","","",""
"html-keyboard-response","147","289636","0.0-10.0-0.58","611bdb0fed7c9df6dce28c3f","650c16f0f2faf8d7a0d14c09","651c1cba5a3f15cef621aa6e","null","null","<p style=""font-size: 60px; font-family: BACS"">JmvmOAOUl</p>","","","","","","","","",""
"html-keyboard-response","148","290641","0.0-10.0-0.59","611bdb0fed7c9df6dce28c3f","650c16f0f2faf8d7a0d14c09","651c1cba5a3f15cef621aa6e","null","null","<p style=""font-size: 60px; font-family: BACS"">mBbKAdYl</p>","","","","","","","","",""
"html-keyboard-response","149","291648","0.0-10.0-0.60","611bdb0fed7c9df6dce28c3f","650c16f0f2faf8d7a0d14c09","651c1cba5a3f15cef621aa6e","null","null","<p style=""font-size: 60px; font-family: BACS"">DCmhAkd</p>","","","","","","","","",""
"html-keyboard-response","150","292650","0.0-10.0-0.61","611bdb0fed7c9df6dce28c3f","650c16f0f2faf8d7a0d14c09","651c1cba5a3f15cef621aa6e","null","null","<p style=""font-size: 60px; font-family: BACS"">JauQUdvY</p>","","","","","","","","",""
"html-keyboard-response","151","293660","0.0-10.0-0.62","611bdb0fed7c9df6dce28c3f","650c16f0f2faf8d7a0d14c09","651c1cba5a3f15cef621aa6e","null","null","<p style=""font-size: 60px; font-family: BACS"">LNUrJkbu</p>","","","","","","","","",""
"html-keyboard-response","152","294665","0.0-10.0-0.63","611bdb0fed7c9df6dce28c3f","650c16f0f2faf8d7a0d14c09","651c1cba5a3f15cef621aa6e","null","null","<p style=""font-size: 60px; font-family: BACS"">chAhAdYl</p>","","","","","","","","",""
"html-keyboard-response","153","295676","0.0-10.0-0.64","611bdb0fed7c9df6dce28c3f","650c16f0f2faf8d7a0d14c09","651c1cba5a3f15cef621aa6e","null","null","<p style=""font-size: 60px; font-family: BACS"">vkYGlkbu</p>","","","","","","","","",""
"html-keyboard-response","154","296681","0.0-10.0-0.65","611bdb0fed7c9df6dce28c3f","650c16f0f2faf8d7a0d14c09","651c1cba5a3f15cef621aa6e","null","null","<p style=""font-size: 60px; font-family: BACS"">TKDkRCdc</p>","","","","","","","","",""
"html-keyboard-response","155","297693","0.0-10.0-0.66","611bdb0fed7c9df6dce28c3f","650c16f0f2faf8d7a0d14c09","651c1cba5a3f15cef621aa6e","null","null","<p style=""font-size: 60px; font-family: BACS"">PdDTAkd</p>","","","","","","","","",""
"html-keyboard-response","156","298701","0.0-10.0-0.67","611bdb0fed7c9df6dce28c3f","650c16f0f2faf8d7a0d14c09","651c1cba5a3f15cef621aa6e","null","null","<p style=""font-size: 60px; font-family: BACS"">LvuOGark</p>","","","","","","","","",""
"html-keyboard-response","157","299717","0.0-10.0-0.68","611bdb0fed7c9df6dce28c3f","650c16f0f2faf8d7a0d14c09","651c1cba5a3f15cef621aa6e","null","null","<p style=""font-size: 60px; font-family: BACS"">chAhDOk</p>","","","","","","","","",""
"html-keyboard-response","158","300733","0.0-10.0-0.69","611bdb0fed7c9df6dce28c3f","650c16f0f2faf8d7a0d14c09","651c1cba5a3f15cef621aa6e","null","null","<p style=""font-size: 60px; font-family: BACS"">ubALmUdvY</p>","","","","","","","","",""
"html-keyboard-response","159","301737","0.0-10.0-0.70","611bdb0fed7c9df6dce28c3f","650c16f0f2faf8d7a0d14c09","651c1cba5a3f15cef621aa6e","null","null","<p style=""font-size: 60px; font-family: BACS"">lhCTCAdYl</p>","","","","","","","","",""
"html-keyboard-response","160","302743","0.0-10.0-0.71","611bdb0fed7c9df6dce28c3f","650c16f0f2faf8d7a0d14c09","651c1cba5a3f15cef621aa6e","null","null","<p style=""font-size: 60px; font-family: BACS"">ZNLOvkbu</p>","","","","","","","","",""
"html-keyboard-response","161","303755","0.0-10.0-0.72","611bdb0fed7c9df6dce28c3f","650c16f0f2faf8d7a0d14c09","651c1cba5a3f15cef621aa6e","null","null","<p style=""font-size: 60px; font-family: BACS"">PdDTRCdc</p>","","","","","","","","",""
"html-keyboard-response","162","304759","0.0-10.0-0.73","611bdb0fed7c9df6dce28c3f","650c16f0f2faf8d7a0d14c09","651c1cba5a3f15cef621aa6e","null","null","<p style=""font-size: 60px; font-family: BACS"">LvuOGUdvY</p>","","","","","","","","",""
"html-keyboard-response","163","305761","0.0-10.0-0.74","611bdb0fed7c9df6dce28c3f","650c16f0f2faf8d7a0d14c09","651c1cba5a3f15cef621aa6e","null","null","<p style=""font-size: 60px; font-family: BACS"">JauQkbu</p>","","","","","","","","",""
"html-keyboard-response","164","306776","0.0-10.0-0.75","611bdb0fed7c9df6dce28c3f","650c16f0f2faf8d7a0d14c09","651c1cba5a3f15cef621aa6e","null","null","<p style=""font-size: 60px; font-family: BACS"">ObOQlAOUl</p>","","","","","","","","",""
"html-keyboard-response","165","307783","0.0-10.0-0.76","611bdb0fed7c9df6dce28c3f","650c16f0f2faf8d7a0d14c09","651c1cba5a3f15cef621aa6e","null","null","<p style=""font-size: 60px; font-family: BACS"">LNUrJUdvY</p>","","","","","","","","",""
"html-keyboard-response","166","308784","0.0-10.0-0.77","611bdb0fed7c9df6dce28c3f","650c16f0f2faf8d7a0d14c09","651c1cba5a3f15cef621aa6e","null","null","<p style=""font-size: 60px; font-family: BACS"">vkYGlAOUl</p>","","","","","","","","",""
"html-keyboard-response","167","309794","0.0-10.0-0.78","611bdb0fed7c9df6dce28c3f","650c16f0f2faf8d7a0d14c09","651c1cba5a3f15cef621aa6e","null","null","<p style=""font-size: 60px; font-family: BACS"">chAhRCdc</p>","","","","","","","","",""
"html-keyboard-response","168","310805","0.0-10.0-0.79","611bdb0fed7c9df6dce28c3f","650c16f0f2faf8d7a0d14c09","651c1cba5a3f15cef621aa6e","null","null","<p style=""font-size: 60px; font-family: BACS"">JmvmOark</p>","","","","","","","","",""
"html-keyboard-response","169","355870","0.0-11.0","611bdb0fed7c9df6dce28c3f","650c16f0f2faf8d7a0d14c09","651c1cba5a3f15cef621aa6e","45063"," ","<p>Great, you've seen the second block of words. You may now take a short break.</p>
      <p>Press the spacebar when you're ready to continue.</p>","","","","","","","","",""
"html-keyboard-response","170","356884","0.0-12.0-0.0","611bdb0fed7c9df6dce28c3f","650c16f0f2faf8d7a0d14c09","651c1cba5a3f15cef621aa6e","null","null","<p style=""font-size: 60px; font-family: BACS"">ObOQluda</p>","","","","","","","","",""
"html-keyboard-response","171","357891","0.0-12.0-0.1","611bdb0fed7c9df6dce28c3f","650c16f0f2faf8d7a0d14c09","651c1cba5a3f15cef621aa6e","null","null","<p style=""font-size: 60px; font-family: BACS"">mBbKDOk</p>","","","","","","","","",""
"html-keyboard-response","172","358895","0.0-12.0-0.2","611bdb0fed7c9df6dce28c3f","650c16f0f2faf8d7a0d14c09","651c1cba5a3f15cef621aa6e","null","null","<p style=""font-size: 60px; font-family: BACS"">LNUrJark</p>","","","","","","","","",""
"html-keyboard-response","173","359907","0.0-12.0-0.3","611bdb0fed7c9df6dce28c3f","650c16f0f2faf8d7a0d14c09","651c1cba5a3f15cef621aa6e","null","null","<p style=""font-size: 60px; font-family: BACS"">ZNLOvAOUl</p>","","","","","","","","",""
"html-keyboard-response","174","360920","0.0-12.0-0.4","611bdb0fed7c9df6dce28c3f","650c16f0f2faf8d7a0d14c09","651c1cba5a3f15cef621aa6e","null","null","<p style=""font-size: 60px; font-family: BACS"">ObOQlkbu</p>","","","","","","","","",""
"html-keyboard-response","175","361937","0.0-12.0-0.5","611bdb0fed7c9df6dce28c3f","650c16f0f2faf8d7a0d14c09","651c1cba5a3f15cef621aa6e","null","null","<p style=""font-size: 60px; font-family: BACS"">DCmhDOk</p>","","","","","","","","",""
"html-keyboard-response","176","362940","0.0-12.0-0.6","611bdb0fed7c9df6dce28c3f","650c16f0f2faf8d7a0d14c09","651c1cba5a3f15cef621aa6e","null","null","<p style=""font-size: 60px; font-family: BACS"">ZNLOvark</p>","","","","","","","","",""
"html-keyboard-response","177","363951","0.0-12.0-0.7","611bdb0fed7c9df6dce28c3f","650c16f0f2faf8d7a0d14c09","651c1cba5a3f15cef621aa6e","null","null","<p style=""font-size: 60px; font-family: BACS"">PdDTAdYl</p>","","","","","","","","",""
"html-keyboard-response","178","364955","0.0-12.0-0.8","611bdb0fed7c9df6dce28c3f","650c16f0f2faf8d7a0d14c09","651c1cba5a3f15cef621aa6e","null","null","<p style=""font-size: 60px; font-family: BACS"">EdBbDlDT</p>","","","","","","","","",""
"html-keyboard-response","179","365965","0.0-12.0-0.9","611bdb0fed7c9df6dce28c3f","650c16f0f2faf8d7a0d14c09","651c1cba5a3f15cef621aa6e","null","null","<p style=""font-size: 60px; font-family: BACS"">PlEKRCdc</p>","","","","","","","","",""
"html-keyboard-response","180","366967","0.0-12.0-0.10","611bdb0fed7c9df6dce28c3f","650c16f0f2faf8d7a0d14c09","651c1cba5a3f15cef621aa6e","null","null","<p style=""font-size: 60px; font-family: BACS"">JmvmOkbu</p>","","","","","","","","",""
"html-keyboard-response","181","367977","0.0-12.0-0.11","611bdb0fed7c9df6dce28c3f","650c16f0f2faf8d7a0d14c09","651c1cba5a3f15cef621aa6e","null","null","<p style=""font-size: 60px; font-family: BACS"">JauQUdvY</p>","","","","","","","","",""
"html-keyboard-response","182","368993","0.0-12.0-0.12","611bdb0fed7c9df6dce28c3f","650c16f0f2faf8d7a0d14c09","651c1cba5a3f15cef621aa6e","null","null","<p style=""font-size: 60px; font-family: BACS"">CkBOPRCdc</p>","","","","","","","","",""
"html-keyboard-response","183","369995","0.0-12.0-0.13","611bdb0fed7c9df6dce28c3f","650c16f0f2faf8d7a0d14c09","651c1cba5a3f15cef621aa6e","null","null","<p style=""font-size: 60px; font-family: BACS"">EdBbAdYl</p>","","","","","","","","",""
"html-keyboard-response","184","370996","0.0-12.0-0.14","611bdb0fed7c9df6dce28c3f","650c16f0f2faf8d7a0d14c09","651c1cba5a3f15cef621aa6e","null","null","<p style=""font-size: 60px; font-family: BACS"">QcQAJAOUl</p>","","","","","","","","",""
"html-keyboard-response","185","372010","0.0-12.0-0.15","611bdb0fed7c9df6dce28c3f","650c16f0f2faf8d7a0d14c09","651c1cba5a3f15cef621aa6e","null","null","<p style=""font-size: 60px; font-family: BACS"">TKDkDlDT</p>","","","","","","","","",""
"html-keyboard-response","186","373013","0.0-12.0-0.16","611bdb0fed7c9df6dce28c3f","650c16f0f2faf8d7a0d14c09","651c1cba5a3f15cef621aa6e","null","null","<p style=""font-size: 60px; font-family: BACS"">AJLrAOUl</p>","","","","","","","","",""
"html-keyboard-response","187","374016","0.0-12.0-0.17","611bdb0fed7c9df6dce28c3f","650c16f0f2faf8d7a0d14c09","651c1cba5a3f15cef621aa6e","null","null","<p style=""font-size: 60px; font-family: BACS"">chAhAdYl</p>","","","","","","","","",""
"html-keyboard-response","188","375018","0.0-12.0-0.18","611bdb0fed7c9df6dce28c3f","650c16f0f2faf8d7a0d14c09","651c1cba5a3f15cef621aa6e","null","null","<p style=""font-size: 60px; font-family: BACS"">vkYGlAOUl</p>","","","","","","","","",""
"html-keyboard-response","189","376025","0.0-12.0-0.19","611bdb0fed7c9df6dce28c3f","650c16f0f2faf8d7a0d14c09","651c1cba5a3f15cef621aa6e","null","null","<p style=""font-size: 60px; font-family: BACS"">JauQuda</p>","","","","","","","","",""
"html-keyboard-response","190","377038","0.0-12.0-0.20","611bdb0fed7c9df6dce28c3f","650c16f0f2faf8d7a0d14c09","651c1cba5a3f15cef621aa6e","null","null","<p style=""font-size: 60px; font-family: BACS"">LvuOGkbu</p>","","","","","","","","",""
"html-keyboard-response","191","378041","0.0-12.0-0.21","611bdb0fed7c9df6dce28c3f","650c16f0f2faf8d7a0d14c09","651c1cba5a3f15cef621aa6e","null","null","<p style=""font-size: 60px; font-family: BACS"">TKDkDOk</p>","","","","","","","","",""
"html-keyboard-response","192","379046","0.0-12.0-0.22","611bdb0fed7c9df6dce28c3f","650c16f0f2faf8d7a0d14c09","651c1cba5a3f15cef621aa6e","null","null","<p style=""font-size: 60px; font-family: BACS"">lhCTCAdYl</p>","","","","","","","","",""
"html-keyboard-response","193","380053","0.0-12.0-0.23","611bdb0fed7c9df6dce28c3f","650c16f0f2faf8d7a0d14c09","651c1cba5a3f15cef621aa6e","null","null","<p style=""font-size: 60px; font-family: BACS"">LvuOGUdvY</p>","","","","","","","","",""
"html-keyboard-response","194","381067","0.0-12.0-0.24","611bdb0fed7c9df6dce28c3f","650c16f0f2faf8d7a0d14c09","651c1cba5a3f15cef621aa6e","null","null","<p style=""font-size: 60px; font-family: BACS"">PlEKDOk</p>","","","","","","","","",""
"html-keyboard-response","195","382077","0.0-12.0-0.25","611bdb0fed7c9df6dce28c3f","650c16f0f2faf8d7a0d14c09","651c1cba5a3f15cef621aa6e","null","null","<p style=""font-size: 60px; font-family: BACS"">mBbKRCdc</p>","","","","","","","","",""
"html-keyboard-response","196","383085","0.0-12.0-0.26","611bdb0fed7c9df6dce28c3f","650c16f0f2faf8d7a0d14c09","651c1cba5a3f15cef621aa6e","null","null","<p style=""font-size: 60px; font-family: BACS"">BKDRYDOk</p>","","","","","","","","",""
"html-keyboard-response","197","384086","0.0-12.0-0.27","611bdb0fed7c9df6dce28c3f","650c16f0f2faf8d7a0d14c09","651c1cba5a3f15cef621aa6e","null","null","<p style=""font-size: 60px; font-family: BACS"">AJLrUdvY</p>","","","","","","","","",""
"html-keyboard-response","198","385099","0.0-12.0-0.28","611bdb0fed7c9df6dce28c3f","650c16f0f2faf8d7a0d14c09","651c1cba5a3f15cef621aa6e","null","null","<p style=""font-size: 60px; font-family: BACS"">QcQAJark</p>","","","","","","","","",""
"html-keyboard-response","199","386104","0.0-12.0-0.29","611bdb0fed7c9df6dce28c3f","650c16f0f2faf8d7a0d14c09","651c1cba5a3f15cef621aa6e","null","null","<p style=""font-size: 60px; font-family: BACS"">PdDTDlDT</p>","","","","","","","","",""
"html-keyboard-response","200","387106","0.0-12.0-0.30","611bdb0fed7c9df6dce28c3f","650c16f0f2faf8d7a0d14c09","651c1cba5a3f15cef621aa6e","null","null","<p style=""font-size: 60px; font-family: BACS"">LvuOGuda</p>","","","","","","","","",""
"html-keyboard-response","201","388111","0.0-12.0-0.31","611bdb0fed7c9df6dce28c3f","650c16f0f2faf8d7a0d14c09","651c1cba5a3f15cef621aa6e","null","null","<p style=""font-size: 60px; font-family: BACS"">DCmhDlDT</p>","","","","","","","","",""
"html-keyboard-response","202","389124","0.0-12.0-0.32","611bdb0fed7c9df6dce28c3f","650c16f0f2faf8d7a0d14c09","651c1cba5a3f15cef621aa6e","null","null","<p style=""font-size: 60px; font-family: BACS"">EdBbAkd</p>","","","","","","","","",""
"html-keyboard-response","203","390131","0.0-12.0-0.33","611bdb0fed7c9df6dce28c3f","650c16f0f2faf8d7a0d14c09","651c1cba5a3f15cef621aa6e","null","null","<p style=""font-size: 60px; font-family: BACS"">BKDRYDlDT</p>","","","","","","","","",""
"html-keyboard-response","204","391136","0.0-12.0-0.34","611bdb0fed7c9df6dce28c3f","650c16f0f2faf8d7a0d14c09","651c1cba5a3f15cef621aa6e","null","null","<p style=""font-size: 60px; font-family: BACS"">vkYGlkbu</p>","","","","","","","","",""
"html-keyboard-response","205","392145","0.0-12.0-0.35","611bdb0fed7c9df6dce28c3f","650c16f0f2faf8d7a0d14c09","651c1cba5a3f15cef621aa6e","null","null","<p style=""font-size: 60px; font-family: BACS"">PdDTRCdc</p>","","","","","","","","",""
"html-keyboard-response","206","393151","0.0-12.0-0.36","611bdb0fed7c9df6dce28c3f","650c16f0f2faf8d7a0d14c09","651c1cba5a3f15cef621aa6e","null","null","<p style=""font-size: 60px; font-family: BACS"">AJLruda</p>","","","","","","","","",""
"html-keyboard-response","207","394154","0.0-12.0-0.37","611bdb0fed7c9df6dce28c3f","650c16f0f2faf8d7a0d14c09","651c1cba5a3f15cef621aa6e","null","null","<p style=""font-size: 60px; font-family: BACS"">LNUrJUdvY</p>","","","","","","","","",""
"html-keyboard-response","208","395170","0.0-12.0-0.38","611bdb0fed7c9df6dce28c3f","650c16f0f2faf8d7a0d14c09","651c1cba5a3f15cef621aa6e","null","null","<p style=""font-size: 60px; font-family: BACS"">DCmhAkd</p>","","","","","","","","",""
"html-keyboard-response","209","396186","0.0-12.0-0.39","611bdb0fed7c9df6dce28c3f","650c16f0f2faf8d7a0d14c09","651c1cba5a3f15cef621aa6e","null","null","<p style=""font-size: 60px; font-family: BACS"">vkYGlark</p>","","","","","","","","",""
"html-keyboard-response","210","397188","0.0-12.0-0.40","611bdb0fed7c9df6dce28c3f","650c16f0f2faf8d7a0d14c09","651c1cba5a3f15cef621aa6e","null","null","<p style=""font-size: 60px; font-family: BACS"">CkBOPAdYl</p>","","","","","","","","",""
"html-keyboard-response","211","398202","0.0-12.0-0.41","611bdb0fed7c9df6dce28c3f","650c16f0f2faf8d7a0d14c09","651c1cba5a3f15cef621aa6e","null","null","<p style=""font-size: 60px; font-family: BACS"">DCmhRCdc</p>","","","","","","","","",""
"html-keyboard-response","212","399217","0.0-12.0-0.42","611bdb0fed7c9df6dce28c3f","650c16f0f2faf8d7a0d14c09","651c1cba5a3f15cef621aa6e","null","null","<p style=""font-size: 60px; font-family: BACS"">JmvmOuda</p>","","","","","","","","",""
"html-keyboard-response","213","400230","0.0-12.0-0.43","611bdb0fed7c9df6dce28c3f","650c16f0f2faf8d7a0d14c09","651c1cba5a3f15cef621aa6e","null","null","<p style=""font-size: 60px; font-family: BACS"">TKDkRCdc</p>","","","","","","","","",""
"html-keyboard-response","214","401237","0.0-12.0-0.44","611bdb0fed7c9df6dce28c3f","650c16f0f2faf8d7a0d14c09","651c1cba5a3f15cef621aa6e","null","null","<p style=""font-size: 60px; font-family: BACS"">ObOQlUdvY</p>","","","","","","","","",""
"html-keyboard-response","215","402250","0.0-12.0-0.45","611bdb0fed7c9df6dce28c3f","650c16f0f2faf8d7a0d14c09","651c1cba5a3f15cef621aa6e","null","null","<p style=""font-size: 60px; font-family: BACS"">ubALmark</p>","","","","","","","","",""
"html-keyboard-response","216","403260","0.0-12.0-0.46","611bdb0fed7c9df6dce28c3f","650c16f0f2faf8d7a0d14c09","651c1cba5a3f15cef621aa6e","null","null","<p style=""font-size: 60px; font-family: BACS"">CkBOPAkd</p>","","","","","","","","",""
"html-keyboard-response","217","404269","0.0-12.0-0.47","611bdb0fed7c9df6dce28c3f","650c16f0f2faf8d7a0d14c09","651c1cba5a3f15cef621aa6e","null","null","<p style=""font-size: 60px; font-family: BACS"">QcQAJuda</p>","","","","","","","","",""
"html-keyboard-response","218","405277","0.0-12.0-0.48","611bdb0fed7c9df6dce28c3f","650c16f0f2faf8d7a0d14c09","651c1cba5a3f15cef621aa6e","null","null","<p style=""font-size: 60px; font-family: BACS"">AJLrark</p>","","","","","","","","",""
"html-keyboard-response","219","406282","0.0-12.0-0.49","611bdb0fed7c9df6dce28c3f","650c16f0f2faf8d7a0d14c09","651c1cba5a3f15cef621aa6e","null","null","<p style=""font-size: 60px; font-family: BACS"">PlEKAdYl</p>","","","","","","","","",""
"html-keyboard-response","220","407299","0.0-12.0-0.50","611bdb0fed7c9df6dce28c3f","650c16f0f2faf8d7a0d14c09","651c1cba5a3f15cef621aa6e","null","null","<p style=""font-size: 60px; font-family: BACS"">BKDRYAkd</p>","","","","","","","","",""
"html-keyboard-response","221","408307","0.0-12.0-0.51","611bdb0fed7c9df6dce28c3f","650c16f0f2faf8d7a0d14c09","651c1cba5a3f15cef621aa6e","null","null","<p style=""font-size: 60px; font-family: BACS"">chAhDOk</p>","","","","","","","","",""
"html-keyboard-response","222","409321","0.0-12.0-0.52","611bdb0fed7c9df6dce28c3f","650c16f0f2faf8d7a0d14c09","651c1cba5a3f15cef621aa6e","null","null","<p style=""font-size: 60px; font-family: BACS"">JauQAOUl</p>","","","","","","","","",""
"html-keyboard-response","223","410345","0.0-12.0-0.53","611bdb0fed7c9df6dce28c3f","650c16f0f2faf8d7a0d14c09","651c1cba5a3f15cef621aa6e","null","null","<p style=""font-size: 60px; font-family: BACS"">CkBOPDOk</p>","","","","","","","","",""
"html-keyboard-response","224","411355","0.0-12.0-0.54","611bdb0fed7c9df6dce28c3f","650c16f0f2faf8d7a0d14c09","651c1cba5a3f15cef621aa6e","null","null","<p style=""font-size: 60px; font-family: BACS"">JmvmOark</p>","","","","","","","","",""
"html-keyboard-response","225","412362","0.0-12.0-0.55","611bdb0fed7c9df6dce28c3f","650c16f0f2faf8d7a0d14c09","651c1cba5a3f15cef621aa6e","null","null","<p style=""font-size: 60px; font-family: BACS"">PdDTAkd</p>","","","","","","","","",""
"html-keyboard-response","226","413368","0.0-12.0-0.56","611bdb0fed7c9df6dce28c3f","650c16f0f2faf8d7a0d14c09","651c1cba5a3f15cef621aa6e","null","null","<p style=""font-size: 60px; font-family: BACS"">JmvmOAOUl</p>","","","","","","","","",""
"html-keyboard-response","227","414371","0.0-12.0-0.57","611bdb0fed7c9df6dce28c3f","650c16f0f2faf8d7a0d14c09","651c1cba5a3f15cef621aa6e","null","null","<p style=""font-size: 60px; font-family: BACS"">ZNLOvuda</p>","","","","","","","","",""
"html-keyboard-response","228","415385","0.0-12.0-0.58","611bdb0fed7c9df6dce28c3f","650c16f0f2faf8d7a0d14c09","651c1cba5a3f15cef621aa6e","null","null","<p style=""font-size: 60px; font-family: BACS"">JauQkbu</p>","","","","","","","","",""
"html-keyboard-response","229","416400","0.0-12.0-0.59","611bdb0fed7c9df6dce28c3f","650c16f0f2faf8d7a0d14c09","651c1cba5a3f15cef621aa6e","null","null","<p style=""font-size: 60px; font-family: BACS"">chAhDlDT</p>","","","","","","","","",""
"html-keyboard-response","230","417406","0.0-12.0-0.60","611bdb0fed7c9df6dce28c3f","650c16f0f2faf8d7a0d14c09","651c1cba5a3f15cef621aa6e","null","null","<p style=""font-size: 60px; font-family: BACS"">lhCTCDOk</p>","","","","","","","","",""
"html-keyboard-response","231","418413","0.0-12.0-0.61","611bdb0fed7c9df6dce28c3f","650c16f0f2faf8d7a0d14c09","651c1cba5a3f15cef621aa6e","null","null","<p style=""font-size: 60px; font-family: BACS"">QcQAJUdvY</p>","","","","","","","","",""
"html-keyboard-response","232","419427","0.0-12.0-0.62","611bdb0fed7c9df6dce28c3f","650c16f0f2faf8d7a0d14c09","651c1cba5a3f15cef621aa6e","null","null","<p style=""font-size: 60px; font-family: BACS"">mBbKDlDT</p>","","","","","","","","",""
"html-keyboard-response","233","420441","0.0-12.0-0.63","611bdb0fed7c9df6dce28c3f","650c16f0f2faf8d7a0d14c09","651c1cba5a3f15cef621aa6e","null","null","<p style=""font-size: 60px; font-family: BACS"">LNUrJuda</p>","","","","","","","","",""
"html-keyboard-response","234","421453","0.0-12.0-0.64","611bdb0fed7c9df6dce28c3f","650c16f0f2faf8d7a0d14c09","651c1cba5a3f15cef621aa6e","null","null","<p style=""font-size: 60px; font-family: BACS"">ubALmkbu</p>","","","","","","","","",""
"html-keyboard-response","235","422467","0.0-12.0-0.65","611bdb0fed7c9df6dce28c3f","650c16f0f2faf8d7a0d14c09","651c1cba5a3f15cef621aa6e","null","null","<p style=""font-size: 60px; font-family: BACS"">PlEKAkd</p>","","","","","","","","",""
"html-keyboard-response","236","423475","0.0-12.0-0.66","611bdb0fed7c9df6dce28c3f","650c16f0f2faf8d7a0d14c09","651c1cba5a3f15cef621aa6e","null","null","<p style=""font-size: 60px; font-family: BACS"">LNUrJkbu</p>","","","","","","","","",""
"html-keyboard-response","237","424481","0.0-12.0-0.67","611bdb0fed7c9df6dce28c3f","650c16f0f2faf8d7a0d14c09","651c1cba5a3f15cef621aa6e","null","null","<p style=""font-size: 60px; font-family: BACS"">ObOQlAOUl</p>","","","","","","","","",""
"html-keyboard-response","238","425487","0.0-12.0-0.68","611bdb0fed7c9df6dce28c3f","650c16f0f2faf8d7a0d14c09","651c1cba5a3f15cef621aa6e","null","null","<p style=""font-size: 60px; font-family: BACS"">vkYGlUdvY</p>","","","","","","","","",""
"html-keyboard-response","239","426491","0.0-12.0-0.69","611bdb0fed7c9df6dce28c3f","650c16f0f2faf8d7a0d14c09","651c1cba5a3f15cef621aa6e","null","null","<p style=""font-size: 60px; font-family: BACS"">mBbKAdYl</p>","","","","","","","","",""
"html-keyboard-response","240","427498","0.0-12.0-0.70","611bdb0fed7c9df6dce28c3f","650c16f0f2faf8d7a0d14c09","651c1cba5a3f15cef621aa6e","null","null","<p style=""font-size: 60px; font-family: BACS"">lhCTCAkd</p>","","","","","","","","",""
"html-keyboard-response","241","428512","0.0-12.0-0.71","611bdb0fed7c9df6dce28c3f","650c16f0f2faf8d7a0d14c09","651c1cba5a3f15cef621aa6e","null","null","<p style=""font-size: 60px; font-family: BACS"">chAhRCdc</p>","","","","","","","","",""
"html-keyboard-response","242","429513","0.0-12.0-0.72","611bdb0fed7c9df6dce28c3f","650c16f0f2faf8d7a0d14c09","651c1cba5a3f15cef621aa6e","null","null","<p style=""font-size: 60px; font-family: BACS"">ubALmAOUl</p>","","","","","","","","",""
"html-keyboard-response","243","430524","0.0-12.0-0.73","611bdb0fed7c9df6dce28c3f","650c16f0f2faf8d7a0d14c09","651c1cba5a3f15cef621aa6e","null","null","<p style=""font-size: 60px; font-family: BACS"">lhCTCDlDT</p>","","","","","","","","",""
"html-keyboard-response","244","431534","0.0-12.0-0.74","611bdb0fed7c9df6dce28c3f","650c16f0f2faf8d7a0d14c09","651c1cba5a3f15cef621aa6e","null","null","<p style=""font-size: 60px; font-family: BACS"">LvuOGark</p>","","","","","","","","",""
"html-keyboard-response","245","432543","0.0-12.0-0.75","611bdb0fed7c9df6dce28c3f","650c16f0f2faf8d7a0d14c09","651c1cba5a3f15cef621aa6e","null","null","<p style=""font-size: 60px; font-family: BACS"">BKDRYAdYl</p>","","","","","","","","",""
"html-keyboard-response","246","433547","0.0-12.0-0.76","611bdb0fed7c9df6dce28c3f","650c16f0f2faf8d7a0d14c09","651c1cba5a3f15cef621aa6e","null","null","<p style=""font-size: 60px; font-family: BACS"">EdBbRCdc</p>","","","","","","","","",""
"html-keyboard-response","247","434550","0.0-12.0-0.77","611bdb0fed7c9df6dce28c3f","650c16f0f2faf8d7a0d14c09","651c1cba5a3f15cef621aa6e","null","null","<p style=""font-size: 60px; font-family: BACS"">TKDkAkd</p>","","","","","","","","",""
"html-keyboard-response","248","435565","0.0-12.0-0.78","611bdb0fed7c9df6dce28c3f","650c16f0f2faf8d7a0d14c09","651c1cba5a3f15cef621aa6e","null","null","<p style=""font-size: 60px; font-family: BACS"">ZNLOvkbu</p>","","","","","","","","",""
"html-keyboard-response","249","436579","0.0-12.0-0.79","611bdb0fed7c9df6dce28c3f","650c16f0f2faf8d7a0d14c09","651c1cba5a3f15cef621aa6e","null","null","<p style=""font-size: 60px; font-family: BACS"">ubALmUdvY</p>","","","","","","","","",""
"html-keyboard-response","250","449540","0.0-13.0","611bdb0fed7c9df6dce28c3f","650c16f0f2faf8d7a0d14c09","651c1cba5a3f15cef621aa6e","12960"," ","<p>Great, you've seen the third block of words. You may now take a short break.</p>
      <p>Press the spacebar when you're ready to continue.</p>","","","","","","","","",""
"html-keyboard-response","251","450542","0.0-14.0-0.0","611bdb0fed7c9df6dce28c3f","650c16f0f2faf8d7a0d14c09","651c1cba5a3f15cef621aa6e","null","null","<p style=""font-size: 60px; font-family: BACS"">BKDRYAdYl</p>","","","","","","","","",""
"html-keyboard-response","252","451543","0.0-14.0-0.1","611bdb0fed7c9df6dce28c3f","650c16f0f2faf8d7a0d14c09","651c1cba5a3f15cef621aa6e","null","null","<p style=""font-size: 60px; font-family: BACS"">ObOQlkbu</p>","","","","","","","","",""
"html-keyboard-response","253","452554","0.0-14.0-0.2","611bdb0fed7c9df6dce28c3f","650c16f0f2faf8d7a0d14c09","651c1cba5a3f15cef621aa6e","null","null","<p style=""font-size: 60px; font-family: BACS"">chAhDOk</p>","","","","","","","","",""
"html-keyboard-response","254","453570","0.0-14.0-0.3","611bdb0fed7c9df6dce28c3f","650c16f0f2faf8d7a0d14c09","651c1cba5a3f15cef621aa6e","null","null","<p style=""font-size: 60px; font-family: BACS"">ZNLOvuda</p>","","","","","","","","",""
"html-keyboard-response","255","454589","0.0-14.0-0.4","611bdb0fed7c9df6dce28c3f","650c16f0f2faf8d7a0d14c09","651c1cba5a3f15cef621aa6e","null","null","<p style=""font-size: 60px; font-family: BACS"">QcQAJUdvY</p>","","","","","","","","",""
"html-keyboard-response","256","455594","0.0-14.0-0.5","611bdb0fed7c9df6dce28c3f","650c16f0f2faf8d7a0d14c09","651c1cba5a3f15cef621aa6e","null","null","<p style=""font-size: 60px; font-family: BACS"">ObOQlAOUl</p>","","","","","","","","",""
"html-keyboard-response","257","456604","0.0-14.0-0.6","611bdb0fed7c9df6dce28c3f","650c16f0f2faf8d7a0d14c09","651c1cba5a3f15cef621aa6e","null","null","<p style=""font-size: 60px; font-family: BACS"">QcQAJark</p>","","","","","","","","",""
"html-keyboard-response","258","457606","0.0-14.0-0.7","611bdb0fed7c9df6dce28c3f","650c16f0f2faf8d7a0d14c09","651c1cba5a3f15cef621aa6e","null","null","<p style=""font-size: 60px; font-family: BACS"">ObOQlUdvY</p>","","","","","","","","",""
"html-keyboard-response","259","458608","0.0-14.0-0.8","611bdb0fed7c9df6dce28c3f","650c16f0f2faf8d7a0d14c09","651c1cba5a3f15cef621aa6e","null","null","<p style=""font-size: 60px; font-family: BACS"">BKDRYAkd</p>","","","","","","","","",""
"html-keyboard-response","260","459612","0.0-14.0-0.9","611bdb0fed7c9df6dce28c3f","650c16f0f2faf8d7a0d14c09","651c1cba5a3f15cef621aa6e","null","null","<p style=""font-size: 60px; font-family: BACS"">mBbKAdYl</p>","","","","","","","","",""
"html-keyboard-response","261","460624","0.0-14.0-0.10","611bdb0fed7c9df6dce28c3f","650c16f0f2faf8d7a0d14c09","651c1cba5a3f15cef621aa6e","null","null","<p style=""font-size: 60px; font-family: BACS"">LvuOGUdvY</p>","","","","","","","","",""
"html-keyboard-response","262","461633","0.0-14.0-0.11","611bdb0fed7c9df6dce28c3f","650c16f0f2faf8d7a0d14c09","651c1cba5a3f15cef621aa6e","null","null","<p style=""font-size: 60px; font-family: BACS"">DCmhAkd</p>","","","","","","","","",""
"html-keyboard-response","263","462634","0.0-14.0-0.12","611bdb0fed7c9df6dce28c3f","650c16f0f2faf8d7a0d14c09","651c1cba5a3f15cef621aa6e","null","null","<p style=""font-size: 60px; font-family: BACS"">JauQUdvY</p>","","","","","","","","",""
"html-keyboard-response","264","463648","0.0-14.0-0.13","611bdb0fed7c9df6dce28c3f","650c16f0f2faf8d7a0d14c09","651c1cba5a3f15cef621aa6e","null","null","<p style=""font-size: 60px; font-family: BACS"">ZNLOvkbu</p>","","","","","","","","",""
"html-keyboard-response","265","464651","0.0-14.0-0.14","611bdb0fed7c9df6dce28c3f","650c16f0f2faf8d7a0d14c09","651c1cba5a3f15cef621aa6e","null","null","<p style=""font-size: 60px; font-family: BACS"">vkYGlark</p>","","","","","","","","",""
"html-keyboard-response","266","465658","0.0-14.0-0.15","611bdb0fed7c9df6dce28c3f","650c16f0f2faf8d7a0d14c09","651c1cba5a3f15cef621aa6e","null","null","<p style=""font-size: 60px; font-family: BACS"">BKDRYDOk</p>","","","","","","","","",""
"html-keyboard-response","267","466668","0.0-14.0-0.16","611bdb0fed7c9df6dce28c3f","650c16f0f2faf8d7a0d14c09","651c1cba5a3f15cef621aa6e","null","null","<p style=""font-size: 60px; font-family: BACS"">QcQAJAOUl</p>","","","","","","","","",""
"html-keyboard-response","268","467674","0.0-14.0-0.17","611bdb0fed7c9df6dce28c3f","650c16f0f2faf8d7a0d14c09","651c1cba5a3f15cef621aa6e","null","null","<p style=""font-size: 60px; font-family: BACS"">PdDTRCdc</p>","","","","","","","","",""
"html-keyboard-response","269","468676","0.0-14.0-0.18","611bdb0fed7c9df6dce28c3f","650c16f0f2faf8d7a0d14c09","651c1cba5a3f15cef621aa6e","null","null","<p style=""font-size: 60px; font-family: BACS"">PlEKAdYl</p>","","","","","","","","",""
"html-keyboard-response","270","469677","0.0-14.0-0.19","611bdb0fed7c9df6dce28c3f","650c16f0f2faf8d7a0d14c09","651c1cba5a3f15cef621aa6e","null","null","<p style=""font-size: 60px; font-family: BACS"">TKDkRCdc</p>","","","","","","","","",""
"html-keyboard-response","271","470685","0.0-14.0-0.20","611bdb0fed7c9df6dce28c3f","650c16f0f2faf8d7a0d14c09","651c1cba5a3f15cef621aa6e","null","null","<p style=""font-size: 60px; font-family: BACS"">lhCTCAdYl</p>","","","","","","","","",""
"html-keyboard-response","272","471700","0.0-14.0-0.21","611bdb0fed7c9df6dce28c3f","650c16f0f2faf8d7a0d14c09","651c1cba5a3f15cef621aa6e","null","null","<p style=""font-size: 60px; font-family: BACS"">CkBOPAkd</p>","","","","","","","","",""
"html-keyboard-response","273","472710","0.0-14.0-0.22","611bdb0fed7c9df6dce28c3f","650c16f0f2faf8d7a0d14c09","651c1cba5a3f15cef621aa6e","null","null","<p style=""font-size: 60px; font-family: BACS"">ZNLOvark</p>","","","","","","","","",""
"html-keyboard-response","274","473717","0.0-14.0-0.23","611bdb0fed7c9df6dce28c3f","650c16f0f2faf8d7a0d14c09","651c1cba5a3f15cef621aa6e","null","null","<p style=""font-size: 60px; font-family: BACS"">mBbKDOk</p>","","","","","","","","",""
"html-keyboard-response","275","474733","0.0-14.0-0.24","611bdb0fed7c9df6dce28c3f","650c16f0f2faf8d7a0d14c09","651c1cba5a3f15cef621aa6e","null","null","<p style=""font-size: 60px; font-family: BACS"">ubALmUdvY</p>","","","","","","","","",""
"html-keyboard-response","276","475742","0.0-14.0-0.25","611bdb0fed7c9df6dce28c3f","650c16f0f2faf8d7a0d14c09","651c1cba5a3f15cef621aa6e","null","null","<p style=""font-size: 60px; font-family: BACS"">CkBOPRCdc</p>","","","","","","","","",""
"html-keyboard-response","277","476742","0.0-14.0-0.26","611bdb0fed7c9df6dce28c3f","650c16f0f2faf8d7a0d14c09","651c1cba5a3f15cef621aa6e","null","null","<p style=""font-size: 60px; font-family: BACS"">ObOQluda</p>","","","","","","","","",""
"html-keyboard-response","278","477744","0.0-14.0-0.27","611bdb0fed7c9df6dce28c3f","650c16f0f2faf8d7a0d14c09","651c1cba5a3f15cef621aa6e","null","null","<p style=""font-size: 60px; font-family: BACS"">PlEKDOk</p>","","","","","","","","",""
"html-keyboard-response","279","478750","0.0-14.0-0.28","611bdb0fed7c9df6dce28c3f","650c16f0f2faf8d7a0d14c09","651c1cba5a3f15cef621aa6e","null","null","<p style=""font-size: 60px; font-family: BACS"">PdDTAkd</p>","","","","","","","","",""
"html-keyboard-response","280","479763","0.0-14.0-0.29","611bdb0fed7c9df6dce28c3f","650c16f0f2faf8d7a0d14c09","651c1cba5a3f15cef621aa6e","null","null","<p style=""font-size: 60px; font-family: BACS"">JauQuda</p>","","","","","","","","",""
"html-keyboard-response","281","480774","0.0-14.0-0.30","611bdb0fed7c9df6dce28c3f","650c16f0f2faf8d7a0d14c09","651c1cba5a3f15cef621aa6e","null","null","<p style=""font-size: 60px; font-family: BACS"">vkYGlkbu</p>","","","","","","","","",""
"html-keyboard-response","282","481781","0.0-14.0-0.31","611bdb0fed7c9df6dce28c3f","650c16f0f2faf8d7a0d14c09","651c1cba5a3f15cef621aa6e","null","null","<p style=""font-size: 60px; font-family: BACS"">CkBOPDOk</p>","","","","","","","","",""
"html-keyboard-response","283","482797","0.0-14.0-0.32","611bdb0fed7c9df6dce28c3f","650c16f0f2faf8d7a0d14c09","651c1cba5a3f15cef621aa6e","null","null","<p style=""font-size: 60px; font-family: BACS"">EdBbAdYl</p>","","","","","","","","",""
"html-keyboard-response","284","483800","0.0-14.0-0.33","611bdb0fed7c9df6dce28c3f","650c16f0f2faf8d7a0d14c09","651c1cba5a3f15cef621aa6e","null","null","<p style=""font-size: 60px; font-family: BACS"">AJLrAOUl</p>","","","","","","","","",""
"html-keyboard-response","285","484816","0.0-14.0-0.34","611bdb0fed7c9df6dce28c3f","650c16f0f2faf8d7a0d14c09","651c1cba5a3f15cef621aa6e","null","null","<p style=""font-size: 60px; font-family: BACS"">DCmhDOk</p>","","","","","","","","",""
"html-keyboard-response","286","485825","0.0-14.0-0.35","611bdb0fed7c9df6dce28c3f","650c16f0f2faf8d7a0d14c09","651c1cba5a3f15cef621aa6e","null","null","<p style=""font-size: 60px; font-family: BACS"">JmvmOuda</p>","","","","","","","","",""
"html-keyboard-response","287","486840","0.0-14.0-0.36","611bdb0fed7c9df6dce28c3f","650c16f0f2faf8d7a0d14c09","651c1cba5a3f15cef621aa6e","null","null","<p style=""font-size: 60px; font-family: BACS"">PlEKAkd</p>","","","","","","","","",""
"html-keyboard-response","288","487845","0.0-14.0-0.37","611bdb0fed7c9df6dce28c3f","650c16f0f2faf8d7a0d14c09","651c1cba5a3f15cef621aa6e","null","null","<p style=""font-size: 60px; font-family: BACS"">LvuOGark</p>","","","","","","","","",""
"html-keyboard-response","289","488851","0.0-14.0-0.38","611bdb0fed7c9df6dce28c3f","650c16f0f2faf8d7a0d14c09","651c1cba5a3f15cef621aa6e","null","null","<p style=""font-size: 60px; font-family: BACS"">JmvmOkbu</p>","","","","","","","","",""
"html-keyboard-response","290","489855","0.0-14.0-0.39","611bdb0fed7c9df6dce28c3f","650c16f0f2faf8d7a0d14c09","651c1cba5a3f15cef621aa6e","null","null","<p style=""font-size: 60px; font-family: BACS"">DCmhDlDT</p>","","","","","","","","",""
"html-keyboard-response","291","490865","0.0-14.0-0.40","611bdb0fed7c9df6dce28c3f","650c16f0f2faf8d7a0d14c09","651c1cba5a3f15cef621aa6e","null","null","<p style=""font-size: 60px; font-family: BACS"">PlEKRCdc</p>","","","","","","","","",""
"html-keyboard-response","292","491880","0.0-14.0-0.41","611bdb0fed7c9df6dce28c3f","650c16f0f2faf8d7a0d14c09","651c1cba5a3f15cef621aa6e","null","null","<p style=""font-size: 60px; font-family: BACS"">EdBbDlDT</p>","","","","","","","","",""
"html-keyboard-response","293","492891","0.0-14.0-0.42","611bdb0fed7c9df6dce28c3f","650c16f0f2faf8d7a0d14c09","651c1cba5a3f15cef621aa6e","null","null","<p style=""font-size: 60px; font-family: BACS"">QcQAJuda</p>","","","","","","","","",""
"html-keyboard-response","294","493894","0.0-14.0-0.43","611bdb0fed7c9df6dce28c3f","650c16f0f2faf8d7a0d14c09","651c1cba5a3f15cef621aa6e","null","null","<p style=""font-size: 60px; font-family: BACS"">ubALmkbu</p>","","","","","","","","",""
"html-keyboard-response","295","494897","0.0-14.0-0.44","611bdb0fed7c9df6dce28c3f","650c16f0f2faf8d7a0d14c09","651c1cba5a3f15cef621aa6e","null","null","<p style=""font-size: 60px; font-family: BACS"">chAhAdYl</p>","","","","","","","","",""
"html-keyboard-response","296","495912","0.0-14.0-0.45","611bdb0fed7c9df6dce28c3f","650c16f0f2faf8d7a0d14c09","651c1cba5a3f15cef621aa6e","null","null","<p style=""font-size: 60px; font-family: BACS"">JauQAOUl</p>","","","","","","","","",""
"html-keyboard-response","297","496924","0.0-14.0-0.46","611bdb0fed7c9df6dce28c3f","650c16f0f2faf8d7a0d14c09","651c1cba5a3f15cef621aa6e","null","null","<p style=""font-size: 60px; font-family: BACS"">vkYGlUdvY</p>","","","","","","","","",""
"html-keyboard-response","298","497933","0.0-14.0-0.47","611bdb0fed7c9df6dce28c3f","650c16f0f2faf8d7a0d14c09","651c1cba5a3f15cef621aa6e","null","null","<p style=""font-size: 60px; font-family: BACS"">DCmhRCdc</p>","","","","","","","","",""
"html-keyboard-response","299","498934","0.0-14.0-0.48","611bdb0fed7c9df6dce28c3f","650c16f0f2faf8d7a0d14c09","651c1cba5a3f15cef621aa6e","null","null","<p style=""font-size: 60px; font-family: BACS"">CkBOPAdYl</p>","","","","","","","","",""
"html-keyboard-response","300","499935","0.0-14.0-0.49","611bdb0fed7c9df6dce28c3f","650c16f0f2faf8d7a0d14c09","651c1cba5a3f15cef621aa6e","null","null","<p style=""font-size: 60px; font-family: BACS"">PdDTDlDT</p>","","","","","","","","",""
"html-keyboard-response","301","500937","0.0-14.0-0.50","611bdb0fed7c9df6dce28c3f","650c16f0f2faf8d7a0d14c09","651c1cba5a3f15cef621aa6e","null","null","<p style=""font-size: 60px; font-family: BACS"">LvuOGuda</p>","","","","","","","","",""
"html-keyboard-response","302","501942","0.0-14.0-0.51","611bdb0fed7c9df6dce28c3f","650c16f0f2faf8d7a0d14c09","651c1cba5a3f15cef621aa6e","null","null","<p style=""font-size: 60px; font-family: BACS"">chAhDlDT</p>","","","","","","","","",""
"html-keyboard-response","303","502952","0.0-14.0-0.52","611bdb0fed7c9df6dce28c3f","650c16f0f2faf8d7a0d14c09","651c1cba5a3f15cef621aa6e","null","null","<p style=""font-size: 60px; font-family: BACS"">vkYGlAOUl</p>","","","","","","","","",""
"html-keyboard-response","304","503964","0.0-14.0-0.53","611bdb0fed7c9df6dce28c3f","650c16f0f2faf8d7a0d14c09","651c1cba5a3f15cef621aa6e","null","null","<p style=""font-size: 60px; font-family: BACS"">lhCTCDlDT</p>","","","","","","","","",""
"html-keyboard-response","305","504973","0.0-14.0-0.54","611bdb0fed7c9df6dce28c3f","650c16f0f2faf8d7a0d14c09","651c1cba5a3f15cef621aa6e","null","null","<p style=""font-size: 60px; font-family: BACS"">LvuOGkbu</p>","","","","","","","","",""
"html-keyboard-response","306","505985","0.0-14.0-0.55","611bdb0fed7c9df6dce28c3f","650c16f0f2faf8d7a0d14c09","651c1cba5a3f15cef621aa6e","null","null","<p style=""font-size: 60px; font-family: BACS"">lhCTCAkd</p>","","","","","","","","",""
"html-keyboard-response","307","506999","0.0-14.0-0.56","611bdb0fed7c9df6dce28c3f","650c16f0f2faf8d7a0d14c09","651c1cba5a3f15cef621aa6e","null","null","<p style=""font-size: 60px; font-family: BACS"">BKDRYDlDT</p>","","","","","","","","",""
"html-keyboard-response","308","508007","0.0-14.0-0.57","611bdb0fed7c9df6dce28c3f","650c16f0f2faf8d7a0d14c09","651c1cba5a3f15cef621aa6e","null","null","<p style=""font-size: 60px; font-family: BACS"">JauQkbu</p>","","","","","","","","",""
"html-keyboard-response","309","509019","0.0-14.0-0.58","611bdb0fed7c9df6dce28c3f","650c16f0f2faf8d7a0d14c09","651c1cba5a3f15cef621aa6e","null","null","<p style=""font-size: 60px; font-family: BACS"">ubALmark</p>","","","","","","","","",""
"html-keyboard-response","310","510028","0.0-14.0-0.59","611bdb0fed7c9df6dce28c3f","650c16f0f2faf8d7a0d14c09","651c1cba5a3f15cef621aa6e","null","null","<p style=""font-size: 60px; font-family: BACS"">AJLruda</p>","","","","","","","","",""
"html-keyboard-response","311","511041","0.0-14.0-0.60","611bdb0fed7c9df6dce28c3f","650c16f0f2faf8d7a0d14c09","651c1cba5a3f15cef621aa6e","null","null","<p style=""font-size: 60px; font-family: BACS"">ZNLOvAOUl</p>","","","","","","","","",""
"html-keyboard-response","312","512058","0.0-14.0-0.61","611bdb0fed7c9df6dce28c3f","650c16f0f2faf8d7a0d14c09","651c1cba5a3f15cef621aa6e","null","null","<p style=""font-size: 60px; font-family: BACS"">LNUrJkbu</p>","","","","","","","","",""
"html-keyboard-response","313","513072","0.0-14.0-0.62","611bdb0fed7c9df6dce28c3f","650c16f0f2faf8d7a0d14c09","651c1cba5a3f15cef621aa6e","null","null","<p style=""font-size: 60px; font-family: BACS"">JmvmOAOUl</p>","","","","","","","","",""
"html-keyboard-response","314","514085","0.0-14.0-0.63","611bdb0fed7c9df6dce28c3f","650c16f0f2faf8d7a0d14c09","651c1cba5a3f15cef621aa6e","null","null","<p style=""font-size: 60px; font-family: BACS"">TKDkDlDT</p>","","","","","","","","",""
"html-keyboard-response","315","515098","0.0-14.0-0.64","611bdb0fed7c9df6dce28c3f","650c16f0f2faf8d7a0d14c09","651c1cba5a3f15cef621aa6e","null","null","<p style=""font-size: 60px; font-family: BACS"">chAhRCdc</p>","","","","","","","","",""
"html-keyboard-response","316","516107","0.0-14.0-0.65","611bdb0fed7c9df6dce28c3f","650c16f0f2faf8d7a0d14c09","651c1cba5a3f15cef621aa6e","null","null","<p style=""font-size: 60px; font-family: BACS"">AJLrark</p>","","","","","","","","",""
"html-keyboard-response","317","517117","0.0-14.0-0.66","611bdb0fed7c9df6dce28c3f","650c16f0f2faf8d7a0d14c09","651c1cba5a3f15cef621aa6e","null","null","<p style=""font-size: 60px; font-family: BACS"">PdDTAdYl</p>","","","","","","","","",""
"html-keyboard-response","318","518129","0.0-14.0-0.67","611bdb0fed7c9df6dce28c3f","650c16f0f2faf8d7a0d14c09","651c1cba5a3f15cef621aa6e","null","null","<p style=""font-size: 60px; font-family: BACS"">TKDkDOk</p>","","","","","","","","",""
"html-keyboard-response","319","519139","0.0-14.0-0.68","611bdb0fed7c9df6dce28c3f","650c16f0f2faf8d7a0d14c09","651c1cba5a3f15cef621aa6e","null","null","<p style=""font-size: 60px; font-family: BACS"">LNUrJark</p>","","","","","","","","",""
"html-keyboard-response","320","520144","0.0-14.0-0.69","611bdb0fed7c9df6dce28c3f","650c16f0f2faf8d7a0d14c09","651c1cba5a3f15cef621aa6e","null","null","<p style=""font-size: 60px; font-family: BACS"">mBbKRCdc</p>","","","","","","","","",""
"html-keyboard-response","321","521158","0.0-14.0-0.70","611bdb0fed7c9df6dce28c3f","650c16f0f2faf8d7a0d14c09","651c1cba5a3f15cef621aa6e","null","null","<p style=""font-size: 60px; font-family: BACS"">lhCTCDOk</p>","","","","","","","","",""
"html-keyboard-response","322","522169","0.0-14.0-0.71","611bdb0fed7c9df6dce28c3f","650c16f0f2faf8d7a0d14c09","651c1cba5a3f15cef621aa6e","null","null","<p style=""font-size: 60px; font-family: BACS"">JmvmOark</p>","","","","","","","","",""
"html-keyboard-response","323","523175","0.0-14.0-0.72","611bdb0fed7c9df6dce28c3f","650c16f0f2faf8d7a0d14c09","651c1cba5a3f15cef621aa6e","null","null","<p style=""font-size: 60px; font-family: BACS"">LNUrJuda</p>","","","","","","","","",""
"html-keyboard-response","324","524183","0.0-14.0-0.73","611bdb0fed7c9df6dce28c3f","650c16f0f2faf8d7a0d14c09","651c1cba5a3f15cef621aa6e","null","null","<p style=""font-size: 60px; font-family: BACS"">AJLrUdvY</p>","","","","","","","","",""
"html-keyboard-response","325","525197","0.0-14.0-0.74","611bdb0fed7c9df6dce28c3f","650c16f0f2faf8d7a0d14c09","651c1cba5a3f15cef621aa6e","null","null","<p style=""font-size: 60px; font-family: BACS"">EdBbAkd</p>","","","","","","","","",""
"html-keyboard-response","326","526200","0.0-14.0-0.75","611bdb0fed7c9df6dce28c3f","650c16f0f2faf8d7a0d14c09","651c1cba5a3f15cef621aa6e","null","null","<p style=""font-size: 60px; font-family: BACS"">LNUrJUdvY</p>","","","","","","","","",""
"html-keyboard-response","327","527222","0.0-14.0-0.76","611bdb0fed7c9df6dce28c3f","650c16f0f2faf8d7a0d14c09","651c1cba5a3f15cef621aa6e","null","null","<p style=""font-size: 60px; font-family: BACS"">ubALmAOUl</p>","","","","","","","","",""
"html-keyboard-response","328","528232","0.0-14.0-0.77","611bdb0fed7c9df6dce28c3f","650c16f0f2faf8d7a0d14c09","651c1cba5a3f15cef621aa6e","null","null","<p style=""font-size: 60px; font-family: BACS"">EdBbRCdc</p>","","","","","","","","",""
"html-keyboard-response","329","529242","0.0-14.0-0.78","611bdb0fed7c9df6dce28c3f","650c16f0f2faf8d7a0d14c09","651c1cba5a3f15cef621aa6e","null","null","<p style=""font-size: 60px; font-family: BACS"">mBbKDlDT</p>","","","","","","","","",""
"html-keyboard-response","330","530246","0.0-14.0-0.79","611bdb0fed7c9df6dce28c3f","650c16f0f2faf8d7a0d14c09","651c1cba5a3f15cef621aa6e","null","null","<p style=""font-size: 60px; font-family: BACS"">TKDkAkd</p>","","","","","","","","",""
"html-keyboard-response","331","549826","0.0-15.0","611bdb0fed7c9df6dce28c3f","650c16f0f2faf8d7a0d14c09","651c1cba5a3f15cef621aa6e","19580"," ","<p>Great, you've seen the fourth block of words. You may now take a short break.</p>
      <p>Press the spacebar when you're ready to continue.</p>","","","","","","","","",""
"html-keyboard-response","332","550836","0.0-16.0-0.0","611bdb0fed7c9df6dce28c3f","650c16f0f2faf8d7a0d14c09","651c1cba5a3f15cef621aa6e","null","null","<p style=""font-size: 60px; font-family: BACS"">AJLrark</p>","","","","","","","","",""
"html-keyboard-response","333","551845","0.0-16.0-0.1","611bdb0fed7c9df6dce28c3f","650c16f0f2faf8d7a0d14c09","651c1cba5a3f15cef621aa6e","null","null","<p style=""font-size: 60px; font-family: BACS"">AJLrark</p>","","","","","","","","",""
"html-keyboard-response","334","552851","0.0-16.0-0.2","611bdb0fed7c9df6dce28c3f","650c16f0f2faf8d7a0d14c09","651c1cba5a3f15cef621aa6e","null","null","<p style=""font-size: 60px; font-family: BACS"">AJLrark</p>","","","","","","","","",""
"html-keyboard-response","335","553861","0.0-16.0-0.3","611bdb0fed7c9df6dce28c3f","650c16f0f2faf8d7a0d14c09","651c1cba5a3f15cef621aa6e","null","null","<p style=""font-size: 60px; font-family: BACS"">AJLrark</p>","","","","","","","","",""
"html-keyboard-response","336","554863","0.0-16.0-0.4","611bdb0fed7c9df6dce28c3f","650c16f0f2faf8d7a0d14c09","651c1cba5a3f15cef621aa6e","null","null","<p style=""font-size: 60px; font-family: BACS"">AJLrark</p>","","","","","","","","",""
"html-keyboard-response","337","555872","0.0-16.0-0.5","611bdb0fed7c9df6dce28c3f","650c16f0f2faf8d7a0d14c09","651c1cba5a3f15cef621aa6e","null","null","<p style=""font-size: 60px; font-family: BACS"">AJLrark</p>","","","","","","","","",""
"html-keyboard-response","338","556889","0.0-16.0-0.6","611bdb0fed7c9df6dce28c3f","650c16f0f2faf8d7a0d14c09","651c1cba5a3f15cef621aa6e","null","null","<p style=""font-size: 60px; font-family: BACS"">AJLrark</p>","","","","","","","","",""
"html-keyboard-response","339","557903","0.0-16.0-0.7","611bdb0fed7c9df6dce28c3f","650c16f0f2faf8d7a0d14c09","651c1cba5a3f15cef621aa6e","null","null","<p style=""font-size: 60px; font-family: BACS"">AJLrark</p>","","","","","","","","",""
"html-keyboard-response","340","558914","0.0-16.0-0.8","611bdb0fed7c9df6dce28c3f","650c16f0f2faf8d7a0d14c09","651c1cba5a3f15cef621aa6e","null","null","<p style=""font-size: 60px; font-family: BACS"">AJLrark</p>","","","","","","","","",""
"html-keyboard-response","341","559915","0.0-16.0-0.9","611bdb0fed7c9df6dce28c3f","650c16f0f2faf8d7a0d14c09","651c1cba5a3f15cef621aa6e","null","null","<p style=""font-size: 60px; font-family: BACS"">AJLrark</p>","","","","","","","","",""
"html-keyboard-response","342","560930","0.0-16.0-0.10","611bdb0fed7c9df6dce28c3f","650c16f0f2faf8d7a0d14c09","651c1cba5a3f15cef621aa6e","null","null","<p style=""font-size: 60px; font-family: BACS"">AJLrark</p>","","","","","","","","",""
"html-keyboard-response","343","561939","0.0-16.0-0.11","611bdb0fed7c9df6dce28c3f","650c16f0f2faf8d7a0d14c09","651c1cba5a3f15cef621aa6e","null","null","<p style=""font-size: 60px; font-family: BACS"">AJLrark</p>","","","","","","","","",""
"html-keyboard-response","344","562948","0.0-16.0-0.12","611bdb0fed7c9df6dce28c3f","650c16f0f2faf8d7a0d14c09","651c1cba5a3f15cef621aa6e","null","null","<p style=""font-size: 60px; font-family: BACS"">AJLrark</p>","","","","","","","","",""
"html-keyboard-response","345","563959","0.0-16.0-0.13","611bdb0fed7c9df6dce28c3f","650c16f0f2faf8d7a0d14c09","651c1cba5a3f15cef621aa6e","null","null","<p style=""font-size: 60px; font-family: BACS"">AJLrark</p>","","","","","","","","",""
"html-keyboard-response","346","564975","0.0-16.0-0.14","611bdb0fed7c9df6dce28c3f","650c16f0f2faf8d7a0d14c09","651c1cba5a3f15cef621aa6e","null","null","<p style=""font-size: 60px; font-family: BACS"">AJLrark</p>","","","","","","","","",""
"html-keyboard-response","347","565980","0.0-16.0-0.15","611bdb0fed7c9df6dce28c3f","650c16f0f2faf8d7a0d14c09","651c1cba5a3f15cef621aa6e","null","null","<p style=""font-size: 60px; font-family: BACS"">AJLrark</p>","","","","","","","","",""
"html-keyboard-response","348","566992","0.0-16.0-0.16","611bdb0fed7c9df6dce28c3f","650c16f0f2faf8d7a0d14c09","651c1cba5a3f15cef621aa6e","null","null","<p style=""font-size: 60px; font-family: BACS"">AJLrark</p>","","","","","","","","",""
"html-keyboard-response","349","568000","0.0-16.0-0.17","611bdb0fed7c9df6dce28c3f","650c16f0f2faf8d7a0d14c09","651c1cba5a3f15cef621aa6e","null","null","<p style=""font-size: 60px; font-family: BACS"">AJLrark</p>","","","","","","","","",""
"html-keyboard-response","350","569012","0.0-16.0-0.18","611bdb0fed7c9df6dce28c3f","650c16f0f2faf8d7a0d14c09","651c1cba5a3f15cef621aa6e","null","null","<p style=""font-size: 60px; font-family: BACS"">AJLrark</p>","","","","","","","","",""
"html-keyboard-response","351","570016","0.0-16.0-0.19","611bdb0fed7c9df6dce28c3f","650c16f0f2faf8d7a0d14c09","651c1cba5a3f15cef621aa6e","null","null","<p style=""font-size: 60px; font-family: BACS"">AJLrark</p>","","","","","","","","",""
"html-keyboard-response","352","571025","0.0-16.0-0.20","611bdb0fed7c9df6dce28c3f","650c16f0f2faf8d7a0d14c09","651c1cba5a3f15cef621aa6e","null","null","<p style=""font-size: 60px; font-family: BACS"">AJLrark</p>","","","","","","","","",""
"html-keyboard-response","353","572037","0.0-16.0-0.21","611bdb0fed7c9df6dce28c3f","650c16f0f2faf8d7a0d14c09","651c1cba5a3f15cef621aa6e","null","null","<p style=""font-size: 60px; font-family: BACS"">AJLrark</p>","","","","","","","","",""
"html-keyboard-response","354","573042","0.0-16.0-0.22","611bdb0fed7c9df6dce28c3f","650c16f0f2faf8d7a0d14c09","651c1cba5a3f15cef621aa6e","null","null","<p style=""font-size: 60px; font-family: BACS"">AJLrark</p>","","","","","","","","",""
"html-keyboard-response","355","574045","0.0-16.0-0.23","611bdb0fed7c9df6dce28c3f","650c16f0f2faf8d7a0d14c09","651c1cba5a3f15cef621aa6e","null","null","<p style=""font-size: 60px; font-family: BACS"">AJLrark</p>","","","","","","","","",""
"html-keyboard-response","356","575059","0.0-16.0-0.24","611bdb0fed7c9df6dce28c3f","650c16f0f2faf8d7a0d14c09","651c1cba5a3f15cef621aa6e","null","null","<p style=""font-size: 60px; font-family: BACS"">AJLrark</p>","","","","","","","","",""
"html-keyboard-response","357","576068","0.0-16.0-0.25","611bdb0fed7c9df6dce28c3f","650c16f0f2faf8d7a0d14c09","651c1cba5a3f15cef621aa6e","null","null","<p style=""font-size: 60px; font-family: BACS"">AJLrark</p>","","","","","","","","",""
"html-keyboard-response","358","577089","0.0-16.0-0.26","611bdb0fed7c9df6dce28c3f","650c16f0f2faf8d7a0d14c09","651c1cba5a3f15cef621aa6e","null","null","<p style=""font-size: 60px; font-family: BACS"">AJLrark</p>","","","","","","","","",""
"html-keyboard-response","359","578103","0.0-16.0-0.27","611bdb0fed7c9df6dce28c3f","650c16f0f2faf8d7a0d14c09","651c1cba5a3f15cef621aa6e","null","null","<p style=""font-size: 60px; font-family: BACS"">AJLrark</p>","","","","","","","","",""
"html-keyboard-response","360","579111","0.0-16.0-0.28","611bdb0fed7c9df6dce28c3f","650c16f0f2faf8d7a0d14c09","651c1cba5a3f15cef621aa6e","null","null","<p style=""font-size: 60px; font-family: BACS"">AJLrark</p>","","","","","","","","",""
"html-keyboard-response","361","580121","0.0-16.0-0.29","611bdb0fed7c9df6dce28c3f","650c16f0f2faf8d7a0d14c09","651c1cba5a3f15cef621aa6e","null","null","<p style=""font-size: 60px; font-family: BACS"">AJLrark</p>","","","","","","","","",""
"html-keyboard-response","362","581137","0.0-16.0-0.30","611bdb0fed7c9df6dce28c3f","650c16f0f2faf8d7a0d14c09","651c1cba5a3f15cef621aa6e","null","null","<p style=""font-size: 60px; font-family: BACS"">AJLrark</p>","","","","","","","","",""
"html-keyboard-response","363","582145","0.0-16.0-0.31","611bdb0fed7c9df6dce28c3f","650c16f0f2faf8d7a0d14c09","651c1cba5a3f15cef621aa6e","null","null","<p style=""font-size: 60px; font-family: BACS"">AJLrark</p>","","","","","","","","",""
"html-keyboard-response","364","583161","0.0-16.0-0.32","611bdb0fed7c9df6dce28c3f","650c16f0f2faf8d7a0d14c09","651c1cba5a3f15cef621aa6e","null","null","<p style=""font-size: 60px; font-family: BACS"">AJLrark</p>","","","","","","","","",""
"html-keyboard-response","365","584167","0.0-16.0-0.33","611bdb0fed7c9df6dce28c3f","650c16f0f2faf8d7a0d14c09","651c1cba5a3f15cef621aa6e","null","null","<p style=""font-size: 60px; font-family: BACS"">AJLrark</p>","","","","","","","","",""
"html-keyboard-response","366","585180","0.0-16.0-0.34","611bdb0fed7c9df6dce28c3f","650c16f0f2faf8d7a0d14c09","651c1cba5a3f15cef621aa6e","null","null","<p style=""font-size: 60px; font-family: BACS"">AJLrark</p>","","","","","","","","",""
"html-keyboard-response","367","586181","0.0-16.0-0.35","611bdb0fed7c9df6dce28c3f","650c16f0f2faf8d7a0d14c09","651c1cba5a3f15cef621aa6e","null","null","<p style=""font-size: 60px; font-family: BACS"">AJLrark</p>","","","","","","","","",""
"html-keyboard-response","368","587188","0.0-16.0-0.36","611bdb0fed7c9df6dce28c3f","650c16f0f2faf8d7a0d14c09","651c1cba5a3f15cef621aa6e","null","null","<p style=""font-size: 60px; font-family: BACS"">AJLrark</p>","","","","","","","","",""
"html-keyboard-response","369","588203","0.0-16.0-0.37","611bdb0fed7c9df6dce28c3f","650c16f0f2faf8d7a0d14c09","651c1cba5a3f15cef621aa6e","null","null","<p style=""font-size: 60px; font-family: BACS"">AJLrark</p>","","","","","","","","",""
"html-keyboard-response","370","589219","0.0-16.0-0.38","611bdb0fed7c9df6dce28c3f","650c16f0f2faf8d7a0d14c09","651c1cba5a3f15cef621aa6e","null","null","<p style=""font-size: 60px; font-family: BACS"">AJLrark</p>","","","","","","","","",""
"html-keyboard-response","371","590223","0.0-16.0-0.39","611bdb0fed7c9df6dce28c3f","650c16f0f2faf8d7a0d14c09","651c1cba5a3f15cef621aa6e","null","null","<p style=""font-size: 60px; font-family: BACS"">AJLrark</p>","","","","","","","","",""
"html-keyboard-response","372","591239","0.0-16.0-0.40","611bdb0fed7c9df6dce28c3f","650c16f0f2faf8d7a0d14c09","651c1cba5a3f15cef621aa6e","null","null","<p style=""font-size: 60px; font-family: BACS"">AJLrark</p>","","","","","","","","",""
"html-keyboard-response","373","592251","0.0-16.0-0.41","611bdb0fed7c9df6dce28c3f","650c16f0f2faf8d7a0d14c09","651c1cba5a3f15cef621aa6e","null","null","<p style=""font-size: 60px; font-family: BACS"">AJLrark</p>","","","","","","","","",""
"html-keyboard-response","374","593259","0.0-16.0-0.42","611bdb0fed7c9df6dce28c3f","650c16f0f2faf8d7a0d14c09","651c1cba5a3f15cef621aa6e","null","null","<p style=""font-size: 60px; font-family: BACS"">AJLrark</p>","","","","","","","","",""
"html-keyboard-response","375","594275","0.0-16.0-0.43","611bdb0fed7c9df6dce28c3f","650c16f0f2faf8d7a0d14c09","651c1cba5a3f15cef621aa6e","null","null","<p style=""font-size: 60px; font-family: BACS"">AJLrark</p>","","","","","","","","",""
"html-keyboard-response","376","595287","0.0-16.0-0.44","611bdb0fed7c9df6dce28c3f","650c16f0f2faf8d7a0d14c09","651c1cba5a3f15cef621aa6e","null","null","<p style=""font-size: 60px; font-family: BACS"">AJLrark</p>","","","","","","","","",""
"html-keyboard-response","377","596300","0.0-16.0-0.45","611bdb0fed7c9df6dce28c3f","650c16f0f2faf8d7a0d14c09","651c1cba5a3f15cef621aa6e","null","null","<p style=""font-size: 60px; font-family: BACS"">AJLrark</p>","","","","","","","","",""
"html-keyboard-response","378","597316","0.0-16.0-0.46","611bdb0fed7c9df6dce28c3f","650c16f0f2faf8d7a0d14c09","651c1cba5a3f15cef621aa6e","null","null","<p style=""font-size: 60px; font-family: BACS"">AJLrark</p>","","","","","","","","",""
"html-keyboard-response","379","598324","0.0-16.0-0.47","611bdb0fed7c9df6dce28c3f","650c16f0f2faf8d7a0d14c09","651c1cba5a3f15cef621aa6e","null","null","<p style=""font-size: 60px; font-family: BACS"">AJLrark</p>","","","","","","","","",""
"html-keyboard-response","380","599327","0.0-16.0-0.48","611bdb0fed7c9df6dce28c3f","650c16f0f2faf8d7a0d14c09","651c1cba5a3f15cef621aa6e","null","null","<p style=""font-size: 60px; font-family: BACS"">AJLrark</p>","","","","","","","","",""
"html-keyboard-response","381","600341","0.0-16.0-0.49","611bdb0fed7c9df6dce28c3f","650c16f0f2faf8d7a0d14c09","651c1cba5a3f15cef621aa6e","null","null","<p style=""font-size: 60px; font-family: BACS"">AJLrark</p>","","","","","","","","",""
"html-keyboard-response","382","601348","0.0-16.0-0.50","611bdb0fed7c9df6dce28c3f","650c16f0f2faf8d7a0d14c09","651c1cba5a3f15cef621aa6e","null","null","<p style=""font-size: 60px; font-family: BACS"">AJLrark</p>","","","","","","","","",""
"html-keyboard-response","383","602354","0.0-16.0-0.51","611bdb0fed7c9df6dce28c3f","650c16f0f2faf8d7a0d14c09","651c1cba5a3f15cef621aa6e","null","null","<p style=""font-size: 60px; font-family: BACS"">AJLrark</p>","","","","","","","","",""
"html-keyboard-response","384","603358","0.0-16.0-0.52","611bdb0fed7c9df6dce28c3f","650c16f0f2faf8d7a0d14c09","651c1cba5a3f15cef621aa6e","null","null","<p style=""font-size: 60px; font-family: BACS"">AJLrark</p>","","","","","","","","",""
"html-keyboard-response","385","604372","0.0-16.0-0.53","611bdb0fed7c9df6dce28c3f","650c16f0f2faf8d7a0d14c09","651c1cba5a3f15cef621aa6e","null","null","<p style=""font-size: 60px; font-family: BACS"">AJLrark</p>","","","","","","","","",""
"html-keyboard-response","386","605374","0.0-16.0-0.54","611bdb0fed7c9df6dce28c3f","650c16f0f2faf8d7a0d14c09","651c1cba5a3f15cef621aa6e","null","null","<p style=""font-size: 60px; font-family: BACS"">AJLrark</p>","","","","","","","","",""
"html-keyboard-response","387","606376","0.0-16.0-0.55","611bdb0fed7c9df6dce28c3f","650c16f0f2faf8d7a0d14c09","651c1cba5a3f15cef621aa6e","null","null","<p style=""font-size: 60px; font-family: BACS"">AJLrark</p>","","","","","","","","",""
"html-keyboard-response","388","607386","0.0-16.0-0.56","611bdb0fed7c9df6dce28c3f","650c16f0f2faf8d7a0d14c09","651c1cba5a3f15cef621aa6e","null","null","<p style=""font-size: 60px; font-family: BACS"">AJLrark</p>","","","","","","","","",""
"html-keyboard-response","389","608394","0.0-16.0-0.57","611bdb0fed7c9df6dce28c3f","650c16f0f2faf8d7a0d14c09","651c1cba5a3f15cef621aa6e","null","null","<p style=""font-size: 60px; font-family: BACS"">AJLrark</p>","","","","","","","","",""
"html-keyboard-response","390","609409","0.0-16.0-0.58","611bdb0fed7c9df6dce28c3f","650c16f0f2faf8d7a0d14c09","651c1cba5a3f15cef621aa6e","null","null","<p style=""font-size: 60px; font-family: BACS"">AJLrark</p>","","","","","","","","",""
"html-keyboard-response","391","610426","0.0-16.0-0.59","611bdb0fed7c9df6dce28c3f","650c16f0f2faf8d7a0d14c09","651c1cba5a3f15cef621aa6e","null","null","<p style=""font-size: 60px; font-family: BACS"">AJLrark</p>","","","","","","","","",""
"html-keyboard-response","392","611435","0.0-16.0-0.60","611bdb0fed7c9df6dce28c3f","650c16f0f2faf8d7a0d14c09","651c1cba5a3f15cef621aa6e","null","null","<p style=""font-size: 60px; font-family: BACS"">AJLrark</p>","","","","","","","","",""
"html-keyboard-response","393","612440","0.0-16.0-0.61","611bdb0fed7c9df6dce28c3f","650c16f0f2faf8d7a0d14c09","651c1cba5a3f15cef621aa6e","null","null","<p style=""font-size: 60px; font-family: BACS"">AJLrark</p>","","","","","","","","",""
"html-keyboard-response","394","613446","0.0-16.0-0.62","611bdb0fed7c9df6dce28c3f","650c16f0f2faf8d7a0d14c09","651c1cba5a3f15cef621aa6e","null","null","<p style=""font-size: 60px; font-family: BACS"">AJLrark</p>","","","","","","","","",""
"html-keyboard-response","395","614457","0.0-16.0-0.63","611bdb0fed7c9df6dce28c3f","650c16f0f2faf8d7a0d14c09","651c1cba5a3f15cef621aa6e","null","null","<p style=""font-size: 60px; font-family: BACS"">AJLrark</p>","","","","","","","","",""
"html-keyboard-response","396","615462","0.0-16.0-0.64","611bdb0fed7c9df6dce28c3f","650c16f0f2faf8d7a0d14c09","651c1cba5a3f15cef621aa6e","null","null","<p style=""font-size: 60px; font-family: BACS"">AJLrark</p>","","","","","","","","",""
"html-keyboard-response","397","616468","0.0-16.0-0.65","611bdb0fed7c9df6dce28c3f","650c16f0f2faf8d7a0d14c09","651c1cba5a3f15cef621aa6e","null","null","<p style=""font-size: 60px; font-family: BACS"">AJLrark</p>","","","","","","","","",""
"html-keyboard-response","398","617474","0.0-16.0-0.66","611bdb0fed7c9df6dce28c3f","650c16f0f2faf8d7a0d14c09","651c1cba5a3f15cef621aa6e","null","null","<p style=""font-size: 60px; font-family: BACS"">AJLrark</p>","","","","","","","","",""
"html-keyboard-response","399","618481","0.0-16.0-0.67","611bdb0fed7c9df6dce28c3f","650c16f0f2faf8d7a0d14c09","651c1cba5a3f15cef621aa6e","null","null","<p style=""font-size: 60px; font-family: BACS"">AJLrark</p>","","","","","","","","",""
"html-keyboard-response","400","619491","0.0-16.0-0.68","611bdb0fed7c9df6dce28c3f","650c16f0f2faf8d7a0d14c09","651c1cba5a3f15cef621aa6e","null","null","<p style=""font-size: 60px; font-family: BACS"">AJLrark</p>","","","","","","","","",""
