"trial_type","trial_index","time_elapsed","internal_node_id","subject_id","study_id","session_id","rt","response","stimulus","success","item","task","correct_response","testing_condition","correct","target","confound","name"
"pavlovia","0","2140","0.0-0.0","615f371e6688c87e53e7acf5","650c16f0f2faf8d7a0d14c09","651c1da3efd0a9a358976884","","","","","","","","","","","",""
"survey-html-form","1","25263","0.0-1.0","615f371e6688c87e53e7acf5","650c16f0f2faf8d7a0d14c09","651c1da3efd0a9a358976884","23122","{""ID"":""615f371e6688c87e53e7acf5""}","","","","","","","","","",""
"html-keyboard-response","2","34020","0.0-2.0","615f371e6688c87e53e7acf5","650c16f0f2faf8d7a0d14c09","651c1da3efd0a9a358976884","8755"," ","<p style=""font-size: 15px;"">Before beginning, we ask that you read the consent information and confirm your agreement to participate in the experiment.</p>
      <p style=""font-size: 15px;""> We ask that you remember that this is a research project and that your participation is entirely voluntary. You can stop your participation at any time, without needing to provide any explanation. The study we're asking you to participate in aims at examining how readers process written words. You will be engaged in a session of apprximately 20 minutes, followed by a brief questionnaire. You will have the opportunity to take a few breaks during the experiment. You will be paid £4 for your participation, corresponding to a rate of £8/hour. While this experiment looks at cognitive faculties, this experiment doesn't constitute clinical proof of eventual pathologies.</p>
      <p style=""font-size: 15px;"">All of the information collected thanks to yours and others' participation will be held in a secure password-protected server, and will not be shared with anyone not authorised to view it. Your personal information will be kept with an arbitrary participant ID. Thanks to this data anonymity process, any researcher analysing the data won't be able to track the information back to a specific participant. Therefore, this process will make identifying you impossibile, even when results from the study will be published in scientific reviews, presented at congresses, or at any other public forum. More generally, the collected data will be treated in accordance with the laws on privacy and conformity to the Legislative Degree n. 196 ""Code regarding the protection of personal data"" of the 30th of June 2003 and to the European Regulation 2016/670 (General Data Protection Regulation - GDPR). The Data Protection Officer is Avv. Valentina Carollo, who can be contacted at the following email addresses: <a href=""mailto:dpo@sissa.it"">dpo@sissa.it</a> or <a href=""mailto:rpd@sissa.it"">rpd@sissa.it</a> - PEC: <a href=""mailto:protocollo@pec.sissa.it"">protocollo@pec.sissa.it</a>.</p>
      <p style=""font-size: 15px;""> Before expressing your consent to participate, we would like to remind you again that in case you need explanations on any aspect of the experimental procedure, the researcher is at your disposition (<a href=""mailto:aliebelt@sissa.it"">aliebelt@sissa.it</a>, <a href=""mailto:davide.crepaldi@sissa.it"">davide.crepaldi@sissa.it</a>).</p>
      <p style=""font-size: 15px;"">If you would like to download the informed consent form, you can do so here: <a href=""BASL-Informed_Consent.pdf"" download>informed consent form</a>.</p>
      <p style=""font-size: 15px;"">We ask that you press the spacebar to proceed to the consent section.</p>","","","","","","","","",""
"survey-html-form","3","234577","0.0-3.0","615f371e6688c87e53e7acf5","650c16f0f2faf8d7a0d14c09","651c1da3efd0a9a358976884","200555","{""consent1"":""YES"",""consent2"":""YES"",""consent3"":""YES"",""consent4"":""YES"",""consent5"":""YES"",""consent6"":""YES""}","","","","","","","","","",""
"fullscreen","4","281278","0.0-4.0","615f371e6688c87e53e7acf5","650c16f0f2faf8d7a0d14c09","651c1da3efd0a9a358976884","","","","true","","","","","","","",""
"html-keyboard-response","5","395602","0.0-5.0","615f371e6688c87e53e7acf5","650c16f0f2faf8d7a0d14c09","651c1da3efd0a9a358976884","114324"," ","<p>Welcome, and thank you very much for your time!</p>
      <p>In this experiment, you'll be a language expert who's been asked to take a look at words that Earth has received in its first communication with aliens. Your task, in this first part of the experiment, is to pay close attention to the words you'll be shown; later, world leaders will ask you questions on what you saw. The words will be shown to you quite quickly; it seems that the aliens were in a hurry :-)</p>
      <p>Press the spacebar to continue.<p>","","","","","","","","",""
"html-keyboard-response","6","395654","0.0-6.0","615f371e6688c87e53e7acf5","650c16f0f2faf8d7a0d14c09","651c1da3efd0a9a358976884","null","null","<p style=""font-size: 120px; font-family: BACS""> </p>","","","","","","","","",""
"html-keyboard-response","7","398934","0.0-7.0","615f371e6688c87e53e7acf5","650c16f0f2faf8d7a0d14c09","651c1da3efd0a9a358976884","3279"," ","<p>Here is an example of the words you'll see:</p>
      <img src='esempio.png' height='400px'>
      <p>When you're ready to begin, press the spacebar.</p></div>","","","","","","","","",""
"html-keyboard-response","8","399938","0.0-8.0-0.0","615f371e6688c87e53e7acf5","650c16f0f2faf8d7a0d14c09","651c1da3efd0a9a358976884","null","null","<p style=""font-size: 60px; font-family: BACS"">ECtbDlMck</p>","","","","","","","","",""
"html-keyboard-response","9","400953","0.0-8.0-0.1","615f371e6688c87e53e7acf5","650c16f0f2faf8d7a0d14c09","651c1da3efd0a9a358976884","null","null","<p style=""font-size: 60px; font-family: BACS"">NJZlUZu</p>","","","","","","","","",""
"html-keyboard-response","10","401969","0.0-8.0-0.2","615f371e6688c87e53e7acf5","650c16f0f2faf8d7a0d14c09","651c1da3efd0a9a358976884","null","null","<p style=""font-size: 60px; font-family: BACS"">McMDmhc</p>","","","","","","","","",""
"html-keyboard-response","11","402986","0.0-8.0-0.3","615f371e6688c87e53e7acf5","650c16f0f2faf8d7a0d14c09","651c1da3efd0a9a358976884","null","null","<p style=""font-size: 60px; font-family: BACS"">aYQmrba</p>","","","","","","","","",""
"html-keyboard-response","12","403987","0.0-8.0-0.4","615f371e6688c87e53e7acf5","650c16f0f2faf8d7a0d14c09","651c1da3efd0a9a358976884","null","null","<p style=""font-size: 60px; font-family: BACS"">KBKBElMck</p>","","","","","","","","",""
"html-keyboard-response","13","405002","0.0-8.0-0.5","615f371e6688c87e53e7acf5","650c16f0f2faf8d7a0d14c09","651c1da3efd0a9a358976884","null","null","<p style=""font-size: 60px; font-family: BACS"">lZcurba</p>","","","","","","","","",""
"html-keyboard-response","14","406018","0.0-8.0-0.6","615f371e6688c87e53e7acf5","650c16f0f2faf8d7a0d14c09","651c1da3efd0a9a358976884","null","null","<p style=""font-size: 60px; font-family: BACS"">aYaNUZu</p>","","","","","","","","",""
"html-keyboard-response","15","407020","0.0-8.0-0.7","615f371e6688c87e53e7acf5","650c16f0f2faf8d7a0d14c09","651c1da3efd0a9a358976884","null","null","<p style=""font-size: 60px; font-family: BACS"">YObATRK</p>","","","","","","","","",""
"html-keyboard-response","16","408035","0.0-8.0-0.8","615f371e6688c87e53e7acf5","650c16f0f2faf8d7a0d14c09","651c1da3efd0a9a358976884","null","null","<p style=""font-size: 60px; font-family: BACS"">mbZlUZu</p>","","","","","","","","",""
"html-keyboard-response","17","409037","0.0-8.0-0.9","615f371e6688c87e53e7acf5","650c16f0f2faf8d7a0d14c09","651c1da3efd0a9a358976884","null","null","<p style=""font-size: 60px; font-family: BACS"">KABATRkY</p>","","","","","","","","",""
"html-keyboard-response","18","410051","0.0-8.0-0.10","615f371e6688c87e53e7acf5","650c16f0f2faf8d7a0d14c09","651c1da3efd0a9a358976884","null","null","<p style=""font-size: 60px; font-family: BACS"">GQrcQGb</p>","","","","","","","","",""
"html-keyboard-response","19","411053","0.0-8.0-0.11","615f371e6688c87e53e7acf5","650c16f0f2faf8d7a0d14c09","651c1da3efd0a9a358976884","null","null","<p style=""font-size: 60px; font-family: BACS"">hCktlMck</p>","","","","","","","","",""
"html-keyboard-response","20","412069","0.0-8.0-0.12","615f371e6688c87e53e7acf5","650c16f0f2faf8d7a0d14c09","651c1da3efd0a9a358976884","null","null","<p style=""font-size: 60px; font-family: BACS"">aYQmQGb</p>","","","","","","","","",""
"html-keyboard-response","21","413085","0.0-8.0-0.13","615f371e6688c87e53e7acf5","650c16f0f2faf8d7a0d14c09","651c1da3efd0a9a358976884","null","null","<p style=""font-size: 60px; font-family: BACS"">uQuZcJud</p>","","","","","","","","",""
"html-keyboard-response","22","414101","0.0-8.0-0.14","615f371e6688c87e53e7acf5","650c16f0f2faf8d7a0d14c09","651c1da3efd0a9a358976884","null","null","<p style=""font-size: 60px; font-family: BACS"">ECtbDTRkY</p>","","","","","","","","",""
"html-keyboard-response","23","415102","0.0-8.0-0.15","615f371e6688c87e53e7acf5","650c16f0f2faf8d7a0d14c09","651c1da3efd0a9a358976884","null","null","<p style=""font-size: 60px; font-family: BACS"">mbZlJud</p>","","","","","","","","",""
"html-keyboard-response","24","416118","0.0-8.0-0.16","615f371e6688c87e53e7acf5","650c16f0f2faf8d7a0d14c09","651c1da3efd0a9a358976884","null","null","<p style=""font-size: 60px; font-family: BACS"">lZcuQGb</p>","","","","","","","","",""
"html-keyboard-response","25","417119","0.0-8.0-0.17","615f371e6688c87e53e7acf5","650c16f0f2faf8d7a0d14c09","651c1da3efd0a9a358976884","null","null","<p style=""font-size: 60px; font-family: BACS"">NJZlLkNc</p>","","","","","","","","",""
"html-keyboard-response","26","418135","0.0-8.0-0.18","615f371e6688c87e53e7acf5","650c16f0f2faf8d7a0d14c09","651c1da3efd0a9a358976884","null","null","<p style=""font-size: 60px; font-family: BACS"">RdPtDPMd</p>","","","","","","","","",""
"html-keyboard-response","27","419136","0.0-8.0-0.19","615f371e6688c87e53e7acf5","650c16f0f2faf8d7a0d14c09","651c1da3efd0a9a358976884","null","null","<p style=""font-size: 60px; font-family: BACS"">mbZlLkNc</p>","","","","","","","","",""
"html-keyboard-response","28","420151","0.0-8.0-0.20","615f371e6688c87e53e7acf5","650c16f0f2faf8d7a0d14c09","651c1da3efd0a9a358976884","null","null","<p style=""font-size: 60px; font-family: BACS"">lZcuUZu</p>","","","","","","","","",""
"html-keyboard-response","29","421152","0.0-8.0-0.21","615f371e6688c87e53e7acf5","650c16f0f2faf8d7a0d14c09","651c1da3efd0a9a358976884","null","null","<p style=""font-size: 60px; font-family: BACS"">DBlhlMck</p>","","","","","","","","",""
"html-keyboard-response","30","422165","0.0-8.0-0.22","615f371e6688c87e53e7acf5","650c16f0f2faf8d7a0d14c09","651c1da3efd0a9a358976884","null","null","<p style=""font-size: 60px; font-family: BACS"">GQrcrba</p>","","","","","","","","",""
"html-keyboard-response","31","423181","0.0-8.0-0.23","615f371e6688c87e53e7acf5","650c16f0f2faf8d7a0d14c09","651c1da3efd0a9a358976884","null","null","<p style=""font-size: 60px; font-family: BACS"">JdGmQGb</p>","","","","","","","","",""
"html-keyboard-response","32","424184","0.0-8.0-0.24","615f371e6688c87e53e7acf5","650c16f0f2faf8d7a0d14c09","651c1da3efd0a9a358976884","null","null","<p style=""font-size: 60px; font-family: BACS"">McMDlMck</p>","","","","","","","","",""
"html-keyboard-response","33","425202","0.0-8.0-0.25","615f371e6688c87e53e7acf5","650c16f0f2faf8d7a0d14c09","651c1da3efd0a9a358976884","null","null","<p style=""font-size: 60px; font-family: BACS"">uQuZcUZu</p>","","","","","","","","",""
"html-keyboard-response","34","426217","0.0-8.0-0.26","615f371e6688c87e53e7acf5","650c16f0f2faf8d7a0d14c09","651c1da3efd0a9a358976884","null","null","<p style=""font-size: 60px; font-family: BACS"">mbZlrba</p>","","","","","","","","",""
"html-keyboard-response","35","427233","0.0-8.0-0.27","615f371e6688c87e53e7acf5","650c16f0f2faf8d7a0d14c09","651c1da3efd0a9a358976884","null","null","<p style=""font-size: 60px; font-family: BACS"">ORbkTRK</p>","","","","","","","","",""
"html-keyboard-response","36","428249","0.0-8.0-0.28","615f371e6688c87e53e7acf5","650c16f0f2faf8d7a0d14c09","651c1da3efd0a9a358976884","null","null","<p style=""font-size: 60px; font-family: BACS"">lZcuLkNc</p>","","","","","","","","",""
"html-keyboard-response","37","429251","0.0-8.0-0.29","615f371e6688c87e53e7acf5","650c16f0f2faf8d7a0d14c09","651c1da3efd0a9a358976884","null","null","<p style=""font-size: 60px; font-family: BACS"">DBlhTRkY</p>","","","","","","","","",""
"html-keyboard-response","38","430265","0.0-8.0-0.30","615f371e6688c87e53e7acf5","650c16f0f2faf8d7a0d14c09","651c1da3efd0a9a358976884","null","null","<p style=""font-size: 60px; font-family: BACS"">McMDTRK</p>","","","","","","","","",""
"html-keyboard-response","39","431267","0.0-8.0-0.31","615f371e6688c87e53e7acf5","650c16f0f2faf8d7a0d14c09","651c1da3efd0a9a358976884","null","null","<p style=""font-size: 60px; font-family: BACS"">RdPtDTRkY</p>","","","","","","","","",""
"html-keyboard-response","40","432283","0.0-8.0-0.32","615f371e6688c87e53e7acf5","650c16f0f2faf8d7a0d14c09","651c1da3efd0a9a358976884","null","null","<p style=""font-size: 60px; font-family: BACS"">GQrcUZu</p>","","","","","","","","",""
"html-keyboard-response","41","433284","0.0-8.0-0.33","615f371e6688c87e53e7acf5","650c16f0f2faf8d7a0d14c09","651c1da3efd0a9a358976884","null","null","<p style=""font-size: 60px; font-family: BACS"">aYaNLkNc</p>","","","","","","","","",""
"html-keyboard-response","42","434299","0.0-8.0-0.34","615f371e6688c87e53e7acf5","650c16f0f2faf8d7a0d14c09","651c1da3efd0a9a358976884","null","null","<p style=""font-size: 60px; font-family: BACS"">RdPtDTRK</p>","","","","","","","","",""
"html-keyboard-response","43","435299","0.0-8.0-0.35","615f371e6688c87e53e7acf5","650c16f0f2faf8d7a0d14c09","651c1da3efd0a9a358976884","null","null","<p style=""font-size: 60px; font-family: BACS"">RkmdCmhc</p>","","","","","","","","",""
"html-keyboard-response","44","436315","0.0-8.0-0.36","615f371e6688c87e53e7acf5","650c16f0f2faf8d7a0d14c09","651c1da3efd0a9a358976884","null","null","<p style=""font-size: 60px; font-family: BACS"">KABAlMck</p>","","","","","","","","",""
"html-keyboard-response","45","437331","0.0-8.0-0.37","615f371e6688c87e53e7acf5","650c16f0f2faf8d7a0d14c09","651c1da3efd0a9a358976884","null","null","<p style=""font-size: 60px; font-family: BACS"">hCktTRK</p>","","","","","","","","",""
"html-keyboard-response","46","438333","0.0-8.0-0.38","615f371e6688c87e53e7acf5","650c16f0f2faf8d7a0d14c09","651c1da3efd0a9a358976884","null","null","<p style=""font-size: 60px; font-family: BACS"">aYQmJud</p>","","","","","","","","",""
"html-keyboard-response","47","439349","0.0-8.0-0.39","615f371e6688c87e53e7acf5","650c16f0f2faf8d7a0d14c09","651c1da3efd0a9a358976884","null","null","<p style=""font-size: 60px; font-family: BACS"">YObAPMd</p>","","","","","","","","",""
"html-keyboard-response","48","440350","0.0-8.0-0.40","615f371e6688c87e53e7acf5","650c16f0f2faf8d7a0d14c09","651c1da3efd0a9a358976884","null","null","<p style=""font-size: 60px; font-family: BACS"">RkmdCTRkY</p>","","","","","","","","",""
"html-keyboard-response","49","441366","0.0-8.0-0.41","615f371e6688c87e53e7acf5","650c16f0f2faf8d7a0d14c09","651c1da3efd0a9a358976884","null","null","<p style=""font-size: 60px; font-family: BACS"">JdGmrba</p>","","","","","","","","",""
"html-keyboard-response","50","442382","0.0-8.0-0.42","615f371e6688c87e53e7acf5","650c16f0f2faf8d7a0d14c09","651c1da3efd0a9a358976884","null","null","<p style=""font-size: 60px; font-family: BACS"">YUNkZUZu</p>","","","","","","","","",""
"html-keyboard-response","51","443383","0.0-8.0-0.43","615f371e6688c87e53e7acf5","650c16f0f2faf8d7a0d14c09","651c1da3efd0a9a358976884","null","null","<p style=""font-size: 60px; font-family: BACS"">NJZlrba</p>","","","","","","","","",""
"html-keyboard-response","52","444399","0.0-8.0-0.44","615f371e6688c87e53e7acf5","650c16f0f2faf8d7a0d14c09","651c1da3efd0a9a358976884","null","null","<p style=""font-size: 60px; font-family: BACS"">YObAlMck</p>","","","","","","","","",""
"html-keyboard-response","53","445414","0.0-8.0-0.45","615f371e6688c87e53e7acf5","650c16f0f2faf8d7a0d14c09","651c1da3efd0a9a358976884","null","null","<p style=""font-size: 60px; font-family: BACS"">KBKBETRkY</p>","","","","","","","","",""
"html-keyboard-response","54","446416","0.0-8.0-0.46","615f371e6688c87e53e7acf5","650c16f0f2faf8d7a0d14c09","651c1da3efd0a9a358976884","null","null","<p style=""font-size: 60px; font-family: BACS"">NJZlJud</p>","","","","","","","","",""
"html-keyboard-response","55","447430","0.0-8.0-0.47","615f371e6688c87e53e7acf5","650c16f0f2faf8d7a0d14c09","651c1da3efd0a9a358976884","null","null","<p style=""font-size: 60px; font-family: BACS"">RdPtDmhc</p>","","","","","","","","",""
"html-keyboard-response","56","448433","0.0-8.0-0.48","615f371e6688c87e53e7acf5","650c16f0f2faf8d7a0d14c09","651c1da3efd0a9a358976884","null","null","<p style=""font-size: 60px; font-family: BACS"">aYaNJud</p>","","","","","","","","",""
"html-keyboard-response","57","449447","0.0-8.0-0.49","615f371e6688c87e53e7acf5","650c16f0f2faf8d7a0d14c09","651c1da3efd0a9a358976884","null","null","<p style=""font-size: 60px; font-family: BACS"">QbkAcQGb</p>","","","","","","","","",""
"html-keyboard-response","58","450449","0.0-8.0-0.50","615f371e6688c87e53e7acf5","650c16f0f2faf8d7a0d14c09","651c1da3efd0a9a358976884","null","null","<p style=""font-size: 60px; font-family: BACS"">ECtbDmhc</p>","","","","","","","","",""
"html-keyboard-response","59","451463","0.0-8.0-0.51","615f371e6688c87e53e7acf5","650c16f0f2faf8d7a0d14c09","651c1da3efd0a9a358976884","null","null","<p style=""font-size: 60px; font-family: BACS"">uQuZcrba</p>","","","","","","","","",""
"html-keyboard-response","60","452464","0.0-8.0-0.52","615f371e6688c87e53e7acf5","650c16f0f2faf8d7a0d14c09","651c1da3efd0a9a358976884","null","null","<p style=""font-size: 60px; font-family: BACS"">aYaNQGb</p>","","","","","","","","",""
"html-keyboard-response","61","453480","0.0-8.0-0.53","615f371e6688c87e53e7acf5","650c16f0f2faf8d7a0d14c09","651c1da3efd0a9a358976884","null","null","<p style=""font-size: 60px; font-family: BACS"">YUNkZLkNc</p>","","","","","","","","",""
"html-keyboard-response","62","454482","0.0-8.0-0.54","615f371e6688c87e53e7acf5","650c16f0f2faf8d7a0d14c09","651c1da3efd0a9a358976884","null","null","<p style=""font-size: 60px; font-family: BACS"">ORbkPMd</p>","","","","","","","","",""
"html-keyboard-response","63","455498","0.0-8.0-0.55","615f371e6688c87e53e7acf5","650c16f0f2faf8d7a0d14c09","651c1da3efd0a9a358976884","null","null","<p style=""font-size: 60px; font-family: BACS"">YObAmhc</p>","","","","","","","","",""
"html-keyboard-response","64","456515","0.0-8.0-0.56","615f371e6688c87e53e7acf5","650c16f0f2faf8d7a0d14c09","651c1da3efd0a9a358976884","null","null","<p style=""font-size: 60px; font-family: BACS"">YUNkZQGb</p>","","","","","","","","",""
"html-keyboard-response","65","457532","0.0-8.0-0.57","615f371e6688c87e53e7acf5","650c16f0f2faf8d7a0d14c09","651c1da3efd0a9a358976884","null","null","<p style=""font-size: 60px; font-family: BACS"">KBKBEmhc</p>","","","","","","","","",""
"html-keyboard-response","66","458534","0.0-8.0-0.58","615f371e6688c87e53e7acf5","650c16f0f2faf8d7a0d14c09","651c1da3efd0a9a358976884","null","null","<p style=""font-size: 60px; font-family: BACS"">JdGmJud</p>","","","","","","","","",""
"html-keyboard-response","67","459549","0.0-8.0-0.59","615f371e6688c87e53e7acf5","650c16f0f2faf8d7a0d14c09","651c1da3efd0a9a358976884","null","null","<p style=""font-size: 60px; font-family: BACS"">DBlhPMd</p>","","","","","","","","",""
"html-keyboard-response","68","460550","0.0-8.0-0.60","615f371e6688c87e53e7acf5","650c16f0f2faf8d7a0d14c09","651c1da3efd0a9a358976884","null","null","<p style=""font-size: 60px; font-family: BACS"">ORbklMck</p>","","","","","","","","",""
"html-keyboard-response","69","461566","0.0-8.0-0.61","615f371e6688c87e53e7acf5","650c16f0f2faf8d7a0d14c09","651c1da3efd0a9a358976884","null","null","<p style=""font-size: 60px; font-family: BACS"">hCktPMd</p>","","","","","","","","",""
"html-keyboard-response","70","462583","0.0-8.0-0.62","615f371e6688c87e53e7acf5","650c16f0f2faf8d7a0d14c09","651c1da3efd0a9a358976884","null","null","<p style=""font-size: 60px; font-family: BACS"">uQuZcQGb</p>","","","","","","","","",""
"html-keyboard-response","71","463599","0.0-8.0-0.63","615f371e6688c87e53e7acf5","650c16f0f2faf8d7a0d14c09","651c1da3efd0a9a358976884","null","null","<p style=""font-size: 60px; font-family: BACS"">QbkAcJud</p>","","","","","","","","",""
"html-keyboard-response","72","464615","0.0-8.0-0.64","615f371e6688c87e53e7acf5","650c16f0f2faf8d7a0d14c09","651c1da3efd0a9a358976884","null","null","<p style=""font-size: 60px; font-family: BACS"">ORbkmhc</p>","","","","","","","","",""
"html-keyboard-response","73","465631","0.0-8.0-0.65","615f371e6688c87e53e7acf5","650c16f0f2faf8d7a0d14c09","651c1da3efd0a9a358976884","null","null","<p style=""font-size: 60px; font-family: BACS"">JdGmLkNc</p>","","","","","","","","",""
"html-keyboard-response","74","466648","0.0-8.0-0.66","615f371e6688c87e53e7acf5","650c16f0f2faf8d7a0d14c09","651c1da3efd0a9a358976884","null","null","<p style=""font-size: 60px; font-family: BACS"">KABATRK</p>","","","","","","","","",""
"html-keyboard-response","75","467665","0.0-8.0-0.67","615f371e6688c87e53e7acf5","650c16f0f2faf8d7a0d14c09","651c1da3efd0a9a358976884","null","null","<p style=""font-size: 60px; font-family: BACS"">RkmdCPMd</p>","","","","","","","","",""
"html-keyboard-response","76","468681","0.0-8.0-0.68","615f371e6688c87e53e7acf5","650c16f0f2faf8d7a0d14c09","651c1da3efd0a9a358976884","null","null","<p style=""font-size: 60px; font-family: BACS"">KABAmhc</p>","","","","","","","","",""
"html-keyboard-response","77","469682","0.0-8.0-0.69","615f371e6688c87e53e7acf5","650c16f0f2faf8d7a0d14c09","651c1da3efd0a9a358976884","null","null","<p style=""font-size: 60px; font-family: BACS"">McMDTRkY</p>","","","","","","","","",""
"html-keyboard-response","78","470698","0.0-8.0-0.70","615f371e6688c87e53e7acf5","650c16f0f2faf8d7a0d14c09","651c1da3efd0a9a358976884","null","null","<p style=""font-size: 60px; font-family: BACS"">YUNkZrba</p>","","","","","","","","",""
"html-keyboard-response","79","471714","0.0-8.0-0.71","615f371e6688c87e53e7acf5","650c16f0f2faf8d7a0d14c09","651c1da3efd0a9a358976884","null","null","<p style=""font-size: 60px; font-family: BACS"">RkmdCTRK</p>","","","","","","","","",""
"html-keyboard-response","80","472715","0.0-8.0-0.72","615f371e6688c87e53e7acf5","650c16f0f2faf8d7a0d14c09","651c1da3efd0a9a358976884","null","null","<p style=""font-size: 60px; font-family: BACS"">ECtbDPMd</p>","","","","","","","","",""
"html-keyboard-response","81","473731","0.0-8.0-0.73","615f371e6688c87e53e7acf5","650c16f0f2faf8d7a0d14c09","651c1da3efd0a9a358976884","null","null","<p style=""font-size: 60px; font-family: BACS"">aYQmLkNc</p>","","","","","","","","",""
"html-keyboard-response","82","474747","0.0-8.0-0.74","615f371e6688c87e53e7acf5","650c16f0f2faf8d7a0d14c09","651c1da3efd0a9a358976884","null","null","<p style=""font-size: 60px; font-family: BACS"">KBKBEPMd</p>","","","","","","","","",""
"html-keyboard-response","83","475763","0.0-8.0-0.75","615f371e6688c87e53e7acf5","650c16f0f2faf8d7a0d14c09","651c1da3efd0a9a358976884","null","null","<p style=""font-size: 60px; font-family: BACS"">DBlhTRK</p>","","","","","","","","",""
"html-keyboard-response","84","476779","0.0-8.0-0.76","615f371e6688c87e53e7acf5","650c16f0f2faf8d7a0d14c09","651c1da3efd0a9a358976884","null","null","<p style=""font-size: 60px; font-family: BACS"">QbkAcLkNc</p>","","","","","","","","",""
"html-keyboard-response","85","477796","0.0-8.0-0.77","615f371e6688c87e53e7acf5","650c16f0f2faf8d7a0d14c09","651c1da3efd0a9a358976884","null","null","<p style=""font-size: 60px; font-family: BACS"">hCktTRkY</p>","","","","","","","","",""
"html-keyboard-response","86","478797","0.0-8.0-0.78","615f371e6688c87e53e7acf5","650c16f0f2faf8d7a0d14c09","651c1da3efd0a9a358976884","null","null","<p style=""font-size: 60px; font-family: BACS"">QbkAcUZu</p>","","","","","","","","",""
"html-keyboard-response","87","479813","0.0-8.0-0.79","615f371e6688c87e53e7acf5","650c16f0f2faf8d7a0d14c09","651c1da3efd0a9a358976884","null","null","<p style=""font-size: 60px; font-family: BACS"">GQrcJud</p>","","","","","","","","",""
"html-keyboard-response","88","493277","0.0-9.0","615f371e6688c87e53e7acf5","650c16f0f2faf8d7a0d14c09","651c1da3efd0a9a358976884","13463"," ","<p>Great, you've seen the first block of words. You may now take a short break.</p>
      <p>Press the spacebar when you're ready to continue.</p>","","","","","","","","",""
"html-keyboard-response","89","494279","0.0-10.0-0.0","615f371e6688c87e53e7acf5","650c16f0f2faf8d7a0d14c09","651c1da3efd0a9a358976884","null","null","<p style=""font-size: 60px; font-family: BACS"">uQuZcrba</p>","","","","","","","","",""
"html-keyboard-response","90","495295","0.0-10.0-0.1","615f371e6688c87e53e7acf5","650c16f0f2faf8d7a0d14c09","651c1da3efd0a9a358976884","null","null","<p style=""font-size: 60px; font-family: BACS"">RkmdCPMd</p>","","","","","","","","",""
"html-keyboard-response","91","496296","0.0-10.0-0.2","615f371e6688c87e53e7acf5","650c16f0f2faf8d7a0d14c09","651c1da3efd0a9a358976884","null","null","<p style=""font-size: 60px; font-family: BACS"">JdGmJud</p>","","","","","","","","",""
"html-keyboard-response","92","497311","0.0-10.0-0.3","615f371e6688c87e53e7acf5","650c16f0f2faf8d7a0d14c09","651c1da3efd0a9a358976884","null","null","<p style=""font-size: 60px; font-family: BACS"">ORbkTRK</p>","","","","","","","","",""
"html-keyboard-response","93","498327","0.0-10.0-0.4","615f371e6688c87e53e7acf5","650c16f0f2faf8d7a0d14c09","651c1da3efd0a9a358976884","null","null","<p style=""font-size: 60px; font-family: BACS"">McMDmhc</p>","","","","","","","","",""
"html-keyboard-response","94","499329","0.0-10.0-0.5","615f371e6688c87e53e7acf5","650c16f0f2faf8d7a0d14c09","651c1da3efd0a9a358976884","null","null","<p style=""font-size: 60px; font-family: BACS"">YUNkZrba</p>","","","","","","","","",""
"html-keyboard-response","95","500345","0.0-10.0-0.6","615f371e6688c87e53e7acf5","650c16f0f2faf8d7a0d14c09","651c1da3efd0a9a358976884","null","null","<p style=""font-size: 60px; font-family: BACS"">NJZlUZu</p>","","","","","","","","",""
"html-keyboard-response","96","501360","0.0-10.0-0.7","615f371e6688c87e53e7acf5","650c16f0f2faf8d7a0d14c09","651c1da3efd0a9a358976884","null","null","<p style=""font-size: 60px; font-family: BACS"">YObAPMd</p>","","","","","","","","",""
"html-keyboard-response","97","502361","0.0-10.0-0.8","615f371e6688c87e53e7acf5","650c16f0f2faf8d7a0d14c09","651c1da3efd0a9a358976884","null","null","<p style=""font-size: 60px; font-family: BACS"">mbZlrba</p>","","","","","","","","",""
"html-keyboard-response","98","503376","0.0-10.0-0.9","615f371e6688c87e53e7acf5","650c16f0f2faf8d7a0d14c09","651c1da3efd0a9a358976884","null","null","<p style=""font-size: 60px; font-family: BACS"">DBlhTRkY</p>","","","","","","","","",""
"html-keyboard-response","99","504378","0.0-10.0-0.10","615f371e6688c87e53e7acf5","650c16f0f2faf8d7a0d14c09","651c1da3efd0a9a358976884","null","null","<p style=""font-size: 60px; font-family: BACS"">mbZlUZu</p>","","","","","","","","",""
"html-keyboard-response","100","505393","0.0-10.0-0.11","615f371e6688c87e53e7acf5","650c16f0f2faf8d7a0d14c09","651c1da3efd0a9a358976884","null","null","<p style=""font-size: 60px; font-family: BACS"">KBKBEPMd</p>","","","","","","","","",""
"html-keyboard-response","101","506394","0.0-10.0-0.12","615f371e6688c87e53e7acf5","650c16f0f2faf8d7a0d14c09","651c1da3efd0a9a358976884","null","null","<p style=""font-size: 60px; font-family: BACS"">mbZlLkNc</p>","","","","","","","","",""
"html-keyboard-response","102","507409","0.0-10.0-0.13","615f371e6688c87e53e7acf5","650c16f0f2faf8d7a0d14c09","651c1da3efd0a9a358976884","null","null","<p style=""font-size: 60px; font-family: BACS"">YObAlMck</p>","","","","","","","","",""
"html-keyboard-response","103","508425","0.0-10.0-0.14","615f371e6688c87e53e7acf5","650c16f0f2faf8d7a0d14c09","651c1da3efd0a9a358976884","null","null","<p style=""font-size: 60px; font-family: BACS"">RdPtDPMd</p>","","","","","","","","",""
"html-keyboard-response","104","509427","0.0-10.0-0.15","615f371e6688c87e53e7acf5","650c16f0f2faf8d7a0d14c09","651c1da3efd0a9a358976884","null","null","<p style=""font-size: 60px; font-family: BACS"">DBlhTRK</p>","","","","","","","","",""
"html-keyboard-response","105","510442","0.0-10.0-0.16","615f371e6688c87e53e7acf5","650c16f0f2faf8d7a0d14c09","651c1da3efd0a9a358976884","null","null","<p style=""font-size: 60px; font-family: BACS"">RdPtDmhc</p>","","","","","","","","",""
"html-keyboard-response","106","511443","0.0-10.0-0.17","615f371e6688c87e53e7acf5","650c16f0f2faf8d7a0d14c09","651c1da3efd0a9a358976884","null","null","<p style=""font-size: 60px; font-family: BACS"">McMDTRkY</p>","","","","","","","","",""
"html-keyboard-response","107","512444","0.0-10.0-0.18","615f371e6688c87e53e7acf5","650c16f0f2faf8d7a0d14c09","651c1da3efd0a9a358976884","null","null","<p style=""font-size: 60px; font-family: BACS"">ORbklMck</p>","","","","","","","","",""
"html-keyboard-response","108","513460","0.0-10.0-0.19","615f371e6688c87e53e7acf5","650c16f0f2faf8d7a0d14c09","651c1da3efd0a9a358976884","null","null","<p style=""font-size: 60px; font-family: BACS"">JdGmrba</p>","","","","","","","","",""
"html-keyboard-response","109","514475","0.0-10.0-0.20","615f371e6688c87e53e7acf5","650c16f0f2faf8d7a0d14c09","651c1da3efd0a9a358976884","null","null","<p style=""font-size: 60px; font-family: BACS"">uQuZcUZu</p>","","","","","","","","",""
"html-keyboard-response","110","515477","0.0-10.0-0.21","615f371e6688c87e53e7acf5","650c16f0f2faf8d7a0d14c09","651c1da3efd0a9a358976884","null","null","<p style=""font-size: 60px; font-family: BACS"">aYaNLkNc</p>","","","","","","","","",""
"html-keyboard-response","111","516478","0.0-10.0-0.22","615f371e6688c87e53e7acf5","650c16f0f2faf8d7a0d14c09","651c1da3efd0a9a358976884","null","null","<p style=""font-size: 60px; font-family: BACS"">QbkAcUZu</p>","","","","","","","","",""
"html-keyboard-response","112","517493","0.0-10.0-0.23","615f371e6688c87e53e7acf5","650c16f0f2faf8d7a0d14c09","651c1da3efd0a9a358976884","null","null","<p style=""font-size: 60px; font-family: BACS"">hCktPMd</p>","","","","","","","","",""
"html-keyboard-response","113","518509","0.0-10.0-0.24","615f371e6688c87e53e7acf5","650c16f0f2faf8d7a0d14c09","651c1da3efd0a9a358976884","null","null","<p style=""font-size: 60px; font-family: BACS"">ECtbDmhc</p>","","","","","","","","",""
"html-keyboard-response","114","519510","0.0-10.0-0.25","615f371e6688c87e53e7acf5","650c16f0f2faf8d7a0d14c09","651c1da3efd0a9a358976884","null","null","<p style=""font-size: 60px; font-family: BACS"">GQrcJud</p>","","","","","","","","",""
"html-keyboard-response","115","520511","0.0-10.0-0.26","615f371e6688c87e53e7acf5","650c16f0f2faf8d7a0d14c09","651c1da3efd0a9a358976884","null","null","<p style=""font-size: 60px; font-family: BACS"">RkmdCTRK</p>","","","","","","","","",""
"html-keyboard-response","116","521525","0.0-10.0-0.27","615f371e6688c87e53e7acf5","650c16f0f2faf8d7a0d14c09","651c1da3efd0a9a358976884","null","null","<p style=""font-size: 60px; font-family: BACS"">lZcuUZu</p>","","","","","","","","",""
"html-keyboard-response","117","522527","0.0-10.0-0.28","615f371e6688c87e53e7acf5","650c16f0f2faf8d7a0d14c09","651c1da3efd0a9a358976884","null","null","<p style=""font-size: 60px; font-family: BACS"">hCktlMck</p>","","","","","","","","",""
"html-keyboard-response","118","523541","0.0-10.0-0.29","615f371e6688c87e53e7acf5","650c16f0f2faf8d7a0d14c09","651c1da3efd0a9a358976884","null","null","<p style=""font-size: 60px; font-family: BACS"">aYQmrba</p>","","","","","","","","",""
"html-keyboard-response","119","524542","0.0-10.0-0.30","615f371e6688c87e53e7acf5","650c16f0f2faf8d7a0d14c09","651c1da3efd0a9a358976884","null","null","<p style=""font-size: 60px; font-family: BACS"">KABAmhc</p>","","","","","","","","",""
"html-keyboard-response","120","525558","0.0-10.0-0.31","615f371e6688c87e53e7acf5","650c16f0f2faf8d7a0d14c09","651c1da3efd0a9a358976884","null","null","<p style=""font-size: 60px; font-family: BACS"">mbZlJud</p>","","","","","","","","",""
"html-keyboard-response","121","526559","0.0-10.0-0.32","615f371e6688c87e53e7acf5","650c16f0f2faf8d7a0d14c09","651c1da3efd0a9a358976884","null","null","<p style=""font-size: 60px; font-family: BACS"">YUNkZUZu</p>","","","","","","","","",""
"html-keyboard-response","122","527574","0.0-10.0-0.33","615f371e6688c87e53e7acf5","650c16f0f2faf8d7a0d14c09","651c1da3efd0a9a358976884","null","null","<p style=""font-size: 60px; font-family: BACS"">hCktTRkY</p>","","","","","","","","",""
"html-keyboard-response","123","528575","0.0-10.0-0.34","615f371e6688c87e53e7acf5","650c16f0f2faf8d7a0d14c09","651c1da3efd0a9a358976884","null","null","<p style=""font-size: 60px; font-family: BACS"">lZcurba</p>","","","","","","","","",""
"html-keyboard-response","124","529592","0.0-10.0-0.35","615f371e6688c87e53e7acf5","650c16f0f2faf8d7a0d14c09","651c1da3efd0a9a358976884","null","null","<p style=""font-size: 60px; font-family: BACS"">ECtbDPMd</p>","","","","","","","","",""
"html-keyboard-response","125","530608","0.0-10.0-0.36","615f371e6688c87e53e7acf5","650c16f0f2faf8d7a0d14c09","651c1da3efd0a9a358976884","null","null","<p style=""font-size: 60px; font-family: BACS"">KABAlMck</p>","","","","","","","","",""
"html-keyboard-response","126","531625","0.0-10.0-0.37","615f371e6688c87e53e7acf5","650c16f0f2faf8d7a0d14c09","651c1da3efd0a9a358976884","null","null","<p style=""font-size: 60px; font-family: BACS"">KBKBETRkY</p>","","","","","","","","",""
"html-keyboard-response","127","532642","0.0-10.0-0.38","615f371e6688c87e53e7acf5","650c16f0f2faf8d7a0d14c09","651c1da3efd0a9a358976884","null","null","<p style=""font-size: 60px; font-family: BACS"">YUNkZQGb</p>","","","","","","","","",""
"html-keyboard-response","128","533658","0.0-10.0-0.39","615f371e6688c87e53e7acf5","650c16f0f2faf8d7a0d14c09","651c1da3efd0a9a358976884","null","null","<p style=""font-size: 60px; font-family: BACS"">McMDTRK</p>","","","","","","","","",""
"html-keyboard-response","129","534674","0.0-10.0-0.40","615f371e6688c87e53e7acf5","650c16f0f2faf8d7a0d14c09","651c1da3efd0a9a358976884","null","null","<p style=""font-size: 60px; font-family: BACS"">QbkAcQGb</p>","","","","","","","","",""
"html-keyboard-response","130","535676","0.0-10.0-0.41","615f371e6688c87e53e7acf5","650c16f0f2faf8d7a0d14c09","651c1da3efd0a9a358976884","null","null","<p style=""font-size: 60px; font-family: BACS"">ECtbDlMck</p>","","","","","","","","",""
"html-keyboard-response","131","536692","0.0-10.0-0.42","615f371e6688c87e53e7acf5","650c16f0f2faf8d7a0d14c09","651c1da3efd0a9a358976884","null","null","<p style=""font-size: 60px; font-family: BACS"">RkmdCmhc</p>","","","","","","","","",""
"html-keyboard-response","132","537707","0.0-10.0-0.43","615f371e6688c87e53e7acf5","650c16f0f2faf8d7a0d14c09","651c1da3efd0a9a358976884","null","null","<p style=""font-size: 60px; font-family: BACS"">ORbkPMd</p>","","","","","","","","",""
"html-keyboard-response","133","538709","0.0-10.0-0.44","615f371e6688c87e53e7acf5","650c16f0f2faf8d7a0d14c09","651c1da3efd0a9a358976884","null","null","<p style=""font-size: 60px; font-family: BACS"">aYaNUZu</p>","","","","","","","","",""
"html-keyboard-response","134","539724","0.0-10.0-0.45","615f371e6688c87e53e7acf5","650c16f0f2faf8d7a0d14c09","651c1da3efd0a9a358976884","null","null","<p style=""font-size: 60px; font-family: BACS"">JdGmLkNc</p>","","","","","","","","",""
"html-keyboard-response","135","540740","0.0-10.0-0.46","615f371e6688c87e53e7acf5","650c16f0f2faf8d7a0d14c09","651c1da3efd0a9a358976884","null","null","<p style=""font-size: 60px; font-family: BACS"">aYQmJud</p>","","","","","","","","",""
"html-keyboard-response","136","541756","0.0-10.0-0.47","615f371e6688c87e53e7acf5","650c16f0f2faf8d7a0d14c09","651c1da3efd0a9a358976884","null","null","<p style=""font-size: 60px; font-family: BACS"">GQrcUZu</p>","","","","","","","","",""
"html-keyboard-response","137","542758","0.0-10.0-0.48","615f371e6688c87e53e7acf5","650c16f0f2faf8d7a0d14c09","651c1da3efd0a9a358976884","null","null","<p style=""font-size: 60px; font-family: BACS"">QbkAcLkNc</p>","","","","","","","","",""
"html-keyboard-response","138","543774","0.0-10.0-0.49","615f371e6688c87e53e7acf5","650c16f0f2faf8d7a0d14c09","651c1da3efd0a9a358976884","null","null","<p style=""font-size: 60px; font-family: BACS"">NJZlJud</p>","","","","","","","","",""
"html-keyboard-response","139","544790","0.0-10.0-0.50","615f371e6688c87e53e7acf5","650c16f0f2faf8d7a0d14c09","651c1da3efd0a9a358976884","null","null","<p style=""font-size: 60px; font-family: BACS"">lZcuLkNc</p>","","","","","","","","",""
"html-keyboard-response","140","545807","0.0-10.0-0.51","615f371e6688c87e53e7acf5","650c16f0f2faf8d7a0d14c09","651c1da3efd0a9a358976884","null","null","<p style=""font-size: 60px; font-family: BACS"">uQuZcQGb</p>","","","","","","","","",""
"html-keyboard-response","141","546823","0.0-10.0-0.52","615f371e6688c87e53e7acf5","650c16f0f2faf8d7a0d14c09","651c1da3efd0a9a358976884","null","null","<p style=""font-size: 60px; font-family: BACS"">ECtbDTRkY</p>","","","","","","","","",""
"html-keyboard-response","142","547824","0.0-10.0-0.53","615f371e6688c87e53e7acf5","650c16f0f2faf8d7a0d14c09","651c1da3efd0a9a358976884","null","null","<p style=""font-size: 60px; font-family: BACS"">DBlhlMck</p>","","","","","","","","",""
"html-keyboard-response","143","548840","0.0-10.0-0.54","615f371e6688c87e53e7acf5","650c16f0f2faf8d7a0d14c09","651c1da3efd0a9a358976884","null","null","<p style=""font-size: 60px; font-family: BACS"">aYaNQGb</p>","","","","","","","","",""
"html-keyboard-response","144","549856","0.0-10.0-0.55","615f371e6688c87e53e7acf5","650c16f0f2faf8d7a0d14c09","651c1da3efd0a9a358976884","null","null","<p style=""font-size: 60px; font-family: BACS"">KBKBElMck</p>","","","","","","","","",""
"html-keyboard-response","145","550872","0.0-10.0-0.56","615f371e6688c87e53e7acf5","650c16f0f2faf8d7a0d14c09","651c1da3efd0a9a358976884","null","null","<p style=""font-size: 60px; font-family: BACS"">lZcuQGb</p>","","","","","","","","",""
"html-keyboard-response","146","551873","0.0-10.0-0.57","615f371e6688c87e53e7acf5","650c16f0f2faf8d7a0d14c09","651c1da3efd0a9a358976884","null","null","<p style=""font-size: 60px; font-family: BACS"">KABATRkY</p>","","","","","","","","",""
"html-keyboard-response","147","552889","0.0-10.0-0.58","615f371e6688c87e53e7acf5","650c16f0f2faf8d7a0d14c09","651c1da3efd0a9a358976884","null","null","<p style=""font-size: 60px; font-family: BACS"">DBlhPMd</p>","","","","","","","","",""
"html-keyboard-response","148","553906","0.0-10.0-0.59","615f371e6688c87e53e7acf5","650c16f0f2faf8d7a0d14c09","651c1da3efd0a9a358976884","null","null","<p style=""font-size: 60px; font-family: BACS"">GQrcrba</p>","","","","","","","","",""
"html-keyboard-response","149","554907","0.0-10.0-0.60","615f371e6688c87e53e7acf5","650c16f0f2faf8d7a0d14c09","651c1da3efd0a9a358976884","null","null","<p style=""font-size: 60px; font-family: BACS"">aYQmLkNc</p>","","","","","","","","",""
"html-keyboard-response","150","555922","0.0-10.0-0.61","615f371e6688c87e53e7acf5","650c16f0f2faf8d7a0d14c09","651c1da3efd0a9a358976884","null","null","<p style=""font-size: 60px; font-family: BACS"">RdPtDTRkY</p>","","","","","","","","",""
"html-keyboard-response","151","556924","0.0-10.0-0.62","615f371e6688c87e53e7acf5","650c16f0f2faf8d7a0d14c09","651c1da3efd0a9a358976884","null","null","<p style=""font-size: 60px; font-family: BACS"">YUNkZLkNc</p>","","","","","","","","",""
"html-keyboard-response","152","557939","0.0-10.0-0.63","615f371e6688c87e53e7acf5","650c16f0f2faf8d7a0d14c09","651c1da3efd0a9a358976884","null","null","<p style=""font-size: 60px; font-family: BACS"">uQuZcJud</p>","","","","","","","","",""
"html-keyboard-response","153","558940","0.0-10.0-0.64","615f371e6688c87e53e7acf5","650c16f0f2faf8d7a0d14c09","651c1da3efd0a9a358976884","null","null","<p style=""font-size: 60px; font-family: BACS"">RdPtDTRK</p>","","","","","","","","",""
"html-keyboard-response","154","559955","0.0-10.0-0.65","615f371e6688c87e53e7acf5","650c16f0f2faf8d7a0d14c09","651c1da3efd0a9a358976884","null","null","<p style=""font-size: 60px; font-family: BACS"">JdGmQGb</p>","","","","","","","","",""
"html-keyboard-response","155","560971","0.0-10.0-0.66","615f371e6688c87e53e7acf5","650c16f0f2faf8d7a0d14c09","651c1da3efd0a9a358976884","null","null","<p style=""font-size: 60px; font-family: BACS"">KABATRK</p>","","","","","","","","",""
"html-keyboard-response","156","561973","0.0-10.0-0.67","615f371e6688c87e53e7acf5","650c16f0f2faf8d7a0d14c09","651c1da3efd0a9a358976884","null","null","<p style=""font-size: 60px; font-family: BACS"">NJZlrba</p>","","","","","","","","",""
"html-keyboard-response","157","562987","0.0-10.0-0.68","615f371e6688c87e53e7acf5","650c16f0f2faf8d7a0d14c09","651c1da3efd0a9a358976884","null","null","<p style=""font-size: 60px; font-family: BACS"">RkmdCTRkY</p>","","","","","","","","",""
"html-keyboard-response","158","563988","0.0-10.0-0.69","615f371e6688c87e53e7acf5","650c16f0f2faf8d7a0d14c09","651c1da3efd0a9a358976884","null","null","<p style=""font-size: 60px; font-family: BACS"">NJZlLkNc</p>","","","","","","","","",""
"html-keyboard-response","159","565004","0.0-10.0-0.70","615f371e6688c87e53e7acf5","650c16f0f2faf8d7a0d14c09","651c1da3efd0a9a358976884","null","null","<p style=""font-size: 60px; font-family: BACS"">YObAmhc</p>","","","","","","","","",""
"html-keyboard-response","160","566019","0.0-10.0-0.71","615f371e6688c87e53e7acf5","650c16f0f2faf8d7a0d14c09","651c1da3efd0a9a358976884","null","null","<p style=""font-size: 60px; font-family: BACS"">McMDlMck</p>","","","","","","","","",""
"html-keyboard-response","161","567021","0.0-10.0-0.72","615f371e6688c87e53e7acf5","650c16f0f2faf8d7a0d14c09","651c1da3efd0a9a358976884","null","null","<p style=""font-size: 60px; font-family: BACS"">GQrcQGb</p>","","","","","","","","",""
"html-keyboard-response","162","568021","0.0-10.0-0.73","615f371e6688c87e53e7acf5","650c16f0f2faf8d7a0d14c09","651c1da3efd0a9a358976884","null","null","<p style=""font-size: 60px; font-family: BACS"">ORbkmhc</p>","","","","","","","","",""
"html-keyboard-response","163","569022","0.0-10.0-0.74","615f371e6688c87e53e7acf5","650c16f0f2faf8d7a0d14c09","651c1da3efd0a9a358976884","null","null","<p style=""font-size: 60px; font-family: BACS"">aYaNJud</p>","","","","","","","","",""
"html-keyboard-response","164","570035","0.0-10.0-0.75","615f371e6688c87e53e7acf5","650c16f0f2faf8d7a0d14c09","651c1da3efd0a9a358976884","null","null","<p style=""font-size: 60px; font-family: BACS"">KBKBEmhc</p>","","","","","","","","",""
"html-keyboard-response","165","571037","0.0-10.0-0.76","615f371e6688c87e53e7acf5","650c16f0f2faf8d7a0d14c09","651c1da3efd0a9a358976884","null","null","<p style=""font-size: 60px; font-family: BACS"">aYQmQGb</p>","","","","","","","","",""
"html-keyboard-response","166","572054","0.0-10.0-0.77","615f371e6688c87e53e7acf5","650c16f0f2faf8d7a0d14c09","651c1da3efd0a9a358976884","null","null","<p style=""font-size: 60px; font-family: BACS"">YObATRK</p>","","","","","","","","",""
"html-keyboard-response","167","573070","0.0-10.0-0.78","615f371e6688c87e53e7acf5","650c16f0f2faf8d7a0d14c09","651c1da3efd0a9a358976884","null","null","<p style=""font-size: 60px; font-family: BACS"">QbkAcJud</p>","","","","","","","","",""
"html-keyboard-response","168","574071","0.0-10.0-0.79","615f371e6688c87e53e7acf5","650c16f0f2faf8d7a0d14c09","651c1da3efd0a9a358976884","null","null","<p style=""font-size: 60px; font-family: BACS"">hCktTRK</p>","","","","","","","","",""
"html-keyboard-response","169","588777","0.0-11.0","615f371e6688c87e53e7acf5","650c16f0f2faf8d7a0d14c09","651c1da3efd0a9a358976884","14707"," ","<p>Great, you've seen the second block of words. You may now take a short break.</p>
      <p>Press the spacebar when you're ready to continue.</p>","","","","","","","","",""
"html-keyboard-response","170","589784","0.0-12.0-0.0","615f371e6688c87e53e7acf5","650c16f0f2faf8d7a0d14c09","651c1da3efd0a9a358976884","null","null","<p style=""font-size: 60px; font-family: BACS"">RkmdCmhc</p>","","","","","","","","",""
"html-keyboard-response","171","590784","0.0-12.0-0.1","615f371e6688c87e53e7acf5","650c16f0f2faf8d7a0d14c09","651c1da3efd0a9a358976884","null","null","<p style=""font-size: 60px; font-family: BACS"">KBKBEPMd</p>","","","","","","","","",""
"html-keyboard-response","172","591800","0.0-12.0-0.2","615f371e6688c87e53e7acf5","650c16f0f2faf8d7a0d14c09","651c1da3efd0a9a358976884","null","null","<p style=""font-size: 60px; font-family: BACS"">NJZlrba</p>","","","","","","","","",""
"html-keyboard-response","173","592815","0.0-12.0-0.3","615f371e6688c87e53e7acf5","650c16f0f2faf8d7a0d14c09","651c1da3efd0a9a358976884","null","null","<p style=""font-size: 60px; font-family: BACS"">QbkAcLkNc</p>","","","","","","","","",""
"html-keyboard-response","174","593817","0.0-12.0-0.4","615f371e6688c87e53e7acf5","650c16f0f2faf8d7a0d14c09","651c1da3efd0a9a358976884","null","null","<p style=""font-size: 60px; font-family: BACS"">YObAPMd</p>","","","","","","","","",""
"html-keyboard-response","175","594833","0.0-12.0-0.5","615f371e6688c87e53e7acf5","650c16f0f2faf8d7a0d14c09","651c1da3efd0a9a358976884","null","null","<p style=""font-size: 60px; font-family: BACS"">KABATRkY</p>","","","","","","","","",""
"html-keyboard-response","176","595834","0.0-12.0-0.6","615f371e6688c87e53e7acf5","650c16f0f2faf8d7a0d14c09","651c1da3efd0a9a358976884","null","null","<p style=""font-size: 60px; font-family: BACS"">aYQmQGb</p>","","","","","","","","",""
"html-keyboard-response","177","596850","0.0-12.0-0.7","615f371e6688c87e53e7acf5","650c16f0f2faf8d7a0d14c09","651c1da3efd0a9a358976884","null","null","<p style=""font-size: 60px; font-family: BACS"">lZcuUZu</p>","","","","","","","","",""
"html-keyboard-response","178","597866","0.0-12.0-0.8","615f371e6688c87e53e7acf5","650c16f0f2faf8d7a0d14c09","651c1da3efd0a9a358976884","null","null","<p style=""font-size: 60px; font-family: BACS"">uQuZcJud</p>","","","","","","","","",""
"html-keyboard-response","179","598867","0.0-12.0-0.9","615f371e6688c87e53e7acf5","650c16f0f2faf8d7a0d14c09","651c1da3efd0a9a358976884","null","null","<p style=""font-size: 60px; font-family: BACS"">RdPtDTRK</p>","","","","","","","","",""
"html-keyboard-response","180","599883","0.0-12.0-0.10","615f371e6688c87e53e7acf5","650c16f0f2faf8d7a0d14c09","651c1da3efd0a9a358976884","null","null","<p style=""font-size: 60px; font-family: BACS"">KBKBEmhc</p>","","","","","","","","",""
"html-keyboard-response","181","600884","0.0-12.0-0.11","615f371e6688c87e53e7acf5","650c16f0f2faf8d7a0d14c09","651c1da3efd0a9a358976884","null","null","<p style=""font-size: 60px; font-family: BACS"">hCktTRkY</p>","","","","","","","","",""
"html-keyboard-response","182","601899","0.0-12.0-0.12","615f371e6688c87e53e7acf5","650c16f0f2faf8d7a0d14c09","651c1da3efd0a9a358976884","null","null","<p style=""font-size: 60px; font-family: BACS"">mbZlJud</p>","","","","","","","","",""
"html-keyboard-response","183","602915","0.0-12.0-0.13","615f371e6688c87e53e7acf5","650c16f0f2faf8d7a0d14c09","651c1da3efd0a9a358976884","null","null","<p style=""font-size: 60px; font-family: BACS"">GQrcQGb</p>","","","","","","","","",""
"html-keyboard-response","184","603917","0.0-12.0-0.14","615f371e6688c87e53e7acf5","650c16f0f2faf8d7a0d14c09","651c1da3efd0a9a358976884","null","null","<p style=""font-size: 60px; font-family: BACS"">YObAmhc</p>","","","","","","","","",""
"html-keyboard-response","185","604931","0.0-12.0-0.15","615f371e6688c87e53e7acf5","650c16f0f2faf8d7a0d14c09","651c1da3efd0a9a358976884","null","null","<p style=""font-size: 60px; font-family: BACS"">ECtbDTRkY</p>","","","","","","","","",""
"html-keyboard-response","186","605932","0.0-12.0-0.16","615f371e6688c87e53e7acf5","650c16f0f2faf8d7a0d14c09","651c1da3efd0a9a358976884","null","null","<p style=""font-size: 60px; font-family: BACS"">YObAlMck</p>","","","","","","","","",""
"html-keyboard-response","187","606949","0.0-12.0-0.17","615f371e6688c87e53e7acf5","650c16f0f2faf8d7a0d14c09","651c1da3efd0a9a358976884","null","null","<p style=""font-size: 60px; font-family: BACS"">QbkAcUZu</p>","","","","","","","","",""
"html-keyboard-response","188","607965","0.0-12.0-0.18","615f371e6688c87e53e7acf5","650c16f0f2faf8d7a0d14c09","651c1da3efd0a9a358976884","null","null","<p style=""font-size: 60px; font-family: BACS"">aYQmrba</p>","","","","","","","","",""
"html-keyboard-response","189","608982","0.0-12.0-0.19","615f371e6688c87e53e7acf5","650c16f0f2faf8d7a0d14c09","651c1da3efd0a9a358976884","null","null","<p style=""font-size: 60px; font-family: BACS"">JdGmLkNc</p>","","","","","","","","",""
"html-keyboard-response","190","609998","0.0-12.0-0.20","615f371e6688c87e53e7acf5","650c16f0f2faf8d7a0d14c09","651c1da3efd0a9a358976884","null","null","<p style=""font-size: 60px; font-family: BACS"">RkmdCTRK</p>","","","","","","","","",""
"html-keyboard-response","191","610999","0.0-12.0-0.21","615f371e6688c87e53e7acf5","650c16f0f2faf8d7a0d14c09","651c1da3efd0a9a358976884","null","null","<p style=""font-size: 60px; font-family: BACS"">ORbklMck</p>","","","","","","","","",""
"html-keyboard-response","192","612015","0.0-12.0-0.22","615f371e6688c87e53e7acf5","650c16f0f2faf8d7a0d14c09","651c1da3efd0a9a358976884","null","null","<p style=""font-size: 60px; font-family: BACS"">lZcuQGb</p>","","","","","","","","",""
"html-keyboard-response","193","613016","0.0-12.0-0.23","615f371e6688c87e53e7acf5","650c16f0f2faf8d7a0d14c09","651c1da3efd0a9a358976884","null","null","<p style=""font-size: 60px; font-family: BACS"">aYaNUZu</p>","","","","","","","","",""
"html-keyboard-response","194","614032","0.0-12.0-0.24","615f371e6688c87e53e7acf5","650c16f0f2faf8d7a0d14c09","651c1da3efd0a9a358976884","null","null","<p style=""font-size: 60px; font-family: BACS"">GQrcJud</p>","","","","","","","","",""
"html-keyboard-response","195","615048","0.0-12.0-0.25","615f371e6688c87e53e7acf5","650c16f0f2faf8d7a0d14c09","651c1da3efd0a9a358976884","null","null","<p style=""font-size: 60px; font-family: BACS"">YUNkZLkNc</p>","","","","","","","","",""
"html-keyboard-response","196","616064","0.0-12.0-0.26","615f371e6688c87e53e7acf5","650c16f0f2faf8d7a0d14c09","651c1da3efd0a9a358976884","null","null","<p style=""font-size: 60px; font-family: BACS"">McMDTRK</p>","","","","","","","","",""
"html-keyboard-response","197","617065","0.0-12.0-0.27","615f371e6688c87e53e7acf5","650c16f0f2faf8d7a0d14c09","651c1da3efd0a9a358976884","null","null","<p style=""font-size: 60px; font-family: BACS"">DBlhPMd</p>","","","","","","","","",""
"html-keyboard-response","198","618081","0.0-12.0-0.28","615f371e6688c87e53e7acf5","650c16f0f2faf8d7a0d14c09","651c1da3efd0a9a358976884","null","null","<p style=""font-size: 60px; font-family: BACS"">YUNkZQGb</p>","","","","","","","","",""
"html-keyboard-response","199","619082","0.0-12.0-0.29","615f371e6688c87e53e7acf5","650c16f0f2faf8d7a0d14c09","651c1da3efd0a9a358976884","null","null","<p style=""font-size: 60px; font-family: BACS"">NJZlJud</p>","","","","","","","","",""
"html-keyboard-response","200","620097","0.0-12.0-0.30","615f371e6688c87e53e7acf5","650c16f0f2faf8d7a0d14c09","651c1da3efd0a9a358976884","null","null","<p style=""font-size: 60px; font-family: BACS"">QbkAcQGb</p>","","","","","","","","",""
"html-keyboard-response","201","621099","0.0-12.0-0.31","615f371e6688c87e53e7acf5","650c16f0f2faf8d7a0d14c09","651c1da3efd0a9a358976884","null","null","<p style=""font-size: 60px; font-family: BACS"">aYQmJud</p>","","","","","","","","",""
"html-keyboard-response","202","622114","0.0-12.0-0.32","615f371e6688c87e53e7acf5","650c16f0f2faf8d7a0d14c09","651c1da3efd0a9a358976884","null","null","<p style=""font-size: 60px; font-family: BACS"">mbZlUZu</p>","","","","","","","","",""
"html-keyboard-response","203","623115","0.0-12.0-0.33","615f371e6688c87e53e7acf5","650c16f0f2faf8d7a0d14c09","651c1da3efd0a9a358976884","null","null","<p style=""font-size: 60px; font-family: BACS"">hCktTRK</p>","","","","","","","","",""
"html-keyboard-response","204","624130","0.0-12.0-0.34","615f371e6688c87e53e7acf5","650c16f0f2faf8d7a0d14c09","651c1da3efd0a9a358976884","null","null","<p style=""font-size: 60px; font-family: BACS"">RkmdCTRkY</p>","","","","","","","","",""
"html-keyboard-response","205","625131","0.0-12.0-0.35","615f371e6688c87e53e7acf5","650c16f0f2faf8d7a0d14c09","651c1da3efd0a9a358976884","null","null","<p style=""font-size: 60px; font-family: BACS"">GQrcUZu</p>","","","","","","","","",""
"html-keyboard-response","206","626146","0.0-12.0-0.36","615f371e6688c87e53e7acf5","650c16f0f2faf8d7a0d14c09","651c1da3efd0a9a358976884","null","null","<p style=""font-size: 60px; font-family: BACS"">McMDTRkY</p>","","","","","","","","",""
"html-keyboard-response","207","627148","0.0-12.0-0.37","615f371e6688c87e53e7acf5","650c16f0f2faf8d7a0d14c09","651c1da3efd0a9a358976884","null","null","<p style=""font-size: 60px; font-family: BACS"">ECtbDlMck</p>","","","","","","","","",""
"html-keyboard-response","208","628163","0.0-12.0-0.38","615f371e6688c87e53e7acf5","650c16f0f2faf8d7a0d14c09","651c1da3efd0a9a358976884","null","null","<p style=""font-size: 60px; font-family: BACS"">RdPtDPMd</p>","","","","","","","","",""
"html-keyboard-response","209","629164","0.0-12.0-0.39","615f371e6688c87e53e7acf5","650c16f0f2faf8d7a0d14c09","651c1da3efd0a9a358976884","null","null","<p style=""font-size: 60px; font-family: BACS"">KABAmhc</p>","","","","","","","","",""
"html-keyboard-response","210","630180","0.0-12.0-0.40","615f371e6688c87e53e7acf5","650c16f0f2faf8d7a0d14c09","651c1da3efd0a9a358976884","null","null","<p style=""font-size: 60px; font-family: BACS"">hCktlMck</p>","","","","","","","","",""
"html-keyboard-response","211","631181","0.0-12.0-0.41","615f371e6688c87e53e7acf5","650c16f0f2faf8d7a0d14c09","651c1da3efd0a9a358976884","null","null","<p style=""font-size: 60px; font-family: BACS"">NJZlLkNc</p>","","","","","","","","",""
"html-keyboard-response","212","632197","0.0-12.0-0.42","615f371e6688c87e53e7acf5","650c16f0f2faf8d7a0d14c09","651c1da3efd0a9a358976884","null","null","<p style=""font-size: 60px; font-family: BACS"">DBlhlMck</p>","","","","","","","","",""
"html-keyboard-response","213","633212","0.0-12.0-0.43","615f371e6688c87e53e7acf5","650c16f0f2faf8d7a0d14c09","651c1da3efd0a9a358976884","null","null","<p style=""font-size: 60px; font-family: BACS"">YUNkZUZu</p>","","","","","","","","",""
"html-keyboard-response","214","634228","0.0-12.0-0.44","615f371e6688c87e53e7acf5","650c16f0f2faf8d7a0d14c09","651c1da3efd0a9a358976884","null","null","<p style=""font-size: 60px; font-family: BACS"">uQuZcQGb</p>","","","","","","","","",""
"html-keyboard-response","215","635230","0.0-12.0-0.45","615f371e6688c87e53e7acf5","650c16f0f2faf8d7a0d14c09","651c1da3efd0a9a358976884","null","null","<p style=""font-size: 60px; font-family: BACS"">QbkAcJud</p>","","","","","","","","",""
"html-keyboard-response","216","636245","0.0-12.0-0.46","615f371e6688c87e53e7acf5","650c16f0f2faf8d7a0d14c09","651c1da3efd0a9a358976884","null","null","<p style=""font-size: 60px; font-family: BACS"">DBlhTRkY</p>","","","","","","","","",""
"html-keyboard-response","217","637247","0.0-12.0-0.47","615f371e6688c87e53e7acf5","650c16f0f2faf8d7a0d14c09","651c1da3efd0a9a358976884","null","null","<p style=""font-size: 60px; font-family: BACS"">uQuZcUZu</p>","","","","","","","","",""
"html-keyboard-response","218","638262","0.0-12.0-0.48","615f371e6688c87e53e7acf5","650c16f0f2faf8d7a0d14c09","651c1da3efd0a9a358976884","null","null","<p style=""font-size: 60px; font-family: BACS"">JdGmJud</p>","","","","","","","","",""
"html-keyboard-response","219","639277","0.0-12.0-0.49","615f371e6688c87e53e7acf5","650c16f0f2faf8d7a0d14c09","651c1da3efd0a9a358976884","null","null","<p style=""font-size: 60px; font-family: BACS"">ECtbDPMd</p>","","","","","","","","",""
"html-keyboard-response","220","640279","0.0-12.0-0.50","615f371e6688c87e53e7acf5","650c16f0f2faf8d7a0d14c09","651c1da3efd0a9a358976884","null","null","<p style=""font-size: 60px; font-family: BACS"">GQrcrba</p>","","","","","","","","",""
"html-keyboard-response","221","641295","0.0-12.0-0.51","615f371e6688c87e53e7acf5","650c16f0f2faf8d7a0d14c09","651c1da3efd0a9a358976884","null","null","<p style=""font-size: 60px; font-family: BACS"">YObATRK</p>","","","","","","","","",""
"html-keyboard-response","222","642310","0.0-12.0-0.52","615f371e6688c87e53e7acf5","650c16f0f2faf8d7a0d14c09","651c1da3efd0a9a358976884","null","null","<p style=""font-size: 60px; font-family: BACS"">lZcuLkNc</p>","","","","","","","","",""
"html-keyboard-response","223","643312","0.0-12.0-0.53","615f371e6688c87e53e7acf5","650c16f0f2faf8d7a0d14c09","651c1da3efd0a9a358976884","null","null","<p style=""font-size: 60px; font-family: BACS"">ECtbDmhc</p>","","","","","","","","",""
"html-keyboard-response","224","644328","0.0-12.0-0.54","615f371e6688c87e53e7acf5","650c16f0f2faf8d7a0d14c09","651c1da3efd0a9a358976884","null","null","<p style=""font-size: 60px; font-family: BACS"">mbZlrba</p>","","","","","","","","",""
"html-keyboard-response","225","645344","0.0-12.0-0.55","615f371e6688c87e53e7acf5","650c16f0f2faf8d7a0d14c09","651c1da3efd0a9a358976884","null","null","<p style=""font-size: 60px; font-family: BACS"">aYaNQGb</p>","","","","","","","","",""
"html-keyboard-response","226","646361","0.0-12.0-0.56","615f371e6688c87e53e7acf5","650c16f0f2faf8d7a0d14c09","651c1da3efd0a9a358976884","null","null","<p style=""font-size: 60px; font-family: BACS"">KABATRK</p>","","","","","","","","",""
"html-keyboard-response","227","647362","0.0-12.0-0.57","615f371e6688c87e53e7acf5","650c16f0f2faf8d7a0d14c09","651c1da3efd0a9a358976884","null","null","<p style=""font-size: 60px; font-family: BACS"">RdPtDmhc</p>","","","","","","","","",""
"html-keyboard-response","228","648378","0.0-12.0-0.58","615f371e6688c87e53e7acf5","650c16f0f2faf8d7a0d14c09","651c1da3efd0a9a358976884","null","null","<p style=""font-size: 60px; font-family: BACS"">uQuZcrba</p>","","","","","","","","",""
"html-keyboard-response","229","649395","0.0-12.0-0.59","615f371e6688c87e53e7acf5","650c16f0f2faf8d7a0d14c09","651c1da3efd0a9a358976884","null","null","<p style=""font-size: 60px; font-family: BACS"">McMDmhc</p>","","","","","","","","",""
"html-keyboard-response","230","650397","0.0-12.0-0.60","615f371e6688c87e53e7acf5","650c16f0f2faf8d7a0d14c09","651c1da3efd0a9a358976884","null","null","<p style=""font-size: 60px; font-family: BACS"">lZcurba</p>","","","","","","","","",""
"html-keyboard-response","231","651412","0.0-12.0-0.61","615f371e6688c87e53e7acf5","650c16f0f2faf8d7a0d14c09","651c1da3efd0a9a358976884","null","null","<p style=""font-size: 60px; font-family: BACS"">aYaNJud</p>","","","","","","","","",""
"html-keyboard-response","232","652413","0.0-12.0-0.62","615f371e6688c87e53e7acf5","650c16f0f2faf8d7a0d14c09","651c1da3efd0a9a358976884","null","null","<p style=""font-size: 60px; font-family: BACS"">DBlhTRK</p>","","","","","","","","",""
"html-keyboard-response","233","653427","0.0-12.0-0.63","615f371e6688c87e53e7acf5","650c16f0f2faf8d7a0d14c09","651c1da3efd0a9a358976884","null","null","<p style=""font-size: 60px; font-family: BACS"">YUNkZrba</p>","","","","","","","","",""
"html-keyboard-response","234","654429","0.0-12.0-0.64","615f371e6688c87e53e7acf5","650c16f0f2faf8d7a0d14c09","651c1da3efd0a9a358976884","null","null","<p style=""font-size: 60px; font-family: BACS"">mbZlLkNc</p>","","","","","","","","",""
"html-keyboard-response","235","655445","0.0-12.0-0.65","615f371e6688c87e53e7acf5","650c16f0f2faf8d7a0d14c09","651c1da3efd0a9a358976884","null","null","<p style=""font-size: 60px; font-family: BACS"">JdGmrba</p>","","","","","","","","",""
"html-keyboard-response","236","656461","0.0-12.0-0.66","615f371e6688c87e53e7acf5","650c16f0f2faf8d7a0d14c09","651c1da3efd0a9a358976884","null","null","<p style=""font-size: 60px; font-family: BACS"">NJZlUZu</p>","","","","","","","","",""
"html-keyboard-response","237","657462","0.0-12.0-0.67","615f371e6688c87e53e7acf5","650c16f0f2faf8d7a0d14c09","651c1da3efd0a9a358976884","null","null","<p style=""font-size: 60px; font-family: BACS"">ORbkTRK</p>","","","","","","","","",""
"html-keyboard-response","238","658477","0.0-12.0-0.68","615f371e6688c87e53e7acf5","650c16f0f2faf8d7a0d14c09","651c1da3efd0a9a358976884","null","null","<p style=""font-size: 60px; font-family: BACS"">KABAlMck</p>","","","","","","","","",""
"html-keyboard-response","239","659479","0.0-12.0-0.69","615f371e6688c87e53e7acf5","650c16f0f2faf8d7a0d14c09","651c1da3efd0a9a358976884","null","null","<p style=""font-size: 60px; font-family: BACS"">ORbkPMd</p>","","","","","","","","",""
"html-keyboard-response","240","660493","0.0-12.0-0.70","615f371e6688c87e53e7acf5","650c16f0f2faf8d7a0d14c09","651c1da3efd0a9a358976884","null","null","<p style=""font-size: 60px; font-family: BACS"">aYaNLkNc</p>","","","","","","","","",""
"html-keyboard-response","241","661496","0.0-12.0-0.71","615f371e6688c87e53e7acf5","650c16f0f2faf8d7a0d14c09","651c1da3efd0a9a358976884","null","null","<p style=""font-size: 60px; font-family: BACS"">McMDlMck</p>","","","","","","","","",""
"html-keyboard-response","242","662512","0.0-12.0-0.72","615f371e6688c87e53e7acf5","650c16f0f2faf8d7a0d14c09","651c1da3efd0a9a358976884","null","null","<p style=""font-size: 60px; font-family: BACS"">aYQmLkNc</p>","","","","","","","","",""
"html-keyboard-response","243","663527","0.0-12.0-0.73","615f371e6688c87e53e7acf5","650c16f0f2faf8d7a0d14c09","651c1da3efd0a9a358976884","null","null","<p style=""font-size: 60px; font-family: BACS"">KBKBElMck</p>","","","","","","","","",""
"html-keyboard-response","244","664529","0.0-12.0-0.74","615f371e6688c87e53e7acf5","650c16f0f2faf8d7a0d14c09","651c1da3efd0a9a358976884","null","null","<p style=""font-size: 60px; font-family: BACS"">RdPtDTRkY</p>","","","","","","","","",""
"html-keyboard-response","245","665544","0.0-12.0-0.75","615f371e6688c87e53e7acf5","650c16f0f2faf8d7a0d14c09","651c1da3efd0a9a358976884","null","null","<p style=""font-size: 60px; font-family: BACS"">hCktPMd</p>","","","","","","","","",""
"html-keyboard-response","246","666560","0.0-12.0-0.76","615f371e6688c87e53e7acf5","650c16f0f2faf8d7a0d14c09","651c1da3efd0a9a358976884","null","null","<p style=""font-size: 60px; font-family: BACS"">JdGmQGb</p>","","","","","","","","",""
"html-keyboard-response","247","667576","0.0-12.0-0.77","615f371e6688c87e53e7acf5","650c16f0f2faf8d7a0d14c09","651c1da3efd0a9a358976884","null","null","<p style=""font-size: 60px; font-family: BACS"">ORbkmhc</p>","","","","","","","","",""
"html-keyboard-response","248","668592","0.0-12.0-0.78","615f371e6688c87e53e7acf5","650c16f0f2faf8d7a0d14c09","651c1da3efd0a9a358976884","null","null","<p style=""font-size: 60px; font-family: BACS"">RkmdCPMd</p>","","","","","","","","",""
"html-keyboard-response","249","669594","0.0-12.0-0.79","615f371e6688c87e53e7acf5","650c16f0f2faf8d7a0d14c09","651c1da3efd0a9a358976884","null","null","<p style=""font-size: 60px; font-family: BACS"">KBKBETRkY</p>","","","","","","","","",""
"html-keyboard-response","250","692255","0.0-13.0","615f371e6688c87e53e7acf5","650c16f0f2faf8d7a0d14c09","651c1da3efd0a9a358976884","22660"," ","<p>Great, you've seen the third block of words. You may now take a short break.</p>
      <p>Press the spacebar when you're ready to continue.</p>","","","","","","","","",""
"html-keyboard-response","251","693258","0.0-14.0-0.0","615f371e6688c87e53e7acf5","650c16f0f2faf8d7a0d14c09","651c1da3efd0a9a358976884","null","null","<p style=""font-size: 60px; font-family: BACS"">hCktlMck</p>","","","","","","","","",""
"html-keyboard-response","252","694275","0.0-14.0-0.1","615f371e6688c87e53e7acf5","650c16f0f2faf8d7a0d14c09","651c1da3efd0a9a358976884","null","null","<p style=""font-size: 60px; font-family: BACS"">lZcuQGb</p>","","","","","","","","",""
"html-keyboard-response","253","695291","0.0-14.0-0.2","615f371e6688c87e53e7acf5","650c16f0f2faf8d7a0d14c09","651c1da3efd0a9a358976884","null","null","<p style=""font-size: 60px; font-family: BACS"">McMDTRK</p>","","","","","","","","",""
"html-keyboard-response","254","696305","0.0-14.0-0.3","615f371e6688c87e53e7acf5","650c16f0f2faf8d7a0d14c09","651c1da3efd0a9a358976884","null","null","<p style=""font-size: 60px; font-family: BACS"">GQrcJud</p>","","","","","","","","",""
"html-keyboard-response","255","697308","0.0-14.0-0.4","615f371e6688c87e53e7acf5","650c16f0f2faf8d7a0d14c09","651c1da3efd0a9a358976884","null","null","<p style=""font-size: 60px; font-family: BACS"">DBlhlMck</p>","","","","","","","","",""
"html-keyboard-response","256","698309","0.0-14.0-0.5","615f371e6688c87e53e7acf5","650c16f0f2faf8d7a0d14c09","651c1da3efd0a9a358976884","null","null","<p style=""font-size: 60px; font-family: BACS"">mbZlrba</p>","","","","","","","","",""
"html-keyboard-response","257","699323","0.0-14.0-0.6","615f371e6688c87e53e7acf5","650c16f0f2faf8d7a0d14c09","651c1da3efd0a9a358976884","null","null","<p style=""font-size: 60px; font-family: BACS"">RdPtDmhc</p>","","","","","","","","",""
"html-keyboard-response","258","700325","0.0-14.0-0.7","615f371e6688c87e53e7acf5","650c16f0f2faf8d7a0d14c09","651c1da3efd0a9a358976884","null","null","<p style=""font-size: 60px; font-family: BACS"">hCktPMd</p>","","","","","","","","",""
"html-keyboard-response","259","701340","0.0-14.0-0.8","615f371e6688c87e53e7acf5","650c16f0f2faf8d7a0d14c09","651c1da3efd0a9a358976884","null","null","<p style=""font-size: 60px; font-family: BACS"">KBKBETRkY</p>","","","","","","","","",""
"html-keyboard-response","260","702342","0.0-14.0-0.9","615f371e6688c87e53e7acf5","650c16f0f2faf8d7a0d14c09","651c1da3efd0a9a358976884","null","null","<p style=""font-size: 60px; font-family: BACS"">JdGmJud</p>","","","","","","","","",""
"html-keyboard-response","261","703356","0.0-14.0-0.10","615f371e6688c87e53e7acf5","650c16f0f2faf8d7a0d14c09","651c1da3efd0a9a358976884","null","null","<p style=""font-size: 60px; font-family: BACS"">YUNkZLkNc</p>","","","","","","","","",""
"html-keyboard-response","262","704373","0.0-14.0-0.11","615f371e6688c87e53e7acf5","650c16f0f2faf8d7a0d14c09","651c1da3efd0a9a358976884","null","null","<p style=""font-size: 60px; font-family: BACS"">JdGmQGb</p>","","","","","","","","",""
"html-keyboard-response","263","705374","0.0-14.0-0.12","615f371e6688c87e53e7acf5","650c16f0f2faf8d7a0d14c09","651c1da3efd0a9a358976884","null","null","<p style=""font-size: 60px; font-family: BACS"">YObATRK</p>","","","","","","","","",""
"html-keyboard-response","264","706389","0.0-14.0-0.13","615f371e6688c87e53e7acf5","650c16f0f2faf8d7a0d14c09","651c1da3efd0a9a358976884","null","null","<p style=""font-size: 60px; font-family: BACS"">GQrcQGb</p>","","","","","","","","",""
"html-keyboard-response","265","707391","0.0-14.0-0.14","615f371e6688c87e53e7acf5","650c16f0f2faf8d7a0d14c09","651c1da3efd0a9a358976884","null","null","<p style=""font-size: 60px; font-family: BACS"">YObAmhc</p>","","","","","","","","",""
"html-keyboard-response","266","708407","0.0-14.0-0.15","615f371e6688c87e53e7acf5","650c16f0f2faf8d7a0d14c09","651c1da3efd0a9a358976884","null","null","<p style=""font-size: 60px; font-family: BACS"">NJZlLkNc</p>","","","","","","","","",""
"html-keyboard-response","267","709408","0.0-14.0-0.16","615f371e6688c87e53e7acf5","650c16f0f2faf8d7a0d14c09","651c1da3efd0a9a358976884","null","null","<p style=""font-size: 60px; font-family: BACS"">DBlhTRkY</p>","","","","","","","","",""
"html-keyboard-response","268","710424","0.0-14.0-0.17","615f371e6688c87e53e7acf5","650c16f0f2faf8d7a0d14c09","651c1da3efd0a9a358976884","null","null","<p style=""font-size: 60px; font-family: BACS"">uQuZcQGb</p>","","","","","","","","",""
"html-keyboard-response","269","711438","0.0-14.0-0.18","615f371e6688c87e53e7acf5","650c16f0f2faf8d7a0d14c09","651c1da3efd0a9a358976884","null","null","<p style=""font-size: 60px; font-family: BACS"">mbZlLkNc</p>","","","","","","","","",""
"html-keyboard-response","270","712440","0.0-14.0-0.19","615f371e6688c87e53e7acf5","650c16f0f2faf8d7a0d14c09","651c1da3efd0a9a358976884","null","null","<p style=""font-size: 60px; font-family: BACS"">YObAlMck</p>","","","","","","","","",""
"html-keyboard-response","271","713456","0.0-14.0-0.20","615f371e6688c87e53e7acf5","650c16f0f2faf8d7a0d14c09","651c1da3efd0a9a358976884","null","null","<p style=""font-size: 60px; font-family: BACS"">ORbkTRK</p>","","","","","","","","",""
"html-keyboard-response","272","714471","0.0-14.0-0.21","615f371e6688c87e53e7acf5","650c16f0f2faf8d7a0d14c09","651c1da3efd0a9a358976884","null","null","<p style=""font-size: 60px; font-family: BACS"">RdPtDPMd</p>","","","","","","","","",""
"html-keyboard-response","273","715472","0.0-14.0-0.22","615f371e6688c87e53e7acf5","650c16f0f2faf8d7a0d14c09","651c1da3efd0a9a358976884","null","null","<p style=""font-size: 60px; font-family: BACS"">aYaNQGb</p>","","","","","","","","",""
"html-keyboard-response","274","716473","0.0-14.0-0.23","615f371e6688c87e53e7acf5","650c16f0f2faf8d7a0d14c09","651c1da3efd0a9a358976884","null","null","<p style=""font-size: 60px; font-family: BACS"">QbkAcUZu</p>","","","","","","","","",""
"html-keyboard-response","275","717488","0.0-14.0-0.24","615f371e6688c87e53e7acf5","650c16f0f2faf8d7a0d14c09","651c1da3efd0a9a358976884","null","null","<p style=""font-size: 60px; font-family: BACS"">KABAmhc</p>","","","","","","","","",""
"html-keyboard-response","276","718504","0.0-14.0-0.25","615f371e6688c87e53e7acf5","650c16f0f2faf8d7a0d14c09","651c1da3efd0a9a358976884","null","null","<p style=""font-size: 60px; font-family: BACS"">YUNkZrba</p>","","","","","","","","",""
"html-keyboard-response","277","719506","0.0-14.0-0.26","615f371e6688c87e53e7acf5","650c16f0f2faf8d7a0d14c09","651c1da3efd0a9a358976884","null","null","<p style=""font-size: 60px; font-family: BACS"">NJZlJud</p>","","","","","","","","",""
"html-keyboard-response","278","720521","0.0-14.0-0.27","615f371e6688c87e53e7acf5","650c16f0f2faf8d7a0d14c09","651c1da3efd0a9a358976884","null","null","<p style=""font-size: 60px; font-family: BACS"">KBKBEPMd</p>","","","","","","","","",""
"html-keyboard-response","279","721523","0.0-14.0-0.28","615f371e6688c87e53e7acf5","650c16f0f2faf8d7a0d14c09","651c1da3efd0a9a358976884","null","null","<p style=""font-size: 60px; font-family: BACS"">lZcurba</p>","","","","","","","","",""
"html-keyboard-response","280","722539","0.0-14.0-0.29","615f371e6688c87e53e7acf5","650c16f0f2faf8d7a0d14c09","651c1da3efd0a9a358976884","null","null","<p style=""font-size: 60px; font-family: BACS"">aYaNUZu</p>","","","","","","","","",""
"html-keyboard-response","281","723539","0.0-14.0-0.30","615f371e6688c87e53e7acf5","650c16f0f2faf8d7a0d14c09","651c1da3efd0a9a358976884","null","null","<p style=""font-size: 60px; font-family: BACS"">JdGmrba</p>","","","","","","","","",""
"html-keyboard-response","282","724554","0.0-14.0-0.31","615f371e6688c87e53e7acf5","650c16f0f2faf8d7a0d14c09","651c1da3efd0a9a358976884","null","null","<p style=""font-size: 60px; font-family: BACS"">YUNkZQGb</p>","","","","","","","","",""
"html-keyboard-response","283","725569","0.0-14.0-0.32","615f371e6688c87e53e7acf5","650c16f0f2faf8d7a0d14c09","651c1da3efd0a9a358976884","null","null","<p style=""font-size: 60px; font-family: BACS"">RkmdCPMd</p>","","","","","","","","",""
"html-keyboard-response","284","726570","0.0-14.0-0.33","615f371e6688c87e53e7acf5","650c16f0f2faf8d7a0d14c09","651c1da3efd0a9a358976884","null","null","<p style=""font-size: 60px; font-family: BACS"">aYaNJud</p>","","","","","","","","",""
"html-keyboard-response","285","727572","0.0-14.0-0.34","615f371e6688c87e53e7acf5","650c16f0f2faf8d7a0d14c09","651c1da3efd0a9a358976884","null","null","<p style=""font-size: 60px; font-family: BACS"">YObAPMd</p>","","","","","","","","",""
"html-keyboard-response","286","728588","0.0-14.0-0.35","615f371e6688c87e53e7acf5","650c16f0f2faf8d7a0d14c09","651c1da3efd0a9a358976884","null","null","<p style=""font-size: 60px; font-family: BACS"">JdGmLkNc</p>","","","","","","","","",""
"html-keyboard-response","287","729604","0.0-14.0-0.36","615f371e6688c87e53e7acf5","650c16f0f2faf8d7a0d14c09","651c1da3efd0a9a358976884","null","null","<p style=""font-size: 60px; font-family: BACS"">mbZlJud</p>","","","","","","","","",""
"html-keyboard-response","288","730620","0.0-14.0-0.37","615f371e6688c87e53e7acf5","650c16f0f2faf8d7a0d14c09","651c1da3efd0a9a358976884","null","null","<p style=""font-size: 60px; font-family: BACS"">NJZlUZu</p>","","","","","","","","",""
"html-keyboard-response","289","731637","0.0-14.0-0.38","615f371e6688c87e53e7acf5","650c16f0f2faf8d7a0d14c09","651c1da3efd0a9a358976884","null","null","<p style=""font-size: 60px; font-family: BACS"">McMDTRkY</p>","","","","","","","","",""
"html-keyboard-response","290","732652","0.0-14.0-0.39","615f371e6688c87e53e7acf5","650c16f0f2faf8d7a0d14c09","651c1da3efd0a9a358976884","null","null","<p style=""font-size: 60px; font-family: BACS"">RdPtDTRK</p>","","","","","","","","",""
"html-keyboard-response","291","733654","0.0-14.0-0.40","615f371e6688c87e53e7acf5","650c16f0f2faf8d7a0d14c09","651c1da3efd0a9a358976884","null","null","<p style=""font-size: 60px; font-family: BACS"">ECtbDlMck</p>","","","","","","","","",""
"html-keyboard-response","292","734670","0.0-14.0-0.41","615f371e6688c87e53e7acf5","650c16f0f2faf8d7a0d14c09","651c1da3efd0a9a358976884","null","null","<p style=""font-size: 60px; font-family: BACS"">GQrcrba</p>","","","","","","","","",""
"html-keyboard-response","293","735671","0.0-14.0-0.42","615f371e6688c87e53e7acf5","650c16f0f2faf8d7a0d14c09","651c1da3efd0a9a358976884","null","null","<p style=""font-size: 60px; font-family: BACS"">McMDmhc</p>","","","","","","","","",""
"html-keyboard-response","294","736687","0.0-14.0-0.43","615f371e6688c87e53e7acf5","650c16f0f2faf8d7a0d14c09","651c1da3efd0a9a358976884","null","null","<p style=""font-size: 60px; font-family: BACS"">mbZlUZu</p>","","","","","","","","",""
"html-keyboard-response","295","737704","0.0-14.0-0.44","615f371e6688c87e53e7acf5","650c16f0f2faf8d7a0d14c09","651c1da3efd0a9a358976884","null","null","<p style=""font-size: 60px; font-family: BACS"">hCktTRkY</p>","","","","","","","","",""
"html-keyboard-response","296","738705","0.0-14.0-0.45","615f371e6688c87e53e7acf5","650c16f0f2faf8d7a0d14c09","651c1da3efd0a9a358976884","null","null","<p style=""font-size: 60px; font-family: BACS"">aYaNLkNc</p>","","","","","","","","",""
"html-keyboard-response","297","739714","0.0-14.0-0.46","615f371e6688c87e53e7acf5","650c16f0f2faf8d7a0d14c09","651c1da3efd0a9a358976884","null","null","<p style=""font-size: 60px; font-family: BACS"">KBKBEmhc</p>","","","","","","","","",""
"html-keyboard-response","298","740720","0.0-14.0-0.47","615f371e6688c87e53e7acf5","650c16f0f2faf8d7a0d14c09","651c1da3efd0a9a358976884","null","null","<p style=""font-size: 60px; font-family: BACS"">aYQmJud</p>","","","","","","","","",""
"html-keyboard-response","299","741736","0.0-14.0-0.48","615f371e6688c87e53e7acf5","650c16f0f2faf8d7a0d14c09","651c1da3efd0a9a358976884","null","null","<p style=""font-size: 60px; font-family: BACS"">hCktTRK</p>","","","","","","","","",""
"html-keyboard-response","300","742752","0.0-14.0-0.49","615f371e6688c87e53e7acf5","650c16f0f2faf8d7a0d14c09","651c1da3efd0a9a358976884","null","null","<p style=""font-size: 60px; font-family: BACS"">QbkAcLkNc</p>","","","","","","","","",""
"html-keyboard-response","301","743753","0.0-14.0-0.50","615f371e6688c87e53e7acf5","650c16f0f2faf8d7a0d14c09","651c1da3efd0a9a358976884","null","null","<p style=""font-size: 60px; font-family: BACS"">uQuZcUZu</p>","","","","","","","","",""
"html-keyboard-response","302","744769","0.0-14.0-0.51","615f371e6688c87e53e7acf5","650c16f0f2faf8d7a0d14c09","651c1da3efd0a9a358976884","null","null","<p style=""font-size: 60px; font-family: BACS"">KABATRkY</p>","","","","","","","","",""
"html-keyboard-response","303","745785","0.0-14.0-0.52","615f371e6688c87e53e7acf5","650c16f0f2faf8d7a0d14c09","651c1da3efd0a9a358976884","null","null","<p style=""font-size: 60px; font-family: BACS"">uQuZcrba</p>","","","","","","","","",""
"html-keyboard-response","304","746786","0.0-14.0-0.53","615f371e6688c87e53e7acf5","650c16f0f2faf8d7a0d14c09","651c1da3efd0a9a358976884","null","null","<p style=""font-size: 60px; font-family: BACS"">KABATRK</p>","","","","","","","","",""
"html-keyboard-response","305","747787","0.0-14.0-0.54","615f371e6688c87e53e7acf5","650c16f0f2faf8d7a0d14c09","651c1da3efd0a9a358976884","null","null","<p style=""font-size: 60px; font-family: BACS"">uQuZcJud</p>","","","","","","","","",""
"html-keyboard-response","306","748802","0.0-14.0-0.55","615f371e6688c87e53e7acf5","650c16f0f2faf8d7a0d14c09","651c1da3efd0a9a358976884","null","null","<p style=""font-size: 60px; font-family: BACS"">aYQmLkNc</p>","","","","","","","","",""
"html-keyboard-response","307","749819","0.0-14.0-0.56","615f371e6688c87e53e7acf5","650c16f0f2faf8d7a0d14c09","651c1da3efd0a9a358976884","null","null","<p style=""font-size: 60px; font-family: BACS"">ORbklMck</p>","","","","","","","","",""
"html-keyboard-response","308","750835","0.0-14.0-0.57","615f371e6688c87e53e7acf5","650c16f0f2faf8d7a0d14c09","651c1da3efd0a9a358976884","null","null","<p style=""font-size: 60px; font-family: BACS"">lZcuLkNc</p>","","","","","","","","",""
"html-keyboard-response","309","751836","0.0-14.0-0.58","615f371e6688c87e53e7acf5","650c16f0f2faf8d7a0d14c09","651c1da3efd0a9a358976884","null","null","<p style=""font-size: 60px; font-family: BACS"">KBKBElMck</p>","","","","","","","","",""
"html-keyboard-response","310","752853","0.0-14.0-0.59","615f371e6688c87e53e7acf5","650c16f0f2faf8d7a0d14c09","651c1da3efd0a9a358976884","null","null","<p style=""font-size: 60px; font-family: BACS"">ECtbDPMd</p>","","","","","","","","",""
"html-keyboard-response","311","753854","0.0-14.0-0.60","615f371e6688c87e53e7acf5","650c16f0f2faf8d7a0d14c09","651c1da3efd0a9a358976884","null","null","<p style=""font-size: 60px; font-family: BACS"">DBlhTRK</p>","","","","","","","","",""
"html-keyboard-response","312","754869","0.0-14.0-0.61","615f371e6688c87e53e7acf5","650c16f0f2faf8d7a0d14c09","651c1da3efd0a9a358976884","null","null","<p style=""font-size: 60px; font-family: BACS"">RkmdCmhc</p>","","","","","","","","",""
"html-keyboard-response","313","755884","0.0-14.0-0.62","615f371e6688c87e53e7acf5","650c16f0f2faf8d7a0d14c09","651c1da3efd0a9a358976884","null","null","<p style=""font-size: 60px; font-family: BACS"">aYQmQGb</p>","","","","","","","","",""
"html-keyboard-response","314","756885","0.0-14.0-0.63","615f371e6688c87e53e7acf5","650c16f0f2faf8d7a0d14c09","651c1da3efd0a9a358976884","null","null","<p style=""font-size: 60px; font-family: BACS"">RkmdCTRkY</p>","","","","","","","","",""
"html-keyboard-response","315","757901","0.0-14.0-0.64","615f371e6688c87e53e7acf5","650c16f0f2faf8d7a0d14c09","651c1da3efd0a9a358976884","null","null","<p style=""font-size: 60px; font-family: BACS"">aYQmrba</p>","","","","","","","","",""
"html-keyboard-response","316","758917","0.0-14.0-0.65","615f371e6688c87e53e7acf5","650c16f0f2faf8d7a0d14c09","651c1da3efd0a9a358976884","null","null","<p style=""font-size: 60px; font-family: BACS"">YUNkZUZu</p>","","","","","","","","",""
"html-keyboard-response","317","759918","0.0-14.0-0.66","615f371e6688c87e53e7acf5","650c16f0f2faf8d7a0d14c09","651c1da3efd0a9a358976884","null","null","<p style=""font-size: 60px; font-family: BACS"">NJZlrba</p>","","","","","","","","",""
"html-keyboard-response","318","760933","0.0-14.0-0.67","615f371e6688c87e53e7acf5","650c16f0f2faf8d7a0d14c09","651c1da3efd0a9a358976884","null","null","<p style=""font-size: 60px; font-family: BACS"">DBlhPMd</p>","","","","","","","","",""
"html-keyboard-response","319","761936","0.0-14.0-0.68","615f371e6688c87e53e7acf5","650c16f0f2faf8d7a0d14c09","651c1da3efd0a9a358976884","null","null","<p style=""font-size: 60px; font-family: BACS"">RkmdCTRK</p>","","","","","","","","",""
"html-keyboard-response","320","762951","0.0-14.0-0.69","615f371e6688c87e53e7acf5","650c16f0f2faf8d7a0d14c09","651c1da3efd0a9a358976884","null","null","<p style=""font-size: 60px; font-family: BACS"">ECtbDmhc</p>","","","","","","","","",""
"html-keyboard-response","321","763952","0.0-14.0-0.70","615f371e6688c87e53e7acf5","650c16f0f2faf8d7a0d14c09","651c1da3efd0a9a358976884","null","null","<p style=""font-size: 60px; font-family: BACS"">QbkAcQGb</p>","","","","","","","","",""
"html-keyboard-response","322","764969","0.0-14.0-0.71","615f371e6688c87e53e7acf5","650c16f0f2faf8d7a0d14c09","651c1da3efd0a9a358976884","null","null","<p style=""font-size: 60px; font-family: BACS"">ORbkmhc</p>","","","","","","","","",""
"html-keyboard-response","323","765984","0.0-14.0-0.72","615f371e6688c87e53e7acf5","650c16f0f2faf8d7a0d14c09","651c1da3efd0a9a358976884","null","null","<p style=""font-size: 60px; font-family: BACS"">QbkAcJud</p>","","","","","","","","",""
"html-keyboard-response","324","766985","0.0-14.0-0.73","615f371e6688c87e53e7acf5","650c16f0f2faf8d7a0d14c09","651c1da3efd0a9a358976884","null","null","<p style=""font-size: 60px; font-family: BACS"">lZcuUZu</p>","","","","","","","","",""
"html-keyboard-response","325","768001","0.0-14.0-0.74","615f371e6688c87e53e7acf5","650c16f0f2faf8d7a0d14c09","651c1da3efd0a9a358976884","null","null","<p style=""font-size: 60px; font-family: BACS"">ORbkPMd</p>","","","","","","","","",""
"html-keyboard-response","326","769002","0.0-14.0-0.75","615f371e6688c87e53e7acf5","650c16f0f2faf8d7a0d14c09","651c1da3efd0a9a358976884","null","null","<p style=""font-size: 60px; font-family: BACS"">ECtbDTRkY</p>","","","","","","","","",""
"html-keyboard-response","327","770016","0.0-14.0-0.76","615f371e6688c87e53e7acf5","650c16f0f2faf8d7a0d14c09","651c1da3efd0a9a358976884","null","null","<p style=""font-size: 60px; font-family: BACS"">KABAlMck</p>","","","","","","","","",""
"html-keyboard-response","328","771018","0.0-14.0-0.77","615f371e6688c87e53e7acf5","650c16f0f2faf8d7a0d14c09","651c1da3efd0a9a358976884","null","null","<p style=""font-size: 60px; font-family: BACS"">RdPtDTRkY</p>","","","","","","","","",""
"html-keyboard-response","329","772034","0.0-14.0-0.78","615f371e6688c87e53e7acf5","650c16f0f2faf8d7a0d14c09","651c1da3efd0a9a358976884","null","null","<p style=""font-size: 60px; font-family: BACS"">GQrcUZu</p>","","","","","","","","",""
"html-keyboard-response","330","773049","0.0-14.0-0.79","615f371e6688c87e53e7acf5","650c16f0f2faf8d7a0d14c09","651c1da3efd0a9a358976884","null","null","<p style=""font-size: 60px; font-family: BACS"">McMDlMck</p>","","","","","","","","",""
"html-keyboard-response","331","776215","0.0-15.0","615f371e6688c87e53e7acf5","650c16f0f2faf8d7a0d14c09","651c1da3efd0a9a358976884","3166"," ","<p>Great, you've seen the fourth block of words. You may now take a short break.</p>
      <p>Press the spacebar when you're ready to continue.</p>","","","","","","","","",""
"html-keyboard-response","332","777218","0.0-16.0-0.0","615f371e6688c87e53e7acf5","650c16f0f2faf8d7a0d14c09","651c1da3efd0a9a358976884","null","null","<p style=""font-size: 60px; font-family: BACS"">GQrcJud</p>","","","","","","","","",""
"html-keyboard-response","333","778233","0.0-16.0-0.1","615f371e6688c87e53e7acf5","650c16f0f2faf8d7a0d14c09","651c1da3efd0a9a358976884","null","null","<p style=""font-size: 60px; font-family: BACS"">GQrcJud</p>","","","","","","","","",""
"html-keyboard-response","334","779234","0.0-16.0-0.2","615f371e6688c87e53e7acf5","650c16f0f2faf8d7a0d14c09","651c1da3efd0a9a358976884","null","null","<p style=""font-size: 60px; font-family: BACS"">GQrcJud</p>","","","","","","","","",""
"html-keyboard-response","335","780249","0.0-16.0-0.3","615f371e6688c87e53e7acf5","650c16f0f2faf8d7a0d14c09","651c1da3efd0a9a358976884","null","null","<p style=""font-size: 60px; font-family: BACS"">GQrcJud</p>","","","","","","","","",""
"html-keyboard-response","336","781265","0.0-16.0-0.4","615f371e6688c87e53e7acf5","650c16f0f2faf8d7a0d14c09","651c1da3efd0a9a358976884","null","null","<p style=""font-size: 60px; font-family: BACS"">GQrcJud</p>","","","","","","","","",""
"html-keyboard-response","337","782266","0.0-16.0-0.5","615f371e6688c87e53e7acf5","650c16f0f2faf8d7a0d14c09","651c1da3efd0a9a358976884","null","null","<p style=""font-size: 60px; font-family: BACS"">GQrcJud</p>","","","","","","","","",""
"html-keyboard-response","338","783266","0.0-16.0-0.6","615f371e6688c87e53e7acf5","650c16f0f2faf8d7a0d14c09","651c1da3efd0a9a358976884","null","null","<p style=""font-size: 60px; font-family: BACS"">GQrcJud</p>","","","","","","","","",""
"html-keyboard-response","339","784282","0.0-16.0-0.7","615f371e6688c87e53e7acf5","650c16f0f2faf8d7a0d14c09","651c1da3efd0a9a358976884","null","null","<p style=""font-size: 60px; font-family: BACS"">GQrcJud</p>","","","","","","","","",""
"html-keyboard-response","340","785283","0.0-16.0-0.8","615f371e6688c87e53e7acf5","650c16f0f2faf8d7a0d14c09","651c1da3efd0a9a358976884","null","null","<p style=""font-size: 60px; font-family: BACS"">GQrcJud</p>","","","","","","","","",""
"html-keyboard-response","341","786298","0.0-16.0-0.9","615f371e6688c87e53e7acf5","650c16f0f2faf8d7a0d14c09","651c1da3efd0a9a358976884","null","null","<p style=""font-size: 60px; font-family: BACS"">GQrcJud</p>","","","","","","","","",""
"html-keyboard-response","342","787299","0.0-16.0-0.10","615f371e6688c87e53e7acf5","650c16f0f2faf8d7a0d14c09","651c1da3efd0a9a358976884","null","null","<p style=""font-size: 60px; font-family: BACS"">GQrcJud</p>","","","","","","","","",""
"html-keyboard-response","343","788315","0.0-16.0-0.11","615f371e6688c87e53e7acf5","650c16f0f2faf8d7a0d14c09","651c1da3efd0a9a358976884","null","null","<p style=""font-size: 60px; font-family: BACS"">GQrcJud</p>","","","","","","","","",""
"html-keyboard-response","344","789316","0.0-16.0-0.12","615f371e6688c87e53e7acf5","650c16f0f2faf8d7a0d14c09","651c1da3efd0a9a358976884","null","null","<p style=""font-size: 60px; font-family: BACS"">GQrcJud</p>","","","","","","","","",""
"html-keyboard-response","345","790332","0.0-16.0-0.13","615f371e6688c87e53e7acf5","650c16f0f2faf8d7a0d14c09","651c1da3efd0a9a358976884","null","null","<p style=""font-size: 60px; font-family: BACS"">GQrcJud</p>","","","","","","","","",""
"html-keyboard-response","346","791347","0.0-16.0-0.14","615f371e6688c87e53e7acf5","650c16f0f2faf8d7a0d14c09","651c1da3efd0a9a358976884","null","null","<p style=""font-size: 60px; font-family: BACS"">GQrcJud</p>","","","","","","","","",""
"html-keyboard-response","347","792363","0.0-16.0-0.15","615f371e6688c87e53e7acf5","650c16f0f2faf8d7a0d14c09","651c1da3efd0a9a358976884","null","null","<p style=""font-size: 60px; font-family: BACS"">GQrcJud</p>","","","","","","","","",""
"html-keyboard-response","348","793366","0.0-16.0-0.16","615f371e6688c87e53e7acf5","650c16f0f2faf8d7a0d14c09","651c1da3efd0a9a358976884","null","null","<p style=""font-size: 60px; font-family: BACS"">GQrcJud</p>","","","","","","","","",""
"html-keyboard-response","349","794380","0.0-16.0-0.17","615f371e6688c87e53e7acf5","650c16f0f2faf8d7a0d14c09","651c1da3efd0a9a358976884","null","null","<p style=""font-size: 60px; font-family: BACS"">GQrcJud</p>","","","","","","","","",""
"html-keyboard-response","350","795397","0.0-16.0-0.18","615f371e6688c87e53e7acf5","650c16f0f2faf8d7a0d14c09","651c1da3efd0a9a358976884","null","null","<p style=""font-size: 60px; font-family: BACS"">GQrcJud</p>","","","","","","","","",""
"html-keyboard-response","351","796414","0.0-16.0-0.19","615f371e6688c87e53e7acf5","650c16f0f2faf8d7a0d14c09","651c1da3efd0a9a358976884","null","null","<p style=""font-size: 60px; font-family: BACS"">GQrcJud</p>","","","","","","","","",""
"html-keyboard-response","352","797430","0.0-16.0-0.20","615f371e6688c87e53e7acf5","650c16f0f2faf8d7a0d14c09","651c1da3efd0a9a358976884","null","null","<p style=""font-size: 60px; font-family: BACS"">GQrcJud</p>","","","","","","","","",""
"html-keyboard-response","353","798431","0.0-16.0-0.21","615f371e6688c87e53e7acf5","650c16f0f2faf8d7a0d14c09","651c1da3efd0a9a358976884","null","null","<p style=""font-size: 60px; font-family: BACS"">GQrcJud</p>","","","","","","","","",""
"html-keyboard-response","354","799446","0.0-16.0-0.22","615f371e6688c87e53e7acf5","650c16f0f2faf8d7a0d14c09","651c1da3efd0a9a358976884","null","null","<p style=""font-size: 60px; font-family: BACS"">GQrcJud</p>","","","","","","","","",""
"html-keyboard-response","355","800462","0.0-16.0-0.23","615f371e6688c87e53e7acf5","650c16f0f2faf8d7a0d14c09","651c1da3efd0a9a358976884","null","null","<p style=""font-size: 60px; font-family: BACS"">GQrcJud</p>","","","","","","","","",""
"html-keyboard-response","356","801463","0.0-16.0-0.24","615f371e6688c87e53e7acf5","650c16f0f2faf8d7a0d14c09","651c1da3efd0a9a358976884","null","null","<p style=""font-size: 60px; font-family: BACS"">GQrcJud</p>","","","","","","","","",""
"html-keyboard-response","357","802479","0.0-16.0-0.25","615f371e6688c87e53e7acf5","650c16f0f2faf8d7a0d14c09","651c1da3efd0a9a358976884","null","null","<p style=""font-size: 60px; font-family: BACS"">GQrcJud</p>","","","","","","","","",""
"html-keyboard-response","358","803480","0.0-16.0-0.26","615f371e6688c87e53e7acf5","650c16f0f2faf8d7a0d14c09","651c1da3efd0a9a358976884","null","null","<p style=""font-size: 60px; font-family: BACS"">GQrcJud</p>","","","","","","","","",""
"html-keyboard-response","359","804480","0.0-16.0-0.27","615f371e6688c87e53e7acf5","650c16f0f2faf8d7a0d14c09","651c1da3efd0a9a358976884","null","null","<p style=""font-size: 60px; font-family: BACS"">GQrcJud</p>","","","","","","","","",""
"html-keyboard-response","360","805497","0.0-16.0-0.28","615f371e6688c87e53e7acf5","650c16f0f2faf8d7a0d14c09","651c1da3efd0a9a358976884","null","null","<p style=""font-size: 60px; font-family: BACS"">GQrcJud</p>","","","","","","","","",""
"html-keyboard-response","361","806498","0.0-16.0-0.29","615f371e6688c87e53e7acf5","650c16f0f2faf8d7a0d14c09","651c1da3efd0a9a358976884","null","null","<p style=""font-size: 60px; font-family: BACS"">GQrcJud</p>","","","","","","","","",""
"html-keyboard-response","362","807511","0.0-16.0-0.30","615f371e6688c87e53e7acf5","650c16f0f2faf8d7a0d14c09","651c1da3efd0a9a358976884","null","null","<p style=""font-size: 60px; font-family: BACS"">GQrcJud</p>","","","","","","","","",""
"html-keyboard-response","363","808514","0.0-16.0-0.31","615f371e6688c87e53e7acf5","650c16f0f2faf8d7a0d14c09","651c1da3efd0a9a358976884","null","null","<p style=""font-size: 60px; font-family: BACS"">GQrcJud</p>","","","","","","","","",""
"html-keyboard-response","364","809530","0.0-16.0-0.32","615f371e6688c87e53e7acf5","650c16f0f2faf8d7a0d14c09","651c1da3efd0a9a358976884","null","null","<p style=""font-size: 60px; font-family: BACS"">GQrcJud</p>","","","","","","","","",""
"html-keyboard-response","365","810531","0.0-16.0-0.33","615f371e6688c87e53e7acf5","650c16f0f2faf8d7a0d14c09","651c1da3efd0a9a358976884","null","null","<p style=""font-size: 60px; font-family: BACS"">GQrcJud</p>","","","","","","","","",""
"html-keyboard-response","366","811547","0.0-16.0-0.34","615f371e6688c87e53e7acf5","650c16f0f2faf8d7a0d14c09","651c1da3efd0a9a358976884","null","null","<p style=""font-size: 60px; font-family: BACS"">GQrcJud</p>","","","","","","","","",""
"html-keyboard-response","367","812563","0.0-16.0-0.35","615f371e6688c87e53e7acf5","650c16f0f2faf8d7a0d14c09","651c1da3efd0a9a358976884","null","null","<p style=""font-size: 60px; font-family: BACS"">GQrcJud</p>","","","","","","","","",""
"html-keyboard-response","368","813564","0.0-16.0-0.36","615f371e6688c87e53e7acf5","650c16f0f2faf8d7a0d14c09","651c1da3efd0a9a358976884","null","null","<p style=""font-size: 60px; font-family: BACS"">GQrcJud</p>","","","","","","","","",""
"html-keyboard-response","369","814580","0.0-16.0-0.37","615f371e6688c87e53e7acf5","650c16f0f2faf8d7a0d14c09","651c1da3efd0a9a358976884","null","null","<p style=""font-size: 60px; font-family: BACS"">GQrcJud</p>","","","","","","","","",""
"html-keyboard-response","370","815581","0.0-16.0-0.38","615f371e6688c87e53e7acf5","650c16f0f2faf8d7a0d14c09","651c1da3efd0a9a358976884","null","null","<p style=""font-size: 60px; font-family: BACS"">GQrcJud</p>","","","","","","","","",""
"html-keyboard-response","371","816594","0.0-16.0-0.39","615f371e6688c87e53e7acf5","650c16f0f2faf8d7a0d14c09","651c1da3efd0a9a358976884","null","null","<p style=""font-size: 60px; font-family: BACS"">GQrcJud</p>","","","","","","","","",""
"html-keyboard-response","372","817595","0.0-16.0-0.40","615f371e6688c87e53e7acf5","650c16f0f2faf8d7a0d14c09","651c1da3efd0a9a358976884","null","null","<p style=""font-size: 60px; font-family: BACS"">GQrcJud</p>","","","","","","","","",""
"html-keyboard-response","373","818596","0.0-16.0-0.41","615f371e6688c87e53e7acf5","650c16f0f2faf8d7a0d14c09","651c1da3efd0a9a358976884","null","null","<p style=""font-size: 60px; font-family: BACS"">GQrcJud</p>","","","","","","","","",""
"html-keyboard-response","374","819611","0.0-16.0-0.42","615f371e6688c87e53e7acf5","650c16f0f2faf8d7a0d14c09","651c1da3efd0a9a358976884","null","null","<p style=""font-size: 60px; font-family: BACS"">GQrcJud</p>","","","","","","","","",""
"html-keyboard-response","375","820612","0.0-16.0-0.43","615f371e6688c87e53e7acf5","650c16f0f2faf8d7a0d14c09","651c1da3efd0a9a358976884","null","null","<p style=""font-size: 60px; font-family: BACS"">GQrcJud</p>","","","","","","","","",""
"html-keyboard-response","376","821628","0.0-16.0-0.44","615f371e6688c87e53e7acf5","650c16f0f2faf8d7a0d14c09","651c1da3efd0a9a358976884","null","null","<p style=""font-size: 60px; font-family: BACS"">GQrcJud</p>","","","","","","","","",""
"html-keyboard-response","377","822629","0.0-16.0-0.45","615f371e6688c87e53e7acf5","650c16f0f2faf8d7a0d14c09","651c1da3efd0a9a358976884","null","null","<p style=""font-size: 60px; font-family: BACS"">GQrcJud</p>","","","","","","","","",""
"html-keyboard-response","378","823644","0.0-16.0-0.46","615f371e6688c87e53e7acf5","650c16f0f2faf8d7a0d14c09","651c1da3efd0a9a358976884","null","null","<p style=""font-size: 60px; font-family: BACS"">GQrcJud</p>","","","","","","","","",""
"html-keyboard-response","379","824645","0.0-16.0-0.47","615f371e6688c87e53e7acf5","650c16f0f2faf8d7a0d14c09","651c1da3efd0a9a358976884","null","null","<p style=""font-size: 60px; font-family: BACS"">GQrcJud</p>","","","","","","","","",""
"html-keyboard-response","380","825661","0.0-16.0-0.48","615f371e6688c87e53e7acf5","650c16f0f2faf8d7a0d14c09","651c1da3efd0a9a358976884","null","null","<p style=""font-size: 60px; font-family: BACS"">GQrcJud</p>","","","","","","","","",""
"html-keyboard-response","381","826661","0.0-16.0-0.49","615f371e6688c87e53e7acf5","650c16f0f2faf8d7a0d14c09","651c1da3efd0a9a358976884","null","null","<p style=""font-size: 60px; font-family: BACS"">GQrcJud</p>","","","","","","","","",""
"html-keyboard-response","382","827678","0.0-16.0-0.50","615f371e6688c87e53e7acf5","650c16f0f2faf8d7a0d14c09","651c1da3efd0a9a358976884","null","null","<p style=""font-size: 60px; font-family: BACS"">GQrcJud</p>","","","","","","","","",""
"html-keyboard-response","383","828694","0.0-16.0-0.51","615f371e6688c87e53e7acf5","650c16f0f2faf8d7a0d14c09","651c1da3efd0a9a358976884","null","null","<p style=""font-size: 60px; font-family: BACS"">GQrcJud</p>","","","","","","","","",""
"html-keyboard-response","384","829695","0.0-16.0-0.52","615f371e6688c87e53e7acf5","650c16f0f2faf8d7a0d14c09","651c1da3efd0a9a358976884","null","null","<p style=""font-size: 60px; font-family: BACS"">GQrcJud</p>","","","","","","","","",""
"html-keyboard-response","385","830711","0.0-16.0-0.53","615f371e6688c87e53e7acf5","650c16f0f2faf8d7a0d14c09","651c1da3efd0a9a358976884","null","null","<p style=""font-size: 60px; font-family: BACS"">GQrcJud</p>","","","","","","","","",""
"html-keyboard-response","386","831712","0.0-16.0-0.54","615f371e6688c87e53e7acf5","650c16f0f2faf8d7a0d14c09","651c1da3efd0a9a358976884","null","null","<p style=""font-size: 60px; font-family: BACS"">GQrcJud</p>","","","","","","","","",""
"html-keyboard-response","387","832727","0.0-16.0-0.55","615f371e6688c87e53e7acf5","650c16f0f2faf8d7a0d14c09","651c1da3efd0a9a358976884","null","null","<p style=""font-size: 60px; font-family: BACS"">GQrcJud</p>","","","","","","","","",""
"html-keyboard-response","388","833743","0.0-16.0-0.56","615f371e6688c87e53e7acf5","650c16f0f2faf8d7a0d14c09","651c1da3efd0a9a358976884","null","null","<p style=""font-size: 60px; font-family: BACS"">GQrcJud</p>","","","","","","","","",""
"html-keyboard-response","389","834745","0.0-16.0-0.57","615f371e6688c87e53e7acf5","650c16f0f2faf8d7a0d14c09","651c1da3efd0a9a358976884","null","null","<p style=""font-size: 60px; font-family: BACS"">GQrcJud</p>","","","","","","","","",""
"html-keyboard-response","390","835760","0.0-16.0-0.58","615f371e6688c87e53e7acf5","650c16f0f2faf8d7a0d14c09","651c1da3efd0a9a358976884","null","null","<p style=""font-size: 60px; font-family: BACS"">GQrcJud</p>","","","","","","","","",""
"html-keyboard-response","391","836777","0.0-16.0-0.59","615f371e6688c87e53e7acf5","650c16f0f2faf8d7a0d14c09","651c1da3efd0a9a358976884","null","null","<p style=""font-size: 60px; font-family: BACS"">GQrcJud</p>","","","","","","","","",""
"html-keyboard-response","392","837778","0.0-16.0-0.60","615f371e6688c87e53e7acf5","650c16f0f2faf8d7a0d14c09","651c1da3efd0a9a358976884","null","null","<p style=""font-size: 60px; font-family: BACS"">GQrcJud</p>","","","","","","","","",""
"html-keyboard-response","393","838792","0.0-16.0-0.61","615f371e6688c87e53e7acf5","650c16f0f2faf8d7a0d14c09","651c1da3efd0a9a358976884","null","null","<p style=""font-size: 60px; font-family: BACS"">GQrcJud</p>","","","","","","","","",""
"html-keyboard-response","394","839794","0.0-16.0-0.62","615f371e6688c87e53e7acf5","650c16f0f2faf8d7a0d14c09","651c1da3efd0a9a358976884","null","null","<p style=""font-size: 60px; font-family: BACS"">GQrcJud</p>","","","","","","","","",""
"html-keyboard-response","395","840809","0.0-16.0-0.63","615f371e6688c87e53e7acf5","650c16f0f2faf8d7a0d14c09","651c1da3efd0a9a358976884","null","null","<p style=""font-size: 60px; font-family: BACS"">GQrcJud</p>","","","","","","","","",""
"html-keyboard-response","396","841810","0.0-16.0-0.64","615f371e6688c87e53e7acf5","650c16f0f2faf8d7a0d14c09","651c1da3efd0a9a358976884","null","null","<p style=""font-size: 60px; font-family: BACS"">GQrcJud</p>","","","","","","","","",""
"html-keyboard-response","397","842825","0.0-16.0-0.65","615f371e6688c87e53e7acf5","650c16f0f2faf8d7a0d14c09","651c1da3efd0a9a358976884","null","null","<p style=""font-size: 60px; font-family: BACS"">GQrcJud</p>","","","","","","","","",""
"html-keyboard-response","398","843826","0.0-16.0-0.66","615f371e6688c87e53e7acf5","650c16f0f2faf8d7a0d14c09","651c1da3efd0a9a358976884","null","null","<p style=""font-size: 60px; font-family: BACS"">GQrcJud</p>","","","","","","","","",""
"html-keyboard-response","399","844842","0.0-16.0-0.67","615f371e6688c87e53e7acf5","650c16f0f2faf8d7a0d14c09","651c1da3efd0a9a358976884","null","null","<p style=""font-size: 60px; font-family: BACS"">GQrcJud</p>","","","","","","","","",""
"html-keyboard-response","400","845858","0.0-16.0-0.68","615f371e6688c87e53e7acf5","650c16f0f2faf8d7a0d14c09","651c1da3efd0a9a358976884","null","null","<p style=""font-size: 60px; font-family: BACS"">GQrcJud</p>","","","","","","","","",""
