"trial_type","trial_index","time_elapsed","internal_node_id","subject_id","study_id","session_id","rt","response","stimulus","success","item","task","correct_response","correct","target","confound","name"
"pavlovia","0","2752","0.0-0.0","5f4cc4ea00dba58ecd5a98a4","64afc2c9a8732ea92db0087d","64afd4a9411e63abb33613f4","","","","","","","","","","",""
"survey-html-form","1","319910","0.0-1.0","5f4cc4ea00dba58ecd5a98a4","64afc2c9a8732ea92db0087d","64afd4a9411e63abb33613f4","317156","{""ID"":""5f4cc4ea00dba58ecd5a98a4""}","","","","","","","","",""
"html-keyboard-response","2","361896","0.0-2.0","5f4cc4ea00dba58ecd5a98a4","64afc2c9a8732ea92db0087d","64afd4a9411e63abb33613f4","41985"," ","<p style=""font-size: 15px;"">Prima di cominciare, le chiediamo di leggere il modulo di consenso informato e confermare la sua volontà di partecipare all'esperimento.</p>
      <p style=""font-size: 15px;""> La preghiamo di ricordare che questo è un progetto di ricerca e che la sua partecipazione è completamente volontaria. Lei si potra' ritirare in qualunque momento, senza necessariamente dover dare alcuna spiegazione. Lo studio al quale Le si chiede di partecipare ha lo scopo di esaminare come i lettori elaborano le parole scritte. La somministrazione delle prove è individuale. Lei sarà impegnato in una sessione di lavoro della durata media di 10 minuti, e un questionario di 10 minuti. L’ordine delle prove ed il loro svolgimento sono stabiliti in modo tale da evitare un eventuale affaticamento. Tutte le prove saranno precedute da un breve addestramento in modo tale che abbia la possibilità di familiarizzare con il compito. Sono previste alcune pause nel corso dello svolgimento dell’esperimento. Una ricompensa di £4 (£8 per ora) Le verrà consegnata al termine della sessione di testing. Nonostante il testing preveda delle prove cognitive, il presente esperimento non costituisce una prova clinica che permetta la diagnosi di eventuali patologie.</p>
      <p style=""font-size: 15px;"">Tutti i dati raccolti grazie alla partecipazione Sua e di altre persone volontarie saranno custoditi in server sicuri e protetti da password, e non sarà consentito ad alcuna persona non autorizzata di accedervi. Le Sue informazioni personali saranno conservate separatamente dai risultati della presente ricerca, cui saranno associati soltanto attraverso un ID arbitrario. Grazie a questo processo di anonimizzazione dei dati, a nessun ricercatore sarà possibile analizzare i risultati sapendo da quale specifico partecipante essi provengono. Inoltre, questa procedura renderà impossibile la Sua identificazione anche nel momento in cui i risultati della ricerca fossero pubblicati su riviste scientifiche, o presentati a congressi o in qualsiasi altro pubblico consesso. Più in generale, i dati raccolti saranno trattati in accordo con le leggi sulla privacy e in conformità al Decreto Legislativo 30 giugno 2003 n. 196 “Codice in materia di protezione dei dati personali” e al Regolamento Europeo 2016/679 (General Data Protection Regulation - GDPR). Il Responsabile della protezione dei dati (RPD) è l’Avv. Valentina Carollo che può essere contattato ai seguenti indirizzi email: <a href=""mailto:dpo@sissa.it"">dpo@sissa.it</a> oppure <a href=""mailto:rpd@sissa.it"">rpd@sissa.it</a> - PEC: <a href=""mailto:protocollo@pec.sissa.it"">protocollo@pec.sissa.it</a>.</p>
      <p style=""font-size: 15px;""> Prima di esprimere il suo consenso alla partecipazione, Le ricordiamo ancora che in caso Lei abbia bisogno di delucidazioni su qualunque aspetto della procedura sperimentale, il ricercatore è a Sua completa disposizione (<a href=""mailto:aliebelt@sissa.it"">aliebelt@sissa.it</a>, <a href=""mailto:davide.crepaldi@sissa.it"">davide.crepaldi@sissa.it</a>).</p>
      <p style=""font-size: 15px;"">Se vuole scaricare il modulo di consenso informato, clicca qui: <a href=""BASL_modulo_consenso.pdf"" download>modulo di consenso</a>.</p>
      <p style=""font-size: 15px;""> Le chiediamo di premere la barra per continuare al consenso.</p>","","","","","","","",""
"survey-html-form","3","381219","0.0-3.0","5f4cc4ea00dba58ecd5a98a4","64afc2c9a8732ea92db0087d","64afd4a9411e63abb33613f4","19322","{""consent1"":""YES"",""consent2"":""YES"",""consent3"":""YES"",""consent4"":""YES"",""consent5"":""YES"",""consent6"":""YES""}","","","","","","","","",""
"fullscreen","4","385755","0.0-4.0","5f4cc4ea00dba58ecd5a98a4","64afc2c9a8732ea92db0087d","64afd4a9411e63abb33613f4","","","","true","","","","","","",""
"html-keyboard-response","5","492399","0.0-5.0","5f4cc4ea00dba58ecd5a98a4","64afc2c9a8732ea92db0087d","64afd4a9411e63abb33613f4","106643"," ","<p>Benvenuta/o, e grazie mille del tuo tempo!</p>
      <p>In questo esperimento sarai un esperto/un'esperta di linguaggio cui è stato chiesto di dare un'occhiata ad alcuni messaggi che la Terra ha ricevuto dallo spazio. Il tuo compito, in questa prima parte dell'esperimento, sarà di fare molta attenzione alle parole che ti verranno mostrate; più tardi, i leader del mondo ti chiederanno qualche informazione su quello che hai visto. Le parole si susseguiranno abbastanza velocemente; sembra che questi alieni abbiano una certa fretta :-) </p>
      <p>Per favore, chiama lo sperimentatore se ha qualche domanda.</p><p>Premi la barra per continuare.</p>","","","","","","","",""
"html-keyboard-response","6","499135","0.0-6.0","5f4cc4ea00dba58ecd5a98a4","64afc2c9a8732ea92db0087d","64afd4a9411e63abb33613f4","6736"," ","<p>Ecco un esempio delle parole che vedrai:</p>
      <img src='esempio.png' height='400px'>
      <p>Quando sei pronti per iniziare, premi la barra.</p></div>","","","","","","","",""
"html-keyboard-response","7","500136","0.0-7.0-0.0","5f4cc4ea00dba58ecd5a98a4","64afc2c9a8732ea92db0087d","64afd4a9411e63abb33613f4","null","null","<p style=""font-size: 60px; font-family: BACS"">LQuruOAO</p>","","","","","","","",""
"html-keyboard-response","8","501137","0.0-7.0-0.1","5f4cc4ea00dba58ecd5a98a4","64afc2c9a8732ea92db0087d","64afd4a9411e63abb33613f4","null","null","<p style=""font-size: 60px; font-family: BACS"">EMYKCdt</p>","","","","","","","",""
"html-keyboard-response","9","502138","0.0-7.0-0.2","5f4cc4ea00dba58ecd5a98a4","64afc2c9a8732ea92db0087d","64afd4a9411e63abb33613f4","null","null","<p style=""font-size: 60px; font-family: BACS"">UdumduvJ</p>","","","","","","","",""
"html-keyboard-response","10","503146","0.0-7.0-0.3","5f4cc4ea00dba58ecd5a98a4","64afc2c9a8732ea92db0087d","64afd4a9411e63abb33613f4","null","null","<p style=""font-size: 60px; font-family: BACS"">EYtYRbTE</p>","","","","","","","",""
"html-keyboard-response","11","504169","0.0-7.0-0.4","5f4cc4ea00dba58ecd5a98a4","64afc2c9a8732ea92db0087d","64afd4a9411e63abb33613f4","null","null","<p style=""font-size: 60px; font-family: BACS"">DBklbAMO</p>","","","","","","","",""
"html-keyboard-response","12","505185","0.0-7.0-0.5","5f4cc4ea00dba58ecd5a98a4","64afc2c9a8732ea92db0087d","64afd4a9411e63abb33613f4","null","null","<p style=""font-size: 60px; font-family: BACS"">ZdlOuvJ</p>","","","","","","","",""
"html-keyboard-response","13","506200","0.0-7.0-0.6","5f4cc4ea00dba58ecd5a98a4","64afc2c9a8732ea92db0087d","64afd4a9411e63abb33613f4","null","null","<p style=""font-size: 60px; font-family: BACS"">OmtlDOMC</p>","","","","","","","",""
"html-keyboard-response","14","507216","0.0-7.0-0.7","5f4cc4ea00dba58ecd5a98a4","64afc2c9a8732ea92db0087d","64afd4a9411e63abb33613f4","null","null","<p style=""font-size: 60px; font-family: BACS"">EMYKbAMO</p>","","","","","","","",""
"html-keyboard-response","15","508217","0.0-7.0-0.8","5f4cc4ea00dba58ecd5a98a4","64afc2c9a8732ea92db0087d","64afd4a9411e63abb33613f4","null","null","<p style=""font-size: 60px; font-family: BACS"">UaZmaYaOk</p>","","","","","","","",""
"html-keyboard-response","16","509218","0.0-7.0-0.9","5f4cc4ea00dba58ecd5a98a4","64afc2c9a8732ea92db0087d","64afd4a9411e63abb33613f4","null","null","<p style=""font-size: 60px; font-family: BACS"">ECtbDbTE</p>","","","","","","","",""
"html-keyboard-response","17","510232","0.0-7.0-0.10","5f4cc4ea00dba58ecd5a98a4","64afc2c9a8732ea92db0087d","64afd4a9411e63abb33613f4","null","null","<p style=""font-size: 60px; font-family: BACS"">ubALmJcL</p>","","","","","","","",""
"html-keyboard-response","18","511233","0.0-7.0-0.11","5f4cc4ea00dba58ecd5a98a4","64afc2c9a8732ea92db0087d","64afd4a9411e63abb33613f4","null","null","<p style=""font-size: 60px; font-family: BACS"">dkLlJZr</p>","","","","","","","",""
"html-keyboard-response","19","512249","0.0-7.0-0.12","5f4cc4ea00dba58ecd5a98a4","64afc2c9a8732ea92db0087d","64afd4a9411e63abb33613f4","null","null","<p style=""font-size: 60px; font-family: BACS"">tRPDbTE</p>","","","","","","","",""
"html-keyboard-response","20","513249","0.0-7.0-0.13","5f4cc4ea00dba58ecd5a98a4","64afc2c9a8732ea92db0087d","64afd4a9411e63abb33613f4","null","null","<p style=""font-size: 60px; font-family: BACS"">OmtlDEPBT</p>","","","","","","","",""
"html-keyboard-response","21","514251","0.0-7.0-0.14","5f4cc4ea00dba58ecd5a98a4","64afc2c9a8732ea92db0087d","64afd4a9411e63abb33613f4","null","null","<p style=""font-size: 60px; font-family: BACS"">tRPDbAMO</p>","","","","","","","",""
"html-keyboard-response","22","515263","0.0-7.0-0.15","5f4cc4ea00dba58ecd5a98a4","64afc2c9a8732ea92db0087d","64afd4a9411e63abb33613f4","null","null","<p style=""font-size: 60px; font-family: BACS"">YOaAbJZr</p>","","","","","","","",""
"html-keyboard-response","23","516277","0.0-7.0-0.16","5f4cc4ea00dba58ecd5a98a4","64afc2c9a8732ea92db0087d","64afd4a9411e63abb33613f4","null","null","<p style=""font-size: 60px; font-family: BACS"">amJmYaOk</p>","","","","","","","",""
"html-keyboard-response","24","517278","0.0-7.0-0.17","5f4cc4ea00dba58ecd5a98a4","64afc2c9a8732ea92db0087d","64afd4a9411e63abb33613f4","null","null","<p style=""font-size: 60px; font-family: BACS"">YJkbJZr</p>","","","","","","","",""
"html-keyboard-response","25","518279","0.0-7.0-0.18","5f4cc4ea00dba58ecd5a98a4","64afc2c9a8732ea92db0087d","64afd4a9411e63abb33613f4","null","null","<p style=""font-size: 60px; font-family: BACS"">DBklbTE</p>","","","","","","","",""
"html-keyboard-response","26","519295","0.0-7.0-0.19","5f4cc4ea00dba58ecd5a98a4","64afc2c9a8732ea92db0087d","64afd4a9411e63abb33613f4","null","null","<p style=""font-size: 60px; font-family: BACS"">vAarJcL</p>","","","","","","","",""
"html-keyboard-response","27","520308","0.0-7.0-0.20","5f4cc4ea00dba58ecd5a98a4","64afc2c9a8732ea92db0087d","64afd4a9411e63abb33613f4","null","null","<p style=""font-size: 60px; font-family: BACS"">ubALmuOAO</p>","","","","","","","",""
"html-keyboard-response","28","521311","0.0-7.0-0.21","5f4cc4ea00dba58ecd5a98a4","64afc2c9a8732ea92db0087d","64afd4a9411e63abb33613f4","null","null","<p style=""font-size: 60px; font-family: BACS"">dkLluvJ</p>","","","","","","","",""
"html-keyboard-response","29","522326","0.0-7.0-0.22","5f4cc4ea00dba58ecd5a98a4","64afc2c9a8732ea92db0087d","64afd4a9411e63abb33613f4","null","null","<p style=""font-size: 60px; font-family: BACS"">ECtbDCdt</p>","","","","","","","",""
"html-keyboard-response","30","523328","0.0-7.0-0.23","5f4cc4ea00dba58ecd5a98a4","64afc2c9a8732ea92db0087d","64afd4a9411e63abb33613f4","null","null","<p style=""font-size: 60px; font-family: BACS"">EYtYREPBT</p>","","","","","","","",""
"html-keyboard-response","31","524342","0.0-7.0-0.24","5f4cc4ea00dba58ecd5a98a4","64afc2c9a8732ea92db0087d","64afd4a9411e63abb33613f4","null","null","<p style=""font-size: 60px; font-family: BACS"">amJmJZr</p>","","","","","","","",""
"html-keyboard-response","32","525345","0.0-7.0-0.25","5f4cc4ea00dba58ecd5a98a4","64afc2c9a8732ea92db0087d","64afd4a9411e63abb33613f4","null","null","<p style=""font-size: 60px; font-family: BACS"">hlkTCdt</p>","","","","","","","",""
"html-keyboard-response","33","526360","0.0-7.0-0.26","5f4cc4ea00dba58ecd5a98a4","64afc2c9a8732ea92db0087d","64afd4a9411e63abb33613f4","null","null","<p style=""font-size: 60px; font-family: BACS"">OdYPOMC</p>","","","","","","","",""
"html-keyboard-response","34","527362","0.0-7.0-0.27","5f4cc4ea00dba58ecd5a98a4","64afc2c9a8732ea92db0087d","64afd4a9411e63abb33613f4","null","null","<p style=""font-size: 60px; font-family: BACS"">EMYKEPBT</p>","","","","","","","",""
"html-keyboard-response","35","528377","0.0-7.0-0.28","5f4cc4ea00dba58ecd5a98a4","64afc2c9a8732ea92db0087d","64afd4a9411e63abb33613f4","null","null","<p style=""font-size: 60px; font-family: BACS"">UaZmaJcL</p>","","","","","","","",""
"html-keyboard-response","36","529378","0.0-7.0-0.29","5f4cc4ea00dba58ecd5a98a4","64afc2c9a8732ea92db0087d","64afd4a9411e63abb33613f4","null","null","<p style=""font-size: 60px; font-family: BACS"">amJmuOAO</p>","","","","","","","",""
"html-keyboard-response","37","530393","0.0-7.0-0.30","5f4cc4ea00dba58ecd5a98a4","64afc2c9a8732ea92db0087d","64afd4a9411e63abb33613f4","null","null","<p style=""font-size: 60px; font-family: BACS"">ZdlOJcL</p>","","","","","","","",""
"html-keyboard-response","38","531409","0.0-7.0-0.31","5f4cc4ea00dba58ecd5a98a4","64afc2c9a8732ea92db0087d","64afd4a9411e63abb33613f4","null","null","<p style=""font-size: 60px; font-family: BACS"">tRPDEPBT</p>","","","","","","","",""
"html-keyboard-response","39","532411","0.0-7.0-0.32","5f4cc4ea00dba58ecd5a98a4","64afc2c9a8732ea92db0087d","64afd4a9411e63abb33613f4","null","null","<p style=""font-size: 60px; font-family: BACS"">LQurJcL</p>","","","","","","","",""
"html-keyboard-response","40","533424","0.0-7.0-0.33","5f4cc4ea00dba58ecd5a98a4","64afc2c9a8732ea92db0087d","64afd4a9411e63abb33613f4","null","null","<p style=""font-size: 60px; font-family: BACS"">EMYKOMC</p>","","","","","","","",""
"html-keyboard-response","41","534426","0.0-7.0-0.34","5f4cc4ea00dba58ecd5a98a4","64afc2c9a8732ea92db0087d","64afd4a9411e63abb33613f4","null","null","<p style=""font-size: 60px; font-family: BACS"">UdumdJZr</p>","","","","","","","",""
"html-keyboard-response","42","535442","0.0-7.0-0.35","5f4cc4ea00dba58ecd5a98a4","64afc2c9a8732ea92db0087d","64afd4a9411e63abb33613f4","null","null","<p style=""font-size: 60px; font-family: BACS"">mBbKbAMO</p>","","","","","","","",""
"html-keyboard-response","43","536443","0.0-7.0-0.36","5f4cc4ea00dba58ecd5a98a4","64afc2c9a8732ea92db0087d","64afd4a9411e63abb33613f4","null","null","<p style=""font-size: 60px; font-family: BACS"">hlkTOMC</p>","","","","","","","",""
"html-keyboard-response","44","537458","0.0-7.0-0.37","5f4cc4ea00dba58ecd5a98a4","64afc2c9a8732ea92db0087d","64afd4a9411e63abb33613f4","null","null","<p style=""font-size: 60px; font-family: BACS"">YOaAbuvJ</p>","","","","","","","",""
"html-keyboard-response","45","538459","0.0-7.0-0.38","5f4cc4ea00dba58ecd5a98a4","64afc2c9a8732ea92db0087d","64afd4a9411e63abb33613f4","null","null","<p style=""font-size: 60px; font-family: BACS"">mBbKCdt</p>","","","","","","","",""
"html-keyboard-response","46","539475","0.0-7.0-0.39","5f4cc4ea00dba58ecd5a98a4","64afc2c9a8732ea92db0087d","64afd4a9411e63abb33613f4","null","null","<p style=""font-size: 60px; font-family: BACS"">UaZmauOAO</p>","","","","","","","",""
"html-keyboard-response","47","540476","0.0-7.0-0.40","5f4cc4ea00dba58ecd5a98a4","64afc2c9a8732ea92db0087d","64afd4a9411e63abb33613f4","null","null","<p style=""font-size: 60px; font-family: BACS"">ECtbDbAMO</p>","","","","","","","",""
"html-keyboard-response","48","541491","0.0-7.0-0.41","5f4cc4ea00dba58ecd5a98a4","64afc2c9a8732ea92db0087d","64afd4a9411e63abb33613f4","null","null","<p style=""font-size: 60px; font-family: BACS"">DBklOMC</p>","","","","","","","",""
"html-keyboard-response","49","542497","0.0-7.0-0.42","5f4cc4ea00dba58ecd5a98a4","64afc2c9a8732ea92db0087d","64afd4a9411e63abb33613f4","null","null","<p style=""font-size: 60px; font-family: BACS"">dYdACdt</p>","","","","","","","",""
"html-keyboard-response","50","543509","0.0-7.0-0.43","5f4cc4ea00dba58ecd5a98a4","64afc2c9a8732ea92db0087d","64afd4a9411e63abb33613f4","null","null","<p style=""font-size: 60px; font-family: BACS"">vAaruOAO</p>","","","","","","","",""
"html-keyboard-response","51","544510","0.0-7.0-0.44","5f4cc4ea00dba58ecd5a98a4","64afc2c9a8732ea92db0087d","64afd4a9411e63abb33613f4","null","null","<p style=""font-size: 60px; font-family: BACS"">YJkbuvJ</p>","","","","","","","",""
"html-keyboard-response","52","545525","0.0-7.0-0.45","5f4cc4ea00dba58ecd5a98a4","64afc2c9a8732ea92db0087d","64afd4a9411e63abb33613f4","null","null","<p style=""font-size: 60px; font-family: BACS"">ECtbDOMC</p>","","","","","","","",""
"html-keyboard-response","53","546527","0.0-7.0-0.46","5f4cc4ea00dba58ecd5a98a4","64afc2c9a8732ea92db0087d","64afd4a9411e63abb33613f4","null","null","<p style=""font-size: 60px; font-family: BACS"">amJmuvJ</p>","","","","","","","",""
"html-keyboard-response","54","547536","0.0-7.0-0.47","5f4cc4ea00dba58ecd5a98a4","64afc2c9a8732ea92db0087d","64afd4a9411e63abb33613f4","null","null","<p style=""font-size: 60px; font-family: BACS"">YOaAbJcL</p>","","","","","","","",""
"html-keyboard-response","55","548542","0.0-7.0-0.48","5f4cc4ea00dba58ecd5a98a4","64afc2c9a8732ea92db0087d","64afd4a9411e63abb33613f4","null","null","<p style=""font-size: 60px; font-family: BACS"">dYdAOMC</p>","","","","","","","",""
"html-keyboard-response","56","549544","0.0-7.0-0.49","5f4cc4ea00dba58ecd5a98a4","64afc2c9a8732ea92db0087d","64afd4a9411e63abb33613f4","null","null","<p style=""font-size: 60px; font-family: BACS"">vAarJZr</p>","","","","","","","",""
"html-keyboard-response","57","550545","0.0-7.0-0.50","5f4cc4ea00dba58ecd5a98a4","64afc2c9a8732ea92db0087d","64afd4a9411e63abb33613f4","null","null","<p style=""font-size: 60px; font-family: BACS"">hlkTEPBT</p>","","","","","","","",""
"html-keyboard-response","58","551559","0.0-7.0-0.51","5f4cc4ea00dba58ecd5a98a4","64afc2c9a8732ea92db0087d","64afd4a9411e63abb33613f4","null","null","<p style=""font-size: 60px; font-family: BACS"">YJkbYaOk</p>","","","","","","","",""
"html-keyboard-response","59","552561","0.0-7.0-0.52","5f4cc4ea00dba58ecd5a98a4","64afc2c9a8732ea92db0087d","64afd4a9411e63abb33613f4","null","null","<p style=""font-size: 60px; font-family: BACS"">OmtlDbAMO</p>","","","","","","","",""
"html-keyboard-response","60","553576","0.0-7.0-0.53","5f4cc4ea00dba58ecd5a98a4","64afc2c9a8732ea92db0087d","64afd4a9411e63abb33613f4","null","null","<p style=""font-size: 60px; font-family: BACS"">LQurYaOk</p>","","","","","","","",""
"html-keyboard-response","61","554577","0.0-7.0-0.54","5f4cc4ea00dba58ecd5a98a4","64afc2c9a8732ea92db0087d","64afd4a9411e63abb33613f4","null","null","<p style=""font-size: 60px; font-family: BACS"">hlkTbTE</p>","","","","","","","",""
"html-keyboard-response","62","555578","0.0-7.0-0.55","5f4cc4ea00dba58ecd5a98a4","64afc2c9a8732ea92db0087d","64afd4a9411e63abb33613f4","null","null","<p style=""font-size: 60px; font-family: BACS"">vAaruvJ</p>","","","","","","","",""
"html-keyboard-response","63","556594","0.0-7.0-0.56","5f4cc4ea00dba58ecd5a98a4","64afc2c9a8732ea92db0087d","64afd4a9411e63abb33613f4","null","null","<p style=""font-size: 60px; font-family: BACS"">dYdAbTE</p>","","","","","","","",""
"html-keyboard-response","64","557600","0.0-7.0-0.57","5f4cc4ea00dba58ecd5a98a4","64afc2c9a8732ea92db0087d","64afd4a9411e63abb33613f4","null","null","<p style=""font-size: 60px; font-family: BACS"">mBbKEPBT</p>","","","","","","","",""
"html-keyboard-response","65","558609","0.0-7.0-0.58","5f4cc4ea00dba58ecd5a98a4","64afc2c9a8732ea92db0087d","64afd4a9411e63abb33613f4","null","null","<p style=""font-size: 60px; font-family: BACS"">OmtlDbTE</p>","","","","","","","",""
"html-keyboard-response","66","559610","0.0-7.0-0.59","5f4cc4ea00dba58ecd5a98a4","64afc2c9a8732ea92db0087d","64afd4a9411e63abb33613f4","null","null","<p style=""font-size: 60px; font-family: BACS"">dYdAEPBT</p>","","","","","","","",""
"html-keyboard-response","67","560625","0.0-7.0-0.60","5f4cc4ea00dba58ecd5a98a4","64afc2c9a8732ea92db0087d","64afd4a9411e63abb33613f4","null","null","<p style=""font-size: 60px; font-family: BACS"">ubALmJZr</p>","","","","","","","",""
"html-keyboard-response","68","561628","0.0-7.0-0.61","5f4cc4ea00dba58ecd5a98a4","64afc2c9a8732ea92db0087d","64afd4a9411e63abb33613f4","null","null","<p style=""font-size: 60px; font-family: BACS"">ZdlOYaOk</p>","","","","","","","",""
"html-keyboard-response","69","562642","0.0-7.0-0.62","5f4cc4ea00dba58ecd5a98a4","64afc2c9a8732ea92db0087d","64afd4a9411e63abb33613f4","null","null","<p style=""font-size: 60px; font-family: BACS"">YJkbuOAO</p>","","","","","","","",""
"html-keyboard-response","70","563658","0.0-7.0-0.63","5f4cc4ea00dba58ecd5a98a4","64afc2c9a8732ea92db0087d","64afd4a9411e63abb33613f4","null","null","<p style=""font-size: 60px; font-family: BACS"">DBklCdt</p>","","","","","","","",""
"html-keyboard-response","71","564660","0.0-7.0-0.64","5f4cc4ea00dba58ecd5a98a4","64afc2c9a8732ea92db0087d","64afd4a9411e63abb33613f4","null","null","<p style=""font-size: 60px; font-family: BACS"">LQurJZr</p>","","","","","","","",""
"html-keyboard-response","72","565675","0.0-7.0-0.65","5f4cc4ea00dba58ecd5a98a4","64afc2c9a8732ea92db0087d","64afd4a9411e63abb33613f4","null","null","<p style=""font-size: 60px; font-family: BACS"">dkLlJcL</p>","","","","","","","",""
"html-keyboard-response","73","566691","0.0-7.0-0.66","5f4cc4ea00dba58ecd5a98a4","64afc2c9a8732ea92db0087d","64afd4a9411e63abb33613f4","null","null","<p style=""font-size: 60px; font-family: BACS"">EYtYROMC</p>","","","","","","","",""
"html-keyboard-response","74","567693","0.0-7.0-0.67","5f4cc4ea00dba58ecd5a98a4","64afc2c9a8732ea92db0087d","64afd4a9411e63abb33613f4","null","null","<p style=""font-size: 60px; font-family: BACS"">OdYPEPBT</p>","","","","","","","",""
"html-keyboard-response","75","568708","0.0-7.0-0.68","5f4cc4ea00dba58ecd5a98a4","64afc2c9a8732ea92db0087d","64afd4a9411e63abb33613f4","null","null","<p style=""font-size: 60px; font-family: BACS"">UdumduOAO</p>","","","","","","","",""
"html-keyboard-response","76","569709","0.0-7.0-0.69","5f4cc4ea00dba58ecd5a98a4","64afc2c9a8732ea92db0087d","64afd4a9411e63abb33613f4","null","null","<p style=""font-size: 60px; font-family: BACS"">UaZmauvJ</p>","","","","","","","",""
"html-keyboard-response","77","570724","0.0-7.0-0.70","5f4cc4ea00dba58ecd5a98a4","64afc2c9a8732ea92db0087d","64afd4a9411e63abb33613f4","null","null","<p style=""font-size: 60px; font-family: BACS"">YOaAbYaOk</p>","","","","","","","",""
"html-keyboard-response","78","571725","0.0-7.0-0.71","5f4cc4ea00dba58ecd5a98a4","64afc2c9a8732ea92db0087d","64afd4a9411e63abb33613f4","null","null","<p style=""font-size: 60px; font-family: BACS"">ZdlOuOAO</p>","","","","","","","",""
"html-keyboard-response","79","572741","0.0-7.0-0.72","5f4cc4ea00dba58ecd5a98a4","64afc2c9a8732ea92db0087d","64afd4a9411e63abb33613f4","null","null","<p style=""font-size: 60px; font-family: BACS"">dkLlYaOk</p>","","","","","","","",""
"html-keyboard-response","80","573743","0.0-7.0-0.73","5f4cc4ea00dba58ecd5a98a4","64afc2c9a8732ea92db0087d","64afd4a9411e63abb33613f4","null","null","<p style=""font-size: 60px; font-family: BACS"">OdYPCdt</p>","","","","","","","",""
"html-keyboard-response","81","574760","0.0-7.0-0.74","5f4cc4ea00dba58ecd5a98a4","64afc2c9a8732ea92db0087d","64afd4a9411e63abb33613f4","null","null","<p style=""font-size: 60px; font-family: BACS"">ubALmYaOk</p>","","","","","","","",""
"html-keyboard-response","82","575775","0.0-7.0-0.75","5f4cc4ea00dba58ecd5a98a4","64afc2c9a8732ea92db0087d","64afd4a9411e63abb33613f4","null","null","<p style=""font-size: 60px; font-family: BACS"">mBbKbTE</p>","","","","","","","",""
"html-keyboard-response","83","576791","0.0-7.0-0.76","5f4cc4ea00dba58ecd5a98a4","64afc2c9a8732ea92db0087d","64afd4a9411e63abb33613f4","null","null","<p style=""font-size: 60px; font-family: BACS"">OdYPbAMO</p>","","","","","","","",""
"html-keyboard-response","84","577796","0.0-7.0-0.77","5f4cc4ea00dba58ecd5a98a4","64afc2c9a8732ea92db0087d","64afd4a9411e63abb33613f4","null","null","<p style=""font-size: 60px; font-family: BACS"">UdumdJcL</p>","","","","","","","",""
"html-keyboard-response","85","578808","0.0-7.0-0.78","5f4cc4ea00dba58ecd5a98a4","64afc2c9a8732ea92db0087d","64afd4a9411e63abb33613f4","null","null","<p style=""font-size: 60px; font-family: BACS"">tRPDCdt</p>","","","","","","","",""
"html-keyboard-response","86","579811","0.0-7.0-0.79","5f4cc4ea00dba58ecd5a98a4","64afc2c9a8732ea92db0087d","64afd4a9411e63abb33613f4","null","null","<p style=""font-size: 60px; font-family: BACS"">EYtYRbAMO</p>","","","","","","","",""
"html-keyboard-response","87","586122","0.0-8.0","5f4cc4ea00dba58ecd5a98a4","64afc2c9a8732ea92db0087d","64afd4a9411e63abb33613f4","6311"," ","<p>Ottimo, hai visto il primo blocco di parole. Ora puoi prenderti una piccola pausa.</p>
      <p>Premi la barra quando sei pronta/o per riprendere.</p>","","","","","","","",""
"html-keyboard-response","88","587126","0.0-9.0-0.0","5f4cc4ea00dba58ecd5a98a4","64afc2c9a8732ea92db0087d","64afd4a9411e63abb33613f4","null","null","<p style=""font-size: 60px; font-family: BACS"">UdumdJZr</p>","","","","","","","",""
"html-keyboard-response","89","588127","0.0-9.0-0.1","5f4cc4ea00dba58ecd5a98a4","64afc2c9a8732ea92db0087d","64afd4a9411e63abb33613f4","null","null","<p style=""font-size: 60px; font-family: BACS"">YJkbuOAO</p>","","","","","","","",""
"html-keyboard-response","90","589127","0.0-9.0-0.2","5f4cc4ea00dba58ecd5a98a4","64afc2c9a8732ea92db0087d","64afd4a9411e63abb33613f4","null","null","<p style=""font-size: 60px; font-family: BACS"">hlkTOMC</p>","","","","","","","",""
"html-keyboard-response","91","590128","0.0-9.0-0.3","5f4cc4ea00dba58ecd5a98a4","64afc2c9a8732ea92db0087d","64afd4a9411e63abb33613f4","null","null","<p style=""font-size: 60px; font-family: BACS"">YOaAbJcL</p>","","","","","","","",""
"html-keyboard-response","92","591141","0.0-9.0-0.4","5f4cc4ea00dba58ecd5a98a4","64afc2c9a8732ea92db0087d","64afd4a9411e63abb33613f4","null","null","<p style=""font-size: 60px; font-family: BACS"">hlkTbTE</p>","","","","","","","",""
"html-keyboard-response","93","592145","0.0-9.0-0.5","5f4cc4ea00dba58ecd5a98a4","64afc2c9a8732ea92db0087d","64afd4a9411e63abb33613f4","null","null","<p style=""font-size: 60px; font-family: BACS"">OdYPOMC</p>","","","","","","","",""
"html-keyboard-response","94","593151","0.0-9.0-0.6","5f4cc4ea00dba58ecd5a98a4","64afc2c9a8732ea92db0087d","64afd4a9411e63abb33613f4","null","null","<p style=""font-size: 60px; font-family: BACS"">dkLlJcL</p>","","","","","","","",""
"html-keyboard-response","95","594168","0.0-9.0-0.7","5f4cc4ea00dba58ecd5a98a4","64afc2c9a8732ea92db0087d","64afd4a9411e63abb33613f4","null","null","<p style=""font-size: 60px; font-family: BACS"">hlkTEPBT</p>","","","","","","","",""
"html-keyboard-response","96","595183","0.0-9.0-0.8","5f4cc4ea00dba58ecd5a98a4","64afc2c9a8732ea92db0087d","64afd4a9411e63abb33613f4","null","null","<p style=""font-size: 60px; font-family: BACS"">UdumduOAO</p>","","","","","","","",""
"html-keyboard-response","97","596199","0.0-9.0-0.9","5f4cc4ea00dba58ecd5a98a4","64afc2c9a8732ea92db0087d","64afd4a9411e63abb33613f4","null","null","<p style=""font-size: 60px; font-family: BACS"">hlkTCdt</p>","","","","","","","",""
"html-keyboard-response","98","597214","0.0-9.0-0.10","5f4cc4ea00dba58ecd5a98a4","64afc2c9a8732ea92db0087d","64afd4a9411e63abb33613f4","null","null","<p style=""font-size: 60px; font-family: BACS"">UaZmauOAO</p>","","","","","","","",""
"html-keyboard-response","99","598230","0.0-9.0-0.11","5f4cc4ea00dba58ecd5a98a4","64afc2c9a8732ea92db0087d","64afd4a9411e63abb33613f4","null","null","<p style=""font-size: 60px; font-family: BACS"">YOaAbYaOk</p>","","","","","","","",""
"html-keyboard-response","100","599246","0.0-9.0-0.12","5f4cc4ea00dba58ecd5a98a4","64afc2c9a8732ea92db0087d","64afd4a9411e63abb33613f4","null","null","<p style=""font-size: 60px; font-family: BACS"">tRPDEPBT</p>","","","","","","","",""
"html-keyboard-response","101","600261","0.0-9.0-0.13","5f4cc4ea00dba58ecd5a98a4","64afc2c9a8732ea92db0087d","64afd4a9411e63abb33613f4","null","null","<p style=""font-size: 60px; font-family: BACS"">amJmuOAO</p>","","","","","","","",""
"html-keyboard-response","102","601276","0.0-9.0-0.14","5f4cc4ea00dba58ecd5a98a4","64afc2c9a8732ea92db0087d","64afd4a9411e63abb33613f4","null","null","<p style=""font-size: 60px; font-family: BACS"">vAarJcL</p>","","","","","","","",""
"html-keyboard-response","103","602292","0.0-9.0-0.15","5f4cc4ea00dba58ecd5a98a4","64afc2c9a8732ea92db0087d","64afd4a9411e63abb33613f4","null","null","<p style=""font-size: 60px; font-family: BACS"">mBbKbTE</p>","","","","","","","",""
"html-keyboard-response","104","603308","0.0-9.0-0.16","5f4cc4ea00dba58ecd5a98a4","64afc2c9a8732ea92db0087d","64afd4a9411e63abb33613f4","null","null","<p style=""font-size: 60px; font-family: BACS"">vAaruOAO</p>","","","","","","","",""
"html-keyboard-response","105","604309","0.0-9.0-0.17","5f4cc4ea00dba58ecd5a98a4","64afc2c9a8732ea92db0087d","64afd4a9411e63abb33613f4","null","null","<p style=""font-size: 60px; font-family: BACS"">LQurJZr</p>","","","","","","","",""
"html-keyboard-response","106","605324","0.0-9.0-0.18","5f4cc4ea00dba58ecd5a98a4","64afc2c9a8732ea92db0087d","64afd4a9411e63abb33613f4","null","null","<p style=""font-size: 60px; font-family: BACS"">mBbKEPBT</p>","","","","","","","",""
"html-keyboard-response","107","606325","0.0-9.0-0.19","5f4cc4ea00dba58ecd5a98a4","64afc2c9a8732ea92db0087d","64afd4a9411e63abb33613f4","null","null","<p style=""font-size: 60px; font-family: BACS"">vAaruvJ</p>","","","","","","","",""
"html-keyboard-response","108","607341","0.0-9.0-0.20","5f4cc4ea00dba58ecd5a98a4","64afc2c9a8732ea92db0087d","64afd4a9411e63abb33613f4","null","null","<p style=""font-size: 60px; font-family: BACS"">UdumdJcL</p>","","","","","","","",""
"html-keyboard-response","109","608358","0.0-9.0-0.21","5f4cc4ea00dba58ecd5a98a4","64afc2c9a8732ea92db0087d","64afd4a9411e63abb33613f4","null","null","<p style=""font-size: 60px; font-family: BACS"">dkLlYaOk</p>","","","","","","","",""
"html-keyboard-response","110","609359","0.0-9.0-0.22","5f4cc4ea00dba58ecd5a98a4","64afc2c9a8732ea92db0087d","64afd4a9411e63abb33613f4","null","null","<p style=""font-size: 60px; font-family: BACS"">ECtbDOMC</p>","","","","","","","",""
"html-keyboard-response","111","610360","0.0-9.0-0.23","5f4cc4ea00dba58ecd5a98a4","64afc2c9a8732ea92db0087d","64afd4a9411e63abb33613f4","null","null","<p style=""font-size: 60px; font-family: BACS"">ZdlOJcL</p>","","","","","","","",""
"html-keyboard-response","112","611374","0.0-9.0-0.24","5f4cc4ea00dba58ecd5a98a4","64afc2c9a8732ea92db0087d","64afd4a9411e63abb33613f4","null","null","<p style=""font-size: 60px; font-family: BACS"">dYdAEPBT</p>","","","","","","","",""
"html-keyboard-response","113","612376","0.0-9.0-0.25","5f4cc4ea00dba58ecd5a98a4","64afc2c9a8732ea92db0087d","64afd4a9411e63abb33613f4","null","null","<p style=""font-size: 60px; font-family: BACS"">UdumduvJ</p>","","","","","","","",""
"html-keyboard-response","114","613391","0.0-9.0-0.26","5f4cc4ea00dba58ecd5a98a4","64afc2c9a8732ea92db0087d","64afd4a9411e63abb33613f4","null","null","<p style=""font-size: 60px; font-family: BACS"">OdYPbAMO</p>","","","","","","","",""
"html-keyboard-response","115","614405","0.0-9.0-0.27","5f4cc4ea00dba58ecd5a98a4","64afc2c9a8732ea92db0087d","64afd4a9411e63abb33613f4","null","null","<p style=""font-size: 60px; font-family: BACS"">tRPDCdt</p>","","","","","","","",""
"html-keyboard-response","116","615407","0.0-9.0-0.28","5f4cc4ea00dba58ecd5a98a4","64afc2c9a8732ea92db0087d","64afd4a9411e63abb33613f4","null","null","<p style=""font-size: 60px; font-family: BACS"">dYdAbTE</p>","","","","","","","",""
"html-keyboard-response","117","616409","0.0-9.0-0.29","5f4cc4ea00dba58ecd5a98a4","64afc2c9a8732ea92db0087d","64afd4a9411e63abb33613f4","null","null","<p style=""font-size: 60px; font-family: BACS"">UaZmaJcL</p>","","","","","","","",""
"html-keyboard-response","118","617423","0.0-9.0-0.30","5f4cc4ea00dba58ecd5a98a4","64afc2c9a8732ea92db0087d","64afd4a9411e63abb33613f4","null","null","<p style=""font-size: 60px; font-family: BACS"">dYdAOMC</p>","","","","","","","",""
"html-keyboard-response","119","618424","0.0-9.0-0.31","5f4cc4ea00dba58ecd5a98a4","64afc2c9a8732ea92db0087d","64afd4a9411e63abb33613f4","null","null","<p style=""font-size: 60px; font-family: BACS"">amJmJZr</p>","","","","","","","",""
"html-keyboard-response","120","619440","0.0-9.0-0.32","5f4cc4ea00dba58ecd5a98a4","64afc2c9a8732ea92db0087d","64afd4a9411e63abb33613f4","null","null","<p style=""font-size: 60px; font-family: BACS"">LQurYaOk</p>","","","","","","","",""
"html-keyboard-response","121","620440","0.0-9.0-0.33","5f4cc4ea00dba58ecd5a98a4","64afc2c9a8732ea92db0087d","64afd4a9411e63abb33613f4","null","null","<p style=""font-size: 60px; font-family: BACS"">DBklOMC</p>","","","","","","","",""
"html-keyboard-response","122","621456","0.0-9.0-0.34","5f4cc4ea00dba58ecd5a98a4","64afc2c9a8732ea92db0087d","64afd4a9411e63abb33613f4","null","null","<p style=""font-size: 60px; font-family: BACS"">tRPDbTE</p>","","","","","","","",""
"html-keyboard-response","123","622457","0.0-9.0-0.35","5f4cc4ea00dba58ecd5a98a4","64afc2c9a8732ea92db0087d","64afd4a9411e63abb33613f4","null","null","<p style=""font-size: 60px; font-family: BACS"">LQurJcL</p>","","","","","","","",""
"html-keyboard-response","124","623473","0.0-9.0-0.36","5f4cc4ea00dba58ecd5a98a4","64afc2c9a8732ea92db0087d","64afd4a9411e63abb33613f4","null","null","<p style=""font-size: 60px; font-family: BACS"">dYdACdt</p>","","","","","","","",""
"html-keyboard-response","125","624490","0.0-9.0-0.37","5f4cc4ea00dba58ecd5a98a4","64afc2c9a8732ea92db0087d","64afd4a9411e63abb33613f4","null","null","<p style=""font-size: 60px; font-family: BACS"">UaZmauvJ</p>","","","","","","","",""
"html-keyboard-response","126","625506","0.0-9.0-0.38","5f4cc4ea00dba58ecd5a98a4","64afc2c9a8732ea92db0087d","64afd4a9411e63abb33613f4","null","null","<p style=""font-size: 60px; font-family: BACS"">vAarJZr</p>","","","","","","","",""
"html-keyboard-response","127","626507","0.0-9.0-0.39","5f4cc4ea00dba58ecd5a98a4","64afc2c9a8732ea92db0087d","64afd4a9411e63abb33613f4","null","null","<p style=""font-size: 60px; font-family: BACS"">EMYKOMC</p>","","","","","","","",""
"html-keyboard-response","128","627508","0.0-9.0-0.40","5f4cc4ea00dba58ecd5a98a4","64afc2c9a8732ea92db0087d","64afd4a9411e63abb33613f4","null","null","<p style=""font-size: 60px; font-family: BACS"">dkLluvJ</p>","","","","","","","",""
"html-keyboard-response","129","628510","0.0-9.0-0.41","5f4cc4ea00dba58ecd5a98a4","64afc2c9a8732ea92db0087d","64afd4a9411e63abb33613f4","null","null","<p style=""font-size: 60px; font-family: BACS"">mBbKbAMO</p>","","","","","","","",""
"html-keyboard-response","130","629524","0.0-9.0-0.42","5f4cc4ea00dba58ecd5a98a4","64afc2c9a8732ea92db0087d","64afd4a9411e63abb33613f4","null","null","<p style=""font-size: 60px; font-family: BACS"">YJkbuvJ</p>","","","","","","","",""
"html-keyboard-response","131","630525","0.0-9.0-0.43","5f4cc4ea00dba58ecd5a98a4","64afc2c9a8732ea92db0087d","64afd4a9411e63abb33613f4","null","null","<p style=""font-size: 60px; font-family: BACS"">ECtbDCdt</p>","","","","","","","",""
"html-keyboard-response","132","631540","0.0-9.0-0.44","5f4cc4ea00dba58ecd5a98a4","64afc2c9a8732ea92db0087d","64afd4a9411e63abb33613f4","null","null","<p style=""font-size: 60px; font-family: BACS"">amJmYaOk</p>","","","","","","","",""
"html-keyboard-response","133","632543","0.0-9.0-0.45","5f4cc4ea00dba58ecd5a98a4","64afc2c9a8732ea92db0087d","64afd4a9411e63abb33613f4","null","null","<p style=""font-size: 60px; font-family: BACS"">EYtYRbAMO</p>","","","","","","","",""
"html-keyboard-response","134","633557","0.0-9.0-0.46","5f4cc4ea00dba58ecd5a98a4","64afc2c9a8732ea92db0087d","64afd4a9411e63abb33613f4","null","null","<p style=""font-size: 60px; font-family: BACS"">EMYKCdt</p>","","","","","","","",""
"html-keyboard-response","135","634558","0.0-9.0-0.47","5f4cc4ea00dba58ecd5a98a4","64afc2c9a8732ea92db0087d","64afd4a9411e63abb33613f4","null","null","<p style=""font-size: 60px; font-family: BACS"">OmtlDbAMO</p>","","","","","","","",""
"html-keyboard-response","136","635567","0.0-9.0-0.48","5f4cc4ea00dba58ecd5a98a4","64afc2c9a8732ea92db0087d","64afd4a9411e63abb33613f4","null","null","<p style=""font-size: 60px; font-family: BACS"">UaZmaYaOk</p>","","","","","","","",""
"html-keyboard-response","137","636574","0.0-9.0-0.49","5f4cc4ea00dba58ecd5a98a4","64afc2c9a8732ea92db0087d","64afd4a9411e63abb33613f4","null","null","<p style=""font-size: 60px; font-family: BACS"">DBklbTE</p>","","","","","","","",""
"html-keyboard-response","138","637586","0.0-9.0-0.50","5f4cc4ea00dba58ecd5a98a4","64afc2c9a8732ea92db0087d","64afd4a9411e63abb33613f4","null","null","<p style=""font-size: 60px; font-family: BACS"">OmtlDOMC</p>","","","","","","","",""
"html-keyboard-response","139","638591","0.0-9.0-0.51","5f4cc4ea00dba58ecd5a98a4","64afc2c9a8732ea92db0087d","64afd4a9411e63abb33613f4","null","null","<p style=""font-size: 60px; font-family: BACS"">dkLlJZr</p>","","","","","","","",""
"html-keyboard-response","140","639607","0.0-9.0-0.52","5f4cc4ea00dba58ecd5a98a4","64afc2c9a8732ea92db0087d","64afd4a9411e63abb33613f4","null","null","<p style=""font-size: 60px; font-family: BACS"">amJmuvJ</p>","","","","","","","",""
"html-keyboard-response","141","640609","0.0-9.0-0.53","5f4cc4ea00dba58ecd5a98a4","64afc2c9a8732ea92db0087d","64afd4a9411e63abb33613f4","null","null","<p style=""font-size: 60px; font-family: BACS"">EMYKbAMO</p>","","","","","","","",""
"html-keyboard-response","142","641624","0.0-9.0-0.54","5f4cc4ea00dba58ecd5a98a4","64afc2c9a8732ea92db0087d","64afd4a9411e63abb33613f4","null","null","<p style=""font-size: 60px; font-family: BACS"">EYtYREPBT</p>","","","","","","","",""
"html-keyboard-response","143","642626","0.0-9.0-0.55","5f4cc4ea00dba58ecd5a98a4","64afc2c9a8732ea92db0087d","64afd4a9411e63abb33613f4","null","null","<p style=""font-size: 60px; font-family: BACS"">YOaAbuvJ</p>","","","","","","","",""
"html-keyboard-response","144","643640","0.0-9.0-0.56","5f4cc4ea00dba58ecd5a98a4","64afc2c9a8732ea92db0087d","64afd4a9411e63abb33613f4","null","null","<p style=""font-size: 60px; font-family: BACS"">tRPDbAMO</p>","","","","","","","",""
"html-keyboard-response","145","644655","0.0-9.0-0.57","5f4cc4ea00dba58ecd5a98a4","64afc2c9a8732ea92db0087d","64afd4a9411e63abb33613f4","null","null","<p style=""font-size: 60px; font-family: BACS"">OdYPCdt</p>","","","","","","","",""
"html-keyboard-response","146","645657","0.0-9.0-0.58","5f4cc4ea00dba58ecd5a98a4","64afc2c9a8732ea92db0087d","64afd4a9411e63abb33613f4","null","null","<p style=""font-size: 60px; font-family: BACS"">EYtYRbTE</p>","","","","","","","",""
"html-keyboard-response","147","646671","0.0-9.0-0.59","5f4cc4ea00dba58ecd5a98a4","64afc2c9a8732ea92db0087d","64afd4a9411e63abb33613f4","null","null","<p style=""font-size: 60px; font-family: BACS"">ubALmJcL</p>","","","","","","","",""
"html-keyboard-response","148","647673","0.0-9.0-0.60","5f4cc4ea00dba58ecd5a98a4","64afc2c9a8732ea92db0087d","64afd4a9411e63abb33613f4","null","null","<p style=""font-size: 60px; font-family: BACS"">ZdlOYaOk</p>","","","","","","","",""
"html-keyboard-response","149","648689","0.0-9.0-0.61","5f4cc4ea00dba58ecd5a98a4","64afc2c9a8732ea92db0087d","64afd4a9411e63abb33613f4","null","null","<p style=""font-size: 60px; font-family: BACS"">EMYKEPBT</p>","","","","","","","",""
"html-keyboard-response","150","649690","0.0-9.0-0.62","5f4cc4ea00dba58ecd5a98a4","64afc2c9a8732ea92db0087d","64afd4a9411e63abb33613f4","null","null","<p style=""font-size: 60px; font-family: BACS"">YOaAbJZr</p>","","","","","","","",""
"html-keyboard-response","151","650706","0.0-9.0-0.63","5f4cc4ea00dba58ecd5a98a4","64afc2c9a8732ea92db0087d","64afd4a9411e63abb33613f4","null","null","<p style=""font-size: 60px; font-family: BACS"">DBklCdt</p>","","","","","","","",""
"html-keyboard-response","152","651707","0.0-9.0-0.64","5f4cc4ea00dba58ecd5a98a4","64afc2c9a8732ea92db0087d","64afd4a9411e63abb33613f4","null","null","<p style=""font-size: 60px; font-family: BACS"">ECtbDbAMO</p>","","","","","","","",""
"html-keyboard-response","153","652722","0.0-9.0-0.65","5f4cc4ea00dba58ecd5a98a4","64afc2c9a8732ea92db0087d","64afd4a9411e63abb33613f4","null","null","<p style=""font-size: 60px; font-family: BACS"">YJkbYaOk</p>","","","","","","","",""
"html-keyboard-response","154","653739","0.0-9.0-0.66","5f4cc4ea00dba58ecd5a98a4","64afc2c9a8732ea92db0087d","64afd4a9411e63abb33613f4","null","null","<p style=""font-size: 60px; font-family: BACS"">OdYPEPBT</p>","","","","","","","",""
"html-keyboard-response","155","654755","0.0-9.0-0.67","5f4cc4ea00dba58ecd5a98a4","64afc2c9a8732ea92db0087d","64afd4a9411e63abb33613f4","null","null","<p style=""font-size: 60px; font-family: BACS"">ZdlOuvJ</p>","","","","","","","",""
"html-keyboard-response","156","655756","0.0-9.0-0.68","5f4cc4ea00dba58ecd5a98a4","64afc2c9a8732ea92db0087d","64afd4a9411e63abb33613f4","null","null","<p style=""font-size: 60px; font-family: BACS"">mBbKCdt</p>","","","","","","","",""
"html-keyboard-response","157","656757","0.0-9.0-0.69","5f4cc4ea00dba58ecd5a98a4","64afc2c9a8732ea92db0087d","64afd4a9411e63abb33613f4","null","null","<p style=""font-size: 60px; font-family: BACS"">DBklbAMO</p>","","","","","","","",""
"html-keyboard-response","158","657773","0.0-9.0-0.70","5f4cc4ea00dba58ecd5a98a4","64afc2c9a8732ea92db0087d","64afd4a9411e63abb33613f4","null","null","<p style=""font-size: 60px; font-family: BACS"">EYtYROMC</p>","","","","","","","",""
"html-keyboard-response","159","658774","0.0-9.0-0.71","5f4cc4ea00dba58ecd5a98a4","64afc2c9a8732ea92db0087d","64afd4a9411e63abb33613f4","null","null","<p style=""font-size: 60px; font-family: BACS"">ECtbDbTE</p>","","","","","","","",""
"html-keyboard-response","160","659790","0.0-9.0-0.72","5f4cc4ea00dba58ecd5a98a4","64afc2c9a8732ea92db0087d","64afd4a9411e63abb33613f4","null","null","<p style=""font-size: 60px; font-family: BACS"">ubALmJZr</p>","","","","","","","",""
"html-keyboard-response","161","660791","0.0-9.0-0.73","5f4cc4ea00dba58ecd5a98a4","64afc2c9a8732ea92db0087d","64afd4a9411e63abb33613f4","null","null","<p style=""font-size: 60px; font-family: BACS"">LQuruOAO</p>","","","","","","","",""
"html-keyboard-response","162","661806","0.0-9.0-0.74","5f4cc4ea00dba58ecd5a98a4","64afc2c9a8732ea92db0087d","64afd4a9411e63abb33613f4","null","null","<p style=""font-size: 60px; font-family: BACS"">YJkbJZr</p>","","","","","","","",""
"html-keyboard-response","163","662808","0.0-9.0-0.75","5f4cc4ea00dba58ecd5a98a4","64afc2c9a8732ea92db0087d","64afd4a9411e63abb33613f4","null","null","<p style=""font-size: 60px; font-family: BACS"">ubALmuOAO</p>","","","","","","","",""
"html-keyboard-response","164","663809","0.0-9.0-0.76","5f4cc4ea00dba58ecd5a98a4","64afc2c9a8732ea92db0087d","64afd4a9411e63abb33613f4","null","null","<p style=""font-size: 60px; font-family: BACS"">OmtlDbTE</p>","","","","","","","",""
"html-keyboard-response","165","664823","0.0-9.0-0.77","5f4cc4ea00dba58ecd5a98a4","64afc2c9a8732ea92db0087d","64afd4a9411e63abb33613f4","null","null","<p style=""font-size: 60px; font-family: BACS"">ZdlOuOAO</p>","","","","","","","",""
"html-keyboard-response","166","665825","0.0-9.0-0.78","5f4cc4ea00dba58ecd5a98a4","64afc2c9a8732ea92db0087d","64afd4a9411e63abb33613f4","null","null","<p style=""font-size: 60px; font-family: BACS"">OmtlDEPBT</p>","","","","","","","",""
"html-keyboard-response","167","666839","0.0-9.0-0.79","5f4cc4ea00dba58ecd5a98a4","64afc2c9a8732ea92db0087d","64afd4a9411e63abb33613f4","null","null","<p style=""font-size: 60px; font-family: BACS"">ubALmYaOk</p>","","","","","","","",""
"html-keyboard-response","168","670107","0.0-10.0","5f4cc4ea00dba58ecd5a98a4","64afc2c9a8732ea92db0087d","64afd4a9411e63abb33613f4","3268"," ","<p>Ottimo, hai visto il secondo blocco di parole. Ora puoi prenderti una piccola pausa.</p>
      <p>Premi la barra quando sei pronta/o per riprendere.</p>","","","","","","","",""
"html-keyboard-response","169","671108","0.0-11.0-0.0","5f4cc4ea00dba58ecd5a98a4","64afc2c9a8732ea92db0087d","64afd4a9411e63abb33613f4","null","null","<p style=""font-size: 60px; font-family: BACS"">hlkTEPBT</p>","","","","","","","",""
"html-keyboard-response","170","672123","0.0-11.0-0.1","5f4cc4ea00dba58ecd5a98a4","64afc2c9a8732ea92db0087d","64afd4a9411e63abb33613f4","null","null","<p style=""font-size: 60px; font-family: BACS"">dYdACdt</p>","","","","","","","",""
"html-keyboard-response","171","673124","0.0-11.0-0.2","5f4cc4ea00dba58ecd5a98a4","64afc2c9a8732ea92db0087d","64afd4a9411e63abb33613f4","null","null","<p style=""font-size: 60px; font-family: BACS"">OmtlDEPBT</p>","","","","","","","",""
"html-keyboard-response","172","674125","0.0-11.0-0.3","5f4cc4ea00dba58ecd5a98a4","64afc2c9a8732ea92db0087d","64afd4a9411e63abb33613f4","null","null","<p style=""font-size: 60px; font-family: BACS"">ubALmJcL</p>","","","","","","","",""
"html-keyboard-response","173","675125","0.0-11.0-0.4","5f4cc4ea00dba58ecd5a98a4","64afc2c9a8732ea92db0087d","64afd4a9411e63abb33613f4","null","null","<p style=""font-size: 60px; font-family: BACS"">DBklOMC</p>","","","","","","","",""
"html-keyboard-response","174","676139","0.0-11.0-0.5","5f4cc4ea00dba58ecd5a98a4","64afc2c9a8732ea92db0087d","64afd4a9411e63abb33613f4","null","null","<p style=""font-size: 60px; font-family: BACS"">UdumdJZr</p>","","","","","","","",""
"html-keyboard-response","175","677140","0.0-11.0-0.6","5f4cc4ea00dba58ecd5a98a4","64afc2c9a8732ea92db0087d","64afd4a9411e63abb33613f4","null","null","<p style=""font-size: 60px; font-family: BACS"">YJkbuOAO</p>","","","","","","","",""
"html-keyboard-response","176","678141","0.0-11.0-0.7","5f4cc4ea00dba58ecd5a98a4","64afc2c9a8732ea92db0087d","64afd4a9411e63abb33613f4","null","null","<p style=""font-size: 60px; font-family: BACS"">dkLlJcL</p>","","","","","","","",""
"html-keyboard-response","177","679149","0.0-11.0-0.8","5f4cc4ea00dba58ecd5a98a4","64afc2c9a8732ea92db0087d","64afd4a9411e63abb33613f4","null","null","<p style=""font-size: 60px; font-family: BACS"">UdumduOAO</p>","","","","","","","",""
"html-keyboard-response","178","680166","0.0-11.0-0.9","5f4cc4ea00dba58ecd5a98a4","64afc2c9a8732ea92db0087d","64afd4a9411e63abb33613f4","null","null","<p style=""font-size: 60px; font-family: BACS"">hlkTOMC</p>","","","","","","","",""
"html-keyboard-response","179","681181","0.0-11.0-0.10","5f4cc4ea00dba58ecd5a98a4","64afc2c9a8732ea92db0087d","64afd4a9411e63abb33613f4","null","null","<p style=""font-size: 60px; font-family: BACS"">dYdAbTE</p>","","","","","","","",""
"html-keyboard-response","180","682197","0.0-11.0-0.11","5f4cc4ea00dba58ecd5a98a4","64afc2c9a8732ea92db0087d","64afd4a9411e63abb33613f4","null","null","<p style=""font-size: 60px; font-family: BACS"">EMYKCdt</p>","","","","","","","",""
"html-keyboard-response","181","683212","0.0-11.0-0.12","5f4cc4ea00dba58ecd5a98a4","64afc2c9a8732ea92db0087d","64afd4a9411e63abb33613f4","null","null","<p style=""font-size: 60px; font-family: BACS"">OdYPOMC</p>","","","","","","","",""
"html-keyboard-response","182","684243","0.0-11.0-0.13","5f4cc4ea00dba58ecd5a98a4","64afc2c9a8732ea92db0087d","64afd4a9411e63abb33613f4","null","null","<p style=""font-size: 60px; font-family: BACS"">YJkbJZr</p>","","","","","","","",""
"html-keyboard-response","183","685243","0.0-11.0-0.14","5f4cc4ea00dba58ecd5a98a4","64afc2c9a8732ea92db0087d","64afd4a9411e63abb33613f4","null","null","<p style=""font-size: 60px; font-family: BACS"">YOaAbJcL</p>","","","","","","","",""
"html-keyboard-response","184","686259","0.0-11.0-0.15","5f4cc4ea00dba58ecd5a98a4","64afc2c9a8732ea92db0087d","64afd4a9411e63abb33613f4","null","null","<p style=""font-size: 60px; font-family: BACS"">amJmJZr</p>","","","","","","","",""
"html-keyboard-response","185","687275","0.0-11.0-0.16","5f4cc4ea00dba58ecd5a98a4","64afc2c9a8732ea92db0087d","64afd4a9411e63abb33613f4","null","null","<p style=""font-size: 60px; font-family: BACS"">dYdAEPBT</p>","","","","","","","",""
"html-keyboard-response","186","688290","0.0-11.0-0.17","5f4cc4ea00dba58ecd5a98a4","64afc2c9a8732ea92db0087d","64afd4a9411e63abb33613f4","null","null","<p style=""font-size: 60px; font-family: BACS"">OmtlDbTE</p>","","","","","","","",""
"html-keyboard-response","187","689305","0.0-11.0-0.18","5f4cc4ea00dba58ecd5a98a4","64afc2c9a8732ea92db0087d","64afd4a9411e63abb33613f4","null","null","<p style=""font-size: 60px; font-family: BACS"">ubALmYaOk</p>","","","","","","","",""
"html-keyboard-response","188","690307","0.0-11.0-0.19","5f4cc4ea00dba58ecd5a98a4","64afc2c9a8732ea92db0087d","64afd4a9411e63abb33613f4","null","null","<p style=""font-size: 60px; font-family: BACS"">dkLluvJ</p>","","","","","","","",""
"html-keyboard-response","189","691323","0.0-11.0-0.20","5f4cc4ea00dba58ecd5a98a4","64afc2c9a8732ea92db0087d","64afd4a9411e63abb33613f4","null","null","<p style=""font-size: 60px; font-family: BACS"">DBklbTE</p>","","","","","","","",""
"html-keyboard-response","190","692339","0.0-11.0-0.21","5f4cc4ea00dba58ecd5a98a4","64afc2c9a8732ea92db0087d","64afd4a9411e63abb33613f4","null","null","<p style=""font-size: 60px; font-family: BACS"">amJmYaOk</p>","","","","","","","",""
"html-keyboard-response","191","693355","0.0-11.0-0.22","5f4cc4ea00dba58ecd5a98a4","64afc2c9a8732ea92db0087d","64afd4a9411e63abb33613f4","null","null","<p style=""font-size: 60px; font-family: BACS"">tRPDbAMO</p>","","","","","","","",""
"html-keyboard-response","192","694356","0.0-11.0-0.23","5f4cc4ea00dba58ecd5a98a4","64afc2c9a8732ea92db0087d","64afd4a9411e63abb33613f4","null","null","<p style=""font-size: 60px; font-family: BACS"">UaZmaYaOk</p>","","","","","","","",""
"html-keyboard-response","193","695372","0.0-11.0-0.24","5f4cc4ea00dba58ecd5a98a4","64afc2c9a8732ea92db0087d","64afd4a9411e63abb33613f4","null","null","<p style=""font-size: 60px; font-family: BACS"">YOaAbJZr</p>","","","","","","","",""
"html-keyboard-response","194","696373","0.0-11.0-0.25","5f4cc4ea00dba58ecd5a98a4","64afc2c9a8732ea92db0087d","64afd4a9411e63abb33613f4","null","null","<p style=""font-size: 60px; font-family: BACS"">vAarJcL</p>","","","","","","","",""
"html-keyboard-response","195","697374","0.0-11.0-0.26","5f4cc4ea00dba58ecd5a98a4","64afc2c9a8732ea92db0087d","64afd4a9411e63abb33613f4","null","null","<p style=""font-size: 60px; font-family: BACS"">YJkbYaOk</p>","","","","","","","",""
"html-keyboard-response","196","698389","0.0-11.0-0.27","5f4cc4ea00dba58ecd5a98a4","64afc2c9a8732ea92db0087d","64afd4a9411e63abb33613f4","null","null","<p style=""font-size: 60px; font-family: BACS"">ZdlOuOAO</p>","","","","","","","",""
"html-keyboard-response","197","699404","0.0-11.0-0.28","5f4cc4ea00dba58ecd5a98a4","64afc2c9a8732ea92db0087d","64afd4a9411e63abb33613f4","null","null","<p style=""font-size: 60px; font-family: BACS"">OdYPEPBT</p>","","","","","","","",""
"html-keyboard-response","198","700405","0.0-11.0-0.29","5f4cc4ea00dba58ecd5a98a4","64afc2c9a8732ea92db0087d","64afd4a9411e63abb33613f4","null","null","<p style=""font-size: 60px; font-family: BACS"">OmtlDbAMO</p>","","","","","","","",""
"html-keyboard-response","199","701407","0.0-11.0-0.30","5f4cc4ea00dba58ecd5a98a4","64afc2c9a8732ea92db0087d","64afd4a9411e63abb33613f4","null","null","<p style=""font-size: 60px; font-family: BACS"">EMYKOMC</p>","","","","","","","",""
"html-keyboard-response","200","702422","0.0-11.0-0.31","5f4cc4ea00dba58ecd5a98a4","64afc2c9a8732ea92db0087d","64afd4a9411e63abb33613f4","null","null","<p style=""font-size: 60px; font-family: BACS"">amJmuOAO</p>","","","","","","","",""
"html-keyboard-response","201","703434","0.0-11.0-0.32","5f4cc4ea00dba58ecd5a98a4","64afc2c9a8732ea92db0087d","64afd4a9411e63abb33613f4","null","null","<p style=""font-size: 60px; font-family: BACS"">OdYPbAMO</p>","","","","","","","",""
"html-keyboard-response","202","704438","0.0-11.0-0.33","5f4cc4ea00dba58ecd5a98a4","64afc2c9a8732ea92db0087d","64afd4a9411e63abb33613f4","null","null","<p style=""font-size: 60px; font-family: BACS"">ZdlOJcL</p>","","","","","","","",""
"html-keyboard-response","203","705454","0.0-11.0-0.34","5f4cc4ea00dba58ecd5a98a4","64afc2c9a8732ea92db0087d","64afd4a9411e63abb33613f4","null","null","<p style=""font-size: 60px; font-family: BACS"">EYtYRbTE</p>","","","","","","","",""
"html-keyboard-response","204","706471","0.0-11.0-0.35","5f4cc4ea00dba58ecd5a98a4","64afc2c9a8732ea92db0087d","64afd4a9411e63abb33613f4","null","null","<p style=""font-size: 60px; font-family: BACS"">dkLlYaOk</p>","","","","","","","",""
"html-keyboard-response","205","707488","0.0-11.0-0.36","5f4cc4ea00dba58ecd5a98a4","64afc2c9a8732ea92db0087d","64afd4a9411e63abb33613f4","null","null","<p style=""font-size: 60px; font-family: BACS"">vAaruvJ</p>","","","","","","","",""
"html-keyboard-response","206","708504","0.0-11.0-0.37","5f4cc4ea00dba58ecd5a98a4","64afc2c9a8732ea92db0087d","64afd4a9411e63abb33613f4","null","null","<p style=""font-size: 60px; font-family: BACS"">EYtYREPBT</p>","","","","","","","",""
"html-keyboard-response","207","709506","0.0-11.0-0.38","5f4cc4ea00dba58ecd5a98a4","64afc2c9a8732ea92db0087d","64afd4a9411e63abb33613f4","null","null","<p style=""font-size: 60px; font-family: BACS"">dYdAOMC</p>","","","","","","","",""
"html-keyboard-response","208","710521","0.0-11.0-0.39","5f4cc4ea00dba58ecd5a98a4","64afc2c9a8732ea92db0087d","64afd4a9411e63abb33613f4","null","null","<p style=""font-size: 60px; font-family: BACS"">YOaAbYaOk</p>","","","","","","","",""
"html-keyboard-response","209","711523","0.0-11.0-0.40","5f4cc4ea00dba58ecd5a98a4","64afc2c9a8732ea92db0087d","64afd4a9411e63abb33613f4","null","null","<p style=""font-size: 60px; font-family: BACS"">UaZmauOAO</p>","","","","","","","",""
"html-keyboard-response","210","712538","0.0-11.0-0.41","5f4cc4ea00dba58ecd5a98a4","64afc2c9a8732ea92db0087d","64afd4a9411e63abb33613f4","null","null","<p style=""font-size: 60px; font-family: BACS"">UdumdJcL</p>","","","","","","","",""
"html-keyboard-response","211","713539","0.0-11.0-0.42","5f4cc4ea00dba58ecd5a98a4","64afc2c9a8732ea92db0087d","64afd4a9411e63abb33613f4","null","null","<p style=""font-size: 60px; font-family: BACS"">LQuruOAO</p>","","","","","","","",""
"html-keyboard-response","212","714555","0.0-11.0-0.43","5f4cc4ea00dba58ecd5a98a4","64afc2c9a8732ea92db0087d","64afd4a9411e63abb33613f4","null","null","<p style=""font-size: 60px; font-family: BACS"">UaZmaJcL</p>","","","","","","","",""
"html-keyboard-response","213","715557","0.0-11.0-0.44","5f4cc4ea00dba58ecd5a98a4","64afc2c9a8732ea92db0087d","64afd4a9411e63abb33613f4","null","null","<p style=""font-size: 60px; font-family: BACS"">ECtbDbTE</p>","","","","","","","",""
"html-keyboard-response","214","716572","0.0-11.0-0.45","5f4cc4ea00dba58ecd5a98a4","64afc2c9a8732ea92db0087d","64afd4a9411e63abb33613f4","null","null","<p style=""font-size: 60px; font-family: BACS"">hlkTCdt</p>","","","","","","","",""
"html-keyboard-response","215","717573","0.0-11.0-0.46","5f4cc4ea00dba58ecd5a98a4","64afc2c9a8732ea92db0087d","64afd4a9411e63abb33613f4","null","null","<p style=""font-size: 60px; font-family: BACS"">tRPDbTE</p>","","","","","","","",""
"html-keyboard-response","216","718589","0.0-11.0-0.47","5f4cc4ea00dba58ecd5a98a4","64afc2c9a8732ea92db0087d","64afd4a9411e63abb33613f4","null","null","<p style=""font-size: 60px; font-family: BACS"">EYtYROMC</p>","","","","","","","",""
"html-keyboard-response","217","719590","0.0-11.0-0.48","5f4cc4ea00dba58ecd5a98a4","64afc2c9a8732ea92db0087d","64afd4a9411e63abb33613f4","null","null","<p style=""font-size: 60px; font-family: BACS"">UdumduvJ</p>","","","","","","","",""
"html-keyboard-response","218","720604","0.0-11.0-0.49","5f4cc4ea00dba58ecd5a98a4","64afc2c9a8732ea92db0087d","64afd4a9411e63abb33613f4","null","null","<p style=""font-size: 60px; font-family: BACS"">tRPDEPBT</p>","","","","","","","",""
"html-keyboard-response","219","721605","0.0-11.0-0.50","5f4cc4ea00dba58ecd5a98a4","64afc2c9a8732ea92db0087d","64afd4a9411e63abb33613f4","null","null","<p style=""font-size: 60px; font-family: BACS"">ECtbDbAMO</p>","","","","","","","",""
"html-keyboard-response","220","722606","0.0-11.0-0.51","5f4cc4ea00dba58ecd5a98a4","64afc2c9a8732ea92db0087d","64afd4a9411e63abb33613f4","null","null","<p style=""font-size: 60px; font-family: BACS"">ZdlOYaOk</p>","","","","","","","",""
"html-keyboard-response","221","723621","0.0-11.0-0.52","5f4cc4ea00dba58ecd5a98a4","64afc2c9a8732ea92db0087d","64afd4a9411e63abb33613f4","null","null","<p style=""font-size: 60px; font-family: BACS"">dkLlJZr</p>","","","","","","","",""
"html-keyboard-response","222","724622","0.0-11.0-0.53","5f4cc4ea00dba58ecd5a98a4","64afc2c9a8732ea92db0087d","64afd4a9411e63abb33613f4","null","null","<p style=""font-size: 60px; font-family: BACS"">mBbKbAMO</p>","","","","","","","",""
"html-keyboard-response","223","725623","0.0-11.0-0.54","5f4cc4ea00dba58ecd5a98a4","64afc2c9a8732ea92db0087d","64afd4a9411e63abb33613f4","null","null","<p style=""font-size: 60px; font-family: BACS"">LQurYaOk</p>","","","","","","","",""
"html-keyboard-response","224","726637","0.0-11.0-0.55","5f4cc4ea00dba58ecd5a98a4","64afc2c9a8732ea92db0087d","64afd4a9411e63abb33613f4","null","null","<p style=""font-size: 60px; font-family: BACS"">OmtlDOMC</p>","","","","","","","",""
"html-keyboard-response","225","727652","0.0-11.0-0.56","5f4cc4ea00dba58ecd5a98a4","64afc2c9a8732ea92db0087d","64afd4a9411e63abb33613f4","null","null","<p style=""font-size: 60px; font-family: BACS"">DBklCdt</p>","","","","","","","",""
"html-keyboard-response","226","728654","0.0-11.0-0.57","5f4cc4ea00dba58ecd5a98a4","64afc2c9a8732ea92db0087d","64afd4a9411e63abb33613f4","null","null","<p style=""font-size: 60px; font-family: BACS"">hlkTbTE</p>","","","","","","","",""
"html-keyboard-response","227","729655","0.0-11.0-0.58","5f4cc4ea00dba58ecd5a98a4","64afc2c9a8732ea92db0087d","64afd4a9411e63abb33613f4","null","null","<p style=""font-size: 60px; font-family: BACS"">ECtbDCdt</p>","","","","","","","",""
"html-keyboard-response","228","730669","0.0-11.0-0.59","5f4cc4ea00dba58ecd5a98a4","64afc2c9a8732ea92db0087d","64afd4a9411e63abb33613f4","null","null","<p style=""font-size: 60px; font-family: BACS"">ubALmJZr</p>","","","","","","","",""
"html-keyboard-response","229","731671","0.0-11.0-0.60","5f4cc4ea00dba58ecd5a98a4","64afc2c9a8732ea92db0087d","64afd4a9411e63abb33613f4","null","null","<p style=""font-size: 60px; font-family: BACS"">ZdlOuvJ</p>","","","","","","","",""
"html-keyboard-response","230","732687","0.0-11.0-0.61","5f4cc4ea00dba58ecd5a98a4","64afc2c9a8732ea92db0087d","64afd4a9411e63abb33613f4","null","null","<p style=""font-size: 60px; font-family: BACS"">EMYKbAMO</p>","","","","","","","",""
"html-keyboard-response","231","733687","0.0-11.0-0.62","5f4cc4ea00dba58ecd5a98a4","64afc2c9a8732ea92db0087d","64afd4a9411e63abb33613f4","null","null","<p style=""font-size: 60px; font-family: BACS"">YOaAbuvJ</p>","","","","","","","",""
"html-keyboard-response","232","734703","0.0-11.0-0.63","5f4cc4ea00dba58ecd5a98a4","64afc2c9a8732ea92db0087d","64afd4a9411e63abb33613f4","null","null","<p style=""font-size: 60px; font-family: BACS"">OdYPCdt</p>","","","","","","","",""
"html-keyboard-response","233","735720","0.0-11.0-0.64","5f4cc4ea00dba58ecd5a98a4","64afc2c9a8732ea92db0087d","64afd4a9411e63abb33613f4","null","null","<p style=""font-size: 60px; font-family: BACS"">vAarJZr</p>","","","","","","","",""
"html-keyboard-response","234","736729","0.0-11.0-0.65","5f4cc4ea00dba58ecd5a98a4","64afc2c9a8732ea92db0087d","64afd4a9411e63abb33613f4","null","null","<p style=""font-size: 60px; font-family: BACS"">ubALmuOAO</p>","","","","","","","",""
"html-keyboard-response","235","737738","0.0-11.0-0.66","5f4cc4ea00dba58ecd5a98a4","64afc2c9a8732ea92db0087d","64afd4a9411e63abb33613f4","null","null","<p style=""font-size: 60px; font-family: BACS"">tRPDCdt</p>","","","","","","","",""
"html-keyboard-response","236","738753","0.0-11.0-0.67","5f4cc4ea00dba58ecd5a98a4","64afc2c9a8732ea92db0087d","64afd4a9411e63abb33613f4","null","null","<p style=""font-size: 60px; font-family: BACS"">ECtbDOMC</p>","","","","","","","",""
"html-keyboard-response","237","739754","0.0-11.0-0.68","5f4cc4ea00dba58ecd5a98a4","64afc2c9a8732ea92db0087d","64afd4a9411e63abb33613f4","null","null","<p style=""font-size: 60px; font-family: BACS"">UaZmauvJ</p>","","","","","","","",""
"html-keyboard-response","238","740755","0.0-11.0-0.69","5f4cc4ea00dba58ecd5a98a4","64afc2c9a8732ea92db0087d","64afd4a9411e63abb33613f4","null","null","<p style=""font-size: 60px; font-family: BACS"">LQurJcL</p>","","","","","","","",""
"html-keyboard-response","239","741770","0.0-11.0-0.70","5f4cc4ea00dba58ecd5a98a4","64afc2c9a8732ea92db0087d","64afd4a9411e63abb33613f4","null","null","<p style=""font-size: 60px; font-family: BACS"">mBbKEPBT</p>","","","","","","","",""
"html-keyboard-response","240","742772","0.0-11.0-0.71","5f4cc4ea00dba58ecd5a98a4","64afc2c9a8732ea92db0087d","64afd4a9411e63abb33613f4","null","null","<p style=""font-size: 60px; font-family: BACS"">amJmuvJ</p>","","","","","","","",""
"html-keyboard-response","241","743787","0.0-11.0-0.72","5f4cc4ea00dba58ecd5a98a4","64afc2c9a8732ea92db0087d","64afd4a9411e63abb33613f4","null","null","<p style=""font-size: 60px; font-family: BACS"">EYtYRbAMO</p>","","","","","","","",""
"html-keyboard-response","242","744788","0.0-11.0-0.73","5f4cc4ea00dba58ecd5a98a4","64afc2c9a8732ea92db0087d","64afd4a9411e63abb33613f4","null","null","<p style=""font-size: 60px; font-family: BACS"">EMYKEPBT</p>","","","","","","","",""
"html-keyboard-response","243","745790","0.0-11.0-0.74","5f4cc4ea00dba58ecd5a98a4","64afc2c9a8732ea92db0087d","64afd4a9411e63abb33613f4","null","null","<p style=""font-size: 60px; font-family: BACS"">mBbKbTE</p>","","","","","","","",""
"html-keyboard-response","244","746804","0.0-11.0-0.75","5f4cc4ea00dba58ecd5a98a4","64afc2c9a8732ea92db0087d","64afd4a9411e63abb33613f4","null","null","<p style=""font-size: 60px; font-family: BACS"">YJkbuvJ</p>","","","","","","","",""
"html-keyboard-response","245","747805","0.0-11.0-0.76","5f4cc4ea00dba58ecd5a98a4","64afc2c9a8732ea92db0087d","64afd4a9411e63abb33613f4","null","null","<p style=""font-size: 60px; font-family: BACS"">vAaruOAO</p>","","","","","","","",""
"html-keyboard-response","246","748820","0.0-11.0-0.77","5f4cc4ea00dba58ecd5a98a4","64afc2c9a8732ea92db0087d","64afd4a9411e63abb33613f4","null","null","<p style=""font-size: 60px; font-family: BACS"">mBbKCdt</p>","","","","","","","",""
"html-keyboard-response","247","749822","0.0-11.0-0.78","5f4cc4ea00dba58ecd5a98a4","64afc2c9a8732ea92db0087d","64afd4a9411e63abb33613f4","null","null","<p style=""font-size: 60px; font-family: BACS"">LQurJZr</p>","","","","","","","",""
"html-keyboard-response","248","750823","0.0-11.0-0.79","5f4cc4ea00dba58ecd5a98a4","64afc2c9a8732ea92db0087d","64afd4a9411e63abb33613f4","null","null","<p style=""font-size: 60px; font-family: BACS"">DBklbAMO</p>","","","","","","","",""
"html-keyboard-response","249","755397","0.0-12.0","5f4cc4ea00dba58ecd5a98a4","64afc2c9a8732ea92db0087d","64afd4a9411e63abb33613f4","4574"," ","<p>Ottimo, hai visto il terzo blocco di parole. Ora puoi prenderti una piccola pausa.</p>
      <p>Premi la barra quando sei pronta/o per riprendere.</p>","","","","","","","",""
"html-keyboard-response","250","756407","0.0-13.0-0.0","5f4cc4ea00dba58ecd5a98a4","64afc2c9a8732ea92db0087d","64afd4a9411e63abb33613f4","null","null","<p style=""font-size: 60px; font-family: BACS"">OmtlDbTE</p>","","","","","","","",""
"html-keyboard-response","251","757418","0.0-13.0-0.1","5f4cc4ea00dba58ecd5a98a4","64afc2c9a8732ea92db0087d","64afd4a9411e63abb33613f4","null","null","<p style=""font-size: 60px; font-family: BACS"">ZdlOuOAO</p>","","","","","","","",""
"html-keyboard-response","252","758419","0.0-13.0-0.2","5f4cc4ea00dba58ecd5a98a4","64afc2c9a8732ea92db0087d","64afd4a9411e63abb33613f4","null","null","<p style=""font-size: 60px; font-family: BACS"">ECtbDbTE</p>","","","","","","","",""
"html-keyboard-response","253","759421","0.0-13.0-0.3","5f4cc4ea00dba58ecd5a98a4","64afc2c9a8732ea92db0087d","64afd4a9411e63abb33613f4","null","null","<p style=""font-size: 60px; font-family: BACS"">ubALmYaOk</p>","","","","","","","",""
"html-keyboard-response","254","760436","0.0-13.0-0.4","5f4cc4ea00dba58ecd5a98a4","64afc2c9a8732ea92db0087d","64afd4a9411e63abb33613f4","null","null","<p style=""font-size: 60px; font-family: BACS"">dYdACdt</p>","","","","","","","",""
"html-keyboard-response","255","761452","0.0-13.0-0.5","5f4cc4ea00dba58ecd5a98a4","64afc2c9a8732ea92db0087d","64afd4a9411e63abb33613f4","null","null","<p style=""font-size: 60px; font-family: BACS"">amJmJZr</p>","","","","","","","",""
"html-keyboard-response","256","762453","0.0-13.0-0.6","5f4cc4ea00dba58ecd5a98a4","64afc2c9a8732ea92db0087d","64afd4a9411e63abb33613f4","null","null","<p style=""font-size: 60px; font-family: BACS"">YOaAbJcL</p>","","","","","","","",""
"html-keyboard-response","257","763469","0.0-13.0-0.7","5f4cc4ea00dba58ecd5a98a4","64afc2c9a8732ea92db0087d","64afd4a9411e63abb33613f4","null","null","<p style=""font-size: 60px; font-family: BACS"">OmtlDOMC</p>","","","","","","","",""
"html-keyboard-response","258","764470","0.0-13.0-0.8","5f4cc4ea00dba58ecd5a98a4","64afc2c9a8732ea92db0087d","64afd4a9411e63abb33613f4","null","null","<p style=""font-size: 60px; font-family: BACS"">OdYPbAMO</p>","","","","","","","",""
"html-keyboard-response","259","765486","0.0-13.0-0.9","5f4cc4ea00dba58ecd5a98a4","64afc2c9a8732ea92db0087d","64afd4a9411e63abb33613f4","null","null","<p style=""font-size: 60px; font-family: BACS"">tRPDEPBT</p>","","","","","","","",""
"html-keyboard-response","260","766487","0.0-13.0-0.10","5f4cc4ea00dba58ecd5a98a4","64afc2c9a8732ea92db0087d","64afd4a9411e63abb33613f4","null","null","<p style=""font-size: 60px; font-family: BACS"">OmtlDbAMO</p>","","","","","","","",""
"html-keyboard-response","261","767502","0.0-13.0-0.11","5f4cc4ea00dba58ecd5a98a4","64afc2c9a8732ea92db0087d","64afd4a9411e63abb33613f4","null","null","<p style=""font-size: 60px; font-family: BACS"">dYdAOMC</p>","","","","","","","",""
"html-keyboard-response","262","768503","0.0-13.0-0.12","5f4cc4ea00dba58ecd5a98a4","64afc2c9a8732ea92db0087d","64afd4a9411e63abb33613f4","null","null","<p style=""font-size: 60px; font-family: BACS"">mBbKbTE</p>","","","","","","","",""
"html-keyboard-response","263","769519","0.0-13.0-0.13","5f4cc4ea00dba58ecd5a98a4","64afc2c9a8732ea92db0087d","64afd4a9411e63abb33613f4","null","null","<p style=""font-size: 60px; font-family: BACS"">ubALmJZr</p>","","","","","","","",""
"html-keyboard-response","264","770521","0.0-13.0-0.14","5f4cc4ea00dba58ecd5a98a4","64afc2c9a8732ea92db0087d","64afd4a9411e63abb33613f4","null","null","<p style=""font-size: 60px; font-family: BACS"">tRPDCdt</p>","","","","","","","",""
"html-keyboard-response","265","771537","0.0-13.0-0.15","5f4cc4ea00dba58ecd5a98a4","64afc2c9a8732ea92db0087d","64afd4a9411e63abb33613f4","null","null","<p style=""font-size: 60px; font-family: BACS"">DBklOMC</p>","","","","","","","",""
"html-keyboard-response","266","772538","0.0-13.0-0.16","5f4cc4ea00dba58ecd5a98a4","64afc2c9a8732ea92db0087d","64afd4a9411e63abb33613f4","null","null","<p style=""font-size: 60px; font-family: BACS"">EYtYREPBT</p>","","","","","","","",""
"html-keyboard-response","267","773553","0.0-13.0-0.17","5f4cc4ea00dba58ecd5a98a4","64afc2c9a8732ea92db0087d","64afd4a9411e63abb33613f4","null","null","<p style=""font-size: 60px; font-family: BACS"">UdumduOAO</p>","","","","","","","",""
"html-keyboard-response","268","774554","0.0-13.0-0.18","5f4cc4ea00dba58ecd5a98a4","64afc2c9a8732ea92db0087d","64afd4a9411e63abb33613f4","null","null","<p style=""font-size: 60px; font-family: BACS"">EYtYROMC</p>","","","","","","","",""
"html-keyboard-response","269","775570","0.0-13.0-0.19","5f4cc4ea00dba58ecd5a98a4","64afc2c9a8732ea92db0087d","64afd4a9411e63abb33613f4","null","null","<p style=""font-size: 60px; font-family: BACS"">ECtbDbAMO</p>","","","","","","","",""
"html-keyboard-response","270","776572","0.0-13.0-0.20","5f4cc4ea00dba58ecd5a98a4","64afc2c9a8732ea92db0087d","64afd4a9411e63abb33613f4","null","null","<p style=""font-size: 60px; font-family: BACS"">dkLlJZr</p>","","","","","","","",""
"html-keyboard-response","271","777588","0.0-13.0-0.21","5f4cc4ea00dba58ecd5a98a4","64afc2c9a8732ea92db0087d","64afd4a9411e63abb33613f4","null","null","<p style=""font-size: 60px; font-family: BACS"">vAarJcL</p>","","","","","","","",""
"html-keyboard-response","272","778589","0.0-13.0-0.22","5f4cc4ea00dba58ecd5a98a4","64afc2c9a8732ea92db0087d","64afd4a9411e63abb33613f4","null","null","<p style=""font-size: 60px; font-family: BACS"">mBbKCdt</p>","","","","","","","",""
"html-keyboard-response","273","779603","0.0-13.0-0.23","5f4cc4ea00dba58ecd5a98a4","64afc2c9a8732ea92db0087d","64afd4a9411e63abb33613f4","null","null","<p style=""font-size: 60px; font-family: BACS"">EMYKOMC</p>","","","","","","","",""
"html-keyboard-response","274","780611","0.0-13.0-0.24","5f4cc4ea00dba58ecd5a98a4","64afc2c9a8732ea92db0087d","64afd4a9411e63abb33613f4","null","null","<p style=""font-size: 60px; font-family: BACS"">dYdAEPBT</p>","","","","","","","",""
"html-keyboard-response","275","781620","0.0-13.0-0.25","5f4cc4ea00dba58ecd5a98a4","64afc2c9a8732ea92db0087d","64afd4a9411e63abb33613f4","null","null","<p style=""font-size: 60px; font-family: BACS"">ubALmJcL</p>","","","","","","","",""
"html-keyboard-response","276","782637","0.0-13.0-0.26","5f4cc4ea00dba58ecd5a98a4","64afc2c9a8732ea92db0087d","64afd4a9411e63abb33613f4","null","null","<p style=""font-size: 60px; font-family: BACS"">YOaAbYaOk</p>","","","","","","","",""
"html-keyboard-response","277","783652","0.0-13.0-0.27","5f4cc4ea00dba58ecd5a98a4","64afc2c9a8732ea92db0087d","64afd4a9411e63abb33613f4","null","null","<p style=""font-size: 60px; font-family: BACS"">LQurJZr</p>","","","","","","","",""
"html-keyboard-response","278","784655","0.0-13.0-0.28","5f4cc4ea00dba58ecd5a98a4","64afc2c9a8732ea92db0087d","64afd4a9411e63abb33613f4","null","null","<p style=""font-size: 60px; font-family: BACS"">ECtbDOMC</p>","","","","","","","",""
"html-keyboard-response","279","785670","0.0-13.0-0.29","5f4cc4ea00dba58ecd5a98a4","64afc2c9a8732ea92db0087d","64afd4a9411e63abb33613f4","null","null","<p style=""font-size: 60px; font-family: BACS"">ubALmuOAO</p>","","","","","","","",""
"html-keyboard-response","280","786685","0.0-13.0-0.30","5f4cc4ea00dba58ecd5a98a4","64afc2c9a8732ea92db0087d","64afd4a9411e63abb33613f4","null","null","<p style=""font-size: 60px; font-family: BACS"">UdumduvJ</p>","","","","","","","",""
"html-keyboard-response","281","787687","0.0-13.0-0.31","5f4cc4ea00dba58ecd5a98a4","64afc2c9a8732ea92db0087d","64afd4a9411e63abb33613f4","null","null","<p style=""font-size: 60px; font-family: BACS"">UaZmaJcL</p>","","","","","","","",""
"html-keyboard-response","282","788702","0.0-13.0-0.32","5f4cc4ea00dba58ecd5a98a4","64afc2c9a8732ea92db0087d","64afd4a9411e63abb33613f4","null","null","<p style=""font-size: 60px; font-family: BACS"">tRPDbAMO</p>","","","","","","","",""
"html-keyboard-response","283","789719","0.0-13.0-0.33","5f4cc4ea00dba58ecd5a98a4","64afc2c9a8732ea92db0087d","64afd4a9411e63abb33613f4","null","null","<p style=""font-size: 60px; font-family: BACS"">UaZmauOAO</p>","","","","","","","",""
"html-keyboard-response","284","790721","0.0-13.0-0.34","5f4cc4ea00dba58ecd5a98a4","64afc2c9a8732ea92db0087d","64afd4a9411e63abb33613f4","null","null","<p style=""font-size: 60px; font-family: BACS"">EYtYRbTE</p>","","","","","","","",""
"html-keyboard-response","285","791735","0.0-13.0-0.35","5f4cc4ea00dba58ecd5a98a4","64afc2c9a8732ea92db0087d","64afd4a9411e63abb33613f4","null","null","<p style=""font-size: 60px; font-family: BACS"">YJkbuOAO</p>","","","","","","","",""
"html-keyboard-response","286","792736","0.0-13.0-0.36","5f4cc4ea00dba58ecd5a98a4","64afc2c9a8732ea92db0087d","64afd4a9411e63abb33613f4","null","null","<p style=""font-size: 60px; font-family: BACS"">hlkTbTE</p>","","","","","","","",""
"html-keyboard-response","287","793752","0.0-13.0-0.37","5f4cc4ea00dba58ecd5a98a4","64afc2c9a8732ea92db0087d","64afd4a9411e63abb33613f4","null","null","<p style=""font-size: 60px; font-family: BACS"">EMYKbAMO</p>","","","","","","","",""
"html-keyboard-response","288","794768","0.0-13.0-0.38","5f4cc4ea00dba58ecd5a98a4","64afc2c9a8732ea92db0087d","64afd4a9411e63abb33613f4","null","null","<p style=""font-size: 60px; font-family: BACS"">YJkbJZr</p>","","","","","","","",""
"html-keyboard-response","289","795771","0.0-13.0-0.39","5f4cc4ea00dba58ecd5a98a4","64afc2c9a8732ea92db0087d","64afd4a9411e63abb33613f4","null","null","<p style=""font-size: 60px; font-family: BACS"">DBklbAMO</p>","","","","","","","",""
"html-keyboard-response","290","796786","0.0-13.0-0.40","5f4cc4ea00dba58ecd5a98a4","64afc2c9a8732ea92db0087d","64afd4a9411e63abb33613f4","null","null","<p style=""font-size: 60px; font-family: BACS"">YJkbYaOk</p>","","","","","","","",""
"html-keyboard-response","291","797802","0.0-13.0-0.41","5f4cc4ea00dba58ecd5a98a4","64afc2c9a8732ea92db0087d","64afd4a9411e63abb33613f4","null","null","<p style=""font-size: 60px; font-family: BACS"">OdYPEPBT</p>","","","","","","","",""
"html-keyboard-response","292","798804","0.0-13.0-0.42","5f4cc4ea00dba58ecd5a98a4","64afc2c9a8732ea92db0087d","64afd4a9411e63abb33613f4","null","null","<p style=""font-size: 60px; font-family: BACS"">EYtYRbAMO</p>","","","","","","","",""
"html-keyboard-response","293","799819","0.0-13.0-0.43","5f4cc4ea00dba58ecd5a98a4","64afc2c9a8732ea92db0087d","64afd4a9411e63abb33613f4","null","null","<p style=""font-size: 60px; font-family: BACS"">dYdAbTE</p>","","","","","","","",""
"html-keyboard-response","294","800821","0.0-13.0-0.44","5f4cc4ea00dba58ecd5a98a4","64afc2c9a8732ea92db0087d","64afd4a9411e63abb33613f4","null","null","<p style=""font-size: 60px; font-family: BACS"">vAaruvJ</p>","","","","","","","",""
"html-keyboard-response","295","801822","0.0-13.0-0.45","5f4cc4ea00dba58ecd5a98a4","64afc2c9a8732ea92db0087d","64afd4a9411e63abb33613f4","null","null","<p style=""font-size: 60px; font-family: BACS"">UdumdJcL</p>","","","","","","","",""
"html-keyboard-response","296","802837","0.0-13.0-0.46","5f4cc4ea00dba58ecd5a98a4","64afc2c9a8732ea92db0087d","64afd4a9411e63abb33613f4","null","null","<p style=""font-size: 60px; font-family: BACS"">LQuruOAO</p>","","","","","","","",""
"html-keyboard-response","297","803853","0.0-13.0-0.47","5f4cc4ea00dba58ecd5a98a4","64afc2c9a8732ea92db0087d","64afd4a9411e63abb33613f4","null","null","<p style=""font-size: 60px; font-family: BACS"">YOaAbuvJ</p>","","","","","","","",""
"html-keyboard-response","298","804854","0.0-13.0-0.48","5f4cc4ea00dba58ecd5a98a4","64afc2c9a8732ea92db0087d","64afd4a9411e63abb33613f4","null","null","<p style=""font-size: 60px; font-family: BACS"">ZdlOJcL</p>","","","","","","","",""
"html-keyboard-response","299","805869","0.0-13.0-0.49","5f4cc4ea00dba58ecd5a98a4","64afc2c9a8732ea92db0087d","64afd4a9411e63abb33613f4","null","null","<p style=""font-size: 60px; font-family: BACS"">ECtbDCdt</p>","","","","","","","",""
"html-keyboard-response","300","806870","0.0-13.0-0.50","5f4cc4ea00dba58ecd5a98a4","64afc2c9a8732ea92db0087d","64afd4a9411e63abb33613f4","null","null","<p style=""font-size: 60px; font-family: BACS"">mBbKbAMO</p>","","","","","","","",""
"html-keyboard-response","301","807872","0.0-13.0-0.51","5f4cc4ea00dba58ecd5a98a4","64afc2c9a8732ea92db0087d","64afd4a9411e63abb33613f4","null","null","<p style=""font-size: 60px; font-family: BACS"">ZdlOYaOk</p>","","","","","","","",""
"html-keyboard-response","302","808887","0.0-13.0-0.52","5f4cc4ea00dba58ecd5a98a4","64afc2c9a8732ea92db0087d","64afd4a9411e63abb33613f4","null","null","<p style=""font-size: 60px; font-family: BACS"">OdYPCdt</p>","","","","","","","",""
"html-keyboard-response","303","809901","0.0-13.0-0.53","5f4cc4ea00dba58ecd5a98a4","64afc2c9a8732ea92db0087d","64afd4a9411e63abb33613f4","null","null","<p style=""font-size: 60px; font-family: BACS"">UaZmaYaOk</p>","","","","","","","",""
"html-keyboard-response","304","810904","0.0-13.0-0.54","5f4cc4ea00dba58ecd5a98a4","64afc2c9a8732ea92db0087d","64afd4a9411e63abb33613f4","null","null","<p style=""font-size: 60px; font-family: BACS"">vAaruOAO</p>","","","","","","","",""
"html-keyboard-response","305","811915","0.0-13.0-0.55","5f4cc4ea00dba58ecd5a98a4","64afc2c9a8732ea92db0087d","64afd4a9411e63abb33613f4","null","null","<p style=""font-size: 60px; font-family: BACS"">EMYKCdt</p>","","","","","","","",""
"html-keyboard-response","306","812919","0.0-13.0-0.56","5f4cc4ea00dba58ecd5a98a4","64afc2c9a8732ea92db0087d","64afd4a9411e63abb33613f4","null","null","<p style=""font-size: 60px; font-family: BACS"">OmtlDEPBT</p>","","","","","","","",""
"html-keyboard-response","307","813935","0.0-13.0-0.57","5f4cc4ea00dba58ecd5a98a4","64afc2c9a8732ea92db0087d","64afd4a9411e63abb33613f4","null","null","<p style=""font-size: 60px; font-family: BACS"">UaZmauvJ</p>","","","","","","","",""
"html-keyboard-response","308","814936","0.0-13.0-0.58","5f4cc4ea00dba58ecd5a98a4","64afc2c9a8732ea92db0087d","64afd4a9411e63abb33613f4","null","null","<p style=""font-size: 60px; font-family: BACS"">UdumdJZr</p>","","","","","","","",""
"html-keyboard-response","309","815952","0.0-13.0-0.59","5f4cc4ea00dba58ecd5a98a4","64afc2c9a8732ea92db0087d","64afd4a9411e63abb33613f4","null","null","<p style=""font-size: 60px; font-family: BACS"">DBklbTE</p>","","","","","","","",""
"html-keyboard-response","310","816953","0.0-13.0-0.60","5f4cc4ea00dba58ecd5a98a4","64afc2c9a8732ea92db0087d","64afd4a9411e63abb33613f4","null","null","<p style=""font-size: 60px; font-family: BACS"">dkLluvJ</p>","","","","","","","",""
"html-keyboard-response","311","817968","0.0-13.0-0.61","5f4cc4ea00dba58ecd5a98a4","64afc2c9a8732ea92db0087d","64afd4a9411e63abb33613f4","null","null","<p style=""font-size: 60px; font-family: BACS"">mBbKEPBT</p>","","","","","","","",""
"html-keyboard-response","312","818985","0.0-13.0-0.62","5f4cc4ea00dba58ecd5a98a4","64afc2c9a8732ea92db0087d","64afd4a9411e63abb33613f4","null","null","<p style=""font-size: 60px; font-family: BACS"">YJkbuvJ</p>","","","","","","","",""
"html-keyboard-response","313","819986","0.0-13.0-0.63","5f4cc4ea00dba58ecd5a98a4","64afc2c9a8732ea92db0087d","64afd4a9411e63abb33613f4","null","null","<p style=""font-size: 60px; font-family: BACS"">dkLlJcL</p>","","","","","","","",""
"html-keyboard-response","314","820987","0.0-13.0-0.64","5f4cc4ea00dba58ecd5a98a4","64afc2c9a8732ea92db0087d","64afd4a9411e63abb33613f4","null","null","<p style=""font-size: 60px; font-family: BACS"">LQurYaOk</p>","","","","","","","",""
"html-keyboard-response","315","822003","0.0-13.0-0.65","5f4cc4ea00dba58ecd5a98a4","64afc2c9a8732ea92db0087d","64afd4a9411e63abb33613f4","null","null","<p style=""font-size: 60px; font-family: BACS"">YOaAbJZr</p>","","","","","","","",""
"html-keyboard-response","316","823005","0.0-13.0-0.66","5f4cc4ea00dba58ecd5a98a4","64afc2c9a8732ea92db0087d","64afd4a9411e63abb33613f4","null","null","<p style=""font-size: 60px; font-family: BACS"">dkLlYaOk</p>","","","","","","","",""
"html-keyboard-response","317","824019","0.0-13.0-0.67","5f4cc4ea00dba58ecd5a98a4","64afc2c9a8732ea92db0087d","64afd4a9411e63abb33613f4","null","null","<p style=""font-size: 60px; font-family: BACS"">DBklCdt</p>","","","","","","","",""
"html-keyboard-response","318","825020","0.0-13.0-0.68","5f4cc4ea00dba58ecd5a98a4","64afc2c9a8732ea92db0087d","64afd4a9411e63abb33613f4","null","null","<p style=""font-size: 60px; font-family: BACS"">OdYPOMC</p>","","","","","","","",""
"html-keyboard-response","319","826033","0.0-13.0-0.69","5f4cc4ea00dba58ecd5a98a4","64afc2c9a8732ea92db0087d","64afd4a9411e63abb33613f4","null","null","<p style=""font-size: 60px; font-family: BACS"">vAarJZr</p>","","","","","","","",""
"html-keyboard-response","320","827038","0.0-13.0-0.70","5f4cc4ea00dba58ecd5a98a4","64afc2c9a8732ea92db0087d","64afd4a9411e63abb33613f4","null","null","<p style=""font-size: 60px; font-family: BACS"">amJmYaOk</p>","","","","","","","",""
"html-keyboard-response","321","828052","0.0-13.0-0.71","5f4cc4ea00dba58ecd5a98a4","64afc2c9a8732ea92db0087d","64afd4a9411e63abb33613f4","null","null","<p style=""font-size: 60px; font-family: BACS"">hlkTOMC</p>","","","","","","","",""
"html-keyboard-response","322","829053","0.0-13.0-0.72","5f4cc4ea00dba58ecd5a98a4","64afc2c9a8732ea92db0087d","64afd4a9411e63abb33613f4","null","null","<p style=""font-size: 60px; font-family: BACS"">tRPDbTE</p>","","","","","","","",""
"html-keyboard-response","323","830069","0.0-13.0-0.73","5f4cc4ea00dba58ecd5a98a4","64afc2c9a8732ea92db0087d","64afd4a9411e63abb33613f4","null","null","<p style=""font-size: 60px; font-family: BACS"">hlkTCdt</p>","","","","","","","",""
"html-keyboard-response","324","831071","0.0-13.0-0.74","5f4cc4ea00dba58ecd5a98a4","64afc2c9a8732ea92db0087d","64afd4a9411e63abb33613f4","null","null","<p style=""font-size: 60px; font-family: BACS"">amJmuvJ</p>","","","","","","","",""
"html-keyboard-response","325","832087","0.0-13.0-0.75","5f4cc4ea00dba58ecd5a98a4","64afc2c9a8732ea92db0087d","64afd4a9411e63abb33613f4","null","null","<p style=""font-size: 60px; font-family: BACS"">hlkTEPBT</p>","","","","","","","",""
"html-keyboard-response","326","833088","0.0-13.0-0.76","5f4cc4ea00dba58ecd5a98a4","64afc2c9a8732ea92db0087d","64afd4a9411e63abb33613f4","null","null","<p style=""font-size: 60px; font-family: BACS"">amJmuOAO</p>","","","","","","","",""
"html-keyboard-response","327","834103","0.0-13.0-0.77","5f4cc4ea00dba58ecd5a98a4","64afc2c9a8732ea92db0087d","64afd4a9411e63abb33613f4","null","null","<p style=""font-size: 60px; font-family: BACS"">ZdlOuvJ</p>","","","","","","","",""
"html-keyboard-response","328","835119","0.0-13.0-0.78","5f4cc4ea00dba58ecd5a98a4","64afc2c9a8732ea92db0087d","64afd4a9411e63abb33613f4","null","null","<p style=""font-size: 60px; font-family: BACS"">LQurJcL</p>","","","","","","","",""
"html-keyboard-response","329","836122","0.0-13.0-0.79","5f4cc4ea00dba58ecd5a98a4","64afc2c9a8732ea92db0087d","64afd4a9411e63abb33613f4","null","null","<p style=""font-size: 60px; font-family: BACS"">EMYKEPBT</p>","","","","","","","",""
"html-keyboard-response","330","882412","0.0-14.0","5f4cc4ea00dba58ecd5a98a4","64afc2c9a8732ea92db0087d","64afd4a9411e63abb33613f4","46290"," ","<p>Ottimo! Hai visto tutte le parole che abbiamo ricevuto dallo spazio.</p>
      <p>Premi la barra quando sei pronta/o per continuare.</p>","","","","","","","",""
"html-keyboard-response","331","913464","0.0-15.0","5f4cc4ea00dba58ecd5a98a4","64afc2c9a8732ea92db0087d","64afd4a9411e63abb33613f4","31052"," ","<p>In questa seconda parte, vedrai delle nuove parole che abbiamo ricevuto dallo stesso gruppo di alieni, e altre che invece provengono da un'altra comunicazione, con un altro gruppo di alieni. Purtroppo le due comunicazioni non arrivano a noi separatamente, per cui le parole sono mescolate tra loro. Il tuo compito sarà quello di individuare le parole che provengono dal gruppo che hai studiato nella prima parte dell'esperimento.</p>
      <p>Questo compito non è per nulla facile; le due comunicazioni infatti usano gli stessi caratteri. Il tuo meeting con i leader mondiali inizia tra poco, per cui non avrai molto tempo per prendere la tua decisione; dovrai essere veloce. Cerca di fare del tuo meglio usando la tua intuizione; non hai tempo di stare a pensare a lungo su ogni singola parola.</p>
      <p>Premi <strong>k</strong> quando pensi che la parola che stai vedendo sia degli stessi alieni che hai studiato prima, e <strong>d</strong> quando invece pensi che la parola che stai vedendo venga dall'altra comunicazione, con il nuovo gruppo di alieni.</p><p>Premi la barra quando sei pronta/o per iniziare.</p>","","","","","","","",""
"html-keyboard-response","332","916816","0.0-16.0-0.0","5f4cc4ea00dba58ecd5a98a4","64afc2c9a8732ea92db0087d","64afd4a9411e63abb33613f4","3352","d","<p style=""font-size: 30px;"">La parola viene del gruppo di alieni che hai studiato prima?</p><br><p style=""font-size: 60px; font-family: BACS"">vAarEPBT<p style=""font-size: 15px"">Premi <strong>k</strong> per sì, <strong>d</strong> per no.</p>","","vAarEPBT","testing","d","true","","",""
"html-keyboard-response","333","919280","0.0-16.0-1.0-0.0","5f4cc4ea00dba58ecd5a98a4","64afc2c9a8732ea92db0087d","64afd4a9411e63abb33613f4","2463"," ","<p style=""font-size: 30px; color: red"">Attenzione! Sei stato troppo lento con questa parola.</p>
      <p style=""font-size: 30px; color: red"">Cerca di essere più veloce.</p><p></p><p>Premi la barra per continuare.</p>","","","","","","","",""
"html-keyboard-response","334","920729","0.0-16.0-0.1","5f4cc4ea00dba58ecd5a98a4","64afc2c9a8732ea92db0087d","64afd4a9411e63abb33613f4","1448","k","<p style=""font-size: 30px;"">La parola viene del gruppo di alieni che hai studiato prima?</p><br><p style=""font-size: 60px; font-family: BACS"">tRPDOMC<p style=""font-size: 15px"">Premi <strong>k</strong> per sì, <strong>d</strong> per no.</p>","","tRPDOMC","testing","k","true","","",""
"html-keyboard-response","335","921929","0.0-16.0-0.2","5f4cc4ea00dba58ecd5a98a4","64afc2c9a8732ea92db0087d","64afd4a9411e63abb33613f4","1200","k","<p style=""font-size: 30px;"">La parola viene del gruppo di alieni che hai studiato prima?</p><br><p style=""font-size: 60px; font-family: BACS"">hlkTbAMO<p style=""font-size: 15px"">Premi <strong>k</strong> per sì, <strong>d</strong> per no.</p>","","hlkTbAMO","testing","k","true","","",""
"html-keyboard-response","336","923121","0.0-16.0-0.3","5f4cc4ea00dba58ecd5a98a4","64afc2c9a8732ea92db0087d","64afd4a9411e63abb33613f4","1192","k","<p style=""font-size: 30px"">&emsp;</p><br><p style=""font-size: 60px; font-family: BACS"">ECtbDYaOk<p style=""font-size: 15px"">Premi <strong>k</strong> per sì, <strong>d</strong> per no.</p>","","ECtbDYaOk","testing","d","false","","",""
"html-keyboard-response","337","924409","0.0-16.0-0.4","5f4cc4ea00dba58ecd5a98a4","64afc2c9a8732ea92db0087d","64afd4a9411e63abb33613f4","1288","d","<p style=""font-size: 30px"">&emsp;</p><br><p style=""font-size: 60px; font-family: BACS"">OmtlDCdt<p style=""font-size: 15px"">Premi <strong>k</strong> per sì, <strong>d</strong> per no.</p>","","OmtlDCdt","testing","k","false","","",""
"html-keyboard-response","338","925697","0.0-16.0-0.5","5f4cc4ea00dba58ecd5a98a4","64afc2c9a8732ea92db0087d","64afd4a9411e63abb33613f4","1288","d","<p style=""font-size: 30px"">&emsp;</p><br><p style=""font-size: 60px; font-family: BACS"">DBklEPBT<p style=""font-size: 15px"">Premi <strong>k</strong> per sì, <strong>d</strong> per no.</p>","","DBklEPBT","testing","k","false","","",""
"html-keyboard-response","339","926593","0.0-16.0-0.6","5f4cc4ea00dba58ecd5a98a4","64afc2c9a8732ea92db0087d","64afd4a9411e63abb33613f4","896","k","<p style=""font-size: 30px"">&emsp;</p><br><p style=""font-size: 60px; font-family: BACS"">amJmbAMO<p style=""font-size: 15px"">Premi <strong>k</strong> per sì, <strong>d</strong> per no.</p>","","amJmbAMO","testing","d","false","","",""
"html-keyboard-response","340","927481","0.0-16.0-0.7","5f4cc4ea00dba58ecd5a98a4","64afc2c9a8732ea92db0087d","64afd4a9411e63abb33613f4","887","k","<p style=""font-size: 30px"">&emsp;</p><br><p style=""font-size: 60px; font-family: BACS"">tRPDuOAO<p style=""font-size: 15px"">Premi <strong>k</strong> per sì, <strong>d</strong> per no.</p>","","tRPDuOAO","testing","d","false","","",""
"html-keyboard-response","341","928722","0.0-16.0-0.8","5f4cc4ea00dba58ecd5a98a4","64afc2c9a8732ea92db0087d","64afd4a9411e63abb33613f4","1240","k","<p style=""font-size: 30px"">&emsp;</p><br><p style=""font-size: 60px; font-family: BACS"">OdYPbTE<p style=""font-size: 15px"">Premi <strong>k</strong> per sì, <strong>d</strong> per no.</p>","","OdYPbTE","testing","k","true","","",""
"html-keyboard-response","342","929817","0.0-16.0-0.9","5f4cc4ea00dba58ecd5a98a4","64afc2c9a8732ea92db0087d","64afd4a9411e63abb33613f4","1095","d","<p style=""font-size: 30px"">&emsp;</p><br><p style=""font-size: 60px; font-family: BACS"">vAarYaOk<p style=""font-size: 15px"">Premi <strong>k</strong> per sì, <strong>d</strong> per no.</p>","","vAarYaOk","testing","k","false","","",""
"html-keyboard-response","343","930698","0.0-16.0-0.10","5f4cc4ea00dba58ecd5a98a4","64afc2c9a8732ea92db0087d","64afd4a9411e63abb33613f4","881","k","<p style=""font-size: 30px"">&emsp;</p><br><p style=""font-size: 60px; font-family: BACS"">ECtbDEPBT<p style=""font-size: 15px"">Premi <strong>k</strong> per sì, <strong>d</strong> per no.</p>","","ECtbDEPBT","testing","k","true","","",""
"html-keyboard-response","344","931801","0.0-16.0-0.11","5f4cc4ea00dba58ecd5a98a4","64afc2c9a8732ea92db0087d","64afd4a9411e63abb33613f4","1103","k","<p style=""font-size: 30px"">&emsp;</p><br><p style=""font-size: 60px; font-family: BACS"">ZdlOJZr<p style=""font-size: 15px"">Premi <strong>k</strong> per sì, <strong>d</strong> per no.</p>","","ZdlOJZr","testing","k","true","","",""
"html-keyboard-response","345","932786","0.0-16.0-0.12","5f4cc4ea00dba58ecd5a98a4","64afc2c9a8732ea92db0087d","64afd4a9411e63abb33613f4","985","k","<p style=""font-size: 30px"">&emsp;</p><br><p style=""font-size: 60px; font-family: BACS"">UdumdYaOk<p style=""font-size: 15px"">Premi <strong>k</strong> per sì, <strong>d</strong> per no.</p>","","UdumdYaOk","testing","k","true","","",""
"html-keyboard-response","346","933994","0.0-16.0-0.13","5f4cc4ea00dba58ecd5a98a4","64afc2c9a8732ea92db0087d","64afd4a9411e63abb33613f4","1208","k","<p style=""font-size: 30px"">&emsp;</p><br><p style=""font-size: 60px; font-family: BACS"">dYdAbAMO<p style=""font-size: 15px"">Premi <strong>k</strong> per sì, <strong>d</strong> per no.</p>","","dYdAbAMO","testing","k","true","","",""
"html-keyboard-response","347","935147","0.0-16.0-0.14","5f4cc4ea00dba58ecd5a98a4","64afc2c9a8732ea92db0087d","64afd4a9411e63abb33613f4","1152","d","<p style=""font-size: 30px"">&emsp;</p><br><p style=""font-size: 60px; font-family: BACS"">YOaAbuOAO<p style=""font-size: 15px"">Premi <strong>k</strong> per sì, <strong>d</strong> per no.</p>","","YOaAbuOAO","testing","k","false","","",""
"html-keyboard-response","348","936395","0.0-16.0-0.15","5f4cc4ea00dba58ecd5a98a4","64afc2c9a8732ea92db0087d","64afd4a9411e63abb33613f4","1247","d","<p style=""font-size: 30px"">&emsp;</p><br><p style=""font-size: 60px; font-family: BACS"">amJmJcL<p style=""font-size: 15px"">Premi <strong>k</strong> per sì, <strong>d</strong> per no.</p>","","amJmJcL","testing","k","false","","",""
"html-keyboard-response","349","937691","0.0-16.0-0.16","5f4cc4ea00dba58ecd5a98a4","64afc2c9a8732ea92db0087d","64afd4a9411e63abb33613f4","1296","k","<p style=""font-size: 30px"">&emsp;</p><br><p style=""font-size: 60px; font-family: BACS"">OmtlDJZr<p style=""font-size: 15px"">Premi <strong>k</strong> per sì, <strong>d</strong> per no.</p>","","OmtlDJZr","testing","d","false","","",""
"html-keyboard-response","350","939267","0.0-16.0-0.17","5f4cc4ea00dba58ecd5a98a4","64afc2c9a8732ea92db0087d","64afd4a9411e63abb33613f4","1576","k","<p style=""font-size: 30px"">&emsp;</p><br><p style=""font-size: 60px; font-family: BACS"">dkLluOAO<p style=""font-size: 15px"">Premi <strong>k</strong> per sì, <strong>d</strong> per no.</p>","","dkLluOAO","testing","k","true","","",""
"html-keyboard-response","351","940363","0.0-16.0-0.18","5f4cc4ea00dba58ecd5a98a4","64afc2c9a8732ea92db0087d","64afd4a9411e63abb33613f4","1096","d","<p style=""font-size: 30px"">&emsp;</p><br><p style=""font-size: 60px; font-family: BACS"">YJkbbAMO<p style=""font-size: 15px"">Premi <strong>k</strong> per sì, <strong>d</strong> per no.</p>","","YJkbbAMO","testing","d","true","","",""
"html-keyboard-response","352","941699","0.0-16.0-0.19","5f4cc4ea00dba58ecd5a98a4","64afc2c9a8732ea92db0087d","64afd4a9411e63abb33613f4","1336","k","<p style=""font-size: 30px"">&emsp;</p><br><p style=""font-size: 60px; font-family: BACS"">dkLlOMC<p style=""font-size: 15px"">Premi <strong>k</strong> per sì, <strong>d</strong> per no.</p>","","dkLlOMC","testing","d","false","","",""
"html-keyboard-response","353","942731","0.0-16.0-0.20","5f4cc4ea00dba58ecd5a98a4","64afc2c9a8732ea92db0087d","64afd4a9411e63abb33613f4","1032","d","<p style=""font-size: 30px"">&emsp;</p><br><p style=""font-size: 60px; font-family: BACS"">EMYKbTE<p style=""font-size: 15px"">Premi <strong>k</strong> per sì, <strong>d</strong> per no.</p>","","EMYKbTE","testing","k","false","","",""
"html-keyboard-response","354","943899","0.0-16.0-0.21","5f4cc4ea00dba58ecd5a98a4","64afc2c9a8732ea92db0087d","64afd4a9411e63abb33613f4","1168","d","<p style=""font-size: 30px"">&emsp;</p><br><p style=""font-size: 60px; font-family: BACS"">YOaAbOMC<p style=""font-size: 15px"">Premi <strong>k</strong> per sì, <strong>d</strong> per no.</p>","","YOaAbOMC","testing","d","true","","",""
"html-keyboard-response","355","945100","0.0-16.0-0.22","5f4cc4ea00dba58ecd5a98a4","64afc2c9a8732ea92db0087d","64afd4a9411e63abb33613f4","1200","d","<p style=""font-size: 30px"">&emsp;</p><br><p style=""font-size: 60px; font-family: BACS"">DBklYaOk<p style=""font-size: 15px"">Premi <strong>k</strong> per sì, <strong>d</strong> per no.</p>","","DBklYaOk","testing","d","true","","",""
"html-keyboard-response","356","946068","0.0-16.0-0.23","5f4cc4ea00dba58ecd5a98a4","64afc2c9a8732ea92db0087d","64afd4a9411e63abb33613f4","968","d","<p style=""font-size: 30px"">&emsp;</p><br><p style=""font-size: 60px; font-family: BACS"">mBbKOMC<p style=""font-size: 15px"">Premi <strong>k</strong> per sì, <strong>d</strong> per no.</p>","","mBbKOMC","testing","k","false","","",""
"html-keyboard-response","357","946924","0.0-16.0-0.24","5f4cc4ea00dba58ecd5a98a4","64afc2c9a8732ea92db0087d","64afd4a9411e63abb33613f4","855","k","<p style=""font-size: 30px"">&emsp;</p><br><p style=""font-size: 60px; font-family: BACS"">EYtYRJZr<p style=""font-size: 15px"">Premi <strong>k</strong> per sì, <strong>d</strong> per no.</p>","","EYtYRJZr","testing","d","false","","",""
"html-keyboard-response","358","948308","0.0-16.0-0.25","5f4cc4ea00dba58ecd5a98a4","64afc2c9a8732ea92db0087d","64afd4a9411e63abb33613f4","1384","d","<p style=""font-size: 30px"">&emsp;</p><br><p style=""font-size: 60px; font-family: BACS"">mBbKuOAO<p style=""font-size: 15px"">Premi <strong>k</strong> per sì, <strong>d</strong> per no.</p>","","mBbKuOAO","testing","d","true","","",""
"html-keyboard-response","359","949348","0.0-16.0-0.26","5f4cc4ea00dba58ecd5a98a4","64afc2c9a8732ea92db0087d","64afd4a9411e63abb33613f4","1040","k","<p style=""font-size: 30px"">&emsp;</p><br><p style=""font-size: 60px; font-family: BACS"">LQuruvJ<p style=""font-size: 15px"">Premi <strong>k</strong> per sì, <strong>d</strong> per no.</p>","","LQuruvJ","testing","k","true","","",""
"html-keyboard-response","360","950564","0.0-16.0-0.27","5f4cc4ea00dba58ecd5a98a4","64afc2c9a8732ea92db0087d","64afd4a9411e63abb33613f4","1216","k","<p style=""font-size: 30px"">&emsp;</p><br><p style=""font-size: 60px; font-family: BACS"">UdumdEPBT<p style=""font-size: 15px"">Premi <strong>k</strong> per sì, <strong>d</strong> per no.</p>","","UdumdEPBT","testing","d","false","","",""
"html-keyboard-response","361","952092","0.0-16.0-0.28","5f4cc4ea00dba58ecd5a98a4","64afc2c9a8732ea92db0087d","64afd4a9411e63abb33613f4","1528","k","<p style=""font-size: 30px"">&emsp;</p><br><p style=""font-size: 60px; font-family: BACS"">ZdlOCdt<p style=""font-size: 15px"">Premi <strong>k</strong> per sì, <strong>d</strong> per no.</p>","","ZdlOCdt","testing","d","false","","",""
"html-keyboard-response","362","953429","0.0-16.0-0.29","5f4cc4ea00dba58ecd5a98a4","64afc2c9a8732ea92db0087d","64afd4a9411e63abb33613f4","1336","k","<p style=""font-size: 30px"">&emsp;</p><br><p style=""font-size: 60px; font-family: BACS"">ubALmbTE<p style=""font-size: 15px"">Premi <strong>k</strong> per sì, <strong>d</strong> per no.</p>","","ubALmbTE","testing","d","false","","",""
"html-keyboard-response","363","954437","0.0-16.0-0.30","5f4cc4ea00dba58ecd5a98a4","64afc2c9a8732ea92db0087d","64afd4a9411e63abb33613f4","1008","k","<p style=""font-size: 30px"">&emsp;</p><br><p style=""font-size: 60px; font-family: BACS"">EYtYRCdt<p style=""font-size: 15px"">Premi <strong>k</strong> per sì, <strong>d</strong> per no.</p>","","EYtYRCdt","testing","k","true","","",""
"html-keyboard-response","364","956045","0.0-16.0-0.31","5f4cc4ea00dba58ecd5a98a4","64afc2c9a8732ea92db0087d","64afd4a9411e63abb33613f4","1608","k","<p style=""font-size: 30px"">&emsp;</p><br><p style=""font-size: 60px; font-family: BACS"">dYdAJcL<p style=""font-size: 15px"">Premi <strong>k</strong> per sì, <strong>d</strong> per no.</p>","","dYdAJcL","testing","d","false","","",""
"html-keyboard-response","365","957597","0.0-16.0-0.32","5f4cc4ea00dba58ecd5a98a4","64afc2c9a8732ea92db0087d","64afd4a9411e63abb33613f4","1552","d","<p style=""font-size: 30px"">&emsp;</p><br><p style=""font-size: 60px; font-family: BACS"">EMYKuvJ<p style=""font-size: 15px"">Premi <strong>k</strong> per sì, <strong>d</strong> per no.</p>","","EMYKuvJ","testing","d","true","","",""
"html-keyboard-response","366","958733","0.0-16.0-0.33","5f4cc4ea00dba58ecd5a98a4","64afc2c9a8732ea92db0087d","64afd4a9411e63abb33613f4","1136","k","<p style=""font-size: 30px"">&emsp;</p><br><p style=""font-size: 60px; font-family: BACS"">UaZmaJZr<p style=""font-size: 15px"">Premi <strong>k</strong> per sì, <strong>d</strong> per no.</p>","","UaZmaJZr","testing","k","true","","",""
"html-keyboard-response","367","960317","0.0-16.0-0.34","5f4cc4ea00dba58ecd5a98a4","64afc2c9a8732ea92db0087d","64afd4a9411e63abb33613f4","1583","d","<p style=""font-size: 30px"">&emsp;</p><br><p style=""font-size: 60px; font-family: BACS"">ubALmuvJ<p style=""font-size: 15px"">Premi <strong>k</strong> per sì, <strong>d</strong> per no.</p>","","ubALmuvJ","testing","k","false","","",""
"html-keyboard-response","368","961429","0.0-16.0-0.35","5f4cc4ea00dba58ecd5a98a4","64afc2c9a8732ea92db0087d","64afd4a9411e63abb33613f4","1112","k","<p style=""font-size: 30px"">&emsp;</p><br><p style=""font-size: 60px; font-family: BACS"">hlkTJcL<p style=""font-size: 15px"">Premi <strong>k</strong> per sì, <strong>d</strong> per no.</p>","","hlkTJcL","testing","d","false","","",""
"html-keyboard-response","369","962638","0.0-16.0-0.36","5f4cc4ea00dba58ecd5a98a4","64afc2c9a8732ea92db0087d","64afd4a9411e63abb33613f4","1208","d","<p style=""font-size: 30px"">&emsp;</p><br><p style=""font-size: 60px; font-family: BACS"">LQurbTE<p style=""font-size: 15px"">Premi <strong>k</strong> per sì, <strong>d</strong> per no.</p>","","LQurbTE","testing","d","true","","",""
"html-keyboard-response","370","964046","0.0-16.0-0.37","5f4cc4ea00dba58ecd5a98a4","64afc2c9a8732ea92db0087d","64afd4a9411e63abb33613f4","1408","d","<p style=""font-size: 30px"">&emsp;</p><br><p style=""font-size: 60px; font-family: BACS"">YJkbJcL<p style=""font-size: 15px"">Premi <strong>k</strong> per sì, <strong>d</strong> per no.</p>","","YJkbJcL","testing","k","false","","",""
"html-keyboard-response","371","965142","0.0-16.0-0.38","5f4cc4ea00dba58ecd5a98a4","64afc2c9a8732ea92db0087d","64afd4a9411e63abb33613f4","1096","k","<p style=""font-size: 30px"">&emsp;</p><br><p style=""font-size: 60px; font-family: BACS"">OdYPuvJ<p style=""font-size: 15px"">Premi <strong>k</strong> per sì, <strong>d</strong> per no.</p>","","OdYPuvJ","testing","d","false","","",""
