"trial_type","trial_index","time_elapsed","internal_node_id","subject_id","study_id","session_id","rt","response","stimulus","success","item","task","correct_response","testing_condition","correct","target","confound","name"
"pavlovia","0","795","0.0-0.0","6140ff9c5750f0081ca8d71f","650c16f0f2faf8d7a0d14c09","651c0a8132756a07155f5c41","","","","","","","","","","","",""
"survey-html-form","1","22834","0.0-1.0","6140ff9c5750f0081ca8d71f","650c16f0f2faf8d7a0d14c09","651c0a8132756a07155f5c41","22038","{""ID"":""6140ff9c5750f0081ca8d71f""}","","","","","","","","","",""
"html-keyboard-response","2","108425","0.0-2.0","6140ff9c5750f0081ca8d71f","650c16f0f2faf8d7a0d14c09","651c0a8132756a07155f5c41","85591"," ","<p style=""font-size: 15px;"">Before beginning, we ask that you read the consent information and confirm your agreement to participate in the experiment.</p>
      <p style=""font-size: 15px;""> We ask that you remember that this is a research project and that your participation is entirely voluntary. You can stop your participation at any time, without needing to provide any explanation. The study we're asking you to participate in aims at examining how readers process written words. You will be engaged in a session of apprximately 20 minutes, followed by a brief questionnaire. You will have the opportunity to take a few breaks during the experiment. You will be paid £4 for your participation, corresponding to a rate of £8/hour. While this experiment looks at cognitive faculties, this experiment doesn't constitute clinical proof of eventual pathologies.</p>
      <p style=""font-size: 15px;"">All of the information collected thanks to yours and others' participation will be held in a secure password-protected server, and will not be shared with anyone not authorised to view it. Your personal information will be kept with an arbitrary participant ID. Thanks to this data anonymity process, any researcher analysing the data won't be able to track the information back to a specific participant. Therefore, this process will make identifying you impossibile, even when results from the study will be published in scientific reviews, presented at congresses, or at any other public forum. More generally, the collected data will be treated in accordance with the laws on privacy and conformity to the Legislative Degree n. 196 ""Code regarding the protection of personal data"" of the 30th of June 2003 and to the European Regulation 2016/670 (General Data Protection Regulation - GDPR). The Data Protection Officer is Avv. Valentina Carollo, who can be contacted at the following email addresses: <a href=""mailto:dpo@sissa.it"">dpo@sissa.it</a> or <a href=""mailto:rpd@sissa.it"">rpd@sissa.it</a> - PEC: <a href=""mailto:protocollo@pec.sissa.it"">protocollo@pec.sissa.it</a>.</p>
      <p style=""font-size: 15px;""> Before expressing your consent to participate, we would like to remind you again that in case you need explanations on any aspect of the experimental procedure, the researcher is at your disposition (<a href=""mailto:aliebelt@sissa.it"">aliebelt@sissa.it</a>, <a href=""mailto:davide.crepaldi@sissa.it"">davide.crepaldi@sissa.it</a>).</p>
      <p style=""font-size: 15px;"">If you would like to download the informed consent form, you can do so here: <a href=""BASL-Informed_Consent.pdf"" download>informed consent form</a>.</p>
      <p style=""font-size: 15px;"">We ask that you press the spacebar to proceed to the consent section.</p>","","","","","","","","",""
"survey-html-form","3","132937","0.0-3.0","6140ff9c5750f0081ca8d71f","650c16f0f2faf8d7a0d14c09","651c0a8132756a07155f5c41","24511","{""consent1"":""YES"",""consent2"":""YES"",""consent3"":""YES"",""consent4"":""YES"",""consent5"":""YES"",""consent6"":""YES""}","","","","","","","","","",""
"fullscreen","4","140515","0.0-4.0","6140ff9c5750f0081ca8d71f","650c16f0f2faf8d7a0d14c09","651c0a8132756a07155f5c41","","","","true","","","","","","","",""
"html-keyboard-response","5","166844","0.0-5.0","6140ff9c5750f0081ca8d71f","650c16f0f2faf8d7a0d14c09","651c0a8132756a07155f5c41","26328"," ","<p>Welcome, and thank you very much for your time!</p>
      <p>In this experiment, you'll be a language expert who's been asked to take a look at words that Earth has received in its first communication with aliens. Your task, in this first part of the experiment, is to pay close attention to the words you'll be shown; later, world leaders will ask you questions on what you saw. The words will be shown to you quite quickly; it seems that the aliens were in a hurry :-)</p>
      <p>Press the spacebar to continue.<p>","","","","","","","","",""
"html-keyboard-response","6","166904","0.0-6.0","6140ff9c5750f0081ca8d71f","650c16f0f2faf8d7a0d14c09","651c0a8132756a07155f5c41","null","null","<p style=""font-size: 120px; font-family: BACS""> </p>","","","","","","","","",""
"html-keyboard-response","7","177101","0.0-7.0","6140ff9c5750f0081ca8d71f","650c16f0f2faf8d7a0d14c09","651c0a8132756a07155f5c41","10196"," ","<p>Here is an example of the words you'll see:</p>
      <img src='esempio.png' height='400px'>
      <p>When you're ready to begin, press the spacebar.</p></div>","","","","","","","","",""
"html-keyboard-response","8","178116","0.0-8.0-0.0","6140ff9c5750f0081ca8d71f","650c16f0f2faf8d7a0d14c09","651c0a8132756a07155f5c41","null","null","<p style=""font-size: 60px; font-family: BACS"">aOLZULaA</p>","","","","","","","","",""
"html-keyboard-response","9","179131","0.0-8.0-0.1","6140ff9c5750f0081ca8d71f","650c16f0f2faf8d7a0d14c09","651c0a8132756a07155f5c41","null","null","<p style=""font-size: 60px; font-family: BACS"">hBmMCTmc</p>","","","","","","","","",""
"html-keyboard-response","10","180147","0.0-8.0-0.2","6140ff9c5750f0081ca8d71f","650c16f0f2faf8d7a0d14c09","651c0a8132756a07155f5c41","null","null","<p style=""font-size: 60px; font-family: BACS"">PMPtkYDE</p>","","","","","","","","",""
"html-keyboard-response","11","181149","0.0-8.0-0.3","6140ff9c5750f0081ca8d71f","650c16f0f2faf8d7a0d14c09","651c0a8132756a07155f5c41","null","null","<p style=""font-size: 60px; font-family: BACS"">NaJbkuvb</p>","","","","","","","","",""
"html-keyboard-response","12","182150","0.0-8.0-0.4","6140ff9c5750f0081ca8d71f","650c16f0f2faf8d7a0d14c09","651c0a8132756a07155f5c41","null","null","<p style=""font-size: 60px; font-family: BACS"">DBlhOdOP</p>","","","","","","","","",""
"html-keyboard-response","13","183162","0.0-8.0-0.5","6140ff9c5750f0081ca8d71f","650c16f0f2faf8d7a0d14c09","651c0a8132756a07155f5c41","null","null","<p style=""font-size: 60px; font-family: BACS"">PMPtkBRDh</p>","","","","","","","","",""
"html-keyboard-response","14","184177","0.0-8.0-0.6","6140ff9c5750f0081ca8d71f","650c16f0f2faf8d7a0d14c09","651c0a8132756a07155f5c41","null","null","<p style=""font-size: 60px; font-family: BACS"">mhtcTmc</p>","","","","","","","","",""
"html-keyboard-response","15","185192","0.0-8.0-0.7","6140ff9c5750f0081ca8d71f","650c16f0f2faf8d7a0d14c09","651c0a8132756a07155f5c41","null","null","<p style=""font-size: 60px; font-family: BACS"">CkBOPYDE</p>","","","","","","","","",""
"html-keyboard-response","16","186204","0.0-8.0-0.8","6140ff9c5750f0081ca8d71f","650c16f0f2faf8d7a0d14c09","651c0a8132756a07155f5c41","null","null","<p style=""font-size: 60px; font-family: BACS"">kKRCBRDh</p>","","","","","","","","",""
"html-keyboard-response","17","187207","0.0-8.0-0.9","6140ff9c5750f0081ca8d71f","650c16f0f2faf8d7a0d14c09","651c0a8132756a07155f5c41","null","null","<p style=""font-size: 60px; font-family: BACS"">JauQOcZJ</p>","","","","","","","","",""
"html-keyboard-response","18","188223","0.0-8.0-0.10","6140ff9c5750f0081ca8d71f","650c16f0f2faf8d7a0d14c09","651c0a8132756a07155f5c41","null","null","<p style=""font-size: 60px; font-family: BACS"">PMPtkOdOP</p>","","","","","","","","",""
"html-keyboard-response","19","189237","0.0-8.0-0.11","6140ff9c5750f0081ca8d71f","650c16f0f2faf8d7a0d14c09","651c0a8132756a07155f5c41","null","null","<p style=""font-size: 60px; font-family: BACS"">KABATmc</p>","","","","","","","","",""
"html-keyboard-response","20","190250","0.0-8.0-0.12","6140ff9c5750f0081ca8d71f","650c16f0f2faf8d7a0d14c09","651c0a8132756a07155f5c41","null","null","<p style=""font-size: 60px; font-family: BACS"">DBlhYDE</p>","","","","","","","","",""
"html-keyboard-response","21","191263","0.0-8.0-0.13","6140ff9c5750f0081ca8d71f","650c16f0f2faf8d7a0d14c09","651c0a8132756a07155f5c41","null","null","<p style=""font-size: 60px; font-family: BACS"">YadrOcZJ</p>","","","","","","","","",""
"html-keyboard-response","22","192269","0.0-8.0-0.14","6140ff9c5750f0081ca8d71f","650c16f0f2faf8d7a0d14c09","651c0a8132756a07155f5c41","null","null","<p style=""font-size: 60px; font-family: BACS"">RlAKcBRDh</p>","","","","","","","","",""
"html-keyboard-response","23","193271","0.0-8.0-0.15","6140ff9c5750f0081ca8d71f","650c16f0f2faf8d7a0d14c09","651c0a8132756a07155f5c41","null","null","<p style=""font-size: 60px; font-family: BACS"">CkBOPOdOP</p>","","","","","","","","",""
"html-keyboard-response","24","194273","0.0-8.0-0.16","6140ff9c5750f0081ca8d71f","650c16f0f2faf8d7a0d14c09","651c0a8132756a07155f5c41","null","null","<p style=""font-size: 60px; font-family: BACS"">DBlhdmRb</p>","","","","","","","","",""
"html-keyboard-response","25","195276","0.0-8.0-0.17","6140ff9c5750f0081ca8d71f","650c16f0f2faf8d7a0d14c09","651c0a8132756a07155f5c41","null","null","<p style=""font-size: 60px; font-family: BACS"">ubALmkuvb</p>","","","","","","","","",""
"html-keyboard-response","26","196279","0.0-8.0-0.18","6140ff9c5750f0081ca8d71f","650c16f0f2faf8d7a0d14c09","651c0a8132756a07155f5c41","null","null","<p style=""font-size: 60px; font-family: BACS"">JAaGOcZJ</p>","","","","","","","","",""
"html-keyboard-response","27","197293","0.0-8.0-0.19","6140ff9c5750f0081ca8d71f","650c16f0f2faf8d7a0d14c09","651c0a8132756a07155f5c41","null","null","<p style=""font-size: 60px; font-family: BACS"">rvOvULaA</p>","","","","","","","","",""
"html-keyboard-response","28","198308","0.0-8.0-0.20","6140ff9c5750f0081ca8d71f","650c16f0f2faf8d7a0d14c09","651c0a8132756a07155f5c41","null","null","<p style=""font-size: 60px; font-family: BACS"">NaJbJUG</p>","","","","","","","","",""
"html-keyboard-response","29","199318","0.0-8.0-0.21","6140ff9c5750f0081ca8d71f","650c16f0f2faf8d7a0d14c09","651c0a8132756a07155f5c41","null","null","<p style=""font-size: 60px; font-family: BACS"">aOLZUkuvb</p>","","","","","","","","",""
"html-keyboard-response","30","200331","0.0-8.0-0.22","6140ff9c5750f0081ca8d71f","650c16f0f2faf8d7a0d14c09","651c0a8132756a07155f5c41","null","null","<p style=""font-size: 60px; font-family: BACS"">RlAKcdmRb</p>","","","","","","","","",""
"html-keyboard-response","31","201343","0.0-8.0-0.23","6140ff9c5750f0081ca8d71f","650c16f0f2faf8d7a0d14c09","651c0a8132756a07155f5c41","null","null","<p style=""font-size: 60px; font-family: BACS"">LGkAJUG</p>","","","","","","","","",""
"html-keyboard-response","32","202347","0.0-8.0-0.24","6140ff9c5750f0081ca8d71f","650c16f0f2faf8d7a0d14c09","651c0a8132756a07155f5c41","null","null","<p style=""font-size: 60px; font-family: BACS"">aOLZUOcZJ</p>","","","","","","","","",""
"html-keyboard-response","33","203349","0.0-8.0-0.25","6140ff9c5750f0081ca8d71f","650c16f0f2faf8d7a0d14c09","651c0a8132756a07155f5c41","null","null","<p style=""font-size: 60px; font-family: BACS"">JAaGLaA</p>","","","","","","","","",""
"html-keyboard-response","34","204360","0.0-8.0-0.26","6140ff9c5750f0081ca8d71f","650c16f0f2faf8d7a0d14c09","651c0a8132756a07155f5c41","null","null","<p style=""font-size: 60px; font-family: BACS"">mhtcBRDh</p>","","","","","","","","",""
"html-keyboard-response","35","205362","0.0-8.0-0.27","6140ff9c5750f0081ca8d71f","650c16f0f2faf8d7a0d14c09","651c0a8132756a07155f5c41","null","null","<p style=""font-size: 60px; font-family: BACS"">rvOvUkuvb</p>","","","","","","","","",""
"html-keyboard-response","36","206375","0.0-8.0-0.28","6140ff9c5750f0081ca8d71f","650c16f0f2faf8d7a0d14c09","651c0a8132756a07155f5c41","null","null","<p style=""font-size: 60px; font-family: BACS"">dRhtBRDh</p>","","","","","","","","",""
"html-keyboard-response","37","207387","0.0-8.0-0.29","6140ff9c5750f0081ca8d71f","650c16f0f2faf8d7a0d14c09","651c0a8132756a07155f5c41","null","null","<p style=""font-size: 60px; font-family: BACS"">alJYkuvb</p>","","","","","","","","",""
"html-keyboard-response","38","208390","0.0-8.0-0.30","6140ff9c5750f0081ca8d71f","650c16f0f2faf8d7a0d14c09","651c0a8132756a07155f5c41","null","null","<p style=""font-size: 60px; font-family: BACS"">hBmMCOdOP</p>","","","","","","","","",""
"html-keyboard-response","39","209391","0.0-8.0-0.31","6140ff9c5750f0081ca8d71f","650c16f0f2faf8d7a0d14c09","651c0a8132756a07155f5c41","null","null","<p style=""font-size: 60px; font-family: BACS"">alJYvJQ</p>","","","","","","","","",""
"html-keyboard-response","40","210407","0.0-8.0-0.32","6140ff9c5750f0081ca8d71f","650c16f0f2faf8d7a0d14c09","651c0a8132756a07155f5c41","null","null","<p style=""font-size: 60px; font-family: BACS"">CkBOPBRDh</p>","","","","","","","","",""
"html-keyboard-response","41","211407","0.0-8.0-0.33","6140ff9c5750f0081ca8d71f","650c16f0f2faf8d7a0d14c09","651c0a8132756a07155f5c41","null","null","<p style=""font-size: 60px; font-family: BACS"">Yadrkuvb</p>","","","","","","","","",""
"html-keyboard-response","42","212411","0.0-8.0-0.34","6140ff9c5750f0081ca8d71f","650c16f0f2faf8d7a0d14c09","651c0a8132756a07155f5c41","null","null","<p style=""font-size: 60px; font-family: BACS"">aOLZUJUG</p>","","","","","","","","",""
"html-keyboard-response","43","213417","0.0-8.0-0.35","6140ff9c5750f0081ca8d71f","650c16f0f2faf8d7a0d14c09","651c0a8132756a07155f5c41","null","null","<p style=""font-size: 60px; font-family: BACS"">aYQmLaA</p>","","","","","","","","",""
"html-keyboard-response","44","214430","0.0-8.0-0.36","6140ff9c5750f0081ca8d71f","650c16f0f2faf8d7a0d14c09","651c0a8132756a07155f5c41","null","null","<p style=""font-size: 60px; font-family: BACS"">rvOvUvJQ</p>","","","","","","","","",""
"html-keyboard-response","45","215443","0.0-8.0-0.37","6140ff9c5750f0081ca8d71f","650c16f0f2faf8d7a0d14c09","651c0a8132756a07155f5c41","null","null","<p style=""font-size: 60px; font-family: BACS"">JauQJUG</p>","","","","","","","","",""
"html-keyboard-response","46","216452","0.0-8.0-0.38","6140ff9c5750f0081ca8d71f","650c16f0f2faf8d7a0d14c09","651c0a8132756a07155f5c41","null","null","<p style=""font-size: 60px; font-family: BACS"">blMkOdOP</p>","","","","","","","","",""
"html-keyboard-response","47","217468","0.0-8.0-0.39","6140ff9c5750f0081ca8d71f","650c16f0f2faf8d7a0d14c09","651c0a8132756a07155f5c41","null","null","<p style=""font-size: 60px; font-family: BACS"">ubALmvJQ</p>","","","","","","","","",""
"html-keyboard-response","48","218471","0.0-8.0-0.40","6140ff9c5750f0081ca8d71f","650c16f0f2faf8d7a0d14c09","651c0a8132756a07155f5c41","null","null","<p style=""font-size: 60px; font-family: BACS"">YadrJUG</p>","","","","","","","","",""
"html-keyboard-response","49","219487","0.0-8.0-0.41","6140ff9c5750f0081ca8d71f","650c16f0f2faf8d7a0d14c09","651c0a8132756a07155f5c41","null","null","<p style=""font-size: 60px; font-family: BACS"">kKRCTmc</p>","","","","","","","","",""
"html-keyboard-response","50","220499","0.0-8.0-0.42","6140ff9c5750f0081ca8d71f","650c16f0f2faf8d7a0d14c09","651c0a8132756a07155f5c41","null","null","<p style=""font-size: 60px; font-family: BACS"">ubALmOcZJ</p>","","","","","","","","",""
"html-keyboard-response","51","221502","0.0-8.0-0.43","6140ff9c5750f0081ca8d71f","650c16f0f2faf8d7a0d14c09","651c0a8132756a07155f5c41","null","null","<p style=""font-size: 60px; font-family: BACS"">NaJbLaA</p>","","","","","","","","",""
"html-keyboard-response","52","222509","0.0-8.0-0.44","6140ff9c5750f0081ca8d71f","650c16f0f2faf8d7a0d14c09","651c0a8132756a07155f5c41","null","null","<p style=""font-size: 60px; font-family: BACS"">kKRCYDE</p>","","","","","","","","",""
"html-keyboard-response","53","223511","0.0-8.0-0.45","6140ff9c5750f0081ca8d71f","650c16f0f2faf8d7a0d14c09","651c0a8132756a07155f5c41","null","null","<p style=""font-size: 60px; font-family: BACS"">RlAKcOdOP</p>","","","","","","","","",""
"html-keyboard-response","54","224527","0.0-8.0-0.46","6140ff9c5750f0081ca8d71f","650c16f0f2faf8d7a0d14c09","651c0a8132756a07155f5c41","null","null","<p style=""font-size: 60px; font-family: BACS"">DBlhTmc</p>","","","","","","","","",""
"html-keyboard-response","55","225530","0.0-8.0-0.47","6140ff9c5750f0081ca8d71f","650c16f0f2faf8d7a0d14c09","651c0a8132756a07155f5c41","null","null","<p style=""font-size: 60px; font-family: BACS"">KABAdmRb</p>","","","","","","","","",""
"html-keyboard-response","56","226543","0.0-8.0-0.48","6140ff9c5750f0081ca8d71f","650c16f0f2faf8d7a0d14c09","651c0a8132756a07155f5c41","null","null","<p style=""font-size: 60px; font-family: BACS"">alJYLaA</p>","","","","","","","","",""
"html-keyboard-response","57","227544","0.0-8.0-0.49","6140ff9c5750f0081ca8d71f","650c16f0f2faf8d7a0d14c09","651c0a8132756a07155f5c41","null","null","<p style=""font-size: 60px; font-family: BACS"">KABABRDh</p>","","","","","","","","",""
"html-keyboard-response","58","228548","0.0-8.0-0.50","6140ff9c5750f0081ca8d71f","650c16f0f2faf8d7a0d14c09","651c0a8132756a07155f5c41","null","null","<p style=""font-size: 60px; font-family: BACS"">dRhtYDE</p>","","","","","","","","",""
"html-keyboard-response","59","229560","0.0-8.0-0.51","6140ff9c5750f0081ca8d71f","650c16f0f2faf8d7a0d14c09","651c0a8132756a07155f5c41","null","null","<p style=""font-size: 60px; font-family: BACS"">mhtcdmRb</p>","","","","","","","","",""
"html-keyboard-response","60","230567","0.0-8.0-0.52","6140ff9c5750f0081ca8d71f","650c16f0f2faf8d7a0d14c09","651c0a8132756a07155f5c41","null","null","<p style=""font-size: 60px; font-family: BACS"">RlAKcYDE</p>","","","","","","","","",""
"html-keyboard-response","61","231582","0.0-8.0-0.53","6140ff9c5750f0081ca8d71f","650c16f0f2faf8d7a0d14c09","651c0a8132756a07155f5c41","null","null","<p style=""font-size: 60px; font-family: BACS"">LGkAvJQ</p>","","","","","","","","",""
"html-keyboard-response","62","232583","0.0-8.0-0.54","6140ff9c5750f0081ca8d71f","650c16f0f2faf8d7a0d14c09","651c0a8132756a07155f5c41","null","null","<p style=""font-size: 60px; font-family: BACS"">rvOvUJUG</p>","","","","","","","","",""
"html-keyboard-response","63","233586","0.0-8.0-0.55","6140ff9c5750f0081ca8d71f","650c16f0f2faf8d7a0d14c09","651c0a8132756a07155f5c41","null","null","<p style=""font-size: 60px; font-family: BACS"">YadrvJQ</p>","","","","","","","","",""
"html-keyboard-response","64","234593","0.0-8.0-0.56","6140ff9c5750f0081ca8d71f","650c16f0f2faf8d7a0d14c09","651c0a8132756a07155f5c41","null","null","<p style=""font-size: 60px; font-family: BACS"">KABAOdOP</p>","","","","","","","","",""
"html-keyboard-response","65","235594","0.0-8.0-0.57","6140ff9c5750f0081ca8d71f","650c16f0f2faf8d7a0d14c09","651c0a8132756a07155f5c41","null","null","<p style=""font-size: 60px; font-family: BACS"">aYQmJUG</p>","","","","","","","","",""
"html-keyboard-response","66","236610","0.0-8.0-0.58","6140ff9c5750f0081ca8d71f","650c16f0f2faf8d7a0d14c09","651c0a8132756a07155f5c41","null","null","<p style=""font-size: 60px; font-family: BACS"">JauQvJQ</p>","","","","","","","","",""
"html-keyboard-response","67","237626","0.0-8.0-0.59","6140ff9c5750f0081ca8d71f","650c16f0f2faf8d7a0d14c09","651c0a8132756a07155f5c41","null","null","<p style=""font-size: 60px; font-family: BACS"">hBmMCdmRb</p>","","","","","","","","",""
"html-keyboard-response","68","238627","0.0-8.0-0.60","6140ff9c5750f0081ca8d71f","650c16f0f2faf8d7a0d14c09","651c0a8132756a07155f5c41","null","null","<p style=""font-size: 60px; font-family: BACS"">LGkAOcZJ</p>","","","","","","","","",""
"html-keyboard-response","69","239632","0.0-8.0-0.61","6140ff9c5750f0081ca8d71f","650c16f0f2faf8d7a0d14c09","651c0a8132756a07155f5c41","null","null","<p style=""font-size: 60px; font-family: BACS"">mhtcYDE</p>","","","","","","","","",""
"html-keyboard-response","70","240641","0.0-8.0-0.62","6140ff9c5750f0081ca8d71f","650c16f0f2faf8d7a0d14c09","651c0a8132756a07155f5c41","null","null","<p style=""font-size: 60px; font-family: BACS"">dRhtOdOP</p>","","","","","","","","",""
"html-keyboard-response","71","241657","0.0-8.0-0.63","6140ff9c5750f0081ca8d71f","650c16f0f2faf8d7a0d14c09","651c0a8132756a07155f5c41","null","null","<p style=""font-size: 60px; font-family: BACS"">kKRCdmRb</p>","","","","","","","","",""
"html-keyboard-response","72","242663","0.0-8.0-0.64","6140ff9c5750f0081ca8d71f","650c16f0f2faf8d7a0d14c09","651c0a8132756a07155f5c41","null","null","<p style=""font-size: 60px; font-family: BACS"">blMkTmc</p>","","","","","","","","",""
"html-keyboard-response","73","243667","0.0-8.0-0.65","6140ff9c5750f0081ca8d71f","650c16f0f2faf8d7a0d14c09","651c0a8132756a07155f5c41","null","null","<p style=""font-size: 60px; font-family: BACS"">NaJbvJQ</p>","","","","","","","","",""
"html-keyboard-response","74","244671","0.0-8.0-0.66","6140ff9c5750f0081ca8d71f","650c16f0f2faf8d7a0d14c09","651c0a8132756a07155f5c41","null","null","<p style=""font-size: 60px; font-family: BACS"">PMPtkTmc</p>","","","","","","","","",""
"html-keyboard-response","75","245678","0.0-8.0-0.67","6140ff9c5750f0081ca8d71f","650c16f0f2faf8d7a0d14c09","651c0a8132756a07155f5c41","null","null","<p style=""font-size: 60px; font-family: BACS"">blMkYDE</p>","","","","","","","","",""
"html-keyboard-response","76","246693","0.0-8.0-0.68","6140ff9c5750f0081ca8d71f","650c16f0f2faf8d7a0d14c09","651c0a8132756a07155f5c41","null","null","<p style=""font-size: 60px; font-family: BACS"">CkBOPTmc</p>","","","","","","","","",""
"html-keyboard-response","77","247697","0.0-8.0-0.69","6140ff9c5750f0081ca8d71f","650c16f0f2faf8d7a0d14c09","651c0a8132756a07155f5c41","null","null","<p style=""font-size: 60px; font-family: BACS"">JAaGJUG</p>","","","","","","","","",""
"html-keyboard-response","78","248711","0.0-8.0-0.70","6140ff9c5750f0081ca8d71f","650c16f0f2faf8d7a0d14c09","651c0a8132756a07155f5c41","null","null","<p style=""font-size: 60px; font-family: BACS"">aYQmOcZJ</p>","","","","","","","","",""
"html-keyboard-response","79","249713","0.0-8.0-0.71","6140ff9c5750f0081ca8d71f","650c16f0f2faf8d7a0d14c09","651c0a8132756a07155f5c41","null","null","<p style=""font-size: 60px; font-family: BACS"">dRhtdmRb</p>","","","","","","","","",""
"html-keyboard-response","80","250714","0.0-8.0-0.72","6140ff9c5750f0081ca8d71f","650c16f0f2faf8d7a0d14c09","651c0a8132756a07155f5c41","null","null","<p style=""font-size: 60px; font-family: BACS"">JauQLaA</p>","","","","","","","","",""
"html-keyboard-response","81","251731","0.0-8.0-0.73","6140ff9c5750f0081ca8d71f","650c16f0f2faf8d7a0d14c09","651c0a8132756a07155f5c41","null","null","<p style=""font-size: 60px; font-family: BACS"">LGkAkuvb</p>","","","","","","","","",""
"html-keyboard-response","82","252743","0.0-8.0-0.74","6140ff9c5750f0081ca8d71f","650c16f0f2faf8d7a0d14c09","651c0a8132756a07155f5c41","null","null","<p style=""font-size: 60px; font-family: BACS"">JAaGvJQ</p>","","","","","","","","",""
"html-keyboard-response","83","253758","0.0-8.0-0.75","6140ff9c5750f0081ca8d71f","650c16f0f2faf8d7a0d14c09","651c0a8132756a07155f5c41","null","null","<p style=""font-size: 60px; font-family: BACS"">ubALmLaA</p>","","","","","","","","",""
"html-keyboard-response","84","254771","0.0-8.0-0.76","6140ff9c5750f0081ca8d71f","650c16f0f2faf8d7a0d14c09","651c0a8132756a07155f5c41","null","null","<p style=""font-size: 60px; font-family: BACS"">aYQmkuvb</p>","","","","","","","","",""
"html-keyboard-response","85","255776","0.0-8.0-0.77","6140ff9c5750f0081ca8d71f","650c16f0f2faf8d7a0d14c09","651c0a8132756a07155f5c41","null","null","<p style=""font-size: 60px; font-family: BACS"">blMkdmRb</p>","","","","","","","","",""
"html-keyboard-response","86","256779","0.0-8.0-0.78","6140ff9c5750f0081ca8d71f","650c16f0f2faf8d7a0d14c09","651c0a8132756a07155f5c41","null","null","<p style=""font-size: 60px; font-family: BACS"">alJYOcZJ</p>","","","","","","","","",""
"html-keyboard-response","87","257786","0.0-8.0-0.79","6140ff9c5750f0081ca8d71f","650c16f0f2faf8d7a0d14c09","651c0a8132756a07155f5c41","null","null","<p style=""font-size: 60px; font-family: BACS"">hBmMCBRDh</p>","","","","","","","","",""
"html-keyboard-response","88","265984","0.0-9.0","6140ff9c5750f0081ca8d71f","650c16f0f2faf8d7a0d14c09","651c0a8132756a07155f5c41","8198"," ","<p>Great, you've seen the first block of words. You may now take a short break.</p>
      <p>Press the spacebar when you're ready to continue.</p>","","","","","","","","",""
"html-keyboard-response","89","266985","0.0-10.0-0.0","6140ff9c5750f0081ca8d71f","650c16f0f2faf8d7a0d14c09","651c0a8132756a07155f5c41","null","null","<p style=""font-size: 60px; font-family: BACS"">JAaGLaA</p>","","","","","","","","",""
"html-keyboard-response","90","268002","0.0-10.0-0.1","6140ff9c5750f0081ca8d71f","650c16f0f2faf8d7a0d14c09","651c0a8132756a07155f5c41","null","null","<p style=""font-size: 60px; font-family: BACS"">RlAKcOdOP</p>","","","","","","","","",""
"html-keyboard-response","91","269004","0.0-10.0-0.2","6140ff9c5750f0081ca8d71f","650c16f0f2faf8d7a0d14c09","651c0a8132756a07155f5c41","null","null","<p style=""font-size: 60px; font-family: BACS"">kKRCTmc</p>","","","","","","","","",""
"html-keyboard-response","92","270015","0.0-10.0-0.3","6140ff9c5750f0081ca8d71f","650c16f0f2faf8d7a0d14c09","651c0a8132756a07155f5c41","null","null","<p style=""font-size: 60px; font-family: BACS"">JAaGJUG</p>","","","","","","","","",""
"html-keyboard-response","93","271015","0.0-10.0-0.4","6140ff9c5750f0081ca8d71f","650c16f0f2faf8d7a0d14c09","651c0a8132756a07155f5c41","null","null","<p style=""font-size: 60px; font-family: BACS"">aYQmLaA</p>","","","","","","","","",""
"html-keyboard-response","94","272025","0.0-10.0-0.5","6140ff9c5750f0081ca8d71f","650c16f0f2faf8d7a0d14c09","651c0a8132756a07155f5c41","null","null","<p style=""font-size: 60px; font-family: BACS"">YadrOcZJ</p>","","","","","","","","",""
"html-keyboard-response","95","273030","0.0-10.0-0.6","6140ff9c5750f0081ca8d71f","650c16f0f2faf8d7a0d14c09","651c0a8132756a07155f5c41","null","null","<p style=""font-size: 60px; font-family: BACS"">blMkOdOP</p>","","","","","","","","",""
"html-keyboard-response","96","274042","0.0-10.0-0.7","6140ff9c5750f0081ca8d71f","650c16f0f2faf8d7a0d14c09","651c0a8132756a07155f5c41","null","null","<p style=""font-size: 60px; font-family: BACS"">DBlhTmc</p>","","","","","","","","",""
"html-keyboard-response","97","275054","0.0-10.0-0.8","6140ff9c5750f0081ca8d71f","650c16f0f2faf8d7a0d14c09","651c0a8132756a07155f5c41","null","null","<p style=""font-size: 60px; font-family: BACS"">aOLZUJUG</p>","","","","","","","","",""
"html-keyboard-response","98","276066","0.0-10.0-0.9","6140ff9c5750f0081ca8d71f","650c16f0f2faf8d7a0d14c09","651c0a8132756a07155f5c41","null","null","<p style=""font-size: 60px; font-family: BACS"">PMPtkTmc</p>","","","","","","","","",""
"html-keyboard-response","99","277078","0.0-10.0-0.10","6140ff9c5750f0081ca8d71f","650c16f0f2faf8d7a0d14c09","651c0a8132756a07155f5c41","null","null","<p style=""font-size: 60px; font-family: BACS"">aYQmkuvb</p>","","","","","","","","",""
"html-keyboard-response","100","278093","0.0-10.0-0.11","6140ff9c5750f0081ca8d71f","650c16f0f2faf8d7a0d14c09","651c0a8132756a07155f5c41","null","null","<p style=""font-size: 60px; font-family: BACS"">blMkYDE</p>","","","","","","","","",""
"html-keyboard-response","101","279105","0.0-10.0-0.12","6140ff9c5750f0081ca8d71f","650c16f0f2faf8d7a0d14c09","651c0a8132756a07155f5c41","null","null","<p style=""font-size: 60px; font-family: BACS"">hBmMCTmc</p>","","","","","","","","",""
"html-keyboard-response","102","280116","0.0-10.0-0.13","6140ff9c5750f0081ca8d71f","650c16f0f2faf8d7a0d14c09","651c0a8132756a07155f5c41","null","null","<p style=""font-size: 60px; font-family: BACS"">aYQmOcZJ</p>","","","","","","","","",""
"html-keyboard-response","103","281122","0.0-10.0-0.14","6140ff9c5750f0081ca8d71f","650c16f0f2faf8d7a0d14c09","651c0a8132756a07155f5c41","null","null","<p style=""font-size: 60px; font-family: BACS"">dRhtBRDh</p>","","","","","","","","",""
"html-keyboard-response","104","282132","0.0-10.0-0.15","6140ff9c5750f0081ca8d71f","650c16f0f2faf8d7a0d14c09","651c0a8132756a07155f5c41","null","null","<p style=""font-size: 60px; font-family: BACS"">mhtcTmc</p>","","","","","","","","",""
"html-keyboard-response","105","283144","0.0-10.0-0.16","6140ff9c5750f0081ca8d71f","650c16f0f2faf8d7a0d14c09","651c0a8132756a07155f5c41","null","null","<p style=""font-size: 60px; font-family: BACS"">LGkAJUG</p>","","","","","","","","",""
"html-keyboard-response","106","284145","0.0-10.0-0.17","6140ff9c5750f0081ca8d71f","650c16f0f2faf8d7a0d14c09","651c0a8132756a07155f5c41","null","null","<p style=""font-size: 60px; font-family: BACS"">rvOvULaA</p>","","","","","","","","",""
"html-keyboard-response","107","285147","0.0-10.0-0.18","6140ff9c5750f0081ca8d71f","650c16f0f2faf8d7a0d14c09","651c0a8132756a07155f5c41","null","null","<p style=""font-size: 60px; font-family: BACS"">CkBOPBRDh</p>","","","","","","","","",""
"html-keyboard-response","108","286149","0.0-10.0-0.19","6140ff9c5750f0081ca8d71f","650c16f0f2faf8d7a0d14c09","651c0a8132756a07155f5c41","null","null","<p style=""font-size: 60px; font-family: BACS"">kKRCdmRb</p>","","","","","","","","",""
"html-keyboard-response","109","287150","0.0-10.0-0.20","6140ff9c5750f0081ca8d71f","650c16f0f2faf8d7a0d14c09","651c0a8132756a07155f5c41","null","null","<p style=""font-size: 60px; font-family: BACS"">alJYOcZJ</p>","","","","","","","","",""
"html-keyboard-response","110","288152","0.0-10.0-0.21","6140ff9c5750f0081ca8d71f","650c16f0f2faf8d7a0d14c09","651c0a8132756a07155f5c41","null","null","<p style=""font-size: 60px; font-family: BACS"">kKRCYDE</p>","","","","","","","","",""
"html-keyboard-response","111","289162","0.0-10.0-0.22","6140ff9c5750f0081ca8d71f","650c16f0f2faf8d7a0d14c09","651c0a8132756a07155f5c41","null","null","<p style=""font-size: 60px; font-family: BACS"">CkBOPOdOP</p>","","","","","","","","",""
"html-keyboard-response","112","290174","0.0-10.0-0.23","6140ff9c5750f0081ca8d71f","650c16f0f2faf8d7a0d14c09","651c0a8132756a07155f5c41","null","null","<p style=""font-size: 60px; font-family: BACS"">mhtcYDE</p>","","","","","","","","",""
"html-keyboard-response","113","291189","0.0-10.0-0.24","6140ff9c5750f0081ca8d71f","650c16f0f2faf8d7a0d14c09","651c0a8132756a07155f5c41","null","null","<p style=""font-size: 60px; font-family: BACS"">NaJbvJQ</p>","","","","","","","","",""
"html-keyboard-response","114","292202","0.0-10.0-0.25","6140ff9c5750f0081ca8d71f","650c16f0f2faf8d7a0d14c09","651c0a8132756a07155f5c41","null","null","<p style=""font-size: 60px; font-family: BACS"">KABATmc</p>","","","","","","","","",""
"html-keyboard-response","115","293215","0.0-10.0-0.26","6140ff9c5750f0081ca8d71f","650c16f0f2faf8d7a0d14c09","651c0a8132756a07155f5c41","null","null","<p style=""font-size: 60px; font-family: BACS"">rvOvUkuvb</p>","","","","","","","","",""
"html-keyboard-response","116","294228","0.0-10.0-0.27","6140ff9c5750f0081ca8d71f","650c16f0f2faf8d7a0d14c09","651c0a8132756a07155f5c41","null","null","<p style=""font-size: 60px; font-family: BACS"">mhtcBRDh</p>","","","","","","","","",""
"html-keyboard-response","117","295238","0.0-10.0-0.28","6140ff9c5750f0081ca8d71f","650c16f0f2faf8d7a0d14c09","651c0a8132756a07155f5c41","null","null","<p style=""font-size: 60px; font-family: BACS"">DBlhOdOP</p>","","","","","","","","",""
"html-keyboard-response","118","296252","0.0-10.0-0.29","6140ff9c5750f0081ca8d71f","650c16f0f2faf8d7a0d14c09","651c0a8132756a07155f5c41","null","null","<p style=""font-size: 60px; font-family: BACS"">JauQOcZJ</p>","","","","","","","","",""
"html-keyboard-response","119","297258","0.0-10.0-0.30","6140ff9c5750f0081ca8d71f","650c16f0f2faf8d7a0d14c09","651c0a8132756a07155f5c41","null","null","<p style=""font-size: 60px; font-family: BACS"">dRhtOdOP</p>","","","","","","","","",""
"html-keyboard-response","120","298270","0.0-10.0-0.31","6140ff9c5750f0081ca8d71f","650c16f0f2faf8d7a0d14c09","651c0a8132756a07155f5c41","null","null","<p style=""font-size: 60px; font-family: BACS"">alJYkuvb</p>","","","","","","","","",""
"html-keyboard-response","121","299281","0.0-10.0-0.32","6140ff9c5750f0081ca8d71f","650c16f0f2faf8d7a0d14c09","651c0a8132756a07155f5c41","null","null","<p style=""font-size: 60px; font-family: BACS"">LGkAvJQ</p>","","","","","","","","",""
"html-keyboard-response","122","300286","0.0-10.0-0.33","6140ff9c5750f0081ca8d71f","650c16f0f2faf8d7a0d14c09","651c0a8132756a07155f5c41","null","null","<p style=""font-size: 60px; font-family: BACS"">PMPtkYDE</p>","","","","","","","","",""
"html-keyboard-response","123","301289","0.0-10.0-0.34","6140ff9c5750f0081ca8d71f","650c16f0f2faf8d7a0d14c09","651c0a8132756a07155f5c41","null","null","<p style=""font-size: 60px; font-family: BACS"">rvOvUJUG</p>","","","","","","","","",""
"html-keyboard-response","124","302291","0.0-10.0-0.35","6140ff9c5750f0081ca8d71f","650c16f0f2faf8d7a0d14c09","651c0a8132756a07155f5c41","null","null","<p style=""font-size: 60px; font-family: BACS"">KABAdmRb</p>","","","","","","","","",""
"html-keyboard-response","125","303293","0.0-10.0-0.36","6140ff9c5750f0081ca8d71f","650c16f0f2faf8d7a0d14c09","651c0a8132756a07155f5c41","null","null","<p style=""font-size: 60px; font-family: BACS"">NaJbkuvb</p>","","","","","","","","",""
"html-keyboard-response","126","304305","0.0-10.0-0.37","6140ff9c5750f0081ca8d71f","650c16f0f2faf8d7a0d14c09","651c0a8132756a07155f5c41","null","null","<p style=""font-size: 60px; font-family: BACS"">JauQLaA</p>","","","","","","","","",""
"html-keyboard-response","127","305318","0.0-10.0-0.38","6140ff9c5750f0081ca8d71f","650c16f0f2faf8d7a0d14c09","651c0a8132756a07155f5c41","null","null","<p style=""font-size: 60px; font-family: BACS"">DBlhdmRb</p>","","","","","","","","",""
"html-keyboard-response","128","306333","0.0-10.0-0.39","6140ff9c5750f0081ca8d71f","650c16f0f2faf8d7a0d14c09","651c0a8132756a07155f5c41","null","null","<p style=""font-size: 60px; font-family: BACS"">RlAKcBRDh</p>","","","","","","","","",""
"html-keyboard-response","129","307349","0.0-10.0-0.40","6140ff9c5750f0081ca8d71f","650c16f0f2faf8d7a0d14c09","651c0a8132756a07155f5c41","null","null","<p style=""font-size: 60px; font-family: BACS"">aYQmJUG</p>","","","","","","","","",""
"html-keyboard-response","130","308364","0.0-10.0-0.41","6140ff9c5750f0081ca8d71f","650c16f0f2faf8d7a0d14c09","651c0a8132756a07155f5c41","null","null","<p style=""font-size: 60px; font-family: BACS"">PMPtkBRDh</p>","","","","","","","","",""
"html-keyboard-response","131","309366","0.0-10.0-0.42","6140ff9c5750f0081ca8d71f","650c16f0f2faf8d7a0d14c09","651c0a8132756a07155f5c41","null","null","<p style=""font-size: 60px; font-family: BACS"">JauQvJQ</p>","","","","","","","","",""
"html-keyboard-response","132","310368","0.0-10.0-0.43","6140ff9c5750f0081ca8d71f","650c16f0f2faf8d7a0d14c09","651c0a8132756a07155f5c41","null","null","<p style=""font-size: 60px; font-family: BACS"">mhtcdmRb</p>","","","","","","","","",""
"html-keyboard-response","133","311384","0.0-10.0-0.44","6140ff9c5750f0081ca8d71f","650c16f0f2faf8d7a0d14c09","651c0a8132756a07155f5c41","null","null","<p style=""font-size: 60px; font-family: BACS"">JauQJUG</p>","","","","","","","","",""
"html-keyboard-response","134","312389","0.0-10.0-0.45","6140ff9c5750f0081ca8d71f","650c16f0f2faf8d7a0d14c09","651c0a8132756a07155f5c41","null","null","<p style=""font-size: 60px; font-family: BACS"">PMPtkOdOP</p>","","","","","","","","",""
"html-keyboard-response","135","313391","0.0-10.0-0.46","6140ff9c5750f0081ca8d71f","650c16f0f2faf8d7a0d14c09","651c0a8132756a07155f5c41","null","null","<p style=""font-size: 60px; font-family: BACS"">KABABRDh</p>","","","","","","","","",""
"html-keyboard-response","136","314394","0.0-10.0-0.47","6140ff9c5750f0081ca8d71f","650c16f0f2faf8d7a0d14c09","651c0a8132756a07155f5c41","null","null","<p style=""font-size: 60px; font-family: BACS"">YadrvJQ</p>","","","","","","","","",""
"html-keyboard-response","137","315398","0.0-10.0-0.48","6140ff9c5750f0081ca8d71f","650c16f0f2faf8d7a0d14c09","651c0a8132756a07155f5c41","null","null","<p style=""font-size: 60px; font-family: BACS"">JAaGOcZJ</p>","","","","","","","","",""
"html-keyboard-response","138","316399","0.0-10.0-0.49","6140ff9c5750f0081ca8d71f","650c16f0f2faf8d7a0d14c09","651c0a8132756a07155f5c41","null","null","<p style=""font-size: 60px; font-family: BACS"">dRhtYDE</p>","","","","","","","","",""
"html-keyboard-response","139","317403","0.0-10.0-0.50","6140ff9c5750f0081ca8d71f","650c16f0f2faf8d7a0d14c09","651c0a8132756a07155f5c41","null","null","<p style=""font-size: 60px; font-family: BACS"">CkBOPTmc</p>","","","","","","","","",""
"html-keyboard-response","140","318407","0.0-10.0-0.51","6140ff9c5750f0081ca8d71f","650c16f0f2faf8d7a0d14c09","651c0a8132756a07155f5c41","null","null","<p style=""font-size: 60px; font-family: BACS"">alJYvJQ</p>","","","","","","","","",""
"html-keyboard-response","141","319409","0.0-10.0-0.52","6140ff9c5750f0081ca8d71f","650c16f0f2faf8d7a0d14c09","651c0a8132756a07155f5c41","null","null","<p style=""font-size: 60px; font-family: BACS"">kKRCBRDh</p>","","","","","","","","",""
"html-keyboard-response","142","320410","0.0-10.0-0.53","6140ff9c5750f0081ca8d71f","650c16f0f2faf8d7a0d14c09","651c0a8132756a07155f5c41","null","null","<p style=""font-size: 60px; font-family: BACS"">ubALmLaA</p>","","","","","","","","",""
"html-keyboard-response","143","321413","0.0-10.0-0.54","6140ff9c5750f0081ca8d71f","650c16f0f2faf8d7a0d14c09","651c0a8132756a07155f5c41","null","null","<p style=""font-size: 60px; font-family: BACS"">JAaGvJQ</p>","","","","","","","","",""
"html-keyboard-response","144","322425","0.0-10.0-0.55","6140ff9c5750f0081ca8d71f","650c16f0f2faf8d7a0d14c09","651c0a8132756a07155f5c41","null","null","<p style=""font-size: 60px; font-family: BACS"">blMkTmc</p>","","","","","","","","",""
"html-keyboard-response","145","323431","0.0-10.0-0.56","6140ff9c5750f0081ca8d71f","650c16f0f2faf8d7a0d14c09","651c0a8132756a07155f5c41","null","null","<p style=""font-size: 60px; font-family: BACS"">Yadrkuvb</p>","","","","","","","","",""
"html-keyboard-response","146","324445","0.0-10.0-0.57","6140ff9c5750f0081ca8d71f","650c16f0f2faf8d7a0d14c09","651c0a8132756a07155f5c41","null","null","<p style=""font-size: 60px; font-family: BACS"">ubALmOcZJ</p>","","","","","","","","",""
"html-keyboard-response","147","325447","0.0-10.0-0.58","6140ff9c5750f0081ca8d71f","650c16f0f2faf8d7a0d14c09","651c0a8132756a07155f5c41","null","null","<p style=""font-size: 60px; font-family: BACS"">RlAKcdmRb</p>","","","","","","","","",""
"html-keyboard-response","148","326448","0.0-10.0-0.59","6140ff9c5750f0081ca8d71f","650c16f0f2faf8d7a0d14c09","651c0a8132756a07155f5c41","null","null","<p style=""font-size: 60px; font-family: BACS"">alJYLaA</p>","","","","","","","","",""
"html-keyboard-response","149","327453","0.0-10.0-0.60","6140ff9c5750f0081ca8d71f","650c16f0f2faf8d7a0d14c09","651c0a8132756a07155f5c41","null","null","<p style=""font-size: 60px; font-family: BACS"">ubALmvJQ</p>","","","","","","","","",""
"html-keyboard-response","150","328469","0.0-10.0-0.61","6140ff9c5750f0081ca8d71f","650c16f0f2faf8d7a0d14c09","651c0a8132756a07155f5c41","null","null","<p style=""font-size: 60px; font-family: BACS"">LGkAkuvb</p>","","","","","","","","",""
"html-keyboard-response","151","329482","0.0-10.0-0.62","6140ff9c5750f0081ca8d71f","650c16f0f2faf8d7a0d14c09","651c0a8132756a07155f5c41","null","null","<p style=""font-size: 60px; font-family: BACS"">aOLZUOcZJ</p>","","","","","","","","",""
"html-keyboard-response","152","330497","0.0-10.0-0.63","6140ff9c5750f0081ca8d71f","650c16f0f2faf8d7a0d14c09","651c0a8132756a07155f5c41","null","null","<p style=""font-size: 60px; font-family: BACS"">hBmMCBRDh</p>","","","","","","","","",""
"html-keyboard-response","153","331510","0.0-10.0-0.64","6140ff9c5750f0081ca8d71f","650c16f0f2faf8d7a0d14c09","651c0a8132756a07155f5c41","null","null","<p style=""font-size: 60px; font-family: BACS"">rvOvUvJQ</p>","","","","","","","","",""
"html-keyboard-response","154","332510","0.0-10.0-0.65","6140ff9c5750f0081ca8d71f","650c16f0f2faf8d7a0d14c09","651c0a8132756a07155f5c41","null","null","<p style=""font-size: 60px; font-family: BACS"">hBmMCOdOP</p>","","","","","","","","",""
"html-keyboard-response","155","333526","0.0-10.0-0.66","6140ff9c5750f0081ca8d71f","650c16f0f2faf8d7a0d14c09","651c0a8132756a07155f5c41","null","null","<p style=""font-size: 60px; font-family: BACS"">CkBOPYDE</p>","","","","","","","","",""
"html-keyboard-response","156","334538","0.0-10.0-0.67","6140ff9c5750f0081ca8d71f","650c16f0f2faf8d7a0d14c09","651c0a8132756a07155f5c41","null","null","<p style=""font-size: 60px; font-family: BACS"">aOLZUkuvb</p>","","","","","","","","",""
"html-keyboard-response","157","335550","0.0-10.0-0.68","6140ff9c5750f0081ca8d71f","650c16f0f2faf8d7a0d14c09","651c0a8132756a07155f5c41","null","null","<p style=""font-size: 60px; font-family: BACS"">hBmMCdmRb</p>","","","","","","","","",""
"html-keyboard-response","158","336553","0.0-10.0-0.69","6140ff9c5750f0081ca8d71f","650c16f0f2faf8d7a0d14c09","651c0a8132756a07155f5c41","null","null","<p style=""font-size: 60px; font-family: BACS"">LGkAOcZJ</p>","","","","","","","","",""
"html-keyboard-response","159","337556","0.0-10.0-0.70","6140ff9c5750f0081ca8d71f","650c16f0f2faf8d7a0d14c09","651c0a8132756a07155f5c41","null","null","<p style=""font-size: 60px; font-family: BACS"">NaJbLaA</p>","","","","","","","","",""
"html-keyboard-response","160","338570","0.0-10.0-0.71","6140ff9c5750f0081ca8d71f","650c16f0f2faf8d7a0d14c09","651c0a8132756a07155f5c41","null","null","<p style=""font-size: 60px; font-family: BACS"">DBlhYDE</p>","","","","","","","","",""
"html-keyboard-response","161","339583","0.0-10.0-0.72","6140ff9c5750f0081ca8d71f","650c16f0f2faf8d7a0d14c09","651c0a8132756a07155f5c41","null","null","<p style=""font-size: 60px; font-family: BACS"">dRhtdmRb</p>","","","","","","","","",""
"html-keyboard-response","162","340598","0.0-10.0-0.73","6140ff9c5750f0081ca8d71f","650c16f0f2faf8d7a0d14c09","651c0a8132756a07155f5c41","null","null","<p style=""font-size: 60px; font-family: BACS"">NaJbJUG</p>","","","","","","","","",""
"html-keyboard-response","163","341601","0.0-10.0-0.74","6140ff9c5750f0081ca8d71f","650c16f0f2faf8d7a0d14c09","651c0a8132756a07155f5c41","null","null","<p style=""font-size: 60px; font-family: BACS"">KABAOdOP</p>","","","","","","","","",""
"html-keyboard-response","164","342607","0.0-10.0-0.75","6140ff9c5750f0081ca8d71f","650c16f0f2faf8d7a0d14c09","651c0a8132756a07155f5c41","null","null","<p style=""font-size: 60px; font-family: BACS"">RlAKcYDE</p>","","","","","","","","",""
"html-keyboard-response","165","343621","0.0-10.0-0.76","6140ff9c5750f0081ca8d71f","650c16f0f2faf8d7a0d14c09","651c0a8132756a07155f5c41","null","null","<p style=""font-size: 60px; font-family: BACS"">blMkdmRb</p>","","","","","","","","",""
"html-keyboard-response","166","344623","0.0-10.0-0.77","6140ff9c5750f0081ca8d71f","650c16f0f2faf8d7a0d14c09","651c0a8132756a07155f5c41","null","null","<p style=""font-size: 60px; font-family: BACS"">aOLZULaA</p>","","","","","","","","",""
"html-keyboard-response","167","345632","0.0-10.0-0.78","6140ff9c5750f0081ca8d71f","650c16f0f2faf8d7a0d14c09","651c0a8132756a07155f5c41","null","null","<p style=""font-size: 60px; font-family: BACS"">YadrJUG</p>","","","","","","","","",""
"html-keyboard-response","168","346635","0.0-10.0-0.79","6140ff9c5750f0081ca8d71f","650c16f0f2faf8d7a0d14c09","651c0a8132756a07155f5c41","null","null","<p style=""font-size: 60px; font-family: BACS"">ubALmkuvb</p>","","","","","","","","",""
"html-keyboard-response","169","359188","0.0-11.0","6140ff9c5750f0081ca8d71f","650c16f0f2faf8d7a0d14c09","651c0a8132756a07155f5c41","12553"," ","<p>Great, you've seen the second block of words. You may now take a short break.</p>
      <p>Press the spacebar when you're ready to continue.</p>","","","","","","","","",""
"html-keyboard-response","170","360197","0.0-12.0-0.0","6140ff9c5750f0081ca8d71f","650c16f0f2faf8d7a0d14c09","651c0a8132756a07155f5c41","null","null","<p style=""font-size: 60px; font-family: BACS"">dRhtYDE</p>","","","","","","","","",""
"html-keyboard-response","171","361198","0.0-12.0-0.1","6140ff9c5750f0081ca8d71f","650c16f0f2faf8d7a0d14c09","651c0a8132756a07155f5c41","null","null","<p style=""font-size: 60px; font-family: BACS"">PMPtkBRDh</p>","","","","","","","","",""
"html-keyboard-response","172","362211","0.0-12.0-0.2","6140ff9c5750f0081ca8d71f","650c16f0f2faf8d7a0d14c09","651c0a8132756a07155f5c41","null","null","<p style=""font-size: 60px; font-family: BACS"">alJYvJQ</p>","","","","","","","","",""
"html-keyboard-response","173","363225","0.0-12.0-0.3","6140ff9c5750f0081ca8d71f","650c16f0f2faf8d7a0d14c09","651c0a8132756a07155f5c41","null","null","<p style=""font-size: 60px; font-family: BACS"">rvOvULaA</p>","","","","","","","","",""
"html-keyboard-response","174","364226","0.0-12.0-0.4","6140ff9c5750f0081ca8d71f","650c16f0f2faf8d7a0d14c09","651c0a8132756a07155f5c41","null","null","<p style=""font-size: 60px; font-family: BACS"">aOLZUOcZJ</p>","","","","","","","","",""
"html-keyboard-response","175","365227","0.0-12.0-0.5","6140ff9c5750f0081ca8d71f","650c16f0f2faf8d7a0d14c09","651c0a8132756a07155f5c41","null","null","<p style=""font-size: 60px; font-family: BACS"">hBmMCBRDh</p>","","","","","","","","",""
"html-keyboard-response","176","366239","0.0-12.0-0.6","6140ff9c5750f0081ca8d71f","650c16f0f2faf8d7a0d14c09","651c0a8132756a07155f5c41","null","null","<p style=""font-size: 60px; font-family: BACS"">JauQLaA</p>","","","","","","","","",""
"html-keyboard-response","177","367241","0.0-12.0-0.7","6140ff9c5750f0081ca8d71f","650c16f0f2faf8d7a0d14c09","651c0a8132756a07155f5c41","null","null","<p style=""font-size: 60px; font-family: BACS"">RlAKcOdOP</p>","","","","","","","","",""
"html-keyboard-response","178","368254","0.0-12.0-0.8","6140ff9c5750f0081ca8d71f","650c16f0f2faf8d7a0d14c09","651c0a8132756a07155f5c41","null","null","<p style=""font-size: 60px; font-family: BACS"">alJYLaA</p>","","","","","","","","",""
"html-keyboard-response","179","369255","0.0-12.0-0.9","6140ff9c5750f0081ca8d71f","650c16f0f2faf8d7a0d14c09","651c0a8132756a07155f5c41","null","null","<p style=""font-size: 60px; font-family: BACS"">aYQmOcZJ</p>","","","","","","","","",""
"html-keyboard-response","180","370269","0.0-12.0-0.10","6140ff9c5750f0081ca8d71f","650c16f0f2faf8d7a0d14c09","651c0a8132756a07155f5c41","null","null","<p style=""font-size: 60px; font-family: BACS"">dRhtBRDh</p>","","","","","","","","",""
"html-keyboard-response","181","371270","0.0-12.0-0.11","6140ff9c5750f0081ca8d71f","650c16f0f2faf8d7a0d14c09","651c0a8132756a07155f5c41","null","null","<p style=""font-size: 60px; font-family: BACS"">JAaGOcZJ</p>","","","","","","","","",""
"html-keyboard-response","182","372276","0.0-12.0-0.12","6140ff9c5750f0081ca8d71f","650c16f0f2faf8d7a0d14c09","651c0a8132756a07155f5c41","null","null","<p style=""font-size: 60px; font-family: BACS"">blMkOdOP</p>","","","","","","","","",""
"html-keyboard-response","183","373289","0.0-12.0-0.13","6140ff9c5750f0081ca8d71f","650c16f0f2faf8d7a0d14c09","651c0a8132756a07155f5c41","null","null","<p style=""font-size: 60px; font-family: BACS"">aOLZUJUG</p>","","","","","","","","",""
"html-keyboard-response","184","374301","0.0-12.0-0.14","6140ff9c5750f0081ca8d71f","650c16f0f2faf8d7a0d14c09","651c0a8132756a07155f5c41","null","null","<p style=""font-size: 60px; font-family: BACS"">ubALmkuvb</p>","","","","","","","","",""
"html-keyboard-response","185","375315","0.0-12.0-0.15","6140ff9c5750f0081ca8d71f","650c16f0f2faf8d7a0d14c09","651c0a8132756a07155f5c41","null","null","<p style=""font-size: 60px; font-family: BACS"">rvOvUJUG</p>","","","","","","","","",""
"html-keyboard-response","186","376329","0.0-12.0-0.16","6140ff9c5750f0081ca8d71f","650c16f0f2faf8d7a0d14c09","651c0a8132756a07155f5c41","null","null","<p style=""font-size: 60px; font-family: BACS"">aOLZUkuvb</p>","","","","","","","","",""
"html-keyboard-response","187","377345","0.0-12.0-0.17","6140ff9c5750f0081ca8d71f","650c16f0f2faf8d7a0d14c09","651c0a8132756a07155f5c41","null","null","<p style=""font-size: 60px; font-family: BACS"">LGkAJUG</p>","","","","","","","","",""
"html-keyboard-response","188","378347","0.0-12.0-0.18","6140ff9c5750f0081ca8d71f","650c16f0f2faf8d7a0d14c09","651c0a8132756a07155f5c41","null","null","<p style=""font-size: 60px; font-family: BACS"">DBlhYDE</p>","","","","","","","","",""
"html-keyboard-response","189","379349","0.0-12.0-0.19","6140ff9c5750f0081ca8d71f","650c16f0f2faf8d7a0d14c09","651c0a8132756a07155f5c41","null","null","<p style=""font-size: 60px; font-family: BACS"">LGkAkuvb</p>","","","","","","","","",""
"html-keyboard-response","190","380364","0.0-12.0-0.20","6140ff9c5750f0081ca8d71f","650c16f0f2faf8d7a0d14c09","651c0a8132756a07155f5c41","null","null","<p style=""font-size: 60px; font-family: BACS"">kKRCYDE</p>","","","","","","","","",""
"html-keyboard-response","191","381380","0.0-12.0-0.21","6140ff9c5750f0081ca8d71f","650c16f0f2faf8d7a0d14c09","651c0a8132756a07155f5c41","null","null","<p style=""font-size: 60px; font-family: BACS"">Yadrkuvb</p>","","","","","","","","",""
"html-keyboard-response","192","382385","0.0-12.0-0.22","6140ff9c5750f0081ca8d71f","650c16f0f2faf8d7a0d14c09","651c0a8132756a07155f5c41","null","null","<p style=""font-size: 60px; font-family: BACS"">JauQOcZJ</p>","","","","","","","","",""
"html-keyboard-response","193","383391","0.0-12.0-0.23","6140ff9c5750f0081ca8d71f","650c16f0f2faf8d7a0d14c09","651c0a8132756a07155f5c41","null","null","<p style=""font-size: 60px; font-family: BACS"">hBmMCdmRb</p>","","","","","","","","",""
"html-keyboard-response","194","384392","0.0-12.0-0.24","6140ff9c5750f0081ca8d71f","650c16f0f2faf8d7a0d14c09","651c0a8132756a07155f5c41","null","null","<p style=""font-size: 60px; font-family: BACS"">JAaGLaA</p>","","","","","","","","",""
"html-keyboard-response","195","385395","0.0-12.0-0.25","6140ff9c5750f0081ca8d71f","650c16f0f2faf8d7a0d14c09","651c0a8132756a07155f5c41","null","null","<p style=""font-size: 60px; font-family: BACS"">dRhtdmRb</p>","","","","","","","","",""
"html-keyboard-response","196","386409","0.0-12.0-0.26","6140ff9c5750f0081ca8d71f","650c16f0f2faf8d7a0d14c09","651c0a8132756a07155f5c41","null","null","<p style=""font-size: 60px; font-family: BACS"">blMkTmc</p>","","","","","","","","",""
"html-keyboard-response","197","387412","0.0-12.0-0.27","6140ff9c5750f0081ca8d71f","650c16f0f2faf8d7a0d14c09","651c0a8132756a07155f5c41","null","null","<p style=""font-size: 60px; font-family: BACS"">JauQJUG</p>","","","","","","","","",""
"html-keyboard-response","198","388427","0.0-12.0-0.28","6140ff9c5750f0081ca8d71f","650c16f0f2faf8d7a0d14c09","651c0a8132756a07155f5c41","null","null","<p style=""font-size: 60px; font-family: BACS"">rvOvUkuvb</p>","","","","","","","","",""
"html-keyboard-response","199","389431","0.0-12.0-0.29","6140ff9c5750f0081ca8d71f","650c16f0f2faf8d7a0d14c09","651c0a8132756a07155f5c41","null","null","<p style=""font-size: 60px; font-family: BACS"">JAaGJUG</p>","","","","","","","","",""
"html-keyboard-response","200","390446","0.0-12.0-0.30","6140ff9c5750f0081ca8d71f","650c16f0f2faf8d7a0d14c09","651c0a8132756a07155f5c41","null","null","<p style=""font-size: 60px; font-family: BACS"">alJYkuvb</p>","","","","","","","","",""
"html-keyboard-response","201","391452","0.0-12.0-0.31","6140ff9c5750f0081ca8d71f","650c16f0f2faf8d7a0d14c09","651c0a8132756a07155f5c41","null","null","<p style=""font-size: 60px; font-family: BACS"">ubALmLaA</p>","","","","","","","","",""
"html-keyboard-response","202","392467","0.0-12.0-0.32","6140ff9c5750f0081ca8d71f","650c16f0f2faf8d7a0d14c09","651c0a8132756a07155f5c41","null","null","<p style=""font-size: 60px; font-family: BACS"">NaJbJUG</p>","","","","","","","","",""
"html-keyboard-response","203","393481","0.0-12.0-0.33","6140ff9c5750f0081ca8d71f","650c16f0f2faf8d7a0d14c09","651c0a8132756a07155f5c41","null","null","<p style=""font-size: 60px; font-family: BACS"">dRhtOdOP</p>","","","","","","","","",""
"html-keyboard-response","204","394496","0.0-12.0-0.34","6140ff9c5750f0081ca8d71f","650c16f0f2faf8d7a0d14c09","651c0a8132756a07155f5c41","null","null","<p style=""font-size: 60px; font-family: BACS"">ubALmOcZJ</p>","","","","","","","","",""
"html-keyboard-response","205","395511","0.0-12.0-0.35","6140ff9c5750f0081ca8d71f","650c16f0f2faf8d7a0d14c09","651c0a8132756a07155f5c41","null","null","<p style=""font-size: 60px; font-family: BACS"">NaJbLaA</p>","","","","","","","","",""
"html-keyboard-response","206","396525","0.0-12.0-0.36","6140ff9c5750f0081ca8d71f","650c16f0f2faf8d7a0d14c09","651c0a8132756a07155f5c41","null","null","<p style=""font-size: 60px; font-family: BACS"">KABAdmRb</p>","","","","","","","","",""
"html-keyboard-response","207","397536","0.0-12.0-0.37","6140ff9c5750f0081ca8d71f","650c16f0f2faf8d7a0d14c09","651c0a8132756a07155f5c41","null","null","<p style=""font-size: 60px; font-family: BACS"">blMkYDE</p>","","","","","","","","",""
"html-keyboard-response","208","398540","0.0-12.0-0.38","6140ff9c5750f0081ca8d71f","650c16f0f2faf8d7a0d14c09","651c0a8132756a07155f5c41","null","null","<p style=""font-size: 60px; font-family: BACS"">KABAOdOP</p>","","","","","","","","",""
"html-keyboard-response","209","399554","0.0-12.0-0.39","6140ff9c5750f0081ca8d71f","650c16f0f2faf8d7a0d14c09","651c0a8132756a07155f5c41","null","null","<p style=""font-size: 60px; font-family: BACS"">PMPtkYDE</p>","","","","","","","","",""
"html-keyboard-response","210","400556","0.0-12.0-0.40","6140ff9c5750f0081ca8d71f","650c16f0f2faf8d7a0d14c09","651c0a8132756a07155f5c41","null","null","<p style=""font-size: 60px; font-family: BACS"">CkBOPTmc</p>","","","","","","","","",""
"html-keyboard-response","211","401563","0.0-12.0-0.41","6140ff9c5750f0081ca8d71f","650c16f0f2faf8d7a0d14c09","651c0a8132756a07155f5c41","null","null","<p style=""font-size: 60px; font-family: BACS"">hBmMCOdOP</p>","","","","","","","","",""
"html-keyboard-response","212","402564","0.0-12.0-0.42","6140ff9c5750f0081ca8d71f","650c16f0f2faf8d7a0d14c09","651c0a8132756a07155f5c41","null","null","<p style=""font-size: 60px; font-family: BACS"">DBlhTmc</p>","","","","","","","","",""
"html-keyboard-response","213","403566","0.0-12.0-0.43","6140ff9c5750f0081ca8d71f","650c16f0f2faf8d7a0d14c09","651c0a8132756a07155f5c41","null","null","<p style=""font-size: 60px; font-family: BACS"">aYQmJUG</p>","","","","","","","","",""
"html-keyboard-response","214","404580","0.0-12.0-0.44","6140ff9c5750f0081ca8d71f","650c16f0f2faf8d7a0d14c09","651c0a8132756a07155f5c41","null","null","<p style=""font-size: 60px; font-family: BACS"">mhtcBRDh</p>","","","","","","","","",""
"html-keyboard-response","215","405593","0.0-12.0-0.45","6140ff9c5750f0081ca8d71f","650c16f0f2faf8d7a0d14c09","651c0a8132756a07155f5c41","null","null","<p style=""font-size: 60px; font-family: BACS"">kKRCTmc</p>","","","","","","","","",""
"html-keyboard-response","216","406600","0.0-12.0-0.46","6140ff9c5750f0081ca8d71f","650c16f0f2faf8d7a0d14c09","651c0a8132756a07155f5c41","null","null","<p style=""font-size: 60px; font-family: BACS"">RlAKcYDE</p>","","","","","","","","",""
"html-keyboard-response","217","407610","0.0-12.0-0.47","6140ff9c5750f0081ca8d71f","650c16f0f2faf8d7a0d14c09","651c0a8132756a07155f5c41","null","null","<p style=""font-size: 60px; font-family: BACS"">DBlhdmRb</p>","","","","","","","","",""
"html-keyboard-response","218","408622","0.0-12.0-0.48","6140ff9c5750f0081ca8d71f","650c16f0f2faf8d7a0d14c09","651c0a8132756a07155f5c41","null","null","<p style=""font-size: 60px; font-family: BACS"">alJYOcZJ</p>","","","","","","","","",""
"html-keyboard-response","219","409625","0.0-12.0-0.49","6140ff9c5750f0081ca8d71f","650c16f0f2faf8d7a0d14c09","651c0a8132756a07155f5c41","null","null","<p style=""font-size: 60px; font-family: BACS"">PMPtkOdOP</p>","","","","","","","","",""
"html-keyboard-response","220","410639","0.0-12.0-0.50","6140ff9c5750f0081ca8d71f","650c16f0f2faf8d7a0d14c09","651c0a8132756a07155f5c41","null","null","<p style=""font-size: 60px; font-family: BACS"">hBmMCTmc</p>","","","","","","","","",""
"html-keyboard-response","221","411652","0.0-12.0-0.51","6140ff9c5750f0081ca8d71f","650c16f0f2faf8d7a0d14c09","651c0a8132756a07155f5c41","null","null","<p style=""font-size: 60px; font-family: BACS"">ubALmvJQ</p>","","","","","","","","",""
"html-keyboard-response","222","412663","0.0-12.0-0.52","6140ff9c5750f0081ca8d71f","650c16f0f2faf8d7a0d14c09","651c0a8132756a07155f5c41","null","null","<p style=""font-size: 60px; font-family: BACS"">mhtcdmRb</p>","","","","","","","","",""
"html-keyboard-response","223","413666","0.0-12.0-0.53","6140ff9c5750f0081ca8d71f","650c16f0f2faf8d7a0d14c09","651c0a8132756a07155f5c41","null","null","<p style=""font-size: 60px; font-family: BACS"">aYQmkuvb</p>","","","","","","","","",""
"html-keyboard-response","224","414669","0.0-12.0-0.54","6140ff9c5750f0081ca8d71f","650c16f0f2faf8d7a0d14c09","651c0a8132756a07155f5c41","null","null","<p style=""font-size: 60px; font-family: BACS"">YadrvJQ</p>","","","","","","","","",""
"html-keyboard-response","225","415683","0.0-12.0-0.55","6140ff9c5750f0081ca8d71f","650c16f0f2faf8d7a0d14c09","651c0a8132756a07155f5c41","null","null","<p style=""font-size: 60px; font-family: BACS"">RlAKcdmRb</p>","","","","","","","","",""
"html-keyboard-response","226","416695","0.0-12.0-0.56","6140ff9c5750f0081ca8d71f","650c16f0f2faf8d7a0d14c09","651c0a8132756a07155f5c41","null","null","<p style=""font-size: 60px; font-family: BACS"">DBlhOdOP</p>","","","","","","","","",""
"html-keyboard-response","227","417696","0.0-12.0-0.57","6140ff9c5750f0081ca8d71f","650c16f0f2faf8d7a0d14c09","651c0a8132756a07155f5c41","null","null","<p style=""font-size: 60px; font-family: BACS"">RlAKcBRDh</p>","","","","","","","","",""
"html-keyboard-response","228","418709","0.0-12.0-0.58","6140ff9c5750f0081ca8d71f","650c16f0f2faf8d7a0d14c09","651c0a8132756a07155f5c41","null","null","<p style=""font-size: 60px; font-family: BACS"">KABATmc</p>","","","","","","","","",""
"html-keyboard-response","229","419722","0.0-12.0-0.59","6140ff9c5750f0081ca8d71f","650c16f0f2faf8d7a0d14c09","651c0a8132756a07155f5c41","null","null","<p style=""font-size: 60px; font-family: BACS"">rvOvUvJQ</p>","","","","","","","","",""
"html-keyboard-response","230","420737","0.0-12.0-0.60","6140ff9c5750f0081ca8d71f","650c16f0f2faf8d7a0d14c09","651c0a8132756a07155f5c41","null","null","<p style=""font-size: 60px; font-family: BACS"">CkBOPBRDh</p>","","","","","","","","",""
"html-keyboard-response","231","421741","0.0-12.0-0.61","6140ff9c5750f0081ca8d71f","650c16f0f2faf8d7a0d14c09","651c0a8132756a07155f5c41","null","null","<p style=""font-size: 60px; font-family: BACS"">mhtcYDE</p>","","","","","","","","",""
"html-keyboard-response","232","422752","0.0-12.0-0.62","6140ff9c5750f0081ca8d71f","650c16f0f2faf8d7a0d14c09","651c0a8132756a07155f5c41","null","null","<p style=""font-size: 60px; font-family: BACS"">PMPtkTmc</p>","","","","","","","","",""
"html-keyboard-response","233","423766","0.0-12.0-0.63","6140ff9c5750f0081ca8d71f","650c16f0f2faf8d7a0d14c09","651c0a8132756a07155f5c41","null","null","<p style=""font-size: 60px; font-family: BACS"">CkBOPYDE</p>","","","","","","","","",""
"html-keyboard-response","234","424781","0.0-12.0-0.64","6140ff9c5750f0081ca8d71f","650c16f0f2faf8d7a0d14c09","651c0a8132756a07155f5c41","null","null","<p style=""font-size: 60px; font-family: BACS"">LGkAvJQ</p>","","","","","","","","",""
"html-keyboard-response","235","425783","0.0-12.0-0.65","6140ff9c5750f0081ca8d71f","650c16f0f2faf8d7a0d14c09","651c0a8132756a07155f5c41","null","null","<p style=""font-size: 60px; font-family: BACS"">CkBOPOdOP</p>","","","","","","","","",""
"html-keyboard-response","236","426784","0.0-12.0-0.66","6140ff9c5750f0081ca8d71f","650c16f0f2faf8d7a0d14c09","651c0a8132756a07155f5c41","null","null","<p style=""font-size: 60px; font-family: BACS"">aYQmLaA</p>","","","","","","","","",""
"html-keyboard-response","237","427797","0.0-12.0-0.67","6140ff9c5750f0081ca8d71f","650c16f0f2faf8d7a0d14c09","651c0a8132756a07155f5c41","null","null","<p style=""font-size: 60px; font-family: BACS"">mhtcTmc</p>","","","","","","","","",""
"html-keyboard-response","238","428809","0.0-12.0-0.68","6140ff9c5750f0081ca8d71f","650c16f0f2faf8d7a0d14c09","651c0a8132756a07155f5c41","null","null","<p style=""font-size: 60px; font-family: BACS"">kKRCdmRb</p>","","","","","","","","",""
"html-keyboard-response","239","429822","0.0-12.0-0.69","6140ff9c5750f0081ca8d71f","650c16f0f2faf8d7a0d14c09","651c0a8132756a07155f5c41","null","null","<p style=""font-size: 60px; font-family: BACS"">NaJbvJQ</p>","","","","","","","","",""
"html-keyboard-response","240","430834","0.0-12.0-0.70","6140ff9c5750f0081ca8d71f","650c16f0f2faf8d7a0d14c09","651c0a8132756a07155f5c41","null","null","<p style=""font-size: 60px; font-family: BACS"">LGkAOcZJ</p>","","","","","","","","",""
"html-keyboard-response","241","431846","0.0-12.0-0.71","6140ff9c5750f0081ca8d71f","650c16f0f2faf8d7a0d14c09","651c0a8132756a07155f5c41","null","null","<p style=""font-size: 60px; font-family: BACS"">JauQvJQ</p>","","","","","","","","",""
"html-keyboard-response","242","432861","0.0-12.0-0.72","6140ff9c5750f0081ca8d71f","650c16f0f2faf8d7a0d14c09","651c0a8132756a07155f5c41","null","null","<p style=""font-size: 60px; font-family: BACS"">YadrJUG</p>","","","","","","","","",""
"html-keyboard-response","243","433876","0.0-12.0-0.73","6140ff9c5750f0081ca8d71f","650c16f0f2faf8d7a0d14c09","651c0a8132756a07155f5c41","null","null","<p style=""font-size: 60px; font-family: BACS"">kKRCBRDh</p>","","","","","","","","",""
"html-keyboard-response","244","434885","0.0-12.0-0.74","6140ff9c5750f0081ca8d71f","650c16f0f2faf8d7a0d14c09","651c0a8132756a07155f5c41","null","null","<p style=""font-size: 60px; font-family: BACS"">aOLZULaA</p>","","","","","","","","",""
"html-keyboard-response","245","435889","0.0-12.0-0.75","6140ff9c5750f0081ca8d71f","650c16f0f2faf8d7a0d14c09","651c0a8132756a07155f5c41","null","null","<p style=""font-size: 60px; font-family: BACS"">YadrOcZJ</p>","","","","","","","","",""
"html-keyboard-response","246","436903","0.0-12.0-0.76","6140ff9c5750f0081ca8d71f","650c16f0f2faf8d7a0d14c09","651c0a8132756a07155f5c41","null","null","<p style=""font-size: 60px; font-family: BACS"">JAaGvJQ</p>","","","","","","","","",""
"html-keyboard-response","247","437905","0.0-12.0-0.77","6140ff9c5750f0081ca8d71f","650c16f0f2faf8d7a0d14c09","651c0a8132756a07155f5c41","null","null","<p style=""font-size: 60px; font-family: BACS"">blMkdmRb</p>","","","","","","","","",""
"html-keyboard-response","248","438907","0.0-12.0-0.78","6140ff9c5750f0081ca8d71f","650c16f0f2faf8d7a0d14c09","651c0a8132756a07155f5c41","null","null","<p style=""font-size: 60px; font-family: BACS"">KABABRDh</p>","","","","","","","","",""
"html-keyboard-response","249","439910","0.0-12.0-0.79","6140ff9c5750f0081ca8d71f","650c16f0f2faf8d7a0d14c09","651c0a8132756a07155f5c41","null","null","<p style=""font-size: 60px; font-family: BACS"">NaJbkuvb</p>","","","","","","","","",""
"html-keyboard-response","250","451582","0.0-13.0","6140ff9c5750f0081ca8d71f","650c16f0f2faf8d7a0d14c09","651c0a8132756a07155f5c41","11672"," ","<p>Great, you've seen the third block of words. You may now take a short break.</p>
      <p>Press the spacebar when you're ready to continue.</p>","","","","","","","","",""
"html-keyboard-response","251","452597","0.0-14.0-0.0","6140ff9c5750f0081ca8d71f","650c16f0f2faf8d7a0d14c09","651c0a8132756a07155f5c41","null","null","<p style=""font-size: 60px; font-family: BACS"">CkBOPBRDh</p>","","","","","","","","",""
"html-keyboard-response","252","453610","0.0-14.0-0.1","6140ff9c5750f0081ca8d71f","650c16f0f2faf8d7a0d14c09","651c0a8132756a07155f5c41","null","null","<p style=""font-size: 60px; font-family: BACS"">RlAKcYDE</p>","","","","","","","","",""
"html-keyboard-response","253","454625","0.0-14.0-0.2","6140ff9c5750f0081ca8d71f","650c16f0f2faf8d7a0d14c09","651c0a8132756a07155f5c41","null","null","<p style=""font-size: 60px; font-family: BACS"">PMPtkBRDh</p>","","","","","","","","",""
"html-keyboard-response","254","455636","0.0-14.0-0.3","6140ff9c5750f0081ca8d71f","650c16f0f2faf8d7a0d14c09","651c0a8132756a07155f5c41","null","null","<p style=""font-size: 60px; font-family: BACS"">ubALmLaA</p>","","","","","","","","",""
"html-keyboard-response","255","456637","0.0-14.0-0.4","6140ff9c5750f0081ca8d71f","650c16f0f2faf8d7a0d14c09","651c0a8132756a07155f5c41","null","null","<p style=""font-size: 60px; font-family: BACS"">dRhtYDE</p>","","","","","","","","",""
"html-keyboard-response","256","457653","0.0-14.0-0.5","6140ff9c5750f0081ca8d71f","650c16f0f2faf8d7a0d14c09","651c0a8132756a07155f5c41","null","null","<p style=""font-size: 60px; font-family: BACS"">alJYvJQ</p>","","","","","","","","",""
"html-keyboard-response","257","458665","0.0-14.0-0.6","6140ff9c5750f0081ca8d71f","650c16f0f2faf8d7a0d14c09","651c0a8132756a07155f5c41","null","null","<p style=""font-size: 60px; font-family: BACS"">KABATmc</p>","","","","","","","","",""
"html-keyboard-response","258","459680","0.0-14.0-0.7","6140ff9c5750f0081ca8d71f","650c16f0f2faf8d7a0d14c09","651c0a8132756a07155f5c41","null","null","<p style=""font-size: 60px; font-family: BACS"">rvOvUvJQ</p>","","","","","","","","",""
"html-keyboard-response","259","460692","0.0-14.0-0.8","6140ff9c5750f0081ca8d71f","650c16f0f2faf8d7a0d14c09","651c0a8132756a07155f5c41","null","null","<p style=""font-size: 60px; font-family: BACS"">DBlhYDE</p>","","","","","","","","",""
"html-keyboard-response","260","461695","0.0-14.0-0.9","6140ff9c5750f0081ca8d71f","650c16f0f2faf8d7a0d14c09","651c0a8132756a07155f5c41","null","null","<p style=""font-size: 60px; font-family: BACS"">RlAKcBRDh</p>","","","","","","","","",""
"html-keyboard-response","261","462710","0.0-14.0-0.10","6140ff9c5750f0081ca8d71f","650c16f0f2faf8d7a0d14c09","651c0a8132756a07155f5c41","null","null","<p style=""font-size: 60px; font-family: BACS"">CkBOPTmc</p>","","","","","","","","",""
"html-keyboard-response","262","463724","0.0-14.0-0.11","6140ff9c5750f0081ca8d71f","650c16f0f2faf8d7a0d14c09","651c0a8132756a07155f5c41","null","null","<p style=""font-size: 60px; font-family: BACS"">rvOvUJUG</p>","","","","","","","","",""
"html-keyboard-response","263","464738","0.0-14.0-0.12","6140ff9c5750f0081ca8d71f","650c16f0f2faf8d7a0d14c09","651c0a8132756a07155f5c41","null","null","<p style=""font-size: 60px; font-family: BACS"">KABAOdOP</p>","","","","","","","","",""
"html-keyboard-response","264","465752","0.0-14.0-0.13","6140ff9c5750f0081ca8d71f","650c16f0f2faf8d7a0d14c09","651c0a8132756a07155f5c41","null","null","<p style=""font-size: 60px; font-family: BACS"">LGkAkuvb</p>","","","","","","","","",""
"html-keyboard-response","265","466754","0.0-14.0-0.14","6140ff9c5750f0081ca8d71f","650c16f0f2faf8d7a0d14c09","651c0a8132756a07155f5c41","null","null","<p style=""font-size: 60px; font-family: BACS"">KABAdmRb</p>","","","","","","","","",""
"html-keyboard-response","266","467757","0.0-14.0-0.15","6140ff9c5750f0081ca8d71f","650c16f0f2faf8d7a0d14c09","651c0a8132756a07155f5c41","null","null","<p style=""font-size: 60px; font-family: BACS"">YadrJUG</p>","","","","","","","","",""
"html-keyboard-response","267","468758","0.0-14.0-0.16","6140ff9c5750f0081ca8d71f","650c16f0f2faf8d7a0d14c09","651c0a8132756a07155f5c41","null","null","<p style=""font-size: 60px; font-family: BACS"">alJYLaA</p>","","","","","","","","",""
"html-keyboard-response","268","469769","0.0-14.0-0.17","6140ff9c5750f0081ca8d71f","650c16f0f2faf8d7a0d14c09","651c0a8132756a07155f5c41","null","null","<p style=""font-size: 60px; font-family: BACS"">ubALmOcZJ</p>","","","","","","","","",""
"html-keyboard-response","269","470770","0.0-14.0-0.18","6140ff9c5750f0081ca8d71f","650c16f0f2faf8d7a0d14c09","651c0a8132756a07155f5c41","null","null","<p style=""font-size: 60px; font-family: BACS"">DBlhOdOP</p>","","","","","","","","",""
"html-keyboard-response","270","471781","0.0-14.0-0.19","6140ff9c5750f0081ca8d71f","650c16f0f2faf8d7a0d14c09","651c0a8132756a07155f5c41","null","null","<p style=""font-size: 60px; font-family: BACS"">JAaGJUG</p>","","","","","","","","",""
"html-keyboard-response","271","472783","0.0-14.0-0.20","6140ff9c5750f0081ca8d71f","650c16f0f2faf8d7a0d14c09","651c0a8132756a07155f5c41","null","null","<p style=""font-size: 60px; font-family: BACS"">LGkAvJQ</p>","","","","","","","","",""
"html-keyboard-response","272","473796","0.0-14.0-0.21","6140ff9c5750f0081ca8d71f","650c16f0f2faf8d7a0d14c09","651c0a8132756a07155f5c41","null","null","<p style=""font-size: 60px; font-family: BACS"">hBmMCdmRb</p>","","","","","","","","",""
"html-keyboard-response","273","474811","0.0-14.0-0.22","6140ff9c5750f0081ca8d71f","650c16f0f2faf8d7a0d14c09","651c0a8132756a07155f5c41","null","null","<p style=""font-size: 60px; font-family: BACS"">aYQmkuvb</p>","","","","","","","","",""
"html-keyboard-response","274","475824","0.0-14.0-0.23","6140ff9c5750f0081ca8d71f","650c16f0f2faf8d7a0d14c09","651c0a8132756a07155f5c41","null","null","<p style=""font-size: 60px; font-family: BACS"">DBlhTmc</p>","","","","","","","","",""
"html-keyboard-response","275","476825","0.0-14.0-0.24","6140ff9c5750f0081ca8d71f","650c16f0f2faf8d7a0d14c09","651c0a8132756a07155f5c41","null","null","<p style=""font-size: 60px; font-family: BACS"">rvOvUkuvb</p>","","","","","","","","",""
"html-keyboard-response","276","477840","0.0-14.0-0.25","6140ff9c5750f0081ca8d71f","650c16f0f2faf8d7a0d14c09","651c0a8132756a07155f5c41","null","null","<p style=""font-size: 60px; font-family: BACS"">JAaGLaA</p>","","","","","","","","",""
"html-keyboard-response","277","478853","0.0-14.0-0.26","6140ff9c5750f0081ca8d71f","650c16f0f2faf8d7a0d14c09","651c0a8132756a07155f5c41","null","null","<p style=""font-size: 60px; font-family: BACS"">JauQJUG</p>","","","","","","","","",""
"html-keyboard-response","278","479867","0.0-14.0-0.27","6140ff9c5750f0081ca8d71f","650c16f0f2faf8d7a0d14c09","651c0a8132756a07155f5c41","null","null","<p style=""font-size: 60px; font-family: BACS"">dRhtdmRb</p>","","","","","","","","",""
"html-keyboard-response","279","480882","0.0-14.0-0.28","6140ff9c5750f0081ca8d71f","650c16f0f2faf8d7a0d14c09","651c0a8132756a07155f5c41","null","null","<p style=""font-size: 60px; font-family: BACS"">LGkAOcZJ</p>","","","","","","","","",""
"html-keyboard-response","280","481884","0.0-14.0-0.29","6140ff9c5750f0081ca8d71f","650c16f0f2faf8d7a0d14c09","651c0a8132756a07155f5c41","null","null","<p style=""font-size: 60px; font-family: BACS"">CkBOPYDE</p>","","","","","","","","",""
"html-keyboard-response","281","482899","0.0-14.0-0.30","6140ff9c5750f0081ca8d71f","650c16f0f2faf8d7a0d14c09","651c0a8132756a07155f5c41","null","null","<p style=""font-size: 60px; font-family: BACS"">NaJbvJQ</p>","","","","","","","","",""
"html-keyboard-response","282","483914","0.0-14.0-0.31","6140ff9c5750f0081ca8d71f","650c16f0f2faf8d7a0d14c09","651c0a8132756a07155f5c41","null","null","<p style=""font-size: 60px; font-family: BACS"">aOLZUJUG</p>","","","","","","","","",""
"html-keyboard-response","283","484929","0.0-14.0-0.32","6140ff9c5750f0081ca8d71f","650c16f0f2faf8d7a0d14c09","651c0a8132756a07155f5c41","null","null","<p style=""font-size: 60px; font-family: BACS"">dRhtOdOP</p>","","","","","","","","",""
"html-keyboard-response","284","485943","0.0-14.0-0.33","6140ff9c5750f0081ca8d71f","650c16f0f2faf8d7a0d14c09","651c0a8132756a07155f5c41","null","null","<p style=""font-size: 60px; font-family: BACS"">aYQmJUG</p>","","","","","","","","",""
"html-keyboard-response","285","486944","0.0-14.0-0.34","6140ff9c5750f0081ca8d71f","650c16f0f2faf8d7a0d14c09","651c0a8132756a07155f5c41","null","null","<p style=""font-size: 60px; font-family: BACS"">aOLZULaA</p>","","","","","","","","",""
"html-keyboard-response","286","487954","0.0-14.0-0.35","6140ff9c5750f0081ca8d71f","650c16f0f2faf8d7a0d14c09","651c0a8132756a07155f5c41","null","null","<p style=""font-size: 60px; font-family: BACS"">hBmMCOdOP</p>","","","","","","","","",""
"html-keyboard-response","287","488968","0.0-14.0-0.36","6140ff9c5750f0081ca8d71f","650c16f0f2faf8d7a0d14c09","651c0a8132756a07155f5c41","null","null","<p style=""font-size: 60px; font-family: BACS"">kKRCdmRb</p>","","","","","","","","",""
"html-keyboard-response","288","489970","0.0-14.0-0.37","6140ff9c5750f0081ca8d71f","650c16f0f2faf8d7a0d14c09","651c0a8132756a07155f5c41","null","null","<p style=""font-size: 60px; font-family: BACS"">JAaGOcZJ</p>","","","","","","","","",""
"html-keyboard-response","289","490985","0.0-14.0-0.38","6140ff9c5750f0081ca8d71f","650c16f0f2faf8d7a0d14c09","651c0a8132756a07155f5c41","null","null","<p style=""font-size: 60px; font-family: BACS"">aYQmLaA</p>","","","","","","","","",""
"html-keyboard-response","290","491999","0.0-14.0-0.39","6140ff9c5750f0081ca8d71f","650c16f0f2faf8d7a0d14c09","651c0a8132756a07155f5c41","null","null","<p style=""font-size: 60px; font-family: BACS"">aOLZUOcZJ</p>","","","","","","","","",""
"html-keyboard-response","291","493010","0.0-14.0-0.40","6140ff9c5750f0081ca8d71f","650c16f0f2faf8d7a0d14c09","651c0a8132756a07155f5c41","null","null","<p style=""font-size: 60px; font-family: BACS"">mhtcTmc</p>","","","","","","","","",""
"html-keyboard-response","292","494025","0.0-14.0-0.41","6140ff9c5750f0081ca8d71f","650c16f0f2faf8d7a0d14c09","651c0a8132756a07155f5c41","null","null","<p style=""font-size: 60px; font-family: BACS"">ubALmkuvb</p>","","","","","","","","",""
"html-keyboard-response","293","495040","0.0-14.0-0.42","6140ff9c5750f0081ca8d71f","650c16f0f2faf8d7a0d14c09","651c0a8132756a07155f5c41","null","null","<p style=""font-size: 60px; font-family: BACS"">blMkTmc</p>","","","","","","","","",""
"html-keyboard-response","294","496056","0.0-14.0-0.43","6140ff9c5750f0081ca8d71f","650c16f0f2faf8d7a0d14c09","651c0a8132756a07155f5c41","null","null","<p style=""font-size: 60px; font-family: BACS"">RlAKcOdOP</p>","","","","","","","","",""
"html-keyboard-response","295","497060","0.0-14.0-0.44","6140ff9c5750f0081ca8d71f","650c16f0f2faf8d7a0d14c09","651c0a8132756a07155f5c41","null","null","<p style=""font-size: 60px; font-family: BACS"">JauQvJQ</p>","","","","","","","","",""
"html-keyboard-response","296","498073","0.0-14.0-0.45","6140ff9c5750f0081ca8d71f","650c16f0f2faf8d7a0d14c09","651c0a8132756a07155f5c41","null","null","<p style=""font-size: 60px; font-family: BACS"">NaJbkuvb</p>","","","","","","","","",""
"html-keyboard-response","297","499085","0.0-14.0-0.46","6140ff9c5750f0081ca8d71f","650c16f0f2faf8d7a0d14c09","651c0a8132756a07155f5c41","null","null","<p style=""font-size: 60px; font-family: BACS"">PMPtkTmc</p>","","","","","","","","",""
"html-keyboard-response","298","500098","0.0-14.0-0.47","6140ff9c5750f0081ca8d71f","650c16f0f2faf8d7a0d14c09","651c0a8132756a07155f5c41","null","null","<p style=""font-size: 60px; font-family: BACS"">KABABRDh</p>","","","","","","","","",""
"html-keyboard-response","299","501099","0.0-14.0-0.48","6140ff9c5750f0081ca8d71f","650c16f0f2faf8d7a0d14c09","651c0a8132756a07155f5c41","null","null","<p style=""font-size: 60px; font-family: BACS"">NaJbJUG</p>","","","","","","","","",""
"html-keyboard-response","300","502113","0.0-14.0-0.49","6140ff9c5750f0081ca8d71f","650c16f0f2faf8d7a0d14c09","651c0a8132756a07155f5c41","null","null","<p style=""font-size: 60px; font-family: BACS"">blMkYDE</p>","","","","","","","","",""
"html-keyboard-response","301","503116","0.0-14.0-0.50","6140ff9c5750f0081ca8d71f","650c16f0f2faf8d7a0d14c09","651c0a8132756a07155f5c41","null","null","<p style=""font-size: 60px; font-family: BACS"">NaJbLaA</p>","","","","","","","","",""
"html-keyboard-response","302","504119","0.0-14.0-0.51","6140ff9c5750f0081ca8d71f","650c16f0f2faf8d7a0d14c09","651c0a8132756a07155f5c41","null","null","<p style=""font-size: 60px; font-family: BACS"">alJYOcZJ</p>","","","","","","","","",""
"html-keyboard-response","303","505130","0.0-14.0-0.52","6140ff9c5750f0081ca8d71f","650c16f0f2faf8d7a0d14c09","651c0a8132756a07155f5c41","null","null","<p style=""font-size: 60px; font-family: BACS"">aOLZUkuvb</p>","","","","","","","","",""
"html-keyboard-response","304","506131","0.0-14.0-0.53","6140ff9c5750f0081ca8d71f","650c16f0f2faf8d7a0d14c09","651c0a8132756a07155f5c41","null","null","<p style=""font-size: 60px; font-family: BACS"">CkBOPOdOP</p>","","","","","","","","",""
"html-keyboard-response","305","507133","0.0-14.0-0.54","6140ff9c5750f0081ca8d71f","650c16f0f2faf8d7a0d14c09","651c0a8132756a07155f5c41","null","null","<p style=""font-size: 60px; font-family: BACS"">hBmMCTmc</p>","","","","","","","","",""
"html-keyboard-response","306","508140","0.0-14.0-0.55","6140ff9c5750f0081ca8d71f","650c16f0f2faf8d7a0d14c09","651c0a8132756a07155f5c41","null","null","<p style=""font-size: 60px; font-family: BACS"">blMkdmRb</p>","","","","","","","","",""
"html-keyboard-response","307","509152","0.0-14.0-0.56","6140ff9c5750f0081ca8d71f","650c16f0f2faf8d7a0d14c09","651c0a8132756a07155f5c41","null","null","<p style=""font-size: 60px; font-family: BACS"">hBmMCBRDh</p>","","","","","","","","",""
"html-keyboard-response","308","510168","0.0-14.0-0.57","6140ff9c5750f0081ca8d71f","650c16f0f2faf8d7a0d14c09","651c0a8132756a07155f5c41","null","null","<p style=""font-size: 60px; font-family: BACS"">LGkAJUG</p>","","","","","","","","",""
"html-keyboard-response","309","511183","0.0-14.0-0.58","6140ff9c5750f0081ca8d71f","650c16f0f2faf8d7a0d14c09","651c0a8132756a07155f5c41","null","null","<p style=""font-size: 60px; font-family: BACS"">JauQLaA</p>","","","","","","","","",""
"html-keyboard-response","310","512190","0.0-14.0-0.59","6140ff9c5750f0081ca8d71f","650c16f0f2faf8d7a0d14c09","651c0a8132756a07155f5c41","null","null","<p style=""font-size: 60px; font-family: BACS"">mhtcBRDh</p>","","","","","","","","",""
"html-keyboard-response","311","513204","0.0-14.0-0.60","6140ff9c5750f0081ca8d71f","650c16f0f2faf8d7a0d14c09","651c0a8132756a07155f5c41","null","null","<p style=""font-size: 60px; font-family: BACS"">alJYkuvb</p>","","","","","","","","",""
"html-keyboard-response","312","514214","0.0-14.0-0.61","6140ff9c5750f0081ca8d71f","650c16f0f2faf8d7a0d14c09","651c0a8132756a07155f5c41","null","null","<p style=""font-size: 60px; font-family: BACS"">rvOvULaA</p>","","","","","","","","",""
"html-keyboard-response","313","515216","0.0-14.0-0.62","6140ff9c5750f0081ca8d71f","650c16f0f2faf8d7a0d14c09","651c0a8132756a07155f5c41","null","null","<p style=""font-size: 60px; font-family: BACS"">kKRCYDE</p>","","","","","","","","",""
"html-keyboard-response","314","516228","0.0-14.0-0.63","6140ff9c5750f0081ca8d71f","650c16f0f2faf8d7a0d14c09","651c0a8132756a07155f5c41","null","null","<p style=""font-size: 60px; font-family: BACS"">YadrOcZJ</p>","","","","","","","","",""
"html-keyboard-response","315","517243","0.0-14.0-0.64","6140ff9c5750f0081ca8d71f","650c16f0f2faf8d7a0d14c09","651c0a8132756a07155f5c41","null","null","<p style=""font-size: 60px; font-family: BACS"">RlAKcdmRb</p>","","","","","","","","",""
"html-keyboard-response","316","518255","0.0-14.0-0.65","6140ff9c5750f0081ca8d71f","650c16f0f2faf8d7a0d14c09","651c0a8132756a07155f5c41","null","null","<p style=""font-size: 60px; font-family: BACS"">PMPtkOdOP</p>","","","","","","","","",""
"html-keyboard-response","317","519268","0.0-14.0-0.66","6140ff9c5750f0081ca8d71f","650c16f0f2faf8d7a0d14c09","651c0a8132756a07155f5c41","null","null","<p style=""font-size: 60px; font-family: BACS"">kKRCBRDh</p>","","","","","","","","",""
"html-keyboard-response","318","520282","0.0-14.0-0.67","6140ff9c5750f0081ca8d71f","650c16f0f2faf8d7a0d14c09","651c0a8132756a07155f5c41","null","null","<p style=""font-size: 60px; font-family: BACS"">blMkOdOP</p>","","","","","","","","",""
"html-keyboard-response","319","521295","0.0-14.0-0.68","6140ff9c5750f0081ca8d71f","650c16f0f2faf8d7a0d14c09","651c0a8132756a07155f5c41","null","null","<p style=""font-size: 60px; font-family: BACS"">aYQmOcZJ</p>","","","","","","","","",""
"html-keyboard-response","320","522308","0.0-14.0-0.69","6140ff9c5750f0081ca8d71f","650c16f0f2faf8d7a0d14c09","651c0a8132756a07155f5c41","null","null","<p style=""font-size: 60px; font-family: BACS"">mhtcdmRb</p>","","","","","","","","",""
"html-keyboard-response","321","523320","0.0-14.0-0.70","6140ff9c5750f0081ca8d71f","650c16f0f2faf8d7a0d14c09","651c0a8132756a07155f5c41","null","null","<p style=""font-size: 60px; font-family: BACS"">YadrvJQ</p>","","","","","","","","",""
"html-keyboard-response","322","524335","0.0-14.0-0.71","6140ff9c5750f0081ca8d71f","650c16f0f2faf8d7a0d14c09","651c0a8132756a07155f5c41","null","null","<p style=""font-size: 60px; font-family: BACS"">dRhtBRDh</p>","","","","","","","","",""
"html-keyboard-response","323","525346","0.0-14.0-0.72","6140ff9c5750f0081ca8d71f","650c16f0f2faf8d7a0d14c09","651c0a8132756a07155f5c41","null","null","<p style=""font-size: 60px; font-family: BACS"">mhtcYDE</p>","","","","","","","","",""
"html-keyboard-response","324","526361","0.0-14.0-0.73","6140ff9c5750f0081ca8d71f","650c16f0f2faf8d7a0d14c09","651c0a8132756a07155f5c41","null","null","<p style=""font-size: 60px; font-family: BACS"">ubALmvJQ</p>","","","","","","","","",""
"html-keyboard-response","325","527376","0.0-14.0-0.74","6140ff9c5750f0081ca8d71f","650c16f0f2faf8d7a0d14c09","651c0a8132756a07155f5c41","null","null","<p style=""font-size: 60px; font-family: BACS"">JauQOcZJ</p>","","","","","","","","",""
"html-keyboard-response","326","528389","0.0-14.0-0.75","6140ff9c5750f0081ca8d71f","650c16f0f2faf8d7a0d14c09","651c0a8132756a07155f5c41","null","null","<p style=""font-size: 60px; font-family: BACS"">PMPtkYDE</p>","","","","","","","","",""
"html-keyboard-response","327","529403","0.0-14.0-0.76","6140ff9c5750f0081ca8d71f","650c16f0f2faf8d7a0d14c09","651c0a8132756a07155f5c41","null","null","<p style=""font-size: 60px; font-family: BACS"">DBlhdmRb</p>","","","","","","","","",""
"html-keyboard-response","328","530415","0.0-14.0-0.77","6140ff9c5750f0081ca8d71f","650c16f0f2faf8d7a0d14c09","651c0a8132756a07155f5c41","null","null","<p style=""font-size: 60px; font-family: BACS"">kKRCTmc</p>","","","","","","","","",""
"html-keyboard-response","329","531430","0.0-14.0-0.78","6140ff9c5750f0081ca8d71f","650c16f0f2faf8d7a0d14c09","651c0a8132756a07155f5c41","null","null","<p style=""font-size: 60px; font-family: BACS"">Yadrkuvb</p>","","","","","","","","",""
"html-keyboard-response","330","532444","0.0-14.0-0.79","6140ff9c5750f0081ca8d71f","650c16f0f2faf8d7a0d14c09","651c0a8132756a07155f5c41","null","null","<p style=""font-size: 60px; font-family: BACS"">JAaGvJQ</p>","","","","","","","","",""
"html-keyboard-response","331","543550","0.0-15.0","6140ff9c5750f0081ca8d71f","650c16f0f2faf8d7a0d14c09","651c0a8132756a07155f5c41","11106"," ","<p>Great, you've seen the fourth block of words. You may now take a short break.</p>
      <p>Press the spacebar when you're ready to continue.</p>","","","","","","","","",""
"html-keyboard-response","332","544563","0.0-16.0-0.0","6140ff9c5750f0081ca8d71f","650c16f0f2faf8d7a0d14c09","651c0a8132756a07155f5c41","null","null","<p style=""font-size: 60px; font-family: BACS"">hBmMCBRDh</p>","","","","","","","","",""
"html-keyboard-response","333","545577","0.0-16.0-0.1","6140ff9c5750f0081ca8d71f","650c16f0f2faf8d7a0d14c09","651c0a8132756a07155f5c41","null","null","<p style=""font-size: 60px; font-family: BACS"">hBmMCBRDh</p>","","","","","","","","",""
"html-keyboard-response","334","546590","0.0-16.0-0.2","6140ff9c5750f0081ca8d71f","650c16f0f2faf8d7a0d14c09","651c0a8132756a07155f5c41","null","null","<p style=""font-size: 60px; font-family: BACS"">hBmMCBRDh</p>","","","","","","","","",""
"html-keyboard-response","335","547603","0.0-16.0-0.3","6140ff9c5750f0081ca8d71f","650c16f0f2faf8d7a0d14c09","651c0a8132756a07155f5c41","null","null","<p style=""font-size: 60px; font-family: BACS"">hBmMCBRDh</p>","","","","","","","","",""
"html-keyboard-response","336","548605","0.0-16.0-0.4","6140ff9c5750f0081ca8d71f","650c16f0f2faf8d7a0d14c09","651c0a8132756a07155f5c41","null","null","<p style=""font-size: 60px; font-family: BACS"">hBmMCBRDh</p>","","","","","","","","",""
"html-keyboard-response","337","549616","0.0-16.0-0.5","6140ff9c5750f0081ca8d71f","650c16f0f2faf8d7a0d14c09","651c0a8132756a07155f5c41","null","null","<p style=""font-size: 60px; font-family: BACS"">hBmMCBRDh</p>","","","","","","","","",""
"html-keyboard-response","338","550632","0.0-16.0-0.6","6140ff9c5750f0081ca8d71f","650c16f0f2faf8d7a0d14c09","651c0a8132756a07155f5c41","null","null","<p style=""font-size: 60px; font-family: BACS"">hBmMCBRDh</p>","","","","","","","","",""
"html-keyboard-response","339","551638","0.0-16.0-0.7","6140ff9c5750f0081ca8d71f","650c16f0f2faf8d7a0d14c09","651c0a8132756a07155f5c41","null","null","<p style=""font-size: 60px; font-family: BACS"">hBmMCBRDh</p>","","","","","","","","",""
"html-keyboard-response","340","552647","0.0-16.0-0.8","6140ff9c5750f0081ca8d71f","650c16f0f2faf8d7a0d14c09","651c0a8132756a07155f5c41","null","null","<p style=""font-size: 60px; font-family: BACS"">hBmMCBRDh</p>","","","","","","","","",""
"html-keyboard-response","341","553662","0.0-16.0-0.9","6140ff9c5750f0081ca8d71f","650c16f0f2faf8d7a0d14c09","651c0a8132756a07155f5c41","null","null","<p style=""font-size: 60px; font-family: BACS"">hBmMCBRDh</p>","","","","","","","","",""
"html-keyboard-response","342","554666","0.0-16.0-0.10","6140ff9c5750f0081ca8d71f","650c16f0f2faf8d7a0d14c09","651c0a8132756a07155f5c41","null","null","<p style=""font-size: 60px; font-family: BACS"">hBmMCBRDh</p>","","","","","","","","",""
"html-keyboard-response","343","555680","0.0-16.0-0.11","6140ff9c5750f0081ca8d71f","650c16f0f2faf8d7a0d14c09","651c0a8132756a07155f5c41","null","null","<p style=""font-size: 60px; font-family: BACS"">hBmMCBRDh</p>","","","","","","","","",""
"html-keyboard-response","344","556695","0.0-16.0-0.12","6140ff9c5750f0081ca8d71f","650c16f0f2faf8d7a0d14c09","651c0a8132756a07155f5c41","null","null","<p style=""font-size: 60px; font-family: BACS"">hBmMCBRDh</p>","","","","","","","","",""
"html-keyboard-response","345","557707","0.0-16.0-0.13","6140ff9c5750f0081ca8d71f","650c16f0f2faf8d7a0d14c09","651c0a8132756a07155f5c41","null","null","<p style=""font-size: 60px; font-family: BACS"">hBmMCBRDh</p>","","","","","","","","",""
"html-keyboard-response","346","558710","0.0-16.0-0.14","6140ff9c5750f0081ca8d71f","650c16f0f2faf8d7a0d14c09","651c0a8132756a07155f5c41","null","null","<p style=""font-size: 60px; font-family: BACS"">hBmMCBRDh</p>","","","","","","","","",""
"html-keyboard-response","347","559724","0.0-16.0-0.15","6140ff9c5750f0081ca8d71f","650c16f0f2faf8d7a0d14c09","651c0a8132756a07155f5c41","null","null","<p style=""font-size: 60px; font-family: BACS"">hBmMCBRDh</p>","","","","","","","","",""
"html-keyboard-response","348","560735","0.0-16.0-0.16","6140ff9c5750f0081ca8d71f","650c16f0f2faf8d7a0d14c09","651c0a8132756a07155f5c41","null","null","<p style=""font-size: 60px; font-family: BACS"">hBmMCBRDh</p>","","","","","","","","",""
"html-keyboard-response","349","561738","0.0-16.0-0.17","6140ff9c5750f0081ca8d71f","650c16f0f2faf8d7a0d14c09","651c0a8132756a07155f5c41","null","null","<p style=""font-size: 60px; font-family: BACS"">hBmMCBRDh</p>","","","","","","","","",""
"html-keyboard-response","350","562752","0.0-16.0-0.18","6140ff9c5750f0081ca8d71f","650c16f0f2faf8d7a0d14c09","651c0a8132756a07155f5c41","null","null","<p style=""font-size: 60px; font-family: BACS"">hBmMCBRDh</p>","","","","","","","","",""
"html-keyboard-response","351","563752","0.0-16.0-0.19","6140ff9c5750f0081ca8d71f","650c16f0f2faf8d7a0d14c09","651c0a8132756a07155f5c41","null","null","<p style=""font-size: 60px; font-family: BACS"">hBmMCBRDh</p>","","","","","","","","",""
"html-keyboard-response","352","564766","0.0-16.0-0.20","6140ff9c5750f0081ca8d71f","650c16f0f2faf8d7a0d14c09","651c0a8132756a07155f5c41","null","null","<p style=""font-size: 60px; font-family: BACS"">hBmMCBRDh</p>","","","","","","","","",""
"html-keyboard-response","353","565767","0.0-16.0-0.21","6140ff9c5750f0081ca8d71f","650c16f0f2faf8d7a0d14c09","651c0a8132756a07155f5c41","null","null","<p style=""font-size: 60px; font-family: BACS"">hBmMCBRDh</p>","","","","","","","","",""
"html-keyboard-response","354","566782","0.0-16.0-0.22","6140ff9c5750f0081ca8d71f","650c16f0f2faf8d7a0d14c09","651c0a8132756a07155f5c41","null","null","<p style=""font-size: 60px; font-family: BACS"">hBmMCBRDh</p>","","","","","","","","",""
"html-keyboard-response","355","567798","0.0-16.0-0.23","6140ff9c5750f0081ca8d71f","650c16f0f2faf8d7a0d14c09","651c0a8132756a07155f5c41","null","null","<p style=""font-size: 60px; font-family: BACS"">hBmMCBRDh</p>","","","","","","","","",""
"html-keyboard-response","356","568813","0.0-16.0-0.24","6140ff9c5750f0081ca8d71f","650c16f0f2faf8d7a0d14c09","651c0a8132756a07155f5c41","null","null","<p style=""font-size: 60px; font-family: BACS"">hBmMCBRDh</p>","","","","","","","","",""
"html-keyboard-response","357","569825","0.0-16.0-0.25","6140ff9c5750f0081ca8d71f","650c16f0f2faf8d7a0d14c09","651c0a8132756a07155f5c41","null","null","<p style=""font-size: 60px; font-family: BACS"">hBmMCBRDh</p>","","","","","","","","",""
"html-keyboard-response","358","570839","0.0-16.0-0.26","6140ff9c5750f0081ca8d71f","650c16f0f2faf8d7a0d14c09","651c0a8132756a07155f5c41","null","null","<p style=""font-size: 60px; font-family: BACS"">hBmMCBRDh</p>","","","","","","","","",""
"html-keyboard-response","359","571840","0.0-16.0-0.27","6140ff9c5750f0081ca8d71f","650c16f0f2faf8d7a0d14c09","651c0a8132756a07155f5c41","null","null","<p style=""font-size: 60px; font-family: BACS"">hBmMCBRDh</p>","","","","","","","","",""
"html-keyboard-response","360","572844","0.0-16.0-0.28","6140ff9c5750f0081ca8d71f","650c16f0f2faf8d7a0d14c09","651c0a8132756a07155f5c41","null","null","<p style=""font-size: 60px; font-family: BACS"">hBmMCBRDh</p>","","","","","","","","",""
"html-keyboard-response","361","573856","0.0-16.0-0.29","6140ff9c5750f0081ca8d71f","650c16f0f2faf8d7a0d14c09","651c0a8132756a07155f5c41","null","null","<p style=""font-size: 60px; font-family: BACS"">hBmMCBRDh</p>","","","","","","","","",""
"html-keyboard-response","362","574857","0.0-16.0-0.30","6140ff9c5750f0081ca8d71f","650c16f0f2faf8d7a0d14c09","651c0a8132756a07155f5c41","null","null","<p style=""font-size: 60px; font-family: BACS"">hBmMCBRDh</p>","","","","","","","","",""
"html-keyboard-response","363","575867","0.0-16.0-0.31","6140ff9c5750f0081ca8d71f","650c16f0f2faf8d7a0d14c09","651c0a8132756a07155f5c41","null","null","<p style=""font-size: 60px; font-family: BACS"">hBmMCBRDh</p>","","","","","","","","",""
"html-keyboard-response","364","576879","0.0-16.0-0.32","6140ff9c5750f0081ca8d71f","650c16f0f2faf8d7a0d14c09","651c0a8132756a07155f5c41","null","null","<p style=""font-size: 60px; font-family: BACS"">hBmMCBRDh</p>","","","","","","","","",""
"html-keyboard-response","365","577894","0.0-16.0-0.33","6140ff9c5750f0081ca8d71f","650c16f0f2faf8d7a0d14c09","651c0a8132756a07155f5c41","null","null","<p style=""font-size: 60px; font-family: BACS"">hBmMCBRDh</p>","","","","","","","","",""
"html-keyboard-response","366","578907","0.0-16.0-0.34","6140ff9c5750f0081ca8d71f","650c16f0f2faf8d7a0d14c09","651c0a8132756a07155f5c41","null","null","<p style=""font-size: 60px; font-family: BACS"">hBmMCBRDh</p>","","","","","","","","",""
"html-keyboard-response","367","579921","0.0-16.0-0.35","6140ff9c5750f0081ca8d71f","650c16f0f2faf8d7a0d14c09","651c0a8132756a07155f5c41","null","null","<p style=""font-size: 60px; font-family: BACS"">hBmMCBRDh</p>","","","","","","","","",""
"html-keyboard-response","368","580937","0.0-16.0-0.36","6140ff9c5750f0081ca8d71f","650c16f0f2faf8d7a0d14c09","651c0a8132756a07155f5c41","null","null","<p style=""font-size: 60px; font-family: BACS"">hBmMCBRDh</p>","","","","","","","","",""
"html-keyboard-response","369","581937","0.0-16.0-0.37","6140ff9c5750f0081ca8d71f","650c16f0f2faf8d7a0d14c09","651c0a8132756a07155f5c41","null","null","<p style=""font-size: 60px; font-family: BACS"">hBmMCBRDh</p>","","","","","","","","",""
"html-keyboard-response","370","582952","0.0-16.0-0.38","6140ff9c5750f0081ca8d71f","650c16f0f2faf8d7a0d14c09","651c0a8132756a07155f5c41","null","null","<p style=""font-size: 60px; font-family: BACS"">hBmMCBRDh</p>","","","","","","","","",""
"html-keyboard-response","371","583952","0.0-16.0-0.39","6140ff9c5750f0081ca8d71f","650c16f0f2faf8d7a0d14c09","651c0a8132756a07155f5c41","null","null","<p style=""font-size: 60px; font-family: BACS"">hBmMCBRDh</p>","","","","","","","","",""
"html-keyboard-response","372","584965","0.0-16.0-0.40","6140ff9c5750f0081ca8d71f","650c16f0f2faf8d7a0d14c09","651c0a8132756a07155f5c41","null","null","<p style=""font-size: 60px; font-family: BACS"">hBmMCBRDh</p>","","","","","","","","",""
"html-keyboard-response","373","585978","0.0-16.0-0.41","6140ff9c5750f0081ca8d71f","650c16f0f2faf8d7a0d14c09","651c0a8132756a07155f5c41","null","null","<p style=""font-size: 60px; font-family: BACS"">hBmMCBRDh</p>","","","","","","","","",""
"html-keyboard-response","374","586993","0.0-16.0-0.42","6140ff9c5750f0081ca8d71f","650c16f0f2faf8d7a0d14c09","651c0a8132756a07155f5c41","null","null","<p style=""font-size: 60px; font-family: BACS"">hBmMCBRDh</p>","","","","","","","","",""
"html-keyboard-response","375","588005","0.0-16.0-0.43","6140ff9c5750f0081ca8d71f","650c16f0f2faf8d7a0d14c09","651c0a8132756a07155f5c41","null","null","<p style=""font-size: 60px; font-family: BACS"">hBmMCBRDh</p>","","","","","","","","",""
"html-keyboard-response","376","589019","0.0-16.0-0.44","6140ff9c5750f0081ca8d71f","650c16f0f2faf8d7a0d14c09","651c0a8132756a07155f5c41","null","null","<p style=""font-size: 60px; font-family: BACS"">hBmMCBRDh</p>","","","","","","","","",""
"html-keyboard-response","377","590022","0.0-16.0-0.45","6140ff9c5750f0081ca8d71f","650c16f0f2faf8d7a0d14c09","651c0a8132756a07155f5c41","null","null","<p style=""font-size: 60px; font-family: BACS"">hBmMCBRDh</p>","","","","","","","","",""
"html-keyboard-response","378","591033","0.0-16.0-0.46","6140ff9c5750f0081ca8d71f","650c16f0f2faf8d7a0d14c09","651c0a8132756a07155f5c41","null","null","<p style=""font-size: 60px; font-family: BACS"">hBmMCBRDh</p>","","","","","","","","",""
"html-keyboard-response","379","592034","0.0-16.0-0.47","6140ff9c5750f0081ca8d71f","650c16f0f2faf8d7a0d14c09","651c0a8132756a07155f5c41","null","null","<p style=""font-size: 60px; font-family: BACS"">hBmMCBRDh</p>","","","","","","","","",""
"html-keyboard-response","380","593037","0.0-16.0-0.48","6140ff9c5750f0081ca8d71f","650c16f0f2faf8d7a0d14c09","651c0a8132756a07155f5c41","null","null","<p style=""font-size: 60px; font-family: BACS"">hBmMCBRDh</p>","","","","","","","","",""
"html-keyboard-response","381","594050","0.0-16.0-0.49","6140ff9c5750f0081ca8d71f","650c16f0f2faf8d7a0d14c09","651c0a8132756a07155f5c41","null","null","<p style=""font-size: 60px; font-family: BACS"">hBmMCBRDh</p>","","","","","","","","",""
"html-keyboard-response","382","595061","0.0-16.0-0.50","6140ff9c5750f0081ca8d71f","650c16f0f2faf8d7a0d14c09","651c0a8132756a07155f5c41","null","null","<p style=""font-size: 60px; font-family: BACS"">hBmMCBRDh</p>","","","","","","","","",""
"html-keyboard-response","383","596075","0.0-16.0-0.51","6140ff9c5750f0081ca8d71f","650c16f0f2faf8d7a0d14c09","651c0a8132756a07155f5c41","null","null","<p style=""font-size: 60px; font-family: BACS"">hBmMCBRDh</p>","","","","","","","","",""
"html-keyboard-response","384","597078","0.0-16.0-0.52","6140ff9c5750f0081ca8d71f","650c16f0f2faf8d7a0d14c09","651c0a8132756a07155f5c41","null","null","<p style=""font-size: 60px; font-family: BACS"">hBmMCBRDh</p>","","","","","","","","",""
"html-keyboard-response","385","598079","0.0-16.0-0.53","6140ff9c5750f0081ca8d71f","650c16f0f2faf8d7a0d14c09","651c0a8132756a07155f5c41","null","null","<p style=""font-size: 60px; font-family: BACS"">hBmMCBRDh</p>","","","","","","","","",""
"html-keyboard-response","386","599085","0.0-16.0-0.54","6140ff9c5750f0081ca8d71f","650c16f0f2faf8d7a0d14c09","651c0a8132756a07155f5c41","null","null","<p style=""font-size: 60px; font-family: BACS"">hBmMCBRDh</p>","","","","","","","","",""
"html-keyboard-response","387","600090","0.0-16.0-0.55","6140ff9c5750f0081ca8d71f","650c16f0f2faf8d7a0d14c09","651c0a8132756a07155f5c41","null","null","<p style=""font-size: 60px; font-family: BACS"">hBmMCBRDh</p>","","","","","","","","",""
"html-keyboard-response","388","601105","0.0-16.0-0.56","6140ff9c5750f0081ca8d71f","650c16f0f2faf8d7a0d14c09","651c0a8132756a07155f5c41","null","null","<p style=""font-size: 60px; font-family: BACS"">hBmMCBRDh</p>","","","","","","","","",""
"html-keyboard-response","389","602115","0.0-16.0-0.57","6140ff9c5750f0081ca8d71f","650c16f0f2faf8d7a0d14c09","651c0a8132756a07155f5c41","null","null","<p style=""font-size: 60px; font-family: BACS"">hBmMCBRDh</p>","","","","","","","","",""
"html-keyboard-response","390","603129","0.0-16.0-0.58","6140ff9c5750f0081ca8d71f","650c16f0f2faf8d7a0d14c09","651c0a8132756a07155f5c41","null","null","<p style=""font-size: 60px; font-family: BACS"">hBmMCBRDh</p>","","","","","","","","",""
"html-keyboard-response","391","604143","0.0-16.0-0.59","6140ff9c5750f0081ca8d71f","650c16f0f2faf8d7a0d14c09","651c0a8132756a07155f5c41","null","null","<p style=""font-size: 60px; font-family: BACS"">hBmMCBRDh</p>","","","","","","","","",""
"html-keyboard-response","392","605158","0.0-16.0-0.60","6140ff9c5750f0081ca8d71f","650c16f0f2faf8d7a0d14c09","651c0a8132756a07155f5c41","null","null","<p style=""font-size: 60px; font-family: BACS"">hBmMCBRDh</p>","","","","","","","","",""
"html-keyboard-response","393","606172","0.0-16.0-0.61","6140ff9c5750f0081ca8d71f","650c16f0f2faf8d7a0d14c09","651c0a8132756a07155f5c41","null","null","<p style=""font-size: 60px; font-family: BACS"">hBmMCBRDh</p>","","","","","","","","",""
"html-keyboard-response","394","607183","0.0-16.0-0.62","6140ff9c5750f0081ca8d71f","650c16f0f2faf8d7a0d14c09","651c0a8132756a07155f5c41","null","null","<p style=""font-size: 60px; font-family: BACS"">hBmMCBRDh</p>","","","","","","","","",""
"html-keyboard-response","395","608197","0.0-16.0-0.63","6140ff9c5750f0081ca8d71f","650c16f0f2faf8d7a0d14c09","651c0a8132756a07155f5c41","null","null","<p style=""font-size: 60px; font-family: BACS"">hBmMCBRDh</p>","","","","","","","","",""
"html-keyboard-response","396","609208","0.0-16.0-0.64","6140ff9c5750f0081ca8d71f","650c16f0f2faf8d7a0d14c09","651c0a8132756a07155f5c41","null","null","<p style=""font-size: 60px; font-family: BACS"">hBmMCBRDh</p>","","","","","","","","",""
"html-keyboard-response","397","610221","0.0-16.0-0.65","6140ff9c5750f0081ca8d71f","650c16f0f2faf8d7a0d14c09","651c0a8132756a07155f5c41","null","null","<p style=""font-size: 60px; font-family: BACS"">hBmMCBRDh</p>","","","","","","","","",""
"html-keyboard-response","398","611222","0.0-16.0-0.66","6140ff9c5750f0081ca8d71f","650c16f0f2faf8d7a0d14c09","651c0a8132756a07155f5c41","null","null","<p style=""font-size: 60px; font-family: BACS"">hBmMCBRDh</p>","","","","","","","","",""
"html-keyboard-response","399","612231","0.0-16.0-0.67","6140ff9c5750f0081ca8d71f","650c16f0f2faf8d7a0d14c09","651c0a8132756a07155f5c41","null","null","<p style=""font-size: 60px; font-family: BACS"">hBmMCBRDh</p>","","","","","","","","",""
