trial_type,trial_index,time_elapsed,internal_node_id,subject_id,study_id,session_id,rt,response,stimulus,success,item,task,correct_response,testing_condition,correct,target,confound,name,view_history
pavlovia,0,594,0.0-0.0,61055020201a7da5a704f7dd,650c16f0f2faf8d7a0d14c09,651c1be23b9db8a0b84a2be7,,,,,,,,,,,,,
survey-html-form,1,7828,0.0-1.0,61055020201a7da5a704f7dd,650c16f0f2faf8d7a0d14c09,651c1be23b9db8a0b84a2be7,7234,"{""ID"":""61055020201a7da5a704f7dd""}",,,,,,,,,,,
html-keyboard-response,2,69458,0.0-2.0,61055020201a7da5a704f7dd,650c16f0f2faf8d7a0d14c09,651c1be23b9db8a0b84a2be7,61630, ,"<p style=""font-size: 15px;"">Before beginning, we ask that you read the consent information and confirm your agreement to participate in the experiment.</p>
      <p style=""font-size: 15px;""> We ask that you remember that this is a research project and that your participation is entirely voluntary. You can stop your participation at any time, without needing to provide any explanation. The study we're asking you to participate in aims at examining how readers process written words. You will be engaged in a session of apprximately 20 minutes, followed by a brief questionnaire. You will have the opportunity to take a few breaks during the experiment. You will be paid £4 for your participation, corresponding to a rate of £8/hour. While this experiment looks at cognitive faculties, this experiment doesn't constitute clinical proof of eventual pathologies.</p>
      <p style=""font-size: 15px;"">All of the information collected thanks to yours and others' participation will be held in a secure password-protected server, and will not be shared with anyone not authorised to view it. Your personal information will be kept with an arbitrary participant ID. Thanks to this data anonymity process, any researcher analysing the data won't be able to track the information back to a specific participant. Therefore, this process will make identifying you impossibile, even when results from the study will be published in scientific reviews, presented at congresses, or at any other public forum. More generally, the collected data will be treated in accordance with the laws on privacy and conformity to the Legislative Degree n. 196 ""Code regarding the protection of personal data"" of the 30th of June 2003 and to the European Regulation 2016/670 (General Data Protection Regulation - GDPR). The Data Protection Officer is Avv. Valentina Carollo, who can be contacted at the following email addresses: <a href=""mailto:dpo@sissa.it"">dpo@sissa.it</a> or <a href=""mailto:rpd@sissa.it"">rpd@sissa.it</a> - PEC: <a href=""mailto:protocollo@pec.sissa.it"">protocollo@pec.sissa.it</a>.</p>
      <p style=""font-size: 15px;""> Before expressing your consent to participate, we would like to remind you again that in case you need explanations on any aspect of the experimental procedure, the researcher is at your disposition (<a href=""mailto:aliebelt@sissa.it"">aliebelt@sissa.it</a>, <a href=""mailto:davide.crepaldi@sissa.it"">davide.crepaldi@sissa.it</a>).</p>
      <p style=""font-size: 15px;"">If you would like to download the informed consent form, you can do so here: <a href=""BASL-Informed_Consent.pdf"" download>informed consent form</a>.</p>
      <p style=""font-size: 15px;"">We ask that you press the spacebar to proceed to the consent section.</p>",,,,,,,,,,
survey-html-form,3,105875,0.0-3.0,61055020201a7da5a704f7dd,650c16f0f2faf8d7a0d14c09,651c1be23b9db8a0b84a2be7,36415,"{""consent1"":""YES"",""consent2"":""YES"",""consent3"":""YES"",""consent4"":""YES"",""consent5"":""YES"",""consent6"":""YES""}",,,,,,,,,,,
fullscreen,4,113898,0.0-4.0,61055020201a7da5a704f7dd,650c16f0f2faf8d7a0d14c09,651c1be23b9db8a0b84a2be7,,,,TRUE,,,,,,,,,
html-keyboard-response,5,145204,0.0-5.0,61055020201a7da5a704f7dd,650c16f0f2faf8d7a0d14c09,651c1be23b9db8a0b84a2be7,31320, ,"<p>Welcome, and thank you very much for your time!</p>
      <p>In this experiment, you'll be a language expert who's been asked to take a look at words that Earth has received in its first communication with aliens. Your task, in this first part of the experiment, is to pay close attention to the words you'll be shown; later, world leaders will ask you questions on what you saw. The words will be shown to you quite quickly; it seems that the aliens were in a hurry :-)</p>
      <p>Press the spacebar to continue.<p>",,,,,,,,,,
html-keyboard-response,6,145255,0.0-6.0,61055020201a7da5a704f7dd,650c16f0f2faf8d7a0d14c09,651c1be23b9db8a0b84a2be7,null,null,"<p style=""font-size: 120px; font-family: BACS""> </p>",,,,,,,,,,
html-keyboard-response,7,155603,0.0-7.0,61055020201a7da5a704f7dd,650c16f0f2faf8d7a0d14c09,651c1be23b9db8a0b84a2be7,10348, ,"<p>Here is an example of the words you'll see:</p>
      <img src='esempio.png' height='400px'>
      <p>When you're ready to begin, press the spacebar.</p></div>",,,,,,,,,,
html-keyboard-response,8,156606,0.0-8.0-0.0,61055020201a7da5a704f7dd,650c16f0f2faf8d7a0d14c09,651c1be23b9db8a0b84a2be7,null,null,"<p style=""font-size: 60px; font-family: BACS"">OJGQkYL</p>",,,,,,,,,,
html-keyboard-response,9,157617,0.0-8.0-0.1,61055020201a7da5a704f7dd,650c16f0f2faf8d7a0d14c09,651c1be23b9db8a0b84a2be7,null,null,"<p style=""font-size: 60px; font-family: BACS"">kNuaJcUk</p>",,,,,,,,,,
html-keyboard-response,10,158621,0.0-8.0-0.2,61055020201a7da5a704f7dd,650c16f0f2faf8d7a0d14c09,651c1be23b9db8a0b84a2be7,null,null,"<p style=""font-size: 60px; font-family: BACS"">BMEMAYDTk</p>",,,,,,,,,,
html-keyboard-response,11,159639,0.0-8.0-0.3,61055020201a7da5a704f7dd,650c16f0f2faf8d7a0d14c09,651c1be23b9db8a0b84a2be7,null,null,"<p style=""font-size: 60px; font-family: BACS"">tRdMkKE</p>",,,,,,,,,,
html-keyboard-response,12,160656,0.0-8.0-0.4,61055020201a7da5a704f7dd,650c16f0f2faf8d7a0d14c09,651c1be23b9db8a0b84a2be7,null,null,"<p style=""font-size: 60px; font-family: BACS"">UaYLJUNa</p>",,,,,,,,,,
html-keyboard-response,13,161658,0.0-8.0-0.5,61055020201a7da5a704f7dd,650c16f0f2faf8d7a0d14c09,651c1be23b9db8a0b84a2be7,null,null,"<p style=""font-size: 60px; font-family: BACS"">OJGQuvJ</p>",,,,,,,,,,
html-keyboard-response,14,162675,0.0-8.0-0.6,61055020201a7da5a704f7dd,650c16f0f2faf8d7a0d14c09,651c1be23b9db8a0b84a2be7,null,null,"<p style=""font-size: 60px; font-family: BACS"">RCcEkKE</p>",,,,,,,,,,
html-keyboard-response,15,163677,0.0-8.0-0.7,61055020201a7da5a704f7dd,650c16f0f2faf8d7a0d14c09,651c1be23b9db8a0b84a2be7,null,null,"<p style=""font-size: 60px; font-family: BACS"">UaYLuvJ</p>",,,,,,,,,,
html-keyboard-response,16,164691,0.0-8.0-0.8,61055020201a7da5a704f7dd,650c16f0f2faf8d7a0d14c09,651c1be23b9db8a0b84a2be7,null,null,"<p style=""font-size: 60px; font-family: BACS"">ODBDAYDTk</p>",,,,,,,,,,
html-keyboard-response,17,165692,0.0-8.0-0.9,61055020201a7da5a704f7dd,650c16f0f2faf8d7a0d14c09,651c1be23b9db8a0b84a2be7,null,null,"<p style=""font-size: 60px; font-family: BACS"">PEtElMck</p>",,,,,,,,,,
html-keyboard-response,18,166697,0.0-8.0-0.10,61055020201a7da5a704f7dd,650c16f0f2faf8d7a0d14c09,651c1be23b9db8a0b84a2be7,null,null,"<p style=""font-size: 60px; font-family: BACS"">rvOvUuvJ</p>",,,,,,,,,,
html-keyboard-response,19,167714,0.0-8.0-0.11,61055020201a7da5a704f7dd,650c16f0f2faf8d7a0d14c09,651c1be23b9db8a0b84a2be7,null,null,"<p style=""font-size: 60px; font-family: BACS"">ldAaJUNa</p>",,,,,,,,,,
html-keyboard-response,20,168715,0.0-8.0-0.12,61055020201a7da5a704f7dd,650c16f0f2faf8d7a0d14c09,651c1be23b9db8a0b84a2be7,null,null,"<p style=""font-size: 60px; font-family: BACS"">rvOvUkYL</p>",,,,,,,,,,
html-keyboard-response,21,169731,0.0-8.0-0.13,61055020201a7da5a704f7dd,650c16f0f2faf8d7a0d14c09,651c1be23b9db8a0b84a2be7,null,null,"<p style=""font-size: 60px; font-family: BACS"">MlthTPOM</p>",,,,,,,,,,
html-keyboard-response,22,170735,0.0-8.0-0.14,61055020201a7da5a704f7dd,650c16f0f2faf8d7a0d14c09,651c1be23b9db8a0b84a2be7,null,null,"<p style=""font-size: 60px; font-family: BACS"">LuaUkYL</p>",,,,,,,,,,
html-keyboard-response,23,171753,0.0-8.0-0.15,61055020201a7da5a704f7dd,650c16f0f2faf8d7a0d14c09,651c1be23b9db8a0b84a2be7,null,null,"<p style=""font-size: 60px; font-family: BACS"">MBmElMck</p>",,,,,,,,,,
html-keyboard-response,24,172755,0.0-8.0-0.16,61055020201a7da5a704f7dd,650c16f0f2faf8d7a0d14c09,651c1be23b9db8a0b84a2be7,null,null,"<p style=""font-size: 60px; font-family: BACS"">PEtEPMd</p>",,,,,,,,,,
html-keyboard-response,25,173755,0.0-8.0-0.17,61055020201a7da5a704f7dd,650c16f0f2faf8d7a0d14c09,651c1be23b9db8a0b84a2be7,null,null,"<p style=""font-size: 60px; font-family: BACS"">MlthkKE</p>",,,,,,,,,,
html-keyboard-response,26,174757,0.0-8.0-0.18,61055020201a7da5a704f7dd,650c16f0f2faf8d7a0d14c09,651c1be23b9db8a0b84a2be7,null,null,"<p style=""font-size: 60px; font-family: BACS"">mkmJNuvJ</p>",,,,,,,,,,
html-keyboard-response,27,175758,0.0-8.0-0.19,61055020201a7da5a704f7dd,650c16f0f2faf8d7a0d14c09,651c1be23b9db8a0b84a2be7,null,null,"<p style=""font-size: 60px; font-family: BACS"">kNuaGUOA</p>",,,,,,,,,,
html-keyboard-response,28,176760,0.0-8.0-0.20,61055020201a7da5a704f7dd,650c16f0f2faf8d7a0d14c09,651c1be23b9db8a0b84a2be7,null,null,"<p style=""font-size: 60px; font-family: BACS"">BMEMAlMck</p>",,,,,,,,,,
html-keyboard-response,29,177762,0.0-8.0-0.21,61055020201a7da5a704f7dd,650c16f0f2faf8d7a0d14c09,651c1be23b9db8a0b84a2be7,null,null,"<p style=""font-size: 60px; font-family: BACS"">KElBYDTk</p>",,,,,,,,,,
html-keyboard-response,30,178778,0.0-8.0-0.22,61055020201a7da5a704f7dd,650c16f0f2faf8d7a0d14c09,651c1be23b9db8a0b84a2be7,null,null,"<p style=""font-size: 60px; font-family: BACS"">TdTDkKE</p>",,,,,,,,,,
html-keyboard-response,31,179794,0.0-8.0-0.23,61055020201a7da5a704f7dd,650c16f0f2faf8d7a0d14c09,651c1be23b9db8a0b84a2be7,null,null,"<p style=""font-size: 60px; font-family: BACS"">mkmJNJUNa</p>",,,,,,,,,,
html-keyboard-response,32,180809,0.0-8.0-0.24,61055020201a7da5a704f7dd,650c16f0f2faf8d7a0d14c09,651c1be23b9db8a0b84a2be7,null,null,"<p style=""font-size: 60px; font-family: BACS"">tRdMYDTk</p>",,,,,,,,,,
html-keyboard-response,33,181819,0.0-8.0-0.25,61055020201a7da5a704f7dd,650c16f0f2faf8d7a0d14c09,651c1be23b9db8a0b84a2be7,null,null,"<p style=""font-size: 60px; font-family: BACS"">rvOvUJcUk</p>",,,,,,,,,,
html-keyboard-response,34,182833,0.0-8.0-0.26,61055020201a7da5a704f7dd,650c16f0f2faf8d7a0d14c09,651c1be23b9db8a0b84a2be7,null,null,"<p style=""font-size: 60px; font-family: BACS"">RCcEPMd</p>",,,,,,,,,,
html-keyboard-response,35,183836,0.0-8.0-0.27,61055020201a7da5a704f7dd,650c16f0f2faf8d7a0d14c09,651c1be23b9db8a0b84a2be7,null,null,"<p style=""font-size: 60px; font-family: BACS"">kZUbJcUk</p>",,,,,,,,,,
html-keyboard-response,36,184852,0.0-8.0-0.28,61055020201a7da5a704f7dd,650c16f0f2faf8d7a0d14c09,651c1be23b9db8a0b84a2be7,null,null,"<p style=""font-size: 60px; font-family: BACS"">ODBDATPOM</p>",,,,,,,,,,
html-keyboard-response,37,185872,0.0-8.0-0.29,61055020201a7da5a704f7dd,650c16f0f2faf8d7a0d14c09,651c1be23b9db8a0b84a2be7,null,null,"<p style=""font-size: 60px; font-family: BACS"">KElBlMck</p>",,,,,,,,,,
html-keyboard-response,38,186873,0.0-8.0-0.30,61055020201a7da5a704f7dd,650c16f0f2faf8d7a0d14c09,651c1be23b9db8a0b84a2be7,null,null,"<p style=""font-size: 60px; font-family: BACS"">MlthPMd</p>",,,,,,,,,,
html-keyboard-response,39,187875,0.0-8.0-0.31,61055020201a7da5a704f7dd,650c16f0f2faf8d7a0d14c09,651c1be23b9db8a0b84a2be7,null,null,"<p style=""font-size: 60px; font-family: BACS"">kNuaJUNa</p>",,,,,,,,,,
html-keyboard-response,40,188876,0.0-8.0-0.32,61055020201a7da5a704f7dd,650c16f0f2faf8d7a0d14c09,651c1be23b9db8a0b84a2be7,null,null,"<p style=""font-size: 60px; font-family: BACS"">LuaUGUOA</p>",,,,,,,,,,
html-keyboard-response,41,189878,0.0-8.0-0.33,61055020201a7da5a704f7dd,650c16f0f2faf8d7a0d14c09,651c1be23b9db8a0b84a2be7,null,null,"<p style=""font-size: 60px; font-family: BACS"">ALGZuvJ</p>",,,,,,,,,,
html-keyboard-response,42,190890,0.0-8.0-0.34,61055020201a7da5a704f7dd,650c16f0f2faf8d7a0d14c09,651c1be23b9db8a0b84a2be7,null,null,"<p style=""font-size: 60px; font-family: BACS"">OJGQJUNa</p>",,,,,,,,,,
html-keyboard-response,43,191898,0.0-8.0-0.35,61055020201a7da5a704f7dd,650c16f0f2faf8d7a0d14c09,651c1be23b9db8a0b84a2be7,null,null,"<p style=""font-size: 60px; font-family: BACS"">MBmEkKE</p>",,,,,,,,,,
html-keyboard-response,44,192907,0.0-8.0-0.36,61055020201a7da5a704f7dd,650c16f0f2faf8d7a0d14c09,651c1be23b9db8a0b84a2be7,null,null,"<p style=""font-size: 60px; font-family: BACS"">ODBDAlMck</p>",,,,,,,,,,
html-keyboard-response,45,193917,0.0-8.0-0.37,61055020201a7da5a704f7dd,650c16f0f2faf8d7a0d14c09,651c1be23b9db8a0b84a2be7,null,null,"<p style=""font-size: 60px; font-family: BACS"">kZUbuvJ</p>",,,,,,,,,,
html-keyboard-response,46,194935,0.0-8.0-0.38,61055020201a7da5a704f7dd,650c16f0f2faf8d7a0d14c09,651c1be23b9db8a0b84a2be7,null,null,"<p style=""font-size: 60px; font-family: BACS"">DhMtkKE</p>",,,,,,,,,,
html-keyboard-response,47,195951,0.0-8.0-0.39,61055020201a7da5a704f7dd,650c16f0f2faf8d7a0d14c09,651c1be23b9db8a0b84a2be7,null,null,"<p style=""font-size: 60px; font-family: BACS"">kNuakYL</p>",,,,,,,,,,
html-keyboard-response,48,196969,0.0-8.0-0.40,61055020201a7da5a704f7dd,650c16f0f2faf8d7a0d14c09,651c1be23b9db8a0b84a2be7,null,null,"<p style=""font-size: 60px; font-family: BACS"">LuaUuvJ</p>",,,,,,,,,,
html-keyboard-response,49,197973,0.0-8.0-0.41,61055020201a7da5a704f7dd,650c16f0f2faf8d7a0d14c09,651c1be23b9db8a0b84a2be7,null,null,"<p style=""font-size: 60px; font-family: BACS"">tRdMlMck</p>",,,,,,,,,,
html-keyboard-response,50,198994,0.0-8.0-0.42,61055020201a7da5a704f7dd,650c16f0f2faf8d7a0d14c09,651c1be23b9db8a0b84a2be7,null,null,"<p style=""font-size: 60px; font-family: BACS"">NvuGrJUNa</p>",,,,,,,,,,
html-keyboard-response,51,199996,0.0-8.0-0.43,61055020201a7da5a704f7dd,650c16f0f2faf8d7a0d14c09,651c1be23b9db8a0b84a2be7,null,null,"<p style=""font-size: 60px; font-family: BACS"">DhMtPMd</p>",,,,,,,,,,
html-keyboard-response,52,200997,0.0-8.0-0.44,61055020201a7da5a704f7dd,650c16f0f2faf8d7a0d14c09,651c1be23b9db8a0b84a2be7,null,null,"<p style=""font-size: 60px; font-family: BACS"">ALGZGUOA</p>",,,,,,,,,,
html-keyboard-response,53,202000,0.0-8.0-0.45,61055020201a7da5a704f7dd,650c16f0f2faf8d7a0d14c09,651c1be23b9db8a0b84a2be7,null,null,"<p style=""font-size: 60px; font-family: BACS"">MBmETPOM</p>",,,,,,,,,,
html-keyboard-response,54,203001,0.0-8.0-0.46,61055020201a7da5a704f7dd,650c16f0f2faf8d7a0d14c09,651c1be23b9db8a0b84a2be7,null,null,"<p style=""font-size: 60px; font-family: BACS"">ldAaGUOA</p>",,,,,,,,,,
html-keyboard-response,55,204018,0.0-8.0-0.47,61055020201a7da5a704f7dd,650c16f0f2faf8d7a0d14c09,651c1be23b9db8a0b84a2be7,null,null,"<p style=""font-size: 60px; font-family: BACS"">LuaUJcUk</p>",,,,,,,,,,
html-keyboard-response,56,205019,0.0-8.0-0.48,61055020201a7da5a704f7dd,650c16f0f2faf8d7a0d14c09,651c1be23b9db8a0b84a2be7,null,null,"<p style=""font-size: 60px; font-family: BACS"">KElBTPOM</p>",,,,,,,,,,
html-keyboard-response,57,206035,0.0-8.0-0.49,61055020201a7da5a704f7dd,650c16f0f2faf8d7a0d14c09,651c1be23b9db8a0b84a2be7,null,null,"<p style=""font-size: 60px; font-family: BACS"">NvuGrGUOA</p>",,,,,,,,,,
html-keyboard-response,58,207036,0.0-8.0-0.50,61055020201a7da5a704f7dd,650c16f0f2faf8d7a0d14c09,651c1be23b9db8a0b84a2be7,null,null,"<p style=""font-size: 60px; font-family: BACS"">mkmJNkYL</p>",,,,,,,,,,
html-keyboard-response,59,208037,0.0-8.0-0.51,61055020201a7da5a704f7dd,650c16f0f2faf8d7a0d14c09,651c1be23b9db8a0b84a2be7,null,null,"<p style=""font-size: 60px; font-family: BACS"">RCcETPOM</p>",,,,,,,,,,
html-keyboard-response,60,209040,0.0-8.0-0.52,61055020201a7da5a704f7dd,650c16f0f2faf8d7a0d14c09,651c1be23b9db8a0b84a2be7,null,null,"<p style=""font-size: 60px; font-family: BACS"">BMEMAPMd</p>",,,,,,,,,,
html-keyboard-response,61,210057,0.0-8.0-0.53,61055020201a7da5a704f7dd,650c16f0f2faf8d7a0d14c09,651c1be23b9db8a0b84a2be7,null,null,"<p style=""font-size: 60px; font-family: BACS"">TdTDlMck</p>",,,,,,,,,,
html-keyboard-response,62,211058,0.0-8.0-0.54,61055020201a7da5a704f7dd,650c16f0f2faf8d7a0d14c09,651c1be23b9db8a0b84a2be7,null,null,"<p style=""font-size: 60px; font-family: BACS"">ODBDAkKE</p>",,,,,,,,,,
html-keyboard-response,63,212074,0.0-8.0-0.55,61055020201a7da5a704f7dd,650c16f0f2faf8d7a0d14c09,651c1be23b9db8a0b84a2be7,null,null,"<p style=""font-size: 60px; font-family: BACS"">NvuGruvJ</p>",,,,,,,,,,
html-keyboard-response,64,213077,0.0-8.0-0.56,61055020201a7da5a704f7dd,650c16f0f2faf8d7a0d14c09,651c1be23b9db8a0b84a2be7,null,null,"<p style=""font-size: 60px; font-family: BACS"">DhMtTPOM</p>",,,,,,,,,,
html-keyboard-response,65,214079,0.0-8.0-0.57,61055020201a7da5a704f7dd,650c16f0f2faf8d7a0d14c09,651c1be23b9db8a0b84a2be7,null,null,"<p style=""font-size: 60px; font-family: BACS"">UaYLJcUk</p>",,,,,,,,,,
html-keyboard-response,66,215081,0.0-8.0-0.58,61055020201a7da5a704f7dd,650c16f0f2faf8d7a0d14c09,651c1be23b9db8a0b84a2be7,null,null,"<p style=""font-size: 60px; font-family: BACS"">ALGZkYL</p>",,,,,,,,,,
html-keyboard-response,67,216082,0.0-8.0-0.59,61055020201a7da5a704f7dd,650c16f0f2faf8d7a0d14c09,651c1be23b9db8a0b84a2be7,null,null,"<p style=""font-size: 60px; font-family: BACS"">TdTDYDTk</p>",,,,,,,,,,
html-keyboard-response,68,217083,0.0-8.0-0.60,61055020201a7da5a704f7dd,650c16f0f2faf8d7a0d14c09,651c1be23b9db8a0b84a2be7,null,null,"<p style=""font-size: 60px; font-family: BACS"">tRdMPMd</p>",,,,,,,,,,
html-keyboard-response,69,218111,0.0-8.0-0.61,61055020201a7da5a704f7dd,650c16f0f2faf8d7a0d14c09,651c1be23b9db8a0b84a2be7,null,null,"<p style=""font-size: 60px; font-family: BACS"">PEtEYDTk</p>",,,,,,,,,,
html-keyboard-response,70,219116,0.0-8.0-0.62,61055020201a7da5a704f7dd,650c16f0f2faf8d7a0d14c09,651c1be23b9db8a0b84a2be7,null,null,"<p style=""font-size: 60px; font-family: BACS"">BMEMATPOM</p>",,,,,,,,,,
html-keyboard-response,71,220118,0.0-8.0-0.63,61055020201a7da5a704f7dd,650c16f0f2faf8d7a0d14c09,651c1be23b9db8a0b84a2be7,null,null,"<p style=""font-size: 60px; font-family: BACS"">mkmJNGUOA</p>",,,,,,,,,,
html-keyboard-response,72,221119,0.0-8.0-0.64,61055020201a7da5a704f7dd,650c16f0f2faf8d7a0d14c09,651c1be23b9db8a0b84a2be7,null,null,"<p style=""font-size: 60px; font-family: BACS"">ldAaJcUk</p>",,,,,,,,,,
html-keyboard-response,73,222125,0.0-8.0-0.65,61055020201a7da5a704f7dd,650c16f0f2faf8d7a0d14c09,651c1be23b9db8a0b84a2be7,null,null,"<p style=""font-size: 60px; font-family: BACS"">kZUbJUNa</p>",,,,,,,,,,
html-keyboard-response,74,223145,0.0-8.0-0.66,61055020201a7da5a704f7dd,650c16f0f2faf8d7a0d14c09,651c1be23b9db8a0b84a2be7,null,null,"<p style=""font-size: 60px; font-family: BACS"">DhMtlMck</p>",,,,,,,,,,
html-keyboard-response,75,224146,0.0-8.0-0.67,61055020201a7da5a704f7dd,650c16f0f2faf8d7a0d14c09,651c1be23b9db8a0b84a2be7,null,null,"<p style=""font-size: 60px; font-family: BACS"">OJGQGUOA</p>",,,,,,,,,,
html-keyboard-response,76,225147,0.0-8.0-0.68,61055020201a7da5a704f7dd,650c16f0f2faf8d7a0d14c09,651c1be23b9db8a0b84a2be7,null,null,"<p style=""font-size: 60px; font-family: BACS"">PEtEkKE</p>",,,,,,,,,,
html-keyboard-response,77,226149,0.0-8.0-0.69,61055020201a7da5a704f7dd,650c16f0f2faf8d7a0d14c09,651c1be23b9db8a0b84a2be7,null,null,"<p style=""font-size: 60px; font-family: BACS"">KElBPMd</p>",,,,,,,,,,
html-keyboard-response,78,227150,0.0-8.0-0.70,61055020201a7da5a704f7dd,650c16f0f2faf8d7a0d14c09,651c1be23b9db8a0b84a2be7,null,null,"<p style=""font-size: 60px; font-family: BACS"">MlthYDTk</p>",,,,,,,,,,
html-keyboard-response,79,228153,0.0-8.0-0.71,61055020201a7da5a704f7dd,650c16f0f2faf8d7a0d14c09,651c1be23b9db8a0b84a2be7,null,null,"<p style=""font-size: 60px; font-family: BACS"">UaYLkYL</p>",,,,,,,,,,
html-keyboard-response,80,229155,0.0-8.0-0.72,61055020201a7da5a704f7dd,650c16f0f2faf8d7a0d14c09,651c1be23b9db8a0b84a2be7,null,null,"<p style=""font-size: 60px; font-family: BACS"">RCcEYDTk</p>",,,,,,,,,,
html-keyboard-response,81,230156,0.0-8.0-0.73,61055020201a7da5a704f7dd,650c16f0f2faf8d7a0d14c09,651c1be23b9db8a0b84a2be7,null,null,"<p style=""font-size: 60px; font-family: BACS"">TdTDTPOM</p>",,,,,,,,,,
html-keyboard-response,82,231158,0.0-8.0-0.74,61055020201a7da5a704f7dd,650c16f0f2faf8d7a0d14c09,651c1be23b9db8a0b84a2be7,null,null,"<p style=""font-size: 60px; font-family: BACS"">NvuGrJcUk</p>",,,,,,,,,,
html-keyboard-response,83,232159,0.0-8.0-0.75,61055020201a7da5a704f7dd,650c16f0f2faf8d7a0d14c09,651c1be23b9db8a0b84a2be7,null,null,"<p style=""font-size: 60px; font-family: BACS"">rvOvUJUNa</p>",,,,,,,,,,
html-keyboard-response,84,233160,0.0-8.0-0.76,61055020201a7da5a704f7dd,650c16f0f2faf8d7a0d14c09,651c1be23b9db8a0b84a2be7,null,null,"<p style=""font-size: 60px; font-family: BACS"">MBmEPMd</p>",,,,,,,,,,
html-keyboard-response,85,234163,0.0-8.0-0.77,61055020201a7da5a704f7dd,650c16f0f2faf8d7a0d14c09,651c1be23b9db8a0b84a2be7,null,null,"<p style=""font-size: 60px; font-family: BACS"">ALGZJcUk</p>",,,,,,,,,,
html-keyboard-response,86,235165,0.0-8.0-0.78,61055020201a7da5a704f7dd,650c16f0f2faf8d7a0d14c09,651c1be23b9db8a0b84a2be7,null,null,"<p style=""font-size: 60px; font-family: BACS"">ldAakYL</p>",,,,,,,,,,
html-keyboard-response,87,236182,0.0-8.0-0.79,61055020201a7da5a704f7dd,650c16f0f2faf8d7a0d14c09,651c1be23b9db8a0b84a2be7,null,null,"<p style=""font-size: 60px; font-family: BACS"">kZUbGUOA</p>",,,,,,,,,,
html-keyboard-response,88,247351,0.0-9.0,61055020201a7da5a704f7dd,650c16f0f2faf8d7a0d14c09,651c1be23b9db8a0b84a2be7,11169, ,"<p>Great, you've seen the first block of words. You may now take a short break.</p>
      <p>Press the spacebar when you're ready to continue.</p>",,,,,,,,,,
html-keyboard-response,89,248360,0.0-10.0-0.0,61055020201a7da5a704f7dd,650c16f0f2faf8d7a0d14c09,651c1be23b9db8a0b84a2be7,null,null,"<p style=""font-size: 60px; font-family: BACS"">kNuaJcUk</p>",,,,,,,,,,
html-keyboard-response,90,249362,0.0-10.0-0.1,61055020201a7da5a704f7dd,650c16f0f2faf8d7a0d14c09,651c1be23b9db8a0b84a2be7,null,null,"<p style=""font-size: 60px; font-family: BACS"">tRdMYDTk</p>",,,,,,,,,,
html-keyboard-response,91,250365,0.0-10.0-0.2,61055020201a7da5a704f7dd,650c16f0f2faf8d7a0d14c09,651c1be23b9db8a0b84a2be7,null,null,"<p style=""font-size: 60px; font-family: BACS"">NvuGrJUNa</p>",,,,,,,,,,
html-keyboard-response,92,251385,0.0-10.0-0.3,61055020201a7da5a704f7dd,650c16f0f2faf8d7a0d14c09,651c1be23b9db8a0b84a2be7,null,null,"<p style=""font-size: 60px; font-family: BACS"">ODBDAlMck</p>",,,,,,,,,,
html-keyboard-response,93,252387,0.0-10.0-0.4,61055020201a7da5a704f7dd,650c16f0f2faf8d7a0d14c09,651c1be23b9db8a0b84a2be7,null,null,"<p style=""font-size: 60px; font-family: BACS"">DhMtPMd</p>",,,,,,,,,,
html-keyboard-response,94,253389,0.0-10.0-0.5,61055020201a7da5a704f7dd,650c16f0f2faf8d7a0d14c09,651c1be23b9db8a0b84a2be7,null,null,"<p style=""font-size: 60px; font-family: BACS"">KElBlMck</p>",,,,,,,,,,
html-keyboard-response,95,254391,0.0-10.0-0.6,61055020201a7da5a704f7dd,650c16f0f2faf8d7a0d14c09,651c1be23b9db8a0b84a2be7,null,null,"<p style=""font-size: 60px; font-family: BACS"">TdTDkKE</p>",,,,,,,,,,
html-keyboard-response,96,255413,0.0-10.0-0.7,61055020201a7da5a704f7dd,650c16f0f2faf8d7a0d14c09,651c1be23b9db8a0b84a2be7,null,null,"<p style=""font-size: 60px; font-family: BACS"">kZUbJcUk</p>",,,,,,,,,,
html-keyboard-response,97,256425,0.0-10.0-0.8,61055020201a7da5a704f7dd,650c16f0f2faf8d7a0d14c09,651c1be23b9db8a0b84a2be7,null,null,"<p style=""font-size: 60px; font-family: BACS"">BMEMAlMck</p>",,,,,,,,,,
html-keyboard-response,98,257427,0.0-10.0-0.9,61055020201a7da5a704f7dd,650c16f0f2faf8d7a0d14c09,651c1be23b9db8a0b84a2be7,null,null,"<p style=""font-size: 60px; font-family: BACS"">ALGZkYL</p>",,,,,,,,,,
html-keyboard-response,99,258429,0.0-10.0-0.10,61055020201a7da5a704f7dd,650c16f0f2faf8d7a0d14c09,651c1be23b9db8a0b84a2be7,null,null,"<p style=""font-size: 60px; font-family: BACS"">ldAaJUNa</p>",,,,,,,,,,
html-keyboard-response,100,259431,0.0-10.0-0.11,61055020201a7da5a704f7dd,650c16f0f2faf8d7a0d14c09,651c1be23b9db8a0b84a2be7,null,null,"<p style=""font-size: 60px; font-family: BACS"">BMEMATPOM</p>",,,,,,,,,,
html-keyboard-response,101,260433,0.0-10.0-0.12,61055020201a7da5a704f7dd,650c16f0f2faf8d7a0d14c09,651c1be23b9db8a0b84a2be7,null,null,"<p style=""font-size: 60px; font-family: BACS"">rvOvUkYL</p>",,,,,,,,,,
html-keyboard-response,102,261434,0.0-10.0-0.13,61055020201a7da5a704f7dd,650c16f0f2faf8d7a0d14c09,651c1be23b9db8a0b84a2be7,null,null,"<p style=""font-size: 60px; font-family: BACS"">LuaUuvJ</p>",,,,,,,,,,
html-keyboard-response,103,262436,0.0-10.0-0.14,61055020201a7da5a704f7dd,650c16f0f2faf8d7a0d14c09,651c1be23b9db8a0b84a2be7,null,null,"<p style=""font-size: 60px; font-family: BACS"">KElBTPOM</p>",,,,,,,,,,
html-keyboard-response,104,263447,0.0-10.0-0.15,61055020201a7da5a704f7dd,650c16f0f2faf8d7a0d14c09,651c1be23b9db8a0b84a2be7,null,null,"<p style=""font-size: 60px; font-family: BACS"">UaYLuvJ</p>",,,,,,,,,,
html-keyboard-response,105,264455,0.0-10.0-0.16,61055020201a7da5a704f7dd,650c16f0f2faf8d7a0d14c09,651c1be23b9db8a0b84a2be7,null,null,"<p style=""font-size: 60px; font-family: BACS"">ODBDATPOM</p>",,,,,,,,,,
html-keyboard-response,106,265457,0.0-10.0-0.17,61055020201a7da5a704f7dd,650c16f0f2faf8d7a0d14c09,651c1be23b9db8a0b84a2be7,null,null,"<p style=""font-size: 60px; font-family: BACS"">BMEMAPMd</p>",,,,,,,,,,
html-keyboard-response,107,266459,0.0-10.0-0.18,61055020201a7da5a704f7dd,650c16f0f2faf8d7a0d14c09,651c1be23b9db8a0b84a2be7,null,null,"<p style=""font-size: 60px; font-family: BACS"">ODBDAYDTk</p>",,,,,,,,,,
html-keyboard-response,108,267465,0.0-10.0-0.19,61055020201a7da5a704f7dd,650c16f0f2faf8d7a0d14c09,651c1be23b9db8a0b84a2be7,null,null,"<p style=""font-size: 60px; font-family: BACS"">MBmEkKE</p>",,,,,,,,,,
html-keyboard-response,109,268482,0.0-10.0-0.20,61055020201a7da5a704f7dd,650c16f0f2faf8d7a0d14c09,651c1be23b9db8a0b84a2be7,null,null,"<p style=""font-size: 60px; font-family: BACS"">TdTDlMck</p>",,,,,,,,,,
html-keyboard-response,110,269484,0.0-10.0-0.21,61055020201a7da5a704f7dd,650c16f0f2faf8d7a0d14c09,651c1be23b9db8a0b84a2be7,null,null,"<p style=""font-size: 60px; font-family: BACS"">ODBDAkKE</p>",,,,,,,,,,
html-keyboard-response,111,270498,0.0-10.0-0.22,61055020201a7da5a704f7dd,650c16f0f2faf8d7a0d14c09,651c1be23b9db8a0b84a2be7,null,null,"<p style=""font-size: 60px; font-family: BACS"">TdTDYDTk</p>",,,,,,,,,,
html-keyboard-response,112,271498,0.0-10.0-0.23,61055020201a7da5a704f7dd,650c16f0f2faf8d7a0d14c09,651c1be23b9db8a0b84a2be7,null,null,"<p style=""font-size: 60px; font-family: BACS"">OJGQGUOA</p>",,,,,,,,,,
html-keyboard-response,113,272520,0.0-10.0-0.24,61055020201a7da5a704f7dd,650c16f0f2faf8d7a0d14c09,651c1be23b9db8a0b84a2be7,null,null,"<p style=""font-size: 60px; font-family: BACS"">mkmJNJUNa</p>",,,,,,,,,,
html-keyboard-response,114,273522,0.0-10.0-0.25,61055020201a7da5a704f7dd,650c16f0f2faf8d7a0d14c09,651c1be23b9db8a0b84a2be7,null,null,"<p style=""font-size: 60px; font-family: BACS"">NvuGruvJ</p>",,,,,,,,,,
html-keyboard-response,115,274524,0.0-10.0-0.26,61055020201a7da5a704f7dd,650c16f0f2faf8d7a0d14c09,651c1be23b9db8a0b84a2be7,null,null,"<p style=""font-size: 60px; font-family: BACS"">UaYLJUNa</p>",,,,,,,,,,
html-keyboard-response,116,275531,0.0-10.0-0.27,61055020201a7da5a704f7dd,650c16f0f2faf8d7a0d14c09,651c1be23b9db8a0b84a2be7,null,null,"<p style=""font-size: 60px; font-family: BACS"">tRdMPMd</p>",,,,,,,,,,
html-keyboard-response,117,276541,0.0-10.0-0.28,61055020201a7da5a704f7dd,650c16f0f2faf8d7a0d14c09,651c1be23b9db8a0b84a2be7,null,null,"<p style=""font-size: 60px; font-family: BACS"">RCcEkKE</p>",,,,,,,,,,
html-keyboard-response,118,277543,0.0-10.0-0.29,61055020201a7da5a704f7dd,650c16f0f2faf8d7a0d14c09,651c1be23b9db8a0b84a2be7,null,null,"<p style=""font-size: 60px; font-family: BACS"">PEtEYDTk</p>",,,,,,,,,,
html-keyboard-response,119,278544,0.0-10.0-0.30,61055020201a7da5a704f7dd,650c16f0f2faf8d7a0d14c09,651c1be23b9db8a0b84a2be7,null,null,"<p style=""font-size: 60px; font-family: BACS"">OJGQuvJ</p>",,,,,,,,,,
html-keyboard-response,120,279546,0.0-10.0-0.31,61055020201a7da5a704f7dd,650c16f0f2faf8d7a0d14c09,651c1be23b9db8a0b84a2be7,null,null,"<p style=""font-size: 60px; font-family: BACS"">ALGZJcUk</p>",,,,,,,,,,
html-keyboard-response,121,280547,0.0-10.0-0.32,61055020201a7da5a704f7dd,650c16f0f2faf8d7a0d14c09,651c1be23b9db8a0b84a2be7,null,null,"<p style=""font-size: 60px; font-family: BACS"">kZUbuvJ</p>",,,,,,,,,,
html-keyboard-response,122,281548,0.0-10.0-0.33,61055020201a7da5a704f7dd,650c16f0f2faf8d7a0d14c09,651c1be23b9db8a0b84a2be7,null,null,"<p style=""font-size: 60px; font-family: BACS"">DhMtkKE</p>",,,,,,,,,,
html-keyboard-response,123,282564,0.0-10.0-0.34,61055020201a7da5a704f7dd,650c16f0f2faf8d7a0d14c09,651c1be23b9db8a0b84a2be7,null,null,"<p style=""font-size: 60px; font-family: BACS"">kZUbGUOA</p>",,,,,,,,,,
html-keyboard-response,124,283565,0.0-10.0-0.35,61055020201a7da5a704f7dd,650c16f0f2faf8d7a0d14c09,651c1be23b9db8a0b84a2be7,null,null,"<p style=""font-size: 60px; font-family: BACS"">NvuGrJcUk</p>",,,,,,,,,,
html-keyboard-response,125,284566,0.0-10.0-0.36,61055020201a7da5a704f7dd,650c16f0f2faf8d7a0d14c09,651c1be23b9db8a0b84a2be7,null,null,"<p style=""font-size: 60px; font-family: BACS"">mkmJNkYL</p>",,,,,,,,,,
html-keyboard-response,126,285568,0.0-10.0-0.37,61055020201a7da5a704f7dd,650c16f0f2faf8d7a0d14c09,651c1be23b9db8a0b84a2be7,null,null,"<p style=""font-size: 60px; font-family: BACS"">PEtEkKE</p>",,,,,,,,,,
html-keyboard-response,127,286569,0.0-10.0-0.38,61055020201a7da5a704f7dd,650c16f0f2faf8d7a0d14c09,651c1be23b9db8a0b84a2be7,null,null,"<p style=""font-size: 60px; font-family: BACS"">UaYLkYL</p>",,,,,,,,,,
html-keyboard-response,128,287570,0.0-10.0-0.39,61055020201a7da5a704f7dd,650c16f0f2faf8d7a0d14c09,651c1be23b9db8a0b84a2be7,null,null,"<p style=""font-size: 60px; font-family: BACS"">MBmETPOM</p>",,,,,,,,,,
html-keyboard-response,129,288573,0.0-10.0-0.40,61055020201a7da5a704f7dd,650c16f0f2faf8d7a0d14c09,651c1be23b9db8a0b84a2be7,null,null,"<p style=""font-size: 60px; font-family: BACS"">MlthYDTk</p>",,,,,,,,,,
html-keyboard-response,130,289589,0.0-10.0-0.41,61055020201a7da5a704f7dd,650c16f0f2faf8d7a0d14c09,651c1be23b9db8a0b84a2be7,null,null,"<p style=""font-size: 60px; font-family: BACS"">RCcEPMd</p>",,,,,,,,,,
html-keyboard-response,131,290591,0.0-10.0-0.42,61055020201a7da5a704f7dd,650c16f0f2faf8d7a0d14c09,651c1be23b9db8a0b84a2be7,null,null,"<p style=""font-size: 60px; font-family: BACS"">rvOvUJcUk</p>",,,,,,,,,,
html-keyboard-response,132,291595,0.0-10.0-0.43,61055020201a7da5a704f7dd,650c16f0f2faf8d7a0d14c09,651c1be23b9db8a0b84a2be7,null,null,"<p style=""font-size: 60px; font-family: BACS"">OJGQkYL</p>",,,,,,,,,,
html-keyboard-response,133,292610,0.0-10.0-0.44,61055020201a7da5a704f7dd,650c16f0f2faf8d7a0d14c09,651c1be23b9db8a0b84a2be7,null,null,"<p style=""font-size: 60px; font-family: BACS"">ALGZGUOA</p>",,,,,,,,,,
html-keyboard-response,134,293613,0.0-10.0-0.45,61055020201a7da5a704f7dd,650c16f0f2faf8d7a0d14c09,651c1be23b9db8a0b84a2be7,null,null,"<p style=""font-size: 60px; font-family: BACS"">rvOvUuvJ</p>",,,,,,,,,,
html-keyboard-response,135,294622,0.0-10.0-0.46,61055020201a7da5a704f7dd,650c16f0f2faf8d7a0d14c09,651c1be23b9db8a0b84a2be7,null,null,"<p style=""font-size: 60px; font-family: BACS"">LuaUJcUk</p>",,,,,,,,,,
html-keyboard-response,136,295635,0.0-10.0-0.47,61055020201a7da5a704f7dd,650c16f0f2faf8d7a0d14c09,651c1be23b9db8a0b84a2be7,null,null,"<p style=""font-size: 60px; font-family: BACS"">ldAakYL</p>",,,,,,,,,,
html-keyboard-response,137,296636,0.0-10.0-0.48,61055020201a7da5a704f7dd,650c16f0f2faf8d7a0d14c09,651c1be23b9db8a0b84a2be7,null,null,"<p style=""font-size: 60px; font-family: BACS"">LuaUGUOA</p>",,,,,,,,,,
html-keyboard-response,138,297637,0.0-10.0-0.49,61055020201a7da5a704f7dd,650c16f0f2faf8d7a0d14c09,651c1be23b9db8a0b84a2be7,null,null,"<p style=""font-size: 60px; font-family: BACS"">MBmElMck</p>",,,,,,,,,,
html-keyboard-response,139,298638,0.0-10.0-0.50,61055020201a7da5a704f7dd,650c16f0f2faf8d7a0d14c09,651c1be23b9db8a0b84a2be7,null,null,"<p style=""font-size: 60px; font-family: BACS"">kNuaGUOA</p>",,,,,,,,,,
html-keyboard-response,140,299656,0.0-10.0-0.51,61055020201a7da5a704f7dd,650c16f0f2faf8d7a0d14c09,651c1be23b9db8a0b84a2be7,null,null,"<p style=""font-size: 60px; font-family: BACS"">RCcEYDTk</p>",,,,,,,,,,
html-keyboard-response,141,300657,0.0-10.0-0.52,61055020201a7da5a704f7dd,650c16f0f2faf8d7a0d14c09,651c1be23b9db8a0b84a2be7,null,null,"<p style=""font-size: 60px; font-family: BACS"">kNuakYL</p>",,,,,,,,,,
html-keyboard-response,142,301674,0.0-10.0-0.53,61055020201a7da5a704f7dd,650c16f0f2faf8d7a0d14c09,651c1be23b9db8a0b84a2be7,null,null,"<p style=""font-size: 60px; font-family: BACS"">RCcETPOM</p>",,,,,,,,,,
html-keyboard-response,143,302677,0.0-10.0-0.54,61055020201a7da5a704f7dd,650c16f0f2faf8d7a0d14c09,651c1be23b9db8a0b84a2be7,null,null,"<p style=""font-size: 60px; font-family: BACS"">kZUbJUNa</p>",,,,,,,,,,
html-keyboard-response,144,303678,0.0-10.0-0.55,61055020201a7da5a704f7dd,650c16f0f2faf8d7a0d14c09,651c1be23b9db8a0b84a2be7,null,null,"<p style=""font-size: 60px; font-family: BACS"">UaYLJcUk</p>",,,,,,,,,,
html-keyboard-response,145,304680,0.0-10.0-0.56,61055020201a7da5a704f7dd,650c16f0f2faf8d7a0d14c09,651c1be23b9db8a0b84a2be7,null,null,"<p style=""font-size: 60px; font-family: BACS"">PEtElMck</p>",,,,,,,,,,
html-keyboard-response,146,305681,0.0-10.0-0.57,61055020201a7da5a704f7dd,650c16f0f2faf8d7a0d14c09,651c1be23b9db8a0b84a2be7,null,null,"<p style=""font-size: 60px; font-family: BACS"">MlthTPOM</p>",,,,,,,,,,
html-keyboard-response,147,306683,0.0-10.0-0.58,61055020201a7da5a704f7dd,650c16f0f2faf8d7a0d14c09,651c1be23b9db8a0b84a2be7,null,null,"<p style=""font-size: 60px; font-family: BACS"">KElBYDTk</p>",,,,,,,,,,
html-keyboard-response,148,307686,0.0-10.0-0.59,61055020201a7da5a704f7dd,650c16f0f2faf8d7a0d14c09,651c1be23b9db8a0b84a2be7,null,null,"<p style=""font-size: 60px; font-family: BACS"">ldAaJcUk</p>",,,,,,,,,,
html-keyboard-response,149,308700,0.0-10.0-0.60,61055020201a7da5a704f7dd,650c16f0f2faf8d7a0d14c09,651c1be23b9db8a0b84a2be7,null,null,"<p style=""font-size: 60px; font-family: BACS"">PEtEPMd</p>",,,,,,,,,,
html-keyboard-response,150,309702,0.0-10.0-0.61,61055020201a7da5a704f7dd,650c16f0f2faf8d7a0d14c09,651c1be23b9db8a0b84a2be7,null,null,"<p style=""font-size: 60px; font-family: BACS"">tRdMlMck</p>",,,,,,,,,,
html-keyboard-response,151,310704,0.0-10.0-0.62,61055020201a7da5a704f7dd,650c16f0f2faf8d7a0d14c09,651c1be23b9db8a0b84a2be7,null,null,"<p style=""font-size: 60px; font-family: BACS"">MBmEPMd</p>",,,,,,,,,,
html-keyboard-response,152,311707,0.0-10.0-0.63,61055020201a7da5a704f7dd,650c16f0f2faf8d7a0d14c09,651c1be23b9db8a0b84a2be7,null,null,"<p style=""font-size: 60px; font-family: BACS"">mkmJNGUOA</p>",,,,,,,,,,
html-keyboard-response,153,312717,0.0-10.0-0.64,61055020201a7da5a704f7dd,650c16f0f2faf8d7a0d14c09,651c1be23b9db8a0b84a2be7,null,null,"<p style=""font-size: 60px; font-family: BACS"">TdTDTPOM</p>",,,,,,,,,,
html-keyboard-response,154,313728,0.0-10.0-0.65,61055020201a7da5a704f7dd,650c16f0f2faf8d7a0d14c09,651c1be23b9db8a0b84a2be7,null,null,"<p style=""font-size: 60px; font-family: BACS"">tRdMkKE</p>",,,,,,,,,,
html-keyboard-response,155,314745,0.0-10.0-0.66,61055020201a7da5a704f7dd,650c16f0f2faf8d7a0d14c09,651c1be23b9db8a0b84a2be7,null,null,"<p style=""font-size: 60px; font-family: BACS"">DhMtlMck</p>",,,,,,,,,,
html-keyboard-response,156,315748,0.0-10.0-0.67,61055020201a7da5a704f7dd,650c16f0f2faf8d7a0d14c09,651c1be23b9db8a0b84a2be7,null,null,"<p style=""font-size: 60px; font-family: BACS"">ldAaGUOA</p>",,,,,,,,,,
html-keyboard-response,157,316752,0.0-10.0-0.68,61055020201a7da5a704f7dd,650c16f0f2faf8d7a0d14c09,651c1be23b9db8a0b84a2be7,null,null,"<p style=""font-size: 60px; font-family: BACS"">MlthkKE</p>",,,,,,,,,,
html-keyboard-response,158,317756,0.0-10.0-0.69,61055020201a7da5a704f7dd,650c16f0f2faf8d7a0d14c09,651c1be23b9db8a0b84a2be7,null,null,"<p style=""font-size: 60px; font-family: BACS"">KElBPMd</p>",,,,,,,,,,
html-keyboard-response,159,318771,0.0-10.0-0.70,61055020201a7da5a704f7dd,650c16f0f2faf8d7a0d14c09,651c1be23b9db8a0b84a2be7,null,null,"<p style=""font-size: 60px; font-family: BACS"">BMEMAYDTk</p>",,,,,,,,,,
html-keyboard-response,160,319792,0.0-10.0-0.71,61055020201a7da5a704f7dd,650c16f0f2faf8d7a0d14c09,651c1be23b9db8a0b84a2be7,null,null,"<p style=""font-size: 60px; font-family: BACS"">OJGQJUNa</p>",,,,,,,,,,
html-keyboard-response,161,320794,0.0-10.0-0.72,61055020201a7da5a704f7dd,650c16f0f2faf8d7a0d14c09,651c1be23b9db8a0b84a2be7,null,null,"<p style=""font-size: 60px; font-family: BACS"">ALGZuvJ</p>",,,,,,,,,,
html-keyboard-response,162,321796,0.0-10.0-0.73,61055020201a7da5a704f7dd,650c16f0f2faf8d7a0d14c09,651c1be23b9db8a0b84a2be7,null,null,"<p style=""font-size: 60px; font-family: BACS"">MlthPMd</p>",,,,,,,,,,
html-keyboard-response,163,322798,0.0-10.0-0.74,61055020201a7da5a704f7dd,650c16f0f2faf8d7a0d14c09,651c1be23b9db8a0b84a2be7,null,null,"<p style=""font-size: 60px; font-family: BACS"">NvuGrGUOA</p>",,,,,,,,,,
html-keyboard-response,164,323814,0.0-10.0-0.75,61055020201a7da5a704f7dd,650c16f0f2faf8d7a0d14c09,651c1be23b9db8a0b84a2be7,null,null,"<p style=""font-size: 60px; font-family: BACS"">rvOvUJUNa</p>",,,,,,,,,,
html-keyboard-response,165,324816,0.0-10.0-0.76,61055020201a7da5a704f7dd,650c16f0f2faf8d7a0d14c09,651c1be23b9db8a0b84a2be7,null,null,"<p style=""font-size: 60px; font-family: BACS"">DhMtTPOM</p>",,,,,,,,,,
html-keyboard-response,166,325818,0.0-10.0-0.77,61055020201a7da5a704f7dd,650c16f0f2faf8d7a0d14c09,651c1be23b9db8a0b84a2be7,null,null,"<p style=""font-size: 60px; font-family: BACS"">mkmJNuvJ</p>",,,,,,,,,,
html-keyboard-response,167,326839,0.0-10.0-0.78,61055020201a7da5a704f7dd,650c16f0f2faf8d7a0d14c09,651c1be23b9db8a0b84a2be7,null,null,"<p style=""font-size: 60px; font-family: BACS"">LuaUkYL</p>",,,,,,,,,,
html-keyboard-response,168,327853,0.0-10.0-0.79,61055020201a7da5a704f7dd,650c16f0f2faf8d7a0d14c09,651c1be23b9db8a0b84a2be7,null,null,"<p style=""font-size: 60px; font-family: BACS"">kNuaJUNa</p>",,,,,,,,,,
html-keyboard-response,169,331866,0.0-11.0,61055020201a7da5a704f7dd,650c16f0f2faf8d7a0d14c09,651c1be23b9db8a0b84a2be7,4013, ,"<p>Great, you've seen the second block of words. You may now take a short break.</p>
      <p>Press the spacebar when you're ready to continue.</p>",,,,,,,,,,
html-keyboard-response,170,332876,0.0-12.0-0.0,61055020201a7da5a704f7dd,650c16f0f2faf8d7a0d14c09,651c1be23b9db8a0b84a2be7,null,null,"<p style=""font-size: 60px; font-family: BACS"">ldAaGUOA</p>",,,,,,,,,,
html-keyboard-response,171,333879,0.0-12.0-0.1,61055020201a7da5a704f7dd,650c16f0f2faf8d7a0d14c09,651c1be23b9db8a0b84a2be7,null,null,"<p style=""font-size: 60px; font-family: BACS"">OJGQuvJ</p>",,,,,,,,,,
html-keyboard-response,172,334895,0.0-12.0-0.2,61055020201a7da5a704f7dd,650c16f0f2faf8d7a0d14c09,651c1be23b9db8a0b84a2be7,null,null,"<p style=""font-size: 60px; font-family: BACS"">KElBPMd</p>",,,,,,,,,,
html-keyboard-response,173,335916,0.0-12.0-0.3,61055020201a7da5a704f7dd,650c16f0f2faf8d7a0d14c09,651c1be23b9db8a0b84a2be7,null,null,"<p style=""font-size: 60px; font-family: BACS"">MlthTPOM</p>",,,,,,,,,,
html-keyboard-response,174,336919,0.0-12.0-0.4,61055020201a7da5a704f7dd,650c16f0f2faf8d7a0d14c09,651c1be23b9db8a0b84a2be7,null,null,"<p style=""font-size: 60px; font-family: BACS"">LuaUkYL</p>",,,,,,,,,,
html-keyboard-response,175,337920,0.0-12.0-0.5,61055020201a7da5a704f7dd,650c16f0f2faf8d7a0d14c09,651c1be23b9db8a0b84a2be7,null,null,"<p style=""font-size: 60px; font-family: BACS"">UaYLJcUk</p>",,,,,,,,,,
html-keyboard-response,176,338927,0.0-12.0-0.6,61055020201a7da5a704f7dd,650c16f0f2faf8d7a0d14c09,651c1be23b9db8a0b84a2be7,null,null,"<p style=""font-size: 60px; font-family: BACS"">kNuaGUOA</p>",,,,,,,,,,
html-keyboard-response,177,339944,0.0-12.0-0.7,61055020201a7da5a704f7dd,650c16f0f2faf8d7a0d14c09,651c1be23b9db8a0b84a2be7,null,null,"<p style=""font-size: 60px; font-family: BACS"">UaYLkYL</p>",,,,,,,,,,
html-keyboard-response,178,340945,0.0-12.0-0.8,61055020201a7da5a704f7dd,650c16f0f2faf8d7a0d14c09,651c1be23b9db8a0b84a2be7,null,null,"<p style=""font-size: 60px; font-family: BACS"">ALGZJcUk</p>",,,,,,,,,,
html-keyboard-response,179,341962,0.0-12.0-0.9,61055020201a7da5a704f7dd,650c16f0f2faf8d7a0d14c09,651c1be23b9db8a0b84a2be7,null,null,"<p style=""font-size: 60px; font-family: BACS"">NvuGrGUOA</p>",,,,,,,,,,
html-keyboard-response,180,342964,0.0-12.0-0.10,61055020201a7da5a704f7dd,650c16f0f2faf8d7a0d14c09,651c1be23b9db8a0b84a2be7,null,null,"<p style=""font-size: 60px; font-family: BACS"">DhMtTPOM</p>",,,,,,,,,,
html-keyboard-response,181,343980,0.0-12.0-0.11,61055020201a7da5a704f7dd,650c16f0f2faf8d7a0d14c09,651c1be23b9db8a0b84a2be7,null,null,"<p style=""font-size: 60px; font-family: BACS"">MlthYDTk</p>",,,,,,,,,,
html-keyboard-response,182,344988,0.0-12.0-0.12,61055020201a7da5a704f7dd,650c16f0f2faf8d7a0d14c09,651c1be23b9db8a0b84a2be7,null,null,"<p style=""font-size: 60px; font-family: BACS"">mkmJNuvJ</p>",,,,,,,,,,
html-keyboard-response,183,346004,0.0-12.0-0.13,61055020201a7da5a704f7dd,650c16f0f2faf8d7a0d14c09,651c1be23b9db8a0b84a2be7,null,null,"<p style=""font-size: 60px; font-family: BACS"">DhMtkKE</p>",,,,,,,,,,
html-keyboard-response,184,347020,0.0-12.0-0.14,61055020201a7da5a704f7dd,650c16f0f2faf8d7a0d14c09,651c1be23b9db8a0b84a2be7,null,null,"<p style=""font-size: 60px; font-family: BACS"">mkmJNkYL</p>",,,,,,,,,,
html-keyboard-response,185,348039,0.0-12.0-0.15,61055020201a7da5a704f7dd,650c16f0f2faf8d7a0d14c09,651c1be23b9db8a0b84a2be7,null,null,"<p style=""font-size: 60px; font-family: BACS"">ODBDAYDTk</p>",,,,,,,,,,
html-keyboard-response,186,349040,0.0-12.0-0.16,61055020201a7da5a704f7dd,650c16f0f2faf8d7a0d14c09,651c1be23b9db8a0b84a2be7,null,null,"<p style=""font-size: 60px; font-family: BACS"">rvOvUkYL</p>",,,,,,,,,,
html-keyboard-response,187,350042,0.0-12.0-0.17,61055020201a7da5a704f7dd,650c16f0f2faf8d7a0d14c09,651c1be23b9db8a0b84a2be7,null,null,"<p style=""font-size: 60px; font-family: BACS"">KElBTPOM</p>",,,,,,,,,,
html-keyboard-response,188,351043,0.0-12.0-0.18,61055020201a7da5a704f7dd,650c16f0f2faf8d7a0d14c09,651c1be23b9db8a0b84a2be7,null,null,"<p style=""font-size: 60px; font-family: BACS"">UaYLuvJ</p>",,,,,,,,,,
html-keyboard-response,189,352045,0.0-12.0-0.19,61055020201a7da5a704f7dd,650c16f0f2faf8d7a0d14c09,651c1be23b9db8a0b84a2be7,null,null,"<p style=""font-size: 60px; font-family: BACS"">LuaUGUOA</p>",,,,,,,,,,
html-keyboard-response,190,353062,0.0-12.0-0.20,61055020201a7da5a704f7dd,650c16f0f2faf8d7a0d14c09,651c1be23b9db8a0b84a2be7,null,null,"<p style=""font-size: 60px; font-family: BACS"">ODBDATPOM</p>",,,,,,,,,,
html-keyboard-response,191,354063,0.0-12.0-0.21,61055020201a7da5a704f7dd,650c16f0f2faf8d7a0d14c09,651c1be23b9db8a0b84a2be7,null,null,"<p style=""font-size: 60px; font-family: BACS"">LuaUuvJ</p>",,,,,,,,,,
html-keyboard-response,192,355067,0.0-12.0-0.22,61055020201a7da5a704f7dd,650c16f0f2faf8d7a0d14c09,651c1be23b9db8a0b84a2be7,null,null,"<p style=""font-size: 60px; font-family: BACS"">KElBYDTk</p>",,,,,,,,,,
html-keyboard-response,193,356089,0.0-12.0-0.23,61055020201a7da5a704f7dd,650c16f0f2faf8d7a0d14c09,651c1be23b9db8a0b84a2be7,null,null,"<p style=""font-size: 60px; font-family: BACS"">ldAakYL</p>",,,,,,,,,,
html-keyboard-response,194,357099,0.0-12.0-0.24,61055020201a7da5a704f7dd,650c16f0f2faf8d7a0d14c09,651c1be23b9db8a0b84a2be7,null,null,"<p style=""font-size: 60px; font-family: BACS"">MBmElMck</p>",,,,,,,,,,
html-keyboard-response,195,358100,0.0-12.0-0.25,61055020201a7da5a704f7dd,650c16f0f2faf8d7a0d14c09,651c1be23b9db8a0b84a2be7,null,null,"<p style=""font-size: 60px; font-family: BACS"">OJGQJUNa</p>",,,,,,,,,,
html-keyboard-response,196,359102,0.0-12.0-0.26,61055020201a7da5a704f7dd,650c16f0f2faf8d7a0d14c09,651c1be23b9db8a0b84a2be7,null,null,"<p style=""font-size: 60px; font-family: BACS"">tRdMPMd</p>",,,,,,,,,,
html-keyboard-response,197,360119,0.0-12.0-0.27,61055020201a7da5a704f7dd,650c16f0f2faf8d7a0d14c09,651c1be23b9db8a0b84a2be7,null,null,"<p style=""font-size: 60px; font-family: BACS"">kNuakYL</p>",,,,,,,,,,
html-keyboard-response,198,361127,0.0-12.0-0.28,61055020201a7da5a704f7dd,650c16f0f2faf8d7a0d14c09,651c1be23b9db8a0b84a2be7,null,null,"<p style=""font-size: 60px; font-family: BACS"">RCcEkKE</p>",,,,,,,,,,
html-keyboard-response,199,362141,0.0-12.0-0.29,61055020201a7da5a704f7dd,650c16f0f2faf8d7a0d14c09,651c1be23b9db8a0b84a2be7,null,null,"<p style=""font-size: 60px; font-family: BACS"">ALGZkYL</p>",,,,,,,,,,
html-keyboard-response,200,363143,0.0-12.0-0.30,61055020201a7da5a704f7dd,650c16f0f2faf8d7a0d14c09,651c1be23b9db8a0b84a2be7,null,null,"<p style=""font-size: 60px; font-family: BACS"">PEtEkKE</p>",,,,,,,,,,
html-keyboard-response,201,364164,0.0-12.0-0.31,61055020201a7da5a704f7dd,650c16f0f2faf8d7a0d14c09,651c1be23b9db8a0b84a2be7,null,null,"<p style=""font-size: 60px; font-family: BACS"">kZUbGUOA</p>",,,,,,,,,,
html-keyboard-response,202,365165,0.0-12.0-0.32,61055020201a7da5a704f7dd,650c16f0f2faf8d7a0d14c09,651c1be23b9db8a0b84a2be7,null,null,"<p style=""font-size: 60px; font-family: BACS"">BMEMAlMck</p>",,,,,,,,,,
html-keyboard-response,203,366183,0.0-12.0-0.33,61055020201a7da5a704f7dd,650c16f0f2faf8d7a0d14c09,651c1be23b9db8a0b84a2be7,null,null,"<p style=""font-size: 60px; font-family: BACS"">MBmEkKE</p>",,,,,,,,,,
html-keyboard-response,204,367198,0.0-12.0-0.34,61055020201a7da5a704f7dd,650c16f0f2faf8d7a0d14c09,651c1be23b9db8a0b84a2be7,null,null,"<p style=""font-size: 60px; font-family: BACS"">ALGZuvJ</p>",,,,,,,,,,
html-keyboard-response,205,368202,0.0-12.0-0.35,61055020201a7da5a704f7dd,650c16f0f2faf8d7a0d14c09,651c1be23b9db8a0b84a2be7,null,null,"<p style=""font-size: 60px; font-family: BACS"">MlthkKE</p>",,,,,,,,,,
html-keyboard-response,206,369218,0.0-12.0-0.36,61055020201a7da5a704f7dd,650c16f0f2faf8d7a0d14c09,651c1be23b9db8a0b84a2be7,null,null,"<p style=""font-size: 60px; font-family: BACS"">NvuGrJcUk</p>",,,,,,,,,,
html-keyboard-response,207,370231,0.0-12.0-0.37,61055020201a7da5a704f7dd,650c16f0f2faf8d7a0d14c09,651c1be23b9db8a0b84a2be7,null,null,"<p style=""font-size: 60px; font-family: BACS"">KElBlMck</p>",,,,,,,,,,
html-keyboard-response,208,371238,0.0-12.0-0.38,61055020201a7da5a704f7dd,650c16f0f2faf8d7a0d14c09,651c1be23b9db8a0b84a2be7,null,null,"<p style=""font-size: 60px; font-family: BACS"">BMEMATPOM</p>",,,,,,,,,,
html-keyboard-response,209,372257,0.0-12.0-0.39,61055020201a7da5a704f7dd,650c16f0f2faf8d7a0d14c09,651c1be23b9db8a0b84a2be7,null,null,"<p style=""font-size: 60px; font-family: BACS"">PEtElMck</p>",,,,,,,,,,
html-keyboard-response,210,373276,0.0-12.0-0.40,61055020201a7da5a704f7dd,650c16f0f2faf8d7a0d14c09,651c1be23b9db8a0b84a2be7,null,null,"<p style=""font-size: 60px; font-family: BACS"">NvuGruvJ</p>",,,,,,,,,,
html-keyboard-response,211,374289,0.0-12.0-0.41,61055020201a7da5a704f7dd,650c16f0f2faf8d7a0d14c09,651c1be23b9db8a0b84a2be7,null,null,"<p style=""font-size: 60px; font-family: BACS"">DhMtlMck</p>",,,,,,,,,,
html-keyboard-response,212,375294,0.0-12.0-0.42,61055020201a7da5a704f7dd,650c16f0f2faf8d7a0d14c09,651c1be23b9db8a0b84a2be7,null,null,"<p style=""font-size: 60px; font-family: BACS"">TdTDTPOM</p>",,,,,,,,,,
html-keyboard-response,213,376296,0.0-12.0-0.43,61055020201a7da5a704f7dd,650c16f0f2faf8d7a0d14c09,651c1be23b9db8a0b84a2be7,null,null,"<p style=""font-size: 60px; font-family: BACS"">OJGQkYL</p>",,,,,,,,,,
html-keyboard-response,214,377324,0.0-12.0-0.44,61055020201a7da5a704f7dd,650c16f0f2faf8d7a0d14c09,651c1be23b9db8a0b84a2be7,null,null,"<p style=""font-size: 60px; font-family: BACS"">PEtEYDTk</p>",,,,,,,,,,
html-keyboard-response,215,378328,0.0-12.0-0.45,61055020201a7da5a704f7dd,650c16f0f2faf8d7a0d14c09,651c1be23b9db8a0b84a2be7,null,null,"<p style=""font-size: 60px; font-family: BACS"">rvOvUuvJ</p>",,,,,,,,,,
html-keyboard-response,216,379331,0.0-12.0-0.46,61055020201a7da5a704f7dd,650c16f0f2faf8d7a0d14c09,651c1be23b9db8a0b84a2be7,null,null,"<p style=""font-size: 60px; font-family: BACS"">MlthPMd</p>",,,,,,,,,,
html-keyboard-response,217,380334,0.0-12.0-0.47,61055020201a7da5a704f7dd,650c16f0f2faf8d7a0d14c09,651c1be23b9db8a0b84a2be7,null,null,"<p style=""font-size: 60px; font-family: BACS"">ldAaJUNa</p>",,,,,,,,,,
html-keyboard-response,218,381340,0.0-12.0-0.48,61055020201a7da5a704f7dd,650c16f0f2faf8d7a0d14c09,651c1be23b9db8a0b84a2be7,null,null,"<p style=""font-size: 60px; font-family: BACS"">OJGQGUOA</p>",,,,,,,,,,
html-keyboard-response,219,382354,0.0-12.0-0.49,61055020201a7da5a704f7dd,650c16f0f2faf8d7a0d14c09,651c1be23b9db8a0b84a2be7,null,null,"<p style=""font-size: 60px; font-family: BACS"">TdTDYDTk</p>",,,,,,,,,,
html-keyboard-response,220,383356,0.0-12.0-0.50,61055020201a7da5a704f7dd,650c16f0f2faf8d7a0d14c09,651c1be23b9db8a0b84a2be7,null,null,"<p style=""font-size: 60px; font-family: BACS"">MBmEPMd</p>",,,,,,,,,,
html-keyboard-response,221,384358,0.0-12.0-0.51,61055020201a7da5a704f7dd,650c16f0f2faf8d7a0d14c09,651c1be23b9db8a0b84a2be7,null,null,"<p style=""font-size: 60px; font-family: BACS"">tRdMlMck</p>",,,,,,,,,,
html-keyboard-response,222,385374,0.0-12.0-0.52,61055020201a7da5a704f7dd,650c16f0f2faf8d7a0d14c09,651c1be23b9db8a0b84a2be7,null,null,"<p style=""font-size: 60px; font-family: BACS"">RCcEYDTk</p>",,,,,,,,,,
html-keyboard-response,223,386394,0.0-12.0-0.53,61055020201a7da5a704f7dd,650c16f0f2faf8d7a0d14c09,651c1be23b9db8a0b84a2be7,null,null,"<p style=""font-size: 60px; font-family: BACS"">ODBDAlMck</p>",,,,,,,,,,
html-keyboard-response,224,387396,0.0-12.0-0.54,61055020201a7da5a704f7dd,650c16f0f2faf8d7a0d14c09,651c1be23b9db8a0b84a2be7,null,null,"<p style=""font-size: 60px; font-family: BACS"">RCcEPMd</p>",,,,,,,,,,
html-keyboard-response,225,388399,0.0-12.0-0.55,61055020201a7da5a704f7dd,650c16f0f2faf8d7a0d14c09,651c1be23b9db8a0b84a2be7,null,null,"<p style=""font-size: 60px; font-family: BACS"">tRdMYDTk</p>",,,,,,,,,,
html-keyboard-response,226,389400,0.0-12.0-0.56,61055020201a7da5a704f7dd,650c16f0f2faf8d7a0d14c09,651c1be23b9db8a0b84a2be7,null,null,"<p style=""font-size: 60px; font-family: BACS"">ALGZGUOA</p>",,,,,,,,,,
html-keyboard-response,227,390402,0.0-12.0-0.57,61055020201a7da5a704f7dd,650c16f0f2faf8d7a0d14c09,651c1be23b9db8a0b84a2be7,null,null,"<p style=""font-size: 60px; font-family: BACS"">kZUbJUNa</p>",,,,,,,,,,
html-keyboard-response,228,391403,0.0-12.0-0.58,61055020201a7da5a704f7dd,650c16f0f2faf8d7a0d14c09,651c1be23b9db8a0b84a2be7,null,null,"<p style=""font-size: 60px; font-family: BACS"">tRdMkKE</p>",,,,,,,,,,
html-keyboard-response,229,392405,0.0-12.0-0.59,61055020201a7da5a704f7dd,650c16f0f2faf8d7a0d14c09,651c1be23b9db8a0b84a2be7,null,null,"<p style=""font-size: 60px; font-family: BACS"">TdTDlMck</p>",,,,,,,,,,
html-keyboard-response,230,393407,0.0-12.0-0.60,61055020201a7da5a704f7dd,650c16f0f2faf8d7a0d14c09,651c1be23b9db8a0b84a2be7,null,null,"<p style=""font-size: 60px; font-family: BACS"">PEtEPMd</p>",,,,,,,,,,
html-keyboard-response,231,394408,0.0-12.0-0.61,61055020201a7da5a704f7dd,650c16f0f2faf8d7a0d14c09,651c1be23b9db8a0b84a2be7,null,null,"<p style=""font-size: 60px; font-family: BACS"">mkmJNGUOA</p>",,,,,,,,,,
html-keyboard-response,232,395409,0.0-12.0-0.62,61055020201a7da5a704f7dd,650c16f0f2faf8d7a0d14c09,651c1be23b9db8a0b84a2be7,null,null,"<p style=""font-size: 60px; font-family: BACS"">RCcETPOM</p>",,,,,,,,,,
html-keyboard-response,233,396410,0.0-12.0-0.63,61055020201a7da5a704f7dd,650c16f0f2faf8d7a0d14c09,651c1be23b9db8a0b84a2be7,null,null,"<p style=""font-size: 60px; font-family: BACS"">BMEMAPMd</p>",,,,,,,,,,
html-keyboard-response,234,397411,0.0-12.0-0.64,61055020201a7da5a704f7dd,650c16f0f2faf8d7a0d14c09,651c1be23b9db8a0b84a2be7,null,null,"<p style=""font-size: 60px; font-family: BACS"">rvOvUJUNa</p>",,,,,,,,,,
html-keyboard-response,235,398412,0.0-12.0-0.65,61055020201a7da5a704f7dd,650c16f0f2faf8d7a0d14c09,651c1be23b9db8a0b84a2be7,null,null,"<p style=""font-size: 60px; font-family: BACS"">BMEMAYDTk</p>",,,,,,,,,,
html-keyboard-response,236,399429,0.0-12.0-0.66,61055020201a7da5a704f7dd,650c16f0f2faf8d7a0d14c09,651c1be23b9db8a0b84a2be7,null,null,"<p style=""font-size: 60px; font-family: BACS"">kNuaJUNa</p>",,,,,,,,,,
html-keyboard-response,237,400432,0.0-12.0-0.67,61055020201a7da5a704f7dd,650c16f0f2faf8d7a0d14c09,651c1be23b9db8a0b84a2be7,null,null,"<p style=""font-size: 60px; font-family: BACS"">rvOvUJcUk</p>",,,,,,,,,,
html-keyboard-response,238,401433,0.0-12.0-0.68,61055020201a7da5a704f7dd,650c16f0f2faf8d7a0d14c09,651c1be23b9db8a0b84a2be7,null,null,"<p style=""font-size: 60px; font-family: BACS"">mkmJNJUNa</p>",,,,,,,,,,
html-keyboard-response,239,402436,0.0-12.0-0.69,61055020201a7da5a704f7dd,650c16f0f2faf8d7a0d14c09,651c1be23b9db8a0b84a2be7,null,null,"<p style=""font-size: 60px; font-family: BACS"">LuaUJcUk</p>",,,,,,,,,,
html-keyboard-response,240,403437,0.0-12.0-0.70,61055020201a7da5a704f7dd,650c16f0f2faf8d7a0d14c09,651c1be23b9db8a0b84a2be7,null,null,"<p style=""font-size: 60px; font-family: BACS"">TdTDkKE</p>",,,,,,,,,,
html-keyboard-response,241,404439,0.0-12.0-0.71,61055020201a7da5a704f7dd,650c16f0f2faf8d7a0d14c09,651c1be23b9db8a0b84a2be7,null,null,"<p style=""font-size: 60px; font-family: BACS"">kNuaJcUk</p>",,,,,,,,,,
html-keyboard-response,242,405441,0.0-12.0-0.72,61055020201a7da5a704f7dd,650c16f0f2faf8d7a0d14c09,651c1be23b9db8a0b84a2be7,null,null,"<p style=""font-size: 60px; font-family: BACS"">ODBDAkKE</p>",,,,,,,,,,
html-keyboard-response,243,406443,0.0-12.0-0.73,61055020201a7da5a704f7dd,650c16f0f2faf8d7a0d14c09,651c1be23b9db8a0b84a2be7,null,null,"<p style=""font-size: 60px; font-family: BACS"">DhMtPMd</p>",,,,,,,,,,
html-keyboard-response,244,407444,0.0-12.0-0.74,61055020201a7da5a704f7dd,650c16f0f2faf8d7a0d14c09,651c1be23b9db8a0b84a2be7,null,null,"<p style=""font-size: 60px; font-family: BACS"">UaYLJUNa</p>",,,,,,,,,,
html-keyboard-response,245,408445,0.0-12.0-0.75,61055020201a7da5a704f7dd,650c16f0f2faf8d7a0d14c09,651c1be23b9db8a0b84a2be7,null,null,"<p style=""font-size: 60px; font-family: BACS"">kZUbuvJ</p>",,,,,,,,,,
html-keyboard-response,246,409446,0.0-12.0-0.76,61055020201a7da5a704f7dd,650c16f0f2faf8d7a0d14c09,651c1be23b9db8a0b84a2be7,null,null,"<p style=""font-size: 60px; font-family: BACS"">ldAaJcUk</p>",,,,,,,,,,
html-keyboard-response,247,410448,0.0-12.0-0.77,61055020201a7da5a704f7dd,650c16f0f2faf8d7a0d14c09,651c1be23b9db8a0b84a2be7,null,null,"<p style=""font-size: 60px; font-family: BACS"">NvuGrJUNa</p>",,,,,,,,,,
html-keyboard-response,248,411450,0.0-12.0-0.78,61055020201a7da5a704f7dd,650c16f0f2faf8d7a0d14c09,651c1be23b9db8a0b84a2be7,null,null,"<p style=""font-size: 60px; font-family: BACS"">kZUbJcUk</p>",,,,,,,,,,
html-keyboard-response,249,412474,0.0-12.0-0.79,61055020201a7da5a704f7dd,650c16f0f2faf8d7a0d14c09,651c1be23b9db8a0b84a2be7,null,null,"<p style=""font-size: 60px; font-family: BACS"">MBmETPOM</p>",,,,,,,,,,
html-keyboard-response,250,424421,0.0-13.0,61055020201a7da5a704f7dd,650c16f0f2faf8d7a0d14c09,651c1be23b9db8a0b84a2be7,11946, ,"<p>Great, you've seen the third block of words. You may now take a short break.</p>
      <p>Press the spacebar when you're ready to continue.</p>",,,,,,,,,,
html-keyboard-response,251,425427,0.0-14.0-0.0,61055020201a7da5a704f7dd,650c16f0f2faf8d7a0d14c09,651c1be23b9db8a0b84a2be7,null,null,"<p style=""font-size: 60px; font-family: BACS"">PEtEkKE</p>",,,,,,,,,,
html-keyboard-response,252,426430,0.0-14.0-0.1,61055020201a7da5a704f7dd,650c16f0f2faf8d7a0d14c09,651c1be23b9db8a0b84a2be7,null,null,"<p style=""font-size: 60px; font-family: BACS"">rvOvUJUNa</p>",,,,,,,,,,
html-keyboard-response,253,427433,0.0-14.0-0.2,61055020201a7da5a704f7dd,650c16f0f2faf8d7a0d14c09,651c1be23b9db8a0b84a2be7,null,null,"<p style=""font-size: 60px; font-family: BACS"">ODBDAlMck</p>",,,,,,,,,,
html-keyboard-response,254,428440,0.0-14.0-0.3,61055020201a7da5a704f7dd,650c16f0f2faf8d7a0d14c09,651c1be23b9db8a0b84a2be7,null,null,"<p style=""font-size: 60px; font-family: BACS"">MlthPMd</p>",,,,,,,,,,
html-keyboard-response,255,429450,0.0-14.0-0.4,61055020201a7da5a704f7dd,650c16f0f2faf8d7a0d14c09,651c1be23b9db8a0b84a2be7,null,null,"<p style=""font-size: 60px; font-family: BACS"">NvuGrJcUk</p>",,,,,,,,,,
html-keyboard-response,256,430479,0.0-14.0-0.5,61055020201a7da5a704f7dd,650c16f0f2faf8d7a0d14c09,651c1be23b9db8a0b84a2be7,null,null,"<p style=""font-size: 60px; font-family: BACS"">kZUbJUNa</p>",,,,,,,,,,
html-keyboard-response,257,431500,0.0-14.0-0.6,61055020201a7da5a704f7dd,650c16f0f2faf8d7a0d14c09,651c1be23b9db8a0b84a2be7,null,null,"<p style=""font-size: 60px; font-family: BACS"">tRdMlMck</p>",,,,,,,,,,
html-keyboard-response,258,432512,0.0-14.0-0.7,61055020201a7da5a704f7dd,650c16f0f2faf8d7a0d14c09,651c1be23b9db8a0b84a2be7,null,null,"<p style=""font-size: 60px; font-family: BACS"">KElBPMd</p>",,,,,,,,,,
html-keyboard-response,259,433524,0.0-14.0-0.8,61055020201a7da5a704f7dd,650c16f0f2faf8d7a0d14c09,651c1be23b9db8a0b84a2be7,null,null,"<p style=""font-size: 60px; font-family: BACS"">UaYLkYL</p>",,,,,,,,,,
html-keyboard-response,260,434546,0.0-14.0-0.9,61055020201a7da5a704f7dd,650c16f0f2faf8d7a0d14c09,651c1be23b9db8a0b84a2be7,null,null,"<p style=""font-size: 60px; font-family: BACS"">DhMtkKE</p>",,,,,,,,,,
html-keyboard-response,261,435572,0.0-14.0-0.10,61055020201a7da5a704f7dd,650c16f0f2faf8d7a0d14c09,651c1be23b9db8a0b84a2be7,null,null,"<p style=""font-size: 60px; font-family: BACS"">ldAakYL</p>",,,,,,,,,,
html-keyboard-response,262,436585,0.0-14.0-0.11,61055020201a7da5a704f7dd,650c16f0f2faf8d7a0d14c09,651c1be23b9db8a0b84a2be7,null,null,"<p style=""font-size: 60px; font-family: BACS"">TdTDlMck</p>",,,,,,,,,,
html-keyboard-response,263,437611,0.0-14.0-0.12,61055020201a7da5a704f7dd,650c16f0f2faf8d7a0d14c09,651c1be23b9db8a0b84a2be7,null,null,"<p style=""font-size: 60px; font-family: BACS"">tRdMPMd</p>",,,,,,,,,,
html-keyboard-response,264,438633,0.0-14.0-0.13,61055020201a7da5a704f7dd,650c16f0f2faf8d7a0d14c09,651c1be23b9db8a0b84a2be7,null,null,"<p style=""font-size: 60px; font-family: BACS"">ODBDATPOM</p>",,,,,,,,,,
html-keyboard-response,265,439650,0.0-14.0-0.14,61055020201a7da5a704f7dd,650c16f0f2faf8d7a0d14c09,651c1be23b9db8a0b84a2be7,null,null,"<p style=""font-size: 60px; font-family: BACS"">NvuGruvJ</p>",,,,,,,,,,
html-keyboard-response,266,440669,0.0-14.0-0.15,61055020201a7da5a704f7dd,650c16f0f2faf8d7a0d14c09,651c1be23b9db8a0b84a2be7,null,null,"<p style=""font-size: 60px; font-family: BACS"">KElBYDTk</p>",,,,,,,,,,
html-keyboard-response,267,441696,0.0-14.0-0.16,61055020201a7da5a704f7dd,650c16f0f2faf8d7a0d14c09,651c1be23b9db8a0b84a2be7,null,null,"<p style=""font-size: 60px; font-family: BACS"">RCcEkKE</p>",,,,,,,,,,
html-keyboard-response,268,442705,0.0-14.0-0.17,61055020201a7da5a704f7dd,650c16f0f2faf8d7a0d14c09,651c1be23b9db8a0b84a2be7,null,null,"<p style=""font-size: 60px; font-family: BACS"">kNuaJUNa</p>",,,,,,,,,,
html-keyboard-response,269,443736,0.0-14.0-0.18,61055020201a7da5a704f7dd,650c16f0f2faf8d7a0d14c09,651c1be23b9db8a0b84a2be7,null,null,"<p style=""font-size: 60px; font-family: BACS"">PEtElMck</p>",,,,,,,,,,
html-keyboard-response,270,444747,0.0-14.0-0.19,61055020201a7da5a704f7dd,650c16f0f2faf8d7a0d14c09,651c1be23b9db8a0b84a2be7,null,null,"<p style=""font-size: 60px; font-family: BACS"">LuaUuvJ</p>",,,,,,,,,,
html-keyboard-response,271,445778,0.0-14.0-0.20,61055020201a7da5a704f7dd,650c16f0f2faf8d7a0d14c09,651c1be23b9db8a0b84a2be7,null,null,"<p style=""font-size: 60px; font-family: BACS"">ALGZGUOA</p>",,,,,,,,,,
html-keyboard-response,272,446795,0.0-14.0-0.21,61055020201a7da5a704f7dd,650c16f0f2faf8d7a0d14c09,651c1be23b9db8a0b84a2be7,null,null,"<p style=""font-size: 60px; font-family: BACS"">UaYLJcUk</p>",,,,,,,,,,
html-keyboard-response,273,447823,0.0-14.0-0.22,61055020201a7da5a704f7dd,650c16f0f2faf8d7a0d14c09,651c1be23b9db8a0b84a2be7,null,null,"<p style=""font-size: 60px; font-family: BACS"">mkmJNuvJ</p>",,,,,,,,,,
html-keyboard-response,274,448860,0.0-14.0-0.23,61055020201a7da5a704f7dd,650c16f0f2faf8d7a0d14c09,651c1be23b9db8a0b84a2be7,null,null,"<p style=""font-size: 60px; font-family: BACS"">ODBDAkKE</p>",,,,,,,,,,
html-keyboard-response,275,449888,0.0-14.0-0.24,61055020201a7da5a704f7dd,650c16f0f2faf8d7a0d14c09,651c1be23b9db8a0b84a2be7,null,null,"<p style=""font-size: 60px; font-family: BACS"">MlthTPOM</p>",,,,,,,,,,
html-keyboard-response,276,450905,0.0-14.0-0.25,61055020201a7da5a704f7dd,650c16f0f2faf8d7a0d14c09,651c1be23b9db8a0b84a2be7,null,null,"<p style=""font-size: 60px; font-family: BACS"">TdTDkKE</p>",,,,,,,,,,
html-keyboard-response,277,451926,0.0-14.0-0.26,61055020201a7da5a704f7dd,650c16f0f2faf8d7a0d14c09,651c1be23b9db8a0b84a2be7,null,null,"<p style=""font-size: 60px; font-family: BACS"">OJGQuvJ</p>",,,,,,,,,,
html-keyboard-response,278,452943,0.0-14.0-0.27,61055020201a7da5a704f7dd,650c16f0f2faf8d7a0d14c09,651c1be23b9db8a0b84a2be7,null,null,"<p style=""font-size: 60px; font-family: BACS"">KElBlMck</p>",,,,,,,,,,
html-keyboard-response,279,453964,0.0-14.0-0.28,61055020201a7da5a704f7dd,650c16f0f2faf8d7a0d14c09,651c1be23b9db8a0b84a2be7,null,null,"<p style=""font-size: 60px; font-family: BACS"">kNuakYL</p>",,,,,,,,,,
html-keyboard-response,280,454976,0.0-14.0-0.29,61055020201a7da5a704f7dd,650c16f0f2faf8d7a0d14c09,651c1be23b9db8a0b84a2be7,null,null,"<p style=""font-size: 60px; font-family: BACS"">RCcEPMd</p>",,,,,,,,,,
html-keyboard-response,281,456009,0.0-14.0-0.30,61055020201a7da5a704f7dd,650c16f0f2faf8d7a0d14c09,651c1be23b9db8a0b84a2be7,null,null,"<p style=""font-size: 60px; font-family: BACS"">rvOvUuvJ</p>",,,,,,,,,,
html-keyboard-response,282,457028,0.0-14.0-0.31,61055020201a7da5a704f7dd,650c16f0f2faf8d7a0d14c09,651c1be23b9db8a0b84a2be7,null,null,"<p style=""font-size: 60px; font-family: BACS"">DhMtlMck</p>",,,,,,,,,,
html-keyboard-response,283,458057,0.0-14.0-0.32,61055020201a7da5a704f7dd,650c16f0f2faf8d7a0d14c09,651c1be23b9db8a0b84a2be7,null,null,"<p style=""font-size: 60px; font-family: BACS"">MlthYDTk</p>",,,,,,,,,,
html-keyboard-response,284,459089,0.0-14.0-0.33,61055020201a7da5a704f7dd,650c16f0f2faf8d7a0d14c09,651c1be23b9db8a0b84a2be7,null,null,"<p style=""font-size: 60px; font-family: BACS"">DhMtTPOM</p>",,,,,,,,,,
html-keyboard-response,285,460998,0.0-14.0-0.34,61055020201a7da5a704f7dd,650c16f0f2faf8d7a0d14c09,651c1be23b9db8a0b84a2be7,null,null,"<p style=""font-size: 60px; font-family: BACS"">ALGZJcUk</p>",,,,,,,,,,
html-keyboard-response,286,462984,0.0-14.0-0.35,61055020201a7da5a704f7dd,650c16f0f2faf8d7a0d14c09,651c1be23b9db8a0b84a2be7,null,null,"<p style=""font-size: 60px; font-family: BACS"">MBmEPMd</p>",,,,,,,,,,
html-keyboard-response,287,463992,0.0-14.0-0.36,61055020201a7da5a704f7dd,650c16f0f2faf8d7a0d14c09,651c1be23b9db8a0b84a2be7,null,null,"<p style=""font-size: 60px; font-family: BACS"">tRdMkKE</p>",,,,,,,,,,
html-keyboard-response,288,465991,0.0-14.0-0.37,61055020201a7da5a704f7dd,650c16f0f2faf8d7a0d14c09,651c1be23b9db8a0b84a2be7,null,null,"<p style=""font-size: 60px; font-family: BACS"">OJGQJUNa</p>",,,,,,,,,,
html-keyboard-response,289,466996,0.0-14.0-0.38,61055020201a7da5a704f7dd,650c16f0f2faf8d7a0d14c09,651c1be23b9db8a0b84a2be7,null,null,"<p style=""font-size: 60px; font-family: BACS"">kZUbGUOA</p>",,,,,,,,,,
html-keyboard-response,290,468000,0.0-14.0-0.39,61055020201a7da5a704f7dd,650c16f0f2faf8d7a0d14c09,651c1be23b9db8a0b84a2be7,null,null,"<p style=""font-size: 60px; font-family: BACS"">ldAaJcUk</p>",,,,,,,,,,
html-keyboard-response,291,470001,0.0-14.0-0.40,61055020201a7da5a704f7dd,650c16f0f2faf8d7a0d14c09,651c1be23b9db8a0b84a2be7,null,null,"<p style=""font-size: 60px; font-family: BACS"">mkmJNkYL</p>",,,,,,,,,,
html-keyboard-response,292,471988,0.0-14.0-0.41,61055020201a7da5a704f7dd,650c16f0f2faf8d7a0d14c09,651c1be23b9db8a0b84a2be7,null,null,"<p style=""font-size: 60px; font-family: BACS"">KElBTPOM</p>",,,,,,,,,,
html-keyboard-response,293,472992,0.0-14.0-0.42,61055020201a7da5a704f7dd,650c16f0f2faf8d7a0d14c09,651c1be23b9db8a0b84a2be7,null,null,"<p style=""font-size: 60px; font-family: BACS"">RCcEYDTk</p>",,,,,,,,,,
html-keyboard-response,294,474995,0.0-14.0-0.43,61055020201a7da5a704f7dd,650c16f0f2faf8d7a0d14c09,651c1be23b9db8a0b84a2be7,null,null,"<p style=""font-size: 60px; font-family: BACS"">LuaUJcUk</p>",,,,,,,,,,
html-keyboard-response,295,476002,0.0-14.0-0.44,61055020201a7da5a704f7dd,650c16f0f2faf8d7a0d14c09,651c1be23b9db8a0b84a2be7,null,null,"<p style=""font-size: 60px; font-family: BACS"">ODBDAYDTk</p>",,,,,,,,,,
html-keyboard-response,296,477991,0.0-14.0-0.45,61055020201a7da5a704f7dd,650c16f0f2faf8d7a0d14c09,651c1be23b9db8a0b84a2be7,null,null,"<p style=""font-size: 60px; font-family: BACS"">PEtEPMd</p>",,,,,,,,,,
html-keyboard-response,297,478995,0.0-14.0-0.46,61055020201a7da5a704f7dd,650c16f0f2faf8d7a0d14c09,651c1be23b9db8a0b84a2be7,null,null,"<p style=""font-size: 60px; font-family: BACS"">BMEMAlMck</p>",,,,,,,,,,
html-keyboard-response,298,479997,0.0-14.0-0.47,61055020201a7da5a704f7dd,650c16f0f2faf8d7a0d14c09,651c1be23b9db8a0b84a2be7,null,null,"<p style=""font-size: 60px; font-family: BACS"">NvuGrGUOA</p>",,,,,,,,,,
html-keyboard-response,299,480998,0.0-14.0-0.48,61055020201a7da5a704f7dd,650c16f0f2faf8d7a0d14c09,651c1be23b9db8a0b84a2be7,null,null,"<p style=""font-size: 60px; font-family: BACS"">BMEMAPMd</p>",,,,,,,,,,
html-keyboard-response,300,482990,0.0-14.0-0.49,61055020201a7da5a704f7dd,650c16f0f2faf8d7a0d14c09,651c1be23b9db8a0b84a2be7,null,null,"<p style=""font-size: 60px; font-family: BACS"">TdTDYDTk</p>",,,,,,,,,,
html-keyboard-response,301,483995,0.0-14.0-0.50,61055020201a7da5a704f7dd,650c16f0f2faf8d7a0d14c09,651c1be23b9db8a0b84a2be7,null,null,"<p style=""font-size: 60px; font-family: BACS"">ALGZkYL</p>",,,,,,,,,,
html-keyboard-response,302,485992,0.0-14.0-0.51,61055020201a7da5a704f7dd,650c16f0f2faf8d7a0d14c09,651c1be23b9db8a0b84a2be7,null,null,"<p style=""font-size: 60px; font-family: BACS"">PEtEYDTk</p>",,,,,,,,,,
html-keyboard-response,303,486999,0.0-14.0-0.52,61055020201a7da5a704f7dd,650c16f0f2faf8d7a0d14c09,651c1be23b9db8a0b84a2be7,null,null,"<p style=""font-size: 60px; font-family: BACS"">kNuaJcUk</p>",,,,,,,,,,
html-keyboard-response,304,488991,0.0-14.0-0.53,61055020201a7da5a704f7dd,650c16f0f2faf8d7a0d14c09,651c1be23b9db8a0b84a2be7,null,null,"<p style=""font-size: 60px; font-family: BACS"">MlthkKE</p>",,,,,,,,,,
html-keyboard-response,305,489995,0.0-14.0-0.54,61055020201a7da5a704f7dd,650c16f0f2faf8d7a0d14c09,651c1be23b9db8a0b84a2be7,null,null,"<p style=""font-size: 60px; font-family: BACS"">mkmJNJUNa</p>",,,,,,,,,,
html-keyboard-response,306,491984,0.0-14.0-0.55,61055020201a7da5a704f7dd,650c16f0f2faf8d7a0d14c09,651c1be23b9db8a0b84a2be7,null,null,"<p style=""font-size: 60px; font-family: BACS"">RCcETPOM</p>",,,,,,,,,,
html-keyboard-response,307,493002,0.0-14.0-0.56,61055020201a7da5a704f7dd,650c16f0f2faf8d7a0d14c09,651c1be23b9db8a0b84a2be7,null,null,"<p style=""font-size: 60px; font-family: BACS"">rvOvUJcUk</p>",,,,,,,,,,
html-keyboard-response,308,494985,0.0-14.0-0.57,61055020201a7da5a704f7dd,650c16f0f2faf8d7a0d14c09,651c1be23b9db8a0b84a2be7,null,null,"<p style=""font-size: 60px; font-family: BACS"">DhMtPMd</p>",,,,,,,,,,
html-keyboard-response,309,496013,0.0-14.0-0.58,61055020201a7da5a704f7dd,650c16f0f2faf8d7a0d14c09,651c1be23b9db8a0b84a2be7,null,null,"<p style=""font-size: 60px; font-family: BACS"">BMEMAYDTk</p>",,,,,,,,,,
html-keyboard-response,310,497989,0.0-14.0-0.59,61055020201a7da5a704f7dd,650c16f0f2faf8d7a0d14c09,651c1be23b9db8a0b84a2be7,null,null,"<p style=""font-size: 60px; font-family: BACS"">mkmJNGUOA</p>",,,,,,,,,,
html-keyboard-response,311,498998,0.0-14.0-0.60,61055020201a7da5a704f7dd,650c16f0f2faf8d7a0d14c09,651c1be23b9db8a0b84a2be7,null,null,"<p style=""font-size: 60px; font-family: BACS"">MBmEkKE</p>",,,,,,,,,,
html-keyboard-response,312,500994,0.0-14.0-0.61,61055020201a7da5a704f7dd,650c16f0f2faf8d7a0d14c09,651c1be23b9db8a0b84a2be7,null,null,"<p style=""font-size: 60px; font-family: BACS"">kNuaGUOA</p>",,,,,,,,,,
html-keyboard-response,313,502999,0.0-14.0-0.62,61055020201a7da5a704f7dd,650c16f0f2faf8d7a0d14c09,651c1be23b9db8a0b84a2be7,null,null,"<p style=""font-size: 60px; font-family: BACS"">tRdMYDTk</p>",,,,,,,,,,
html-keyboard-response,314,505010,0.0-14.0-0.63,61055020201a7da5a704f7dd,650c16f0f2faf8d7a0d14c09,651c1be23b9db8a0b84a2be7,null,null,"<p style=""font-size: 60px; font-family: BACS"">kZUbJcUk</p>",,,,,,,,,,
html-keyboard-response,315,506995,0.0-14.0-0.64,61055020201a7da5a704f7dd,650c16f0f2faf8d7a0d14c09,651c1be23b9db8a0b84a2be7,null,null,"<p style=""font-size: 60px; font-family: BACS"">LuaUkYL</p>",,,,,,,,,,
html-keyboard-response,316,508997,0.0-14.0-0.65,61055020201a7da5a704f7dd,650c16f0f2faf8d7a0d14c09,651c1be23b9db8a0b84a2be7,null,null,"<p style=""font-size: 60px; font-family: BACS"">BMEMATPOM</p>",,,,,,,,,,
html-keyboard-response,317,510995,0.0-14.0-0.66,61055020201a7da5a704f7dd,650c16f0f2faf8d7a0d14c09,651c1be23b9db8a0b84a2be7,null,null,"<p style=""font-size: 60px; font-family: BACS"">rvOvUkYL</p>",,,,,,,,,,
html-keyboard-response,318,512989,0.0-14.0-0.67,61055020201a7da5a704f7dd,650c16f0f2faf8d7a0d14c09,651c1be23b9db8a0b84a2be7,null,null,"<p style=""font-size: 60px; font-family: BACS"">MBmElMck</p>",,,,,,,,,,
html-keyboard-response,319,513998,0.0-14.0-0.68,61055020201a7da5a704f7dd,650c16f0f2faf8d7a0d14c09,651c1be23b9db8a0b84a2be7,null,null,"<p style=""font-size: 60px; font-family: BACS"">TdTDTPOM</p>",,,,,,,,,,
html-keyboard-response,320,515012,0.0-14.0-0.69,61055020201a7da5a704f7dd,650c16f0f2faf8d7a0d14c09,651c1be23b9db8a0b84a2be7,null,null,"<p style=""font-size: 60px; font-family: BACS"">ALGZuvJ</p>",,,,,,,,,,
html-keyboard-response,321,516016,0.0-14.0-0.70,61055020201a7da5a704f7dd,650c16f0f2faf8d7a0d14c09,651c1be23b9db8a0b84a2be7,null,null,"<p style=""font-size: 60px; font-family: BACS"">OJGQGUOA</p>",,,,,,,,,,
html-keyboard-response,322,517029,0.0-14.0-0.71,61055020201a7da5a704f7dd,650c16f0f2faf8d7a0d14c09,651c1be23b9db8a0b84a2be7,null,null,"<p style=""font-size: 60px; font-family: BACS"">UaYLJUNa</p>",,,,,,,,,,
html-keyboard-response,323,518045,0.0-14.0-0.72,61055020201a7da5a704f7dd,650c16f0f2faf8d7a0d14c09,651c1be23b9db8a0b84a2be7,null,null,"<p style=""font-size: 60px; font-family: BACS"">MBmETPOM</p>",,,,,,,,,,
html-keyboard-response,324,519063,0.0-14.0-0.73,61055020201a7da5a704f7dd,650c16f0f2faf8d7a0d14c09,651c1be23b9db8a0b84a2be7,null,null,"<p style=""font-size: 60px; font-family: BACS"">ldAaGUOA</p>",,,,,,,,,,
html-keyboard-response,325,520072,0.0-14.0-0.74,61055020201a7da5a704f7dd,650c16f0f2faf8d7a0d14c09,651c1be23b9db8a0b84a2be7,null,null,"<p style=""font-size: 60px; font-family: BACS"">OJGQkYL</p>",,,,,,,,,,
html-keyboard-response,326,521081,0.0-14.0-0.75,61055020201a7da5a704f7dd,650c16f0f2faf8d7a0d14c09,651c1be23b9db8a0b84a2be7,null,null,"<p style=""font-size: 60px; font-family: BACS"">NvuGrJUNa</p>",,,,,,,,,,
html-keyboard-response,327,522084,0.0-14.0-0.76,61055020201a7da5a704f7dd,650c16f0f2faf8d7a0d14c09,651c1be23b9db8a0b84a2be7,null,null,"<p style=""font-size: 60px; font-family: BACS"">kZUbuvJ</p>",,,,,,,,,,
html-keyboard-response,328,523092,0.0-14.0-0.77,61055020201a7da5a704f7dd,650c16f0f2faf8d7a0d14c09,651c1be23b9db8a0b84a2be7,null,null,"<p style=""font-size: 60px; font-family: BACS"">LuaUGUOA</p>",,,,,,,,,,
html-keyboard-response,329,524099,0.0-14.0-0.78,61055020201a7da5a704f7dd,650c16f0f2faf8d7a0d14c09,651c1be23b9db8a0b84a2be7,null,null,"<p style=""font-size: 60px; font-family: BACS"">ldAaJUNa</p>",,,,,,,,,,
html-keyboard-response,330,525113,0.0-14.0-0.79,61055020201a7da5a704f7dd,650c16f0f2faf8d7a0d14c09,651c1be23b9db8a0b84a2be7,null,null,"<p style=""font-size: 60px; font-family: BACS"">UaYLuvJ</p>",,,,,,,,,,
html-keyboard-response,331,527070,0.0-15.0,61055020201a7da5a704f7dd,650c16f0f2faf8d7a0d14c09,651c1be23b9db8a0b84a2be7,1956, ,"<p>Great, you've seen the fourth block of words. You may now take a short break.</p>
      <p>Press the spacebar when you're ready to continue.</p>",,,,,,,,,,
html-keyboard-response,332,528085,0.0-16.0-0.0,61055020201a7da5a704f7dd,650c16f0f2faf8d7a0d14c09,651c1be23b9db8a0b84a2be7,null,null,"<p style=""font-size: 60px; font-family: BACS"">kZUbGUOA</p>",,,,,,,,,,
html-keyboard-response,333,529105,0.0-16.0-0.1,61055020201a7da5a704f7dd,650c16f0f2faf8d7a0d14c09,651c1be23b9db8a0b84a2be7,null,null,"<p style=""font-size: 60px; font-family: BACS"">kZUbGUOA</p>",,,,,,,,,,
html-keyboard-response,334,530146,0.0-16.0-0.2,61055020201a7da5a704f7dd,650c16f0f2faf8d7a0d14c09,651c1be23b9db8a0b84a2be7,null,null,"<p style=""font-size: 60px; font-family: BACS"">kZUbGUOA</p>",,,,,,,,,,
html-keyboard-response,335,531178,0.0-16.0-0.3,61055020201a7da5a704f7dd,650c16f0f2faf8d7a0d14c09,651c1be23b9db8a0b84a2be7,null,null,"<p style=""font-size: 60px; font-family: BACS"">kZUbGUOA</p>",,,,,,,,,,
html-keyboard-response,336,532207,0.0-16.0-0.4,61055020201a7da5a704f7dd,650c16f0f2faf8d7a0d14c09,651c1be23b9db8a0b84a2be7,null,null,"<p style=""font-size: 60px; font-family: BACS"">kZUbGUOA</p>",,,,,,,,,,
html-keyboard-response,337,533236,0.0-16.0-0.5,61055020201a7da5a704f7dd,650c16f0f2faf8d7a0d14c09,651c1be23b9db8a0b84a2be7,null,null,"<p style=""font-size: 60px; font-family: BACS"">kZUbGUOA</p>",,,,,,,,,,
html-keyboard-response,338,534273,0.0-16.0-0.6,61055020201a7da5a704f7dd,650c16f0f2faf8d7a0d14c09,651c1be23b9db8a0b84a2be7,null,null,"<p style=""font-size: 60px; font-family: BACS"">kZUbGUOA</p>",,,,,,,,,,
html-keyboard-response,339,536005,0.0-16.0-0.7,61055020201a7da5a704f7dd,650c16f0f2faf8d7a0d14c09,651c1be23b9db8a0b84a2be7,null,null,"<p style=""font-size: 60px; font-family: BACS"">kZUbGUOA</p>",,,,,,,,,,
html-keyboard-response,340,537999,0.0-16.0-0.8,61055020201a7da5a704f7dd,650c16f0f2faf8d7a0d14c09,651c1be23b9db8a0b84a2be7,null,null,"<p style=""font-size: 60px; font-family: BACS"">kZUbGUOA</p>",,,,,,,,,,
html-keyboard-response,341,539001,0.0-16.0-0.9,61055020201a7da5a704f7dd,650c16f0f2faf8d7a0d14c09,651c1be23b9db8a0b84a2be7,null,null,"<p style=""font-size: 60px; font-family: BACS"">kZUbGUOA</p>",,,,,,,,,,
html-keyboard-response,342,540719,0.0-16.0-0.10,61055020201a7da5a704f7dd,650c16f0f2faf8d7a0d14c09,651c1be23b9db8a0b84a2be7,null,null,"<p style=""font-size: 60px; font-family: BACS"">kZUbGUOA</p>",,,,,,,,,,
html-keyboard-response,343,541735,0.0-16.0-0.11,61055020201a7da5a704f7dd,650c16f0f2faf8d7a0d14c09,651c1be23b9db8a0b84a2be7,null,null,"<p style=""font-size: 60px; font-family: BACS"">kZUbGUOA</p>",,,,,,,,,,
html-keyboard-response,344,542736,0.0-16.0-0.12,61055020201a7da5a704f7dd,650c16f0f2faf8d7a0d14c09,651c1be23b9db8a0b84a2be7,null,null,"<p style=""font-size: 60px; font-family: BACS"">kZUbGUOA</p>",,,,,,,,,,
html-keyboard-response,345,543749,0.0-16.0-0.13,61055020201a7da5a704f7dd,650c16f0f2faf8d7a0d14c09,651c1be23b9db8a0b84a2be7,null,null,"<p style=""font-size: 60px; font-family: BACS"">kZUbGUOA</p>",,,,,,,,,,
html-keyboard-response,346,544988,0.0-16.0-0.14,61055020201a7da5a704f7dd,650c16f0f2faf8d7a0d14c09,651c1be23b9db8a0b84a2be7,null,null,"<p style=""font-size: 60px; font-family: BACS"">kZUbGUOA</p>",,,,,,,,,,
html-keyboard-response,347,546008,0.0-16.0-0.15,61055020201a7da5a704f7dd,650c16f0f2faf8d7a0d14c09,651c1be23b9db8a0b84a2be7,null,null,"<p style=""font-size: 60px; font-family: BACS"">kZUbGUOA</p>",,,,,,,,,,
html-keyboard-response,348,547985,0.0-16.0-0.16,61055020201a7da5a704f7dd,650c16f0f2faf8d7a0d14c09,651c1be23b9db8a0b84a2be7,null,null,"<p style=""font-size: 60px; font-family: BACS"">kZUbGUOA</p>",,,,,,,,,,
html-keyboard-response,349,548996,0.0-16.0-0.17,61055020201a7da5a704f7dd,650c16f0f2faf8d7a0d14c09,651c1be23b9db8a0b84a2be7,null,null,"<p style=""font-size: 60px; font-family: BACS"">kZUbGUOA</p>",,,,,,,,,,
html-keyboard-response,350,550990,0.0-16.0-0.18,61055020201a7da5a704f7dd,650c16f0f2faf8d7a0d14c09,651c1be23b9db8a0b84a2be7,null,null,"<p style=""font-size: 60px; font-family: BACS"">kZUbGUOA</p>",,,,,,,,,,
html-keyboard-response,351,552708,0.0-16.0-0.19,61055020201a7da5a704f7dd,650c16f0f2faf8d7a0d14c09,651c1be23b9db8a0b84a2be7,null,null,"<p style=""font-size: 60px; font-family: BACS"">kZUbGUOA</p>",,,,,,,,,,
html-keyboard-response,352,553717,0.0-16.0-0.20,61055020201a7da5a704f7dd,650c16f0f2faf8d7a0d14c09,651c1be23b9db8a0b84a2be7,null,null,"<p style=""font-size: 60px; font-family: BACS"">kZUbGUOA</p>",,,,,,,,,,
html-keyboard-response,353,554986,0.0-16.0-0.21,61055020201a7da5a704f7dd,650c16f0f2faf8d7a0d14c09,651c1be23b9db8a0b84a2be7,null,null,"<p style=""font-size: 60px; font-family: BACS"">kZUbGUOA</p>",,,,,,,,,,
html-keyboard-response,354,555994,0.0-16.0-0.22,61055020201a7da5a704f7dd,650c16f0f2faf8d7a0d14c09,651c1be23b9db8a0b84a2be7,null,null,"<p style=""font-size: 60px; font-family: BACS"">kZUbGUOA</p>",,,,,,,,,,
html-keyboard-response,355,556997,0.0-16.0-0.23,61055020201a7da5a704f7dd,650c16f0f2faf8d7a0d14c09,651c1be23b9db8a0b84a2be7,null,null,"<p style=""font-size: 60px; font-family: BACS"">kZUbGUOA</p>",,,,,,,,,,
html-keyboard-response,356,558034,0.0-16.0-0.24,61055020201a7da5a704f7dd,650c16f0f2faf8d7a0d14c09,651c1be23b9db8a0b84a2be7,null,null,"<p style=""font-size: 60px; font-family: BACS"">kZUbGUOA</p>",,,,,,,,,,
html-keyboard-response,357,559045,0.0-16.0-0.25,61055020201a7da5a704f7dd,650c16f0f2faf8d7a0d14c09,651c1be23b9db8a0b84a2be7,null,null,"<p style=""font-size: 60px; font-family: BACS"">kZUbGUOA</p>",,,,,,,,,,
html-keyboard-response,358,560048,0.0-16.0-0.26,61055020201a7da5a704f7dd,650c16f0f2faf8d7a0d14c09,651c1be23b9db8a0b84a2be7,null,null,"<p style=""font-size: 60px; font-family: BACS"">kZUbGUOA</p>",,,,,,,,,,
html-keyboard-response,359,561050,0.0-16.0-0.27,61055020201a7da5a704f7dd,650c16f0f2faf8d7a0d14c09,651c1be23b9db8a0b84a2be7,null,null,"<p style=""font-size: 60px; font-family: BACS"">kZUbGUOA</p>",,,,,,,,,,
html-keyboard-response,360,562072,0.0-16.0-0.28,61055020201a7da5a704f7dd,650c16f0f2faf8d7a0d14c09,651c1be23b9db8a0b84a2be7,null,null,"<p style=""font-size: 60px; font-family: BACS"">kZUbGUOA</p>",,,,,,,,,,
html-keyboard-response,361,563085,0.0-16.0-0.29,61055020201a7da5a704f7dd,650c16f0f2faf8d7a0d14c09,651c1be23b9db8a0b84a2be7,null,null,"<p style=""font-size: 60px; font-family: BACS"">kZUbGUOA</p>",,,,,,,,,,
html-keyboard-response,362,564119,0.0-16.0-0.30,61055020201a7da5a704f7dd,650c16f0f2faf8d7a0d14c09,651c1be23b9db8a0b84a2be7,null,null,"<p style=""font-size: 60px; font-family: BACS"">kZUbGUOA</p>",,,,,,,,,,
html-keyboard-response,363,565128,0.0-16.0-0.31,61055020201a7da5a704f7dd,650c16f0f2faf8d7a0d14c09,651c1be23b9db8a0b84a2be7,null,null,"<p style=""font-size: 60px; font-family: BACS"">kZUbGUOA</p>",,,,,,,,,,
html-keyboard-response,364,566143,0.0-16.0-0.32,61055020201a7da5a704f7dd,650c16f0f2faf8d7a0d14c09,651c1be23b9db8a0b84a2be7,null,null,"<p style=""font-size: 60px; font-family: BACS"">kZUbGUOA</p>",,,,,,,,,,
html-keyboard-response,365,567146,0.0-16.0-0.33,61055020201a7da5a704f7dd,650c16f0f2faf8d7a0d14c09,651c1be23b9db8a0b84a2be7,null,null,"<p style=""font-size: 60px; font-family: BACS"">kZUbGUOA</p>",,,,,,,,,,
html-keyboard-response,366,568162,0.0-16.0-0.34,61055020201a7da5a704f7dd,650c16f0f2faf8d7a0d14c09,651c1be23b9db8a0b84a2be7,null,null,"<p style=""font-size: 60px; font-family: BACS"">kZUbGUOA</p>",,,,,,,,,,
html-keyboard-response,367,569168,0.0-16.0-0.35,61055020201a7da5a704f7dd,650c16f0f2faf8d7a0d14c09,651c1be23b9db8a0b84a2be7,null,null,"<p style=""font-size: 60px; font-family: BACS"">kZUbGUOA</p>",,,,,,,,,,
html-keyboard-response,368,570177,0.0-16.0-0.36,61055020201a7da5a704f7dd,650c16f0f2faf8d7a0d14c09,651c1be23b9db8a0b84a2be7,null,null,"<p style=""font-size: 60px; font-family: BACS"">kZUbGUOA</p>",,,,,,,,,,
html-keyboard-response,369,571190,0.0-16.0-0.37,61055020201a7da5a704f7dd,650c16f0f2faf8d7a0d14c09,651c1be23b9db8a0b84a2be7,null,null,"<p style=""font-size: 60px; font-family: BACS"">kZUbGUOA</p>",,,,,,,,,,
html-keyboard-response,370,572203,0.0-16.0-0.38,61055020201a7da5a704f7dd,650c16f0f2faf8d7a0d14c09,651c1be23b9db8a0b84a2be7,null,null,"<p style=""font-size: 60px; font-family: BACS"">kZUbGUOA</p>",,,,,,,,,,
html-keyboard-response,371,573222,0.0-16.0-0.39,61055020201a7da5a704f7dd,650c16f0f2faf8d7a0d14c09,651c1be23b9db8a0b84a2be7,null,null,"<p style=""font-size: 60px; font-family: BACS"">kZUbGUOA</p>",,,,,,,,,,
html-keyboard-response,372,574227,0.0-16.0-0.40,61055020201a7da5a704f7dd,650c16f0f2faf8d7a0d14c09,651c1be23b9db8a0b84a2be7,null,null,"<p style=""font-size: 60px; font-family: BACS"">kZUbGUOA</p>",,,,,,,,,,
html-keyboard-response,373,575241,0.0-16.0-0.41,61055020201a7da5a704f7dd,650c16f0f2faf8d7a0d14c09,651c1be23b9db8a0b84a2be7,null,null,"<p style=""font-size: 60px; font-family: BACS"">kZUbGUOA</p>",,,,,,,,,,
html-keyboard-response,374,576252,0.0-16.0-0.42,61055020201a7da5a704f7dd,650c16f0f2faf8d7a0d14c09,651c1be23b9db8a0b84a2be7,null,null,"<p style=""font-size: 60px; font-family: BACS"">kZUbGUOA</p>",,,,,,,,,,
html-keyboard-response,375,577269,0.0-16.0-0.43,61055020201a7da5a704f7dd,650c16f0f2faf8d7a0d14c09,651c1be23b9db8a0b84a2be7,null,null,"<p style=""font-size: 60px; font-family: BACS"">kZUbGUOA</p>",,,,,,,,,,
html-keyboard-response,376,578274,0.0-16.0-0.44,61055020201a7da5a704f7dd,650c16f0f2faf8d7a0d14c09,651c1be23b9db8a0b84a2be7,null,null,"<p style=""font-size: 60px; font-family: BACS"">kZUbGUOA</p>",,,,,,,,,,
html-keyboard-response,377,579285,0.0-16.0-0.45,61055020201a7da5a704f7dd,650c16f0f2faf8d7a0d14c09,651c1be23b9db8a0b84a2be7,null,null,"<p style=""font-size: 60px; font-family: BACS"">kZUbGUOA</p>",,,,,,,,,,
html-keyboard-response,378,580292,0.0-16.0-0.46,61055020201a7da5a704f7dd,650c16f0f2faf8d7a0d14c09,651c1be23b9db8a0b84a2be7,null,null,"<p style=""font-size: 60px; font-family: BACS"">kZUbGUOA</p>",,,,,,,,,,
html-keyboard-response,379,581297,0.0-16.0-0.47,61055020201a7da5a704f7dd,650c16f0f2faf8d7a0d14c09,651c1be23b9db8a0b84a2be7,null,null,"<p style=""font-size: 60px; font-family: BACS"">kZUbGUOA</p>",,,,,,,,,,
html-keyboard-response,380,582308,0.0-16.0-0.48,61055020201a7da5a704f7dd,650c16f0f2faf8d7a0d14c09,651c1be23b9db8a0b84a2be7,null,null,"<p style=""font-size: 60px; font-family: BACS"">kZUbGUOA</p>",,,,,,,,,,
html-keyboard-response,381,583312,0.0-16.0-0.49,61055020201a7da5a704f7dd,650c16f0f2faf8d7a0d14c09,651c1be23b9db8a0b84a2be7,null,null,"<p style=""font-size: 60px; font-family: BACS"">kZUbGUOA</p>",,,,,,,,,,
html-keyboard-response,382,584312,0.0-16.0-0.50,61055020201a7da5a704f7dd,650c16f0f2faf8d7a0d14c09,651c1be23b9db8a0b84a2be7,null,null,"<p style=""font-size: 60px; font-family: BACS"">kZUbGUOA</p>",,,,,,,,,,
html-keyboard-response,383,585315,0.0-16.0-0.51,61055020201a7da5a704f7dd,650c16f0f2faf8d7a0d14c09,651c1be23b9db8a0b84a2be7,null,null,"<p style=""font-size: 60px; font-family: BACS"">kZUbGUOA</p>",,,,,,,,,,
html-keyboard-response,384,586334,0.0-16.0-0.52,61055020201a7da5a704f7dd,650c16f0f2faf8d7a0d14c09,651c1be23b9db8a0b84a2be7,null,null,"<p style=""font-size: 60px; font-family: BACS"">kZUbGUOA</p>",,,,,,,,,,
html-keyboard-response,385,587339,0.0-16.0-0.53,61055020201a7da5a704f7dd,650c16f0f2faf8d7a0d14c09,651c1be23b9db8a0b84a2be7,null,null,"<p style=""font-size: 60px; font-family: BACS"">kZUbGUOA</p>",,,,,,,,,,
html-keyboard-response,386,588341,0.0-16.0-0.54,61055020201a7da5a704f7dd,650c16f0f2faf8d7a0d14c09,651c1be23b9db8a0b84a2be7,null,null,"<p style=""font-size: 60px; font-family: BACS"">kZUbGUOA</p>",,,,,,,,,,
html-keyboard-response,387,589347,0.0-16.0-0.55,61055020201a7da5a704f7dd,650c16f0f2faf8d7a0d14c09,651c1be23b9db8a0b84a2be7,null,null,"<p style=""font-size: 60px; font-family: BACS"">kZUbGUOA</p>",,,,,,,,,,
html-keyboard-response,388,590366,0.0-16.0-0.56,61055020201a7da5a704f7dd,650c16f0f2faf8d7a0d14c09,651c1be23b9db8a0b84a2be7,null,null,"<p style=""font-size: 60px; font-family: BACS"">kZUbGUOA</p>",,,,,,,,,,
html-keyboard-response,389,591400,0.0-16.0-0.57,61055020201a7da5a704f7dd,650c16f0f2faf8d7a0d14c09,651c1be23b9db8a0b84a2be7,null,null,"<p style=""font-size: 60px; font-family: BACS"">kZUbGUOA</p>",,,,,,,,,,
html-keyboard-response,390,592422,0.0-16.0-0.58,61055020201a7da5a704f7dd,650c16f0f2faf8d7a0d14c09,651c1be23b9db8a0b84a2be7,null,null,"<p style=""font-size: 60px; font-family: BACS"">kZUbGUOA</p>",,,,,,,,,,
html-keyboard-response,391,593465,0.0-16.0-0.59,61055020201a7da5a704f7dd,650c16f0f2faf8d7a0d14c09,651c1be23b9db8a0b84a2be7,null,null,"<p style=""font-size: 60px; font-family: BACS"">kZUbGUOA</p>",,,,,,,,,,
html-keyboard-response,392,594490,0.0-16.0-0.60,61055020201a7da5a704f7dd,650c16f0f2faf8d7a0d14c09,651c1be23b9db8a0b84a2be7,null,null,"<p style=""font-size: 60px; font-family: BACS"">kZUbGUOA</p>",,,,,,,,,,
html-keyboard-response,393,595495,0.0-16.0-0.61,61055020201a7da5a704f7dd,650c16f0f2faf8d7a0d14c09,651c1be23b9db8a0b84a2be7,null,null,"<p style=""font-size: 60px; font-family: BACS"">kZUbGUOA</p>",,,,,,,,,,
html-keyboard-response,394,596514,0.0-16.0-0.62,61055020201a7da5a704f7dd,650c16f0f2faf8d7a0d14c09,651c1be23b9db8a0b84a2be7,null,null,"<p style=""font-size: 60px; font-family: BACS"">kZUbGUOA</p>",,,,,,,,,,
html-keyboard-response,395,597558,0.0-16.0-0.63,61055020201a7da5a704f7dd,650c16f0f2faf8d7a0d14c09,651c1be23b9db8a0b84a2be7,null,null,"<p style=""font-size: 60px; font-family: BACS"">kZUbGUOA</p>",,,,,,,,,,
html-keyboard-response,396,598584,0.0-16.0-0.64,61055020201a7da5a704f7dd,650c16f0f2faf8d7a0d14c09,651c1be23b9db8a0b84a2be7,null,null,"<p style=""font-size: 60px; font-family: BACS"">kZUbGUOA</p>",,,,,,,,,,
html-keyboard-response,397,599616,0.0-16.0-0.65,61055020201a7da5a704f7dd,650c16f0f2faf8d7a0d14c09,651c1be23b9db8a0b84a2be7,null,null,"<p style=""font-size: 60px; font-family: BACS"">kZUbGUOA</p>",,,,,,,,,,
html-keyboard-response,398,600644,0.0-16.0-0.66,61055020201a7da5a704f7dd,650c16f0f2faf8d7a0d14c09,651c1be23b9db8a0b84a2be7,null,null,"<p style=""font-size: 60px; font-family: BACS"">kZUbGUOA</p>",,,,,,,,,,
html-keyboard-response,399,601680,0.0-16.0-0.67,61055020201a7da5a704f7dd,650c16f0f2faf8d7a0d14c09,651c1be23b9db8a0b84a2be7,null,null,"<p style=""font-size: 60px; font-family: BACS"">kZUbGUOA</p>",,,,,,,,,,
html-keyboard-response,400,602703,0.0-16.0-0.68,61055020201a7da5a704f7dd,650c16f0f2faf8d7a0d14c09,651c1be23b9db8a0b84a2be7,null,null,"<p style=""font-size: 60px; font-family: BACS"">kZUbGUOA</p>",,,,,,,,,,
html-keyboard-response,401,603730,0.0-16.0-0.69,61055020201a7da5a704f7dd,650c16f0f2faf8d7a0d14c09,651c1be23b9db8a0b84a2be7,null,null,"<p style=""font-size: 60px; font-family: BACS"">kZUbGUOA</p>",,,,,,,,,,
html-keyboard-response,402,604743,0.0-16.0-0.70,61055020201a7da5a704f7dd,650c16f0f2faf8d7a0d14c09,651c1be23b9db8a0b84a2be7,null,null,"<p style=""font-size: 60px; font-family: BACS"">kZUbGUOA</p>",,,,,,,,,,
html-keyboard-response,403,605762,0.0-16.0-0.71,61055020201a7da5a704f7dd,650c16f0f2faf8d7a0d14c09,651c1be23b9db8a0b84a2be7,null,null,"<p style=""font-size: 60px; font-family: BACS"">kZUbGUOA</p>",,,,,,,,,,
html-keyboard-response,404,606788,0.0-16.0-0.72,61055020201a7da5a704f7dd,650c16f0f2faf8d7a0d14c09,651c1be23b9db8a0b84a2be7,null,null,"<p style=""font-size: 60px; font-family: BACS"">kZUbGUOA</p>",,,,,,,,,,
html-keyboard-response,405,607818,0.0-16.0-0.73,61055020201a7da5a704f7dd,650c16f0f2faf8d7a0d14c09,651c1be23b9db8a0b84a2be7,null,null,"<p style=""font-size: 60px; font-family: BACS"">kZUbGUOA</p>",,,,,,,,,,
html-keyboard-response,406,608845,0.0-16.0-0.74,61055020201a7da5a704f7dd,650c16f0f2faf8d7a0d14c09,651c1be23b9db8a0b84a2be7,null,null,"<p style=""font-size: 60px; font-family: BACS"">kZUbGUOA</p>",,,,,,,,,,
html-keyboard-response,407,609864,0.0-16.0-0.75,61055020201a7da5a704f7dd,650c16f0f2faf8d7a0d14c09,651c1be23b9db8a0b84a2be7,null,null,"<p style=""font-size: 60px; font-family: BACS"">kZUbGUOA</p>",,,,,,,,,,
html-keyboard-response,408,610890,0.0-16.0-0.76,61055020201a7da5a704f7dd,650c16f0f2faf8d7a0d14c09,651c1be23b9db8a0b84a2be7,null,null,"<p style=""font-size: 60px; font-family: BACS"">kZUbGUOA</p>",,,,,,,,,,
html-keyboard-response,409,611928,0.0-16.0-0.77,61055020201a7da5a704f7dd,650c16f0f2faf8d7a0d14c09,651c1be23b9db8a0b84a2be7,null,null,"<p style=""font-size: 60px; font-family: BACS"">kZUbGUOA</p>",,,,,,,,,,
html-keyboard-response,410,612957,0.0-16.0-0.78,61055020201a7da5a704f7dd,650c16f0f2faf8d7a0d14c09,651c1be23b9db8a0b84a2be7,null,null,"<p style=""font-size: 60px; font-family: BACS"">kZUbGUOA</p>",,,,,,,,,,
html-keyboard-response,411,613981,0.0-16.0-0.79,61055020201a7da5a704f7dd,650c16f0f2faf8d7a0d14c09,651c1be23b9db8a0b84a2be7,null,null,"<p style=""font-size: 60px; font-family: BACS"">kZUbGUOA</p>",,,,,,,,,,
html-keyboard-response,412,619305,0.0-17.0,61055020201a7da5a704f7dd,650c16f0f2faf8d7a0d14c09,651c1be23b9db8a0b84a2be7,5323, ,"<p>Great, you've seen the fifth block of words. You may now take a short break.</p>
      <p>Press the spacebar when you're ready to continue.</p>",,,,,,,,,,
html-keyboard-response,413,620307,0.0-18.0-0.0,61055020201a7da5a704f7dd,650c16f0f2faf8d7a0d14c09,651c1be23b9db8a0b84a2be7,null,null,"<p style=""font-size: 60px; font-family: BACS"">MBmETPOM</p>",,,,,,,,,,
html-keyboard-response,414,621320,0.0-18.0-0.1,61055020201a7da5a704f7dd,650c16f0f2faf8d7a0d14c09,651c1be23b9db8a0b84a2be7,null,null,"<p style=""font-size: 60px; font-family: BACS"">rvOvUJcUk</p>",,,,,,,,,,
html-keyboard-response,415,622337,0.0-18.0-0.2,61055020201a7da5a704f7dd,650c16f0f2faf8d7a0d14c09,651c1be23b9db8a0b84a2be7,null,null,"<p style=""font-size: 60px; font-family: BACS"">MlthkKE</p>",,,,,,,,,,
html-keyboard-response,416,623347,0.0-18.0-0.3,61055020201a7da5a704f7dd,650c16f0f2faf8d7a0d14c09,651c1be23b9db8a0b84a2be7,null,null,"<p style=""font-size: 60px; font-family: BACS"">PEtElMck</p>",,,,,,,,,,
html-keyboard-response,417,624361,0.0-18.0-0.4,61055020201a7da5a704f7dd,650c16f0f2faf8d7a0d14c09,651c1be23b9db8a0b84a2be7,null,null,"<p style=""font-size: 60px; font-family: BACS"">ODBDATPOM</p>",,,,,,,,,,
html-keyboard-response,418,625374,0.0-18.0-0.5,61055020201a7da5a704f7dd,650c16f0f2faf8d7a0d14c09,651c1be23b9db8a0b84a2be7,null,null,"<p style=""font-size: 60px; font-family: BACS"">ldAakYL</p>",,,,,,,,,,
html-keyboard-response,419,626399,0.0-18.0-0.6,61055020201a7da5a704f7dd,650c16f0f2faf8d7a0d14c09,651c1be23b9db8a0b84a2be7,null,null,"<p style=""font-size: 60px; font-family: BACS"">kNuaGUOA</p>",,,,,,,,,,
html-keyboard-response,420,627429,0.0-18.0-0.7,61055020201a7da5a704f7dd,650c16f0f2faf8d7a0d14c09,651c1be23b9db8a0b84a2be7,null,null,"<p style=""font-size: 60px; font-family: BACS"">OJGQuvJ</p>",,,,,,,,,,
html-keyboard-response,421,628447,0.0-18.0-0.8,61055020201a7da5a704f7dd,650c16f0f2faf8d7a0d14c09,651c1be23b9db8a0b84a2be7,null,null,"<p style=""font-size: 60px; font-family: BACS"">BMEMAPMd</p>",,,,,,,,,,
html-keyboard-response,422,629461,0.0-18.0-0.9,61055020201a7da5a704f7dd,650c16f0f2faf8d7a0d14c09,651c1be23b9db8a0b84a2be7,null,null,"<p style=""font-size: 60px; font-family: BACS"">ldAaGUOA</p>",,,,,,,,,,
html-keyboard-response,423,630474,0.0-18.0-0.10,61055020201a7da5a704f7dd,650c16f0f2faf8d7a0d14c09,651c1be23b9db8a0b84a2be7,null,null,"<p style=""font-size: 60px; font-family: BACS"">UaYLJcUk</p>",,,,,,,,,,
html-keyboard-response,424,631506,0.0-18.0-0.11,61055020201a7da5a704f7dd,650c16f0f2faf8d7a0d14c09,651c1be23b9db8a0b84a2be7,null,null,"<p style=""font-size: 60px; font-family: BACS"">MlthYDTk</p>",,,,,,,,,,
html-keyboard-response,425,632516,0.0-18.0-0.12,61055020201a7da5a704f7dd,650c16f0f2faf8d7a0d14c09,651c1be23b9db8a0b84a2be7,null,null,"<p style=""font-size: 60px; font-family: BACS"">tRdMkKE</p>",,,,,,,,,,
html-keyboard-response,426,633540,0.0-18.0-0.13,61055020201a7da5a704f7dd,650c16f0f2faf8d7a0d14c09,651c1be23b9db8a0b84a2be7,null,null,"<p style=""font-size: 60px; font-family: BACS"">OJGQkYL</p>",,,,,,,,,,
html-keyboard-response,427,634559,0.0-18.0-0.14,61055020201a7da5a704f7dd,650c16f0f2faf8d7a0d14c09,651c1be23b9db8a0b84a2be7,null,null,"<p style=""font-size: 60px; font-family: BACS"">LuaUuvJ</p>",,,,,,,,,,
html-keyboard-response,428,635577,0.0-18.0-0.15,61055020201a7da5a704f7dd,650c16f0f2faf8d7a0d14c09,651c1be23b9db8a0b84a2be7,null,null,"<p style=""font-size: 60px; font-family: BACS"">mkmJNGUOA</p>",,,,,,,,,,
html-keyboard-response,429,636595,0.0-18.0-0.16,61055020201a7da5a704f7dd,650c16f0f2faf8d7a0d14c09,651c1be23b9db8a0b84a2be7,null,null,"<p style=""font-size: 60px; font-family: BACS"">TdTDkKE</p>",,,,,,,,,,
html-keyboard-response,430,637614,0.0-18.0-0.17,61055020201a7da5a704f7dd,650c16f0f2faf8d7a0d14c09,651c1be23b9db8a0b84a2be7,null,null,"<p style=""font-size: 60px; font-family: BACS"">ALGZkYL</p>",,,,,,,,,,
html-keyboard-response,431,638647,0.0-18.0-0.18,61055020201a7da5a704f7dd,650c16f0f2faf8d7a0d14c09,651c1be23b9db8a0b84a2be7,null,null,"<p style=""font-size: 60px; font-family: BACS"">LuaUGUOA</p>",,,,,,,,,,
html-keyboard-response,432,639663,0.0-18.0-0.19,61055020201a7da5a704f7dd,650c16f0f2faf8d7a0d14c09,651c1be23b9db8a0b84a2be7,null,null,"<p style=""font-size: 60px; font-family: BACS"">ALGZJcUk</p>",,,,,,,,,,
html-keyboard-response,433,640680,0.0-18.0-0.20,61055020201a7da5a704f7dd,650c16f0f2faf8d7a0d14c09,651c1be23b9db8a0b84a2be7,null,null,"<p style=""font-size: 60px; font-family: BACS"">rvOvUkYL</p>",,,,,,,,,,
html-keyboard-response,434,641708,0.0-18.0-0.21,61055020201a7da5a704f7dd,650c16f0f2faf8d7a0d14c09,651c1be23b9db8a0b84a2be7,null,null,"<p style=""font-size: 60px; font-family: BACS"">NvuGrJcUk</p>",,,,,,,,,,
html-keyboard-response,435,642726,0.0-18.0-0.22,61055020201a7da5a704f7dd,650c16f0f2faf8d7a0d14c09,651c1be23b9db8a0b84a2be7,null,null,"<p style=""font-size: 60px; font-family: BACS"">BMEMAlMck</p>",,,,,,,,,,
html-keyboard-response,436,643754,0.0-18.0-0.23,61055020201a7da5a704f7dd,650c16f0f2faf8d7a0d14c09,651c1be23b9db8a0b84a2be7,null,null,"<p style=""font-size: 60px; font-family: BACS"">KElBTPOM</p>",,,,,,,,,,
html-keyboard-response,437,644791,0.0-18.0-0.24,61055020201a7da5a704f7dd,650c16f0f2faf8d7a0d14c09,651c1be23b9db8a0b84a2be7,null,null,"<p style=""font-size: 60px; font-family: BACS"">BMEMAYDTk</p>",,,,,,,,,,
html-keyboard-response,438,645812,0.0-18.0-0.25,61055020201a7da5a704f7dd,650c16f0f2faf8d7a0d14c09,651c1be23b9db8a0b84a2be7,null,null,"<p style=""font-size: 60px; font-family: BACS"">tRdMPMd</p>",,,,,,,,,,
html-keyboard-response,439,646832,0.0-18.0-0.26,61055020201a7da5a704f7dd,650c16f0f2faf8d7a0d14c09,651c1be23b9db8a0b84a2be7,null,null,"<p style=""font-size: 60px; font-family: BACS"">ldAaJcUk</p>",,,,,,,,,,
html-keyboard-response,440,647844,0.0-18.0-0.27,61055020201a7da5a704f7dd,650c16f0f2faf8d7a0d14c09,651c1be23b9db8a0b84a2be7,null,null,"<p style=""font-size: 60px; font-family: BACS"">MBmEkKE</p>",,,,,,,,,,
html-keyboard-response,441,648866,0.0-18.0-0.28,61055020201a7da5a704f7dd,650c16f0f2faf8d7a0d14c09,651c1be23b9db8a0b84a2be7,null,null,"<p style=""font-size: 60px; font-family: BACS"">rvOvUuvJ</p>",,,,,,,,,,
html-keyboard-response,442,649886,0.0-18.0-0.29,61055020201a7da5a704f7dd,650c16f0f2faf8d7a0d14c09,651c1be23b9db8a0b84a2be7,null,null,"<p style=""font-size: 60px; font-family: BACS"">ALGZGUOA</p>",,,,,,,,,,
html-keyboard-response,443,650913,0.0-18.0-0.30,61055020201a7da5a704f7dd,650c16f0f2faf8d7a0d14c09,651c1be23b9db8a0b84a2be7,null,null,"<p style=""font-size: 60px; font-family: BACS"">DhMtPMd</p>",,,,,,,,,,
html-keyboard-response,444,651938,0.0-18.0-0.31,61055020201a7da5a704f7dd,650c16f0f2faf8d7a0d14c09,651c1be23b9db8a0b84a2be7,null,null,"<p style=""font-size: 60px; font-family: BACS"">RCcEYDTk</p>",,,,,,,,,,
html-keyboard-response,445,652958,0.0-18.0-0.32,61055020201a7da5a704f7dd,650c16f0f2faf8d7a0d14c09,651c1be23b9db8a0b84a2be7,null,null,"<p style=""font-size: 60px; font-family: BACS"">kZUbJcUk</p>",,,,,,,,,,
html-keyboard-response,446,653965,0.0-18.0-0.33,61055020201a7da5a704f7dd,650c16f0f2faf8d7a0d14c09,651c1be23b9db8a0b84a2be7,null,null,"<p style=""font-size: 60px; font-family: BACS"">mkmJNuvJ</p>",,,,,,,,,,
html-keyboard-response,447,655001,0.0-18.0-0.34,61055020201a7da5a704f7dd,650c16f0f2faf8d7a0d14c09,651c1be23b9db8a0b84a2be7,null,null,"<p style=""font-size: 60px; font-family: BACS"">DhMtTPOM</p>",,,,,,,,,,
html-keyboard-response,448,656987,0.0-18.0-0.35,61055020201a7da5a704f7dd,650c16f0f2faf8d7a0d14c09,651c1be23b9db8a0b84a2be7,null,null,"<p style=""font-size: 60px; font-family: BACS"">KElBYDTk</p>",,,,,,,,,,
html-keyboard-response,449,657988,0.0-18.0-0.36,61055020201a7da5a704f7dd,650c16f0f2faf8d7a0d14c09,651c1be23b9db8a0b84a2be7,null,null,"<p style=""font-size: 60px; font-family: BACS"">kNuaJcUk</p>",,,,,,,,,,
html-keyboard-response,450,659001,0.0-18.0-0.37,61055020201a7da5a704f7dd,650c16f0f2faf8d7a0d14c09,651c1be23b9db8a0b84a2be7,null,null,"<p style=""font-size: 60px; font-family: BACS"">TdTDlMck</p>",,,,,,,,,,
html-keyboard-response,451,660985,0.0-18.0-0.38,61055020201a7da5a704f7dd,650c16f0f2faf8d7a0d14c09,651c1be23b9db8a0b84a2be7,null,null,"<p style=""font-size: 60px; font-family: BACS"">kNuakYL</p>",,,,,,,,,,
html-keyboard-response,452,661993,0.0-18.0-0.39,61055020201a7da5a704f7dd,650c16f0f2faf8d7a0d14c09,651c1be23b9db8a0b84a2be7,null,null,"<p style=""font-size: 60px; font-family: BACS"">ldAaJUNa</p>",,,,,,,,,,
html-keyboard-response,453,662996,0.0-18.0-0.40,61055020201a7da5a704f7dd,650c16f0f2faf8d7a0d14c09,651c1be23b9db8a0b84a2be7,null,null,"<p style=""font-size: 60px; font-family: BACS"">RCcETPOM</p>",,,,,,,,,,
html-keyboard-response,454,663997,0.0-18.0-0.41,61055020201a7da5a704f7dd,650c16f0f2faf8d7a0d14c09,651c1be23b9db8a0b84a2be7,null,null,"<p style=""font-size: 60px; font-family: BACS"">DhMtkKE</p>",,,,,,,,,,
html-keyboard-response,455,664997,0.0-18.0-0.42,61055020201a7da5a704f7dd,650c16f0f2faf8d7a0d14c09,651c1be23b9db8a0b84a2be7,null,null,"<p style=""font-size: 60px; font-family: BACS"">UaYLuvJ</p>",,,,,,,,,,
html-keyboard-response,456,666001,0.0-18.0-0.43,61055020201a7da5a704f7dd,650c16f0f2faf8d7a0d14c09,651c1be23b9db8a0b84a2be7,null,null,"<p style=""font-size: 60px; font-family: BACS"">TdTDYDTk</p>",,,,,,,,,,
html-keyboard-response,457,667011,0.0-18.0-0.44,61055020201a7da5a704f7dd,650c16f0f2faf8d7a0d14c09,651c1be23b9db8a0b84a2be7,null,null,"<p style=""font-size: 60px; font-family: BACS"">BMEMATPOM</p>",,,,,,,,,,
html-keyboard-response,458,668989,0.0-18.0-0.45,61055020201a7da5a704f7dd,650c16f0f2faf8d7a0d14c09,651c1be23b9db8a0b84a2be7,null,null,"<p style=""font-size: 60px; font-family: BACS"">LuaUkYL</p>",,,,,,,,,,
html-keyboard-response,459,671010,0.0-18.0-0.46,61055020201a7da5a704f7dd,650c16f0f2faf8d7a0d14c09,651c1be23b9db8a0b84a2be7,null,null,"<p style=""font-size: 60px; font-family: BACS"">NvuGruvJ</p>",,,,,,,,,,
html-keyboard-response,460,672991,0.0-18.0-0.47,61055020201a7da5a704f7dd,650c16f0f2faf8d7a0d14c09,651c1be23b9db8a0b84a2be7,null,null,"<p style=""font-size: 60px; font-family: BACS"">PEtEkKE</p>",,,,,,,,,,
html-keyboard-response,461,674991,0.0-18.0-0.48,61055020201a7da5a704f7dd,650c16f0f2faf8d7a0d14c09,651c1be23b9db8a0b84a2be7,null,null,"<p style=""font-size: 60px; font-family: BACS"">RCcEPMd</p>",,,,,,,,,,
html-keyboard-response,462,676991,0.0-18.0-0.49,61055020201a7da5a704f7dd,650c16f0f2faf8d7a0d14c09,651c1be23b9db8a0b84a2be7,null,null,"<p style=""font-size: 60px; font-family: BACS"">OJGQJUNa</p>",,,,,,,,,,
html-keyboard-response,463,677993,0.0-18.0-0.50,61055020201a7da5a704f7dd,650c16f0f2faf8d7a0d14c09,651c1be23b9db8a0b84a2be7,null,null,"<p style=""font-size: 60px; font-family: BACS"">KElBPMd</p>",,,,,,,,,,
html-keyboard-response,464,679986,0.0-18.0-0.51,61055020201a7da5a704f7dd,650c16f0f2faf8d7a0d14c09,651c1be23b9db8a0b84a2be7,null,null,"<p style=""font-size: 60px; font-family: BACS"">MlthTPOM</p>",,,,,,,,,,
html-keyboard-response,465,681002,0.0-18.0-0.52,61055020201a7da5a704f7dd,650c16f0f2faf8d7a0d14c09,651c1be23b9db8a0b84a2be7,null,null,"<p style=""font-size: 60px; font-family: BACS"">MBmElMck</p>",,,,,,,,,,
html-keyboard-response,466,682997,0.0-18.0-0.53,61055020201a7da5a704f7dd,650c16f0f2faf8d7a0d14c09,651c1be23b9db8a0b84a2be7,null,null,"<p style=""font-size: 60px; font-family: BACS"">NvuGrGUOA</p>",,,,,,,,,,
html-keyboard-response,467,684987,0.0-18.0-0.54,61055020201a7da5a704f7dd,650c16f0f2faf8d7a0d14c09,651c1be23b9db8a0b84a2be7,null,null,"<p style=""font-size: 60px; font-family: BACS"">mkmJNJUNa</p>",,,,,,,,,,
html-keyboard-response,468,686989,0.0-18.0-0.55,61055020201a7da5a704f7dd,650c16f0f2faf8d7a0d14c09,651c1be23b9db8a0b84a2be7,null,null,"<p style=""font-size: 60px; font-family: BACS"">ODBDAkKE</p>",,,,,,,,,,
