"trial_type","trial_index","time_elapsed","internal_node_id","subject_id","study_id","session_id","rt","response","stimulus","success","item","task","correct_response","testing_condition","correct","target","confound","name"
"pavlovia","0","2181","0.0-0.0","60a3fe2d888e7a090d6d8f82","650c16f0f2faf8d7a0d14c09","651c1d4d9a806b7d581df98e","","","","","","","","","","","",""
"survey-html-form","1","8887","0.0-1.0","60a3fe2d888e7a090d6d8f82","650c16f0f2faf8d7a0d14c09","651c1d4d9a806b7d581df98e","6702","{""ID"":""60a3fe2d888e7a090d6d8f82""}","","","","","","","","","",""
"html-keyboard-response","2","51613","0.0-2.0","60a3fe2d888e7a090d6d8f82","650c16f0f2faf8d7a0d14c09","651c1d4d9a806b7d581df98e","42724"," ","<p style=""font-size: 15px;"">Before beginning, we ask that you read the consent information and confirm your agreement to participate in the experiment.</p>
      <p style=""font-size: 15px;""> We ask that you remember that this is a research project and that your participation is entirely voluntary. You can stop your participation at any time, without needing to provide any explanation. The study we're asking you to participate in aims at examining how readers process written words. You will be engaged in a session of apprximately 20 minutes, followed by a brief questionnaire. You will have the opportunity to take a few breaks during the experiment. You will be paid £4 for your participation, corresponding to a rate of £8/hour. While this experiment looks at cognitive faculties, this experiment doesn't constitute clinical proof of eventual pathologies.</p>
      <p style=""font-size: 15px;"">All of the information collected thanks to yours and others' participation will be held in a secure password-protected server, and will not be shared with anyone not authorised to view it. Your personal information will be kept with an arbitrary participant ID. Thanks to this data anonymity process, any researcher analysing the data won't be able to track the information back to a specific participant. Therefore, this process will make identifying you impossibile, even when results from the study will be published in scientific reviews, presented at congresses, or at any other public forum. More generally, the collected data will be treated in accordance with the laws on privacy and conformity to the Legislative Degree n. 196 ""Code regarding the protection of personal data"" of the 30th of June 2003 and to the European Regulation 2016/670 (General Data Protection Regulation - GDPR). The Data Protection Officer is Avv. Valentina Carollo, who can be contacted at the following email addresses: <a href=""mailto:dpo@sissa.it"">dpo@sissa.it</a> or <a href=""mailto:rpd@sissa.it"">rpd@sissa.it</a> - PEC: <a href=""mailto:protocollo@pec.sissa.it"">protocollo@pec.sissa.it</a>.</p>
      <p style=""font-size: 15px;""> Before expressing your consent to participate, we would like to remind you again that in case you need explanations on any aspect of the experimental procedure, the researcher is at your disposition (<a href=""mailto:aliebelt@sissa.it"">aliebelt@sissa.it</a>, <a href=""mailto:davide.crepaldi@sissa.it"">davide.crepaldi@sissa.it</a>).</p>
      <p style=""font-size: 15px;"">If you would like to download the informed consent form, you can do so here: <a href=""BASL-Informed_Consent.pdf"" download>informed consent form</a>.</p>
      <p style=""font-size: 15px;"">We ask that you press the spacebar to proceed to the consent section.</p>","","","","","","","","",""
"survey-html-form","3","72929","0.0-3.0","60a3fe2d888e7a090d6d8f82","650c16f0f2faf8d7a0d14c09","651c1d4d9a806b7d581df98e","21313","{""consent1"":""YES"",""consent2"":""YES"",""consent3"":""YES"",""consent4"":""YES"",""consent5"":""YES"",""consent6"":""YES""}","","","","","","","","","",""
"fullscreen","4","81264","0.0-4.0","60a3fe2d888e7a090d6d8f82","650c16f0f2faf8d7a0d14c09","651c1d4d9a806b7d581df98e","","","","true","","","","","","","",""
"html-keyboard-response","5","99917","0.0-5.0","60a3fe2d888e7a090d6d8f82","650c16f0f2faf8d7a0d14c09","651c1d4d9a806b7d581df98e","18651"," ","<p>Welcome, and thank you very much for your time!</p>
      <p>In this experiment, you'll be a language expert who's been asked to take a look at words that Earth has received in its first communication with aliens. Your task, in this first part of the experiment, is to pay close attention to the words you'll be shown; later, world leaders will ask you questions on what you saw. The words will be shown to you quite quickly; it seems that the aliens were in a hurry :-)</p>
      <p>Press the spacebar to continue.<p>","","","","","","","","",""
"html-keyboard-response","6","99968","0.0-6.0","60a3fe2d888e7a090d6d8f82","650c16f0f2faf8d7a0d14c09","651c1d4d9a806b7d581df98e","null","null","<p style=""font-size: 120px; font-family: BACS""> </p>","","","","","","","","",""
"html-keyboard-response","7","106889","0.0-7.0","60a3fe2d888e7a090d6d8f82","650c16f0f2faf8d7a0d14c09","651c1d4d9a806b7d581df98e","6919"," ","<p>Here is an example of the words you'll see:</p>
      <img src='esempio.png' height='400px'>
      <p>When you're ready to begin, press the spacebar.</p></div>","","","","","","","","",""
"html-keyboard-response","8","107894","0.0-8.0-0.0","60a3fe2d888e7a090d6d8f82","650c16f0f2faf8d7a0d14c09","651c1d4d9a806b7d581df98e","null","null","<p style=""font-size: 60px; font-family: BACS"">YadrmZb</p>","","","","","","","","",""
"html-keyboard-response","9","108898","0.0-8.0-0.1","60a3fe2d888e7a090d6d8f82","650c16f0f2faf8d7a0d14c09","651c1d4d9a806b7d581df98e","null","null","<p style=""font-size: 60px; font-family: BACS"">bcORKOYC</p>","","","","","","","","",""
"html-keyboard-response","10","109900","0.0-8.0-0.2","60a3fe2d888e7a090d6d8f82","650c16f0f2faf8d7a0d14c09","651c1d4d9a806b7d581df98e","null","null","<p style=""font-size: 60px; font-family: BACS"">RhPmYcM</p>","","","","","","","","",""
"html-keyboard-response","11","110903","0.0-8.0-0.3","60a3fe2d888e7a090d6d8f82","650c16f0f2faf8d7a0d14c09","651c1d4d9a806b7d581df98e","null","null","<p style=""font-size: 60px; font-family: BACS"">LQurdYAJ</p>","","","","","","","","",""
"html-keyboard-response","12","111908","0.0-8.0-0.4","60a3fe2d888e7a090d6d8f82","650c16f0f2faf8d7a0d14c09","651c1d4d9a806b7d581df98e","null","null","<p style=""font-size: 60px; font-family: BACS"">OLJblmZb</p>","","","","","","","","",""
"html-keyboard-response","13","112911","0.0-8.0-0.5","60a3fe2d888e7a090d6d8f82","650c16f0f2faf8d7a0d14c09","651c1d4d9a806b7d581df98e","null","null","<p style=""font-size: 60px; font-family: BACS"">KMDYtOYK</p>","","","","","","","","",""
"html-keyboard-response","14","113914","0.0-8.0-0.6","60a3fe2d888e7a090d6d8f82","650c16f0f2faf8d7a0d14c09","651c1d4d9a806b7d581df98e","null","null","<p style=""font-size: 60px; font-family: BACS"">YOZNJZr</p>","","","","","","","","",""
"html-keyboard-response","15","114916","0.0-8.0-0.7","60a3fe2d888e7a090d6d8f82","650c16f0f2faf8d7a0d14c09","651c1d4d9a806b7d581df98e","null","null","<p style=""font-size: 60px; font-family: BACS"">dKRDOYK</p>","","","","","","","","",""
"html-keyboard-response","16","115919","0.0-8.0-0.8","60a3fe2d888e7a090d6d8f82","650c16f0f2faf8d7a0d14c09","651c1d4d9a806b7d581df98e","null","null","<p style=""font-size: 60px; font-family: BACS"">OLJblJZr</p>","","","","","","","","",""
"html-keyboard-response","17","116921","0.0-8.0-0.9","60a3fe2d888e7a090d6d8f82","650c16f0f2faf8d7a0d14c09","651c1d4d9a806b7d581df98e","null","null","<p style=""font-size: 60px; font-family: BACS"">OcYMKOYC</p>","","","","","","","","",""
"html-keyboard-response","18","117923","0.0-8.0-0.10","60a3fe2d888e7a090d6d8f82","650c16f0f2faf8d7a0d14c09","651c1d4d9a806b7d581df98e","null","null","<p style=""font-size: 60px; font-family: BACS"">dvNvAdYAJ</p>","","","","","","","","",""
"html-keyboard-response","19","118926","0.0-8.0-0.11","60a3fe2d888e7a090d6d8f82","650c16f0f2faf8d7a0d14c09","651c1d4d9a806b7d581df98e","null","null","<p style=""font-size: 60px; font-family: BACS"">bcORlMck</p>","","","","","","","","",""
"html-keyboard-response","20","119928","0.0-8.0-0.12","60a3fe2d888e7a090d6d8f82","650c16f0f2faf8d7a0d14c09","651c1d4d9a806b7d581df98e","null","null","<p style=""font-size: 60px; font-family: BACS"">vAuNlmZb</p>","","","","","","","","",""
"html-keyboard-response","21","120932","0.0-8.0-0.13","60a3fe2d888e7a090d6d8f82","650c16f0f2faf8d7a0d14c09","651c1d4d9a806b7d581df98e","null","null","<p style=""font-size: 60px; font-family: BACS"">dKRDbRC</p>","","","","","","","","",""
"html-keyboard-response","22","121935","0.0-8.0-0.14","60a3fe2d888e7a090d6d8f82","650c16f0f2faf8d7a0d14c09","651c1d4d9a806b7d581df98e","null","null","<p style=""font-size: 60px; font-family: BACS"">dClOCKOYC</p>","","","","","","","","",""
"html-keyboard-response","23","122937","0.0-8.0-0.15","60a3fe2d888e7a090d6d8f82","650c16f0f2faf8d7a0d14c09","651c1d4d9a806b7d581df98e","null","null","<p style=""font-size: 60px; font-family: BACS"">YadrdYAJ</p>","","","","","","","","",""
"html-keyboard-response","24","123941","0.0-8.0-0.16","60a3fe2d888e7a090d6d8f82","650c16f0f2faf8d7a0d14c09","651c1d4d9a806b7d581df98e","null","null","<p style=""font-size: 60px; font-family: BACS"">MBKRElMck</p>","","","","","","","","",""
"html-keyboard-response","25","124944","0.0-8.0-0.17","60a3fe2d888e7a090d6d8f82","650c16f0f2faf8d7a0d14c09","651c1d4d9a806b7d581df98e","null","null","<p style=""font-size: 60px; font-family: BACS"">dvNvAJUG</p>","","","","","","","","",""
"html-keyboard-response","26","125947","0.0-8.0-0.18","60a3fe2d888e7a090d6d8f82","650c16f0f2faf8d7a0d14c09","651c1d4d9a806b7d581df98e","null","null","<p style=""font-size: 60px; font-family: BACS"">PctRCKOYC</p>","","","","","","","","",""
"html-keyboard-response","27","126950","0.0-8.0-0.19","60a3fe2d888e7a090d6d8f82","650c16f0f2faf8d7a0d14c09","651c1d4d9a806b7d581df98e","null","null","<p style=""font-size: 60px; font-family: BACS"">YOZNJUG</p>","","","","","","","","",""
"html-keyboard-response","28","127952","0.0-8.0-0.20","60a3fe2d888e7a090d6d8f82","650c16f0f2faf8d7a0d14c09","651c1d4d9a806b7d581df98e","null","null","<p style=""font-size: 60px; font-family: BACS"">RhPmKOYC</p>","","","","","","","","",""
"html-keyboard-response","29","128954","0.0-8.0-0.21","60a3fe2d888e7a090d6d8f82","650c16f0f2faf8d7a0d14c09","651c1d4d9a806b7d581df98e","null","null","<p style=""font-size: 60px; font-family: BACS"">JvaAmZb</p>","","","","","","","","",""
"html-keyboard-response","30","129956","0.0-8.0-0.22","60a3fe2d888e7a090d6d8f82","650c16f0f2faf8d7a0d14c09","651c1d4d9a806b7d581df98e","null","null","<p style=""font-size: 60px; font-family: BACS"">vAuNldYAJ</p>","","","","","","","","",""
"html-keyboard-response","31","130959","0.0-8.0-0.23","60a3fe2d888e7a090d6d8f82","650c16f0f2faf8d7a0d14c09","651c1d4d9a806b7d581df98e","null","null","<p style=""font-size: 60px; font-family: BACS"">OcYMbRC</p>","","","","","","","","",""
"html-keyboard-response","32","131961","0.0-8.0-0.24","60a3fe2d888e7a090d6d8f82","650c16f0f2faf8d7a0d14c09","651c1d4d9a806b7d581df98e","null","null","<p style=""font-size: 60px; font-family: BACS"">LuNZdYAJ</p>","","","","","","","","",""
"html-keyboard-response","33","132964","0.0-8.0-0.25","60a3fe2d888e7a090d6d8f82","650c16f0f2faf8d7a0d14c09","651c1d4d9a806b7d581df98e","null","null","<p style=""font-size: 60px; font-family: BACS"">lGZvcbm</p>","","","","","","","","",""
"html-keyboard-response","34","133967","0.0-8.0-0.26","60a3fe2d888e7a090d6d8f82","650c16f0f2faf8d7a0d14c09","651c1d4d9a806b7d581df98e","null","null","<p style=""font-size: 60px; font-family: BACS"">GJGcZJUG</p>","","","","","","","","",""
"html-keyboard-response","35","134969","0.0-8.0-0.27","60a3fe2d888e7a090d6d8f82","650c16f0f2faf8d7a0d14c09","651c1d4d9a806b7d581df98e","null","null","<p style=""font-size: 60px; font-family: BACS"">lGZvdYAJ</p>","","","","","","","","",""
"html-keyboard-response","36","135972","0.0-8.0-0.28","60a3fe2d888e7a090d6d8f82","650c16f0f2faf8d7a0d14c09","651c1d4d9a806b7d581df98e","null","null","<p style=""font-size: 60px; font-family: BACS"">OLJblJUG</p>","","","","","","","","",""
"html-keyboard-response","37","136976","0.0-8.0-0.29","60a3fe2d888e7a090d6d8f82","650c16f0f2faf8d7a0d14c09","651c1d4d9a806b7d581df98e","null","null","<p style=""font-size: 60px; font-family: BACS"">dKRDKOYC</p>","","","","","","","","",""
"html-keyboard-response","38","137978","0.0-8.0-0.30","60a3fe2d888e7a090d6d8f82","650c16f0f2faf8d7a0d14c09","651c1d4d9a806b7d581df98e","null","null","<p style=""font-size: 60px; font-family: BACS"">AYkEhlMck</p>","","","","","","","","",""
"html-keyboard-response","39","138980","0.0-8.0-0.31","60a3fe2d888e7a090d6d8f82","650c16f0f2faf8d7a0d14c09","651c1d4d9a806b7d581df98e","null","null","<p style=""font-size: 60px; font-family: BACS"">MBKREbRC</p>","","","","","","","","",""
"html-keyboard-response","40","139982","0.0-8.0-0.32","60a3fe2d888e7a090d6d8f82","650c16f0f2faf8d7a0d14c09","651c1d4d9a806b7d581df98e","null","null","<p style=""font-size: 60px; font-family: BACS"">RhPmlMck</p>","","","","","","","","",""
"html-keyboard-response","41","140986","0.0-8.0-0.33","60a3fe2d888e7a090d6d8f82","650c16f0f2faf8d7a0d14c09","651c1d4d9a806b7d581df98e","null","null","<p style=""font-size: 60px; font-family: BACS"">GJGcZdYAJ</p>","","","","","","","","",""
"html-keyboard-response","42","141988","0.0-8.0-0.34","60a3fe2d888e7a090d6d8f82","650c16f0f2faf8d7a0d14c09","651c1d4d9a806b7d581df98e","null","null","<p style=""font-size: 60px; font-family: BACS"">vAuNlcbm</p>","","","","","","","","",""
"html-keyboard-response","43","142990","0.0-8.0-0.35","60a3fe2d888e7a090d6d8f82","650c16f0f2faf8d7a0d14c09","651c1d4d9a806b7d581df98e","null","null","<p style=""font-size: 60px; font-family: BACS"">dClOCYcM</p>","","","","","","","","",""
"html-keyboard-response","44","143993","0.0-8.0-0.36","60a3fe2d888e7a090d6d8f82","650c16f0f2faf8d7a0d14c09","651c1d4d9a806b7d581df98e","null","null","<p style=""font-size: 60px; font-family: BACS"">KAERMbRC</p>","","","","","","","","",""
"html-keyboard-response","45","144995","0.0-8.0-0.37","60a3fe2d888e7a090d6d8f82","650c16f0f2faf8d7a0d14c09","651c1d4d9a806b7d581df98e","null","null","<p style=""font-size: 60px; font-family: BACS"">dClOClMck</p>","","","","","","","","",""
"html-keyboard-response","46","146000","0.0-8.0-0.38","60a3fe2d888e7a090d6d8f82","650c16f0f2faf8d7a0d14c09","651c1d4d9a806b7d581df98e","null","null","<p style=""font-size: 60px; font-family: BACS"">OcYMOYK</p>","","","","","","","","",""
"html-keyboard-response","47","147002","0.0-8.0-0.39","60a3fe2d888e7a090d6d8f82","650c16f0f2faf8d7a0d14c09","651c1d4d9a806b7d581df98e","null","null","<p style=""font-size: 60px; font-family: BACS"">lGZvJUG</p>","","","","","","","","",""
"html-keyboard-response","48","148005","0.0-8.0-0.40","60a3fe2d888e7a090d6d8f82","650c16f0f2faf8d7a0d14c09","651c1d4d9a806b7d581df98e","null","null","<p style=""font-size: 60px; font-family: BACS"">KAERMYcM</p>","","","","","","","","",""
"html-keyboard-response","49","149009","0.0-8.0-0.41","60a3fe2d888e7a090d6d8f82","650c16f0f2faf8d7a0d14c09","651c1d4d9a806b7d581df98e","null","null","<p style=""font-size: 60px; font-family: BACS"">JvaAJZr</p>","","","","","","","","",""
"html-keyboard-response","50","150011","0.0-8.0-0.42","60a3fe2d888e7a090d6d8f82","650c16f0f2faf8d7a0d14c09","651c1d4d9a806b7d581df98e","null","null","<p style=""font-size: 60px; font-family: BACS"">dKRDYcM</p>","","","","","","","","",""
"html-keyboard-response","51","151016","0.0-8.0-0.43","60a3fe2d888e7a090d6d8f82","650c16f0f2faf8d7a0d14c09","651c1d4d9a806b7d581df98e","null","null","<p style=""font-size: 60px; font-family: BACS"">YOZNdYAJ</p>","","","","","","","","",""
"html-keyboard-response","52","152018","0.0-8.0-0.44","60a3fe2d888e7a090d6d8f82","650c16f0f2faf8d7a0d14c09","651c1d4d9a806b7d581df98e","null","null","<p style=""font-size: 60px; font-family: BACS"">GJGcZcbm</p>","","","","","","","","",""
"html-keyboard-response","53","153019","0.0-8.0-0.45","60a3fe2d888e7a090d6d8f82","650c16f0f2faf8d7a0d14c09","651c1d4d9a806b7d581df98e","null","null","<p style=""font-size: 60px; font-family: BACS"">PctRClMck</p>","","","","","","","","",""
"html-keyboard-response","54","154021","0.0-8.0-0.46","60a3fe2d888e7a090d6d8f82","650c16f0f2faf8d7a0d14c09","651c1d4d9a806b7d581df98e","null","null","<p style=""font-size: 60px; font-family: BACS"">LQurJZr</p>","","","","","","","","",""
"html-keyboard-response","55","155025","0.0-8.0-0.47","60a3fe2d888e7a090d6d8f82","650c16f0f2faf8d7a0d14c09","651c1d4d9a806b7d581df98e","null","null","<p style=""font-size: 60px; font-family: BACS"">bcOROYK</p>","","","","","","","","",""
"html-keyboard-response","56","156027","0.0-8.0-0.48","60a3fe2d888e7a090d6d8f82","650c16f0f2faf8d7a0d14c09","651c1d4d9a806b7d581df98e","null","null","<p style=""font-size: 60px; font-family: BACS"">AYkEhbRC</p>","","","","","","","","",""
"html-keyboard-response","57","157031","0.0-8.0-0.49","60a3fe2d888e7a090d6d8f82","650c16f0f2faf8d7a0d14c09","651c1d4d9a806b7d581df98e","null","null","<p style=""font-size: 60px; font-family: BACS"">MBKREYcM</p>","","","","","","","","",""
"html-keyboard-response","58","158034","0.0-8.0-0.50","60a3fe2d888e7a090d6d8f82","650c16f0f2faf8d7a0d14c09","651c1d4d9a806b7d581df98e","null","null","<p style=""font-size: 60px; font-family: BACS"">LQurJUG</p>","","","","","","","","",""
"html-keyboard-response","59","159037","0.0-8.0-0.51","60a3fe2d888e7a090d6d8f82","650c16f0f2faf8d7a0d14c09","651c1d4d9a806b7d581df98e","null","null","<p style=""font-size: 60px; font-family: BACS"">MBKREKOYC</p>","","","","","","","","",""
"html-keyboard-response","60","160039","0.0-8.0-0.52","60a3fe2d888e7a090d6d8f82","650c16f0f2faf8d7a0d14c09","651c1d4d9a806b7d581df98e","null","null","<p style=""font-size: 60px; font-family: BACS"">LuNZmZb</p>","","","","","","","","",""
"html-keyboard-response","61","161041","0.0-8.0-0.53","60a3fe2d888e7a090d6d8f82","650c16f0f2faf8d7a0d14c09","651c1d4d9a806b7d581df98e","null","null","<p style=""font-size: 60px; font-family: BACS"">YOZNcbm</p>","","","","","","","","",""
"html-keyboard-response","62","162044","0.0-8.0-0.54","60a3fe2d888e7a090d6d8f82","650c16f0f2faf8d7a0d14c09","651c1d4d9a806b7d581df98e","null","null","<p style=""font-size: 60px; font-family: BACS"">KMDYtKOYC</p>","","","","","","","","",""
"html-keyboard-response","63","163046","0.0-8.0-0.55","60a3fe2d888e7a090d6d8f82","650c16f0f2faf8d7a0d14c09","651c1d4d9a806b7d581df98e","null","null","<p style=""font-size: 60px; font-family: BACS"">LuNZcbm</p>","","","","","","","","",""
"html-keyboard-response","64","164049","0.0-8.0-0.56","60a3fe2d888e7a090d6d8f82","650c16f0f2faf8d7a0d14c09","651c1d4d9a806b7d581df98e","null","null","<p style=""font-size: 60px; font-family: BACS"">AYkEhOYK</p>","","","","","","","","",""
"html-keyboard-response","65","165052","0.0-8.0-0.57","60a3fe2d888e7a090d6d8f82","650c16f0f2faf8d7a0d14c09","651c1d4d9a806b7d581df98e","null","null","<p style=""font-size: 60px; font-family: BACS"">OcYMYcM</p>","","","","","","","","",""
"html-keyboard-response","66","166055","0.0-8.0-0.58","60a3fe2d888e7a090d6d8f82","650c16f0f2faf8d7a0d14c09","651c1d4d9a806b7d581df98e","null","null","<p style=""font-size: 60px; font-family: BACS"">LQurmZb</p>","","","","","","","","",""
"html-keyboard-response","67","167058","0.0-8.0-0.59","60a3fe2d888e7a090d6d8f82","650c16f0f2faf8d7a0d14c09","651c1d4d9a806b7d581df98e","null","null","<p style=""font-size: 60px; font-family: BACS"">YadrJUG</p>","","","","","","","","",""
"html-keyboard-response","68","168061","0.0-8.0-0.60","60a3fe2d888e7a090d6d8f82","650c16f0f2faf8d7a0d14c09","651c1d4d9a806b7d581df98e","null","null","<p style=""font-size: 60px; font-family: BACS"">PctRCOYK</p>","","","","","","","","",""
"html-keyboard-response","69","169064","0.0-8.0-0.61","60a3fe2d888e7a090d6d8f82","650c16f0f2faf8d7a0d14c09","651c1d4d9a806b7d581df98e","null","null","<p style=""font-size: 60px; font-family: BACS"">OLJblcbm</p>","","","","","","","","",""
"html-keyboard-response","70","170066","0.0-8.0-0.62","60a3fe2d888e7a090d6d8f82","650c16f0f2faf8d7a0d14c09","651c1d4d9a806b7d581df98e","null","null","<p style=""font-size: 60px; font-family: BACS"">GJGcZmZb</p>","","","","","","","","",""
"html-keyboard-response","71","171069","0.0-8.0-0.63","60a3fe2d888e7a090d6d8f82","650c16f0f2faf8d7a0d14c09","651c1d4d9a806b7d581df98e","null","null","<p style=""font-size: 60px; font-family: BACS"">dvNvAJZr</p>","","","","","","","","",""
"html-keyboard-response","72","172073","0.0-8.0-0.64","60a3fe2d888e7a090d6d8f82","650c16f0f2faf8d7a0d14c09","651c1d4d9a806b7d581df98e","null","null","<p style=""font-size: 60px; font-family: BACS"">KMDYtlMck</p>","","","","","","","","",""
"html-keyboard-response","73","173083","0.0-8.0-0.65","60a3fe2d888e7a090d6d8f82","650c16f0f2faf8d7a0d14c09","651c1d4d9a806b7d581df98e","null","null","<p style=""font-size: 60px; font-family: BACS"">JvaAcbm</p>","","","","","","","","",""
"html-keyboard-response","74","174086","0.0-8.0-0.66","60a3fe2d888e7a090d6d8f82","650c16f0f2faf8d7a0d14c09","651c1d4d9a806b7d581df98e","null","null","<p style=""font-size: 60px; font-family: BACS"">lGZvmZb</p>","","","","","","","","",""
"html-keyboard-response","75","175090","0.0-8.0-0.67","60a3fe2d888e7a090d6d8f82","650c16f0f2faf8d7a0d14c09","651c1d4d9a806b7d581df98e","null","null","<p style=""font-size: 60px; font-family: BACS"">PctRCbRC</p>","","","","","","","","",""
"html-keyboard-response","76","176093","0.0-8.0-0.68","60a3fe2d888e7a090d6d8f82","650c16f0f2faf8d7a0d14c09","651c1d4d9a806b7d581df98e","null","null","<p style=""font-size: 60px; font-family: BACS"">YadrJZr</p>","","","","","","","","",""
"html-keyboard-response","77","177096","0.0-8.0-0.69","60a3fe2d888e7a090d6d8f82","650c16f0f2faf8d7a0d14c09","651c1d4d9a806b7d581df98e","null","null","<p style=""font-size: 60px; font-family: BACS"">bcORbRC</p>","","","","","","","","",""
"html-keyboard-response","78","178099","0.0-8.0-0.70","60a3fe2d888e7a090d6d8f82","650c16f0f2faf8d7a0d14c09","651c1d4d9a806b7d581df98e","null","null","<p style=""font-size: 60px; font-family: BACS"">LuNZJZr</p>","","","","","","","","",""
"html-keyboard-response","79","179103","0.0-8.0-0.71","60a3fe2d888e7a090d6d8f82","650c16f0f2faf8d7a0d14c09","651c1d4d9a806b7d581df98e","null","null","<p style=""font-size: 60px; font-family: BACS"">JvaAJUG</p>","","","","","","","","",""
"html-keyboard-response","80","180107","0.0-8.0-0.72","60a3fe2d888e7a090d6d8f82","650c16f0f2faf8d7a0d14c09","651c1d4d9a806b7d581df98e","null","null","<p style=""font-size: 60px; font-family: BACS"">KAERMOYK</p>","","","","","","","","",""
"html-keyboard-response","81","181109","0.0-8.0-0.73","60a3fe2d888e7a090d6d8f82","650c16f0f2faf8d7a0d14c09","651c1d4d9a806b7d581df98e","null","null","<p style=""font-size: 60px; font-family: BACS"">RhPmbRC</p>","","","","","","","","",""
"html-keyboard-response","82","182112","0.0-8.0-0.74","60a3fe2d888e7a090d6d8f82","650c16f0f2faf8d7a0d14c09","651c1d4d9a806b7d581df98e","null","null","<p style=""font-size: 60px; font-family: BACS"">dvNvAcbm</p>","","","","","","","","",""
"html-keyboard-response","83","183114","0.0-8.0-0.75","60a3fe2d888e7a090d6d8f82","650c16f0f2faf8d7a0d14c09","651c1d4d9a806b7d581df98e","null","null","<p style=""font-size: 60px; font-family: BACS"">KMDYtYcM</p>","","","","","","","","",""
"html-keyboard-response","84","184117","0.0-8.0-0.76","60a3fe2d888e7a090d6d8f82","650c16f0f2faf8d7a0d14c09","651c1d4d9a806b7d581df98e","null","null","<p style=""font-size: 60px; font-family: BACS"">KAERMlMck</p>","","","","","","","","",""
"html-keyboard-response","85","185121","0.0-8.0-0.77","60a3fe2d888e7a090d6d8f82","650c16f0f2faf8d7a0d14c09","651c1d4d9a806b7d581df98e","null","null","<p style=""font-size: 60px; font-family: BACS"">dClOCOYK</p>","","","","","","","","",""
"html-keyboard-response","86","186125","0.0-8.0-0.78","60a3fe2d888e7a090d6d8f82","650c16f0f2faf8d7a0d14c09","651c1d4d9a806b7d581df98e","null","null","<p style=""font-size: 60px; font-family: BACS"">AYkEhYcM</p>","","","","","","","","",""
"html-keyboard-response","87","187127","0.0-8.0-0.79","60a3fe2d888e7a090d6d8f82","650c16f0f2faf8d7a0d14c09","651c1d4d9a806b7d581df98e","null","null","<p style=""font-size: 60px; font-family: BACS"">vAuNlJZr</p>","","","","","","","","",""
"html-keyboard-response","88","190842","0.0-9.0","60a3fe2d888e7a090d6d8f82","650c16f0f2faf8d7a0d14c09","651c1d4d9a806b7d581df98e","3713"," ","<p>Great, you've seen the first block of words. You may now take a short break.</p>
      <p>Press the spacebar when you're ready to continue.</p>","","","","","","","","",""
"html-keyboard-response","89","191844","0.0-10.0-0.0","60a3fe2d888e7a090d6d8f82","650c16f0f2faf8d7a0d14c09","651c1d4d9a806b7d581df98e","null","null","<p style=""font-size: 60px; font-family: BACS"">dKRDKOYC</p>","","","","","","","","",""
"html-keyboard-response","90","192845","0.0-10.0-0.1","60a3fe2d888e7a090d6d8f82","650c16f0f2faf8d7a0d14c09","651c1d4d9a806b7d581df98e","null","null","<p style=""font-size: 60px; font-family: BACS"">LQurJZr</p>","","","","","","","","",""
"html-keyboard-response","91","193849","0.0-10.0-0.2","60a3fe2d888e7a090d6d8f82","650c16f0f2faf8d7a0d14c09","651c1d4d9a806b7d581df98e","null","null","<p style=""font-size: 60px; font-family: BACS"">KAERMlMck</p>","","","","","","","","",""
"html-keyboard-response","92","194852","0.0-10.0-0.3","60a3fe2d888e7a090d6d8f82","650c16f0f2faf8d7a0d14c09","651c1d4d9a806b7d581df98e","null","null","<p style=""font-size: 60px; font-family: BACS"">JvaAcbm</p>","","","","","","","","",""
"html-keyboard-response","93","195855","0.0-10.0-0.4","60a3fe2d888e7a090d6d8f82","650c16f0f2faf8d7a0d14c09","651c1d4d9a806b7d581df98e","null","null","<p style=""font-size: 60px; font-family: BACS"">OLJblJUG</p>","","","","","","","","",""
"html-keyboard-response","94","196857","0.0-10.0-0.5","60a3fe2d888e7a090d6d8f82","650c16f0f2faf8d7a0d14c09","651c1d4d9a806b7d581df98e","null","null","<p style=""font-size: 60px; font-family: BACS"">KMDYtKOYC</p>","","","","","","","","",""
"html-keyboard-response","95","197860","0.0-10.0-0.6","60a3fe2d888e7a090d6d8f82","650c16f0f2faf8d7a0d14c09","651c1d4d9a806b7d581df98e","null","null","<p style=""font-size: 60px; font-family: BACS"">OLJblJZr</p>","","","","","","","","",""
"html-keyboard-response","96","198862","0.0-10.0-0.7","60a3fe2d888e7a090d6d8f82","650c16f0f2faf8d7a0d14c09","651c1d4d9a806b7d581df98e","null","null","<p style=""font-size: 60px; font-family: BACS"">dvNvAdYAJ</p>","","","","","","","","",""
"html-keyboard-response","97","199864","0.0-10.0-0.8","60a3fe2d888e7a090d6d8f82","650c16f0f2faf8d7a0d14c09","651c1d4d9a806b7d581df98e","null","null","<p style=""font-size: 60px; font-family: BACS"">GJGcZJUG</p>","","","","","","","","",""
"html-keyboard-response","98","200867","0.0-10.0-0.9","60a3fe2d888e7a090d6d8f82","650c16f0f2faf8d7a0d14c09","651c1d4d9a806b7d581df98e","null","null","<p style=""font-size: 60px; font-family: BACS"">OcYMOYK</p>","","","","","","","","",""
"html-keyboard-response","99","201869","0.0-10.0-0.10","60a3fe2d888e7a090d6d8f82","650c16f0f2faf8d7a0d14c09","651c1d4d9a806b7d581df98e","null","null","<p style=""font-size: 60px; font-family: BACS"">LuNZmZb</p>","","","","","","","","",""
"html-keyboard-response","100","202872","0.0-10.0-0.11","60a3fe2d888e7a090d6d8f82","650c16f0f2faf8d7a0d14c09","651c1d4d9a806b7d581df98e","null","null","<p style=""font-size: 60px; font-family: BACS"">vAuNlJZr</p>","","","","","","","","",""
"html-keyboard-response","101","203875","0.0-10.0-0.12","60a3fe2d888e7a090d6d8f82","650c16f0f2faf8d7a0d14c09","651c1d4d9a806b7d581df98e","null","null","<p style=""font-size: 60px; font-family: BACS"">RhPmlMck</p>","","","","","","","","",""
"html-keyboard-response","102","204878","0.0-10.0-0.13","60a3fe2d888e7a090d6d8f82","650c16f0f2faf8d7a0d14c09","651c1d4d9a806b7d581df98e","null","null","<p style=""font-size: 60px; font-family: BACS"">bcORKOYC</p>","","","","","","","","",""
"html-keyboard-response","103","205881","0.0-10.0-0.14","60a3fe2d888e7a090d6d8f82","650c16f0f2faf8d7a0d14c09","651c1d4d9a806b7d581df98e","null","null","<p style=""font-size: 60px; font-family: BACS"">LuNZdYAJ</p>","","","","","","","","",""
"html-keyboard-response","104","206884","0.0-10.0-0.15","60a3fe2d888e7a090d6d8f82","650c16f0f2faf8d7a0d14c09","651c1d4d9a806b7d581df98e","null","null","<p style=""font-size: 60px; font-family: BACS"">YadrJZr</p>","","","","","","","","",""
"html-keyboard-response","105","207886","0.0-10.0-0.16","60a3fe2d888e7a090d6d8f82","650c16f0f2faf8d7a0d14c09","651c1d4d9a806b7d581df98e","null","null","<p style=""font-size: 60px; font-family: BACS"">OcYMYcM</p>","","","","","","","","",""
"html-keyboard-response","106","208890","0.0-10.0-0.17","60a3fe2d888e7a090d6d8f82","650c16f0f2faf8d7a0d14c09","651c1d4d9a806b7d581df98e","null","null","<p style=""font-size: 60px; font-family: BACS"">JvaAJZr</p>","","","","","","","","",""
"html-keyboard-response","107","209891","0.0-10.0-0.18","60a3fe2d888e7a090d6d8f82","650c16f0f2faf8d7a0d14c09","651c1d4d9a806b7d581df98e","null","null","<p style=""font-size: 60px; font-family: BACS"">AYkEhlMck</p>","","","","","","","","",""
"html-keyboard-response","108","210895","0.0-10.0-0.19","60a3fe2d888e7a090d6d8f82","650c16f0f2faf8d7a0d14c09","651c1d4d9a806b7d581df98e","null","null","<p style=""font-size: 60px; font-family: BACS"">GJGcZmZb</p>","","","","","","","","",""
"html-keyboard-response","109","211898","0.0-10.0-0.20","60a3fe2d888e7a090d6d8f82","650c16f0f2faf8d7a0d14c09","651c1d4d9a806b7d581df98e","null","null","<p style=""font-size: 60px; font-family: BACS"">lGZvcbm</p>","","","","","","","","",""
"html-keyboard-response","110","212899","0.0-10.0-0.21","60a3fe2d888e7a090d6d8f82","650c16f0f2faf8d7a0d14c09","651c1d4d9a806b7d581df98e","null","null","<p style=""font-size: 60px; font-family: BACS"">KAERMOYK</p>","","","","","","","","",""
"html-keyboard-response","111","213901","0.0-10.0-0.22","60a3fe2d888e7a090d6d8f82","650c16f0f2faf8d7a0d14c09","651c1d4d9a806b7d581df98e","null","null","<p style=""font-size: 60px; font-family: BACS"">bcORlMck</p>","","","","","","","","",""
"html-keyboard-response","112","214904","0.0-10.0-0.23","60a3fe2d888e7a090d6d8f82","650c16f0f2faf8d7a0d14c09","651c1d4d9a806b7d581df98e","null","null","<p style=""font-size: 60px; font-family: BACS"">YadrdYAJ</p>","","","","","","","","",""
"html-keyboard-response","113","215907","0.0-10.0-0.24","60a3fe2d888e7a090d6d8f82","650c16f0f2faf8d7a0d14c09","651c1d4d9a806b7d581df98e","null","null","<p style=""font-size: 60px; font-family: BACS"">LQurmZb</p>","","","","","","","","",""
"html-keyboard-response","114","216910","0.0-10.0-0.25","60a3fe2d888e7a090d6d8f82","650c16f0f2faf8d7a0d14c09","651c1d4d9a806b7d581df98e","null","null","<p style=""font-size: 60px; font-family: BACS"">AYkEhOYK</p>","","","","","","","","",""
"html-keyboard-response","115","217913","0.0-10.0-0.26","60a3fe2d888e7a090d6d8f82","650c16f0f2faf8d7a0d14c09","651c1d4d9a806b7d581df98e","null","null","<p style=""font-size: 60px; font-family: BACS"">dClOCKOYC</p>","","","","","","","","",""
"html-keyboard-response","116","218915","0.0-10.0-0.27","60a3fe2d888e7a090d6d8f82","650c16f0f2faf8d7a0d14c09","651c1d4d9a806b7d581df98e","null","null","<p style=""font-size: 60px; font-family: BACS"">GJGcZdYAJ</p>","","","","","","","","",""
"html-keyboard-response","117","219918","0.0-10.0-0.28","60a3fe2d888e7a090d6d8f82","650c16f0f2faf8d7a0d14c09","651c1d4d9a806b7d581df98e","null","null","<p style=""font-size: 60px; font-family: BACS"">YadrmZb</p>","","","","","","","","",""
"html-keyboard-response","118","220921","0.0-10.0-0.29","60a3fe2d888e7a090d6d8f82","650c16f0f2faf8d7a0d14c09","651c1d4d9a806b7d581df98e","null","null","<p style=""font-size: 60px; font-family: BACS"">KAERMbRC</p>","","","","","","","","",""
"html-keyboard-response","119","221924","0.0-10.0-0.30","60a3fe2d888e7a090d6d8f82","650c16f0f2faf8d7a0d14c09","651c1d4d9a806b7d581df98e","null","null","<p style=""font-size: 60px; font-family: BACS"">lGZvdYAJ</p>","","","","","","","","",""
"html-keyboard-response","120","222927","0.0-10.0-0.31","60a3fe2d888e7a090d6d8f82","650c16f0f2faf8d7a0d14c09","651c1d4d9a806b7d581df98e","null","null","<p style=""font-size: 60px; font-family: BACS"">PctRCKOYC</p>","","","","","","","","",""
"html-keyboard-response","121","223929","0.0-10.0-0.32","60a3fe2d888e7a090d6d8f82","650c16f0f2faf8d7a0d14c09","651c1d4d9a806b7d581df98e","null","null","<p style=""font-size: 60px; font-family: BACS"">vAuNlcbm</p>","","","","","","","","",""
"html-keyboard-response","122","224933","0.0-10.0-0.33","60a3fe2d888e7a090d6d8f82","650c16f0f2faf8d7a0d14c09","651c1d4d9a806b7d581df98e","null","null","<p style=""font-size: 60px; font-family: BACS"">bcORbRC</p>","","","","","","","","",""
"html-keyboard-response","123","225938","0.0-10.0-0.34","60a3fe2d888e7a090d6d8f82","650c16f0f2faf8d7a0d14c09","651c1d4d9a806b7d581df98e","null","null","<p style=""font-size: 60px; font-family: BACS"">JvaAmZb</p>","","","","","","","","",""
"html-keyboard-response","124","226940","0.0-10.0-0.35","60a3fe2d888e7a090d6d8f82","650c16f0f2faf8d7a0d14c09","651c1d4d9a806b7d581df98e","null","null","<p style=""font-size: 60px; font-family: BACS"">PctRCOYK</p>","","","","","","","","",""
"html-keyboard-response","125","227943","0.0-10.0-0.36","60a3fe2d888e7a090d6d8f82","650c16f0f2faf8d7a0d14c09","651c1d4d9a806b7d581df98e","null","null","<p style=""font-size: 60px; font-family: BACS"">LQurdYAJ</p>","","","","","","","","",""
"html-keyboard-response","126","228946","0.0-10.0-0.37","60a3fe2d888e7a090d6d8f82","650c16f0f2faf8d7a0d14c09","651c1d4d9a806b7d581df98e","null","null","<p style=""font-size: 60px; font-family: BACS"">OLJblmZb</p>","","","","","","","","",""
"html-keyboard-response","127","229948","0.0-10.0-0.38","60a3fe2d888e7a090d6d8f82","650c16f0f2faf8d7a0d14c09","651c1d4d9a806b7d581df98e","null","null","<p style=""font-size: 60px; font-family: BACS"">LuNZcbm</p>","","","","","","","","",""
"html-keyboard-response","128","230952","0.0-10.0-0.39","60a3fe2d888e7a090d6d8f82","650c16f0f2faf8d7a0d14c09","651c1d4d9a806b7d581df98e","null","null","<p style=""font-size: 60px; font-family: BACS"">dClOClMck</p>","","","","","","","","",""
"html-keyboard-response","129","231957","0.0-10.0-0.40","60a3fe2d888e7a090d6d8f82","650c16f0f2faf8d7a0d14c09","651c1d4d9a806b7d581df98e","null","null","<p style=""font-size: 60px; font-family: BACS"">vAuNlmZb</p>","","","","","","","","",""
"html-keyboard-response","130","232959","0.0-10.0-0.41","60a3fe2d888e7a090d6d8f82","650c16f0f2faf8d7a0d14c09","651c1d4d9a806b7d581df98e","null","null","<p style=""font-size: 60px; font-family: BACS"">dKRDbRC</p>","","","","","","","","",""
"html-keyboard-response","131","233963","0.0-10.0-0.42","60a3fe2d888e7a090d6d8f82","650c16f0f2faf8d7a0d14c09","651c1d4d9a806b7d581df98e","null","null","<p style=""font-size: 60px; font-family: BACS"">OLJblcbm</p>","","","","","","","","",""
"html-keyboard-response","132","234964","0.0-10.0-0.43","60a3fe2d888e7a090d6d8f82","650c16f0f2faf8d7a0d14c09","651c1d4d9a806b7d581df98e","null","null","<p style=""font-size: 60px; font-family: BACS"">MBKREYcM</p>","","","","","","","","",""
"html-keyboard-response","133","235967","0.0-10.0-0.44","60a3fe2d888e7a090d6d8f82","650c16f0f2faf8d7a0d14c09","651c1d4d9a806b7d581df98e","null","null","<p style=""font-size: 60px; font-family: BACS"">lGZvmZb</p>","","","","","","","","",""
"html-keyboard-response","134","236969","0.0-10.0-0.45","60a3fe2d888e7a090d6d8f82","650c16f0f2faf8d7a0d14c09","651c1d4d9a806b7d581df98e","null","null","<p style=""font-size: 60px; font-family: BACS"">dvNvAcbm</p>","","","","","","","","",""
"html-keyboard-response","135","237972","0.0-10.0-0.46","60a3fe2d888e7a090d6d8f82","650c16f0f2faf8d7a0d14c09","651c1d4d9a806b7d581df98e","null","null","<p style=""font-size: 60px; font-family: BACS"">YOZNdYAJ</p>","","","","","","","","",""
"html-keyboard-response","136","238974","0.0-10.0-0.47","60a3fe2d888e7a090d6d8f82","650c16f0f2faf8d7a0d14c09","651c1d4d9a806b7d581df98e","null","null","<p style=""font-size: 60px; font-family: BACS"">dvNvAJZr</p>","","","","","","","","",""
"html-keyboard-response","137","239978","0.0-10.0-0.48","60a3fe2d888e7a090d6d8f82","650c16f0f2faf8d7a0d14c09","651c1d4d9a806b7d581df98e","null","null","<p style=""font-size: 60px; font-family: BACS"">dKRDYcM</p>","","","","","","","","",""
"html-keyboard-response","138","240980","0.0-10.0-0.49","60a3fe2d888e7a090d6d8f82","650c16f0f2faf8d7a0d14c09","651c1d4d9a806b7d581df98e","null","null","<p style=""font-size: 60px; font-family: BACS"">MBKREKOYC</p>","","","","","","","","",""
"html-keyboard-response","139","241983","0.0-10.0-0.50","60a3fe2d888e7a090d6d8f82","650c16f0f2faf8d7a0d14c09","651c1d4d9a806b7d581df98e","null","null","<p style=""font-size: 60px; font-family: BACS"">AYkEhbRC</p>","","","","","","","","",""
"html-keyboard-response","140","242985","0.0-10.0-0.51","60a3fe2d888e7a090d6d8f82","650c16f0f2faf8d7a0d14c09","651c1d4d9a806b7d581df98e","null","null","<p style=""font-size: 60px; font-family: BACS"">RhPmKOYC</p>","","","","","","","","",""
"html-keyboard-response","141","243987","0.0-10.0-0.52","60a3fe2d888e7a090d6d8f82","650c16f0f2faf8d7a0d14c09","651c1d4d9a806b7d581df98e","null","null","<p style=""font-size: 60px; font-family: BACS"">dvNvAJUG</p>","","","","","","","","",""
"html-keyboard-response","142","244990","0.0-10.0-0.53","60a3fe2d888e7a090d6d8f82","650c16f0f2faf8d7a0d14c09","651c1d4d9a806b7d581df98e","null","null","<p style=""font-size: 60px; font-family: BACS"">KMDYtOYK</p>","","","","","","","","",""
"html-keyboard-response","143","245991","0.0-10.0-0.54","60a3fe2d888e7a090d6d8f82","650c16f0f2faf8d7a0d14c09","651c1d4d9a806b7d581df98e","null","null","<p style=""font-size: 60px; font-family: BACS"">LuNZJZr</p>","","","","","","","","",""
"html-keyboard-response","144","246994","0.0-10.0-0.55","60a3fe2d888e7a090d6d8f82","650c16f0f2faf8d7a0d14c09","651c1d4d9a806b7d581df98e","null","null","<p style=""font-size: 60px; font-family: BACS"">YOZNJUG</p>","","","","","","","","",""
"html-keyboard-response","145","247996","0.0-10.0-0.56","60a3fe2d888e7a090d6d8f82","650c16f0f2faf8d7a0d14c09","651c1d4d9a806b7d581df98e","null","null","<p style=""font-size: 60px; font-family: BACS"">PctRCbRC</p>","","","","","","","","",""
"html-keyboard-response","146","248998","0.0-10.0-0.57","60a3fe2d888e7a090d6d8f82","650c16f0f2faf8d7a0d14c09","651c1d4d9a806b7d581df98e","null","null","<p style=""font-size: 60px; font-family: BACS"">KMDYtlMck</p>","","","","","","","","",""
"html-keyboard-response","147","250002","0.0-10.0-0.58","60a3fe2d888e7a090d6d8f82","650c16f0f2faf8d7a0d14c09","651c1d4d9a806b7d581df98e","null","null","<p style=""font-size: 60px; font-family: BACS"">bcOROYK</p>","","","","","","","","",""
"html-keyboard-response","148","251004","0.0-10.0-0.59","60a3fe2d888e7a090d6d8f82","650c16f0f2faf8d7a0d14c09","651c1d4d9a806b7d581df98e","null","null","<p style=""font-size: 60px; font-family: BACS"">GJGcZcbm</p>","","","","","","","","",""
"html-keyboard-response","149","252006","0.0-10.0-0.60","60a3fe2d888e7a090d6d8f82","650c16f0f2faf8d7a0d14c09","651c1d4d9a806b7d581df98e","null","null","<p style=""font-size: 60px; font-family: BACS"">dClOCYcM</p>","","","","","","","","",""
"html-keyboard-response","150","253009","0.0-10.0-0.61","60a3fe2d888e7a090d6d8f82","650c16f0f2faf8d7a0d14c09","651c1d4d9a806b7d581df98e","null","null","<p style=""font-size: 60px; font-family: BACS"">YOZNJZr</p>","","","","","","","","",""
"html-keyboard-response","151","254012","0.0-10.0-0.62","60a3fe2d888e7a090d6d8f82","650c16f0f2faf8d7a0d14c09","651c1d4d9a806b7d581df98e","null","null","<p style=""font-size: 60px; font-family: BACS"">vAuNldYAJ</p>","","","","","","","","",""
"html-keyboard-response","152","255015","0.0-10.0-0.63","60a3fe2d888e7a090d6d8f82","650c16f0f2faf8d7a0d14c09","651c1d4d9a806b7d581df98e","null","null","<p style=""font-size: 60px; font-family: BACS"">YOZNcbm</p>","","","","","","","","",""
"html-keyboard-response","153","256017","0.0-10.0-0.64","60a3fe2d888e7a090d6d8f82","650c16f0f2faf8d7a0d14c09","651c1d4d9a806b7d581df98e","null","null","<p style=""font-size: 60px; font-family: BACS"">RhPmbRC</p>","","","","","","","","",""
"html-keyboard-response","154","257020","0.0-10.0-0.65","60a3fe2d888e7a090d6d8f82","650c16f0f2faf8d7a0d14c09","651c1d4d9a806b7d581df98e","null","null","<p style=""font-size: 60px; font-family: BACS"">YadrJUG</p>","","","","","","","","",""
"html-keyboard-response","155","258023","0.0-10.0-0.66","60a3fe2d888e7a090d6d8f82","650c16f0f2faf8d7a0d14c09","651c1d4d9a806b7d581df98e","null","null","<p style=""font-size: 60px; font-family: BACS"">MBKRElMck</p>","","","","","","","","",""
"html-keyboard-response","156","259024","0.0-10.0-0.67","60a3fe2d888e7a090d6d8f82","650c16f0f2faf8d7a0d14c09","651c1d4d9a806b7d581df98e","null","null","<p style=""font-size: 60px; font-family: BACS"">OcYMKOYC</p>","","","","","","","","",""
"html-keyboard-response","157","260026","0.0-10.0-0.68","60a3fe2d888e7a090d6d8f82","650c16f0f2faf8d7a0d14c09","651c1d4d9a806b7d581df98e","null","null","<p style=""font-size: 60px; font-family: BACS"">RhPmYcM</p>","","","","","","","","",""
"html-keyboard-response","158","261029","0.0-10.0-0.69","60a3fe2d888e7a090d6d8f82","650c16f0f2faf8d7a0d14c09","651c1d4d9a806b7d581df98e","null","null","<p style=""font-size: 60px; font-family: BACS"">JvaAJUG</p>","","","","","","","","",""
"html-keyboard-response","159","262031","0.0-10.0-0.70","60a3fe2d888e7a090d6d8f82","650c16f0f2faf8d7a0d14c09","651c1d4d9a806b7d581df98e","null","null","<p style=""font-size: 60px; font-family: BACS"">KAERMYcM</p>","","","","","","","","",""
"html-keyboard-response","160","263034","0.0-10.0-0.71","60a3fe2d888e7a090d6d8f82","650c16f0f2faf8d7a0d14c09","651c1d4d9a806b7d581df98e","null","null","<p style=""font-size: 60px; font-family: BACS"">MBKREbRC</p>","","","","","","","","",""
"html-keyboard-response","161","264035","0.0-10.0-0.72","60a3fe2d888e7a090d6d8f82","650c16f0f2faf8d7a0d14c09","651c1d4d9a806b7d581df98e","null","null","<p style=""font-size: 60px; font-family: BACS"">lGZvJUG</p>","","","","","","","","",""
"html-keyboard-response","162","265037","0.0-10.0-0.73","60a3fe2d888e7a090d6d8f82","650c16f0f2faf8d7a0d14c09","651c1d4d9a806b7d581df98e","null","null","<p style=""font-size: 60px; font-family: BACS"">PctRClMck</p>","","","","","","","","",""
"html-keyboard-response","163","266040","0.0-10.0-0.74","60a3fe2d888e7a090d6d8f82","650c16f0f2faf8d7a0d14c09","651c1d4d9a806b7d581df98e","null","null","<p style=""font-size: 60px; font-family: BACS"">dClOCOYK</p>","","","","","","","","",""
"html-keyboard-response","164","267042","0.0-10.0-0.75","60a3fe2d888e7a090d6d8f82","650c16f0f2faf8d7a0d14c09","651c1d4d9a806b7d581df98e","null","null","<p style=""font-size: 60px; font-family: BACS"">KMDYtYcM</p>","","","","","","","","",""
"html-keyboard-response","165","268044","0.0-10.0-0.76","60a3fe2d888e7a090d6d8f82","650c16f0f2faf8d7a0d14c09","651c1d4d9a806b7d581df98e","null","null","<p style=""font-size: 60px; font-family: BACS"">dKRDOYK</p>","","","","","","","","",""
"html-keyboard-response","166","269048","0.0-10.0-0.77","60a3fe2d888e7a090d6d8f82","650c16f0f2faf8d7a0d14c09","651c1d4d9a806b7d581df98e","null","null","<p style=""font-size: 60px; font-family: BACS"">AYkEhYcM</p>","","","","","","","","",""
"html-keyboard-response","167","270051","0.0-10.0-0.78","60a3fe2d888e7a090d6d8f82","650c16f0f2faf8d7a0d14c09","651c1d4d9a806b7d581df98e","null","null","<p style=""font-size: 60px; font-family: BACS"">OcYMbRC</p>","","","","","","","","",""
"html-keyboard-response","168","271053","0.0-10.0-0.79","60a3fe2d888e7a090d6d8f82","650c16f0f2faf8d7a0d14c09","651c1d4d9a806b7d581df98e","null","null","<p style=""font-size: 60px; font-family: BACS"">LQurJUG</p>","","","","","","","","",""
"html-keyboard-response","169","274593","0.0-11.0","60a3fe2d888e7a090d6d8f82","650c16f0f2faf8d7a0d14c09","651c1d4d9a806b7d581df98e","3539"," ","<p>Great, you've seen the second block of words. You may now take a short break.</p>
      <p>Press the spacebar when you're ready to continue.</p>","","","","","","","","",""
"html-keyboard-response","170","275594","0.0-12.0-0.0","60a3fe2d888e7a090d6d8f82","650c16f0f2faf8d7a0d14c09","651c1d4d9a806b7d581df98e","null","null","<p style=""font-size: 60px; font-family: BACS"">RhPmbRC</p>","","","","","","","","",""
"html-keyboard-response","171","276596","0.0-12.0-0.1","60a3fe2d888e7a090d6d8f82","650c16f0f2faf8d7a0d14c09","651c1d4d9a806b7d581df98e","null","null","<p style=""font-size: 60px; font-family: BACS"">YadrJZr</p>","","","","","","","","",""
"html-keyboard-response","172","277600","0.0-12.0-0.2","60a3fe2d888e7a090d6d8f82","650c16f0f2faf8d7a0d14c09","651c1d4d9a806b7d581df98e","null","null","<p style=""font-size: 60px; font-family: BACS"">KMDYtYcM</p>","","","","","","","","",""
"html-keyboard-response","173","278601","0.0-12.0-0.3","60a3fe2d888e7a090d6d8f82","650c16f0f2faf8d7a0d14c09","651c1d4d9a806b7d581df98e","null","null","<p style=""font-size: 60px; font-family: BACS"">LuNZdYAJ</p>","","","","","","","","",""
"html-keyboard-response","174","279604","0.0-12.0-0.4","60a3fe2d888e7a090d6d8f82","650c16f0f2faf8d7a0d14c09","651c1d4d9a806b7d581df98e","null","null","<p style=""font-size: 60px; font-family: BACS"">dClOCKOYC</p>","","","","","","","","",""
"html-keyboard-response","175","280607","0.0-12.0-0.5","60a3fe2d888e7a090d6d8f82","650c16f0f2faf8d7a0d14c09","651c1d4d9a806b7d581df98e","null","null","<p style=""font-size: 60px; font-family: BACS"">OcYMbRC</p>","","","","","","","","",""
"html-keyboard-response","176","281614","0.0-12.0-0.6","60a3fe2d888e7a090d6d8f82","650c16f0f2faf8d7a0d14c09","651c1d4d9a806b7d581df98e","null","null","<p style=""font-size: 60px; font-family: BACS"">LuNZJZr</p>","","","","","","","","",""
"html-keyboard-response","177","282616","0.0-12.0-0.7","60a3fe2d888e7a090d6d8f82","650c16f0f2faf8d7a0d14c09","651c1d4d9a806b7d581df98e","null","null","<p style=""font-size: 60px; font-family: BACS"">OLJblmZb</p>","","","","","","","","",""
"html-keyboard-response","178","283619","0.0-12.0-0.8","60a3fe2d888e7a090d6d8f82","650c16f0f2faf8d7a0d14c09","651c1d4d9a806b7d581df98e","null","null","<p style=""font-size: 60px; font-family: BACS"">PctRCbRC</p>","","","","","","","","",""
"html-keyboard-response","179","284621","0.0-12.0-0.9","60a3fe2d888e7a090d6d8f82","650c16f0f2faf8d7a0d14c09","651c1d4d9a806b7d581df98e","null","null","<p style=""font-size: 60px; font-family: BACS"">vAuNlmZb</p>","","","","","","","","",""
"html-keyboard-response","180","285624","0.0-12.0-0.10","60a3fe2d888e7a090d6d8f82","650c16f0f2faf8d7a0d14c09","651c1d4d9a806b7d581df98e","null","null","<p style=""font-size: 60px; font-family: BACS"">KMDYtKOYC</p>","","","","","","","","",""
"html-keyboard-response","181","286627","0.0-12.0-0.11","60a3fe2d888e7a090d6d8f82","650c16f0f2faf8d7a0d14c09","651c1d4d9a806b7d581df98e","null","null","<p style=""font-size: 60px; font-family: BACS"">MBKREbRC</p>","","","","","","","","",""
"html-keyboard-response","182","287630","0.0-12.0-0.12","60a3fe2d888e7a090d6d8f82","650c16f0f2faf8d7a0d14c09","651c1d4d9a806b7d581df98e","null","null","<p style=""font-size: 60px; font-family: BACS"">JvaAcbm</p>","","","","","","","","",""
"html-keyboard-response","183","288633","0.0-12.0-0.13","60a3fe2d888e7a090d6d8f82","650c16f0f2faf8d7a0d14c09","651c1d4d9a806b7d581df98e","null","null","<p style=""font-size: 60px; font-family: BACS"">OcYMYcM</p>","","","","","","","","",""
"html-keyboard-response","184","289635","0.0-12.0-0.14","60a3fe2d888e7a090d6d8f82","650c16f0f2faf8d7a0d14c09","651c1d4d9a806b7d581df98e","null","null","<p style=""font-size: 60px; font-family: BACS"">KAERMOYK</p>","","","","","","","","",""
"html-keyboard-response","185","290638","0.0-12.0-0.15","60a3fe2d888e7a090d6d8f82","650c16f0f2faf8d7a0d14c09","651c1d4d9a806b7d581df98e","null","null","<p style=""font-size: 60px; font-family: BACS"">dvNvAJZr</p>","","","","","","","","",""
"html-keyboard-response","186","291641","0.0-12.0-0.16","60a3fe2d888e7a090d6d8f82","650c16f0f2faf8d7a0d14c09","651c1d4d9a806b7d581df98e","null","null","<p style=""font-size: 60px; font-family: BACS"">OLJblJUG</p>","","","","","","","","",""
"html-keyboard-response","187","292644","0.0-12.0-0.17","60a3fe2d888e7a090d6d8f82","650c16f0f2faf8d7a0d14c09","651c1d4d9a806b7d581df98e","null","null","<p style=""font-size: 60px; font-family: BACS"">lGZvcbm</p>","","","","","","","","",""
"html-keyboard-response","188","293648","0.0-12.0-0.18","60a3fe2d888e7a090d6d8f82","650c16f0f2faf8d7a0d14c09","651c1d4d9a806b7d581df98e","null","null","<p style=""font-size: 60px; font-family: BACS"">LQurJUG</p>","","","","","","","","",""
"html-keyboard-response","189","294650","0.0-12.0-0.19","60a3fe2d888e7a090d6d8f82","650c16f0f2faf8d7a0d14c09","651c1d4d9a806b7d581df98e","null","null","<p style=""font-size: 60px; font-family: BACS"">AYkEhYcM</p>","","","","","","","","",""
"html-keyboard-response","190","295652","0.0-12.0-0.20","60a3fe2d888e7a090d6d8f82","650c16f0f2faf8d7a0d14c09","651c1d4d9a806b7d581df98e","null","null","<p style=""font-size: 60px; font-family: BACS"">PctRCKOYC</p>","","","","","","","","",""
"html-keyboard-response","191","296656","0.0-12.0-0.21","60a3fe2d888e7a090d6d8f82","650c16f0f2faf8d7a0d14c09","651c1d4d9a806b7d581df98e","null","null","<p style=""font-size: 60px; font-family: BACS"">GJGcZJUG</p>","","","","","","","","",""
"html-keyboard-response","192","297658","0.0-12.0-0.22","60a3fe2d888e7a090d6d8f82","650c16f0f2faf8d7a0d14c09","651c1d4d9a806b7d581df98e","null","null","<p style=""font-size: 60px; font-family: BACS"">YadrdYAJ</p>","","","","","","","","",""
"html-keyboard-response","193","298660","0.0-12.0-0.23","60a3fe2d888e7a090d6d8f82","650c16f0f2faf8d7a0d14c09","651c1d4d9a806b7d581df98e","null","null","<p style=""font-size: 60px; font-family: BACS"">OLJblcbm</p>","","","","","","","","",""
"html-keyboard-response","194","299663","0.0-12.0-0.24","60a3fe2d888e7a090d6d8f82","650c16f0f2faf8d7a0d14c09","651c1d4d9a806b7d581df98e","null","null","<p style=""font-size: 60px; font-family: BACS"">dKRDbRC</p>","","","","","","","","",""
"html-keyboard-response","195","300666","0.0-12.0-0.25","60a3fe2d888e7a090d6d8f82","650c16f0f2faf8d7a0d14c09","651c1d4d9a806b7d581df98e","null","null","<p style=""font-size: 60px; font-family: BACS"">GJGcZdYAJ</p>","","","","","","","","",""
"html-keyboard-response","196","301668","0.0-12.0-0.26","60a3fe2d888e7a090d6d8f82","650c16f0f2faf8d7a0d14c09","651c1d4d9a806b7d581df98e","null","null","<p style=""font-size: 60px; font-family: BACS"">KAERMlMck</p>","","","","","","","","",""
"html-keyboard-response","197","302670","0.0-12.0-0.27","60a3fe2d888e7a090d6d8f82","650c16f0f2faf8d7a0d14c09","651c1d4d9a806b7d581df98e","null","null","<p style=""font-size: 60px; font-family: BACS"">LuNZcbm</p>","","","","","","","","",""
"html-keyboard-response","198","303673","0.0-12.0-0.28","60a3fe2d888e7a090d6d8f82","650c16f0f2faf8d7a0d14c09","651c1d4d9a806b7d581df98e","null","null","<p style=""font-size: 60px; font-family: BACS"">RhPmlMck</p>","","","","","","","","",""
"html-keyboard-response","199","304675","0.0-12.0-0.29","60a3fe2d888e7a090d6d8f82","650c16f0f2faf8d7a0d14c09","651c1d4d9a806b7d581df98e","null","null","<p style=""font-size: 60px; font-family: BACS"">lGZvJUG</p>","","","","","","","","",""
"html-keyboard-response","200","305677","0.0-12.0-0.30","60a3fe2d888e7a090d6d8f82","650c16f0f2faf8d7a0d14c09","651c1d4d9a806b7d581df98e","null","null","<p style=""font-size: 60px; font-family: BACS"">dKRDKOYC</p>","","","","","","","","",""
"html-keyboard-response","201","306680","0.0-12.0-0.31","60a3fe2d888e7a090d6d8f82","650c16f0f2faf8d7a0d14c09","651c1d4d9a806b7d581df98e","null","null","<p style=""font-size: 60px; font-family: BACS"">AYkEhOYK</p>","","","","","","","","",""
"html-keyboard-response","202","307683","0.0-12.0-0.32","60a3fe2d888e7a090d6d8f82","650c16f0f2faf8d7a0d14c09","651c1d4d9a806b7d581df98e","null","null","<p style=""font-size: 60px; font-family: BACS"">dClOCYcM</p>","","","","","","","","",""
"html-keyboard-response","203","308686","0.0-12.0-0.33","60a3fe2d888e7a090d6d8f82","650c16f0f2faf8d7a0d14c09","651c1d4d9a806b7d581df98e","null","null","<p style=""font-size: 60px; font-family: BACS"">bcOROYK</p>","","","","","","","","",""
"html-keyboard-response","204","309689","0.0-12.0-0.34","60a3fe2d888e7a090d6d8f82","650c16f0f2faf8d7a0d14c09","651c1d4d9a806b7d581df98e","null","null","<p style=""font-size: 60px; font-family: BACS"">JvaAJZr</p>","","","","","","","","",""
"html-keyboard-response","205","310691","0.0-12.0-0.35","60a3fe2d888e7a090d6d8f82","650c16f0f2faf8d7a0d14c09","651c1d4d9a806b7d581df98e","null","null","<p style=""font-size: 60px; font-family: BACS"">vAuNldYAJ</p>","","","","","","","","",""
"html-keyboard-response","206","311693","0.0-12.0-0.36","60a3fe2d888e7a090d6d8f82","650c16f0f2faf8d7a0d14c09","651c1d4d9a806b7d581df98e","null","null","<p style=""font-size: 60px; font-family: BACS"">OcYMOYK</p>","","","","","","","","",""
"html-keyboard-response","207","312696","0.0-12.0-0.37","60a3fe2d888e7a090d6d8f82","650c16f0f2faf8d7a0d14c09","651c1d4d9a806b7d581df98e","null","null","<p style=""font-size: 60px; font-family: BACS"">vAuNlcbm</p>","","","","","","","","",""
"html-keyboard-response","208","313698","0.0-12.0-0.38","60a3fe2d888e7a090d6d8f82","650c16f0f2faf8d7a0d14c09","651c1d4d9a806b7d581df98e","null","null","<p style=""font-size: 60px; font-family: BACS"">PctRCOYK</p>","","","","","","","","",""
"html-keyboard-response","209","314701","0.0-12.0-0.39","60a3fe2d888e7a090d6d8f82","650c16f0f2faf8d7a0d14c09","651c1d4d9a806b7d581df98e","null","null","<p style=""font-size: 60px; font-family: BACS"">LuNZmZb</p>","","","","","","","","",""
"html-keyboard-response","210","315704","0.0-12.0-0.40","60a3fe2d888e7a090d6d8f82","650c16f0f2faf8d7a0d14c09","651c1d4d9a806b7d581df98e","null","null","<p style=""font-size: 60px; font-family: BACS"">KAERMYcM</p>","","","","","","","","",""
"html-keyboard-response","211","316706","0.0-12.0-0.41","60a3fe2d888e7a090d6d8f82","650c16f0f2faf8d7a0d14c09","651c1d4d9a806b7d581df98e","null","null","<p style=""font-size: 60px; font-family: BACS"">MBKRElMck</p>","","","","","","","","",""
"html-keyboard-response","212","317708","0.0-12.0-0.42","60a3fe2d888e7a090d6d8f82","650c16f0f2faf8d7a0d14c09","651c1d4d9a806b7d581df98e","null","null","<p style=""font-size: 60px; font-family: BACS"">KAERMbRC</p>","","","","","","","","",""
"html-keyboard-response","213","318711","0.0-12.0-0.43","60a3fe2d888e7a090d6d8f82","650c16f0f2faf8d7a0d14c09","651c1d4d9a806b7d581df98e","null","null","<p style=""font-size: 60px; font-family: BACS"">vAuNlJZr</p>","","","","","","","","",""
"html-keyboard-response","214","319714","0.0-12.0-0.44","60a3fe2d888e7a090d6d8f82","650c16f0f2faf8d7a0d14c09","651c1d4d9a806b7d581df98e","null","null","<p style=""font-size: 60px; font-family: BACS"">AYkEhlMck</p>","","","","","","","","",""
"html-keyboard-response","215","320716","0.0-12.0-0.45","60a3fe2d888e7a090d6d8f82","650c16f0f2faf8d7a0d14c09","651c1d4d9a806b7d581df98e","null","null","<p style=""font-size: 60px; font-family: BACS"">YOZNJUG</p>","","","","","","","","",""
"html-keyboard-response","216","321718","0.0-12.0-0.46","60a3fe2d888e7a090d6d8f82","650c16f0f2faf8d7a0d14c09","651c1d4d9a806b7d581df98e","null","null","<p style=""font-size: 60px; font-family: BACS"">YadrmZb</p>","","","","","","","","",""
"html-keyboard-response","217","322720","0.0-12.0-0.47","60a3fe2d888e7a090d6d8f82","650c16f0f2faf8d7a0d14c09","651c1d4d9a806b7d581df98e","null","null","<p style=""font-size: 60px; font-family: BACS"">OcYMKOYC</p>","","","","","","","","",""
"html-keyboard-response","218","323723","0.0-12.0-0.48","60a3fe2d888e7a090d6d8f82","650c16f0f2faf8d7a0d14c09","651c1d4d9a806b7d581df98e","null","null","<p style=""font-size: 60px; font-family: BACS"">lGZvmZb</p>","","","","","","","","",""
"html-keyboard-response","219","324726","0.0-12.0-0.49","60a3fe2d888e7a090d6d8f82","650c16f0f2faf8d7a0d14c09","651c1d4d9a806b7d581df98e","null","null","<p style=""font-size: 60px; font-family: BACS"">GJGcZcbm</p>","","","","","","","","",""
"html-keyboard-response","220","325729","0.0-12.0-0.50","60a3fe2d888e7a090d6d8f82","650c16f0f2faf8d7a0d14c09","651c1d4d9a806b7d581df98e","null","null","<p style=""font-size: 60px; font-family: BACS"">bcORlMck</p>","","","","","","","","",""
"html-keyboard-response","221","326731","0.0-12.0-0.51","60a3fe2d888e7a090d6d8f82","650c16f0f2faf8d7a0d14c09","651c1d4d9a806b7d581df98e","null","null","<p style=""font-size: 60px; font-family: BACS"">LQurmZb</p>","","","","","","","","",""
"html-keyboard-response","222","327733","0.0-12.0-0.52","60a3fe2d888e7a090d6d8f82","650c16f0f2faf8d7a0d14c09","651c1d4d9a806b7d581df98e","null","null","<p style=""font-size: 60px; font-family: BACS"">YOZNJZr</p>","","","","","","","","",""
"html-keyboard-response","223","328735","0.0-12.0-0.53","60a3fe2d888e7a090d6d8f82","650c16f0f2faf8d7a0d14c09","651c1d4d9a806b7d581df98e","null","null","<p style=""font-size: 60px; font-family: BACS"">dKRDOYK</p>","","","","","","","","",""
"html-keyboard-response","224","329738","0.0-12.0-0.54","60a3fe2d888e7a090d6d8f82","650c16f0f2faf8d7a0d14c09","651c1d4d9a806b7d581df98e","null","null","<p style=""font-size: 60px; font-family: BACS"">YOZNdYAJ</p>","","","","","","","","",""
"html-keyboard-response","225","330741","0.0-12.0-0.55","60a3fe2d888e7a090d6d8f82","650c16f0f2faf8d7a0d14c09","651c1d4d9a806b7d581df98e","null","null","<p style=""font-size: 60px; font-family: BACS"">AYkEhbRC</p>","","","","","","","","",""
"html-keyboard-response","226","331745","0.0-12.0-0.56","60a3fe2d888e7a090d6d8f82","650c16f0f2faf8d7a0d14c09","651c1d4d9a806b7d581df98e","null","null","<p style=""font-size: 60px; font-family: BACS"">dClOClMck</p>","","","","","","","","",""
"html-keyboard-response","227","332749","0.0-12.0-0.57","60a3fe2d888e7a090d6d8f82","650c16f0f2faf8d7a0d14c09","651c1d4d9a806b7d581df98e","null","null","<p style=""font-size: 60px; font-family: BACS"">YadrJUG</p>","","","","","","","","",""
"html-keyboard-response","228","333752","0.0-12.0-0.58","60a3fe2d888e7a090d6d8f82","650c16f0f2faf8d7a0d14c09","651c1d4d9a806b7d581df98e","null","null","<p style=""font-size: 60px; font-family: BACS"">RhPmYcM</p>","","","","","","","","",""
"html-keyboard-response","229","334754","0.0-12.0-0.59","60a3fe2d888e7a090d6d8f82","650c16f0f2faf8d7a0d14c09","651c1d4d9a806b7d581df98e","null","null","<p style=""font-size: 60px; font-family: BACS"">bcORKOYC</p>","","","","","","","","",""
"html-keyboard-response","230","335757","0.0-12.0-0.60","60a3fe2d888e7a090d6d8f82","650c16f0f2faf8d7a0d14c09","651c1d4d9a806b7d581df98e","null","null","<p style=""font-size: 60px; font-family: BACS"">OLJblJZr</p>","","","","","","","","",""
"html-keyboard-response","231","336758","0.0-12.0-0.61","60a3fe2d888e7a090d6d8f82","650c16f0f2faf8d7a0d14c09","651c1d4d9a806b7d581df98e","null","null","<p style=""font-size: 60px; font-family: BACS"">GJGcZmZb</p>","","","","","","","","",""
"html-keyboard-response","232","337761","0.0-12.0-0.62","60a3fe2d888e7a090d6d8f82","650c16f0f2faf8d7a0d14c09","651c1d4d9a806b7d581df98e","null","null","<p style=""font-size: 60px; font-family: BACS"">KMDYtlMck</p>","","","","","","","","",""
"html-keyboard-response","233","338764","0.0-12.0-0.63","60a3fe2d888e7a090d6d8f82","650c16f0f2faf8d7a0d14c09","651c1d4d9a806b7d581df98e","null","null","<p style=""font-size: 60px; font-family: BACS"">dvNvAdYAJ</p>","","","","","","","","",""
"html-keyboard-response","234","339769","0.0-12.0-0.64","60a3fe2d888e7a090d6d8f82","650c16f0f2faf8d7a0d14c09","651c1d4d9a806b7d581df98e","null","null","<p style=""font-size: 60px; font-family: BACS"">KMDYtOYK</p>","","","","","","","","",""
"html-keyboard-response","235","340770","0.0-12.0-0.65","60a3fe2d888e7a090d6d8f82","650c16f0f2faf8d7a0d14c09","651c1d4d9a806b7d581df98e","null","null","<p style=""font-size: 60px; font-family: BACS"">LQurdYAJ</p>","","","","","","","","",""
"html-keyboard-response","236","341772","0.0-12.0-0.66","60a3fe2d888e7a090d6d8f82","650c16f0f2faf8d7a0d14c09","651c1d4d9a806b7d581df98e","null","null","<p style=""font-size: 60px; font-family: BACS"">JvaAJUG</p>","","","","","","","","",""
"html-keyboard-response","237","342775","0.0-12.0-0.67","60a3fe2d888e7a090d6d8f82","650c16f0f2faf8d7a0d14c09","651c1d4d9a806b7d581df98e","null","null","<p style=""font-size: 60px; font-family: BACS"">bcORbRC</p>","","","","","","","","",""
"html-keyboard-response","238","343777","0.0-12.0-0.68","60a3fe2d888e7a090d6d8f82","650c16f0f2faf8d7a0d14c09","651c1d4d9a806b7d581df98e","null","null","<p style=""font-size: 60px; font-family: BACS"">dClOCOYK</p>","","","","","","","","",""
"html-keyboard-response","239","344780","0.0-12.0-0.69","60a3fe2d888e7a090d6d8f82","650c16f0f2faf8d7a0d14c09","651c1d4d9a806b7d581df98e","null","null","<p style=""font-size: 60px; font-family: BACS"">lGZvdYAJ</p>","","","","","","","","",""
"html-keyboard-response","240","345783","0.0-12.0-0.70","60a3fe2d888e7a090d6d8f82","650c16f0f2faf8d7a0d14c09","651c1d4d9a806b7d581df98e","null","null","<p style=""font-size: 60px; font-family: BACS"">dvNvAJUG</p>","","","","","","","","",""
"html-keyboard-response","241","346786","0.0-12.0-0.71","60a3fe2d888e7a090d6d8f82","650c16f0f2faf8d7a0d14c09","651c1d4d9a806b7d581df98e","null","null","<p style=""font-size: 60px; font-family: BACS"">PctRClMck</p>","","","","","","","","",""
"html-keyboard-response","242","347790","0.0-12.0-0.72","60a3fe2d888e7a090d6d8f82","650c16f0f2faf8d7a0d14c09","651c1d4d9a806b7d581df98e","null","null","<p style=""font-size: 60px; font-family: BACS"">JvaAmZb</p>","","","","","","","","",""
"html-keyboard-response","243","348792","0.0-12.0-0.73","60a3fe2d888e7a090d6d8f82","650c16f0f2faf8d7a0d14c09","651c1d4d9a806b7d581df98e","null","null","<p style=""font-size: 60px; font-family: BACS"">RhPmKOYC</p>","","","","","","","","",""
"html-keyboard-response","244","349794","0.0-12.0-0.74","60a3fe2d888e7a090d6d8f82","650c16f0f2faf8d7a0d14c09","651c1d4d9a806b7d581df98e","null","null","<p style=""font-size: 60px; font-family: BACS"">LQurJZr</p>","","","","","","","","",""
"html-keyboard-response","245","350797","0.0-12.0-0.75","60a3fe2d888e7a090d6d8f82","650c16f0f2faf8d7a0d14c09","651c1d4d9a806b7d581df98e","null","null","<p style=""font-size: 60px; font-family: BACS"">MBKREKOYC</p>","","","","","","","","",""
"html-keyboard-response","246","351799","0.0-12.0-0.76","60a3fe2d888e7a090d6d8f82","650c16f0f2faf8d7a0d14c09","651c1d4d9a806b7d581df98e","null","null","<p style=""font-size: 60px; font-family: BACS"">dvNvAcbm</p>","","","","","","","","",""
"html-keyboard-response","247","352802","0.0-12.0-0.77","60a3fe2d888e7a090d6d8f82","650c16f0f2faf8d7a0d14c09","651c1d4d9a806b7d581df98e","null","null","<p style=""font-size: 60px; font-family: BACS"">MBKREYcM</p>","","","","","","","","",""
"html-keyboard-response","248","353806","0.0-12.0-0.78","60a3fe2d888e7a090d6d8f82","650c16f0f2faf8d7a0d14c09","651c1d4d9a806b7d581df98e","null","null","<p style=""font-size: 60px; font-family: BACS"">YOZNcbm</p>","","","","","","","","",""
"html-keyboard-response","249","354807","0.0-12.0-0.79","60a3fe2d888e7a090d6d8f82","650c16f0f2faf8d7a0d14c09","651c1d4d9a806b7d581df98e","null","null","<p style=""font-size: 60px; font-family: BACS"">dKRDYcM</p>","","","","","","","","",""
"html-keyboard-response","250","366506","0.0-13.0","60a3fe2d888e7a090d6d8f82","650c16f0f2faf8d7a0d14c09","651c1d4d9a806b7d581df98e","11696"," ","<p>Great, you've seen the third block of words. You may now take a short break.</p>
      <p>Press the spacebar when you're ready to continue.</p>","","","","","","","","",""
"html-keyboard-response","251","367507","0.0-14.0-0.0","60a3fe2d888e7a090d6d8f82","650c16f0f2faf8d7a0d14c09","651c1d4d9a806b7d581df98e","null","null","<p style=""font-size: 60px; font-family: BACS"">AYkEhlMck</p>","","","","","","","","",""
"html-keyboard-response","252","368510","0.0-14.0-0.1","60a3fe2d888e7a090d6d8f82","650c16f0f2faf8d7a0d14c09","651c1d4d9a806b7d581df98e","null","null","<p style=""font-size: 60px; font-family: BACS"">KAERMYcM</p>","","","","","","","","",""
"html-keyboard-response","253","369512","0.0-14.0-0.2","60a3fe2d888e7a090d6d8f82","650c16f0f2faf8d7a0d14c09","651c1d4d9a806b7d581df98e","null","null","<p style=""font-size: 60px; font-family: BACS"">YOZNdYAJ</p>","","","","","","","","",""
"html-keyboard-response","254","370514","0.0-14.0-0.3","60a3fe2d888e7a090d6d8f82","650c16f0f2faf8d7a0d14c09","651c1d4d9a806b7d581df98e","null","null","<p style=""font-size: 60px; font-family: BACS"">PctRCOYK</p>","","","","","","","","",""
"html-keyboard-response","255","371515","0.0-14.0-0.4","60a3fe2d888e7a090d6d8f82","650c16f0f2faf8d7a0d14c09","651c1d4d9a806b7d581df98e","null","null","<p style=""font-size: 60px; font-family: BACS"">dvNvAJUG</p>","","","","","","","","",""
"html-keyboard-response","256","372518","0.0-14.0-0.5","60a3fe2d888e7a090d6d8f82","650c16f0f2faf8d7a0d14c09","651c1d4d9a806b7d581df98e","null","null","<p style=""font-size: 60px; font-family: BACS"">LQurdYAJ</p>","","","","","","","","",""
"html-keyboard-response","257","373521","0.0-14.0-0.6","60a3fe2d888e7a090d6d8f82","650c16f0f2faf8d7a0d14c09","651c1d4d9a806b7d581df98e","null","null","<p style=""font-size: 60px; font-family: BACS"">AYkEhbRC</p>","","","","","","","","",""
"html-keyboard-response","258","374523","0.0-14.0-0.7","60a3fe2d888e7a090d6d8f82","650c16f0f2faf8d7a0d14c09","651c1d4d9a806b7d581df98e","null","null","<p style=""font-size: 60px; font-family: BACS"">bcOROYK</p>","","","","","","","","",""
"html-keyboard-response","259","375526","0.0-14.0-0.8","60a3fe2d888e7a090d6d8f82","650c16f0f2faf8d7a0d14c09","651c1d4d9a806b7d581df98e","null","null","<p style=""font-size: 60px; font-family: BACS"">GJGcZcbm</p>","","","","","","","","",""
"html-keyboard-response","260","376529","0.0-14.0-0.9","60a3fe2d888e7a090d6d8f82","650c16f0f2faf8d7a0d14c09","651c1d4d9a806b7d581df98e","null","null","<p style=""font-size: 60px; font-family: BACS"">dKRDKOYC</p>","","","","","","","","",""
"html-keyboard-response","261","377531","0.0-14.0-0.10","60a3fe2d888e7a090d6d8f82","650c16f0f2faf8d7a0d14c09","651c1d4d9a806b7d581df98e","null","null","<p style=""font-size: 60px; font-family: BACS"">RhPmYcM</p>","","","","","","","","",""
"html-keyboard-response","262","378533","0.0-14.0-0.11","60a3fe2d888e7a090d6d8f82","650c16f0f2faf8d7a0d14c09","651c1d4d9a806b7d581df98e","null","null","<p style=""font-size: 60px; font-family: BACS"">LuNZdYAJ</p>","","","","","","","","",""
"html-keyboard-response","263","379535","0.0-14.0-0.12","60a3fe2d888e7a090d6d8f82","650c16f0f2faf8d7a0d14c09","651c1d4d9a806b7d581df98e","null","null","<p style=""font-size: 60px; font-family: BACS"">RhPmlMck</p>","","","","","","","","",""
"html-keyboard-response","264","380538","0.0-14.0-0.13","60a3fe2d888e7a090d6d8f82","650c16f0f2faf8d7a0d14c09","651c1d4d9a806b7d581df98e","null","null","<p style=""font-size: 60px; font-family: BACS"">dKRDbRC</p>","","","","","","","","",""
"html-keyboard-response","265","381541","0.0-14.0-0.14","60a3fe2d888e7a090d6d8f82","650c16f0f2faf8d7a0d14c09","651c1d4d9a806b7d581df98e","null","null","<p style=""font-size: 60px; font-family: BACS"">LuNZJZr</p>","","","","","","","","",""
"html-keyboard-response","266","382544","0.0-14.0-0.15","60a3fe2d888e7a090d6d8f82","650c16f0f2faf8d7a0d14c09","651c1d4d9a806b7d581df98e","null","null","<p style=""font-size: 60px; font-family: BACS"">bcORbRC</p>","","","","","","","","",""
"html-keyboard-response","267","383546","0.0-14.0-0.16","60a3fe2d888e7a090d6d8f82","650c16f0f2faf8d7a0d14c09","651c1d4d9a806b7d581df98e","null","null","<p style=""font-size: 60px; font-family: BACS"">vAuNlJZr</p>","","","","","","","","",""
"html-keyboard-response","268","384549","0.0-14.0-0.17","60a3fe2d888e7a090d6d8f82","650c16f0f2faf8d7a0d14c09","651c1d4d9a806b7d581df98e","null","null","<p style=""font-size: 60px; font-family: BACS"">YadrmZb</p>","","","","","","","","",""
"html-keyboard-response","269","385551","0.0-14.0-0.18","60a3fe2d888e7a090d6d8f82","650c16f0f2faf8d7a0d14c09","651c1d4d9a806b7d581df98e","null","null","<p style=""font-size: 60px; font-family: BACS"">KMDYtKOYC</p>","","","","","","","","",""
"html-keyboard-response","270","386553","0.0-14.0-0.19","60a3fe2d888e7a090d6d8f82","650c16f0f2faf8d7a0d14c09","651c1d4d9a806b7d581df98e","null","null","<p style=""font-size: 60px; font-family: BACS"">JvaAcbm</p>","","","","","","","","",""
"html-keyboard-response","271","387555","0.0-14.0-0.20","60a3fe2d888e7a090d6d8f82","650c16f0f2faf8d7a0d14c09","651c1d4d9a806b7d581df98e","null","null","<p style=""font-size: 60px; font-family: BACS"">KMDYtYcM</p>","","","","","","","","",""
"html-keyboard-response","272","388558","0.0-14.0-0.21","60a3fe2d888e7a090d6d8f82","650c16f0f2faf8d7a0d14c09","651c1d4d9a806b7d581df98e","null","null","<p style=""font-size: 60px; font-family: BACS"">OcYMKOYC</p>","","","","","","","","",""
"html-keyboard-response","273","389561","0.0-14.0-0.22","60a3fe2d888e7a090d6d8f82","650c16f0f2faf8d7a0d14c09","651c1d4d9a806b7d581df98e","null","null","<p style=""font-size: 60px; font-family: BACS"">dKRDOYK</p>","","","","","","","","",""
"html-keyboard-response","274","390564","0.0-14.0-0.23","60a3fe2d888e7a090d6d8f82","650c16f0f2faf8d7a0d14c09","651c1d4d9a806b7d581df98e","null","null","<p style=""font-size: 60px; font-family: BACS"">MBKRElMck</p>","","","","","","","","",""
"html-keyboard-response","275","391567","0.0-14.0-0.24","60a3fe2d888e7a090d6d8f82","650c16f0f2faf8d7a0d14c09","651c1d4d9a806b7d581df98e","null","null","<p style=""font-size: 60px; font-family: BACS"">lGZvmZb</p>","","","","","","","","",""
"html-keyboard-response","276","392569","0.0-14.0-0.25","60a3fe2d888e7a090d6d8f82","650c16f0f2faf8d7a0d14c09","651c1d4d9a806b7d581df98e","null","null","<p style=""font-size: 60px; font-family: BACS"">bcORlMck</p>","","","","","","","","",""
"html-keyboard-response","277","393572","0.0-14.0-0.26","60a3fe2d888e7a090d6d8f82","650c16f0f2faf8d7a0d14c09","651c1d4d9a806b7d581df98e","null","null","<p style=""font-size: 60px; font-family: BACS"">YOZNJUG</p>","","","","","","","","",""
"html-keyboard-response","278","394576","0.0-14.0-0.27","60a3fe2d888e7a090d6d8f82","650c16f0f2faf8d7a0d14c09","651c1d4d9a806b7d581df98e","null","null","<p style=""font-size: 60px; font-family: BACS"">LQurJZr</p>","","","","","","","","",""
"html-keyboard-response","279","395579","0.0-14.0-0.28","60a3fe2d888e7a090d6d8f82","650c16f0f2faf8d7a0d14c09","651c1d4d9a806b7d581df98e","null","null","<p style=""font-size: 60px; font-family: BACS"">OcYMbRC</p>","","","","","","","","",""
"html-keyboard-response","280","396581","0.0-14.0-0.29","60a3fe2d888e7a090d6d8f82","650c16f0f2faf8d7a0d14c09","651c1d4d9a806b7d581df98e","null","null","<p style=""font-size: 60px; font-family: BACS"">YOZNJZr</p>","","","","","","","","",""
"html-keyboard-response","281","397582","0.0-14.0-0.30","60a3fe2d888e7a090d6d8f82","650c16f0f2faf8d7a0d14c09","651c1d4d9a806b7d581df98e","null","null","<p style=""font-size: 60px; font-family: BACS"">bcORKOYC</p>","","","","","","","","",""
"html-keyboard-response","282","398587","0.0-14.0-0.31","60a3fe2d888e7a090d6d8f82","650c16f0f2faf8d7a0d14c09","651c1d4d9a806b7d581df98e","null","null","<p style=""font-size: 60px; font-family: BACS"">OLJblmZb</p>","","","","","","","","",""
"html-keyboard-response","283","399588","0.0-14.0-0.32","60a3fe2d888e7a090d6d8f82","650c16f0f2faf8d7a0d14c09","651c1d4d9a806b7d581df98e","null","null","<p style=""font-size: 60px; font-family: BACS"">dvNvAdYAJ</p>","","","","","","","","",""
"html-keyboard-response","284","400590","0.0-14.0-0.33","60a3fe2d888e7a090d6d8f82","650c16f0f2faf8d7a0d14c09","651c1d4d9a806b7d581df98e","null","null","<p style=""font-size: 60px; font-family: BACS"">AYkEhOYK</p>","","","","","","","","",""
"html-keyboard-response","285","401593","0.0-14.0-0.34","60a3fe2d888e7a090d6d8f82","650c16f0f2faf8d7a0d14c09","651c1d4d9a806b7d581df98e","null","null","<p style=""font-size: 60px; font-family: BACS"">LuNZcbm</p>","","","","","","","","",""
"html-keyboard-response","286","402596","0.0-14.0-0.35","60a3fe2d888e7a090d6d8f82","650c16f0f2faf8d7a0d14c09","651c1d4d9a806b7d581df98e","null","null","<p style=""font-size: 60px; font-family: BACS"">KMDYtOYK</p>","","","","","","","","",""
"html-keyboard-response","287","403601","0.0-14.0-0.36","60a3fe2d888e7a090d6d8f82","650c16f0f2faf8d7a0d14c09","651c1d4d9a806b7d581df98e","null","null","<p style=""font-size: 60px; font-family: BACS"">dKRDYcM</p>","","","","","","","","",""
"html-keyboard-response","288","404604","0.0-14.0-0.37","60a3fe2d888e7a090d6d8f82","650c16f0f2faf8d7a0d14c09","651c1d4d9a806b7d581df98e","null","null","<p style=""font-size: 60px; font-family: BACS"">RhPmbRC</p>","","","","","","","","",""
"html-keyboard-response","289","405606","0.0-14.0-0.38","60a3fe2d888e7a090d6d8f82","650c16f0f2faf8d7a0d14c09","651c1d4d9a806b7d581df98e","null","null","<p style=""font-size: 60px; font-family: BACS"">KAERMOYK</p>","","","","","","","","",""
"html-keyboard-response","290","406609","0.0-14.0-0.39","60a3fe2d888e7a090d6d8f82","650c16f0f2faf8d7a0d14c09","651c1d4d9a806b7d581df98e","null","null","<p style=""font-size: 60px; font-family: BACS"">LQurJUG</p>","","","","","","","","",""
"html-keyboard-response","291","407612","0.0-14.0-0.40","60a3fe2d888e7a090d6d8f82","650c16f0f2faf8d7a0d14c09","651c1d4d9a806b7d581df98e","null","null","<p style=""font-size: 60px; font-family: BACS"">vAuNlmZb</p>","","","","","","","","",""
"html-keyboard-response","292","408614","0.0-14.0-0.41","60a3fe2d888e7a090d6d8f82","650c16f0f2faf8d7a0d14c09","651c1d4d9a806b7d581df98e","null","null","<p style=""font-size: 60px; font-family: BACS"">dClOCKOYC</p>","","","","","","","","",""
"html-keyboard-response","293","409615","0.0-14.0-0.42","60a3fe2d888e7a090d6d8f82","650c16f0f2faf8d7a0d14c09","651c1d4d9a806b7d581df98e","null","null","<p style=""font-size: 60px; font-family: BACS"">YOZNcbm</p>","","","","","","","","",""
"html-keyboard-response","294","410618","0.0-14.0-0.43","60a3fe2d888e7a090d6d8f82","650c16f0f2faf8d7a0d14c09","651c1d4d9a806b7d581df98e","null","null","<p style=""font-size: 60px; font-family: BACS"">OLJblJUG</p>","","","","","","","","",""
"html-keyboard-response","295","411622","0.0-14.0-0.44","60a3fe2d888e7a090d6d8f82","650c16f0f2faf8d7a0d14c09","651c1d4d9a806b7d581df98e","null","null","<p style=""font-size: 60px; font-family: BACS"">JvaAJZr</p>","","","","","","","","",""
"html-keyboard-response","296","412624","0.0-14.0-0.45","60a3fe2d888e7a090d6d8f82","650c16f0f2faf8d7a0d14c09","651c1d4d9a806b7d581df98e","null","null","<p style=""font-size: 60px; font-family: BACS"">PctRCKOYC</p>","","","","","","","","",""
"html-keyboard-response","297","413627","0.0-14.0-0.46","60a3fe2d888e7a090d6d8f82","650c16f0f2faf8d7a0d14c09","651c1d4d9a806b7d581df98e","null","null","<p style=""font-size: 60px; font-family: BACS"">dClOClMck</p>","","","","","","","","",""
"html-keyboard-response","298","414629","0.0-14.0-0.47","60a3fe2d888e7a090d6d8f82","650c16f0f2faf8d7a0d14c09","651c1d4d9a806b7d581df98e","null","null","<p style=""font-size: 60px; font-family: BACS"">JvaAJUG</p>","","","","","","","","",""
"html-keyboard-response","299","415634","0.0-14.0-0.48","60a3fe2d888e7a090d6d8f82","650c16f0f2faf8d7a0d14c09","651c1d4d9a806b7d581df98e","null","null","<p style=""font-size: 60px; font-family: BACS"">dvNvAcbm</p>","","","","","","","","",""
"html-keyboard-response","300","416638","0.0-14.0-0.49","60a3fe2d888e7a090d6d8f82","650c16f0f2faf8d7a0d14c09","651c1d4d9a806b7d581df98e","null","null","<p style=""font-size: 60px; font-family: BACS"">KMDYtlMck</p>","","","","","","","","",""
"html-keyboard-response","301","417640","0.0-14.0-0.50","60a3fe2d888e7a090d6d8f82","650c16f0f2faf8d7a0d14c09","651c1d4d9a806b7d581df98e","null","null","<p style=""font-size: 60px; font-family: BACS"">vAuNlcbm</p>","","","","","","","","",""
"html-keyboard-response","302","418643","0.0-14.0-0.51","60a3fe2d888e7a090d6d8f82","650c16f0f2faf8d7a0d14c09","651c1d4d9a806b7d581df98e","null","null","<p style=""font-size: 60px; font-family: BACS"">KAERMbRC</p>","","","","","","","","",""
"html-keyboard-response","303","419646","0.0-14.0-0.52","60a3fe2d888e7a090d6d8f82","650c16f0f2faf8d7a0d14c09","651c1d4d9a806b7d581df98e","null","null","<p style=""font-size: 60px; font-family: BACS"">OcYMOYK</p>","","","","","","","","",""
"html-keyboard-response","304","420648","0.0-14.0-0.53","60a3fe2d888e7a090d6d8f82","650c16f0f2faf8d7a0d14c09","651c1d4d9a806b7d581df98e","null","null","<p style=""font-size: 60px; font-family: BACS"">KAERMlMck</p>","","","","","","","","",""
"html-keyboard-response","305","421651","0.0-14.0-0.54","60a3fe2d888e7a090d6d8f82","650c16f0f2faf8d7a0d14c09","651c1d4d9a806b7d581df98e","null","null","<p style=""font-size: 60px; font-family: BACS"">MBKREKOYC</p>","","","","","","","","",""
"html-keyboard-response","306","422654","0.0-14.0-0.55","60a3fe2d888e7a090d6d8f82","650c16f0f2faf8d7a0d14c09","651c1d4d9a806b7d581df98e","null","null","<p style=""font-size: 60px; font-family: BACS"">JvaAmZb</p>","","","","","","","","",""
"html-keyboard-response","307","423656","0.0-14.0-0.56","60a3fe2d888e7a090d6d8f82","650c16f0f2faf8d7a0d14c09","651c1d4d9a806b7d581df98e","null","null","<p style=""font-size: 60px; font-family: BACS"">MBKREYcM</p>","","","","","","","","",""
"html-keyboard-response","308","424658","0.0-14.0-0.57","60a3fe2d888e7a090d6d8f82","650c16f0f2faf8d7a0d14c09","651c1d4d9a806b7d581df98e","null","null","<p style=""font-size: 60px; font-family: BACS"">lGZvdYAJ</p>","","","","","","","","",""
"html-keyboard-response","309","425661","0.0-14.0-0.58","60a3fe2d888e7a090d6d8f82","650c16f0f2faf8d7a0d14c09","651c1d4d9a806b7d581df98e","null","null","<p style=""font-size: 60px; font-family: BACS"">YadrJZr</p>","","","","","","","","",""
"html-keyboard-response","310","426662","0.0-14.0-0.59","60a3fe2d888e7a090d6d8f82","650c16f0f2faf8d7a0d14c09","651c1d4d9a806b7d581df98e","null","null","<p style=""font-size: 60px; font-family: BACS"">dClOCOYK</p>","","","","","","","","",""
"html-keyboard-response","311","427665","0.0-14.0-0.60","60a3fe2d888e7a090d6d8f82","650c16f0f2faf8d7a0d14c09","651c1d4d9a806b7d581df98e","null","null","<p style=""font-size: 60px; font-family: BACS"">PctRCbRC</p>","","","","","","","","",""
"html-keyboard-response","312","428667","0.0-14.0-0.61","60a3fe2d888e7a090d6d8f82","650c16f0f2faf8d7a0d14c09","651c1d4d9a806b7d581df98e","null","null","<p style=""font-size: 60px; font-family: BACS"">GJGcZJUG</p>","","","","","","","","",""
"html-keyboard-response","313","429671","0.0-14.0-0.62","60a3fe2d888e7a090d6d8f82","650c16f0f2faf8d7a0d14c09","651c1d4d9a806b7d581df98e","null","null","<p style=""font-size: 60px; font-family: BACS"">vAuNldYAJ</p>","","","","","","","","",""
"html-keyboard-response","314","430672","0.0-14.0-0.63","60a3fe2d888e7a090d6d8f82","650c16f0f2faf8d7a0d14c09","651c1d4d9a806b7d581df98e","null","null","<p style=""font-size: 60px; font-family: BACS"">GJGcZmZb</p>","","","","","","","","",""
"html-keyboard-response","315","431676","0.0-14.0-0.64","60a3fe2d888e7a090d6d8f82","650c16f0f2faf8d7a0d14c09","651c1d4d9a806b7d581df98e","null","null","<p style=""font-size: 60px; font-family: BACS"">OLJblJZr</p>","","","","","","","","",""
"html-keyboard-response","316","432680","0.0-14.0-0.65","60a3fe2d888e7a090d6d8f82","650c16f0f2faf8d7a0d14c09","651c1d4d9a806b7d581df98e","null","null","<p style=""font-size: 60px; font-family: BACS"">lGZvcbm</p>","","","","","","","","",""
"html-keyboard-response","317","433681","0.0-14.0-0.66","60a3fe2d888e7a090d6d8f82","650c16f0f2faf8d7a0d14c09","651c1d4d9a806b7d581df98e","null","null","<p style=""font-size: 60px; font-family: BACS"">dvNvAJZr</p>","","","","","","","","",""
"html-keyboard-response","318","434685","0.0-14.0-0.67","60a3fe2d888e7a090d6d8f82","650c16f0f2faf8d7a0d14c09","651c1d4d9a806b7d581df98e","null","null","<p style=""font-size: 60px; font-family: BACS"">OLJblcbm</p>","","","","","","","","",""
"html-keyboard-response","319","435688","0.0-14.0-0.68","60a3fe2d888e7a090d6d8f82","650c16f0f2faf8d7a0d14c09","651c1d4d9a806b7d581df98e","null","null","<p style=""font-size: 60px; font-family: BACS"">AYkEhYcM</p>","","","","","","","","",""
"html-keyboard-response","320","436690","0.0-14.0-0.69","60a3fe2d888e7a090d6d8f82","650c16f0f2faf8d7a0d14c09","651c1d4d9a806b7d581df98e","null","null","<p style=""font-size: 60px; font-family: BACS"">RhPmKOYC</p>","","","","","","","","",""
"html-keyboard-response","321","437693","0.0-14.0-0.70","60a3fe2d888e7a090d6d8f82","650c16f0f2faf8d7a0d14c09","651c1d4d9a806b7d581df98e","null","null","<p style=""font-size: 60px; font-family: BACS"">dClOCYcM</p>","","","","","","","","",""
"html-keyboard-response","322","438696","0.0-14.0-0.71","60a3fe2d888e7a090d6d8f82","650c16f0f2faf8d7a0d14c09","651c1d4d9a806b7d581df98e","null","null","<p style=""font-size: 60px; font-family: BACS"">PctRClMck</p>","","","","","","","","",""
"html-keyboard-response","323","439699","0.0-14.0-0.72","60a3fe2d888e7a090d6d8f82","650c16f0f2faf8d7a0d14c09","651c1d4d9a806b7d581df98e","null","null","<p style=""font-size: 60px; font-family: BACS"">YadrdYAJ</p>","","","","","","","","",""
"html-keyboard-response","324","440700","0.0-14.0-0.73","60a3fe2d888e7a090d6d8f82","650c16f0f2faf8d7a0d14c09","651c1d4d9a806b7d581df98e","null","null","<p style=""font-size: 60px; font-family: BACS"">OcYMYcM</p>","","","","","","","","",""
"html-keyboard-response","325","441703","0.0-14.0-0.74","60a3fe2d888e7a090d6d8f82","650c16f0f2faf8d7a0d14c09","651c1d4d9a806b7d581df98e","null","null","<p style=""font-size: 60px; font-family: BACS"">lGZvJUG</p>","","","","","","","","",""
"html-keyboard-response","326","442704","0.0-14.0-0.75","60a3fe2d888e7a090d6d8f82","650c16f0f2faf8d7a0d14c09","651c1d4d9a806b7d581df98e","null","null","<p style=""font-size: 60px; font-family: BACS"">GJGcZdYAJ</p>","","","","","","","","",""
"html-keyboard-response","327","443706","0.0-14.0-0.76","60a3fe2d888e7a090d6d8f82","650c16f0f2faf8d7a0d14c09","651c1d4d9a806b7d581df98e","null","null","<p style=""font-size: 60px; font-family: BACS"">LuNZmZb</p>","","","","","","","","",""
"html-keyboard-response","328","444707","0.0-14.0-0.77","60a3fe2d888e7a090d6d8f82","650c16f0f2faf8d7a0d14c09","651c1d4d9a806b7d581df98e","null","null","<p style=""font-size: 60px; font-family: BACS"">YadrJUG</p>","","","","","","","","",""
"html-keyboard-response","329","445709","0.0-14.0-0.78","60a3fe2d888e7a090d6d8f82","650c16f0f2faf8d7a0d14c09","651c1d4d9a806b7d581df98e","null","null","<p style=""font-size: 60px; font-family: BACS"">MBKREbRC</p>","","","","","","","","",""
"html-keyboard-response","330","446712","0.0-14.0-0.79","60a3fe2d888e7a090d6d8f82","650c16f0f2faf8d7a0d14c09","651c1d4d9a806b7d581df98e","null","null","<p style=""font-size: 60px; font-family: BACS"">LQurmZb</p>","","","","","","","","",""
"html-keyboard-response","331","450043","0.0-15.0","60a3fe2d888e7a090d6d8f82","650c16f0f2faf8d7a0d14c09","651c1d4d9a806b7d581df98e","3330"," ","<p>Great, you've seen the fourth block of words. You may now take a short break.</p>
      <p>Press the spacebar when you're ready to continue.</p>","","","","","","","","",""
"html-keyboard-response","332","451045","0.0-16.0-0.0","60a3fe2d888e7a090d6d8f82","650c16f0f2faf8d7a0d14c09","651c1d4d9a806b7d581df98e","null","null","<p style=""font-size: 60px; font-family: BACS"">vAuNlJZr</p>","","","","","","","","",""
"html-keyboard-response","333","452047","0.0-16.0-0.1","60a3fe2d888e7a090d6d8f82","650c16f0f2faf8d7a0d14c09","651c1d4d9a806b7d581df98e","null","null","<p style=""font-size: 60px; font-family: BACS"">vAuNlJZr</p>","","","","","","","","",""
"html-keyboard-response","334","453050","0.0-16.0-0.2","60a3fe2d888e7a090d6d8f82","650c16f0f2faf8d7a0d14c09","651c1d4d9a806b7d581df98e","null","null","<p style=""font-size: 60px; font-family: BACS"">vAuNlJZr</p>","","","","","","","","",""
"html-keyboard-response","335","454052","0.0-16.0-0.3","60a3fe2d888e7a090d6d8f82","650c16f0f2faf8d7a0d14c09","651c1d4d9a806b7d581df98e","null","null","<p style=""font-size: 60px; font-family: BACS"">vAuNlJZr</p>","","","","","","","","",""
"html-keyboard-response","336","455054","0.0-16.0-0.4","60a3fe2d888e7a090d6d8f82","650c16f0f2faf8d7a0d14c09","651c1d4d9a806b7d581df98e","null","null","<p style=""font-size: 60px; font-family: BACS"">vAuNlJZr</p>","","","","","","","","",""
"html-keyboard-response","337","456056","0.0-16.0-0.5","60a3fe2d888e7a090d6d8f82","650c16f0f2faf8d7a0d14c09","651c1d4d9a806b7d581df98e","null","null","<p style=""font-size: 60px; font-family: BACS"">vAuNlJZr</p>","","","","","","","","",""
"html-keyboard-response","338","457060","0.0-16.0-0.6","60a3fe2d888e7a090d6d8f82","650c16f0f2faf8d7a0d14c09","651c1d4d9a806b7d581df98e","null","null","<p style=""font-size: 60px; font-family: BACS"">vAuNlJZr</p>","","","","","","","","",""
"html-keyboard-response","339","458063","0.0-16.0-0.7","60a3fe2d888e7a090d6d8f82","650c16f0f2faf8d7a0d14c09","651c1d4d9a806b7d581df98e","null","null","<p style=""font-size: 60px; font-family: BACS"">vAuNlJZr</p>","","","","","","","","",""
"html-keyboard-response","340","459065","0.0-16.0-0.8","60a3fe2d888e7a090d6d8f82","650c16f0f2faf8d7a0d14c09","651c1d4d9a806b7d581df98e","null","null","<p style=""font-size: 60px; font-family: BACS"">vAuNlJZr</p>","","","","","","","","",""
"html-keyboard-response","341","460068","0.0-16.0-0.9","60a3fe2d888e7a090d6d8f82","650c16f0f2faf8d7a0d14c09","651c1d4d9a806b7d581df98e","null","null","<p style=""font-size: 60px; font-family: BACS"">vAuNlJZr</p>","","","","","","","","",""
"html-keyboard-response","342","461072","0.0-16.0-0.10","60a3fe2d888e7a090d6d8f82","650c16f0f2faf8d7a0d14c09","651c1d4d9a806b7d581df98e","null","null","<p style=""font-size: 60px; font-family: BACS"">vAuNlJZr</p>","","","","","","","","",""
"html-keyboard-response","343","462074","0.0-16.0-0.11","60a3fe2d888e7a090d6d8f82","650c16f0f2faf8d7a0d14c09","651c1d4d9a806b7d581df98e","null","null","<p style=""font-size: 60px; font-family: BACS"">vAuNlJZr</p>","","","","","","","","",""
"html-keyboard-response","344","463077","0.0-16.0-0.12","60a3fe2d888e7a090d6d8f82","650c16f0f2faf8d7a0d14c09","651c1d4d9a806b7d581df98e","null","null","<p style=""font-size: 60px; font-family: BACS"">vAuNlJZr</p>","","","","","","","","",""
"html-keyboard-response","345","464078","0.0-16.0-0.13","60a3fe2d888e7a090d6d8f82","650c16f0f2faf8d7a0d14c09","651c1d4d9a806b7d581df98e","null","null","<p style=""font-size: 60px; font-family: BACS"">vAuNlJZr</p>","","","","","","","","",""
"html-keyboard-response","346","465080","0.0-16.0-0.14","60a3fe2d888e7a090d6d8f82","650c16f0f2faf8d7a0d14c09","651c1d4d9a806b7d581df98e","null","null","<p style=""font-size: 60px; font-family: BACS"">vAuNlJZr</p>","","","","","","","","",""
"html-keyboard-response","347","466084","0.0-16.0-0.15","60a3fe2d888e7a090d6d8f82","650c16f0f2faf8d7a0d14c09","651c1d4d9a806b7d581df98e","null","null","<p style=""font-size: 60px; font-family: BACS"">vAuNlJZr</p>","","","","","","","","",""
"html-keyboard-response","348","467086","0.0-16.0-0.16","60a3fe2d888e7a090d6d8f82","650c16f0f2faf8d7a0d14c09","651c1d4d9a806b7d581df98e","null","null","<p style=""font-size: 60px; font-family: BACS"">vAuNlJZr</p>","","","","","","","","",""
"html-keyboard-response","349","468089","0.0-16.0-0.17","60a3fe2d888e7a090d6d8f82","650c16f0f2faf8d7a0d14c09","651c1d4d9a806b7d581df98e","null","null","<p style=""font-size: 60px; font-family: BACS"">vAuNlJZr</p>","","","","","","","","",""
"html-keyboard-response","350","469091","0.0-16.0-0.18","60a3fe2d888e7a090d6d8f82","650c16f0f2faf8d7a0d14c09","651c1d4d9a806b7d581df98e","null","null","<p style=""font-size: 60px; font-family: BACS"">vAuNlJZr</p>","","","","","","","","",""
"html-keyboard-response","351","470094","0.0-16.0-0.19","60a3fe2d888e7a090d6d8f82","650c16f0f2faf8d7a0d14c09","651c1d4d9a806b7d581df98e","null","null","<p style=""font-size: 60px; font-family: BACS"">vAuNlJZr</p>","","","","","","","","",""
"html-keyboard-response","352","471096","0.0-16.0-0.20","60a3fe2d888e7a090d6d8f82","650c16f0f2faf8d7a0d14c09","651c1d4d9a806b7d581df98e","null","null","<p style=""font-size: 60px; font-family: BACS"">vAuNlJZr</p>","","","","","","","","",""
"html-keyboard-response","353","472102","0.0-16.0-0.21","60a3fe2d888e7a090d6d8f82","650c16f0f2faf8d7a0d14c09","651c1d4d9a806b7d581df98e","null","null","<p style=""font-size: 60px; font-family: BACS"">vAuNlJZr</p>","","","","","","","","",""
"html-keyboard-response","354","473104","0.0-16.0-0.22","60a3fe2d888e7a090d6d8f82","650c16f0f2faf8d7a0d14c09","651c1d4d9a806b7d581df98e","null","null","<p style=""font-size: 60px; font-family: BACS"">vAuNlJZr</p>","","","","","","","","",""
"html-keyboard-response","355","474109","0.0-16.0-0.23","60a3fe2d888e7a090d6d8f82","650c16f0f2faf8d7a0d14c09","651c1d4d9a806b7d581df98e","null","null","<p style=""font-size: 60px; font-family: BACS"">vAuNlJZr</p>","","","","","","","","",""
"html-keyboard-response","356","475110","0.0-16.0-0.24","60a3fe2d888e7a090d6d8f82","650c16f0f2faf8d7a0d14c09","651c1d4d9a806b7d581df98e","null","null","<p style=""font-size: 60px; font-family: BACS"">vAuNlJZr</p>","","","","","","","","",""
"html-keyboard-response","357","476114","0.0-16.0-0.25","60a3fe2d888e7a090d6d8f82","650c16f0f2faf8d7a0d14c09","651c1d4d9a806b7d581df98e","null","null","<p style=""font-size: 60px; font-family: BACS"">vAuNlJZr</p>","","","","","","","","",""
"html-keyboard-response","358","477117","0.0-16.0-0.26","60a3fe2d888e7a090d6d8f82","650c16f0f2faf8d7a0d14c09","651c1d4d9a806b7d581df98e","null","null","<p style=""font-size: 60px; font-family: BACS"">vAuNlJZr</p>","","","","","","","","",""
"html-keyboard-response","359","478118","0.0-16.0-0.27","60a3fe2d888e7a090d6d8f82","650c16f0f2faf8d7a0d14c09","651c1d4d9a806b7d581df98e","null","null","<p style=""font-size: 60px; font-family: BACS"">vAuNlJZr</p>","","","","","","","","",""
"html-keyboard-response","360","479122","0.0-16.0-0.28","60a3fe2d888e7a090d6d8f82","650c16f0f2faf8d7a0d14c09","651c1d4d9a806b7d581df98e","null","null","<p style=""font-size: 60px; font-family: BACS"">vAuNlJZr</p>","","","","","","","","",""
"html-keyboard-response","361","480124","0.0-16.0-0.29","60a3fe2d888e7a090d6d8f82","650c16f0f2faf8d7a0d14c09","651c1d4d9a806b7d581df98e","null","null","<p style=""font-size: 60px; font-family: BACS"">vAuNlJZr</p>","","","","","","","","",""
"html-keyboard-response","362","481127","0.0-16.0-0.30","60a3fe2d888e7a090d6d8f82","650c16f0f2faf8d7a0d14c09","651c1d4d9a806b7d581df98e","null","null","<p style=""font-size: 60px; font-family: BACS"">vAuNlJZr</p>","","","","","","","","",""
"html-keyboard-response","363","482132","0.0-16.0-0.31","60a3fe2d888e7a090d6d8f82","650c16f0f2faf8d7a0d14c09","651c1d4d9a806b7d581df98e","null","null","<p style=""font-size: 60px; font-family: BACS"">vAuNlJZr</p>","","","","","","","","",""
"html-keyboard-response","364","483133","0.0-16.0-0.32","60a3fe2d888e7a090d6d8f82","650c16f0f2faf8d7a0d14c09","651c1d4d9a806b7d581df98e","null","null","<p style=""font-size: 60px; font-family: BACS"">vAuNlJZr</p>","","","","","","","","",""
"html-keyboard-response","365","484135","0.0-16.0-0.33","60a3fe2d888e7a090d6d8f82","650c16f0f2faf8d7a0d14c09","651c1d4d9a806b7d581df98e","null","null","<p style=""font-size: 60px; font-family: BACS"">vAuNlJZr</p>","","","","","","","","",""
"html-keyboard-response","366","485137","0.0-16.0-0.34","60a3fe2d888e7a090d6d8f82","650c16f0f2faf8d7a0d14c09","651c1d4d9a806b7d581df98e","null","null","<p style=""font-size: 60px; font-family: BACS"">vAuNlJZr</p>","","","","","","","","",""
"html-keyboard-response","367","486139","0.0-16.0-0.35","60a3fe2d888e7a090d6d8f82","650c16f0f2faf8d7a0d14c09","651c1d4d9a806b7d581df98e","null","null","<p style=""font-size: 60px; font-family: BACS"">vAuNlJZr</p>","","","","","","","","",""
"html-keyboard-response","368","487140","0.0-16.0-0.36","60a3fe2d888e7a090d6d8f82","650c16f0f2faf8d7a0d14c09","651c1d4d9a806b7d581df98e","null","null","<p style=""font-size: 60px; font-family: BACS"">vAuNlJZr</p>","","","","","","","","",""
"html-keyboard-response","369","488143","0.0-16.0-0.37","60a3fe2d888e7a090d6d8f82","650c16f0f2faf8d7a0d14c09","651c1d4d9a806b7d581df98e","null","null","<p style=""font-size: 60px; font-family: BACS"">vAuNlJZr</p>","","","","","","","","",""
"html-keyboard-response","370","489145","0.0-16.0-0.38","60a3fe2d888e7a090d6d8f82","650c16f0f2faf8d7a0d14c09","651c1d4d9a806b7d581df98e","null","null","<p style=""font-size: 60px; font-family: BACS"">vAuNlJZr</p>","","","","","","","","",""
"html-keyboard-response","371","490148","0.0-16.0-0.39","60a3fe2d888e7a090d6d8f82","650c16f0f2faf8d7a0d14c09","651c1d4d9a806b7d581df98e","null","null","<p style=""font-size: 60px; font-family: BACS"">vAuNlJZr</p>","","","","","","","","",""
"html-keyboard-response","372","491152","0.0-16.0-0.40","60a3fe2d888e7a090d6d8f82","650c16f0f2faf8d7a0d14c09","651c1d4d9a806b7d581df98e","null","null","<p style=""font-size: 60px; font-family: BACS"">vAuNlJZr</p>","","","","","","","","",""
"html-keyboard-response","373","492154","0.0-16.0-0.41","60a3fe2d888e7a090d6d8f82","650c16f0f2faf8d7a0d14c09","651c1d4d9a806b7d581df98e","null","null","<p style=""font-size: 60px; font-family: BACS"">vAuNlJZr</p>","","","","","","","","",""
"html-keyboard-response","374","493157","0.0-16.0-0.42","60a3fe2d888e7a090d6d8f82","650c16f0f2faf8d7a0d14c09","651c1d4d9a806b7d581df98e","null","null","<p style=""font-size: 60px; font-family: BACS"">vAuNlJZr</p>","","","","","","","","",""
"html-keyboard-response","375","494159","0.0-16.0-0.43","60a3fe2d888e7a090d6d8f82","650c16f0f2faf8d7a0d14c09","651c1d4d9a806b7d581df98e","null","null","<p style=""font-size: 60px; font-family: BACS"">vAuNlJZr</p>","","","","","","","","",""
"html-keyboard-response","376","495161","0.0-16.0-0.44","60a3fe2d888e7a090d6d8f82","650c16f0f2faf8d7a0d14c09","651c1d4d9a806b7d581df98e","null","null","<p style=""font-size: 60px; font-family: BACS"">vAuNlJZr</p>","","","","","","","","",""
"html-keyboard-response","377","496164","0.0-16.0-0.45","60a3fe2d888e7a090d6d8f82","650c16f0f2faf8d7a0d14c09","651c1d4d9a806b7d581df98e","null","null","<p style=""font-size: 60px; font-family: BACS"">vAuNlJZr</p>","","","","","","","","",""
"html-keyboard-response","378","497167","0.0-16.0-0.46","60a3fe2d888e7a090d6d8f82","650c16f0f2faf8d7a0d14c09","651c1d4d9a806b7d581df98e","null","null","<p style=""font-size: 60px; font-family: BACS"">vAuNlJZr</p>","","","","","","","","",""
"html-keyboard-response","379","498169","0.0-16.0-0.47","60a3fe2d888e7a090d6d8f82","650c16f0f2faf8d7a0d14c09","651c1d4d9a806b7d581df98e","null","null","<p style=""font-size: 60px; font-family: BACS"">vAuNlJZr</p>","","","","","","","","",""
"html-keyboard-response","380","499171","0.0-16.0-0.48","60a3fe2d888e7a090d6d8f82","650c16f0f2faf8d7a0d14c09","651c1d4d9a806b7d581df98e","null","null","<p style=""font-size: 60px; font-family: BACS"">vAuNlJZr</p>","","","","","","","","",""
"html-keyboard-response","381","500173","0.0-16.0-0.49","60a3fe2d888e7a090d6d8f82","650c16f0f2faf8d7a0d14c09","651c1d4d9a806b7d581df98e","null","null","<p style=""font-size: 60px; font-family: BACS"">vAuNlJZr</p>","","","","","","","","",""
"html-keyboard-response","382","501176","0.0-16.0-0.50","60a3fe2d888e7a090d6d8f82","650c16f0f2faf8d7a0d14c09","651c1d4d9a806b7d581df98e","null","null","<p style=""font-size: 60px; font-family: BACS"">vAuNlJZr</p>","","","","","","","","",""
"html-keyboard-response","383","502179","0.0-16.0-0.51","60a3fe2d888e7a090d6d8f82","650c16f0f2faf8d7a0d14c09","651c1d4d9a806b7d581df98e","null","null","<p style=""font-size: 60px; font-family: BACS"">vAuNlJZr</p>","","","","","","","","",""
"html-keyboard-response","384","503182","0.0-16.0-0.52","60a3fe2d888e7a090d6d8f82","650c16f0f2faf8d7a0d14c09","651c1d4d9a806b7d581df98e","null","null","<p style=""font-size: 60px; font-family: BACS"">vAuNlJZr</p>","","","","","","","","",""
"html-keyboard-response","385","504184","0.0-16.0-0.53","60a3fe2d888e7a090d6d8f82","650c16f0f2faf8d7a0d14c09","651c1d4d9a806b7d581df98e","null","null","<p style=""font-size: 60px; font-family: BACS"">vAuNlJZr</p>","","","","","","","","",""
"html-keyboard-response","386","505186","0.0-16.0-0.54","60a3fe2d888e7a090d6d8f82","650c16f0f2faf8d7a0d14c09","651c1d4d9a806b7d581df98e","null","null","<p style=""font-size: 60px; font-family: BACS"">vAuNlJZr</p>","","","","","","","","",""
"html-keyboard-response","387","506189","0.0-16.0-0.55","60a3fe2d888e7a090d6d8f82","650c16f0f2faf8d7a0d14c09","651c1d4d9a806b7d581df98e","null","null","<p style=""font-size: 60px; font-family: BACS"">vAuNlJZr</p>","","","","","","","","",""
"html-keyboard-response","388","507193","0.0-16.0-0.56","60a3fe2d888e7a090d6d8f82","650c16f0f2faf8d7a0d14c09","651c1d4d9a806b7d581df98e","null","null","<p style=""font-size: 60px; font-family: BACS"">vAuNlJZr</p>","","","","","","","","",""
"html-keyboard-response","389","508195","0.0-16.0-0.57","60a3fe2d888e7a090d6d8f82","650c16f0f2faf8d7a0d14c09","651c1d4d9a806b7d581df98e","null","null","<p style=""font-size: 60px; font-family: BACS"">vAuNlJZr</p>","","","","","","","","",""
"html-keyboard-response","390","509196","0.0-16.0-0.58","60a3fe2d888e7a090d6d8f82","650c16f0f2faf8d7a0d14c09","651c1d4d9a806b7d581df98e","null","null","<p style=""font-size: 60px; font-family: BACS"">vAuNlJZr</p>","","","","","","","","",""
"html-keyboard-response","391","510199","0.0-16.0-0.59","60a3fe2d888e7a090d6d8f82","650c16f0f2faf8d7a0d14c09","651c1d4d9a806b7d581df98e","null","null","<p style=""font-size: 60px; font-family: BACS"">vAuNlJZr</p>","","","","","","","","",""
"html-keyboard-response","392","511202","0.0-16.0-0.60","60a3fe2d888e7a090d6d8f82","650c16f0f2faf8d7a0d14c09","651c1d4d9a806b7d581df98e","null","null","<p style=""font-size: 60px; font-family: BACS"">vAuNlJZr</p>","","","","","","","","",""
"html-keyboard-response","393","512205","0.0-16.0-0.61","60a3fe2d888e7a090d6d8f82","650c16f0f2faf8d7a0d14c09","651c1d4d9a806b7d581df98e","null","null","<p style=""font-size: 60px; font-family: BACS"">vAuNlJZr</p>","","","","","","","","",""
"html-keyboard-response","394","513209","0.0-16.0-0.62","60a3fe2d888e7a090d6d8f82","650c16f0f2faf8d7a0d14c09","651c1d4d9a806b7d581df98e","null","null","<p style=""font-size: 60px; font-family: BACS"">vAuNlJZr</p>","","","","","","","","",""
"html-keyboard-response","395","514210","0.0-16.0-0.63","60a3fe2d888e7a090d6d8f82","650c16f0f2faf8d7a0d14c09","651c1d4d9a806b7d581df98e","null","null","<p style=""font-size: 60px; font-family: BACS"">vAuNlJZr</p>","","","","","","","","",""
"html-keyboard-response","396","515212","0.0-16.0-0.64","60a3fe2d888e7a090d6d8f82","650c16f0f2faf8d7a0d14c09","651c1d4d9a806b7d581df98e","null","null","<p style=""font-size: 60px; font-family: BACS"">vAuNlJZr</p>","","","","","","","","",""
"html-keyboard-response","397","516215","0.0-16.0-0.65","60a3fe2d888e7a090d6d8f82","650c16f0f2faf8d7a0d14c09","651c1d4d9a806b7d581df98e","null","null","<p style=""font-size: 60px; font-family: BACS"">vAuNlJZr</p>","","","","","","","","",""
"html-keyboard-response","398","517219","0.0-16.0-0.66","60a3fe2d888e7a090d6d8f82","650c16f0f2faf8d7a0d14c09","651c1d4d9a806b7d581df98e","null","null","<p style=""font-size: 60px; font-family: BACS"">vAuNlJZr</p>","","","","","","","","",""
"html-keyboard-response","399","518220","0.0-16.0-0.67","60a3fe2d888e7a090d6d8f82","650c16f0f2faf8d7a0d14c09","651c1d4d9a806b7d581df98e","null","null","<p style=""font-size: 60px; font-family: BACS"">vAuNlJZr</p>","","","","","","","","",""
"html-keyboard-response","400","519224","0.0-16.0-0.68","60a3fe2d888e7a090d6d8f82","650c16f0f2faf8d7a0d14c09","651c1d4d9a806b7d581df98e","null","null","<p style=""font-size: 60px; font-family: BACS"">vAuNlJZr</p>","","","","","","","","",""
