"trial_type","trial_index","time_elapsed","internal_node_id","subject_id","study_id","session_id","rt","response","stimulus","success","item","task","correct_response","correct","target","confound","name"
"pavlovia","0","3539","0.0-0.0","5c5e04ca6539fe00016e1afa","64b003020eef62ee308107cc","64b03cfcdb9478872012dd44","","","","","","","","","","",""
"survey-html-form","1","24319","0.0-1.0","5c5e04ca6539fe00016e1afa","64b003020eef62ee308107cc","64b03cfcdb9478872012dd44","20778","{""ID"":""5c5e04ca6539fe00016e1afa""}","","","","","","","","",""
"html-keyboard-response","2","50908","0.0-2.0","5c5e04ca6539fe00016e1afa","64b003020eef62ee308107cc","64b03cfcdb9478872012dd44","26588"," ","<p style=""font-size: 15px;"">Prima di cominciare, le chiediamo di leggere il modulo di consenso informato e confermare la sua volontà di partecipare all'esperimento.</p>
      <p style=""font-size: 15px;""> La preghiamo di ricordare che questo è un progetto di ricerca e che la sua partecipazione è completamente volontaria. Lei si potra' ritirare in qualunque momento, senza necessariamente dover dare alcuna spiegazione. Lo studio al quale Le si chiede di partecipare ha lo scopo di esaminare come i lettori elaborano le parole scritte. La somministrazione delle prove è individuale. Lei sarà impegnato in una sessione di lavoro della durata media di 10 minuti, e un questionario di 10 minuti. L’ordine delle prove ed il loro svolgimento sono stabiliti in modo tale da evitare un eventuale affaticamento. Tutte le prove saranno precedute da un breve addestramento in modo tale che abbia la possibilità di familiarizzare con il compito. Sono previste alcune pause nel corso dello svolgimento dell’esperimento. Una ricompensa di £4 (£8 per ora) Le verrà consegnata al termine della sessione di testing. Nonostante il testing preveda delle prove cognitive, il presente esperimento non costituisce una prova clinica che permetta la diagnosi di eventuali patologie.</p>
      <p style=""font-size: 15px;"">Tutti i dati raccolti grazie alla partecipazione Sua e di altre persone volontarie saranno custoditi in server sicuri e protetti da password, e non sarà consentito ad alcuna persona non autorizzata di accedervi. Le Sue informazioni personali saranno conservate separatamente dai risultati della presente ricerca, cui saranno associati soltanto attraverso un ID arbitrario. Grazie a questo processo di anonimizzazione dei dati, a nessun ricercatore sarà possibile analizzare i risultati sapendo da quale specifico partecipante essi provengono. Inoltre, questa procedura renderà impossibile la Sua identificazione anche nel momento in cui i risultati della ricerca fossero pubblicati su riviste scientifiche, o presentati a congressi o in qualsiasi altro pubblico consesso. Più in generale, i dati raccolti saranno trattati in accordo con le leggi sulla privacy e in conformità al Decreto Legislativo 30 giugno 2003 n. 196 “Codice in materia di protezione dei dati personali” e al Regolamento Europeo 2016/679 (General Data Protection Regulation - GDPR). Il Responsabile della protezione dei dati (RPD) è l’Avv. Valentina Carollo che può essere contattato ai seguenti indirizzi email: <a href=""mailto:dpo@sissa.it"">dpo@sissa.it</a> oppure <a href=""mailto:rpd@sissa.it"">rpd@sissa.it</a> - PEC: <a href=""mailto:protocollo@pec.sissa.it"">protocollo@pec.sissa.it</a>.</p>
      <p style=""font-size: 15px;""> Prima di esprimere il suo consenso alla partecipazione, Le ricordiamo ancora che in caso Lei abbia bisogno di delucidazioni su qualunque aspetto della procedura sperimentale, il ricercatore è a Sua completa disposizione (<a href=""mailto:aliebelt@sissa.it"">aliebelt@sissa.it</a>, <a href=""mailto:davide.crepaldi@sissa.it"">davide.crepaldi@sissa.it</a>).</p>
      <p style=""font-size: 15px;"">Se vuole scaricare il modulo di consenso informato, clicca qui: <a href=""BASL_modulo_consenso.pdf"" download>modulo di consenso</a>.</p>
      <p style=""font-size: 15px;""> Le chiediamo di premere la barra per continuare al consenso.</p>","","","","","","","",""
"survey-html-form","3","66089","0.0-3.0","5c5e04ca6539fe00016e1afa","64b003020eef62ee308107cc","64b03cfcdb9478872012dd44","15180","{""consent1"":""YES"",""consent2"":""YES"",""consent3"":""YES"",""consent4"":""YES"",""consent5"":""YES"",""consent6"":""YES""}","","","","","","","","",""
"fullscreen","4","71317","0.0-4.0","5c5e04ca6539fe00016e1afa","64b003020eef62ee308107cc","64b03cfcdb9478872012dd44","","","","true","","","","","","",""
"html-keyboard-response","5","83310","0.0-5.0","5c5e04ca6539fe00016e1afa","64b003020eef62ee308107cc","64b03cfcdb9478872012dd44","11992"," ","<p>Benvenuta/o, e grazie mille del tuo tempo!</p>
      <p>In questo esperimento sarai un esperto/un'esperta di linguaggio cui è stato chiesto di dare un'occhiata ad alcuni messaggi che la Terra ha ricevuto dallo spazio. Il tuo compito, in questa prima parte dell'esperimento, sarà di fare molta attenzione alle parole che ti verranno mostrate; più tardi, i leader del mondo ti chiederanno qualche informazione su quello che hai visto. Le parole si susseguiranno abbastanza velocemente; sembra che questi alieni abbiano una certa fretta :-) </p>
      <p>Per favore, chiama lo sperimentatore se ha qualche domanda.</p><p>Premi la barra per continuare.</p>","","","","","","","",""
"html-keyboard-response","6","86420","0.0-6.0","5c5e04ca6539fe00016e1afa","64b003020eef62ee308107cc","64b03cfcdb9478872012dd44","3109"," ","<p>Ecco un esempio delle parole che vedrai:</p>
      <img src='esempio.png' height='400px'>
      <p>Quando sei pronti per iniziare, premi la barra.</p></div>","","","","","","","",""
"html-keyboard-response","7","87422","0.0-7.0-0.0","5c5e04ca6539fe00016e1afa","64b003020eef62ee308107cc","64b03cfcdb9478872012dd44","null","null","<p style=""font-size: 60px; font-family: BACS"">kRCkOKlkD</p>","","","","","","","",""
"html-keyboard-response","8","88435","0.0-7.0-0.1","5c5e04ca6539fe00016e1afa","64b003020eef62ee308107cc","64b03cfcdb9478872012dd44","null","null","<p style=""font-size: 60px; font-family: BACS"">lCbcmRCdc</p>","","","","","","","",""
"html-keyboard-response","9","89437","0.0-7.0-0.2","5c5e04ca6539fe00016e1afa","64b003020eef62ee308107cc","64b03cfcdb9478872012dd44","null","null","<p style=""font-size: 60px; font-family: BACS"">rdLJarULv</p>","","","","","","","",""
"html-keyboard-response","10","90446","0.0-7.0-0.3","5c5e04ca6539fe00016e1afa","64b003020eef62ee308107cc","64b03cfcdb9478872012dd44","null","null","<p style=""font-size: 60px; font-family: BACS"">kbmZOAOUl</p>","","","","","","","",""
"html-keyboard-response","11","91448","0.0-7.0-0.4","5c5e04ca6539fe00016e1afa","64b003020eef62ee308107cc","64b03cfcdb9478872012dd44","null","null","<p style=""font-size: 60px; font-family: BACS"">OcYMTAm</p>","","","","","","","",""
"html-keyboard-response","12","92453","0.0-7.0-0.5","5c5e04ca6539fe00016e1afa","64b003020eef62ee308107cc","64b03cfcdb9478872012dd44","null","null","<p style=""font-size: 60px; font-family: BACS"">kbmZOrULv</p>","","","","","","","",""
"html-keyboard-response","13","93464","0.0-7.0-0.6","5c5e04ca6539fe00016e1afa","64b003020eef62ee308107cc","64b03cfcdb9478872012dd44","null","null","<p style=""font-size: 60px; font-family: BACS"">AMkCkPM</p>","","","","","","","",""
"html-keyboard-response","14","94477","0.0-7.0-0.7","5c5e04ca6539fe00016e1afa","64b003020eef62ee308107cc","64b03cfcdb9478872012dd44","null","null","<p style=""font-size: 60px; font-family: BACS"">rbYbuGUa</p>","","","","","","","",""
"html-keyboard-response","15","95479","0.0-7.0-0.8","5c5e04ca6539fe00016e1afa","64b003020eef62ee308107cc","64b03cfcdb9478872012dd44","null","null","<p style=""font-size: 60px; font-family: BACS"">RhPmTAm</p>","","","","","","","",""
"html-keyboard-response","16","96488","0.0-7.0-0.9","5c5e04ca6539fe00016e1afa","64b003020eef62ee308107cc","64b03cfcdb9478872012dd44","null","null","<p style=""font-size: 60px; font-family: BACS"">aYQmGUa</p>","","","","","","","",""
"html-keyboard-response","17","97498","0.0-7.0-0.10","5c5e04ca6539fe00016e1afa","64b003020eef62ee308107cc","64b03cfcdb9478872012dd44","null","null","<p style=""font-size: 60px; font-family: BACS"">AMkCcMRl</p>","","","","","","","",""
"html-keyboard-response","18","98500","0.0-7.0-0.11","5c5e04ca6539fe00016e1afa","64b003020eef62ee308107cc","64b03cfcdb9478872012dd44","null","null","<p style=""font-size: 60px; font-family: BACS"">lCbcmTAm</p>","","","","","","","",""
"html-keyboard-response","19","99515","0.0-7.0-0.12","5c5e04ca6539fe00016e1afa","64b003020eef62ee308107cc","64b03cfcdb9478872012dd44","null","null","<p style=""font-size: 60px; font-family: BACS"">kZUbrULv</p>","","","","","","","",""
"html-keyboard-response","20","100517","0.0-7.0-0.13","5c5e04ca6539fe00016e1afa","64b003020eef62ee308107cc","64b03cfcdb9478872012dd44","null","null","<p style=""font-size: 60px; font-family: BACS"">kKEdMKlkD</p>","","","","","","","",""
"html-keyboard-response","21","101521","0.0-7.0-0.14","5c5e04ca6539fe00016e1afa","64b003020eef62ee308107cc","64b03cfcdb9478872012dd44","null","null","<p style=""font-size: 60px; font-family: BACS"">dGLAlAOUl</p>","","","","","","","",""
"html-keyboard-response","22","102533","0.0-7.0-0.15","5c5e04ca6539fe00016e1afa","64b003020eef62ee308107cc","64b03cfcdb9478872012dd44","null","null","<p style=""font-size: 60px; font-family: BACS"">rkYLrULv</p>","","","","","","","",""
"html-keyboard-response","23","103536","0.0-7.0-0.16","5c5e04ca6539fe00016e1afa","64b003020eef62ee308107cc","64b03cfcdb9478872012dd44","null","null","<p style=""font-size: 60px; font-family: BACS"">kKEdMkPM</p>","","","","","","","",""
"html-keyboard-response","24","104544","0.0-7.0-0.17","5c5e04ca6539fe00016e1afa","64b003020eef62ee308107cc","64b03cfcdb9478872012dd44","null","null","<p style=""font-size: 60px; font-family: BACS"">hlbtbTAm</p>","","","","","","","",""
"html-keyboard-response","25","105555","0.0-7.0-0.18","5c5e04ca6539fe00016e1afa","64b003020eef62ee308107cc","64b03cfcdb9478872012dd44","null","null","<p style=""font-size: 60px; font-family: BACS"">hmKPMKlkD</p>","","","","","","","",""
"html-keyboard-response","26","106572","0.0-7.0-0.19","5c5e04ca6539fe00016e1afa","64b003020eef62ee308107cc","64b03cfcdb9478872012dd44","null","null","<p style=""font-size: 60px; font-family: BACS"">rdLJaYaum</p>","","","","","","","",""
"html-keyboard-response","27","107573","0.0-7.0-0.20","5c5e04ca6539fe00016e1afa","64b003020eef62ee308107cc","64b03cfcdb9478872012dd44","null","null","<p style=""font-size: 60px; font-family: BACS"">rvOvUGUa</p>","","","","","","","",""
"html-keyboard-response","28","108575","0.0-7.0-0.21","5c5e04ca6539fe00016e1afa","64b003020eef62ee308107cc","64b03cfcdb9478872012dd44","null","null","<p style=""font-size: 60px; font-family: BACS"">kRCkOTAm</p>","","","","","","","",""
"html-keyboard-response","29","109577","0.0-7.0-0.22","5c5e04ca6539fe00016e1afa","64b003020eef62ee308107cc","64b03cfcdb9478872012dd44","null","null","<p style=""font-size: 60px; font-family: BACS"">MTdYkPM</p>","","","","","","","",""
"html-keyboard-response","30","110584","0.0-7.0-0.23","5c5e04ca6539fe00016e1afa","64b003020eef62ee308107cc","64b03cfcdb9478872012dd44","null","null","<p style=""font-size: 60px; font-family: BACS"">rvOvUrULv</p>","","","","","","","",""
"html-keyboard-response","31","111585","0.0-7.0-0.24","5c5e04ca6539fe00016e1afa","64b003020eef62ee308107cc","64b03cfcdb9478872012dd44","null","null","<p style=""font-size: 60px; font-family: BACS"">dGLAlGUa</p>","","","","","","","",""
"html-keyboard-response","32","112592","0.0-7.0-0.25","5c5e04ca6539fe00016e1afa","64b003020eef62ee308107cc","64b03cfcdb9478872012dd44","null","null","<p style=""font-size: 60px; font-family: BACS"">hlbtbcMRl</p>","","","","","","","",""
"html-keyboard-response","33","113600","0.0-7.0-0.26","5c5e04ca6539fe00016e1afa","64b003020eef62ee308107cc","64b03cfcdb9478872012dd44","null","null","<p style=""font-size: 60px; font-family: BACS"">TDKhKlkD</p>","","","","","","","",""
"html-keyboard-response","34","114602","0.0-7.0-0.27","5c5e04ca6539fe00016e1afa","64b003020eef62ee308107cc","64b03cfcdb9478872012dd44","null","null","<p style=""font-size: 60px; font-family: BACS"">rbYburNlZ</p>","","","","","","","",""
"html-keyboard-response","35","115604","0.0-7.0-0.28","5c5e04ca6539fe00016e1afa","64b003020eef62ee308107cc","64b03cfcdb9478872012dd44","null","null","<p style=""font-size: 60px; font-family: BACS"">rkYLGUa</p>","","","","","","","",""
"html-keyboard-response","36","116620","0.0-7.0-0.29","5c5e04ca6539fe00016e1afa","64b003020eef62ee308107cc","64b03cfcdb9478872012dd44","null","null","<p style=""font-size: 60px; font-family: BACS"">AMkCRCdc</p>","","","","","","","",""
"html-keyboard-response","37","117634","0.0-7.0-0.30","5c5e04ca6539fe00016e1afa","64b003020eef62ee308107cc","64b03cfcdb9478872012dd44","null","null","<p style=""font-size: 60px; font-family: BACS"">JZOAkGUa</p>","","","","","","","",""
"html-keyboard-response","38","118647","0.0-7.0-0.31","5c5e04ca6539fe00016e1afa","64b003020eef62ee308107cc","64b03cfcdb9478872012dd44","null","null","<p style=""font-size: 60px; font-family: BACS"">OcYMkPM</p>","","","","","","","",""
"html-keyboard-response","39","119661","0.0-7.0-0.32","5c5e04ca6539fe00016e1afa","64b003020eef62ee308107cc","64b03cfcdb9478872012dd44","null","null","<p style=""font-size: 60px; font-family: BACS"">AMkCTAm</p>","","","","","","","",""
"html-keyboard-response","40","120662","0.0-7.0-0.33","5c5e04ca6539fe00016e1afa","64b003020eef62ee308107cc","64b03cfcdb9478872012dd44","null","null","<p style=""font-size: 60px; font-family: BACS"">MTdYRCdc</p>","","","","","","","",""
"html-keyboard-response","41","121664","0.0-7.0-0.34","5c5e04ca6539fe00016e1afa","64b003020eef62ee308107cc","64b03cfcdb9478872012dd44","null","null","<p style=""font-size: 60px; font-family: BACS"">rdLJarNlZ</p>","","","","","","","",""
"html-keyboard-response","42","122666","0.0-7.0-0.35","5c5e04ca6539fe00016e1afa","64b003020eef62ee308107cc","64b03cfcdb9478872012dd44","null","null","<p style=""font-size: 60px; font-family: BACS"">OcYMcMRl</p>","","","","","","","",""
"html-keyboard-response","43","123669","0.0-7.0-0.36","5c5e04ca6539fe00016e1afa","64b003020eef62ee308107cc","64b03cfcdb9478872012dd44","null","null","<p style=""font-size: 60px; font-family: BACS"">rbYbuYaum</p>","","","","","","","",""
"html-keyboard-response","44","124670","0.0-7.0-0.37","5c5e04ca6539fe00016e1afa","64b003020eef62ee308107cc","64b03cfcdb9478872012dd44","null","null","<p style=""font-size: 60px; font-family: BACS"">dGLAlrULv</p>","","","","","","","",""
"html-keyboard-response","45","125681","0.0-7.0-0.38","5c5e04ca6539fe00016e1afa","64b003020eef62ee308107cc","64b03cfcdb9478872012dd44","null","null","<p style=""font-size: 60px; font-family: BACS"">rdLJaAOUl</p>","","","","","","","",""
"html-keyboard-response","46","126683","0.0-7.0-0.39","5c5e04ca6539fe00016e1afa","64b003020eef62ee308107cc","64b03cfcdb9478872012dd44","null","null","<p style=""font-size: 60px; font-family: BACS"">rkYLYaum</p>","","","","","","","",""
"html-keyboard-response","47","127685","0.0-7.0-0.40","5c5e04ca6539fe00016e1afa","64b003020eef62ee308107cc","64b03cfcdb9478872012dd44","null","null","<p style=""font-size: 60px; font-family: BACS"">bmbNAOUl</p>","","","","","","","",""
"html-keyboard-response","48","128693","0.0-7.0-0.41","5c5e04ca6539fe00016e1afa","64b003020eef62ee308107cc","64b03cfcdb9478872012dd44","null","null","<p style=""font-size: 60px; font-family: BACS"">JZOAkrULv</p>","","","","","","","",""
"html-keyboard-response","49","129694","0.0-7.0-0.42","5c5e04ca6539fe00016e1afa","64b003020eef62ee308107cc","64b03cfcdb9478872012dd44","null","null","<p style=""font-size: 60px; font-family: BACS"">hmKPMTAm</p>","","","","","","","",""
"html-keyboard-response","50","130707","0.0-7.0-0.43","5c5e04ca6539fe00016e1afa","64b003020eef62ee308107cc","64b03cfcdb9478872012dd44","null","null","<p style=""font-size: 60px; font-family: BACS"">JZOAkrNlZ</p>","","","","","","","",""
"html-keyboard-response","51","131708","0.0-7.0-0.44","5c5e04ca6539fe00016e1afa","64b003020eef62ee308107cc","64b03cfcdb9478872012dd44","null","null","<p style=""font-size: 60px; font-family: BACS"">bmbNrULv</p>","","","","","","","",""
"html-keyboard-response","52","132710","0.0-7.0-0.45","5c5e04ca6539fe00016e1afa","64b003020eef62ee308107cc","64b03cfcdb9478872012dd44","null","null","<p style=""font-size: 60px; font-family: BACS"">hlbtbRCdc</p>","","","","","","","",""
"html-keyboard-response","53","133720","0.0-7.0-0.46","5c5e04ca6539fe00016e1afa","64b003020eef62ee308107cc","64b03cfcdb9478872012dd44","null","null","<p style=""font-size: 60px; font-family: BACS"">lCbcmKlkD</p>","","","","","","","",""
"html-keyboard-response","54","134736","0.0-7.0-0.47","5c5e04ca6539fe00016e1afa","64b003020eef62ee308107cc","64b03cfcdb9478872012dd44","null","null","<p style=""font-size: 60px; font-family: BACS"">kRCkOkPM</p>","","","","","","","",""
"html-keyboard-response","55","135737","0.0-7.0-0.48","5c5e04ca6539fe00016e1afa","64b003020eef62ee308107cc","64b03cfcdb9478872012dd44","null","null","<p style=""font-size: 60px; font-family: BACS"">kbmZOGUa</p>","","","","","","","",""
"html-keyboard-response","56","136740","0.0-7.0-0.49","5c5e04ca6539fe00016e1afa","64b003020eef62ee308107cc","64b03cfcdb9478872012dd44","null","null","<p style=""font-size: 60px; font-family: BACS"">hmKPMcMRl</p>","","","","","","","",""
"html-keyboard-response","57","137752","0.0-7.0-0.50","5c5e04ca6539fe00016e1afa","64b003020eef62ee308107cc","64b03cfcdb9478872012dd44","null","null","<p style=""font-size: 60px; font-family: BACS"">kZUbYaum</p>","","","","","","","",""
"html-keyboard-response","58","138760","0.0-7.0-0.51","5c5e04ca6539fe00016e1afa","64b003020eef62ee308107cc","64b03cfcdb9478872012dd44","null","null","<p style=""font-size: 60px; font-family: BACS"">rkYLrNlZ</p>","","","","","","","",""
"html-keyboard-response","59","139762","0.0-7.0-0.52","5c5e04ca6539fe00016e1afa","64b003020eef62ee308107cc","64b03cfcdb9478872012dd44","null","null","<p style=""font-size: 60px; font-family: BACS"">TDKhcMRl</p>","","","","","","","",""
"html-keyboard-response","60","140775","0.0-7.0-0.53","5c5e04ca6539fe00016e1afa","64b003020eef62ee308107cc","64b03cfcdb9478872012dd44","null","null","<p style=""font-size: 60px; font-family: BACS"">RhPmRCdc</p>","","","","","","","",""
"html-keyboard-response","61","141786","0.0-7.0-0.54","5c5e04ca6539fe00016e1afa","64b003020eef62ee308107cc","64b03cfcdb9478872012dd44","null","null","<p style=""font-size: 60px; font-family: BACS"">kKEdMcMRl</p>","","","","","","","",""
"html-keyboard-response","62","142788","0.0-7.0-0.55","5c5e04ca6539fe00016e1afa","64b003020eef62ee308107cc","64b03cfcdb9478872012dd44","null","null","<p style=""font-size: 60px; font-family: BACS"">MTdYKlkD</p>","","","","","","","",""
"html-keyboard-response","63","143797","0.0-7.0-0.56","5c5e04ca6539fe00016e1afa","64b003020eef62ee308107cc","64b03cfcdb9478872012dd44","null","null","<p style=""font-size: 60px; font-family: BACS"">TDKhkPM</p>","","","","","","","",""
"html-keyboard-response","64","144797","0.0-7.0-0.57","5c5e04ca6539fe00016e1afa","64b003020eef62ee308107cc","64b03cfcdb9478872012dd44","null","null","<p style=""font-size: 60px; font-family: BACS"">rbYbuAOUl</p>","","","","","","","",""
"html-keyboard-response","65","145808","0.0-7.0-0.58","5c5e04ca6539fe00016e1afa","64b003020eef62ee308107cc","64b03cfcdb9478872012dd44","null","null","<p style=""font-size: 60px; font-family: BACS"">MTdYcMRl</p>","","","","","","","",""
"html-keyboard-response","66","146816","0.0-7.0-0.59","5c5e04ca6539fe00016e1afa","64b003020eef62ee308107cc","64b03cfcdb9478872012dd44","null","null","<p style=""font-size: 60px; font-family: BACS"">kRCkORCdc</p>","","","","","","","",""
"html-keyboard-response","67","147827","0.0-7.0-0.60","5c5e04ca6539fe00016e1afa","64b003020eef62ee308107cc","64b03cfcdb9478872012dd44","null","null","<p style=""font-size: 60px; font-family: BACS"">rvOvUrNlZ</p>","","","","","","","",""
"html-keyboard-response","68","148828","0.0-7.0-0.61","5c5e04ca6539fe00016e1afa","64b003020eef62ee308107cc","64b03cfcdb9478872012dd44","null","null","<p style=""font-size: 60px; font-family: BACS"">kbmZOYaum</p>","","","","","","","",""
"html-keyboard-response","69","149843","0.0-7.0-0.62","5c5e04ca6539fe00016e1afa","64b003020eef62ee308107cc","64b03cfcdb9478872012dd44","null","null","<p style=""font-size: 60px; font-family: BACS"">dGLAlrNlZ</p>","","","","","","","",""
"html-keyboard-response","70","150845","0.0-7.0-0.63","5c5e04ca6539fe00016e1afa","64b003020eef62ee308107cc","64b03cfcdb9478872012dd44","null","null","<p style=""font-size: 60px; font-family: BACS"">rvOvUAOUl</p>","","","","","","","",""
"html-keyboard-response","71","151852","0.0-7.0-0.64","5c5e04ca6539fe00016e1afa","64b003020eef62ee308107cc","64b03cfcdb9478872012dd44","null","null","<p style=""font-size: 60px; font-family: BACS"">kZUbGUa</p>","","","","","","","",""
"html-keyboard-response","72","152853","0.0-7.0-0.65","5c5e04ca6539fe00016e1afa","64b003020eef62ee308107cc","64b03cfcdb9478872012dd44","null","null","<p style=""font-size: 60px; font-family: BACS"">hlbtbKlkD</p>","","","","","","","",""
"html-keyboard-response","73","153862","0.0-7.0-0.66","5c5e04ca6539fe00016e1afa","64b003020eef62ee308107cc","64b03cfcdb9478872012dd44","null","null","<p style=""font-size: 60px; font-family: BACS"">hmKPMRCdc</p>","","","","","","","",""
"html-keyboard-response","74","154864","0.0-7.0-0.67","5c5e04ca6539fe00016e1afa","64b003020eef62ee308107cc","64b03cfcdb9478872012dd44","null","null","<p style=""font-size: 60px; font-family: BACS"">RhPmcMRl</p>","","","","","","","",""
"html-keyboard-response","75","155870","0.0-7.0-0.68","5c5e04ca6539fe00016e1afa","64b003020eef62ee308107cc","64b03cfcdb9478872012dd44","null","null","<p style=""font-size: 60px; font-family: BACS"">aYQmrNlZ</p>","","","","","","","",""
"html-keyboard-response","76","156880","0.0-7.0-0.69","5c5e04ca6539fe00016e1afa","64b003020eef62ee308107cc","64b03cfcdb9478872012dd44","null","null","<p style=""font-size: 60px; font-family: BACS"">JZOAkYaum</p>","","","","","","","",""
"html-keyboard-response","77","157882","0.0-7.0-0.70","5c5e04ca6539fe00016e1afa","64b003020eef62ee308107cc","64b03cfcdb9478872012dd44","null","null","<p style=""font-size: 60px; font-family: BACS"">TDKhRCdc</p>","","","","","","","",""
"html-keyboard-response","78","158891","0.0-7.0-0.71","5c5e04ca6539fe00016e1afa","64b003020eef62ee308107cc","64b03cfcdb9478872012dd44","null","null","<p style=""font-size: 60px; font-family: BACS"">lCbcmkPM</p>","","","","","","","",""
"html-keyboard-response","79","159892","0.0-7.0-0.72","5c5e04ca6539fe00016e1afa","64b003020eef62ee308107cc","64b03cfcdb9478872012dd44","null","null","<p style=""font-size: 60px; font-family: BACS"">bmbNrNlZ</p>","","","","","","","",""
"html-keyboard-response","80","160902","0.0-7.0-0.73","5c5e04ca6539fe00016e1afa","64b003020eef62ee308107cc","64b03cfcdb9478872012dd44","null","null","<p style=""font-size: 60px; font-family: BACS"">aYQmAOUl</p>","","","","","","","",""
"html-keyboard-response","81","161912","0.0-7.0-0.74","5c5e04ca6539fe00016e1afa","64b003020eef62ee308107cc","64b03cfcdb9478872012dd44","null","null","<p style=""font-size: 60px; font-family: BACS"">RhPmkPM</p>","","","","","","","",""
"html-keyboard-response","82","162924","0.0-7.0-0.75","5c5e04ca6539fe00016e1afa","64b003020eef62ee308107cc","64b03cfcdb9478872012dd44","null","null","<p style=""font-size: 60px; font-family: BACS"">OcYMKlkD</p>","","","","","","","",""
"html-keyboard-response","83","163925","0.0-7.0-0.76","5c5e04ca6539fe00016e1afa","64b003020eef62ee308107cc","64b03cfcdb9478872012dd44","null","null","<p style=""font-size: 60px; font-family: BACS"">bmbNYaum</p>","","","","","","","",""
"html-keyboard-response","84","164926","0.0-7.0-0.77","5c5e04ca6539fe00016e1afa","64b003020eef62ee308107cc","64b03cfcdb9478872012dd44","null","null","<p style=""font-size: 60px; font-family: BACS"">kKEdMTAm</p>","","","","","","","",""
"html-keyboard-response","85","165926","0.0-7.0-0.78","5c5e04ca6539fe00016e1afa","64b003020eef62ee308107cc","64b03cfcdb9478872012dd44","null","null","<p style=""font-size: 60px; font-family: BACS"">kZUbAOUl</p>","","","","","","","",""
"html-keyboard-response","86","166930","0.0-7.0-0.79","5c5e04ca6539fe00016e1afa","64b003020eef62ee308107cc","64b03cfcdb9478872012dd44","null","null","<p style=""font-size: 60px; font-family: BACS"">aYQmYaum</p>","","","","","","","",""
"html-keyboard-response","87","198226","0.0-8.0","5c5e04ca6539fe00016e1afa","64b003020eef62ee308107cc","64b03cfcdb9478872012dd44","31295"," ","<p>Ottimo, hai visto il primo blocco di parole. Ora puoi prenderti una piccola pausa.</p>
      <p>Premi la barra quando sei pronta/o per riprendere.</p>","","","","","","","",""
"html-keyboard-response","88","199227","0.0-9.0-0.0","5c5e04ca6539fe00016e1afa","64b003020eef62ee308107cc","64b03cfcdb9478872012dd44","null","null","<p style=""font-size: 60px; font-family: BACS"">OcYMkPM</p>","","","","","","","",""
"html-keyboard-response","89","200228","0.0-9.0-0.1","5c5e04ca6539fe00016e1afa","64b003020eef62ee308107cc","64b03cfcdb9478872012dd44","null","null","<p style=""font-size: 60px; font-family: BACS"">kRCkOKlkD</p>","","","","","","","",""
"html-keyboard-response","90","201235","0.0-9.0-0.2","5c5e04ca6539fe00016e1afa","64b003020eef62ee308107cc","64b03cfcdb9478872012dd44","null","null","<p style=""font-size: 60px; font-family: BACS"">rdLJaAOUl</p>","","","","","","","",""
"html-keyboard-response","91","202251","0.0-9.0-0.3","5c5e04ca6539fe00016e1afa","64b003020eef62ee308107cc","64b03cfcdb9478872012dd44","null","null","<p style=""font-size: 60px; font-family: BACS"">kRCkOkPM</p>","","","","","","","",""
"html-keyboard-response","92","203252","0.0-9.0-0.4","5c5e04ca6539fe00016e1afa","64b003020eef62ee308107cc","64b03cfcdb9478872012dd44","null","null","<p style=""font-size: 60px; font-family: BACS"">hmKPMKlkD</p>","","","","","","","",""
"html-keyboard-response","93","204253","0.0-9.0-0.5","5c5e04ca6539fe00016e1afa","64b003020eef62ee308107cc","64b03cfcdb9478872012dd44","null","null","<p style=""font-size: 60px; font-family: BACS"">aYQmrNlZ</p>","","","","","","","",""
"html-keyboard-response","94","205255","0.0-9.0-0.6","5c5e04ca6539fe00016e1afa","64b003020eef62ee308107cc","64b03cfcdb9478872012dd44","null","null","<p style=""font-size: 60px; font-family: BACS"">lCbcmKlkD</p>","","","","","","","",""
"html-keyboard-response","95","206255","0.0-9.0-0.7","5c5e04ca6539fe00016e1afa","64b003020eef62ee308107cc","64b03cfcdb9478872012dd44","null","null","<p style=""font-size: 60px; font-family: BACS"">kKEdMkPM</p>","","","","","","","",""
"html-keyboard-response","96","207256","0.0-9.0-0.8","5c5e04ca6539fe00016e1afa","64b003020eef62ee308107cc","64b03cfcdb9478872012dd44","null","null","<p style=""font-size: 60px; font-family: BACS"">JZOAkYaum</p>","","","","","","","",""
"html-keyboard-response","97","208265","0.0-9.0-0.9","5c5e04ca6539fe00016e1afa","64b003020eef62ee308107cc","64b03cfcdb9478872012dd44","null","null","<p style=""font-size: 60px; font-family: BACS"">rbYbuGUa</p>","","","","","","","",""
"html-keyboard-response","98","209266","0.0-9.0-0.10","5c5e04ca6539fe00016e1afa","64b003020eef62ee308107cc","64b03cfcdb9478872012dd44","null","null","<p style=""font-size: 60px; font-family: BACS"">rkYLYaum</p>","","","","","","","",""
"html-keyboard-response","99","210279","0.0-9.0-0.11","5c5e04ca6539fe00016e1afa","64b003020eef62ee308107cc","64b03cfcdb9478872012dd44","null","null","<p style=""font-size: 60px; font-family: BACS"">MTdYRCdc</p>","","","","","","","",""
"html-keyboard-response","100","211281","0.0-9.0-0.12","5c5e04ca6539fe00016e1afa","64b003020eef62ee308107cc","64b03cfcdb9478872012dd44","null","null","<p style=""font-size: 60px; font-family: BACS"">bmbNrNlZ</p>","","","","","","","",""
"html-keyboard-response","101","212283","0.0-9.0-0.13","5c5e04ca6539fe00016e1afa","64b003020eef62ee308107cc","64b03cfcdb9478872012dd44","null","null","<p style=""font-size: 60px; font-family: BACS"">dGLAlrULv</p>","","","","","","","",""
"html-keyboard-response","102","213285","0.0-9.0-0.14","5c5e04ca6539fe00016e1afa","64b003020eef62ee308107cc","64b03cfcdb9478872012dd44","null","null","<p style=""font-size: 60px; font-family: BACS"">rdLJaYaum</p>","","","","","","","",""
"html-keyboard-response","103","214287","0.0-9.0-0.15","5c5e04ca6539fe00016e1afa","64b003020eef62ee308107cc","64b03cfcdb9478872012dd44","null","null","<p style=""font-size: 60px; font-family: BACS"">kRCkORCdc</p>","","","","","","","",""
"html-keyboard-response","104","215302","0.0-9.0-0.16","5c5e04ca6539fe00016e1afa","64b003020eef62ee308107cc","64b03cfcdb9478872012dd44","null","null","<p style=""font-size: 60px; font-family: BACS"">hlbtbTAm</p>","","","","","","","",""
"html-keyboard-response","105","216302","0.0-9.0-0.17","5c5e04ca6539fe00016e1afa","64b003020eef62ee308107cc","64b03cfcdb9478872012dd44","null","null","<p style=""font-size: 60px; font-family: BACS"">bmbNAOUl</p>","","","","","","","",""
"html-keyboard-response","106","217314","0.0-9.0-0.18","5c5e04ca6539fe00016e1afa","64b003020eef62ee308107cc","64b03cfcdb9478872012dd44","null","null","<p style=""font-size: 60px; font-family: BACS"">dGLAlGUa</p>","","","","","","","",""
"html-keyboard-response","107","218327","0.0-9.0-0.19","5c5e04ca6539fe00016e1afa","64b003020eef62ee308107cc","64b03cfcdb9478872012dd44","null","null","<p style=""font-size: 60px; font-family: BACS"">rdLJarULv</p>","","","","","","","",""
"html-keyboard-response","108","219343","0.0-9.0-0.20","5c5e04ca6539fe00016e1afa","64b003020eef62ee308107cc","64b03cfcdb9478872012dd44","null","null","<p style=""font-size: 60px; font-family: BACS"">RhPmcMRl</p>","","","","","","","",""
"html-keyboard-response","109","220344","0.0-9.0-0.21","5c5e04ca6539fe00016e1afa","64b003020eef62ee308107cc","64b03cfcdb9478872012dd44","null","null","<p style=""font-size: 60px; font-family: BACS"">rkYLrULv</p>","","","","","","","",""
"html-keyboard-response","110","221350","0.0-9.0-0.22","5c5e04ca6539fe00016e1afa","64b003020eef62ee308107cc","64b03cfcdb9478872012dd44","null","null","<p style=""font-size: 60px; font-family: BACS"">JZOAkGUa</p>","","","","","","","",""
"html-keyboard-response","111","222361","0.0-9.0-0.23","5c5e04ca6539fe00016e1afa","64b003020eef62ee308107cc","64b03cfcdb9478872012dd44","null","null","<p style=""font-size: 60px; font-family: BACS"">kZUbrULv</p>","","","","","","","",""
"html-keyboard-response","112","223361","0.0-9.0-0.24","5c5e04ca6539fe00016e1afa","64b003020eef62ee308107cc","64b03cfcdb9478872012dd44","null","null","<p style=""font-size: 60px; font-family: BACS"">TDKhKlkD</p>","","","","","","","",""
"html-keyboard-response","113","224362","0.0-9.0-0.25","5c5e04ca6539fe00016e1afa","64b003020eef62ee308107cc","64b03cfcdb9478872012dd44","null","null","<p style=""font-size: 60px; font-family: BACS"">MTdYkPM</p>","","","","","","","",""
"html-keyboard-response","114","225365","0.0-9.0-0.26","5c5e04ca6539fe00016e1afa","64b003020eef62ee308107cc","64b03cfcdb9478872012dd44","null","null","<p style=""font-size: 60px; font-family: BACS"">rkYLrNlZ</p>","","","","","","","",""
"html-keyboard-response","115","226380","0.0-9.0-0.27","5c5e04ca6539fe00016e1afa","64b003020eef62ee308107cc","64b03cfcdb9478872012dd44","null","null","<p style=""font-size: 60px; font-family: BACS"">aYQmGUa</p>","","","","","","","",""
"html-keyboard-response","116","227391","0.0-9.0-0.28","5c5e04ca6539fe00016e1afa","64b003020eef62ee308107cc","64b03cfcdb9478872012dd44","null","null","<p style=""font-size: 60px; font-family: BACS"">kbmZOYaum</p>","","","","","","","",""
"html-keyboard-response","117","228397","0.0-9.0-0.29","5c5e04ca6539fe00016e1afa","64b003020eef62ee308107cc","64b03cfcdb9478872012dd44","null","null","<p style=""font-size: 60px; font-family: BACS"">TDKhcMRl</p>","","","","","","","",""
"html-keyboard-response","118","229409","0.0-9.0-0.30","5c5e04ca6539fe00016e1afa","64b003020eef62ee308107cc","64b03cfcdb9478872012dd44","null","null","<p style=""font-size: 60px; font-family: BACS"">RhPmTAm</p>","","","","","","","",""
"html-keyboard-response","119","230422","0.0-9.0-0.31","5c5e04ca6539fe00016e1afa","64b003020eef62ee308107cc","64b03cfcdb9478872012dd44","null","null","<p style=""font-size: 60px; font-family: BACS"">hlbtbKlkD</p>","","","","","","","",""
"html-keyboard-response","120","231425","0.0-9.0-0.32","5c5e04ca6539fe00016e1afa","64b003020eef62ee308107cc","64b03cfcdb9478872012dd44","null","null","<p style=""font-size: 60px; font-family: BACS"">kbmZOrULv</p>","","","","","","","",""
"html-keyboard-response","121","232427","0.0-9.0-0.33","5c5e04ca6539fe00016e1afa","64b003020eef62ee308107cc","64b03cfcdb9478872012dd44","null","null","<p style=""font-size: 60px; font-family: BACS"">AMkCkPM</p>","","","","","","","",""
"html-keyboard-response","122","233432","0.0-9.0-0.34","5c5e04ca6539fe00016e1afa","64b003020eef62ee308107cc","64b03cfcdb9478872012dd44","null","null","<p style=""font-size: 60px; font-family: BACS"">dGLAlrNlZ</p>","","","","","","","",""
"html-keyboard-response","123","234443","0.0-9.0-0.35","5c5e04ca6539fe00016e1afa","64b003020eef62ee308107cc","64b03cfcdb9478872012dd44","null","null","<p style=""font-size: 60px; font-family: BACS"">rbYbuYaum</p>","","","","","","","",""
"html-keyboard-response","124","235445","0.0-9.0-0.36","5c5e04ca6539fe00016e1afa","64b003020eef62ee308107cc","64b03cfcdb9478872012dd44","null","null","<p style=""font-size: 60px; font-family: BACS"">rdLJarNlZ</p>","","","","","","","",""
"html-keyboard-response","125","236451","0.0-9.0-0.37","5c5e04ca6539fe00016e1afa","64b003020eef62ee308107cc","64b03cfcdb9478872012dd44","null","null","<p style=""font-size: 60px; font-family: BACS"">kKEdMKlkD</p>","","","","","","","",""
"html-keyboard-response","126","237462","0.0-9.0-0.38","5c5e04ca6539fe00016e1afa","64b003020eef62ee308107cc","64b03cfcdb9478872012dd44","null","null","<p style=""font-size: 60px; font-family: BACS"">kZUbGUa</p>","","","","","","","",""
"html-keyboard-response","127","238474","0.0-9.0-0.39","5c5e04ca6539fe00016e1afa","64b003020eef62ee308107cc","64b03cfcdb9478872012dd44","null","null","<p style=""font-size: 60px; font-family: BACS"">RhPmkPM</p>","","","","","","","",""
"html-keyboard-response","128","239489","0.0-9.0-0.40","5c5e04ca6539fe00016e1afa","64b003020eef62ee308107cc","64b03cfcdb9478872012dd44","null","null","<p style=""font-size: 60px; font-family: BACS"">hmKPMRCdc</p>","","","","","","","",""
"html-keyboard-response","129","240490","0.0-9.0-0.41","5c5e04ca6539fe00016e1afa","64b003020eef62ee308107cc","64b03cfcdb9478872012dd44","null","null","<p style=""font-size: 60px; font-family: BACS"">bmbNrULv</p>","","","","","","","",""
"html-keyboard-response","130","241500","0.0-9.0-0.42","5c5e04ca6539fe00016e1afa","64b003020eef62ee308107cc","64b03cfcdb9478872012dd44","null","null","<p style=""font-size: 60px; font-family: BACS"">rvOvUrNlZ</p>","","","","","","","",""
"html-keyboard-response","131","242501","0.0-9.0-0.43","5c5e04ca6539fe00016e1afa","64b003020eef62ee308107cc","64b03cfcdb9478872012dd44","null","null","<p style=""font-size: 60px; font-family: BACS"">AMkCTAm</p>","","","","","","","",""
"html-keyboard-response","132","243502","0.0-9.0-0.44","5c5e04ca6539fe00016e1afa","64b003020eef62ee308107cc","64b03cfcdb9478872012dd44","null","null","<p style=""font-size: 60px; font-family: BACS"">OcYMKlkD</p>","","","","","","","",""
"html-keyboard-response","133","244503","0.0-9.0-0.45","5c5e04ca6539fe00016e1afa","64b003020eef62ee308107cc","64b03cfcdb9478872012dd44","null","null","<p style=""font-size: 60px; font-family: BACS"">hmKPMcMRl</p>","","","","","","","",""
"html-keyboard-response","134","245505","0.0-9.0-0.46","5c5e04ca6539fe00016e1afa","64b003020eef62ee308107cc","64b03cfcdb9478872012dd44","null","null","<p style=""font-size: 60px; font-family: BACS"">kZUbYaum</p>","","","","","","","",""
"html-keyboard-response","135","246512","0.0-9.0-0.47","5c5e04ca6539fe00016e1afa","64b003020eef62ee308107cc","64b03cfcdb9478872012dd44","null","null","<p style=""font-size: 60px; font-family: BACS"">rvOvUAOUl</p>","","","","","","","",""
"html-keyboard-response","136","247514","0.0-9.0-0.48","5c5e04ca6539fe00016e1afa","64b003020eef62ee308107cc","64b03cfcdb9478872012dd44","null","null","<p style=""font-size: 60px; font-family: BACS"">AMkCRCdc</p>","","","","","","","",""
"html-keyboard-response","137","248516","0.0-9.0-0.49","5c5e04ca6539fe00016e1afa","64b003020eef62ee308107cc","64b03cfcdb9478872012dd44","null","null","<p style=""font-size: 60px; font-family: BACS"">lCbcmkPM</p>","","","","","","","",""
"html-keyboard-response","138","249517","0.0-9.0-0.50","5c5e04ca6539fe00016e1afa","64b003020eef62ee308107cc","64b03cfcdb9478872012dd44","null","null","<p style=""font-size: 60px; font-family: BACS"">dGLAlAOUl</p>","","","","","","","",""
"html-keyboard-response","139","250519","0.0-9.0-0.51","5c5e04ca6539fe00016e1afa","64b003020eef62ee308107cc","64b03cfcdb9478872012dd44","null","null","<p style=""font-size: 60px; font-family: BACS"">TDKhkPM</p>","","","","","","","",""
"html-keyboard-response","140","251529","0.0-9.0-0.52","5c5e04ca6539fe00016e1afa","64b003020eef62ee308107cc","64b03cfcdb9478872012dd44","null","null","<p style=""font-size: 60px; font-family: BACS"">kKEdMTAm</p>","","","","","","","",""
"html-keyboard-response","141","252531","0.0-9.0-0.53","5c5e04ca6539fe00016e1afa","64b003020eef62ee308107cc","64b03cfcdb9478872012dd44","null","null","<p style=""font-size: 60px; font-family: BACS"">RhPmRCdc</p>","","","","","","","",""
"html-keyboard-response","142","253533","0.0-9.0-0.54","5c5e04ca6539fe00016e1afa","64b003020eef62ee308107cc","64b03cfcdb9478872012dd44","null","null","<p style=""font-size: 60px; font-family: BACS"">rkYLGUa</p>","","","","","","","",""
"html-keyboard-response","143","254538","0.0-9.0-0.55","5c5e04ca6539fe00016e1afa","64b003020eef62ee308107cc","64b03cfcdb9478872012dd44","null","null","<p style=""font-size: 60px; font-family: BACS"">hlbtbcMRl</p>","","","","","","","",""
"html-keyboard-response","144","255551","0.0-9.0-0.56","5c5e04ca6539fe00016e1afa","64b003020eef62ee308107cc","64b03cfcdb9478872012dd44","null","null","<p style=""font-size: 60px; font-family: BACS"">hmKPMTAm</p>","","","","","","","",""
"html-keyboard-response","145","256551","0.0-9.0-0.57","5c5e04ca6539fe00016e1afa","64b003020eef62ee308107cc","64b03cfcdb9478872012dd44","null","null","<p style=""font-size: 60px; font-family: BACS"">aYQmYaum</p>","","","","","","","",""
"html-keyboard-response","146","257553","0.0-9.0-0.58","5c5e04ca6539fe00016e1afa","64b003020eef62ee308107cc","64b03cfcdb9478872012dd44","null","null","<p style=""font-size: 60px; font-family: BACS"">MTdYcMRl</p>","","","","","","","",""
"html-keyboard-response","147","258554","0.0-9.0-0.59","5c5e04ca6539fe00016e1afa","64b003020eef62ee308107cc","64b03cfcdb9478872012dd44","null","null","<p style=""font-size: 60px; font-family: BACS"">kZUbAOUl</p>","","","","","","","",""
"html-keyboard-response","148","259569","0.0-9.0-0.60","5c5e04ca6539fe00016e1afa","64b003020eef62ee308107cc","64b03cfcdb9478872012dd44","null","null","<p style=""font-size: 60px; font-family: BACS"">OcYMTAm</p>","","","","","","","",""
"html-keyboard-response","149","260582","0.0-9.0-0.61","5c5e04ca6539fe00016e1afa","64b003020eef62ee308107cc","64b03cfcdb9478872012dd44","null","null","<p style=""font-size: 60px; font-family: BACS"">bmbNYaum</p>","","","","","","","",""
"html-keyboard-response","150","261594","0.0-9.0-0.62","5c5e04ca6539fe00016e1afa","64b003020eef62ee308107cc","64b03cfcdb9478872012dd44","null","null","<p style=""font-size: 60px; font-family: BACS"">lCbcmRCdc</p>","","","","","","","",""
"html-keyboard-response","151","262595","0.0-9.0-0.63","5c5e04ca6539fe00016e1afa","64b003020eef62ee308107cc","64b03cfcdb9478872012dd44","null","null","<p style=""font-size: 60px; font-family: BACS"">kbmZOAOUl</p>","","","","","","","",""
"html-keyboard-response","152","263596","0.0-9.0-0.64","5c5e04ca6539fe00016e1afa","64b003020eef62ee308107cc","64b03cfcdb9478872012dd44","null","null","<p style=""font-size: 60px; font-family: BACS"">rvOvUrULv</p>","","","","","","","",""
"html-keyboard-response","153","264597","0.0-9.0-0.65","5c5e04ca6539fe00016e1afa","64b003020eef62ee308107cc","64b03cfcdb9478872012dd44","null","null","<p style=""font-size: 60px; font-family: BACS"">rbYbuAOUl</p>","","","","","","","",""
"html-keyboard-response","154","265600","0.0-9.0-0.66","5c5e04ca6539fe00016e1afa","64b003020eef62ee308107cc","64b03cfcdb9478872012dd44","null","null","<p style=""font-size: 60px; font-family: BACS"">OcYMcMRl</p>","","","","","","","",""
"html-keyboard-response","155","266610","0.0-9.0-0.67","5c5e04ca6539fe00016e1afa","64b003020eef62ee308107cc","64b03cfcdb9478872012dd44","null","null","<p style=""font-size: 60px; font-family: BACS"">JZOAkrULv</p>","","","","","","","",""
"html-keyboard-response","156","267622","0.0-9.0-0.68","5c5e04ca6539fe00016e1afa","64b003020eef62ee308107cc","64b03cfcdb9478872012dd44","null","null","<p style=""font-size: 60px; font-family: BACS"">rbYburNlZ</p>","","","","","","","",""
"html-keyboard-response","157","268624","0.0-9.0-0.69","5c5e04ca6539fe00016e1afa","64b003020eef62ee308107cc","64b03cfcdb9478872012dd44","null","null","<p style=""font-size: 60px; font-family: BACS"">kKEdMcMRl</p>","","","","","","","",""
"html-keyboard-response","158","269634","0.0-9.0-0.70","5c5e04ca6539fe00016e1afa","64b003020eef62ee308107cc","64b03cfcdb9478872012dd44","null","null","<p style=""font-size: 60px; font-family: BACS"">MTdYKlkD</p>","","","","","","","",""
"html-keyboard-response","159","270645","0.0-9.0-0.71","5c5e04ca6539fe00016e1afa","64b003020eef62ee308107cc","64b03cfcdb9478872012dd44","null","null","<p style=""font-size: 60px; font-family: BACS"">aYQmAOUl</p>","","","","","","","",""
"html-keyboard-response","160","271647","0.0-9.0-0.72","5c5e04ca6539fe00016e1afa","64b003020eef62ee308107cc","64b03cfcdb9478872012dd44","null","null","<p style=""font-size: 60px; font-family: BACS"">lCbcmTAm</p>","","","","","","","",""
"html-keyboard-response","161","272653","0.0-9.0-0.73","5c5e04ca6539fe00016e1afa","64b003020eef62ee308107cc","64b03cfcdb9478872012dd44","null","null","<p style=""font-size: 60px; font-family: BACS"">rvOvUGUa</p>","","","","","","","",""
"html-keyboard-response","162","273655","0.0-9.0-0.74","5c5e04ca6539fe00016e1afa","64b003020eef62ee308107cc","64b03cfcdb9478872012dd44","null","null","<p style=""font-size: 60px; font-family: BACS"">AMkCcMRl</p>","","","","","","","",""
"html-keyboard-response","163","274660","0.0-9.0-0.75","5c5e04ca6539fe00016e1afa","64b003020eef62ee308107cc","64b03cfcdb9478872012dd44","null","null","<p style=""font-size: 60px; font-family: BACS"">kbmZOGUa</p>","","","","","","","",""
"html-keyboard-response","164","275672","0.0-9.0-0.76","5c5e04ca6539fe00016e1afa","64b003020eef62ee308107cc","64b03cfcdb9478872012dd44","null","null","<p style=""font-size: 60px; font-family: BACS"">TDKhRCdc</p>","","","","","","","",""
"html-keyboard-response","165","276675","0.0-9.0-0.77","5c5e04ca6539fe00016e1afa","64b003020eef62ee308107cc","64b03cfcdb9478872012dd44","null","null","<p style=""font-size: 60px; font-family: BACS"">JZOAkrNlZ</p>","","","","","","","",""
"html-keyboard-response","166","277686","0.0-9.0-0.78","5c5e04ca6539fe00016e1afa","64b003020eef62ee308107cc","64b03cfcdb9478872012dd44","null","null","<p style=""font-size: 60px; font-family: BACS"">kRCkOTAm</p>","","","","","","","",""
"html-keyboard-response","167","278690","0.0-9.0-0.79","5c5e04ca6539fe00016e1afa","64b003020eef62ee308107cc","64b03cfcdb9478872012dd44","null","null","<p style=""font-size: 60px; font-family: BACS"">hlbtbRCdc</p>","","","","","","","",""
"html-keyboard-response","168","283671","0.0-10.0","5c5e04ca6539fe00016e1afa","64b003020eef62ee308107cc","64b03cfcdb9478872012dd44","4980"," ","<p>Ottimo, hai visto il secondo blocco di parole. Ora puoi prenderti una piccola pausa.</p>
      <p>Premi la barra quando sei pronta/o per riprendere.</p>","","","","","","","",""
"html-keyboard-response","169","284685","0.0-11.0-0.0","5c5e04ca6539fe00016e1afa","64b003020eef62ee308107cc","64b03cfcdb9478872012dd44","null","null","<p style=""font-size: 60px; font-family: BACS"">kRCkOKlkD</p>","","","","","","","",""
"html-keyboard-response","170","285697","0.0-11.0-0.1","5c5e04ca6539fe00016e1afa","64b003020eef62ee308107cc","64b03cfcdb9478872012dd44","null","null","<p style=""font-size: 60px; font-family: BACS"">kKEdMkPM</p>","","","","","","","",""
"html-keyboard-response","171","286711","0.0-11.0-0.2","5c5e04ca6539fe00016e1afa","64b003020eef62ee308107cc","64b03cfcdb9478872012dd44","null","null","<p style=""font-size: 60px; font-family: BACS"">kbmZOrULv</p>","","","","","","","",""
"html-keyboard-response","172","287713","0.0-11.0-0.3","5c5e04ca6539fe00016e1afa","64b003020eef62ee308107cc","64b03cfcdb9478872012dd44","null","null","<p style=""font-size: 60px; font-family: BACS"">hlbtbTAm</p>","","","","","","","",""
"html-keyboard-response","173","288722","0.0-11.0-0.4","5c5e04ca6539fe00016e1afa","64b003020eef62ee308107cc","64b03cfcdb9478872012dd44","null","null","<p style=""font-size: 60px; font-family: BACS"">TDKhRCdc</p>","","","","","","","",""
"html-keyboard-response","174","289734","0.0-11.0-0.5","5c5e04ca6539fe00016e1afa","64b003020eef62ee308107cc","64b03cfcdb9478872012dd44","null","null","<p style=""font-size: 60px; font-family: BACS"">aYQmrNlZ</p>","","","","","","","",""
"html-keyboard-response","175","290746","0.0-11.0-0.6","5c5e04ca6539fe00016e1afa","64b003020eef62ee308107cc","64b03cfcdb9478872012dd44","null","null","<p style=""font-size: 60px; font-family: BACS"">OcYMTAm</p>","","","","","","","",""
"html-keyboard-response","176","291769","0.0-11.0-0.7","5c5e04ca6539fe00016e1afa","64b003020eef62ee308107cc","64b03cfcdb9478872012dd44","null","null","<p style=""font-size: 60px; font-family: BACS"">JZOAkGUa</p>","","","","","","","",""
"html-keyboard-response","177","292777","0.0-11.0-0.8","5c5e04ca6539fe00016e1afa","64b003020eef62ee308107cc","64b03cfcdb9478872012dd44","null","null","<p style=""font-size: 60px; font-family: BACS"">MTdYkPM</p>","","","","","","","",""
"html-keyboard-response","178","293787","0.0-11.0-0.9","5c5e04ca6539fe00016e1afa","64b003020eef62ee308107cc","64b03cfcdb9478872012dd44","null","null","<p style=""font-size: 60px; font-family: BACS"">RhPmRCdc</p>","","","","","","","",""
"html-keyboard-response","179","294788","0.0-11.0-0.10","5c5e04ca6539fe00016e1afa","64b003020eef62ee308107cc","64b03cfcdb9478872012dd44","null","null","<p style=""font-size: 60px; font-family: BACS"">rbYburNlZ</p>","","","","","","","",""
"html-keyboard-response","180","295804","0.0-11.0-0.11","5c5e04ca6539fe00016e1afa","64b003020eef62ee308107cc","64b03cfcdb9478872012dd44","null","null","<p style=""font-size: 60px; font-family: BACS"">rvOvUrULv</p>","","","","","","","",""
"html-keyboard-response","181","296805","0.0-11.0-0.12","5c5e04ca6539fe00016e1afa","64b003020eef62ee308107cc","64b03cfcdb9478872012dd44","null","null","<p style=""font-size: 60px; font-family: BACS"">kRCkORCdc</p>","","","","","","","",""
"html-keyboard-response","182","297806","0.0-11.0-0.13","5c5e04ca6539fe00016e1afa","64b003020eef62ee308107cc","64b03cfcdb9478872012dd44","null","null","<p style=""font-size: 60px; font-family: BACS"">lCbcmKlkD</p>","","","","","","","",""
"html-keyboard-response","183","298811","0.0-11.0-0.14","5c5e04ca6539fe00016e1afa","64b003020eef62ee308107cc","64b03cfcdb9478872012dd44","null","null","<p style=""font-size: 60px; font-family: BACS"">kRCkOTAm</p>","","","","","","","",""
"html-keyboard-response","184","299826","0.0-11.0-0.15","5c5e04ca6539fe00016e1afa","64b003020eef62ee308107cc","64b03cfcdb9478872012dd44","null","null","<p style=""font-size: 60px; font-family: BACS"">AMkCkPM</p>","","","","","","","",""
"html-keyboard-response","185","300835","0.0-11.0-0.16","5c5e04ca6539fe00016e1afa","64b003020eef62ee308107cc","64b03cfcdb9478872012dd44","null","null","<p style=""font-size: 60px; font-family: BACS"">rdLJaAOUl</p>","","","","","","","",""
"html-keyboard-response","186","301849","0.0-11.0-0.17","5c5e04ca6539fe00016e1afa","64b003020eef62ee308107cc","64b03cfcdb9478872012dd44","null","null","<p style=""font-size: 60px; font-family: BACS"">JZOAkrULv</p>","","","","","","","",""
"html-keyboard-response","187","302858","0.0-11.0-0.18","5c5e04ca6539fe00016e1afa","64b003020eef62ee308107cc","64b03cfcdb9478872012dd44","null","null","<p style=""font-size: 60px; font-family: BACS"">hmKPMKlkD</p>","","","","","","","",""
"html-keyboard-response","188","303873","0.0-11.0-0.19","5c5e04ca6539fe00016e1afa","64b003020eef62ee308107cc","64b03cfcdb9478872012dd44","null","null","<p style=""font-size: 60px; font-family: BACS"">AMkCRCdc</p>","","","","","","","",""
"html-keyboard-response","189","304889","0.0-11.0-0.20","5c5e04ca6539fe00016e1afa","64b003020eef62ee308107cc","64b03cfcdb9478872012dd44","null","null","<p style=""font-size: 60px; font-family: BACS"">bmbNrNlZ</p>","","","","","","","",""
"html-keyboard-response","190","305901","0.0-11.0-0.21","5c5e04ca6539fe00016e1afa","64b003020eef62ee308107cc","64b03cfcdb9478872012dd44","null","null","<p style=""font-size: 60px; font-family: BACS"">kRCkOkPM</p>","","","","","","","",""
"html-keyboard-response","191","306903","0.0-11.0-0.22","5c5e04ca6539fe00016e1afa","64b003020eef62ee308107cc","64b03cfcdb9478872012dd44","null","null","<p style=""font-size: 60px; font-family: BACS"">AMkCTAm</p>","","","","","","","",""
"html-keyboard-response","192","307920","0.0-11.0-0.23","5c5e04ca6539fe00016e1afa","64b003020eef62ee308107cc","64b03cfcdb9478872012dd44","null","null","<p style=""font-size: 60px; font-family: BACS"">TDKhcMRl</p>","","","","","","","",""
"html-keyboard-response","193","308930","0.0-11.0-0.24","5c5e04ca6539fe00016e1afa","64b003020eef62ee308107cc","64b03cfcdb9478872012dd44","null","null","<p style=""font-size: 60px; font-family: BACS"">MTdYRCdc</p>","","","","","","","",""
"html-keyboard-response","194","309942","0.0-11.0-0.25","5c5e04ca6539fe00016e1afa","64b003020eef62ee308107cc","64b03cfcdb9478872012dd44","null","null","<p style=""font-size: 60px; font-family: BACS"">OcYMcMRl</p>","","","","","","","",""
"html-keyboard-response","195","310943","0.0-11.0-0.26","5c5e04ca6539fe00016e1afa","64b003020eef62ee308107cc","64b03cfcdb9478872012dd44","null","null","<p style=""font-size: 60px; font-family: BACS"">rkYLrULv</p>","","","","","","","",""
"html-keyboard-response","196","311949","0.0-11.0-0.27","5c5e04ca6539fe00016e1afa","64b003020eef62ee308107cc","64b03cfcdb9478872012dd44","null","null","<p style=""font-size: 60px; font-family: BACS"">MTdYcMRl</p>","","","","","","","",""
"html-keyboard-response","197","312951","0.0-11.0-0.28","5c5e04ca6539fe00016e1afa","64b003020eef62ee308107cc","64b03cfcdb9478872012dd44","null","null","<p style=""font-size: 60px; font-family: BACS"">kZUbrULv</p>","","","","","","","",""
"html-keyboard-response","198","313959","0.0-11.0-0.29","5c5e04ca6539fe00016e1afa","64b003020eef62ee308107cc","64b03cfcdb9478872012dd44","null","null","<p style=""font-size: 60px; font-family: BACS"">rvOvUAOUl</p>","","","","","","","",""
"html-keyboard-response","199","314968","0.0-11.0-0.30","5c5e04ca6539fe00016e1afa","64b003020eef62ee308107cc","64b03cfcdb9478872012dd44","null","null","<p style=""font-size: 60px; font-family: BACS"">AMkCcMRl</p>","","","","","","","",""
"html-keyboard-response","200","315969","0.0-11.0-0.31","5c5e04ca6539fe00016e1afa","64b003020eef62ee308107cc","64b03cfcdb9478872012dd44","null","null","<p style=""font-size: 60px; font-family: BACS"">OcYMKlkD</p>","","","","","","","",""
"html-keyboard-response","201","316976","0.0-11.0-0.32","5c5e04ca6539fe00016e1afa","64b003020eef62ee308107cc","64b03cfcdb9478872012dd44","null","null","<p style=""font-size: 60px; font-family: BACS"">dGLAlrNlZ</p>","","","","","","","",""
"html-keyboard-response","202","317977","0.0-11.0-0.33","5c5e04ca6539fe00016e1afa","64b003020eef62ee308107cc","64b03cfcdb9478872012dd44","null","null","<p style=""font-size: 60px; font-family: BACS"">hmKPMRCdc</p>","","","","","","","",""
"html-keyboard-response","203","318980","0.0-11.0-0.34","5c5e04ca6539fe00016e1afa","64b003020eef62ee308107cc","64b03cfcdb9478872012dd44","null","null","<p style=""font-size: 60px; font-family: BACS"">dGLAlAOUl</p>","","","","","","","",""
"html-keyboard-response","204","319984","0.0-11.0-0.35","5c5e04ca6539fe00016e1afa","64b003020eef62ee308107cc","64b03cfcdb9478872012dd44","null","null","<p style=""font-size: 60px; font-family: BACS"">kKEdMTAm</p>","","","","","","","",""
"html-keyboard-response","205","320986","0.0-11.0-0.36","5c5e04ca6539fe00016e1afa","64b003020eef62ee308107cc","64b03cfcdb9478872012dd44","null","null","<p style=""font-size: 60px; font-family: BACS"">OcYMkPM</p>","","","","","","","",""
"html-keyboard-response","206","321997","0.0-11.0-0.37","5c5e04ca6539fe00016e1afa","64b003020eef62ee308107cc","64b03cfcdb9478872012dd44","null","null","<p style=""font-size: 60px; font-family: BACS"">dGLAlrULv</p>","","","","","","","",""
"html-keyboard-response","207","323013","0.0-11.0-0.38","5c5e04ca6539fe00016e1afa","64b003020eef62ee308107cc","64b03cfcdb9478872012dd44","null","null","<p style=""font-size: 60px; font-family: BACS"">lCbcmTAm</p>","","","","","","","",""
"html-keyboard-response","208","324023","0.0-11.0-0.39","5c5e04ca6539fe00016e1afa","64b003020eef62ee308107cc","64b03cfcdb9478872012dd44","null","null","<p style=""font-size: 60px; font-family: BACS"">TDKhKlkD</p>","","","","","","","",""
"html-keyboard-response","209","325024","0.0-11.0-0.40","5c5e04ca6539fe00016e1afa","64b003020eef62ee308107cc","64b03cfcdb9478872012dd44","null","null","<p style=""font-size: 60px; font-family: BACS"">kZUbAOUl</p>","","","","","","","",""
"html-keyboard-response","210","326025","0.0-11.0-0.41","5c5e04ca6539fe00016e1afa","64b003020eef62ee308107cc","64b03cfcdb9478872012dd44","null","null","<p style=""font-size: 60px; font-family: BACS"">rdLJarNlZ</p>","","","","","","","",""
"html-keyboard-response","211","327031","0.0-11.0-0.42","5c5e04ca6539fe00016e1afa","64b003020eef62ee308107cc","64b03cfcdb9478872012dd44","null","null","<p style=""font-size: 60px; font-family: BACS"">dGLAlGUa</p>","","","","","","","",""
"html-keyboard-response","212","328032","0.0-11.0-0.43","5c5e04ca6539fe00016e1afa","64b003020eef62ee308107cc","64b03cfcdb9478872012dd44","null","null","<p style=""font-size: 60px; font-family: BACS"">TDKhkPM</p>","","","","","","","",""
"html-keyboard-response","213","329034","0.0-11.0-0.44","5c5e04ca6539fe00016e1afa","64b003020eef62ee308107cc","64b03cfcdb9478872012dd44","null","null","<p style=""font-size: 60px; font-family: BACS"">kbmZOGUa</p>","","","","","","","",""
"html-keyboard-response","214","330036","0.0-11.0-0.45","5c5e04ca6539fe00016e1afa","64b003020eef62ee308107cc","64b03cfcdb9478872012dd44","null","null","<p style=""font-size: 60px; font-family: BACS"">JZOAkYaum</p>","","","","","","","",""
"html-keyboard-response","215","331049","0.0-11.0-0.46","5c5e04ca6539fe00016e1afa","64b003020eef62ee308107cc","64b03cfcdb9478872012dd44","null","null","<p style=""font-size: 60px; font-family: BACS"">rdLJarULv</p>","","","","","","","",""
"html-keyboard-response","216","332062","0.0-11.0-0.47","5c5e04ca6539fe00016e1afa","64b003020eef62ee308107cc","64b03cfcdb9478872012dd44","null","null","<p style=""font-size: 60px; font-family: BACS"">RhPmTAm</p>","","","","","","","",""
"html-keyboard-response","217","333075","0.0-11.0-0.48","5c5e04ca6539fe00016e1afa","64b003020eef62ee308107cc","64b03cfcdb9478872012dd44","null","null","<p style=""font-size: 60px; font-family: BACS"">kZUbGUa</p>","","","","","","","",""
"html-keyboard-response","218","334077","0.0-11.0-0.49","5c5e04ca6539fe00016e1afa","64b003020eef62ee308107cc","64b03cfcdb9478872012dd44","null","null","<p style=""font-size: 60px; font-family: BACS"">hmKPMTAm</p>","","","","","","","",""
"html-keyboard-response","219","335093","0.0-11.0-0.50","5c5e04ca6539fe00016e1afa","64b003020eef62ee308107cc","64b03cfcdb9478872012dd44","null","null","<p style=""font-size: 60px; font-family: BACS"">rkYLGUa</p>","","","","","","","",""
"html-keyboard-response","220","336094","0.0-11.0-0.51","5c5e04ca6539fe00016e1afa","64b003020eef62ee308107cc","64b03cfcdb9478872012dd44","null","null","<p style=""font-size: 60px; font-family: BACS"">RhPmkPM</p>","","","","","","","",""
"html-keyboard-response","221","337096","0.0-11.0-0.52","5c5e04ca6539fe00016e1afa","64b003020eef62ee308107cc","64b03cfcdb9478872012dd44","null","null","<p style=""font-size: 60px; font-family: BACS"">MTdYKlkD</p>","","","","","","","",""
"html-keyboard-response","222","338112","0.0-11.0-0.53","5c5e04ca6539fe00016e1afa","64b003020eef62ee308107cc","64b03cfcdb9478872012dd44","null","null","<p style=""font-size: 60px; font-family: BACS"">rbYbuGUa</p>","","","","","","","",""
"html-keyboard-response","223","339114","0.0-11.0-0.54","5c5e04ca6539fe00016e1afa","64b003020eef62ee308107cc","64b03cfcdb9478872012dd44","null","null","<p style=""font-size: 60px; font-family: BACS"">JZOAkrNlZ</p>","","","","","","","",""
"html-keyboard-response","224","340129","0.0-11.0-0.55","5c5e04ca6539fe00016e1afa","64b003020eef62ee308107cc","64b03cfcdb9478872012dd44","null","null","<p style=""font-size: 60px; font-family: BACS"">kbmZOYaum</p>","","","","","","","",""
"html-keyboard-response","225","341141","0.0-11.0-0.56","5c5e04ca6539fe00016e1afa","64b003020eef62ee308107cc","64b03cfcdb9478872012dd44","null","null","<p style=""font-size: 60px; font-family: BACS"">aYQmAOUl</p>","","","","","","","",""
"html-keyboard-response","226","342152","0.0-11.0-0.57","5c5e04ca6539fe00016e1afa","64b003020eef62ee308107cc","64b03cfcdb9478872012dd44","null","null","<p style=""font-size: 60px; font-family: BACS"">kZUbYaum</p>","","","","","","","",""
"html-keyboard-response","227","343169","0.0-11.0-0.58","5c5e04ca6539fe00016e1afa","64b003020eef62ee308107cc","64b03cfcdb9478872012dd44","null","null","<p style=""font-size: 60px; font-family: BACS"">kKEdMcMRl</p>","","","","","","","",""
"html-keyboard-response","228","344185","0.0-11.0-0.59","5c5e04ca6539fe00016e1afa","64b003020eef62ee308107cc","64b03cfcdb9478872012dd44","null","null","<p style=""font-size: 60px; font-family: BACS"">rbYbuYaum</p>","","","","","","","",""
"html-keyboard-response","229","345200","0.0-11.0-0.60","5c5e04ca6539fe00016e1afa","64b003020eef62ee308107cc","64b03cfcdb9478872012dd44","null","null","<p style=""font-size: 60px; font-family: BACS"">rkYLrNlZ</p>","","","","","","","",""
"html-keyboard-response","230","346213","0.0-11.0-0.61","5c5e04ca6539fe00016e1afa","64b003020eef62ee308107cc","64b03cfcdb9478872012dd44","null","null","<p style=""font-size: 60px; font-family: BACS"">lCbcmkPM</p>","","","","","","","",""
"html-keyboard-response","231","347226","0.0-11.0-0.62","5c5e04ca6539fe00016e1afa","64b003020eef62ee308107cc","64b03cfcdb9478872012dd44","null","null","<p style=""font-size: 60px; font-family: BACS"">rbYbuAOUl</p>","","","","","","","",""
"html-keyboard-response","232","348234","0.0-11.0-0.63","5c5e04ca6539fe00016e1afa","64b003020eef62ee308107cc","64b03cfcdb9478872012dd44","null","null","<p style=""font-size: 60px; font-family: BACS"">rdLJaYaum</p>","","","","","","","",""
"html-keyboard-response","233","349250","0.0-11.0-0.64","5c5e04ca6539fe00016e1afa","64b003020eef62ee308107cc","64b03cfcdb9478872012dd44","null","null","<p style=""font-size: 60px; font-family: BACS"">bmbNAOUl</p>","","","","","","","",""
"html-keyboard-response","234","350251","0.0-11.0-0.65","5c5e04ca6539fe00016e1afa","64b003020eef62ee308107cc","64b03cfcdb9478872012dd44","null","null","<p style=""font-size: 60px; font-family: BACS"">aYQmGUa</p>","","","","","","","",""
"html-keyboard-response","235","351260","0.0-11.0-0.66","5c5e04ca6539fe00016e1afa","64b003020eef62ee308107cc","64b03cfcdb9478872012dd44","null","null","<p style=""font-size: 60px; font-family: BACS"">lCbcmRCdc</p>","","","","","","","",""
"html-keyboard-response","236","352262","0.0-11.0-0.67","5c5e04ca6539fe00016e1afa","64b003020eef62ee308107cc","64b03cfcdb9478872012dd44","null","null","<p style=""font-size: 60px; font-family: BACS"">hlbtbcMRl</p>","","","","","","","",""
"html-keyboard-response","237","353271","0.0-11.0-0.68","5c5e04ca6539fe00016e1afa","64b003020eef62ee308107cc","64b03cfcdb9478872012dd44","null","null","<p style=""font-size: 60px; font-family: BACS"">bmbNYaum</p>","","","","","","","",""
"html-keyboard-response","238","354283","0.0-11.0-0.69","5c5e04ca6539fe00016e1afa","64b003020eef62ee308107cc","64b03cfcdb9478872012dd44","null","null","<p style=""font-size: 60px; font-family: BACS"">hmKPMcMRl</p>","","","","","","","",""
"html-keyboard-response","239","355283","0.0-11.0-0.70","5c5e04ca6539fe00016e1afa","64b003020eef62ee308107cc","64b03cfcdb9478872012dd44","null","null","<p style=""font-size: 60px; font-family: BACS"">rkYLYaum</p>","","","","","","","",""
"html-keyboard-response","240","356286","0.0-11.0-0.71","5c5e04ca6539fe00016e1afa","64b003020eef62ee308107cc","64b03cfcdb9478872012dd44","null","null","<p style=""font-size: 60px; font-family: BACS"">rvOvUrNlZ</p>","","","","","","","",""
"html-keyboard-response","241","357298","0.0-11.0-0.72","5c5e04ca6539fe00016e1afa","64b003020eef62ee308107cc","64b03cfcdb9478872012dd44","null","null","<p style=""font-size: 60px; font-family: BACS"">hlbtbRCdc</p>","","","","","","","",""
"html-keyboard-response","242","358313","0.0-11.0-0.73","5c5e04ca6539fe00016e1afa","64b003020eef62ee308107cc","64b03cfcdb9478872012dd44","null","null","<p style=""font-size: 60px; font-family: BACS"">rvOvUGUa</p>","","","","","","","",""
"html-keyboard-response","243","359320","0.0-11.0-0.74","5c5e04ca6539fe00016e1afa","64b003020eef62ee308107cc","64b03cfcdb9478872012dd44","null","null","<p style=""font-size: 60px; font-family: BACS"">kKEdMKlkD</p>","","","","","","","",""
"html-keyboard-response","244","360334","0.0-11.0-0.75","5c5e04ca6539fe00016e1afa","64b003020eef62ee308107cc","64b03cfcdb9478872012dd44","null","null","<p style=""font-size: 60px; font-family: BACS"">aYQmYaum</p>","","","","","","","",""
"html-keyboard-response","245","361336","0.0-11.0-0.76","5c5e04ca6539fe00016e1afa","64b003020eef62ee308107cc","64b03cfcdb9478872012dd44","null","null","<p style=""font-size: 60px; font-family: BACS"">kbmZOAOUl</p>","","","","","","","",""
"html-keyboard-response","246","362345","0.0-11.0-0.77","5c5e04ca6539fe00016e1afa","64b003020eef62ee308107cc","64b03cfcdb9478872012dd44","null","null","<p style=""font-size: 60px; font-family: BACS"">RhPmcMRl</p>","","","","","","","",""
"html-keyboard-response","247","363347","0.0-11.0-0.78","5c5e04ca6539fe00016e1afa","64b003020eef62ee308107cc","64b03cfcdb9478872012dd44","null","null","<p style=""font-size: 60px; font-family: BACS"">bmbNrULv</p>","","","","","","","",""
"html-keyboard-response","248","364362","0.0-11.0-0.79","5c5e04ca6539fe00016e1afa","64b003020eef62ee308107cc","64b03cfcdb9478872012dd44","null","null","<p style=""font-size: 60px; font-family: BACS"">hlbtbKlkD</p>","","","","","","","",""
"html-keyboard-response","249","372067","0.0-12.0","5c5e04ca6539fe00016e1afa","64b003020eef62ee308107cc","64b03cfcdb9478872012dd44","7704"," ","<p>Ottimo, hai visto il terzo blocco di parole. Ora puoi prenderti una piccola pausa.</p>
      <p>Premi la barra quando sei pronta/o per riprendere.</p>","","","","","","","",""
"html-keyboard-response","250","373075","0.0-13.0-0.0","5c5e04ca6539fe00016e1afa","64b003020eef62ee308107cc","64b03cfcdb9478872012dd44","null","null","<p style=""font-size: 60px; font-family: BACS"">RhPmTAm</p>","","","","","","","",""
"html-keyboard-response","251","374076","0.0-13.0-0.1","5c5e04ca6539fe00016e1afa","64b003020eef62ee308107cc","64b03cfcdb9478872012dd44","null","null","<p style=""font-size: 60px; font-family: BACS"">rvOvUrULv</p>","","","","","","","",""
"html-keyboard-response","252","375078","0.0-13.0-0.2","5c5e04ca6539fe00016e1afa","64b003020eef62ee308107cc","64b03cfcdb9478872012dd44","null","null","<p style=""font-size: 60px; font-family: BACS"">hmKPMTAm</p>","","","","","","","",""
"html-keyboard-response","253","376084","0.0-13.0-0.3","5c5e04ca6539fe00016e1afa","64b003020eef62ee308107cc","64b03cfcdb9478872012dd44","null","null","<p style=""font-size: 60px; font-family: BACS"">hlbtbRCdc</p>","","","","","","","",""
"html-keyboard-response","254","377096","0.0-13.0-0.4","5c5e04ca6539fe00016e1afa","64b003020eef62ee308107cc","64b03cfcdb9478872012dd44","null","null","<p style=""font-size: 60px; font-family: BACS"">kZUbAOUl</p>","","","","","","","",""
"html-keyboard-response","255","378098","0.0-13.0-0.5","5c5e04ca6539fe00016e1afa","64b003020eef62ee308107cc","64b03cfcdb9478872012dd44","null","null","<p style=""font-size: 60px; font-family: BACS"">lCbcmkPM</p>","","","","","","","",""
"html-keyboard-response","256","379103","0.0-13.0-0.6","5c5e04ca6539fe00016e1afa","64b003020eef62ee308107cc","64b03cfcdb9478872012dd44","null","null","<p style=""font-size: 60px; font-family: BACS"">TDKhcMRl</p>","","","","","","","",""
"html-keyboard-response","257","380115","0.0-13.0-0.7","5c5e04ca6539fe00016e1afa","64b003020eef62ee308107cc","64b03cfcdb9478872012dd44","null","null","<p style=""font-size: 60px; font-family: BACS"">kKEdMkPM</p>","","","","","","","",""
"html-keyboard-response","258","381117","0.0-13.0-0.8","5c5e04ca6539fe00016e1afa","64b003020eef62ee308107cc","64b03cfcdb9478872012dd44","null","null","<p style=""font-size: 60px; font-family: BACS"">bmbNAOUl</p>","","","","","","","",""
"html-keyboard-response","259","382127","0.0-13.0-0.9","5c5e04ca6539fe00016e1afa","64b003020eef62ee308107cc","64b03cfcdb9478872012dd44","null","null","<p style=""font-size: 60px; font-family: BACS"">OcYMKlkD</p>","","","","","","","",""
"html-keyboard-response","260","383129","0.0-13.0-0.10","5c5e04ca6539fe00016e1afa","64b003020eef62ee308107cc","64b03cfcdb9478872012dd44","null","null","<p style=""font-size: 60px; font-family: BACS"">bmbNrULv</p>","","","","","","","",""
"html-keyboard-response","261","384131","0.0-13.0-0.11","5c5e04ca6539fe00016e1afa","64b003020eef62ee308107cc","64b03cfcdb9478872012dd44","null","null","<p style=""font-size: 60px; font-family: BACS"">rdLJaYaum</p>","","","","","","","",""
"html-keyboard-response","262","385132","0.0-13.0-0.12","5c5e04ca6539fe00016e1afa","64b003020eef62ee308107cc","64b03cfcdb9478872012dd44","null","null","<p style=""font-size: 60px; font-family: BACS"">lCbcmKlkD</p>","","","","","","","",""
"html-keyboard-response","263","386133","0.0-13.0-0.13","5c5e04ca6539fe00016e1afa","64b003020eef62ee308107cc","64b03cfcdb9478872012dd44","null","null","<p style=""font-size: 60px; font-family: BACS"">RhPmcMRl</p>","","","","","","","",""
"html-keyboard-response","264","387145","0.0-13.0-0.14","5c5e04ca6539fe00016e1afa","64b003020eef62ee308107cc","64b03cfcdb9478872012dd44","null","null","<p style=""font-size: 60px; font-family: BACS"">dGLAlrNlZ</p>","","","","","","","",""
"html-keyboard-response","265","388147","0.0-13.0-0.15","5c5e04ca6539fe00016e1afa","64b003020eef62ee308107cc","64b03cfcdb9478872012dd44","null","null","<p style=""font-size: 60px; font-family: BACS"">hlbtbTAm</p>","","","","","","","",""
"html-keyboard-response","266","389153","0.0-13.0-0.16","5c5e04ca6539fe00016e1afa","64b003020eef62ee308107cc","64b03cfcdb9478872012dd44","null","null","<p style=""font-size: 60px; font-family: BACS"">dGLAlAOUl</p>","","","","","","","",""
"html-keyboard-response","267","390154","0.0-13.0-0.17","5c5e04ca6539fe00016e1afa","64b003020eef62ee308107cc","64b03cfcdb9478872012dd44","null","null","<p style=""font-size: 60px; font-family: BACS"">rbYbuGUa</p>","","","","","","","",""
"html-keyboard-response","268","391162","0.0-13.0-0.18","5c5e04ca6539fe00016e1afa","64b003020eef62ee308107cc","64b03cfcdb9478872012dd44","null","null","<p style=""font-size: 60px; font-family: BACS"">AMkCTAm</p>","","","","","","","",""
"html-keyboard-response","269","392163","0.0-13.0-0.19","5c5e04ca6539fe00016e1afa","64b003020eef62ee308107cc","64b03cfcdb9478872012dd44","null","null","<p style=""font-size: 60px; font-family: BACS"">JZOAkrNlZ</p>","","","","","","","",""
"html-keyboard-response","270","393173","0.0-13.0-0.20","5c5e04ca6539fe00016e1afa","64b003020eef62ee308107cc","64b03cfcdb9478872012dd44","null","null","<p style=""font-size: 60px; font-family: BACS"">kRCkORCdc</p>","","","","","","","",""
"html-keyboard-response","271","394188","0.0-13.0-0.21","5c5e04ca6539fe00016e1afa","64b003020eef62ee308107cc","64b03cfcdb9478872012dd44","null","null","<p style=""font-size: 60px; font-family: BACS"">rkYLrULv</p>","","","","","","","",""
"html-keyboard-response","272","395190","0.0-13.0-0.22","5c5e04ca6539fe00016e1afa","64b003020eef62ee308107cc","64b03cfcdb9478872012dd44","null","null","<p style=""font-size: 60px; font-family: BACS"">rbYburNlZ</p>","","","","","","","",""
"html-keyboard-response","273","396201","0.0-13.0-0.23","5c5e04ca6539fe00016e1afa","64b003020eef62ee308107cc","64b03cfcdb9478872012dd44","null","null","<p style=""font-size: 60px; font-family: BACS"">AMkCRCdc</p>","","","","","","","",""
"html-keyboard-response","274","397203","0.0-13.0-0.24","5c5e04ca6539fe00016e1afa","64b003020eef62ee308107cc","64b03cfcdb9478872012dd44","null","null","<p style=""font-size: 60px; font-family: BACS"">OcYMTAm</p>","","","","","","","",""
"html-keyboard-response","275","398215","0.0-13.0-0.25","5c5e04ca6539fe00016e1afa","64b003020eef62ee308107cc","64b03cfcdb9478872012dd44","null","null","<p style=""font-size: 60px; font-family: BACS"">rdLJarNlZ</p>","","","","","","","",""
"html-keyboard-response","276","399227","0.0-13.0-0.26","5c5e04ca6539fe00016e1afa","64b003020eef62ee308107cc","64b03cfcdb9478872012dd44","null","null","<p style=""font-size: 60px; font-family: BACS"">rvOvUAOUl</p>","","","","","","","",""
"html-keyboard-response","277","400242","0.0-13.0-0.27","5c5e04ca6539fe00016e1afa","64b003020eef62ee308107cc","64b03cfcdb9478872012dd44","null","null","<p style=""font-size: 60px; font-family: BACS"">JZOAkrULv</p>","","","","","","","",""
"html-keyboard-response","278","401249","0.0-13.0-0.28","5c5e04ca6539fe00016e1afa","64b003020eef62ee308107cc","64b03cfcdb9478872012dd44","null","null","<p style=""font-size: 60px; font-family: BACS"">bmbNYaum</p>","","","","","","","",""
"html-keyboard-response","279","402251","0.0-13.0-0.29","5c5e04ca6539fe00016e1afa","64b003020eef62ee308107cc","64b03cfcdb9478872012dd44","null","null","<p style=""font-size: 60px; font-family: BACS"">kZUbGUa</p>","","","","","","","",""
"html-keyboard-response","280","403257","0.0-13.0-0.30","5c5e04ca6539fe00016e1afa","64b003020eef62ee308107cc","64b03cfcdb9478872012dd44","null","null","<p style=""font-size: 60px; font-family: BACS"">aYQmAOUl</p>","","","","","","","",""
"html-keyboard-response","281","404259","0.0-13.0-0.31","5c5e04ca6539fe00016e1afa","64b003020eef62ee308107cc","64b03cfcdb9478872012dd44","null","null","<p style=""font-size: 60px; font-family: BACS"">hlbtbKlkD</p>","","","","","","","",""
"html-keyboard-response","282","405269","0.0-13.0-0.32","5c5e04ca6539fe00016e1afa","64b003020eef62ee308107cc","64b03cfcdb9478872012dd44","null","null","<p style=""font-size: 60px; font-family: BACS"">OcYMkPM</p>","","","","","","","",""
"html-keyboard-response","283","406280","0.0-13.0-0.33","5c5e04ca6539fe00016e1afa","64b003020eef62ee308107cc","64b03cfcdb9478872012dd44","null","null","<p style=""font-size: 60px; font-family: BACS"">TDKhKlkD</p>","","","","","","","",""
"html-keyboard-response","284","407294","0.0-13.0-0.34","5c5e04ca6539fe00016e1afa","64b003020eef62ee308107cc","64b03cfcdb9478872012dd44","null","null","<p style=""font-size: 60px; font-family: BACS"">rdLJaAOUl</p>","","","","","","","",""
"html-keyboard-response","285","408308","0.0-13.0-0.35","5c5e04ca6539fe00016e1afa","64b003020eef62ee308107cc","64b03cfcdb9478872012dd44","null","null","<p style=""font-size: 60px; font-family: BACS"">MTdYRCdc</p>","","","","","","","",""
"html-keyboard-response","286","409316","0.0-13.0-0.36","5c5e04ca6539fe00016e1afa","64b003020eef62ee308107cc","64b03cfcdb9478872012dd44","null","null","<p style=""font-size: 60px; font-family: BACS"">kRCkOkPM</p>","","","","","","","",""
"html-keyboard-response","287","410329","0.0-13.0-0.37","5c5e04ca6539fe00016e1afa","64b003020eef62ee308107cc","64b03cfcdb9478872012dd44","null","null","<p style=""font-size: 60px; font-family: BACS"">hmKPMKlkD</p>","","","","","","","",""
"html-keyboard-response","288","411345","0.0-13.0-0.38","5c5e04ca6539fe00016e1afa","64b003020eef62ee308107cc","64b03cfcdb9478872012dd44","null","null","<p style=""font-size: 60px; font-family: BACS"">JZOAkYaum</p>","","","","","","","",""
"html-keyboard-response","289","412355","0.0-13.0-0.39","5c5e04ca6539fe00016e1afa","64b003020eef62ee308107cc","64b03cfcdb9478872012dd44","null","null","<p style=""font-size: 60px; font-family: BACS"">hmKPMcMRl</p>","","","","","","","",""
"html-keyboard-response","290","413367","0.0-13.0-0.40","5c5e04ca6539fe00016e1afa","64b003020eef62ee308107cc","64b03cfcdb9478872012dd44","null","null","<p style=""font-size: 60px; font-family: BACS"">aYQmYaum</p>","","","","","","","",""
"html-keyboard-response","291","414368","0.0-13.0-0.41","5c5e04ca6539fe00016e1afa","64b003020eef62ee308107cc","64b03cfcdb9478872012dd44","null","null","<p style=""font-size: 60px; font-family: BACS"">JZOAkGUa</p>","","","","","","","",""
"html-keyboard-response","292","415370","0.0-13.0-0.42","5c5e04ca6539fe00016e1afa","64b003020eef62ee308107cc","64b03cfcdb9478872012dd44","null","null","<p style=""font-size: 60px; font-family: BACS"">RhPmRCdc</p>","","","","","","","",""
"html-keyboard-response","293","416385","0.0-13.0-0.43","5c5e04ca6539fe00016e1afa","64b003020eef62ee308107cc","64b03cfcdb9478872012dd44","null","null","<p style=""font-size: 60px; font-family: BACS"">rkYLGUa</p>","","","","","","","",""
"html-keyboard-response","294","417395","0.0-13.0-0.44","5c5e04ca6539fe00016e1afa","64b003020eef62ee308107cc","64b03cfcdb9478872012dd44","null","null","<p style=""font-size: 60px; font-family: BACS"">kKEdMcMRl</p>","","","","","","","",""
"html-keyboard-response","295","418403","0.0-13.0-0.45","5c5e04ca6539fe00016e1afa","64b003020eef62ee308107cc","64b03cfcdb9478872012dd44","null","null","<p style=""font-size: 60px; font-family: BACS"">lCbcmTAm</p>","","","","","","","",""
"html-keyboard-response","296","419416","0.0-13.0-0.46","5c5e04ca6539fe00016e1afa","64b003020eef62ee308107cc","64b03cfcdb9478872012dd44","null","null","<p style=""font-size: 60px; font-family: BACS"">aYQmGUa</p>","","","","","","","",""
"html-keyboard-response","297","420417","0.0-13.0-0.47","5c5e04ca6539fe00016e1afa","64b003020eef62ee308107cc","64b03cfcdb9478872012dd44","null","null","<p style=""font-size: 60px; font-family: BACS"">dGLAlrULv</p>","","","","","","","",""
"html-keyboard-response","298","421431","0.0-13.0-0.48","5c5e04ca6539fe00016e1afa","64b003020eef62ee308107cc","64b03cfcdb9478872012dd44","null","null","<p style=""font-size: 60px; font-family: BACS"">kbmZOGUa</p>","","","","","","","",""
"html-keyboard-response","299","422442","0.0-13.0-0.49","5c5e04ca6539fe00016e1afa","64b003020eef62ee308107cc","64b03cfcdb9478872012dd44","null","null","<p style=""font-size: 60px; font-family: BACS"">AMkCkPM</p>","","","","","","","",""
"html-keyboard-response","300","423444","0.0-13.0-0.50","5c5e04ca6539fe00016e1afa","64b003020eef62ee308107cc","64b03cfcdb9478872012dd44","null","null","<p style=""font-size: 60px; font-family: BACS"">dGLAlGUa</p>","","","","","","","",""
"html-keyboard-response","301","424458","0.0-13.0-0.51","5c5e04ca6539fe00016e1afa","64b003020eef62ee308107cc","64b03cfcdb9478872012dd44","null","null","<p style=""font-size: 60px; font-family: BACS"">kbmZOrULv</p>","","","","","","","",""
"html-keyboard-response","302","425473","0.0-13.0-0.52","5c5e04ca6539fe00016e1afa","64b003020eef62ee308107cc","64b03cfcdb9478872012dd44","null","null","<p style=""font-size: 60px; font-family: BACS"">rvOvUGUa</p>","","","","","","","",""
"html-keyboard-response","303","426487","0.0-13.0-0.53","5c5e04ca6539fe00016e1afa","64b003020eef62ee308107cc","64b03cfcdb9478872012dd44","null","null","<p style=""font-size: 60px; font-family: BACS"">TDKhRCdc</p>","","","","","","","",""
"html-keyboard-response","304","427489","0.0-13.0-0.54","5c5e04ca6539fe00016e1afa","64b003020eef62ee308107cc","64b03cfcdb9478872012dd44","null","null","<p style=""font-size: 60px; font-family: BACS"">rdLJarULv</p>","","","","","","","",""
"html-keyboard-response","305","428499","0.0-13.0-0.55","5c5e04ca6539fe00016e1afa","64b003020eef62ee308107cc","64b03cfcdb9478872012dd44","null","null","<p style=""font-size: 60px; font-family: BACS"">TDKhkPM</p>","","","","","","","",""
"html-keyboard-response","306","429514","0.0-13.0-0.56","5c5e04ca6539fe00016e1afa","64b003020eef62ee308107cc","64b03cfcdb9478872012dd44","null","null","<p style=""font-size: 60px; font-family: BACS"">bmbNrNlZ</p>","","","","","","","",""
"html-keyboard-response","307","430526","0.0-13.0-0.57","5c5e04ca6539fe00016e1afa","64b003020eef62ee308107cc","64b03cfcdb9478872012dd44","null","null","<p style=""font-size: 60px; font-family: BACS"">MTdYcMRl</p>","","","","","","","",""
"html-keyboard-response","308","431540","0.0-13.0-0.58","5c5e04ca6539fe00016e1afa","64b003020eef62ee308107cc","64b03cfcdb9478872012dd44","null","null","<p style=""font-size: 60px; font-family: BACS"">kZUbYaum</p>","","","","","","","",""
"html-keyboard-response","309","432541","0.0-13.0-0.59","5c5e04ca6539fe00016e1afa","64b003020eef62ee308107cc","64b03cfcdb9478872012dd44","null","null","<p style=""font-size: 60px; font-family: BACS"">kRCkOKlkD</p>","","","","","","","",""
"html-keyboard-response","310","433543","0.0-13.0-0.60","5c5e04ca6539fe00016e1afa","64b003020eef62ee308107cc","64b03cfcdb9478872012dd44","null","null","<p style=""font-size: 60px; font-family: BACS"">kZUbrULv</p>","","","","","","","",""
"html-keyboard-response","311","434556","0.0-13.0-0.61","5c5e04ca6539fe00016e1afa","64b003020eef62ee308107cc","64b03cfcdb9478872012dd44","null","null","<p style=""font-size: 60px; font-family: BACS"">kbmZOYaum</p>","","","","","","","",""
"html-keyboard-response","312","435557","0.0-13.0-0.62","5c5e04ca6539fe00016e1afa","64b003020eef62ee308107cc","64b03cfcdb9478872012dd44","null","null","<p style=""font-size: 60px; font-family: BACS"">rvOvUrNlZ</p>","","","","","","","",""
"html-keyboard-response","313","436563","0.0-13.0-0.63","5c5e04ca6539fe00016e1afa","64b003020eef62ee308107cc","64b03cfcdb9478872012dd44","null","null","<p style=""font-size: 60px; font-family: BACS"">kKEdMTAm</p>","","","","","","","",""
"html-keyboard-response","314","437564","0.0-13.0-0.64","5c5e04ca6539fe00016e1afa","64b003020eef62ee308107cc","64b03cfcdb9478872012dd44","null","null","<p style=""font-size: 60px; font-family: BACS"">RhPmkPM</p>","","","","","","","",""
"html-keyboard-response","315","438566","0.0-13.0-0.65","5c5e04ca6539fe00016e1afa","64b003020eef62ee308107cc","64b03cfcdb9478872012dd44","null","null","<p style=""font-size: 60px; font-family: BACS"">kKEdMKlkD</p>","","","","","","","",""
"html-keyboard-response","316","439576","0.0-13.0-0.66","5c5e04ca6539fe00016e1afa","64b003020eef62ee308107cc","64b03cfcdb9478872012dd44","null","null","<p style=""font-size: 60px; font-family: BACS"">hlbtbcMRl</p>","","","","","","","",""
"html-keyboard-response","317","440578","0.0-13.0-0.67","5c5e04ca6539fe00016e1afa","64b003020eef62ee308107cc","64b03cfcdb9478872012dd44","null","null","<p style=""font-size: 60px; font-family: BACS"">kRCkOTAm</p>","","","","","","","",""
"html-keyboard-response","318","441591","0.0-13.0-0.68","5c5e04ca6539fe00016e1afa","64b003020eef62ee308107cc","64b03cfcdb9478872012dd44","null","null","<p style=""font-size: 60px; font-family: BACS"">kbmZOAOUl</p>","","","","","","","",""
"html-keyboard-response","319","442593","0.0-13.0-0.69","5c5e04ca6539fe00016e1afa","64b003020eef62ee308107cc","64b03cfcdb9478872012dd44","null","null","<p style=""font-size: 60px; font-family: BACS"">rkYLrNlZ</p>","","","","","","","",""
"html-keyboard-response","320","443603","0.0-13.0-0.70","5c5e04ca6539fe00016e1afa","64b003020eef62ee308107cc","64b03cfcdb9478872012dd44","null","null","<p style=""font-size: 60px; font-family: BACS"">OcYMcMRl</p>","","","","","","","",""
"html-keyboard-response","321","444604","0.0-13.0-0.71","5c5e04ca6539fe00016e1afa","64b003020eef62ee308107cc","64b03cfcdb9478872012dd44","null","null","<p style=""font-size: 60px; font-family: BACS"">hmKPMRCdc</p>","","","","","","","",""
"html-keyboard-response","322","445616","0.0-13.0-0.72","5c5e04ca6539fe00016e1afa","64b003020eef62ee308107cc","64b03cfcdb9478872012dd44","null","null","<p style=""font-size: 60px; font-family: BACS"">aYQmrNlZ</p>","","","","","","","",""
"html-keyboard-response","323","446618","0.0-13.0-0.73","5c5e04ca6539fe00016e1afa","64b003020eef62ee308107cc","64b03cfcdb9478872012dd44","null","null","<p style=""font-size: 60px; font-family: BACS"">MTdYkPM</p>","","","","","","","",""
"html-keyboard-response","324","447628","0.0-13.0-0.74","5c5e04ca6539fe00016e1afa","64b003020eef62ee308107cc","64b03cfcdb9478872012dd44","null","null","<p style=""font-size: 60px; font-family: BACS"">rbYbuYaum</p>","","","","","","","",""
"html-keyboard-response","325","448640","0.0-13.0-0.75","5c5e04ca6539fe00016e1afa","64b003020eef62ee308107cc","64b03cfcdb9478872012dd44","null","null","<p style=""font-size: 60px; font-family: BACS"">MTdYKlkD</p>","","","","","","","",""
"html-keyboard-response","326","449648","0.0-13.0-0.76","5c5e04ca6539fe00016e1afa","64b003020eef62ee308107cc","64b03cfcdb9478872012dd44","null","null","<p style=""font-size: 60px; font-family: BACS"">lCbcmRCdc</p>","","","","","","","",""
"html-keyboard-response","327","450659","0.0-13.0-0.77","5c5e04ca6539fe00016e1afa","64b003020eef62ee308107cc","64b03cfcdb9478872012dd44","null","null","<p style=""font-size: 60px; font-family: BACS"">AMkCcMRl</p>","","","","","","","",""
"html-keyboard-response","328","451667","0.0-13.0-0.78","5c5e04ca6539fe00016e1afa","64b003020eef62ee308107cc","64b03cfcdb9478872012dd44","null","null","<p style=""font-size: 60px; font-family: BACS"">rbYbuAOUl</p>","","","","","","","",""
"html-keyboard-response","329","452669","0.0-13.0-0.79","5c5e04ca6539fe00016e1afa","64b003020eef62ee308107cc","64b03cfcdb9478872012dd44","null","null","<p style=""font-size: 60px; font-family: BACS"">rkYLYaum</p>","","","","","","","",""
"html-keyboard-response","330","465566","0.0-14.0","5c5e04ca6539fe00016e1afa","64b003020eef62ee308107cc","64b03cfcdb9478872012dd44","12897"," ","<p>Ottimo, hai visto il quarto blocco di parole. Ora puoi prenderti una piccola pausa.</p>
      <p>Premi la barra quando sei pronta/o per riprendere.</p>","","","","","","","",""
"html-keyboard-response","331","466567","0.0-15.0-0.0","5c5e04ca6539fe00016e1afa","64b003020eef62ee308107cc","64b03cfcdb9478872012dd44","null","null","<p style=""font-size: 60px; font-family: BACS"">aYQmYaum</p>","","","","","","","",""
"html-keyboard-response","332","467570","0.0-15.0-0.1","5c5e04ca6539fe00016e1afa","64b003020eef62ee308107cc","64b03cfcdb9478872012dd44","null","null","<p style=""font-size: 60px; font-family: BACS"">aYQmYaum</p>","","","","","","","",""
"html-keyboard-response","333","468572","0.0-15.0-0.2","5c5e04ca6539fe00016e1afa","64b003020eef62ee308107cc","64b03cfcdb9478872012dd44","null","null","<p style=""font-size: 60px; font-family: BACS"">aYQmYaum</p>","","","","","","","",""
"html-keyboard-response","334","469588","0.0-15.0-0.3","5c5e04ca6539fe00016e1afa","64b003020eef62ee308107cc","64b03cfcdb9478872012dd44","null","null","<p style=""font-size: 60px; font-family: BACS"">aYQmYaum</p>","","","","","","","",""
"html-keyboard-response","335","470589","0.0-15.0-0.4","5c5e04ca6539fe00016e1afa","64b003020eef62ee308107cc","64b03cfcdb9478872012dd44","null","null","<p style=""font-size: 60px; font-family: BACS"">aYQmYaum</p>","","","","","","","",""
"html-keyboard-response","336","471601","0.0-15.0-0.5","5c5e04ca6539fe00016e1afa","64b003020eef62ee308107cc","64b03cfcdb9478872012dd44","null","null","<p style=""font-size: 60px; font-family: BACS"">aYQmYaum</p>","","","","","","","",""
"html-keyboard-response","337","472616","0.0-15.0-0.6","5c5e04ca6539fe00016e1afa","64b003020eef62ee308107cc","64b03cfcdb9478872012dd44","null","null","<p style=""font-size: 60px; font-family: BACS"">aYQmYaum</p>","","","","","","","",""
"html-keyboard-response","338","473618","0.0-15.0-0.7","5c5e04ca6539fe00016e1afa","64b003020eef62ee308107cc","64b03cfcdb9478872012dd44","null","null","<p style=""font-size: 60px; font-family: BACS"">aYQmYaum</p>","","","","","","","",""
"html-keyboard-response","339","474624","0.0-15.0-0.8","5c5e04ca6539fe00016e1afa","64b003020eef62ee308107cc","64b03cfcdb9478872012dd44","null","null","<p style=""font-size: 60px; font-family: BACS"">aYQmYaum</p>","","","","","","","",""
"html-keyboard-response","340","475626","0.0-15.0-0.9","5c5e04ca6539fe00016e1afa","64b003020eef62ee308107cc","64b03cfcdb9478872012dd44","null","null","<p style=""font-size: 60px; font-family: BACS"">aYQmYaum</p>","","","","","","","",""
"html-keyboard-response","341","476626","0.0-15.0-0.10","5c5e04ca6539fe00016e1afa","64b003020eef62ee308107cc","64b03cfcdb9478872012dd44","null","null","<p style=""font-size: 60px; font-family: BACS"">aYQmYaum</p>","","","","","","","",""
"html-keyboard-response","342","477635","0.0-15.0-0.11","5c5e04ca6539fe00016e1afa","64b003020eef62ee308107cc","64b03cfcdb9478872012dd44","null","null","<p style=""font-size: 60px; font-family: BACS"">aYQmYaum</p>","","","","","","","",""
"html-keyboard-response","343","478648","0.0-15.0-0.12","5c5e04ca6539fe00016e1afa","64b003020eef62ee308107cc","64b03cfcdb9478872012dd44","null","null","<p style=""font-size: 60px; font-family: BACS"">aYQmYaum</p>","","","","","","","",""
"html-keyboard-response","344","479652","0.0-15.0-0.13","5c5e04ca6539fe00016e1afa","64b003020eef62ee308107cc","64b03cfcdb9478872012dd44","null","null","<p style=""font-size: 60px; font-family: BACS"">aYQmYaum</p>","","","","","","","",""
"html-keyboard-response","345","480654","0.0-15.0-0.14","5c5e04ca6539fe00016e1afa","64b003020eef62ee308107cc","64b03cfcdb9478872012dd44","null","null","<p style=""font-size: 60px; font-family: BACS"">aYQmYaum</p>","","","","","","","",""
"html-keyboard-response","346","481659","0.0-15.0-0.15","5c5e04ca6539fe00016e1afa","64b003020eef62ee308107cc","64b03cfcdb9478872012dd44","null","null","<p style=""font-size: 60px; font-family: BACS"">aYQmYaum</p>","","","","","","","",""
"html-keyboard-response","347","482673","0.0-15.0-0.16","5c5e04ca6539fe00016e1afa","64b003020eef62ee308107cc","64b03cfcdb9478872012dd44","null","null","<p style=""font-size: 60px; font-family: BACS"">aYQmYaum</p>","","","","","","","",""
"html-keyboard-response","348","483680","0.0-15.0-0.17","5c5e04ca6539fe00016e1afa","64b003020eef62ee308107cc","64b03cfcdb9478872012dd44","null","null","<p style=""font-size: 60px; font-family: BACS"">aYQmYaum</p>","","","","","","","",""
"html-keyboard-response","349","484681","0.0-15.0-0.18","5c5e04ca6539fe00016e1afa","64b003020eef62ee308107cc","64b03cfcdb9478872012dd44","null","null","<p style=""font-size: 60px; font-family: BACS"">aYQmYaum</p>","","","","","","","",""
"html-keyboard-response","350","485683","0.0-15.0-0.19","5c5e04ca6539fe00016e1afa","64b003020eef62ee308107cc","64b03cfcdb9478872012dd44","null","null","<p style=""font-size: 60px; font-family: BACS"">aYQmYaum</p>","","","","","","","",""
"html-keyboard-response","351","486684","0.0-15.0-0.20","5c5e04ca6539fe00016e1afa","64b003020eef62ee308107cc","64b03cfcdb9478872012dd44","null","null","<p style=""font-size: 60px; font-family: BACS"">aYQmYaum</p>","","","","","","","",""
"html-keyboard-response","352","487698","0.0-15.0-0.21","5c5e04ca6539fe00016e1afa","64b003020eef62ee308107cc","64b03cfcdb9478872012dd44","null","null","<p style=""font-size: 60px; font-family: BACS"">aYQmYaum</p>","","","","","","","",""
"html-keyboard-response","353","488707","0.0-15.0-0.22","5c5e04ca6539fe00016e1afa","64b003020eef62ee308107cc","64b03cfcdb9478872012dd44","null","null","<p style=""font-size: 60px; font-family: BACS"">aYQmYaum</p>","","","","","","","",""
"html-keyboard-response","354","489720","0.0-15.0-0.23","5c5e04ca6539fe00016e1afa","64b003020eef62ee308107cc","64b03cfcdb9478872012dd44","null","null","<p style=""font-size: 60px; font-family: BACS"">aYQmYaum</p>","","","","","","","",""
"html-keyboard-response","355","490721","0.0-15.0-0.24","5c5e04ca6539fe00016e1afa","64b003020eef62ee308107cc","64b03cfcdb9478872012dd44","null","null","<p style=""font-size: 60px; font-family: BACS"">aYQmYaum</p>","","","","","","","",""
"html-keyboard-response","356","491735","0.0-15.0-0.25","5c5e04ca6539fe00016e1afa","64b003020eef62ee308107cc","64b03cfcdb9478872012dd44","null","null","<p style=""font-size: 60px; font-family: BACS"">aYQmYaum</p>","","","","","","","",""
"html-keyboard-response","357","492736","0.0-15.0-0.26","5c5e04ca6539fe00016e1afa","64b003020eef62ee308107cc","64b03cfcdb9478872012dd44","null","null","<p style=""font-size: 60px; font-family: BACS"">aYQmYaum</p>","","","","","","","",""
"html-keyboard-response","358","493737","0.0-15.0-0.27","5c5e04ca6539fe00016e1afa","64b003020eef62ee308107cc","64b03cfcdb9478872012dd44","null","null","<p style=""font-size: 60px; font-family: BACS"">aYQmYaum</p>","","","","","","","",""
"html-keyboard-response","359","494750","0.0-15.0-0.28","5c5e04ca6539fe00016e1afa","64b003020eef62ee308107cc","64b03cfcdb9478872012dd44","null","null","<p style=""font-size: 60px; font-family: BACS"">aYQmYaum</p>","","","","","","","",""
"html-keyboard-response","360","495763","0.0-15.0-0.29","5c5e04ca6539fe00016e1afa","64b003020eef62ee308107cc","64b03cfcdb9478872012dd44","null","null","<p style=""font-size: 60px; font-family: BACS"">aYQmYaum</p>","","","","","","","",""
"html-keyboard-response","361","496764","0.0-15.0-0.30","5c5e04ca6539fe00016e1afa","64b003020eef62ee308107cc","64b03cfcdb9478872012dd44","null","null","<p style=""font-size: 60px; font-family: BACS"">aYQmYaum</p>","","","","","","","",""
"html-keyboard-response","362","497781","0.0-15.0-0.31","5c5e04ca6539fe00016e1afa","64b003020eef62ee308107cc","64b03cfcdb9478872012dd44","null","null","<p style=""font-size: 60px; font-family: BACS"">aYQmYaum</p>","","","","","","","",""
"html-keyboard-response","363","498793","0.0-15.0-0.32","5c5e04ca6539fe00016e1afa","64b003020eef62ee308107cc","64b03cfcdb9478872012dd44","null","null","<p style=""font-size: 60px; font-family: BACS"">aYQmYaum</p>","","","","","","","",""
"html-keyboard-response","364","499808","0.0-15.0-0.33","5c5e04ca6539fe00016e1afa","64b003020eef62ee308107cc","64b03cfcdb9478872012dd44","null","null","<p style=""font-size: 60px; font-family: BACS"">aYQmYaum</p>","","","","","","","",""
"html-keyboard-response","365","500810","0.0-15.0-0.34","5c5e04ca6539fe00016e1afa","64b003020eef62ee308107cc","64b03cfcdb9478872012dd44","null","null","<p style=""font-size: 60px; font-family: BACS"">aYQmYaum</p>","","","","","","","",""
"html-keyboard-response","366","501817","0.0-15.0-0.35","5c5e04ca6539fe00016e1afa","64b003020eef62ee308107cc","64b03cfcdb9478872012dd44","null","null","<p style=""font-size: 60px; font-family: BACS"">aYQmYaum</p>","","","","","","","",""
"html-keyboard-response","367","502829","0.0-15.0-0.36","5c5e04ca6539fe00016e1afa","64b003020eef62ee308107cc","64b03cfcdb9478872012dd44","null","null","<p style=""font-size: 60px; font-family: BACS"">aYQmYaum</p>","","","","","","","",""
"html-keyboard-response","368","503831","0.0-15.0-0.37","5c5e04ca6539fe00016e1afa","64b003020eef62ee308107cc","64b03cfcdb9478872012dd44","null","null","<p style=""font-size: 60px; font-family: BACS"">aYQmYaum</p>","","","","","","","",""
"html-keyboard-response","369","504833","0.0-15.0-0.38","5c5e04ca6539fe00016e1afa","64b003020eef62ee308107cc","64b03cfcdb9478872012dd44","null","null","<p style=""font-size: 60px; font-family: BACS"">aYQmYaum</p>","","","","","","","",""
"html-keyboard-response","370","505835","0.0-15.0-0.39","5c5e04ca6539fe00016e1afa","64b003020eef62ee308107cc","64b03cfcdb9478872012dd44","null","null","<p style=""font-size: 60px; font-family: BACS"">aYQmYaum</p>","","","","","","","",""
"html-keyboard-response","371","506848","0.0-15.0-0.40","5c5e04ca6539fe00016e1afa","64b003020eef62ee308107cc","64b03cfcdb9478872012dd44","null","null","<p style=""font-size: 60px; font-family: BACS"">aYQmYaum</p>","","","","","","","",""
"html-keyboard-response","372","507849","0.0-15.0-0.41","5c5e04ca6539fe00016e1afa","64b003020eef62ee308107cc","64b03cfcdb9478872012dd44","null","null","<p style=""font-size: 60px; font-family: BACS"">aYQmYaum</p>","","","","","","","",""
"html-keyboard-response","373","508850","0.0-15.0-0.42","5c5e04ca6539fe00016e1afa","64b003020eef62ee308107cc","64b03cfcdb9478872012dd44","null","null","<p style=""font-size: 60px; font-family: BACS"">aYQmYaum</p>","","","","","","","",""
"html-keyboard-response","374","509851","0.0-15.0-0.43","5c5e04ca6539fe00016e1afa","64b003020eef62ee308107cc","64b03cfcdb9478872012dd44","null","null","<p style=""font-size: 60px; font-family: BACS"">aYQmYaum</p>","","","","","","","",""
"html-keyboard-response","375","510854","0.0-15.0-0.44","5c5e04ca6539fe00016e1afa","64b003020eef62ee308107cc","64b03cfcdb9478872012dd44","null","null","<p style=""font-size: 60px; font-family: BACS"">aYQmYaum</p>","","","","","","","",""
"html-keyboard-response","376","511857","0.0-15.0-0.45","5c5e04ca6539fe00016e1afa","64b003020eef62ee308107cc","64b03cfcdb9478872012dd44","null","null","<p style=""font-size: 60px; font-family: BACS"">aYQmYaum</p>","","","","","","","",""
"html-keyboard-response","377","512870","0.0-15.0-0.46","5c5e04ca6539fe00016e1afa","64b003020eef62ee308107cc","64b03cfcdb9478872012dd44","null","null","<p style=""font-size: 60px; font-family: BACS"">aYQmYaum</p>","","","","","","","",""
"html-keyboard-response","378","513880","0.0-15.0-0.47","5c5e04ca6539fe00016e1afa","64b003020eef62ee308107cc","64b03cfcdb9478872012dd44","null","null","<p style=""font-size: 60px; font-family: BACS"">aYQmYaum</p>","","","","","","","",""
"html-keyboard-response","379","514890","0.0-15.0-0.48","5c5e04ca6539fe00016e1afa","64b003020eef62ee308107cc","64b03cfcdb9478872012dd44","null","null","<p style=""font-size: 60px; font-family: BACS"">aYQmYaum</p>","","","","","","","",""
"html-keyboard-response","380","515892","0.0-15.0-0.49","5c5e04ca6539fe00016e1afa","64b003020eef62ee308107cc","64b03cfcdb9478872012dd44","null","null","<p style=""font-size: 60px; font-family: BACS"">aYQmYaum</p>","","","","","","","",""
"html-keyboard-response","381","516899","0.0-15.0-0.50","5c5e04ca6539fe00016e1afa","64b003020eef62ee308107cc","64b03cfcdb9478872012dd44","null","null","<p style=""font-size: 60px; font-family: BACS"">aYQmYaum</p>","","","","","","","",""
"html-keyboard-response","382","517900","0.0-15.0-0.51","5c5e04ca6539fe00016e1afa","64b003020eef62ee308107cc","64b03cfcdb9478872012dd44","null","null","<p style=""font-size: 60px; font-family: BACS"">aYQmYaum</p>","","","","","","","",""
"html-keyboard-response","383","518904","0.0-15.0-0.52","5c5e04ca6539fe00016e1afa","64b003020eef62ee308107cc","64b03cfcdb9478872012dd44","null","null","<p style=""font-size: 60px; font-family: BACS"">aYQmYaum</p>","","","","","","","",""
"html-keyboard-response","384","519906","0.0-15.0-0.53","5c5e04ca6539fe00016e1afa","64b003020eef62ee308107cc","64b03cfcdb9478872012dd44","null","null","<p style=""font-size: 60px; font-family: BACS"">aYQmYaum</p>","","","","","","","",""
"html-keyboard-response","385","520907","0.0-15.0-0.54","5c5e04ca6539fe00016e1afa","64b003020eef62ee308107cc","64b03cfcdb9478872012dd44","null","null","<p style=""font-size: 60px; font-family: BACS"">aYQmYaum</p>","","","","","","","",""
"html-keyboard-response","386","521925","0.0-15.0-0.55","5c5e04ca6539fe00016e1afa","64b003020eef62ee308107cc","64b03cfcdb9478872012dd44","null","null","<p style=""font-size: 60px; font-family: BACS"">aYQmYaum</p>","","","","","","","",""
"html-keyboard-response","387","522935","0.0-15.0-0.56","5c5e04ca6539fe00016e1afa","64b003020eef62ee308107cc","64b03cfcdb9478872012dd44","null","null","<p style=""font-size: 60px; font-family: BACS"">aYQmYaum</p>","","","","","","","",""
"html-keyboard-response","388","523936","0.0-15.0-0.57","5c5e04ca6539fe00016e1afa","64b003020eef62ee308107cc","64b03cfcdb9478872012dd44","null","null","<p style=""font-size: 60px; font-family: BACS"">aYQmYaum</p>","","","","","","","",""
"html-keyboard-response","389","524946","0.0-15.0-0.58","5c5e04ca6539fe00016e1afa","64b003020eef62ee308107cc","64b03cfcdb9478872012dd44","null","null","<p style=""font-size: 60px; font-family: BACS"">aYQmYaum</p>","","","","","","","",""
"html-keyboard-response","390","525947","0.0-15.0-0.59","5c5e04ca6539fe00016e1afa","64b003020eef62ee308107cc","64b03cfcdb9478872012dd44","null","null","<p style=""font-size: 60px; font-family: BACS"">aYQmYaum</p>","","","","","","","",""
"html-keyboard-response","391","526962","0.0-15.0-0.60","5c5e04ca6539fe00016e1afa","64b003020eef62ee308107cc","64b03cfcdb9478872012dd44","null","null","<p style=""font-size: 60px; font-family: BACS"">aYQmYaum</p>","","","","","","","",""
"html-keyboard-response","392","527974","0.0-15.0-0.61","5c5e04ca6539fe00016e1afa","64b003020eef62ee308107cc","64b03cfcdb9478872012dd44","null","null","<p style=""font-size: 60px; font-family: BACS"">aYQmYaum</p>","","","","","","","",""
"html-keyboard-response","393","528982","0.0-15.0-0.62","5c5e04ca6539fe00016e1afa","64b003020eef62ee308107cc","64b03cfcdb9478872012dd44","null","null","<p style=""font-size: 60px; font-family: BACS"">aYQmYaum</p>","","","","","","","",""
"html-keyboard-response","394","529991","0.0-15.0-0.63","5c5e04ca6539fe00016e1afa","64b003020eef62ee308107cc","64b03cfcdb9478872012dd44","null","null","<p style=""font-size: 60px; font-family: BACS"">aYQmYaum</p>","","","","","","","",""
"html-keyboard-response","395","530992","0.0-15.0-0.64","5c5e04ca6539fe00016e1afa","64b003020eef62ee308107cc","64b03cfcdb9478872012dd44","null","null","<p style=""font-size: 60px; font-family: BACS"">aYQmYaum</p>","","","","","","","",""
"html-keyboard-response","396","532001","0.0-15.0-0.65","5c5e04ca6539fe00016e1afa","64b003020eef62ee308107cc","64b03cfcdb9478872012dd44","null","null","<p style=""font-size: 60px; font-family: BACS"">aYQmYaum</p>","","","","","","","",""
"html-keyboard-response","397","533002","0.0-15.0-0.66","5c5e04ca6539fe00016e1afa","64b003020eef62ee308107cc","64b03cfcdb9478872012dd44","null","null","<p style=""font-size: 60px; font-family: BACS"">aYQmYaum</p>","","","","","","","",""
"html-keyboard-response","398","534003","0.0-15.0-0.67","5c5e04ca6539fe00016e1afa","64b003020eef62ee308107cc","64b03cfcdb9478872012dd44","null","null","<p style=""font-size: 60px; font-family: BACS"">aYQmYaum</p>","","","","","","","",""
"html-keyboard-response","399","535007","0.0-15.0-0.68","5c5e04ca6539fe00016e1afa","64b003020eef62ee308107cc","64b03cfcdb9478872012dd44","null","null","<p style=""font-size: 60px; font-family: BACS"">aYQmYaum</p>","","","","","","","",""
"html-keyboard-response","400","536018","0.0-15.0-0.69","5c5e04ca6539fe00016e1afa","64b003020eef62ee308107cc","64b03cfcdb9478872012dd44","null","null","<p style=""font-size: 60px; font-family: BACS"">aYQmYaum</p>","","","","","","","",""
"html-keyboard-response","401","537034","0.0-15.0-0.70","5c5e04ca6539fe00016e1afa","64b003020eef62ee308107cc","64b03cfcdb9478872012dd44","null","null","<p style=""font-size: 60px; font-family: BACS"">aYQmYaum</p>","","","","","","","",""
