"trial_type","trial_index","time_elapsed","internal_node_id","subject_id","study_id","session_id","rt","response","stimulus","success","item","task","correct_response","testing_condition","correct","target","confound","name"
"pavlovia","0","680","0.0-0.0","60e12640be1b69b66053d55b","650c16f0f2faf8d7a0d14c09","651c1e1032b59e401c711dde","","","","","","","","","","","",""
"survey-html-form","1","6022","0.0-1.0","60e12640be1b69b66053d55b","650c16f0f2faf8d7a0d14c09","651c1e1032b59e401c711dde","5341","{""ID"":""60e12640be1b69b66053d55b""}","","","","","","","","","",""
"html-keyboard-response","2","1157618","0.0-2.0","60e12640be1b69b66053d55b","650c16f0f2faf8d7a0d14c09","651c1e1032b59e401c711dde","1151595"," ","<p style=""font-size: 15px;"">Before beginning, we ask that you read the consent information and confirm your agreement to participate in the experiment.</p>
      <p style=""font-size: 15px;""> We ask that you remember that this is a research project and that your participation is entirely voluntary. You can stop your participation at any time, without needing to provide any explanation. The study we're asking you to participate in aims at examining how readers process written words. You will be engaged in a session of apprximately 20 minutes, followed by a brief questionnaire. You will have the opportunity to take a few breaks during the experiment. You will be paid £4 for your participation, corresponding to a rate of £8/hour. While this experiment looks at cognitive faculties, this experiment doesn't constitute clinical proof of eventual pathologies.</p>
      <p style=""font-size: 15px;"">All of the information collected thanks to yours and others' participation will be held in a secure password-protected server, and will not be shared with anyone not authorised to view it. Your personal information will be kept with an arbitrary participant ID. Thanks to this data anonymity process, any researcher analysing the data won't be able to track the information back to a specific participant. Therefore, this process will make identifying you impossibile, even when results from the study will be published in scientific reviews, presented at congresses, or at any other public forum. More generally, the collected data will be treated in accordance with the laws on privacy and conformity to the Legislative Degree n. 196 ""Code regarding the protection of personal data"" of the 30th of June 2003 and to the European Regulation 2016/670 (General Data Protection Regulation - GDPR). The Data Protection Officer is Avv. Valentina Carollo, who can be contacted at the following email addresses: <a href=""mailto:dpo@sissa.it"">dpo@sissa.it</a> or <a href=""mailto:rpd@sissa.it"">rpd@sissa.it</a> - PEC: <a href=""mailto:protocollo@pec.sissa.it"">protocollo@pec.sissa.it</a>.</p>
      <p style=""font-size: 15px;""> Before expressing your consent to participate, we would like to remind you again that in case you need explanations on any aspect of the experimental procedure, the researcher is at your disposition (<a href=""mailto:aliebelt@sissa.it"">aliebelt@sissa.it</a>, <a href=""mailto:davide.crepaldi@sissa.it"">davide.crepaldi@sissa.it</a>).</p>
      <p style=""font-size: 15px;"">If you would like to download the informed consent form, you can do so here: <a href=""BASL-Informed_Consent.pdf"" download>informed consent form</a>.</p>
      <p style=""font-size: 15px;"">We ask that you press the spacebar to proceed to the consent section.</p>","","","","","","","","",""
"survey-html-form","3","1316275","0.0-3.0","60e12640be1b69b66053d55b","650c16f0f2faf8d7a0d14c09","651c1e1032b59e401c711dde","158655","{""consent1"":""YES"",""consent2"":""YES"",""consent3"":""YES"",""consent4"":""YES"",""consent5"":""YES"",""consent6"":""YES""}","","","","","","","","","",""
"fullscreen","4","1321312","0.0-4.0","60e12640be1b69b66053d55b","650c16f0f2faf8d7a0d14c09","651c1e1032b59e401c711dde","","","","true","","","","","","","",""
"html-keyboard-response","5","1332291","0.0-5.0","60e12640be1b69b66053d55b","650c16f0f2faf8d7a0d14c09","651c1e1032b59e401c711dde","10979"," ","<p>Welcome, and thank you very much for your time!</p>
      <p>In this experiment, you'll be a language expert who's been asked to take a look at words that Earth has received in its first communication with aliens. Your task, in this first part of the experiment, is to pay close attention to the words you'll be shown; later, world leaders will ask you questions on what you saw. The words will be shown to you quite quickly; it seems that the aliens were in a hurry :-)</p>
      <p>Press the spacebar to continue.<p>","","","","","","","","",""
"html-keyboard-response","6","1332342","0.0-6.0","60e12640be1b69b66053d55b","650c16f0f2faf8d7a0d14c09","651c1e1032b59e401c711dde","null","null","<p style=""font-size: 120px; font-family: BACS""> </p>","","","","","","","","",""
"html-keyboard-response","7","1335143","0.0-7.0","60e12640be1b69b66053d55b","650c16f0f2faf8d7a0d14c09","651c1e1032b59e401c711dde","2801"," ","<p>Here is an example of the words you'll see:</p>
      <img src='esempio.png' height='400px'>
      <p>When you're ready to begin, press the spacebar.</p></div>","","","","","","","","",""
"html-keyboard-response","8","1336152","0.0-8.0-0.0","60e12640be1b69b66053d55b","650c16f0f2faf8d7a0d14c09","651c1e1032b59e401c711dde","null","null","<p style=""font-size: 60px; font-family: BACS"">NkUAQGb</p>","","","","","","","","",""
"html-keyboard-response","9","1337153","0.0-8.0-0.1","60e12640be1b69b66053d55b","650c16f0f2faf8d7a0d14c09","651c1e1032b59e401c711dde","null","null","<p style=""font-size: 60px; font-family: BACS"">YObAhBK</p>","","","","","","","","",""
"html-keyboard-response","10","1338169","0.0-8.0-0.2","60e12640be1b69b66053d55b","650c16f0f2faf8d7a0d14c09","651c1e1032b59e401c711dde","null","null","<p style=""font-size: 60px; font-family: BACS"">aLNlkGrub</p>","","","","","","","","",""
"html-keyboard-response","11","1339170","0.0-8.0-0.3","60e12640be1b69b66053d55b","650c16f0f2faf8d7a0d14c09","651c1e1032b59e401c711dde","null","null","<p style=""font-size: 60px; font-family: BACS"">KDPAbdtK</p>","","","","","","","","",""
"html-keyboard-response","12","1340172","0.0-8.0-0.4","60e12640be1b69b66053d55b","650c16f0f2faf8d7a0d14c09","651c1e1032b59e401c711dde","null","null","<p style=""font-size: 60px; font-family: BACS"">CRdBdRCdc</p>","","","","","","","","",""
"html-keyboard-response","13","1341173","0.0-8.0-0.5","60e12640be1b69b66053d55b","650c16f0f2faf8d7a0d14c09","651c1e1032b59e401c711dde","null","null","<p style=""font-size: 60px; font-family: BACS"">AlNUYNu</p>","","","","","","","","",""
"html-keyboard-response","14","1342189","0.0-8.0-0.6","60e12640be1b69b66053d55b","650c16f0f2faf8d7a0d14c09","651c1e1032b59e401c711dde","null","null","<p style=""font-size: 60px; font-family: BACS"">vmuLlOJNk</p>","","","","","","","","",""
"html-keyboard-response","15","1343190","0.0-8.0-0.7","60e12640be1b69b66053d55b","650c16f0f2faf8d7a0d14c09","651c1e1032b59e401c711dde","null","null","<p style=""font-size: 60px; font-family: BACS"">ZYcQUGrub</p>","","","","","","","","",""
"html-keyboard-response","16","1344203","0.0-8.0-0.8","60e12640be1b69b66053d55b","650c16f0f2faf8d7a0d14c09","651c1e1032b59e401c711dde","null","null","<p style=""font-size: 60px; font-family: BACS"">GJGcZYZUZ</p>","","","","","","","","",""
"html-keyboard-response","17","1345204","0.0-8.0-0.9","60e12640be1b69b66053d55b","650c16f0f2faf8d7a0d14c09","651c1e1032b59e401c711dde","null","null","<p style=""font-size: 60px; font-family: BACS"">ldAaOJNk</p>","","","","","","","","",""
"html-keyboard-response","18","1346205","0.0-8.0-0.10","60e12640be1b69b66053d55b","650c16f0f2faf8d7a0d14c09","651c1e1032b59e401c711dde","null","null","<p style=""font-size: 60px; font-family: BACS"">AlNUQGb</p>","","","","","","","","",""
"html-keyboard-response","19","1347205","0.0-8.0-0.11","60e12640be1b69b66053d55b","650c16f0f2faf8d7a0d14c09","651c1e1032b59e401c711dde","null","null","<p style=""font-size: 60px; font-family: BACS"">lhCTCRCdc</p>","","","","","","","","",""
"html-keyboard-response","20","1348207","0.0-8.0-0.12","60e12640be1b69b66053d55b","650c16f0f2faf8d7a0d14c09","651c1e1032b59e401c711dde","null","null","<p style=""font-size: 60px; font-family: BACS"">AlNUOJNk</p>","","","","","","","","",""
"html-keyboard-response","21","1349222","0.0-8.0-0.13","60e12640be1b69b66053d55b","650c16f0f2faf8d7a0d14c09","651c1e1032b59e401c711dde","null","null","<p style=""font-size: 60px; font-family: BACS"">rcmuvYZUZ</p>","","","","","","","","",""
"html-keyboard-response","22","1350238","0.0-8.0-0.14","60e12640be1b69b66053d55b","650c16f0f2faf8d7a0d14c09","651c1e1032b59e401c711dde","null","null","<p style=""font-size: 60px; font-family: BACS"">bdUNuYNu</p>","","","","","","","","",""
"html-keyboard-response","23","1351252","0.0-8.0-0.15","60e12640be1b69b66053d55b","650c16f0f2faf8d7a0d14c09","651c1e1032b59e401c711dde","null","null","<p style=""font-size: 60px; font-family: BACS"">lhCTChBK</p>","","","","","","","","",""
"html-keyboard-response","24","1352253","0.0-8.0-0.16","60e12640be1b69b66053d55b","650c16f0f2faf8d7a0d14c09","651c1e1032b59e401c711dde","null","null","<p style=""font-size: 60px; font-family: BACS"">bdUNuGrub</p>","","","","","","","","",""
"html-keyboard-response","25","1353268","0.0-8.0-0.17","60e12640be1b69b66053d55b","650c16f0f2faf8d7a0d14c09","651c1e1032b59e401c711dde","null","null","<p style=""font-size: 60px; font-family: BACS"">KDPAYht</p>","","","","","","","","",""
"html-keyboard-response","26","1354284","0.0-8.0-0.18","60e12640be1b69b66053d55b","650c16f0f2faf8d7a0d14c09","651c1e1032b59e401c711dde","null","null","<p style=""font-size: 60px; font-family: BACS"">mBYlKmE</p>","","","","","","","","",""
"html-keyboard-response","27","1355298","0.0-8.0-0.19","60e12640be1b69b66053d55b","650c16f0f2faf8d7a0d14c09","651c1e1032b59e401c711dde","null","null","<p style=""font-size: 60px; font-family: BACS"">AlNUGrub</p>","","","","","","","","",""
"html-keyboard-response","28","1356315","0.0-8.0-0.20","60e12640be1b69b66053d55b","650c16f0f2faf8d7a0d14c09","651c1e1032b59e401c711dde","null","null","<p style=""font-size: 60px; font-family: BACS"">GJGcZOJNk</p>","","","","","","","","",""
"html-keyboard-response","29","1357315","0.0-8.0-0.21","60e12640be1b69b66053d55b","650c16f0f2faf8d7a0d14c09","651c1e1032b59e401c711dde","null","null","<p style=""font-size: 60px; font-family: BACS"">TAdhMKmE</p>","","","","","","","","",""
"html-keyboard-response","30","1358317","0.0-8.0-0.22","60e12640be1b69b66053d55b","650c16f0f2faf8d7a0d14c09","651c1e1032b59e401c711dde","null","null","<p style=""font-size: 60px; font-family: BACS"">JNkaYZUZ</p>","","","","","","","","",""
"html-keyboard-response","31","1359319","0.0-8.0-0.23","60e12640be1b69b66053d55b","650c16f0f2faf8d7a0d14c09","651c1e1032b59e401c711dde","null","null","<p style=""font-size: 60px; font-family: BACS"">TAdhMhBK</p>","","","","","","","","",""
"html-keyboard-response","32","1360334","0.0-8.0-0.24","60e12640be1b69b66053d55b","650c16f0f2faf8d7a0d14c09","651c1e1032b59e401c711dde","null","null","<p style=""font-size: 60px; font-family: BACS"">YObARCdc</p>","","","","","","","","",""
"html-keyboard-response","33","1361335","0.0-8.0-0.25","60e12640be1b69b66053d55b","650c16f0f2faf8d7a0d14c09","651c1e1032b59e401c711dde","null","null","<p style=""font-size: 60px; font-family: BACS"">DBPhcYht</p>","","","","","","","","",""
"html-keyboard-response","34","1362336","0.0-8.0-0.26","60e12640be1b69b66053d55b","650c16f0f2faf8d7a0d14c09","651c1e1032b59e401c711dde","null","null","<p style=""font-size: 60px; font-family: BACS"">YObAbdtK</p>","","","","","","","","",""
"html-keyboard-response","35","1363340","0.0-8.0-0.27","60e12640be1b69b66053d55b","650c16f0f2faf8d7a0d14c09","651c1e1032b59e401c711dde","null","null","<p style=""font-size: 60px; font-family: BACS"">NkUAOJNk</p>","","","","","","","","",""
"html-keyboard-response","36","1364355","0.0-8.0-0.28","60e12640be1b69b66053d55b","650c16f0f2faf8d7a0d14c09","651c1e1032b59e401c711dde","null","null","<p style=""font-size: 60px; font-family: BACS"">aLNlkYNu</p>","","","","","","","","",""
"html-keyboard-response","37","1365358","0.0-8.0-0.29","60e12640be1b69b66053d55b","650c16f0f2faf8d7a0d14c09","651c1e1032b59e401c711dde","null","null","<p style=""font-size: 60px; font-family: BACS"">mBYlYht</p>","","","","","","","","",""
"html-keyboard-response","38","1366374","0.0-8.0-0.30","60e12640be1b69b66053d55b","650c16f0f2faf8d7a0d14c09","651c1e1032b59e401c711dde","null","null","<p style=""font-size: 60px; font-family: BACS"">CRdBdhBK</p>","","","","","","","","",""
"html-keyboard-response","39","1367389","0.0-8.0-0.31","60e12640be1b69b66053d55b","650c16f0f2faf8d7a0d14c09","651c1e1032b59e401c711dde","null","null","<p style=""font-size: 60px; font-family: BACS"">bdUNuQGb</p>","","","","","","","","",""
"html-keyboard-response","40","1368404","0.0-8.0-0.32","60e12640be1b69b66053d55b","650c16f0f2faf8d7a0d14c09","651c1e1032b59e401c711dde","null","null","<p style=""font-size: 60px; font-family: BACS"">TdTDhBK</p>","","","","","","","","",""
"html-keyboard-response","41","1369405","0.0-8.0-0.33","60e12640be1b69b66053d55b","650c16f0f2faf8d7a0d14c09","651c1e1032b59e401c711dde","null","null","<p style=""font-size: 60px; font-family: BACS"">NkUAYZUZ</p>","","","","","","","","",""
"html-keyboard-response","42","1370406","0.0-8.0-0.34","60e12640be1b69b66053d55b","650c16f0f2faf8d7a0d14c09","651c1e1032b59e401c711dde","null","null","<p style=""font-size: 60px; font-family: BACS"">CRdBdYht</p>","","","","","","","","",""
"html-keyboard-response","43","1371420","0.0-8.0-0.35","60e12640be1b69b66053d55b","650c16f0f2faf8d7a0d14c09","651c1e1032b59e401c711dde","null","null","<p style=""font-size: 60px; font-family: BACS"">aLNlkQGb</p>","","","","","","","","",""
"html-keyboard-response","44","1372421","0.0-8.0-0.36","60e12640be1b69b66053d55b","650c16f0f2faf8d7a0d14c09","651c1e1032b59e401c711dde","null","null","<p style=""font-size: 60px; font-family: BACS"">TAdhMbdtK</p>","","","","","","","","",""
"html-keyboard-response","45","1373422","0.0-8.0-0.37","60e12640be1b69b66053d55b","650c16f0f2faf8d7a0d14c09","651c1e1032b59e401c711dde","null","null","<p style=""font-size: 60px; font-family: BACS"">CRdBdKmE</p>","","","","","","","","",""
"html-keyboard-response","46","1374437","0.0-8.0-0.38","60e12640be1b69b66053d55b","650c16f0f2faf8d7a0d14c09","651c1e1032b59e401c711dde","null","null","<p style=""font-size: 60px; font-family: BACS"">vmuLlYNu</p>","","","","","","","","",""
"html-keyboard-response","47","1375439","0.0-8.0-0.39","60e12640be1b69b66053d55b","650c16f0f2faf8d7a0d14c09","651c1e1032b59e401c711dde","null","null","<p style=""font-size: 60px; font-family: BACS"">ktBdhBK</p>","","","","","","","","",""
"html-keyboard-response","48","1376440","0.0-8.0-0.40","60e12640be1b69b66053d55b","650c16f0f2faf8d7a0d14c09","651c1e1032b59e401c711dde","null","null","<p style=""font-size: 60px; font-family: BACS"">lhCTCbdtK</p>","","","","","","","","",""
"html-keyboard-response","49","1377442","0.0-8.0-0.41","60e12640be1b69b66053d55b","650c16f0f2faf8d7a0d14c09","651c1e1032b59e401c711dde","null","null","<p style=""font-size: 60px; font-family: BACS"">ZYcQUYNu</p>","","","","","","","","",""
"html-keyboard-response","50","1378443","0.0-8.0-0.42","60e12640be1b69b66053d55b","650c16f0f2faf8d7a0d14c09","651c1e1032b59e401c711dde","null","null","<p style=""font-size: 60px; font-family: BACS"">rcmuvOJNk</p>","","","","","","","","",""
"html-keyboard-response","51","1379444","0.0-8.0-0.43","60e12640be1b69b66053d55b","650c16f0f2faf8d7a0d14c09","651c1e1032b59e401c711dde","null","null","<p style=""font-size: 60px; font-family: BACS"">ldAaYZUZ</p>","","","","","","","","",""
"html-keyboard-response","52","1380459","0.0-8.0-0.44","60e12640be1b69b66053d55b","650c16f0f2faf8d7a0d14c09","651c1e1032b59e401c711dde","null","null","<p style=""font-size: 60px; font-family: BACS"">DBPhcRCdc</p>","","","","","","","","",""
"html-keyboard-response","53","1381461","0.0-8.0-0.45","60e12640be1b69b66053d55b","650c16f0f2faf8d7a0d14c09","651c1e1032b59e401c711dde","null","null","<p style=""font-size: 60px; font-family: BACS"">ZYcQUQGb</p>","","","","","","","","",""
"html-keyboard-response","54","1382463","0.0-8.0-0.46","60e12640be1b69b66053d55b","650c16f0f2faf8d7a0d14c09","651c1e1032b59e401c711dde","null","null","<p style=""font-size: 60px; font-family: BACS"">NkUAYNu</p>","","","","","","","","",""
"html-keyboard-response","55","1383464","0.0-8.0-0.47","60e12640be1b69b66053d55b","650c16f0f2faf8d7a0d14c09","651c1e1032b59e401c711dde","null","null","<p style=""font-size: 60px; font-family: BACS"">TdTDKmE</p>","","","","","","","","",""
"html-keyboard-response","56","1384481","0.0-8.0-0.48","60e12640be1b69b66053d55b","650c16f0f2faf8d7a0d14c09","651c1e1032b59e401c711dde","null","null","<p style=""font-size: 60px; font-family: BACS"">KDPAhBK</p>","","","","","","","","",""
"html-keyboard-response","57","1385482","0.0-8.0-0.49","60e12640be1b69b66053d55b","650c16f0f2faf8d7a0d14c09","651c1e1032b59e401c711dde","null","null","<p style=""font-size: 60px; font-family: BACS"">cDOEBYht</p>","","","","","","","","",""
"html-keyboard-response","58","1386483","0.0-8.0-0.50","60e12640be1b69b66053d55b","650c16f0f2faf8d7a0d14c09","651c1e1032b59e401c711dde","null","null","<p style=""font-size: 60px; font-family: BACS"">mBYlhBK</p>","","","","","","","","",""
"html-keyboard-response","59","1387498","0.0-8.0-0.51","60e12640be1b69b66053d55b","650c16f0f2faf8d7a0d14c09","651c1e1032b59e401c711dde","null","null","<p style=""font-size: 60px; font-family: BACS"">DBPhcKmE</p>","","","","","","","","",""
"html-keyboard-response","60","1388514","0.0-8.0-0.52","60e12640be1b69b66053d55b","650c16f0f2faf8d7a0d14c09","651c1e1032b59e401c711dde","null","null","<p style=""font-size: 60px; font-family: BACS"">mBYlbdtK</p>","","","","","","","","",""
"html-keyboard-response","61","1389516","0.0-8.0-0.53","60e12640be1b69b66053d55b","650c16f0f2faf8d7a0d14c09","651c1e1032b59e401c711dde","null","null","<p style=""font-size: 60px; font-family: BACS"">GJGcZYNu</p>","","","","","","","","",""
"html-keyboard-response","62","1390530","0.0-8.0-0.54","60e12640be1b69b66053d55b","650c16f0f2faf8d7a0d14c09","651c1e1032b59e401c711dde","null","null","<p style=""font-size: 60px; font-family: BACS"">rcmuvGrub</p>","","","","","","","","",""
"html-keyboard-response","63","1391530","0.0-8.0-0.55","60e12640be1b69b66053d55b","650c16f0f2faf8d7a0d14c09","651c1e1032b59e401c711dde","null","null","<p style=""font-size: 60px; font-family: BACS"">JNkaOJNk</p>","","","","","","","","",""
"html-keyboard-response","64","1392532","0.0-8.0-0.56","60e12640be1b69b66053d55b","650c16f0f2faf8d7a0d14c09","651c1e1032b59e401c711dde","null","null","<p style=""font-size: 60px; font-family: BACS"">cDOEBKmE</p>","","","","","","","","",""
"html-keyboard-response","65","1393533","0.0-8.0-0.57","60e12640be1b69b66053d55b","650c16f0f2faf8d7a0d14c09","651c1e1032b59e401c711dde","null","null","<p style=""font-size: 60px; font-family: BACS"">YObAYht</p>","","","","","","","","",""
"html-keyboard-response","66","1394536","0.0-8.0-0.58","60e12640be1b69b66053d55b","650c16f0f2faf8d7a0d14c09","651c1e1032b59e401c711dde","null","null","<p style=""font-size: 60px; font-family: BACS"">cDOEBbdtK</p>","","","","","","","","",""
"html-keyboard-response","67","1395552","0.0-8.0-0.59","60e12640be1b69b66053d55b","650c16f0f2faf8d7a0d14c09","651c1e1032b59e401c711dde","null","null","<p style=""font-size: 60px; font-family: BACS"">ldAaQGb</p>","","","","","","","","",""
"html-keyboard-response","68","1396566","0.0-8.0-0.60","60e12640be1b69b66053d55b","650c16f0f2faf8d7a0d14c09","651c1e1032b59e401c711dde","null","null","<p style=""font-size: 60px; font-family: BACS"">cDOEBRCdc</p>","","","","","","","","",""
"html-keyboard-response","69","1397583","0.0-8.0-0.61","60e12640be1b69b66053d55b","650c16f0f2faf8d7a0d14c09","651c1e1032b59e401c711dde","null","null","<p style=""font-size: 60px; font-family: BACS"">rcmuvYNu</p>","","","","","","","","",""
"html-keyboard-response","70","1398584","0.0-8.0-0.62","60e12640be1b69b66053d55b","650c16f0f2faf8d7a0d14c09","651c1e1032b59e401c711dde","null","null","<p style=""font-size: 60px; font-family: BACS"">ktBdRCdc</p>","","","","","","","","",""
"html-keyboard-response","71","1399600","0.0-8.0-0.63","60e12640be1b69b66053d55b","650c16f0f2faf8d7a0d14c09","651c1e1032b59e401c711dde","null","null","<p style=""font-size: 60px; font-family: BACS"">ldAaGrub</p>","","","","","","","","",""
"html-keyboard-response","72","1400602","0.0-8.0-0.64","60e12640be1b69b66053d55b","650c16f0f2faf8d7a0d14c09","651c1e1032b59e401c711dde","null","null","<p style=""font-size: 60px; font-family: BACS"">vmuLlYZUZ</p>","","","","","","","","",""
"html-keyboard-response","73","1401617","0.0-8.0-0.65","60e12640be1b69b66053d55b","650c16f0f2faf8d7a0d14c09","651c1e1032b59e401c711dde","null","null","<p style=""font-size: 60px; font-family: BACS"">TdTDYht</p>","","","","","","","","",""
"html-keyboard-response","74","1402618","0.0-8.0-0.66","60e12640be1b69b66053d55b","650c16f0f2faf8d7a0d14c09","651c1e1032b59e401c711dde","null","null","<p style=""font-size: 60px; font-family: BACS"">DBPhcbdtK</p>","","","","","","","","",""
"html-keyboard-response","75","1403632","0.0-8.0-0.67","60e12640be1b69b66053d55b","650c16f0f2faf8d7a0d14c09","651c1e1032b59e401c711dde","null","null","<p style=""font-size: 60px; font-family: BACS"">aLNlkOJNk</p>","","","","","","","","",""
"html-keyboard-response","76","1404633","0.0-8.0-0.68","60e12640be1b69b66053d55b","650c16f0f2faf8d7a0d14c09","651c1e1032b59e401c711dde","null","null","<p style=""font-size: 60px; font-family: BACS"">KDPAKmE</p>","","","","","","","","",""
"html-keyboard-response","77","1405634","0.0-8.0-0.69","60e12640be1b69b66053d55b","650c16f0f2faf8d7a0d14c09","651c1e1032b59e401c711dde","null","null","<p style=""font-size: 60px; font-family: BACS"">JNkaQGb</p>","","","","","","","","",""
"html-keyboard-response","78","1406649","0.0-8.0-0.70","60e12640be1b69b66053d55b","650c16f0f2faf8d7a0d14c09","651c1e1032b59e401c711dde","null","null","<p style=""font-size: 60px; font-family: BACS"">ktBdYht</p>","","","","","","","","",""
"html-keyboard-response","79","1407650","0.0-8.0-0.71","60e12640be1b69b66053d55b","650c16f0f2faf8d7a0d14c09","651c1e1032b59e401c711dde","null","null","<p style=""font-size: 60px; font-family: BACS"">GJGcZQGb</p>","","","","","","","","",""
"html-keyboard-response","80","1408652","0.0-8.0-0.72","60e12640be1b69b66053d55b","650c16f0f2faf8d7a0d14c09","651c1e1032b59e401c711dde","null","null","<p style=""font-size: 60px; font-family: BACS"">ktBdbdtK</p>","","","","","","","","",""
"html-keyboard-response","81","1409653","0.0-8.0-0.73","60e12640be1b69b66053d55b","650c16f0f2faf8d7a0d14c09","651c1e1032b59e401c711dde","null","null","<p style=""font-size: 60px; font-family: BACS"">vmuLlGrub</p>","","","","","","","","",""
"html-keyboard-response","82","1410654","0.0-8.0-0.74","60e12640be1b69b66053d55b","650c16f0f2faf8d7a0d14c09","651c1e1032b59e401c711dde","null","null","<p style=""font-size: 60px; font-family: BACS"">TAdhMRCdc</p>","","","","","","","","",""
"html-keyboard-response","83","1411655","0.0-8.0-0.75","60e12640be1b69b66053d55b","650c16f0f2faf8d7a0d14c09","651c1e1032b59e401c711dde","null","null","<p style=""font-size: 60px; font-family: BACS"">ZYcQUYZUZ</p>","","","","","","","","",""
"html-keyboard-response","84","1412658","0.0-8.0-0.76","60e12640be1b69b66053d55b","650c16f0f2faf8d7a0d14c09","651c1e1032b59e401c711dde","null","null","<p style=""font-size: 60px; font-family: BACS"">lhCTCKmE</p>","","","","","","","","",""
"html-keyboard-response","85","1413660","0.0-8.0-0.77","60e12640be1b69b66053d55b","650c16f0f2faf8d7a0d14c09","651c1e1032b59e401c711dde","null","null","<p style=""font-size: 60px; font-family: BACS"">JNkaGrub</p>","","","","","","","","",""
"html-keyboard-response","86","1414661","0.0-8.0-0.78","60e12640be1b69b66053d55b","650c16f0f2faf8d7a0d14c09","651c1e1032b59e401c711dde","null","null","<p style=""font-size: 60px; font-family: BACS"">TdTDRCdc</p>","","","","","","","","",""
"html-keyboard-response","87","1415663","0.0-8.0-0.79","60e12640be1b69b66053d55b","650c16f0f2faf8d7a0d14c09","651c1e1032b59e401c711dde","null","null","<p style=""font-size: 60px; font-family: BACS"">bdUNuYZUZ</p>","","","","","","","","",""
"html-keyboard-response","88","1438271","0.0-9.0","60e12640be1b69b66053d55b","650c16f0f2faf8d7a0d14c09","651c1e1032b59e401c711dde","22607"," ","<p>Great, you've seen the first block of words. You may now take a short break.</p>
      <p>Press the spacebar when you're ready to continue.</p>","","","","","","","","",""
"html-keyboard-response","89","1439276","0.0-10.0-0.0","60e12640be1b69b66053d55b","650c16f0f2faf8d7a0d14c09","651c1e1032b59e401c711dde","null","null","<p style=""font-size: 60px; font-family: BACS"">ZYcQUGrub</p>","","","","","","","","",""
"html-keyboard-response","90","1440277","0.0-10.0-0.1","60e12640be1b69b66053d55b","650c16f0f2faf8d7a0d14c09","651c1e1032b59e401c711dde","null","null","<p style=""font-size: 60px; font-family: BACS"">TdTDKmE</p>","","","","","","","","",""
"html-keyboard-response","91","1441278","0.0-10.0-0.2","60e12640be1b69b66053d55b","650c16f0f2faf8d7a0d14c09","651c1e1032b59e401c711dde","null","null","<p style=""font-size: 60px; font-family: BACS"">vmuLlYZUZ</p>","","","","","","","","",""
"html-keyboard-response","92","1442278","0.0-10.0-0.3","60e12640be1b69b66053d55b","650c16f0f2faf8d7a0d14c09","651c1e1032b59e401c711dde","null","null","<p style=""font-size: 60px; font-family: BACS"">CRdBdhBK</p>","","","","","","","","",""
"html-keyboard-response","93","1443279","0.0-10.0-0.4","60e12640be1b69b66053d55b","650c16f0f2faf8d7a0d14c09","651c1e1032b59e401c711dde","null","null","<p style=""font-size: 60px; font-family: BACS"">TdTDRCdc</p>","","","","","","","","",""
"html-keyboard-response","94","1444295","0.0-10.0-0.5","60e12640be1b69b66053d55b","650c16f0f2faf8d7a0d14c09","651c1e1032b59e401c711dde","null","null","<p style=""font-size: 60px; font-family: BACS"">aLNlkOJNk</p>","","","","","","","","",""
"html-keyboard-response","95","1445296","0.0-10.0-0.6","60e12640be1b69b66053d55b","650c16f0f2faf8d7a0d14c09","651c1e1032b59e401c711dde","null","null","<p style=""font-size: 60px; font-family: BACS"">bdUNuYZUZ</p>","","","","","","","","",""
"html-keyboard-response","96","1446297","0.0-10.0-0.7","60e12640be1b69b66053d55b","650c16f0f2faf8d7a0d14c09","651c1e1032b59e401c711dde","null","null","<p style=""font-size: 60px; font-family: BACS"">vmuLlGrub</p>","","","","","","","","",""
"html-keyboard-response","97","1447313","0.0-10.0-0.8","60e12640be1b69b66053d55b","650c16f0f2faf8d7a0d14c09","651c1e1032b59e401c711dde","null","null","<p style=""font-size: 60px; font-family: BACS"">AlNUOJNk</p>","","","","","","","","",""
"html-keyboard-response","98","1448329","0.0-10.0-0.9","60e12640be1b69b66053d55b","650c16f0f2faf8d7a0d14c09","651c1e1032b59e401c711dde","null","null","<p style=""font-size: 60px; font-family: BACS"">aLNlkGrub</p>","","","","","","","","",""
"html-keyboard-response","99","1449330","0.0-10.0-0.10","60e12640be1b69b66053d55b","650c16f0f2faf8d7a0d14c09","651c1e1032b59e401c711dde","null","null","<p style=""font-size: 60px; font-family: BACS"">CRdBdRCdc</p>","","","","","","","","",""
"html-keyboard-response","100","1450331","0.0-10.0-0.11","60e12640be1b69b66053d55b","650c16f0f2faf8d7a0d14c09","651c1e1032b59e401c711dde","null","null","<p style=""font-size: 60px; font-family: BACS"">AlNUQGb</p>","","","","","","","","",""
"html-keyboard-response","101","1451347","0.0-10.0-0.12","60e12640be1b69b66053d55b","650c16f0f2faf8d7a0d14c09","651c1e1032b59e401c711dde","null","null","<p style=""font-size: 60px; font-family: BACS"">KDPAKmE</p>","","","","","","","","",""
"html-keyboard-response","102","1452363","0.0-10.0-0.13","60e12640be1b69b66053d55b","650c16f0f2faf8d7a0d14c09","651c1e1032b59e401c711dde","null","null","<p style=""font-size: 60px; font-family: BACS"">cDOEBRCdc</p>","","","","","","","","",""
"html-keyboard-response","103","1453363","0.0-10.0-0.14","60e12640be1b69b66053d55b","650c16f0f2faf8d7a0d14c09","651c1e1032b59e401c711dde","null","null","<p style=""font-size: 60px; font-family: BACS"">aLNlkQGb</p>","","","","","","","","",""
"html-keyboard-response","104","1454364","0.0-10.0-0.15","60e12640be1b69b66053d55b","650c16f0f2faf8d7a0d14c09","651c1e1032b59e401c711dde","null","null","<p style=""font-size: 60px; font-family: BACS"">AlNUYNu</p>","","","","","","","","",""
"html-keyboard-response","105","1455365","0.0-10.0-0.16","60e12640be1b69b66053d55b","650c16f0f2faf8d7a0d14c09","651c1e1032b59e401c711dde","null","null","<p style=""font-size: 60px; font-family: BACS"">lhCTCKmE</p>","","","","","","","","",""
"html-keyboard-response","106","1456379","0.0-10.0-0.17","60e12640be1b69b66053d55b","650c16f0f2faf8d7a0d14c09","651c1e1032b59e401c711dde","null","null","<p style=""font-size: 60px; font-family: BACS"">rcmuvYNu</p>","","","","","","","","",""
"html-keyboard-response","107","1457379","0.0-10.0-0.18","60e12640be1b69b66053d55b","650c16f0f2faf8d7a0d14c09","651c1e1032b59e401c711dde","null","null","<p style=""font-size: 60px; font-family: BACS"">mBYlKmE</p>","","","","","","","","",""
"html-keyboard-response","108","1458382","0.0-10.0-0.19","60e12640be1b69b66053d55b","650c16f0f2faf8d7a0d14c09","651c1e1032b59e401c711dde","null","null","<p style=""font-size: 60px; font-family: BACS"">lhCTCRCdc</p>","","","","","","","","",""
"html-keyboard-response","109","1459383","0.0-10.0-0.20","60e12640be1b69b66053d55b","650c16f0f2faf8d7a0d14c09","651c1e1032b59e401c711dde","null","null","<p style=""font-size: 60px; font-family: BACS"">rcmuvOJNk</p>","","","","","","","","",""
"html-keyboard-response","110","1460383","0.0-10.0-0.21","60e12640be1b69b66053d55b","650c16f0f2faf8d7a0d14c09","651c1e1032b59e401c711dde","null","null","<p style=""font-size: 60px; font-family: BACS"">TAdhMRCdc</p>","","","","","","","","",""
"html-keyboard-response","111","1461384","0.0-10.0-0.22","60e12640be1b69b66053d55b","650c16f0f2faf8d7a0d14c09","651c1e1032b59e401c711dde","null","null","<p style=""font-size: 60px; font-family: BACS"">JNkaYZUZ</p>","","","","","","","","",""
"html-keyboard-response","112","1462385","0.0-10.0-0.23","60e12640be1b69b66053d55b","650c16f0f2faf8d7a0d14c09","651c1e1032b59e401c711dde","null","null","<p style=""font-size: 60px; font-family: BACS"">KDPAhBK</p>","","","","","","","","",""
"html-keyboard-response","113","1463386","0.0-10.0-0.24","60e12640be1b69b66053d55b","650c16f0f2faf8d7a0d14c09","651c1e1032b59e401c711dde","null","null","<p style=""font-size: 60px; font-family: BACS"">mBYlbdtK</p>","","","","","","","","",""
"html-keyboard-response","114","1464387","0.0-10.0-0.25","60e12640be1b69b66053d55b","650c16f0f2faf8d7a0d14c09","651c1e1032b59e401c711dde","null","null","<p style=""font-size: 60px; font-family: BACS"">NkUAYZUZ</p>","","","","","","","","",""
"html-keyboard-response","115","1465389","0.0-10.0-0.26","60e12640be1b69b66053d55b","650c16f0f2faf8d7a0d14c09","651c1e1032b59e401c711dde","null","null","<p style=""font-size: 60px; font-family: BACS"">ktBdbdtK</p>","","","","","","","","",""
"html-keyboard-response","116","1466390","0.0-10.0-0.27","60e12640be1b69b66053d55b","650c16f0f2faf8d7a0d14c09","651c1e1032b59e401c711dde","null","null","<p style=""font-size: 60px; font-family: BACS"">rcmuvYZUZ</p>","","","","","","","","",""
"html-keyboard-response","117","1467404","0.0-10.0-0.28","60e12640be1b69b66053d55b","650c16f0f2faf8d7a0d14c09","651c1e1032b59e401c711dde","null","null","<p style=""font-size: 60px; font-family: BACS"">cDOEBKmE</p>","","","","","","","","",""
"html-keyboard-response","118","1468407","0.0-10.0-0.29","60e12640be1b69b66053d55b","650c16f0f2faf8d7a0d14c09","651c1e1032b59e401c711dde","null","null","<p style=""font-size: 60px; font-family: BACS"">vmuLlOJNk</p>","","","","","","","","",""
"html-keyboard-response","119","1469408","0.0-10.0-0.30","60e12640be1b69b66053d55b","650c16f0f2faf8d7a0d14c09","651c1e1032b59e401c711dde","null","null","<p style=""font-size: 60px; font-family: BACS"">ldAaYZUZ</p>","","","","","","","","",""
"html-keyboard-response","120","1470409","0.0-10.0-0.31","60e12640be1b69b66053d55b","650c16f0f2faf8d7a0d14c09","651c1e1032b59e401c711dde","null","null","<p style=""font-size: 60px; font-family: BACS"">TdTDhBK</p>","","","","","","","","",""
"html-keyboard-response","121","1471423","0.0-10.0-0.32","60e12640be1b69b66053d55b","650c16f0f2faf8d7a0d14c09","651c1e1032b59e401c711dde","null","null","<p style=""font-size: 60px; font-family: BACS"">GJGcZYNu</p>","","","","","","","","",""
"html-keyboard-response","122","1472426","0.0-10.0-0.33","60e12640be1b69b66053d55b","650c16f0f2faf8d7a0d14c09","651c1e1032b59e401c711dde","null","null","<p style=""font-size: 60px; font-family: BACS"">YObARCdc</p>","","","","","","","","",""
"html-keyboard-response","123","1473427","0.0-10.0-0.34","60e12640be1b69b66053d55b","650c16f0f2faf8d7a0d14c09","651c1e1032b59e401c711dde","null","null","<p style=""font-size: 60px; font-family: BACS"">JNkaOJNk</p>","","","","","","","","",""
"html-keyboard-response","124","1474443","0.0-10.0-0.35","60e12640be1b69b66053d55b","650c16f0f2faf8d7a0d14c09","651c1e1032b59e401c711dde","null","null","<p style=""font-size: 60px; font-family: BACS"">bdUNuGrub</p>","","","","","","","","",""
"html-keyboard-response","125","1475457","0.0-10.0-0.36","60e12640be1b69b66053d55b","650c16f0f2faf8d7a0d14c09","651c1e1032b59e401c711dde","null","null","<p style=""font-size: 60px; font-family: BACS"">GJGcZYZUZ</p>","","","","","","","","",""
"html-keyboard-response","126","1476473","0.0-10.0-0.37","60e12640be1b69b66053d55b","650c16f0f2faf8d7a0d14c09","651c1e1032b59e401c711dde","null","null","<p style=""font-size: 60px; font-family: BACS"">TAdhMhBK</p>","","","","","","","","",""
"html-keyboard-response","127","1477475","0.0-10.0-0.38","60e12640be1b69b66053d55b","650c16f0f2faf8d7a0d14c09","651c1e1032b59e401c711dde","null","null","<p style=""font-size: 60px; font-family: BACS"">ldAaOJNk</p>","","","","","","","","",""
"html-keyboard-response","128","1478476","0.0-10.0-0.39","60e12640be1b69b66053d55b","650c16f0f2faf8d7a0d14c09","651c1e1032b59e401c711dde","null","null","<p style=""font-size: 60px; font-family: BACS"">CRdBdKmE</p>","","","","","","","","",""
"html-keyboard-response","129","1479490","0.0-10.0-0.40","60e12640be1b69b66053d55b","650c16f0f2faf8d7a0d14c09","651c1e1032b59e401c711dde","null","null","<p style=""font-size: 60px; font-family: BACS"">NkUAOJNk</p>","","","","","","","","",""
"html-keyboard-response","130","1480505","0.0-10.0-0.41","60e12640be1b69b66053d55b","650c16f0f2faf8d7a0d14c09","651c1e1032b59e401c711dde","null","null","<p style=""font-size: 60px; font-family: BACS"">ktBdRCdc</p>","","","","","","","","",""
"html-keyboard-response","131","1481520","0.0-10.0-0.42","60e12640be1b69b66053d55b","650c16f0f2faf8d7a0d14c09","651c1e1032b59e401c711dde","null","null","<p style=""font-size: 60px; font-family: BACS"">YObAbdtK</p>","","","","","","","","",""
"html-keyboard-response","132","1482521","0.0-10.0-0.43","60e12640be1b69b66053d55b","650c16f0f2faf8d7a0d14c09","651c1e1032b59e401c711dde","null","null","<p style=""font-size: 60px; font-family: BACS"">NkUAQGb</p>","","","","","","","","",""
"html-keyboard-response","133","1483523","0.0-10.0-0.44","60e12640be1b69b66053d55b","650c16f0f2faf8d7a0d14c09","651c1e1032b59e401c711dde","null","null","<p style=""font-size: 60px; font-family: BACS"">ldAaGrub</p>","","","","","","","","",""
"html-keyboard-response","134","1484524","0.0-10.0-0.45","60e12640be1b69b66053d55b","650c16f0f2faf8d7a0d14c09","651c1e1032b59e401c711dde","null","null","<p style=""font-size: 60px; font-family: BACS"">bdUNuYNu</p>","","","","","","","","",""
"html-keyboard-response","135","1485525","0.0-10.0-0.46","60e12640be1b69b66053d55b","650c16f0f2faf8d7a0d14c09","651c1e1032b59e401c711dde","null","null","<p style=""font-size: 60px; font-family: BACS"">AlNUGrub</p>","","","","","","","","",""
"html-keyboard-response","136","1486526","0.0-10.0-0.47","60e12640be1b69b66053d55b","650c16f0f2faf8d7a0d14c09","651c1e1032b59e401c711dde","null","null","<p style=""font-size: 60px; font-family: BACS"">CRdBdYht</p>","","","","","","","","",""
"html-keyboard-response","137","1487527","0.0-10.0-0.48","60e12640be1b69b66053d55b","650c16f0f2faf8d7a0d14c09","651c1e1032b59e401c711dde","null","null","<p style=""font-size: 60px; font-family: BACS"">ZYcQUYNu</p>","","","","","","","","",""
"html-keyboard-response","138","1488541","0.0-10.0-0.49","60e12640be1b69b66053d55b","650c16f0f2faf8d7a0d14c09","651c1e1032b59e401c711dde","null","null","<p style=""font-size: 60px; font-family: BACS"">rcmuvGrub</p>","","","","","","","","",""
"html-keyboard-response","139","1489557","0.0-10.0-0.50","60e12640be1b69b66053d55b","650c16f0f2faf8d7a0d14c09","651c1e1032b59e401c711dde","null","null","<p style=""font-size: 60px; font-family: BACS"">mBYlhBK</p>","","","","","","","","",""
"html-keyboard-response","140","1490559","0.0-10.0-0.51","60e12640be1b69b66053d55b","650c16f0f2faf8d7a0d14c09","651c1e1032b59e401c711dde","null","null","<p style=""font-size: 60px; font-family: BACS"">TAdhMKmE</p>","","","","","","","","",""
"html-keyboard-response","141","1491561","0.0-10.0-0.52","60e12640be1b69b66053d55b","650c16f0f2faf8d7a0d14c09","651c1e1032b59e401c711dde","null","null","<p style=""font-size: 60px; font-family: BACS"">GJGcZOJNk</p>","","","","","","","","",""
"html-keyboard-response","142","1492564","0.0-10.0-0.53","60e12640be1b69b66053d55b","650c16f0f2faf8d7a0d14c09","651c1e1032b59e401c711dde","null","null","<p style=""font-size: 60px; font-family: BACS"">TdTDYht</p>","","","","","","","","",""
"html-keyboard-response","143","1493565","0.0-10.0-0.54","60e12640be1b69b66053d55b","650c16f0f2faf8d7a0d14c09","651c1e1032b59e401c711dde","null","null","<p style=""font-size: 60px; font-family: BACS"">DBPhcbdtK</p>","","","","","","","","",""
"html-keyboard-response","144","1494566","0.0-10.0-0.55","60e12640be1b69b66053d55b","650c16f0f2faf8d7a0d14c09","651c1e1032b59e401c711dde","null","null","<p style=""font-size: 60px; font-family: BACS"">mBYlYht</p>","","","","","","","","",""
"html-keyboard-response","145","1495582","0.0-10.0-0.56","60e12640be1b69b66053d55b","650c16f0f2faf8d7a0d14c09","651c1e1032b59e401c711dde","null","null","<p style=""font-size: 60px; font-family: BACS"">bdUNuQGb</p>","","","","","","","","",""
"html-keyboard-response","146","1496583","0.0-10.0-0.57","60e12640be1b69b66053d55b","650c16f0f2faf8d7a0d14c09","651c1e1032b59e401c711dde","null","null","<p style=""font-size: 60px; font-family: BACS"">lhCTChBK</p>","","","","","","","","",""
"html-keyboard-response","147","1497585","0.0-10.0-0.58","60e12640be1b69b66053d55b","650c16f0f2faf8d7a0d14c09","651c1e1032b59e401c711dde","null","null","<p style=""font-size: 60px; font-family: BACS"">cDOEBbdtK</p>","","","","","","","","",""
"html-keyboard-response","148","1498586","0.0-10.0-0.59","60e12640be1b69b66053d55b","650c16f0f2faf8d7a0d14c09","651c1e1032b59e401c711dde","null","null","<p style=""font-size: 60px; font-family: BACS"">vmuLlYNu</p>","","","","","","","","",""
"html-keyboard-response","149","1499587","0.0-10.0-0.60","60e12640be1b69b66053d55b","650c16f0f2faf8d7a0d14c09","651c1e1032b59e401c711dde","null","null","<p style=""font-size: 60px; font-family: BACS"">lhCTCbdtK</p>","","","","","","","","",""
"html-keyboard-response","150","1500589","0.0-10.0-0.61","60e12640be1b69b66053d55b","650c16f0f2faf8d7a0d14c09","651c1e1032b59e401c711dde","null","null","<p style=""font-size: 60px; font-family: BACS"">ktBdhBK</p>","","","","","","","","",""
"html-keyboard-response","151","1501604","0.0-10.0-0.62","60e12640be1b69b66053d55b","650c16f0f2faf8d7a0d14c09","651c1e1032b59e401c711dde","null","null","<p style=""font-size: 60px; font-family: BACS"">ldAaQGb</p>","","","","","","","","",""
"html-keyboard-response","152","1502604","0.0-10.0-0.63","60e12640be1b69b66053d55b","650c16f0f2faf8d7a0d14c09","651c1e1032b59e401c711dde","null","null","<p style=""font-size: 60px; font-family: BACS"">NkUAYNu</p>","","","","","","","","",""
"html-keyboard-response","153","1503607","0.0-10.0-0.64","60e12640be1b69b66053d55b","650c16f0f2faf8d7a0d14c09","651c1e1032b59e401c711dde","null","null","<p style=""font-size: 60px; font-family: BACS"">JNkaQGb</p>","","","","","","","","",""
"html-keyboard-response","154","1504608","0.0-10.0-0.65","60e12640be1b69b66053d55b","650c16f0f2faf8d7a0d14c09","651c1e1032b59e401c711dde","null","null","<p style=""font-size: 60px; font-family: BACS"">DBPhcYht</p>","","","","","","","","",""
"html-keyboard-response","155","1505610","0.0-10.0-0.66","60e12640be1b69b66053d55b","650c16f0f2faf8d7a0d14c09","651c1e1032b59e401c711dde","null","null","<p style=""font-size: 60px; font-family: BACS"">ZYcQUYZUZ</p>","","","","","","","","",""
"html-keyboard-response","156","1506612","0.0-10.0-0.67","60e12640be1b69b66053d55b","650c16f0f2faf8d7a0d14c09","651c1e1032b59e401c711dde","null","null","<p style=""font-size: 60px; font-family: BACS"">KDPAYht</p>","","","","","","","","",""
"html-keyboard-response","157","1507613","0.0-10.0-0.68","60e12640be1b69b66053d55b","650c16f0f2faf8d7a0d14c09","651c1e1032b59e401c711dde","null","null","<p style=""font-size: 60px; font-family: BACS"">JNkaGrub</p>","","","","","","","","",""
"html-keyboard-response","158","1508614","0.0-10.0-0.69","60e12640be1b69b66053d55b","650c16f0f2faf8d7a0d14c09","651c1e1032b59e401c711dde","null","null","<p style=""font-size: 60px; font-family: BACS"">aLNlkYNu</p>","","","","","","","","",""
"html-keyboard-response","159","1509629","0.0-10.0-0.70","60e12640be1b69b66053d55b","650c16f0f2faf8d7a0d14c09","651c1e1032b59e401c711dde","null","null","<p style=""font-size: 60px; font-family: BACS"">YObAhBK</p>","","","","","","","","",""
"html-keyboard-response","160","1510632","0.0-10.0-0.71","60e12640be1b69b66053d55b","650c16f0f2faf8d7a0d14c09","651c1e1032b59e401c711dde","null","null","<p style=""font-size: 60px; font-family: BACS"">GJGcZQGb</p>","","","","","","","","",""
"html-keyboard-response","161","1511634","0.0-10.0-0.72","60e12640be1b69b66053d55b","650c16f0f2faf8d7a0d14c09","651c1e1032b59e401c711dde","null","null","<p style=""font-size: 60px; font-family: BACS"">DBPhcKmE</p>","","","","","","","","",""
"html-keyboard-response","162","1512635","0.0-10.0-0.73","60e12640be1b69b66053d55b","650c16f0f2faf8d7a0d14c09","651c1e1032b59e401c711dde","null","null","<p style=""font-size: 60px; font-family: BACS"">ZYcQUQGb</p>","","","","","","","","",""
"html-keyboard-response","163","1513651","0.0-10.0-0.74","60e12640be1b69b66053d55b","650c16f0f2faf8d7a0d14c09","651c1e1032b59e401c711dde","null","null","<p style=""font-size: 60px; font-family: BACS"">YObAYht</p>","","","","","","","","",""
"html-keyboard-response","164","1514652","0.0-10.0-0.75","60e12640be1b69b66053d55b","650c16f0f2faf8d7a0d14c09","651c1e1032b59e401c711dde","null","null","<p style=""font-size: 60px; font-family: BACS"">KDPAbdtK</p>","","","","","","","","",""
"html-keyboard-response","165","1515667","0.0-10.0-0.76","60e12640be1b69b66053d55b","650c16f0f2faf8d7a0d14c09","651c1e1032b59e401c711dde","null","null","<p style=""font-size: 60px; font-family: BACS"">DBPhcRCdc</p>","","","","","","","","",""
"html-keyboard-response","166","1516682","0.0-10.0-0.77","60e12640be1b69b66053d55b","650c16f0f2faf8d7a0d14c09","651c1e1032b59e401c711dde","null","null","<p style=""font-size: 60px; font-family: BACS"">cDOEBYht</p>","","","","","","","","",""
"html-keyboard-response","167","1517697","0.0-10.0-0.78","60e12640be1b69b66053d55b","650c16f0f2faf8d7a0d14c09","651c1e1032b59e401c711dde","null","null","<p style=""font-size: 60px; font-family: BACS"">TAdhMbdtK</p>","","","","","","","","",""
"html-keyboard-response","168","1518699","0.0-10.0-0.79","60e12640be1b69b66053d55b","650c16f0f2faf8d7a0d14c09","651c1e1032b59e401c711dde","null","null","<p style=""font-size: 60px; font-family: BACS"">ktBdYht</p>","","","","","","","","",""
"html-keyboard-response","169","1526377","0.0-11.0","60e12640be1b69b66053d55b","650c16f0f2faf8d7a0d14c09","651c1e1032b59e401c711dde","7677"," ","<p>Great, you've seen the second block of words. You may now take a short break.</p>
      <p>Press the spacebar when you're ready to continue.</p>","","","","","","","","",""
"html-keyboard-response","170","1527386","0.0-12.0-0.0","60e12640be1b69b66053d55b","650c16f0f2faf8d7a0d14c09","651c1e1032b59e401c711dde","null","null","<p style=""font-size: 60px; font-family: BACS"">lhCTCRCdc</p>","","","","","","","","",""
"html-keyboard-response","171","1528402","0.0-12.0-0.1","60e12640be1b69b66053d55b","650c16f0f2faf8d7a0d14c09","651c1e1032b59e401c711dde","null","null","<p style=""font-size: 60px; font-family: BACS"">mBYlbdtK</p>","","","","","","","","",""
"html-keyboard-response","172","1529418","0.0-12.0-0.2","60e12640be1b69b66053d55b","650c16f0f2faf8d7a0d14c09","651c1e1032b59e401c711dde","null","null","<p style=""font-size: 60px; font-family: BACS"">KDPAYht</p>","","","","","","","","",""
"html-keyboard-response","173","1530419","0.0-12.0-0.3","60e12640be1b69b66053d55b","650c16f0f2faf8d7a0d14c09","651c1e1032b59e401c711dde","null","null","<p style=""font-size: 60px; font-family: BACS"">TdTDKmE</p>","","","","","","","","",""
"html-keyboard-response","174","1531421","0.0-12.0-0.4","60e12640be1b69b66053d55b","650c16f0f2faf8d7a0d14c09","651c1e1032b59e401c711dde","null","null","<p style=""font-size: 60px; font-family: BACS"">GJGcZYNu</p>","","","","","","","","",""
"html-keyboard-response","175","1532422","0.0-12.0-0.5","60e12640be1b69b66053d55b","650c16f0f2faf8d7a0d14c09","651c1e1032b59e401c711dde","null","null","<p style=""font-size: 60px; font-family: BACS"">rcmuvGrub</p>","","","","","","","","",""
"html-keyboard-response","176","1533424","0.0-12.0-0.6","60e12640be1b69b66053d55b","650c16f0f2faf8d7a0d14c09","651c1e1032b59e401c711dde","null","null","<p style=""font-size: 60px; font-family: BACS"">TAdhMbdtK</p>","","","","","","","","",""
"html-keyboard-response","177","1534425","0.0-12.0-0.7","60e12640be1b69b66053d55b","650c16f0f2faf8d7a0d14c09","651c1e1032b59e401c711dde","null","null","<p style=""font-size: 60px; font-family: BACS"">aLNlkYNu</p>","","","","","","","","",""
"html-keyboard-response","178","1535440","0.0-12.0-0.8","60e12640be1b69b66053d55b","650c16f0f2faf8d7a0d14c09","651c1e1032b59e401c711dde","null","null","<p style=""font-size: 60px; font-family: BACS"">JNkaQGb</p>","","","","","","","","",""
"html-keyboard-response","179","1536441","0.0-12.0-0.9","60e12640be1b69b66053d55b","650c16f0f2faf8d7a0d14c09","651c1e1032b59e401c711dde","null","null","<p style=""font-size: 60px; font-family: BACS"">lhCTCKmE</p>","","","","","","","","",""
"html-keyboard-response","180","1537456","0.0-12.0-0.10","60e12640be1b69b66053d55b","650c16f0f2faf8d7a0d14c09","651c1e1032b59e401c711dde","null","null","<p style=""font-size: 60px; font-family: BACS"">vmuLlYZUZ</p>","","","","","","","","",""
"html-keyboard-response","181","1538457","0.0-12.0-0.11","60e12640be1b69b66053d55b","650c16f0f2faf8d7a0d14c09","651c1e1032b59e401c711dde","null","null","<p style=""font-size: 60px; font-family: BACS"">cDOEBRCdc</p>","","","","","","","","",""
"html-keyboard-response","182","1539472","0.0-12.0-0.12","60e12640be1b69b66053d55b","650c16f0f2faf8d7a0d14c09","651c1e1032b59e401c711dde","null","null","<p style=""font-size: 60px; font-family: BACS"">bdUNuGrub</p>","","","","","","","","",""
"html-keyboard-response","183","1540487","0.0-12.0-0.13","60e12640be1b69b66053d55b","650c16f0f2faf8d7a0d14c09","651c1e1032b59e401c711dde","null","null","<p style=""font-size: 60px; font-family: BACS"">ldAaOJNk</p>","","","","","","","","",""
"html-keyboard-response","184","1541501","0.0-12.0-0.14","60e12640be1b69b66053d55b","650c16f0f2faf8d7a0d14c09","651c1e1032b59e401c711dde","null","null","<p style=""font-size: 60px; font-family: BACS"">KDPAKmE</p>","","","","","","","","",""
"html-keyboard-response","185","1542517","0.0-12.0-0.15","60e12640be1b69b66053d55b","650c16f0f2faf8d7a0d14c09","651c1e1032b59e401c711dde","null","null","<p style=""font-size: 60px; font-family: BACS"">AlNUQGb</p>","","","","","","","","",""
"html-keyboard-response","186","1543518","0.0-12.0-0.16","60e12640be1b69b66053d55b","650c16f0f2faf8d7a0d14c09","651c1e1032b59e401c711dde","null","null","<p style=""font-size: 60px; font-family: BACS"">CRdBdYht</p>","","","","","","","","",""
"html-keyboard-response","187","1544533","0.0-12.0-0.17","60e12640be1b69b66053d55b","650c16f0f2faf8d7a0d14c09","651c1e1032b59e401c711dde","null","null","<p style=""font-size: 60px; font-family: BACS"">ZYcQUQGb</p>","","","","","","","","",""
"html-keyboard-response","188","1545548","0.0-12.0-0.18","60e12640be1b69b66053d55b","650c16f0f2faf8d7a0d14c09","651c1e1032b59e401c711dde","null","null","<p style=""font-size: 60px; font-family: BACS"">ldAaYZUZ</p>","","","","","","","","",""
"html-keyboard-response","189","1546550","0.0-12.0-0.19","60e12640be1b69b66053d55b","650c16f0f2faf8d7a0d14c09","651c1e1032b59e401c711dde","null","null","<p style=""font-size: 60px; font-family: BACS"">JNkaGrub</p>","","","","","","","","",""
"html-keyboard-response","190","1547564","0.0-12.0-0.20","60e12640be1b69b66053d55b","650c16f0f2faf8d7a0d14c09","651c1e1032b59e401c711dde","null","null","<p style=""font-size: 60px; font-family: BACS"">YObAYht</p>","","","","","","","","",""
"html-keyboard-response","191","1548579","0.0-12.0-0.21","60e12640be1b69b66053d55b","650c16f0f2faf8d7a0d14c09","651c1e1032b59e401c711dde","null","null","<p style=""font-size: 60px; font-family: BACS"">CRdBdKmE</p>","","","","","","","","",""
"html-keyboard-response","192","1549594","0.0-12.0-0.22","60e12640be1b69b66053d55b","650c16f0f2faf8d7a0d14c09","651c1e1032b59e401c711dde","null","null","<p style=""font-size: 60px; font-family: BACS"">bdUNuQGb</p>","","","","","","","","",""
"html-keyboard-response","193","1550596","0.0-12.0-0.23","60e12640be1b69b66053d55b","650c16f0f2faf8d7a0d14c09","651c1e1032b59e401c711dde","null","null","<p style=""font-size: 60px; font-family: BACS"">KDPAbdtK</p>","","","","","","","","",""
"html-keyboard-response","194","1551597","0.0-12.0-0.24","60e12640be1b69b66053d55b","650c16f0f2faf8d7a0d14c09","651c1e1032b59e401c711dde","null","null","<p style=""font-size: 60px; font-family: BACS"">TdTDRCdc</p>","","","","","","","","",""
"html-keyboard-response","195","1552612","0.0-12.0-0.25","60e12640be1b69b66053d55b","650c16f0f2faf8d7a0d14c09","651c1e1032b59e401c711dde","null","null","<p style=""font-size: 60px; font-family: BACS"">DBPhcbdtK</p>","","","","","","","","",""
"html-keyboard-response","196","1553614","0.0-12.0-0.26","60e12640be1b69b66053d55b","650c16f0f2faf8d7a0d14c09","651c1e1032b59e401c711dde","null","null","<p style=""font-size: 60px; font-family: BACS"">GJGcZYZUZ</p>","","","","","","","","",""
"html-keyboard-response","197","1554617","0.0-12.0-0.27","60e12640be1b69b66053d55b","650c16f0f2faf8d7a0d14c09","651c1e1032b59e401c711dde","null","null","<p style=""font-size: 60px; font-family: BACS"">YObAhBK</p>","","","","","","","","",""
"html-keyboard-response","198","1555618","0.0-12.0-0.28","60e12640be1b69b66053d55b","650c16f0f2faf8d7a0d14c09","651c1e1032b59e401c711dde","null","null","<p style=""font-size: 60px; font-family: BACS"">vmuLlOJNk</p>","","","","","","","","",""
"html-keyboard-response","199","1556634","0.0-12.0-0.29","60e12640be1b69b66053d55b","650c16f0f2faf8d7a0d14c09","651c1e1032b59e401c711dde","null","null","<p style=""font-size: 60px; font-family: BACS"">TAdhMhBK</p>","","","","","","","","",""
"html-keyboard-response","200","1557636","0.0-12.0-0.30","60e12640be1b69b66053d55b","650c16f0f2faf8d7a0d14c09","651c1e1032b59e401c711dde","null","null","<p style=""font-size: 60px; font-family: BACS"">mBYlYht</p>","","","","","","","","",""
"html-keyboard-response","201","1558652","0.0-12.0-0.31","60e12640be1b69b66053d55b","650c16f0f2faf8d7a0d14c09","651c1e1032b59e401c711dde","null","null","<p style=""font-size: 60px; font-family: BACS"">lhCTCbdtK</p>","","","","","","","","",""
"html-keyboard-response","202","1559668","0.0-12.0-0.32","60e12640be1b69b66053d55b","650c16f0f2faf8d7a0d14c09","651c1e1032b59e401c711dde","null","null","<p style=""font-size: 60px; font-family: BACS"">AlNUGrub</p>","","","","","","","","",""
"html-keyboard-response","203","1560669","0.0-12.0-0.33","60e12640be1b69b66053d55b","650c16f0f2faf8d7a0d14c09","651c1e1032b59e401c711dde","null","null","<p style=""font-size: 60px; font-family: BACS"">YObAbdtK</p>","","","","","","","","",""
"html-keyboard-response","204","1561670","0.0-12.0-0.34","60e12640be1b69b66053d55b","650c16f0f2faf8d7a0d14c09","651c1e1032b59e401c711dde","null","null","<p style=""font-size: 60px; font-family: BACS"">GJGcZQGb</p>","","","","","","","","",""
"html-keyboard-response","205","1562670","0.0-12.0-0.35","60e12640be1b69b66053d55b","650c16f0f2faf8d7a0d14c09","651c1e1032b59e401c711dde","null","null","<p style=""font-size: 60px; font-family: BACS"">ktBdRCdc</p>","","","","","","","","",""
"html-keyboard-response","206","1563672","0.0-12.0-0.36","60e12640be1b69b66053d55b","650c16f0f2faf8d7a0d14c09","651c1e1032b59e401c711dde","null","null","<p style=""font-size: 60px; font-family: BACS"">NkUAYZUZ</p>","","","","","","","","",""
"html-keyboard-response","207","1564674","0.0-12.0-0.37","60e12640be1b69b66053d55b","650c16f0f2faf8d7a0d14c09","651c1e1032b59e401c711dde","null","null","<p style=""font-size: 60px; font-family: BACS"">cDOEBbdtK</p>","","","","","","","","",""
"html-keyboard-response","208","1565675","0.0-12.0-0.38","60e12640be1b69b66053d55b","650c16f0f2faf8d7a0d14c09","651c1e1032b59e401c711dde","null","null","<p style=""font-size: 60px; font-family: BACS"">bdUNuYNu</p>","","","","","","","","",""
"html-keyboard-response","209","1566677","0.0-12.0-0.39","60e12640be1b69b66053d55b","650c16f0f2faf8d7a0d14c09","651c1e1032b59e401c711dde","null","null","<p style=""font-size: 60px; font-family: BACS"">mBYlKmE</p>","","","","","","","","",""
"html-keyboard-response","210","1567678","0.0-12.0-0.40","60e12640be1b69b66053d55b","650c16f0f2faf8d7a0d14c09","651c1e1032b59e401c711dde","null","null","<p style=""font-size: 60px; font-family: BACS"">JNkaOJNk</p>","","","","","","","","",""
"html-keyboard-response","211","1568678","0.0-12.0-0.41","60e12640be1b69b66053d55b","650c16f0f2faf8d7a0d14c09","651c1e1032b59e401c711dde","null","null","<p style=""font-size: 60px; font-family: BACS"">lhCTChBK</p>","","","","","","","","",""
"html-keyboard-response","212","1569681","0.0-12.0-0.42","60e12640be1b69b66053d55b","650c16f0f2faf8d7a0d14c09","651c1e1032b59e401c711dde","null","null","<p style=""font-size: 60px; font-family: BACS"">CRdBdRCdc</p>","","","","","","","","",""
"html-keyboard-response","213","1570695","0.0-12.0-0.43","60e12640be1b69b66053d55b","650c16f0f2faf8d7a0d14c09","651c1e1032b59e401c711dde","null","null","<p style=""font-size: 60px; font-family: BACS"">KDPAhBK</p>","","","","","","","","",""
"html-keyboard-response","214","1571697","0.0-12.0-0.44","60e12640be1b69b66053d55b","650c16f0f2faf8d7a0d14c09","651c1e1032b59e401c711dde","null","null","<p style=""font-size: 60px; font-family: BACS"">DBPhcKmE</p>","","","","","","","","",""
"html-keyboard-response","215","1572712","0.0-12.0-0.45","60e12640be1b69b66053d55b","650c16f0f2faf8d7a0d14c09","651c1e1032b59e401c711dde","null","null","<p style=""font-size: 60px; font-family: BACS"">mBYlhBK</p>","","","","","","","","",""
"html-keyboard-response","216","1573713","0.0-12.0-0.46","60e12640be1b69b66053d55b","650c16f0f2faf8d7a0d14c09","651c1e1032b59e401c711dde","null","null","<p style=""font-size: 60px; font-family: BACS"">TdTDYht</p>","","","","","","","","",""
"html-keyboard-response","217","1574729","0.0-12.0-0.47","60e12640be1b69b66053d55b","650c16f0f2faf8d7a0d14c09","651c1e1032b59e401c711dde","null","null","<p style=""font-size: 60px; font-family: BACS"">ZYcQUGrub</p>","","","","","","","","",""
"html-keyboard-response","218","1575730","0.0-12.0-0.48","60e12640be1b69b66053d55b","650c16f0f2faf8d7a0d14c09","651c1e1032b59e401c711dde","null","null","<p style=""font-size: 60px; font-family: BACS"">TdTDhBK</p>","","","","","","","","",""
"html-keyboard-response","219","1576746","0.0-12.0-0.49","60e12640be1b69b66053d55b","650c16f0f2faf8d7a0d14c09","651c1e1032b59e401c711dde","null","null","<p style=""font-size: 60px; font-family: BACS"">AlNUYNu</p>","","","","","","","","",""
"html-keyboard-response","220","1577747","0.0-12.0-0.50","60e12640be1b69b66053d55b","650c16f0f2faf8d7a0d14c09","651c1e1032b59e401c711dde","null","null","<p style=""font-size: 60px; font-family: BACS"">TAdhMKmE</p>","","","","","","","","",""
"html-keyboard-response","221","1578749","0.0-12.0-0.51","60e12640be1b69b66053d55b","650c16f0f2faf8d7a0d14c09","651c1e1032b59e401c711dde","null","null","<p style=""font-size: 60px; font-family: BACS"">aLNlkQGb</p>","","","","","","","","",""
"html-keyboard-response","222","1579765","0.0-12.0-0.52","60e12640be1b69b66053d55b","650c16f0f2faf8d7a0d14c09","651c1e1032b59e401c711dde","null","null","<p style=""font-size: 60px; font-family: BACS"">YObARCdc</p>","","","","","","","","",""
"html-keyboard-response","223","1580780","0.0-12.0-0.53","60e12640be1b69b66053d55b","650c16f0f2faf8d7a0d14c09","651c1e1032b59e401c711dde","null","null","<p style=""font-size: 60px; font-family: BACS"">vmuLlYNu</p>","","","","","","","","",""
"html-keyboard-response","224","1581795","0.0-12.0-0.54","60e12640be1b69b66053d55b","650c16f0f2faf8d7a0d14c09","651c1e1032b59e401c711dde","null","null","<p style=""font-size: 60px; font-family: BACS"">DBPhcYht</p>","","","","","","","","",""
"html-keyboard-response","225","1582810","0.0-12.0-0.55","60e12640be1b69b66053d55b","650c16f0f2faf8d7a0d14c09","651c1e1032b59e401c711dde","null","null","<p style=""font-size: 60px; font-family: BACS"">GJGcZOJNk</p>","","","","","","","","",""
"html-keyboard-response","226","1583812","0.0-12.0-0.56","60e12640be1b69b66053d55b","650c16f0f2faf8d7a0d14c09","651c1e1032b59e401c711dde","null","null","<p style=""font-size: 60px; font-family: BACS"">ktBdhBK</p>","","","","","","","","",""
"html-keyboard-response","227","1584827","0.0-12.0-0.57","60e12640be1b69b66053d55b","650c16f0f2faf8d7a0d14c09","651c1e1032b59e401c711dde","null","null","<p style=""font-size: 60px; font-family: BACS"">NkUAQGb</p>","","","","","","","","",""
"html-keyboard-response","228","1585828","0.0-12.0-0.58","60e12640be1b69b66053d55b","650c16f0f2faf8d7a0d14c09","651c1e1032b59e401c711dde","null","null","<p style=""font-size: 60px; font-family: BACS"">ldAaGrub</p>","","","","","","","","",""
"html-keyboard-response","229","1586842","0.0-12.0-0.59","60e12640be1b69b66053d55b","650c16f0f2faf8d7a0d14c09","651c1e1032b59e401c711dde","null","null","<p style=""font-size: 60px; font-family: BACS"">JNkaYZUZ</p>","","","","","","","","",""
"html-keyboard-response","230","1587844","0.0-12.0-0.60","60e12640be1b69b66053d55b","650c16f0f2faf8d7a0d14c09","651c1e1032b59e401c711dde","null","null","<p style=""font-size: 60px; font-family: BACS"">vmuLlGrub</p>","","","","","","","","",""
"html-keyboard-response","231","1588846","0.0-12.0-0.61","60e12640be1b69b66053d55b","650c16f0f2faf8d7a0d14c09","651c1e1032b59e401c711dde","null","null","<p style=""font-size: 60px; font-family: BACS"">rcmuvYNu</p>","","","","","","","","",""
"html-keyboard-response","232","1589861","0.0-12.0-0.62","60e12640be1b69b66053d55b","650c16f0f2faf8d7a0d14c09","651c1e1032b59e401c711dde","null","null","<p style=""font-size: 60px; font-family: BACS"">ktBdYht</p>","","","","","","","","",""
"html-keyboard-response","233","1590862","0.0-12.0-0.63","60e12640be1b69b66053d55b","650c16f0f2faf8d7a0d14c09","651c1e1032b59e401c711dde","null","null","<p style=""font-size: 60px; font-family: BACS"">AlNUOJNk</p>","","","","","","","","",""
"html-keyboard-response","234","1591878","0.0-12.0-0.64","60e12640be1b69b66053d55b","650c16f0f2faf8d7a0d14c09","651c1e1032b59e401c711dde","null","null","<p style=""font-size: 60px; font-family: BACS"">rcmuvYZUZ</p>","","","","","","","","",""
"html-keyboard-response","235","1592880","0.0-12.0-0.65","60e12640be1b69b66053d55b","650c16f0f2faf8d7a0d14c09","651c1e1032b59e401c711dde","null","null","<p style=""font-size: 60px; font-family: BACS"">DBPhcRCdc</p>","","","","","","","","",""
"html-keyboard-response","236","1593895","0.0-12.0-0.66","60e12640be1b69b66053d55b","650c16f0f2faf8d7a0d14c09","651c1e1032b59e401c711dde","null","null","<p style=""font-size: 60px; font-family: BACS"">aLNlkOJNk</p>","","","","","","","","",""
"html-keyboard-response","237","1594897","0.0-12.0-0.67","60e12640be1b69b66053d55b","650c16f0f2faf8d7a0d14c09","651c1e1032b59e401c711dde","null","null","<p style=""font-size: 60px; font-family: BACS"">NkUAYNu</p>","","","","","","","","",""
"html-keyboard-response","238","1595898","0.0-12.0-0.68","60e12640be1b69b66053d55b","650c16f0f2faf8d7a0d14c09","651c1e1032b59e401c711dde","null","null","<p style=""font-size: 60px; font-family: BACS"">CRdBdhBK</p>","","","","","","","","",""
"html-keyboard-response","239","1596913","0.0-12.0-0.69","60e12640be1b69b66053d55b","650c16f0f2faf8d7a0d14c09","651c1e1032b59e401c711dde","null","null","<p style=""font-size: 60px; font-family: BACS"">bdUNuYZUZ</p>","","","","","","","","",""
"html-keyboard-response","240","1597929","0.0-12.0-0.70","60e12640be1b69b66053d55b","650c16f0f2faf8d7a0d14c09","651c1e1032b59e401c711dde","null","null","<p style=""font-size: 60px; font-family: BACS"">ldAaQGb</p>","","","","","","","","",""
"html-keyboard-response","241","1598931","0.0-12.0-0.71","60e12640be1b69b66053d55b","650c16f0f2faf8d7a0d14c09","651c1e1032b59e401c711dde","null","null","<p style=""font-size: 60px; font-family: BACS"">ktBdbdtK</p>","","","","","","","","",""
"html-keyboard-response","242","1599932","0.0-12.0-0.72","60e12640be1b69b66053d55b","650c16f0f2faf8d7a0d14c09","651c1e1032b59e401c711dde","null","null","<p style=""font-size: 60px; font-family: BACS"">cDOEBKmE</p>","","","","","","","","",""
"html-keyboard-response","243","1600947","0.0-12.0-0.73","60e12640be1b69b66053d55b","650c16f0f2faf8d7a0d14c09","651c1e1032b59e401c711dde","null","null","<p style=""font-size: 60px; font-family: BACS"">ZYcQUYNu</p>","","","","","","","","",""
"html-keyboard-response","244","1601963","0.0-12.0-0.74","60e12640be1b69b66053d55b","650c16f0f2faf8d7a0d14c09","651c1e1032b59e401c711dde","null","null","<p style=""font-size: 60px; font-family: BACS"">TAdhMRCdc</p>","","","","","","","","",""
"html-keyboard-response","245","1602965","0.0-12.0-0.75","60e12640be1b69b66053d55b","650c16f0f2faf8d7a0d14c09","651c1e1032b59e401c711dde","null","null","<p style=""font-size: 60px; font-family: BACS"">ZYcQUYZUZ</p>","","","","","","","","",""
"html-keyboard-response","246","1603981","0.0-12.0-0.76","60e12640be1b69b66053d55b","650c16f0f2faf8d7a0d14c09","651c1e1032b59e401c711dde","null","null","<p style=""font-size: 60px; font-family: BACS"">cDOEBYht</p>","","","","","","","","",""
"html-keyboard-response","247","1604982","0.0-12.0-0.77","60e12640be1b69b66053d55b","650c16f0f2faf8d7a0d14c09","651c1e1032b59e401c711dde","null","null","<p style=""font-size: 60px; font-family: BACS"">rcmuvOJNk</p>","","","","","","","","",""
"html-keyboard-response","248","1605983","0.0-12.0-0.78","60e12640be1b69b66053d55b","650c16f0f2faf8d7a0d14c09","651c1e1032b59e401c711dde","null","null","<p style=""font-size: 60px; font-family: BACS"">aLNlkGrub</p>","","","","","","","","",""
"html-keyboard-response","249","1606984","0.0-12.0-0.79","60e12640be1b69b66053d55b","650c16f0f2faf8d7a0d14c09","651c1e1032b59e401c711dde","null","null","<p style=""font-size: 60px; font-family: BACS"">NkUAOJNk</p>","","","","","","","","",""
"html-keyboard-response","250","1639348","0.0-13.0","60e12640be1b69b66053d55b","650c16f0f2faf8d7a0d14c09","651c1e1032b59e401c711dde","32364"," ","<p>Great, you've seen the third block of words. You may now take a short break.</p>
      <p>Press the spacebar when you're ready to continue.</p>","","","","","","","","",""
"html-keyboard-response","251","1640349","0.0-14.0-0.0","60e12640be1b69b66053d55b","650c16f0f2faf8d7a0d14c09","651c1e1032b59e401c711dde","null","null","<p style=""font-size: 60px; font-family: BACS"">ZYcQUYZUZ</p>","","","","","","","","",""
"html-keyboard-response","252","1641362","0.0-14.0-0.1","60e12640be1b69b66053d55b","650c16f0f2faf8d7a0d14c09","651c1e1032b59e401c711dde","null","null","<p style=""font-size: 60px; font-family: BACS"">mBYlKmE</p>","","","","","","","","",""
"html-keyboard-response","253","1642365","0.0-14.0-0.2","60e12640be1b69b66053d55b","650c16f0f2faf8d7a0d14c09","651c1e1032b59e401c711dde","null","null","<p style=""font-size: 60px; font-family: BACS"">AlNUGrub</p>","","","","","","","","",""
"html-keyboard-response","254","1643366","0.0-14.0-0.3","60e12640be1b69b66053d55b","650c16f0f2faf8d7a0d14c09","651c1e1032b59e401c711dde","null","null","<p style=""font-size: 60px; font-family: BACS"">TdTDhBK</p>","","","","","","","","",""
"html-keyboard-response","255","1644367","0.0-14.0-0.4","60e12640be1b69b66053d55b","650c16f0f2faf8d7a0d14c09","651c1e1032b59e401c711dde","null","null","<p style=""font-size: 60px; font-family: BACS"">TAdhMRCdc</p>","","","","","","","","",""
"html-keyboard-response","256","1645367","0.0-14.0-0.5","60e12640be1b69b66053d55b","650c16f0f2faf8d7a0d14c09","651c1e1032b59e401c711dde","null","null","<p style=""font-size: 60px; font-family: BACS"">DBPhcbdtK</p>","","","","","","","","",""
"html-keyboard-response","257","1646370","0.0-14.0-0.6","60e12640be1b69b66053d55b","650c16f0f2faf8d7a0d14c09","651c1e1032b59e401c711dde","null","null","<p style=""font-size: 60px; font-family: BACS"">AlNUOJNk</p>","","","","","","","","",""
"html-keyboard-response","258","1647370","0.0-14.0-0.7","60e12640be1b69b66053d55b","650c16f0f2faf8d7a0d14c09","651c1e1032b59e401c711dde","null","null","<p style=""font-size: 60px; font-family: BACS"">aLNlkGrub</p>","","","","","","","","",""
"html-keyboard-response","259","1648371","0.0-14.0-0.8","60e12640be1b69b66053d55b","650c16f0f2faf8d7a0d14c09","651c1e1032b59e401c711dde","null","null","<p style=""font-size: 60px; font-family: BACS"">vmuLlYZUZ</p>","","","","","","","","",""
"html-keyboard-response","260","1649386","0.0-14.0-0.9","60e12640be1b69b66053d55b","650c16f0f2faf8d7a0d14c09","651c1e1032b59e401c711dde","null","null","<p style=""font-size: 60px; font-family: BACS"">ZYcQUQGb</p>","","","","","","","","",""
"html-keyboard-response","261","1650402","0.0-14.0-0.10","60e12640be1b69b66053d55b","650c16f0f2faf8d7a0d14c09","651c1e1032b59e401c711dde","null","null","<p style=""font-size: 60px; font-family: BACS"">lhCTCbdtK</p>","","","","","","","","",""
"html-keyboard-response","262","1651403","0.0-14.0-0.11","60e12640be1b69b66053d55b","650c16f0f2faf8d7a0d14c09","651c1e1032b59e401c711dde","null","null","<p style=""font-size: 60px; font-family: BACS"">bdUNuGrub</p>","","","","","","","","",""
"html-keyboard-response","263","1652418","0.0-14.0-0.12","60e12640be1b69b66053d55b","650c16f0f2faf8d7a0d14c09","651c1e1032b59e401c711dde","null","null","<p style=""font-size: 60px; font-family: BACS"">ldAaQGb</p>","","","","","","","","",""
"html-keyboard-response","264","1653420","0.0-14.0-0.13","60e12640be1b69b66053d55b","650c16f0f2faf8d7a0d14c09","651c1e1032b59e401c711dde","null","null","<p style=""font-size: 60px; font-family: BACS"">rcmuvGrub</p>","","","","","","","","",""
"html-keyboard-response","265","1655251","0.0-14.0-0.14","60e12640be1b69b66053d55b","650c16f0f2faf8d7a0d14c09","651c1e1032b59e401c711dde","null","null","<p style=""font-size: 60px; font-family: BACS"">DBPhcRCdc</p>","","","","","","","","",""
"html-keyboard-response","266","1656266","0.0-14.0-0.15","60e12640be1b69b66053d55b","650c16f0f2faf8d7a0d14c09","651c1e1032b59e401c711dde","null","null","<p style=""font-size: 60px; font-family: BACS"">AlNUYNu</p>","","","","","","","","",""
"html-keyboard-response","267","1657281","0.0-14.0-0.16","60e12640be1b69b66053d55b","650c16f0f2faf8d7a0d14c09","651c1e1032b59e401c711dde","null","null","<p style=""font-size: 60px; font-family: BACS"">vmuLlGrub</p>","","","","","","","","",""
"html-keyboard-response","268","1658296","0.0-14.0-0.17","60e12640be1b69b66053d55b","650c16f0f2faf8d7a0d14c09","651c1e1032b59e401c711dde","null","null","<p style=""font-size: 60px; font-family: BACS"">aLNlkQGb</p>","","","","","","","","",""
"html-keyboard-response","269","1659297","0.0-14.0-0.18","60e12640be1b69b66053d55b","650c16f0f2faf8d7a0d14c09","651c1e1032b59e401c711dde","null","null","<p style=""font-size: 60px; font-family: BACS"">mBYlhBK</p>","","","","","","","","",""
"html-keyboard-response","270","1660313","0.0-14.0-0.19","60e12640be1b69b66053d55b","650c16f0f2faf8d7a0d14c09","651c1e1032b59e401c711dde","null","null","<p style=""font-size: 60px; font-family: BACS"">ktBdRCdc</p>","","","","","","","","",""
"html-keyboard-response","271","1661328","0.0-14.0-0.20","60e12640be1b69b66053d55b","650c16f0f2faf8d7a0d14c09","651c1e1032b59e401c711dde","null","null","<p style=""font-size: 60px; font-family: BACS"">ZYcQUGrub</p>","","","","","","","","",""
"html-keyboard-response","272","1662341","0.0-14.0-0.21","60e12640be1b69b66053d55b","650c16f0f2faf8d7a0d14c09","651c1e1032b59e401c711dde","null","null","<p style=""font-size: 60px; font-family: BACS"">NkUAQGb</p>","","","","","","","","",""
"html-keyboard-response","273","1663343","0.0-14.0-0.22","60e12640be1b69b66053d55b","650c16f0f2faf8d7a0d14c09","651c1e1032b59e401c711dde","null","null","<p style=""font-size: 60px; font-family: BACS"">YObAhBK</p>","","","","","","","","",""
"html-keyboard-response","274","1664359","0.0-14.0-0.23","60e12640be1b69b66053d55b","650c16f0f2faf8d7a0d14c09","651c1e1032b59e401c711dde","null","null","<p style=""font-size: 60px; font-family: BACS"">cDOEBKmE</p>","","","","","","","","",""
"html-keyboard-response","275","1665360","0.0-14.0-0.24","60e12640be1b69b66053d55b","650c16f0f2faf8d7a0d14c09","651c1e1032b59e401c711dde","null","null","<p style=""font-size: 60px; font-family: BACS"">GJGcZYNu</p>","","","","","","","","",""
"html-keyboard-response","276","1666362","0.0-14.0-0.25","60e12640be1b69b66053d55b","650c16f0f2faf8d7a0d14c09","651c1e1032b59e401c711dde","null","null","<p style=""font-size: 60px; font-family: BACS"">AlNUQGb</p>","","","","","","","","",""
"html-keyboard-response","277","1667363","0.0-14.0-0.26","60e12640be1b69b66053d55b","650c16f0f2faf8d7a0d14c09","651c1e1032b59e401c711dde","null","null","<p style=""font-size: 60px; font-family: BACS"">NkUAOJNk</p>","","","","","","","","",""
"html-keyboard-response","278","1668364","0.0-14.0-0.27","60e12640be1b69b66053d55b","650c16f0f2faf8d7a0d14c09","651c1e1032b59e401c711dde","null","null","<p style=""font-size: 60px; font-family: BACS"">CRdBdYht</p>","","","","","","","","",""
"html-keyboard-response","279","1669365","0.0-14.0-0.28","60e12640be1b69b66053d55b","650c16f0f2faf8d7a0d14c09","651c1e1032b59e401c711dde","null","null","<p style=""font-size: 60px; font-family: BACS"">bdUNuYNu</p>","","","","","","","","",""
"html-keyboard-response","280","1670366","0.0-14.0-0.29","60e12640be1b69b66053d55b","650c16f0f2faf8d7a0d14c09","651c1e1032b59e401c711dde","null","null","<p style=""font-size: 60px; font-family: BACS"">aLNlkOJNk</p>","","","","","","","","",""
"html-keyboard-response","281","1671368","0.0-14.0-0.30","60e12640be1b69b66053d55b","650c16f0f2faf8d7a0d14c09","651c1e1032b59e401c711dde","null","null","<p style=""font-size: 60px; font-family: BACS"">CRdBdKmE</p>","","","","","","","","",""
"html-keyboard-response","282","1672384","0.0-14.0-0.31","60e12640be1b69b66053d55b","650c16f0f2faf8d7a0d14c09","651c1e1032b59e401c711dde","null","null","<p style=""font-size: 60px; font-family: BACS"">JNkaGrub</p>","","","","","","","","",""
"html-keyboard-response","283","1673399","0.0-14.0-0.32","60e12640be1b69b66053d55b","650c16f0f2faf8d7a0d14c09","651c1e1032b59e401c711dde","null","null","<p style=""font-size: 60px; font-family: BACS"">GJGcZQGb</p>","","","","","","","","",""
"html-keyboard-response","284","1674415","0.0-14.0-0.33","60e12640be1b69b66053d55b","650c16f0f2faf8d7a0d14c09","651c1e1032b59e401c711dde","null","null","<p style=""font-size: 60px; font-family: BACS"">ktBdYht</p>","","","","","","","","",""
"html-keyboard-response","285","1675430","0.0-14.0-0.34","60e12640be1b69b66053d55b","650c16f0f2faf8d7a0d14c09","651c1e1032b59e401c711dde","null","null","<p style=""font-size: 60px; font-family: BACS"">TAdhMbdtK</p>","","","","","","","","",""
"html-keyboard-response","286","1676445","0.0-14.0-0.35","60e12640be1b69b66053d55b","650c16f0f2faf8d7a0d14c09","651c1e1032b59e401c711dde","null","null","<p style=""font-size: 60px; font-family: BACS"">NkUAYNu</p>","","","","","","","","",""
"html-keyboard-response","287","1677446","0.0-14.0-0.36","60e12640be1b69b66053d55b","650c16f0f2faf8d7a0d14c09","651c1e1032b59e401c711dde","null","null","<p style=""font-size: 60px; font-family: BACS"">TAdhMKmE</p>","","","","","","","","",""
"html-keyboard-response","288","1678448","0.0-14.0-0.37","60e12640be1b69b66053d55b","650c16f0f2faf8d7a0d14c09","651c1e1032b59e401c711dde","null","null","<p style=""font-size: 60px; font-family: BACS"">bdUNuYZUZ</p>","","","","","","","","",""
"html-keyboard-response","289","1679449","0.0-14.0-0.38","60e12640be1b69b66053d55b","650c16f0f2faf8d7a0d14c09","651c1e1032b59e401c711dde","null","null","<p style=""font-size: 60px; font-family: BACS"">vmuLlOJNk</p>","","","","","","","","",""
"html-keyboard-response","290","1680465","0.0-14.0-0.39","60e12640be1b69b66053d55b","650c16f0f2faf8d7a0d14c09","651c1e1032b59e401c711dde","null","null","<p style=""font-size: 60px; font-family: BACS"">aLNlkYNu</p>","","","","","","","","",""
"html-keyboard-response","291","1681467","0.0-14.0-0.40","60e12640be1b69b66053d55b","650c16f0f2faf8d7a0d14c09","651c1e1032b59e401c711dde","null","null","<p style=""font-size: 60px; font-family: BACS"">ldAaYZUZ</p>","","","","","","","","",""
"html-keyboard-response","292","1682482","0.0-14.0-0.41","60e12640be1b69b66053d55b","650c16f0f2faf8d7a0d14c09","651c1e1032b59e401c711dde","null","null","<p style=""font-size: 60px; font-family: BACS"">rcmuvYNu</p>","","","","","","","","",""
"html-keyboard-response","293","1683483","0.0-14.0-0.42","60e12640be1b69b66053d55b","650c16f0f2faf8d7a0d14c09","651c1e1032b59e401c711dde","null","null","<p style=""font-size: 60px; font-family: BACS"">cDOEBRCdc</p>","","","","","","","","",""
"html-keyboard-response","294","1684498","0.0-14.0-0.43","60e12640be1b69b66053d55b","650c16f0f2faf8d7a0d14c09","651c1e1032b59e401c711dde","null","null","<p style=""font-size: 60px; font-family: BACS"">ldAaOJNk</p>","","","","","","","","",""
"html-keyboard-response","295","1685499","0.0-14.0-0.44","60e12640be1b69b66053d55b","650c16f0f2faf8d7a0d14c09","651c1e1032b59e401c711dde","null","null","<p style=""font-size: 60px; font-family: BACS"">YObAbdtK</p>","","","","","","","","",""
"html-keyboard-response","296","1686515","0.0-14.0-0.45","60e12640be1b69b66053d55b","650c16f0f2faf8d7a0d14c09","651c1e1032b59e401c711dde","null","null","<p style=""font-size: 60px; font-family: BACS"">rcmuvOJNk</p>","","","","","","","","",""
"html-keyboard-response","297","1687517","0.0-14.0-0.46","60e12640be1b69b66053d55b","650c16f0f2faf8d7a0d14c09","651c1e1032b59e401c711dde","null","null","<p style=""font-size: 60px; font-family: BACS"">cDOEBbdtK</p>","","","","","","","","",""
"html-keyboard-response","298","1688518","0.0-14.0-0.47","60e12640be1b69b66053d55b","650c16f0f2faf8d7a0d14c09","651c1e1032b59e401c711dde","null","null","<p style=""font-size: 60px; font-family: BACS"">ktBdhBK</p>","","","","","","","","",""
"html-keyboard-response","299","1689533","0.0-14.0-0.48","60e12640be1b69b66053d55b","650c16f0f2faf8d7a0d14c09","651c1e1032b59e401c711dde","null","null","<p style=""font-size: 60px; font-family: BACS"">GJGcZOJNk</p>","","","","","","","","",""
"html-keyboard-response","300","1690535","0.0-14.0-0.49","60e12640be1b69b66053d55b","650c16f0f2faf8d7a0d14c09","651c1e1032b59e401c711dde","null","null","<p style=""font-size: 60px; font-family: BACS"">TdTDRCdc</p>","","","","","","","","",""
"html-keyboard-response","301","1691535","0.0-14.0-0.50","60e12640be1b69b66053d55b","650c16f0f2faf8d7a0d14c09","651c1e1032b59e401c711dde","null","null","<p style=""font-size: 60px; font-family: BACS"">ldAaGrub</p>","","","","","","","","",""
"html-keyboard-response","302","1692537","0.0-14.0-0.51","60e12640be1b69b66053d55b","650c16f0f2faf8d7a0d14c09","651c1e1032b59e401c711dde","null","null","<p style=""font-size: 60px; font-family: BACS"">KDPAYht</p>","","","","","","","","",""
"html-keyboard-response","303","1693547","0.0-14.0-0.52","60e12640be1b69b66053d55b","650c16f0f2faf8d7a0d14c09","651c1e1032b59e401c711dde","null","null","<p style=""font-size: 60px; font-family: BACS"">NkUAYZUZ</p>","","","","","","","","",""
"html-keyboard-response","304","1694548","0.0-14.0-0.53","60e12640be1b69b66053d55b","650c16f0f2faf8d7a0d14c09","651c1e1032b59e401c711dde","null","null","<p style=""font-size: 60px; font-family: BACS"">DBPhcKmE</p>","","","","","","","","",""
"html-keyboard-response","305","1695549","0.0-14.0-0.54","60e12640be1b69b66053d55b","650c16f0f2faf8d7a0d14c09","651c1e1032b59e401c711dde","null","null","<p style=""font-size: 60px; font-family: BACS"">lhCTCRCdc</p>","","","","","","","","",""
"html-keyboard-response","306","1696550","0.0-14.0-0.55","60e12640be1b69b66053d55b","650c16f0f2faf8d7a0d14c09","651c1e1032b59e401c711dde","null","null","<p style=""font-size: 60px; font-family: BACS"">mBYlbdtK</p>","","","","","","","","",""
"html-keyboard-response","307","1697552","0.0-14.0-0.56","60e12640be1b69b66053d55b","650c16f0f2faf8d7a0d14c09","651c1e1032b59e401c711dde","null","null","<p style=""font-size: 60px; font-family: BACS"">JNkaOJNk</p>","","","","","","","","",""
"html-keyboard-response","308","1698553","0.0-14.0-0.57","60e12640be1b69b66053d55b","650c16f0f2faf8d7a0d14c09","651c1e1032b59e401c711dde","null","null","<p style=""font-size: 60px; font-family: BACS"">mBYlYht</p>","","","","","","","","",""
"html-keyboard-response","309","1699554","0.0-14.0-0.58","60e12640be1b69b66053d55b","650c16f0f2faf8d7a0d14c09","651c1e1032b59e401c711dde","null","null","<p style=""font-size: 60px; font-family: BACS"">vmuLlYNu</p>","","","","","","","","",""
"html-keyboard-response","310","1700557","0.0-14.0-0.59","60e12640be1b69b66053d55b","650c16f0f2faf8d7a0d14c09","651c1e1032b59e401c711dde","null","null","<p style=""font-size: 60px; font-family: BACS"">KDPAKmE</p>","","","","","","","","",""
"html-keyboard-response","311","1701566","0.0-14.0-0.60","60e12640be1b69b66053d55b","650c16f0f2faf8d7a0d14c09","651c1e1032b59e401c711dde","null","null","<p style=""font-size: 60px; font-family: BACS"">ZYcQUYNu</p>","","","","","","","","",""
"html-keyboard-response","312","1702572","0.0-14.0-0.61","60e12640be1b69b66053d55b","650c16f0f2faf8d7a0d14c09","651c1e1032b59e401c711dde","null","null","<p style=""font-size: 60px; font-family: BACS"">ktBdbdtK</p>","","","","","","","","",""
"html-keyboard-response","313","1703588","0.0-14.0-0.62","60e12640be1b69b66053d55b","650c16f0f2faf8d7a0d14c09","651c1e1032b59e401c711dde","null","null","<p style=""font-size: 60px; font-family: BACS"">bdUNuQGb</p>","","","","","","","","",""
"html-keyboard-response","314","1704589","0.0-14.0-0.63","60e12640be1b69b66053d55b","650c16f0f2faf8d7a0d14c09","651c1e1032b59e401c711dde","null","null","<p style=""font-size: 60px; font-family: BACS"">TdTDYht</p>","","","","","","","","",""
"html-keyboard-response","315","1705605","0.0-14.0-0.64","60e12640be1b69b66053d55b","650c16f0f2faf8d7a0d14c09","651c1e1032b59e401c711dde","null","null","<p style=""font-size: 60px; font-family: BACS"">JNkaQGb</p>","","","","","","","","",""
"html-keyboard-response","316","1706620","0.0-14.0-0.65","60e12640be1b69b66053d55b","650c16f0f2faf8d7a0d14c09","651c1e1032b59e401c711dde","null","null","<p style=""font-size: 60px; font-family: BACS"">lhCTChBK</p>","","","","","","","","",""
"html-keyboard-response","317","1707621","0.0-14.0-0.66","60e12640be1b69b66053d55b","650c16f0f2faf8d7a0d14c09","651c1e1032b59e401c711dde","null","null","<p style=""font-size: 60px; font-family: BACS"">CRdBdRCdc</p>","","","","","","","","",""
"html-keyboard-response","318","1708637","0.0-14.0-0.67","60e12640be1b69b66053d55b","650c16f0f2faf8d7a0d14c09","651c1e1032b59e401c711dde","null","null","<p style=""font-size: 60px; font-family: BACS"">DBPhcYht</p>","","","","","","","","",""
"html-keyboard-response","319","1709652","0.0-14.0-0.68","60e12640be1b69b66053d55b","650c16f0f2faf8d7a0d14c09","651c1e1032b59e401c711dde","null","null","<p style=""font-size: 60px; font-family: BACS"">TAdhMhBK</p>","","","","","","","","",""
"html-keyboard-response","320","1710655","0.0-14.0-0.69","60e12640be1b69b66053d55b","650c16f0f2faf8d7a0d14c09","651c1e1032b59e401c711dde","null","null","<p style=""font-size: 60px; font-family: BACS"">YObARCdc</p>","","","","","","","","",""
"html-keyboard-response","321","1711656","0.0-14.0-0.70","60e12640be1b69b66053d55b","650c16f0f2faf8d7a0d14c09","651c1e1032b59e401c711dde","null","null","<p style=""font-size: 60px; font-family: BACS"">TdTDKmE</p>","","","","","","","","",""
"html-keyboard-response","322","1712671","0.0-14.0-0.71","60e12640be1b69b66053d55b","650c16f0f2faf8d7a0d14c09","651c1e1032b59e401c711dde","null","null","<p style=""font-size: 60px; font-family: BACS"">GJGcZYZUZ</p>","","","","","","","","",""
"html-keyboard-response","323","1713673","0.0-14.0-0.72","60e12640be1b69b66053d55b","650c16f0f2faf8d7a0d14c09","651c1e1032b59e401c711dde","null","null","<p style=""font-size: 60px; font-family: BACS"">lhCTCKmE</p>","","","","","","","","",""
"html-keyboard-response","324","1714688","0.0-14.0-0.73","60e12640be1b69b66053d55b","650c16f0f2faf8d7a0d14c09","651c1e1032b59e401c711dde","null","null","<p style=""font-size: 60px; font-family: BACS"">CRdBdhBK</p>","","","","","","","","",""
"html-keyboard-response","325","1715704","0.0-14.0-0.74","60e12640be1b69b66053d55b","650c16f0f2faf8d7a0d14c09","651c1e1032b59e401c711dde","null","null","<p style=""font-size: 60px; font-family: BACS"">rcmuvYZUZ</p>","","","","","","","","",""
"html-keyboard-response","326","1716719","0.0-14.0-0.75","60e12640be1b69b66053d55b","650c16f0f2faf8d7a0d14c09","651c1e1032b59e401c711dde","null","null","<p style=""font-size: 60px; font-family: BACS"">KDPAbdtK</p>","","","","","","","","",""
"html-keyboard-response","327","1717733","0.0-14.0-0.76","60e12640be1b69b66053d55b","650c16f0f2faf8d7a0d14c09","651c1e1032b59e401c711dde","null","null","<p style=""font-size: 60px; font-family: BACS"">JNkaYZUZ</p>","","","","","","","","",""
"html-keyboard-response","328","1718749","0.0-14.0-0.77","60e12640be1b69b66053d55b","650c16f0f2faf8d7a0d14c09","651c1e1032b59e401c711dde","null","null","<p style=""font-size: 60px; font-family: BACS"">YObAYht</p>","","","","","","","","",""
"html-keyboard-response","329","1719765","0.0-14.0-0.78","60e12640be1b69b66053d55b","650c16f0f2faf8d7a0d14c09","651c1e1032b59e401c711dde","null","null","<p style=""font-size: 60px; font-family: BACS"">KDPAhBK</p>","","","","","","","","",""
"html-keyboard-response","330","1720766","0.0-14.0-0.79","60e12640be1b69b66053d55b","650c16f0f2faf8d7a0d14c09","651c1e1032b59e401c711dde","null","null","<p style=""font-size: 60px; font-family: BACS"">cDOEBYht</p>","","","","","","","","",""
"html-keyboard-response","331","1736352","0.0-15.0","60e12640be1b69b66053d55b","650c16f0f2faf8d7a0d14c09","651c1e1032b59e401c711dde","15585"," ","<p>Great, you've seen the fourth block of words. You may now take a short break.</p>
      <p>Press the spacebar when you're ready to continue.</p>","","","","","","","","",""
"html-keyboard-response","332","1737355","0.0-16.0-0.0","60e12640be1b69b66053d55b","650c16f0f2faf8d7a0d14c09","651c1e1032b59e401c711dde","null","null","<p style=""font-size: 60px; font-family: BACS"">bdUNuYZUZ</p>","","","","","","","","",""
"html-keyboard-response","333","1738370","0.0-16.0-0.1","60e12640be1b69b66053d55b","650c16f0f2faf8d7a0d14c09","651c1e1032b59e401c711dde","null","null","<p style=""font-size: 60px; font-family: BACS"">bdUNuYZUZ</p>","","","","","","","","",""
"html-keyboard-response","334","1739386","0.0-16.0-0.2","60e12640be1b69b66053d55b","650c16f0f2faf8d7a0d14c09","651c1e1032b59e401c711dde","null","null","<p style=""font-size: 60px; font-family: BACS"">bdUNuYZUZ</p>","","","","","","","","",""
"html-keyboard-response","335","1740387","0.0-16.0-0.3","60e12640be1b69b66053d55b","650c16f0f2faf8d7a0d14c09","651c1e1032b59e401c711dde","null","null","<p style=""font-size: 60px; font-family: BACS"">bdUNuYZUZ</p>","","","","","","","","",""
"html-keyboard-response","336","1741403","0.0-16.0-0.4","60e12640be1b69b66053d55b","650c16f0f2faf8d7a0d14c09","651c1e1032b59e401c711dde","null","null","<p style=""font-size: 60px; font-family: BACS"">bdUNuYZUZ</p>","","","","","","","","",""
"html-keyboard-response","337","1742418","0.0-16.0-0.5","60e12640be1b69b66053d55b","650c16f0f2faf8d7a0d14c09","651c1e1032b59e401c711dde","null","null","<p style=""font-size: 60px; font-family: BACS"">bdUNuYZUZ</p>","","","","","","","","",""
"html-keyboard-response","338","1743434","0.0-16.0-0.6","60e12640be1b69b66053d55b","650c16f0f2faf8d7a0d14c09","651c1e1032b59e401c711dde","null","null","<p style=""font-size: 60px; font-family: BACS"">bdUNuYZUZ</p>","","","","","","","","",""
"html-keyboard-response","339","1744435","0.0-16.0-0.7","60e12640be1b69b66053d55b","650c16f0f2faf8d7a0d14c09","651c1e1032b59e401c711dde","null","null","<p style=""font-size: 60px; font-family: BACS"">bdUNuYZUZ</p>","","","","","","","","",""
"html-keyboard-response","340","1745437","0.0-16.0-0.8","60e12640be1b69b66053d55b","650c16f0f2faf8d7a0d14c09","651c1e1032b59e401c711dde","null","null","<p style=""font-size: 60px; font-family: BACS"">bdUNuYZUZ</p>","","","","","","","","",""
"html-keyboard-response","341","1746449","0.0-16.0-0.9","60e12640be1b69b66053d55b","650c16f0f2faf8d7a0d14c09","651c1e1032b59e401c711dde","null","null","<p style=""font-size: 60px; font-family: BACS"">bdUNuYZUZ</p>","","","","","","","","",""
"html-keyboard-response","342","1747450","0.0-16.0-0.10","60e12640be1b69b66053d55b","650c16f0f2faf8d7a0d14c09","651c1e1032b59e401c711dde","null","null","<p style=""font-size: 60px; font-family: BACS"">bdUNuYZUZ</p>","","","","","","","","",""
"html-keyboard-response","343","1748467","0.0-16.0-0.11","60e12640be1b69b66053d55b","650c16f0f2faf8d7a0d14c09","651c1e1032b59e401c711dde","null","null","<p style=""font-size: 60px; font-family: BACS"">bdUNuYZUZ</p>","","","","","","","","",""
"html-keyboard-response","344","1749468","0.0-16.0-0.12","60e12640be1b69b66053d55b","650c16f0f2faf8d7a0d14c09","651c1e1032b59e401c711dde","null","null","<p style=""font-size: 60px; font-family: BACS"">bdUNuYZUZ</p>","","","","","","","","",""
"html-keyboard-response","345","1750470","0.0-16.0-0.13","60e12640be1b69b66053d55b","650c16f0f2faf8d7a0d14c09","651c1e1032b59e401c711dde","null","null","<p style=""font-size: 60px; font-family: BACS"">bdUNuYZUZ</p>","","","","","","","","",""
"html-keyboard-response","346","1751473","0.0-16.0-0.14","60e12640be1b69b66053d55b","650c16f0f2faf8d7a0d14c09","651c1e1032b59e401c711dde","null","null","<p style=""font-size: 60px; font-family: BACS"">bdUNuYZUZ</p>","","","","","","","","",""
"html-keyboard-response","347","1752474","0.0-16.0-0.15","60e12640be1b69b66053d55b","650c16f0f2faf8d7a0d14c09","651c1e1032b59e401c711dde","null","null","<p style=""font-size: 60px; font-family: BACS"">bdUNuYZUZ</p>","","","","","","","","",""
"html-keyboard-response","348","1753475","0.0-16.0-0.16","60e12640be1b69b66053d55b","650c16f0f2faf8d7a0d14c09","651c1e1032b59e401c711dde","null","null","<p style=""font-size: 60px; font-family: BACS"">bdUNuYZUZ</p>","","","","","","","","",""
"html-keyboard-response","349","1754476","0.0-16.0-0.17","60e12640be1b69b66053d55b","650c16f0f2faf8d7a0d14c09","651c1e1032b59e401c711dde","null","null","<p style=""font-size: 60px; font-family: BACS"">bdUNuYZUZ</p>","","","","","","","","",""
"html-keyboard-response","350","1755478","0.0-16.0-0.18","60e12640be1b69b66053d55b","650c16f0f2faf8d7a0d14c09","651c1e1032b59e401c711dde","null","null","<p style=""font-size: 60px; font-family: BACS"">bdUNuYZUZ</p>","","","","","","","","",""
"html-keyboard-response","351","1756479","0.0-16.0-0.19","60e12640be1b69b66053d55b","650c16f0f2faf8d7a0d14c09","651c1e1032b59e401c711dde","null","null","<p style=""font-size: 60px; font-family: BACS"">bdUNuYZUZ</p>","","","","","","","","",""
"html-keyboard-response","352","1757481","0.0-16.0-0.20","60e12640be1b69b66053d55b","650c16f0f2faf8d7a0d14c09","651c1e1032b59e401c711dde","null","null","<p style=""font-size: 60px; font-family: BACS"">bdUNuYZUZ</p>","","","","","","","","",""
"html-keyboard-response","353","1758482","0.0-16.0-0.21","60e12640be1b69b66053d55b","650c16f0f2faf8d7a0d14c09","651c1e1032b59e401c711dde","null","null","<p style=""font-size: 60px; font-family: BACS"">bdUNuYZUZ</p>","","","","","","","","",""
"html-keyboard-response","354","1759483","0.0-16.0-0.22","60e12640be1b69b66053d55b","650c16f0f2faf8d7a0d14c09","651c1e1032b59e401c711dde","null","null","<p style=""font-size: 60px; font-family: BACS"">bdUNuYZUZ</p>","","","","","","","","",""
"html-keyboard-response","355","1760495","0.0-16.0-0.23","60e12640be1b69b66053d55b","650c16f0f2faf8d7a0d14c09","651c1e1032b59e401c711dde","null","null","<p style=""font-size: 60px; font-family: BACS"">bdUNuYZUZ</p>","","","","","","","","",""
"html-keyboard-response","356","1761496","0.0-16.0-0.24","60e12640be1b69b66053d55b","650c16f0f2faf8d7a0d14c09","651c1e1032b59e401c711dde","null","null","<p style=""font-size: 60px; font-family: BACS"">bdUNuYZUZ</p>","","","","","","","","",""
"html-keyboard-response","357","1762497","0.0-16.0-0.25","60e12640be1b69b66053d55b","650c16f0f2faf8d7a0d14c09","651c1e1032b59e401c711dde","null","null","<p style=""font-size: 60px; font-family: BACS"">bdUNuYZUZ</p>","","","","","","","","",""
"html-keyboard-response","358","1763498","0.0-16.0-0.26","60e12640be1b69b66053d55b","650c16f0f2faf8d7a0d14c09","651c1e1032b59e401c711dde","null","null","<p style=""font-size: 60px; font-family: BACS"">bdUNuYZUZ</p>","","","","","","","","",""
"html-keyboard-response","359","1764499","0.0-16.0-0.27","60e12640be1b69b66053d55b","650c16f0f2faf8d7a0d14c09","651c1e1032b59e401c711dde","null","null","<p style=""font-size: 60px; font-family: BACS"">bdUNuYZUZ</p>","","","","","","","","",""
"html-keyboard-response","360","1765500","0.0-16.0-0.28","60e12640be1b69b66053d55b","650c16f0f2faf8d7a0d14c09","651c1e1032b59e401c711dde","null","null","<p style=""font-size: 60px; font-family: BACS"">bdUNuYZUZ</p>","","","","","","","","",""
"html-keyboard-response","361","1766514","0.0-16.0-0.29","60e12640be1b69b66053d55b","650c16f0f2faf8d7a0d14c09","651c1e1032b59e401c711dde","null","null","<p style=""font-size: 60px; font-family: BACS"">bdUNuYZUZ</p>","","","","","","","","",""
"html-keyboard-response","362","1767515","0.0-16.0-0.30","60e12640be1b69b66053d55b","650c16f0f2faf8d7a0d14c09","651c1e1032b59e401c711dde","null","null","<p style=""font-size: 60px; font-family: BACS"">bdUNuYZUZ</p>","","","","","","","","",""
"html-keyboard-response","363","1768515","0.0-16.0-0.31","60e12640be1b69b66053d55b","650c16f0f2faf8d7a0d14c09","651c1e1032b59e401c711dde","null","null","<p style=""font-size: 60px; font-family: BACS"">bdUNuYZUZ</p>","","","","","","","","",""
"html-keyboard-response","364","1769516","0.0-16.0-0.32","60e12640be1b69b66053d55b","650c16f0f2faf8d7a0d14c09","651c1e1032b59e401c711dde","null","null","<p style=""font-size: 60px; font-family: BACS"">bdUNuYZUZ</p>","","","","","","","","",""
"html-keyboard-response","365","1770517","0.0-16.0-0.33","60e12640be1b69b66053d55b","650c16f0f2faf8d7a0d14c09","651c1e1032b59e401c711dde","null","null","<p style=""font-size: 60px; font-family: BACS"">bdUNuYZUZ</p>","","","","","","","","",""
"html-keyboard-response","366","1771522","0.0-16.0-0.34","60e12640be1b69b66053d55b","650c16f0f2faf8d7a0d14c09","651c1e1032b59e401c711dde","null","null","<p style=""font-size: 60px; font-family: BACS"">bdUNuYZUZ</p>","","","","","","","","",""
"html-keyboard-response","367","1772534","0.0-16.0-0.35","60e12640be1b69b66053d55b","650c16f0f2faf8d7a0d14c09","651c1e1032b59e401c711dde","null","null","<p style=""font-size: 60px; font-family: BACS"">bdUNuYZUZ</p>","","","","","","","","",""
"html-keyboard-response","368","1773535","0.0-16.0-0.36","60e12640be1b69b66053d55b","650c16f0f2faf8d7a0d14c09","651c1e1032b59e401c711dde","null","null","<p style=""font-size: 60px; font-family: BACS"">bdUNuYZUZ</p>","","","","","","","","",""
"html-keyboard-response","369","1774537","0.0-16.0-0.37","60e12640be1b69b66053d55b","650c16f0f2faf8d7a0d14c09","651c1e1032b59e401c711dde","null","null","<p style=""font-size: 60px; font-family: BACS"">bdUNuYZUZ</p>","","","","","","","","",""
"html-keyboard-response","370","1775553","0.0-16.0-0.38","60e12640be1b69b66053d55b","650c16f0f2faf8d7a0d14c09","651c1e1032b59e401c711dde","null","null","<p style=""font-size: 60px; font-family: BACS"">bdUNuYZUZ</p>","","","","","","","","",""
"html-keyboard-response","371","1776568","0.0-16.0-0.39","60e12640be1b69b66053d55b","650c16f0f2faf8d7a0d14c09","651c1e1032b59e401c711dde","null","null","<p style=""font-size: 60px; font-family: BACS"">bdUNuYZUZ</p>","","","","","","","","",""
"html-keyboard-response","372","1777570","0.0-16.0-0.40","60e12640be1b69b66053d55b","650c16f0f2faf8d7a0d14c09","651c1e1032b59e401c711dde","null","null","<p style=""font-size: 60px; font-family: BACS"">bdUNuYZUZ</p>","","","","","","","","",""
"html-keyboard-response","373","1778571","0.0-16.0-0.41","60e12640be1b69b66053d55b","650c16f0f2faf8d7a0d14c09","651c1e1032b59e401c711dde","null","null","<p style=""font-size: 60px; font-family: BACS"">bdUNuYZUZ</p>","","","","","","","","",""
"html-keyboard-response","374","1779574","0.0-16.0-0.42","60e12640be1b69b66053d55b","650c16f0f2faf8d7a0d14c09","651c1e1032b59e401c711dde","null","null","<p style=""font-size: 60px; font-family: BACS"">bdUNuYZUZ</p>","","","","","","","","",""
"html-keyboard-response","375","1780575","0.0-16.0-0.43","60e12640be1b69b66053d55b","650c16f0f2faf8d7a0d14c09","651c1e1032b59e401c711dde","null","null","<p style=""font-size: 60px; font-family: BACS"">bdUNuYZUZ</p>","","","","","","","","",""
"html-keyboard-response","376","1781590","0.0-16.0-0.44","60e12640be1b69b66053d55b","650c16f0f2faf8d7a0d14c09","651c1e1032b59e401c711dde","null","null","<p style=""font-size: 60px; font-family: BACS"">bdUNuYZUZ</p>","","","","","","","","",""
"html-keyboard-response","377","1782591","0.0-16.0-0.45","60e12640be1b69b66053d55b","650c16f0f2faf8d7a0d14c09","651c1e1032b59e401c711dde","null","null","<p style=""font-size: 60px; font-family: BACS"">bdUNuYZUZ</p>","","","","","","","","",""
"html-keyboard-response","378","1783605","0.0-16.0-0.46","60e12640be1b69b66053d55b","650c16f0f2faf8d7a0d14c09","651c1e1032b59e401c711dde","null","null","<p style=""font-size: 60px; font-family: BACS"">bdUNuYZUZ</p>","","","","","","","","",""
"html-keyboard-response","379","1784621","0.0-16.0-0.47","60e12640be1b69b66053d55b","650c16f0f2faf8d7a0d14c09","651c1e1032b59e401c711dde","null","null","<p style=""font-size: 60px; font-family: BACS"">bdUNuYZUZ</p>","","","","","","","","",""
"html-keyboard-response","380","1785636","0.0-16.0-0.48","60e12640be1b69b66053d55b","650c16f0f2faf8d7a0d14c09","651c1e1032b59e401c711dde","null","null","<p style=""font-size: 60px; font-family: BACS"">bdUNuYZUZ</p>","","","","","","","","",""
"html-keyboard-response","381","1786651","0.0-16.0-0.49","60e12640be1b69b66053d55b","650c16f0f2faf8d7a0d14c09","651c1e1032b59e401c711dde","null","null","<p style=""font-size: 60px; font-family: BACS"">bdUNuYZUZ</p>","","","","","","","","",""
"html-keyboard-response","382","1787653","0.0-16.0-0.50","60e12640be1b69b66053d55b","650c16f0f2faf8d7a0d14c09","651c1e1032b59e401c711dde","null","null","<p style=""font-size: 60px; font-family: BACS"">bdUNuYZUZ</p>","","","","","","","","",""
"html-keyboard-response","383","1788655","0.0-16.0-0.51","60e12640be1b69b66053d55b","650c16f0f2faf8d7a0d14c09","651c1e1032b59e401c711dde","null","null","<p style=""font-size: 60px; font-family: BACS"">bdUNuYZUZ</p>","","","","","","","","",""
"html-keyboard-response","384","1789656","0.0-16.0-0.52","60e12640be1b69b66053d55b","650c16f0f2faf8d7a0d14c09","651c1e1032b59e401c711dde","null","null","<p style=""font-size: 60px; font-family: BACS"">bdUNuYZUZ</p>","","","","","","","","",""
"html-keyboard-response","385","1790657","0.0-16.0-0.53","60e12640be1b69b66053d55b","650c16f0f2faf8d7a0d14c09","651c1e1032b59e401c711dde","null","null","<p style=""font-size: 60px; font-family: BACS"">bdUNuYZUZ</p>","","","","","","","","",""
"html-keyboard-response","386","1791658","0.0-16.0-0.54","60e12640be1b69b66053d55b","650c16f0f2faf8d7a0d14c09","651c1e1032b59e401c711dde","null","null","<p style=""font-size: 60px; font-family: BACS"">bdUNuYZUZ</p>","","","","","","","","",""
"html-keyboard-response","387","1792672","0.0-16.0-0.55","60e12640be1b69b66053d55b","650c16f0f2faf8d7a0d14c09","651c1e1032b59e401c711dde","null","null","<p style=""font-size: 60px; font-family: BACS"">bdUNuYZUZ</p>","","","","","","","","",""
"html-keyboard-response","388","1793687","0.0-16.0-0.56","60e12640be1b69b66053d55b","650c16f0f2faf8d7a0d14c09","651c1e1032b59e401c711dde","null","null","<p style=""font-size: 60px; font-family: BACS"">bdUNuYZUZ</p>","","","","","","","","",""
"html-keyboard-response","389","1794689","0.0-16.0-0.57","60e12640be1b69b66053d55b","650c16f0f2faf8d7a0d14c09","651c1e1032b59e401c711dde","null","null","<p style=""font-size: 60px; font-family: BACS"">bdUNuYZUZ</p>","","","","","","","","",""
"html-keyboard-response","390","1795704","0.0-16.0-0.58","60e12640be1b69b66053d55b","650c16f0f2faf8d7a0d14c09","651c1e1032b59e401c711dde","null","null","<p style=""font-size: 60px; font-family: BACS"">bdUNuYZUZ</p>","","","","","","","","",""
"html-keyboard-response","391","1796705","0.0-16.0-0.59","60e12640be1b69b66053d55b","650c16f0f2faf8d7a0d14c09","651c1e1032b59e401c711dde","null","null","<p style=""font-size: 60px; font-family: BACS"">bdUNuYZUZ</p>","","","","","","","","",""
"html-keyboard-response","392","1797706","0.0-16.0-0.60","60e12640be1b69b66053d55b","650c16f0f2faf8d7a0d14c09","651c1e1032b59e401c711dde","null","null","<p style=""font-size: 60px; font-family: BACS"">bdUNuYZUZ</p>","","","","","","","","",""
"html-keyboard-response","393","1798707","0.0-16.0-0.61","60e12640be1b69b66053d55b","650c16f0f2faf8d7a0d14c09","651c1e1032b59e401c711dde","null","null","<p style=""font-size: 60px; font-family: BACS"">bdUNuYZUZ</p>","","","","","","","","",""
"html-keyboard-response","394","1799708","0.0-16.0-0.62","60e12640be1b69b66053d55b","650c16f0f2faf8d7a0d14c09","651c1e1032b59e401c711dde","null","null","<p style=""font-size: 60px; font-family: BACS"">bdUNuYZUZ</p>","","","","","","","","",""
"html-keyboard-response","395","1800724","0.0-16.0-0.63","60e12640be1b69b66053d55b","650c16f0f2faf8d7a0d14c09","651c1e1032b59e401c711dde","null","null","<p style=""font-size: 60px; font-family: BACS"">bdUNuYZUZ</p>","","","","","","","","",""
"html-keyboard-response","396","1801726","0.0-16.0-0.64","60e12640be1b69b66053d55b","650c16f0f2faf8d7a0d14c09","651c1e1032b59e401c711dde","null","null","<p style=""font-size: 60px; font-family: BACS"">bdUNuYZUZ</p>","","","","","","","","",""
"html-keyboard-response","397","1802727","0.0-16.0-0.65","60e12640be1b69b66053d55b","650c16f0f2faf8d7a0d14c09","651c1e1032b59e401c711dde","null","null","<p style=""font-size: 60px; font-family: BACS"">bdUNuYZUZ</p>","","","","","","","","",""
