"trial_type","trial_index","time_elapsed","internal_node_id","subject_id","study_id","session_id","rt","response","stimulus","success","item","task","correct_response","testing_condition","correct","target","confound","name"
"pavlovia","0","740","0.0-0.0","5f219602670e5a0af2cf5237","650c16f0f2faf8d7a0d14c09","651c1dd118a9d74544563e88","","","","","","","","","","","",""
"survey-html-form","1","7690","0.0-1.0","5f219602670e5a0af2cf5237","650c16f0f2faf8d7a0d14c09","651c1dd118a9d74544563e88","6948","{""ID"":""5f219602670e5a0af2cf5237""}","","","","","","","","","",""
"html-keyboard-response","2","36199","0.0-2.0","5f219602670e5a0af2cf5237","650c16f0f2faf8d7a0d14c09","651c1dd118a9d74544563e88","28505"," ","<p style=""font-size: 15px;"">Before beginning, we ask that you read the consent information and confirm your agreement to participate in the experiment.</p>
      <p style=""font-size: 15px;""> We ask that you remember that this is a research project and that your participation is entirely voluntary. You can stop your participation at any time, without needing to provide any explanation. The study we're asking you to participate in aims at examining how readers process written words. You will be engaged in a session of apprximately 20 minutes, followed by a brief questionnaire. You will have the opportunity to take a few breaks during the experiment. You will be paid £4 for your participation, corresponding to a rate of £8/hour. While this experiment looks at cognitive faculties, this experiment doesn't constitute clinical proof of eventual pathologies.</p>
      <p style=""font-size: 15px;"">All of the information collected thanks to yours and others' participation will be held in a secure password-protected server, and will not be shared with anyone not authorised to view it. Your personal information will be kept with an arbitrary participant ID. Thanks to this data anonymity process, any researcher analysing the data won't be able to track the information back to a specific participant. Therefore, this process will make identifying you impossibile, even when results from the study will be published in scientific reviews, presented at congresses, or at any other public forum. More generally, the collected data will be treated in accordance with the laws on privacy and conformity to the Legislative Degree n. 196 ""Code regarding the protection of personal data"" of the 30th of June 2003 and to the European Regulation 2016/670 (General Data Protection Regulation - GDPR). The Data Protection Officer is Avv. Valentina Carollo, who can be contacted at the following email addresses: <a href=""mailto:dpo@sissa.it"">dpo@sissa.it</a> or <a href=""mailto:rpd@sissa.it"">rpd@sissa.it</a> - PEC: <a href=""mailto:protocollo@pec.sissa.it"">protocollo@pec.sissa.it</a>.</p>
      <p style=""font-size: 15px;""> Before expressing your consent to participate, we would like to remind you again that in case you need explanations on any aspect of the experimental procedure, the researcher is at your disposition (<a href=""mailto:aliebelt@sissa.it"">aliebelt@sissa.it</a>, <a href=""mailto:davide.crepaldi@sissa.it"">davide.crepaldi@sissa.it</a>).</p>
      <p style=""font-size: 15px;"">If you would like to download the informed consent form, you can do so here: <a href=""BASL-Informed_Consent.pdf"" download>informed consent form</a>.</p>
      <p style=""font-size: 15px;"">We ask that you press the spacebar to proceed to the consent section.</p>","","","","","","","","",""
"survey-html-form","3","59512","0.0-3.0","5f219602670e5a0af2cf5237","650c16f0f2faf8d7a0d14c09","651c1dd118a9d74544563e88","23311","{""consent1"":""YES"",""consent2"":""YES"",""consent3"":""YES"",""consent4"":""YES"",""consent5"":""YES"",""consent6"":""YES""}","","","","","","","","","",""
"fullscreen","4","67514","0.0-4.0","5f219602670e5a0af2cf5237","650c16f0f2faf8d7a0d14c09","651c1dd118a9d74544563e88","","","","true","","","","","","","",""
"html-keyboard-response","5","88194","0.0-5.0","5f219602670e5a0af2cf5237","650c16f0f2faf8d7a0d14c09","651c1dd118a9d74544563e88","20677"," ","<p>Welcome, and thank you very much for your time!</p>
      <p>In this experiment, you'll be a language expert who's been asked to take a look at words that Earth has received in its first communication with aliens. Your task, in this first part of the experiment, is to pay close attention to the words you'll be shown; later, world leaders will ask you questions on what you saw. The words will be shown to you quite quickly; it seems that the aliens were in a hurry :-)</p>
      <p>Press the spacebar to continue.<p>","","","","","","","","",""
"html-keyboard-response","6","88247","0.0-6.0","5f219602670e5a0af2cf5237","650c16f0f2faf8d7a0d14c09","651c1dd118a9d74544563e88","null","null","<p style=""font-size: 120px; font-family: BACS""> </p>","","","","","","","","",""
"html-keyboard-response","7","94452","0.0-7.0","5f219602670e5a0af2cf5237","650c16f0f2faf8d7a0d14c09","651c1dd118a9d74544563e88","6204"," ","<p>Here is an example of the words you'll see:</p>
      <img src='esempio.png' height='400px'>
      <p>When you're ready to begin, press the spacebar.</p></div>","","","","","","","","",""
"html-keyboard-response","8","95469","0.0-8.0-0.0","5f219602670e5a0af2cf5237","650c16f0f2faf8d7a0d14c09","651c1dd118a9d74544563e88","null","null","<p style=""font-size: 60px; font-family: BACS"">DmAMEdBC</p>","","","","","","","","",""
"html-keyboard-response","9","96470","0.0-8.0-0.1","5f219602670e5a0af2cf5237","650c16f0f2faf8d7a0d14c09","651c1dd118a9d74544563e88","null","null","<p style=""font-size: 60px; font-family: BACS"">NkUArAJu</p>","","","","","","","","",""
"html-keyboard-response","10","97477","0.0-8.0-0.2","5f219602670e5a0af2cf5237","650c16f0f2faf8d7a0d14c09","651c1dd118a9d74544563e88","null","null","<p style=""font-size: 60px; font-family: BACS"">OJGQkYL</p>","","","","","","","","",""
"html-keyboard-response","11","98484","0.0-8.0-0.3","5f219602670e5a0af2cf5237","650c16f0f2faf8d7a0d14c09","651c1dd118a9d74544563e88","null","null","<p style=""font-size: 60px; font-family: BACS"">Zvalvmkc</p>","","","","","","","","",""
"html-keyboard-response","12","99490","0.0-8.0-0.4","5f219602670e5a0af2cf5237","650c16f0f2faf8d7a0d14c09","651c1dd118a9d74544563e88","null","null","<p style=""font-size: 60px; font-family: BACS"">NkUAYLU</p>","","","","","","","","",""
"html-keyboard-response","13","100504","0.0-8.0-0.5","5f219602670e5a0af2cf5237","650c16f0f2faf8d7a0d14c09","651c1dd118a9d74544563e88","null","null","<p style=""font-size: 60px; font-family: BACS"">RtRhdEPD</p>","","","","","","","","",""
"html-keyboard-response","14","101508","0.0-8.0-0.6","5f219602670e5a0af2cf5237","650c16f0f2faf8d7a0d14c09","651c1dd118a9d74544563e88","null","null","<p style=""font-size: 60px; font-family: BACS"">cAZuJcL</p>","","","","","","","","",""
"html-keyboard-response","15","102516","0.0-8.0-0.7","5f219602670e5a0af2cf5237","650c16f0f2faf8d7a0d14c09","651c1dd118a9d74544563e88","null","null","<p style=""font-size: 60px; font-family: BACS"">bYGOZmkc</p>","","","","","","","","",""
"html-keyboard-response","16","103529","0.0-8.0-0.8","5f219602670e5a0af2cf5237","650c16f0f2faf8d7a0d14c09","651c1dd118a9d74544563e88","null","null","<p style=""font-size: 60px; font-family: BACS"">EPMDkdEPD</p>","","","","","","","","",""
"html-keyboard-response","17","104539","0.0-8.0-0.9","5f219602670e5a0af2cf5237","650c16f0f2faf8d7a0d14c09","651c1dd118a9d74544563e88","null","null","<p style=""font-size: 60px; font-family: BACS"">hlkTPMd</p>","","","","","","","","",""
"html-keyboard-response","18","105544","0.0-8.0-0.10","5f219602670e5a0af2cf5237","650c16f0f2faf8d7a0d14c09","651c1dd118a9d74544563e88","null","null","<p style=""font-size: 60px; font-family: BACS"">OJGQYLU</p>","","","","","","","","",""
"html-keyboard-response","19","106555","0.0-8.0-0.11","5f219602670e5a0af2cf5237","650c16f0f2faf8d7a0d14c09","651c1dd118a9d74544563e88","null","null","<p style=""font-size: 60px; font-family: BACS"">KElBdCKc</p>","","","","","","","","",""
"html-keyboard-response","20","107561","0.0-8.0-0.12","5f219602670e5a0af2cf5237","650c16f0f2faf8d7a0d14c09","651c1dd118a9d74544563e88","null","null","<p style=""font-size: 60px; font-family: BACS"">OJGQrAJu</p>","","","","","","","","",""
"html-keyboard-response","21","108568","0.0-8.0-0.13","5f219602670e5a0af2cf5237","650c16f0f2faf8d7a0d14c09","651c1dd118a9d74544563e88","null","null","<p style=""font-size: 60px; font-family: BACS"">ckLALYLU</p>","","","","","","","","",""
"html-keyboard-response","22","109571","0.0-8.0-0.14","5f219602670e5a0af2cf5237","650c16f0f2faf8d7a0d14c09","651c1dd118a9d74544563e88","null","null","<p style=""font-size: 60px; font-family: BACS"">GLluArAJu</p>","","","","","","","","",""
"html-keyboard-response","23","110578","0.0-8.0-0.15","5f219602670e5a0af2cf5237","650c16f0f2faf8d7a0d14c09","651c1dd118a9d74544563e88","null","null","<p style=""font-size: 60px; font-family: BACS"">NkUAmkc</p>","","","","","","","","",""
"html-keyboard-response","24","111586","0.0-8.0-0.16","5f219602670e5a0af2cf5237","650c16f0f2faf8d7a0d14c09","651c1dd118a9d74544563e88","null","null","<p style=""font-size: 60px; font-family: BACS"">UvOGYLU</p>","","","","","","","","",""
"html-keyboard-response","25","112594","0.0-8.0-0.17","5f219602670e5a0af2cf5237","650c16f0f2faf8d7a0d14c09","651c1dd118a9d74544563e88","null","null","<p style=""font-size: 60px; font-family: BACS"">kDRKcdCKc</p>","","","","","","","","",""
"html-keyboard-response","26","113611","0.0-8.0-0.18","5f219602670e5a0af2cf5237","650c16f0f2faf8d7a0d14c09","651c1dd118a9d74544563e88","null","null","<p style=""font-size: 60px; font-family: BACS"">McMDdBC</p>","","","","","","","","",""
"html-keyboard-response","27","114621","0.0-8.0-0.19","5f219602670e5a0af2cf5237","650c16f0f2faf8d7a0d14c09","651c1dd118a9d74544563e88","null","null","<p style=""font-size: 60px; font-family: BACS"">KElBPMd</p>","","","","","","","","",""
"html-keyboard-response","28","115633","0.0-8.0-0.20","5f219602670e5a0af2cf5237","650c16f0f2faf8d7a0d14c09","651c1dd118a9d74544563e88","null","null","<p style=""font-size: 60px; font-family: BACS"">NQZvYLU</p>","","","","","","","","",""
"html-keyboard-response","29","116644","0.0-8.0-0.21","5f219602670e5a0af2cf5237","650c16f0f2faf8d7a0d14c09","651c1dd118a9d74544563e88","null","null","<p style=""font-size: 60px; font-family: BACS"">bYGOZrAJu</p>","","","","","","","","",""
"html-keyboard-response","30","117660","0.0-8.0-0.22","5f219602670e5a0af2cf5237","650c16f0f2faf8d7a0d14c09","651c1dd118a9d74544563e88","null","null","<p style=""font-size: 60px; font-family: BACS"">hlkTdBC</p>","","","","","","","","",""
"html-keyboard-response","31","118667","0.0-8.0-0.23","5f219602670e5a0af2cf5237","650c16f0f2faf8d7a0d14c09","651c1dd118a9d74544563e88","null","null","<p style=""font-size: 60px; font-family: BACS"">McMDPMd</p>","","","","","","","","",""
"html-keyboard-response","32","119675","0.0-8.0-0.24","5f219602670e5a0af2cf5237","650c16f0f2faf8d7a0d14c09","651c1dd118a9d74544563e88","null","null","<p style=""font-size: 60px; font-family: BACS"">RhPmdBC</p>","","","","","","","","",""
"html-keyboard-response","33","120686","0.0-8.0-0.25","5f219602670e5a0af2cf5237","650c16f0f2faf8d7a0d14c09","651c1dd118a9d74544563e88","null","null","<p style=""font-size: 60px; font-family: BACS"">DmAMEdEPD</p>","","","","","","","","",""
"html-keyboard-response","34","121697","0.0-8.0-0.26","5f219602670e5a0af2cf5237","650c16f0f2faf8d7a0d14c09","651c1dd118a9d74544563e88","null","null","<p style=""font-size: 60px; font-family: BACS"">kDRKcKmE</p>","","","","","","","","",""
"html-keyboard-response","35","122702","0.0-8.0-0.27","5f219602670e5a0af2cf5237","650c16f0f2faf8d7a0d14c09","651c1dd118a9d74544563e88","null","null","<p style=""font-size: 60px; font-family: BACS"">DmAMEPMd</p>","","","","","","","","",""
"html-keyboard-response","36","123707","0.0-8.0-0.28","5f219602670e5a0af2cf5237","650c16f0f2faf8d7a0d14c09","651c1dd118a9d74544563e88","null","null","<p style=""font-size: 60px; font-family: BACS"">cAZumkc</p>","","","","","","","","",""
"html-keyboard-response","37","124717","0.0-8.0-0.29","5f219602670e5a0af2cf5237","650c16f0f2faf8d7a0d14c09","651c1dd118a9d74544563e88","null","null","<p style=""font-size: 60px; font-family: BACS"">BOCRMPMd</p>","","","","","","","","",""
"html-keyboard-response","38","125719","0.0-8.0-0.30","5f219602670e5a0af2cf5237","650c16f0f2faf8d7a0d14c09","651c1dd118a9d74544563e88","null","null","<p style=""font-size: 60px; font-family: BACS"">OJGQJcL</p>","","","","","","","","",""
"html-keyboard-response","39","126724","0.0-8.0-0.31","5f219602670e5a0af2cf5237","650c16f0f2faf8d7a0d14c09","651c1dd118a9d74544563e88","null","null","<p style=""font-size: 60px; font-family: BACS"">aYaNkYL</p>","","","","","","","","",""
"html-keyboard-response","40","127731","0.0-8.0-0.32","5f219602670e5a0af2cf5237","650c16f0f2faf8d7a0d14c09","651c1dd118a9d74544563e88","null","null","<p style=""font-size: 60px; font-family: BACS"">UvOGmkc</p>","","","","","","","","",""
"html-keyboard-response","41","128736","0.0-8.0-0.33","5f219602670e5a0af2cf5237","650c16f0f2faf8d7a0d14c09","651c1dd118a9d74544563e88","null","null","<p style=""font-size: 60px; font-family: BACS"">aYaNYLU</p>","","","","","","","","",""
"html-keyboard-response","42","129752","0.0-8.0-0.34","5f219602670e5a0af2cf5237","650c16f0f2faf8d7a0d14c09","651c1dd118a9d74544563e88","null","null","<p style=""font-size: 60px; font-family: BACS"">kDRKcdEPD</p>","","","","","","","","",""
"html-keyboard-response","43","130756","0.0-8.0-0.35","5f219602670e5a0af2cf5237","650c16f0f2faf8d7a0d14c09","651c1dd118a9d74544563e88","null","null","<p style=""font-size: 60px; font-family: BACS"">DmAMEdCKc</p>","","","","","","","","",""
"html-keyboard-response","44","131766","0.0-8.0-0.36","5f219602670e5a0af2cf5237","650c16f0f2faf8d7a0d14c09","651c1dd118a9d74544563e88","null","null","<p style=""font-size: 60px; font-family: BACS"">ckLALJcL</p>","","","","","","","","",""
"html-keyboard-response","45","132776","0.0-8.0-0.37","5f219602670e5a0af2cf5237","650c16f0f2faf8d7a0d14c09","651c1dd118a9d74544563e88","null","null","<p style=""font-size: 60px; font-family: BACS"">RhPmPMd</p>","","","","","","","","",""
"html-keyboard-response","46","133782","0.0-8.0-0.38","5f219602670e5a0af2cf5237","650c16f0f2faf8d7a0d14c09","651c1dd118a9d74544563e88","null","null","<p style=""font-size: 60px; font-family: BACS"">hlkTdEPD</p>","","","","","","","","",""
"html-keyboard-response","47","134788","0.0-8.0-0.39","5f219602670e5a0af2cf5237","650c16f0f2faf8d7a0d14c09","651c1dd118a9d74544563e88","null","null","<p style=""font-size: 60px; font-family: BACS"">ZvalvJcL</p>","","","","","","","","",""
"html-keyboard-response","48","135794","0.0-8.0-0.40","5f219602670e5a0af2cf5237","650c16f0f2faf8d7a0d14c09","651c1dd118a9d74544563e88","null","null","<p style=""font-size: 60px; font-family: BACS"">NQZvkYL</p>","","","","","","","","",""
"html-keyboard-response","49","136801","0.0-8.0-0.41","5f219602670e5a0af2cf5237","650c16f0f2faf8d7a0d14c09","651c1dd118a9d74544563e88","null","null","<p style=""font-size: 60px; font-family: BACS"">bYGOZYLU</p>","","","","","","","","",""
"html-keyboard-response","50","137804","0.0-8.0-0.42","5f219602670e5a0af2cf5237","650c16f0f2faf8d7a0d14c09","651c1dd118a9d74544563e88","null","null","<p style=""font-size: 60px; font-family: BACS"">NQZvrAJu</p>","","","","","","","","",""
"html-keyboard-response","51","138815","0.0-8.0-0.43","5f219602670e5a0af2cf5237","650c16f0f2faf8d7a0d14c09","651c1dd118a9d74544563e88","null","null","<p style=""font-size: 60px; font-family: BACS"">GLluAmkc</p>","","","","","","","","",""
"html-keyboard-response","52","139820","0.0-8.0-0.44","5f219602670e5a0af2cf5237","650c16f0f2faf8d7a0d14c09","651c1dd118a9d74544563e88","null","null","<p style=""font-size: 60px; font-family: BACS"">BOCRMdBC</p>","","","","","","","","",""
"html-keyboard-response","53","140829","0.0-8.0-0.45","5f219602670e5a0af2cf5237","650c16f0f2faf8d7a0d14c09","651c1dd118a9d74544563e88","null","null","<p style=""font-size: 60px; font-family: BACS"">EPMDkdCKc</p>","","","","","","","","",""
"html-keyboard-response","54","141838","0.0-8.0-0.46","5f219602670e5a0af2cf5237","650c16f0f2faf8d7a0d14c09","651c1dd118a9d74544563e88","null","null","<p style=""font-size: 60px; font-family: BACS"">UvOGkYL</p>","","","","","","","","",""
"html-keyboard-response","55","142844","0.0-8.0-0.47","5f219602670e5a0af2cf5237","650c16f0f2faf8d7a0d14c09","651c1dd118a9d74544563e88","null","null","<p style=""font-size: 60px; font-family: BACS"">kdEdYdBC</p>","","","","","","","","",""
"html-keyboard-response","56","143851","0.0-8.0-0.48","5f219602670e5a0af2cf5237","650c16f0f2faf8d7a0d14c09","651c1dd118a9d74544563e88","null","null","<p style=""font-size: 60px; font-family: BACS"">McMDKmE</p>","","","","","","","","",""
"html-keyboard-response","57","144862","0.0-8.0-0.49","5f219602670e5a0af2cf5237","650c16f0f2faf8d7a0d14c09","651c1dd118a9d74544563e88","null","null","<p style=""font-size: 60px; font-family: BACS"">aYaNJcL</p>","","","","","","","","",""
"html-keyboard-response","58","145874","0.0-8.0-0.50","5f219602670e5a0af2cf5237","650c16f0f2faf8d7a0d14c09","651c1dd118a9d74544563e88","null","null","<p style=""font-size: 60px; font-family: BACS"">hlkTKmE</p>","","","","","","","","",""
"html-keyboard-response","59","146877","0.0-8.0-0.51","5f219602670e5a0af2cf5237","650c16f0f2faf8d7a0d14c09","651c1dd118a9d74544563e88","null","null","<p style=""font-size: 60px; font-family: BACS"">BOCRMdCKc</p>","","","","","","","","",""
"html-keyboard-response","60","147883","0.0-8.0-0.52","5f219602670e5a0af2cf5237","650c16f0f2faf8d7a0d14c09","651c1dd118a9d74544563e88","null","null","<p style=""font-size: 60px; font-family: BACS"">RtRhKmE</p>","","","","","","","","",""
"html-keyboard-response","61","148885","0.0-8.0-0.53","5f219602670e5a0af2cf5237","650c16f0f2faf8d7a0d14c09","651c1dd118a9d74544563e88","null","null","<p style=""font-size: 60px; font-family: BACS"">kDRKcdBC</p>","","","","","","","","",""
"html-keyboard-response","62","149890","0.0-8.0-0.54","5f219602670e5a0af2cf5237","650c16f0f2faf8d7a0d14c09","651c1dd118a9d74544563e88","null","null","<p style=""font-size: 60px; font-family: BACS"">EPMDkKmE</p>","","","","","","","","",""
"html-keyboard-response","63","150899","0.0-8.0-0.55","5f219602670e5a0af2cf5237","650c16f0f2faf8d7a0d14c09","651c1dd118a9d74544563e88","null","null","<p style=""font-size: 60px; font-family: BACS"">RhPmdCKc</p>","","","","","","","","",""
"html-keyboard-response","64","151905","0.0-8.0-0.56","5f219602670e5a0af2cf5237","650c16f0f2faf8d7a0d14c09","651c1dd118a9d74544563e88","null","null","<p style=""font-size: 60px; font-family: BACS"">kdEdYKmE</p>","","","","","","","","",""
"html-keyboard-response","65","152909","0.0-8.0-0.57","5f219602670e5a0af2cf5237","650c16f0f2faf8d7a0d14c09","651c1dd118a9d74544563e88","null","null","<p style=""font-size: 60px; font-family: BACS"">GLluAYLU</p>","","","","","","","","",""
"html-keyboard-response","66","153917","0.0-8.0-0.58","5f219602670e5a0af2cf5237","650c16f0f2faf8d7a0d14c09","651c1dd118a9d74544563e88","null","null","<p style=""font-size: 60px; font-family: BACS"">RtRhdBC</p>","","","","","","","","",""
"html-keyboard-response","67","154920","0.0-8.0-0.59","5f219602670e5a0af2cf5237","650c16f0f2faf8d7a0d14c09","651c1dd118a9d74544563e88","null","null","<p style=""font-size: 60px; font-family: BACS"">NkUAkYL</p>","","","","","","","","",""
"html-keyboard-response","68","155926","0.0-8.0-0.60","5f219602670e5a0af2cf5237","650c16f0f2faf8d7a0d14c09","651c1dd118a9d74544563e88","null","null","<p style=""font-size: 60px; font-family: BACS"">KElBKmE</p>","","","","","","","","",""
"html-keyboard-response","69","156934","0.0-8.0-0.61","5f219602670e5a0af2cf5237","650c16f0f2faf8d7a0d14c09","651c1dd118a9d74544563e88","null","null","<p style=""font-size: 60px; font-family: BACS"">GLluAJcL</p>","","","","","","","","",""
"html-keyboard-response","70","157938","0.0-8.0-0.62","5f219602670e5a0af2cf5237","650c16f0f2faf8d7a0d14c09","651c1dd118a9d74544563e88","null","null","<p style=""font-size: 60px; font-family: BACS"">cAZukYL</p>","","","","","","","","",""
"html-keyboard-response","71","158942","0.0-8.0-0.63","5f219602670e5a0af2cf5237","650c16f0f2faf8d7a0d14c09","651c1dd118a9d74544563e88","null","null","<p style=""font-size: 60px; font-family: BACS"">RhPmKmE</p>","","","","","","","","",""
"html-keyboard-response","72","159951","0.0-8.0-0.64","5f219602670e5a0af2cf5237","650c16f0f2faf8d7a0d14c09","651c1dd118a9d74544563e88","null","null","<p style=""font-size: 60px; font-family: BACS"">KElBdEPD</p>","","","","","","","","",""
"html-keyboard-response","73","160961","0.0-8.0-0.65","5f219602670e5a0af2cf5237","650c16f0f2faf8d7a0d14c09","651c1dd118a9d74544563e88","null","null","<p style=""font-size: 60px; font-family: BACS"">ZvalvrAJu</p>","","","","","","","","",""
"html-keyboard-response","74","161968","0.0-8.0-0.66","5f219602670e5a0af2cf5237","650c16f0f2faf8d7a0d14c09","651c1dd118a9d74544563e88","null","null","<p style=""font-size: 60px; font-family: BACS"">kdEdYdCKc</p>","","","","","","","","",""
"html-keyboard-response","75","162975","0.0-8.0-0.67","5f219602670e5a0af2cf5237","650c16f0f2faf8d7a0d14c09","651c1dd118a9d74544563e88","null","null","<p style=""font-size: 60px; font-family: BACS"">EPMDkPMd</p>","","","","","","","","",""
"html-keyboard-response","76","163982","0.0-8.0-0.68","5f219602670e5a0af2cf5237","650c16f0f2faf8d7a0d14c09","651c1dd118a9d74544563e88","null","null","<p style=""font-size: 60px; font-family: BACS"">aYaNmkc</p>","","","","","","","","",""
"html-keyboard-response","77","164985","0.0-8.0-0.69","5f219602670e5a0af2cf5237","650c16f0f2faf8d7a0d14c09","651c1dd118a9d74544563e88","null","null","<p style=""font-size: 60px; font-family: BACS"">BOCRMdEPD</p>","","","","","","","","",""
"html-keyboard-response","78","165991","0.0-8.0-0.70","5f219602670e5a0af2cf5237","650c16f0f2faf8d7a0d14c09","651c1dd118a9d74544563e88","null","null","<p style=""font-size: 60px; font-family: BACS"">RtRhPMd</p>","","","","","","","","",""
"html-keyboard-response","79","166996","0.0-8.0-0.71","5f219602670e5a0af2cf5237","650c16f0f2faf8d7a0d14c09","651c1dd118a9d74544563e88","null","null","<p style=""font-size: 60px; font-family: BACS"">McMDdCKc</p>","","","","","","","","",""
"html-keyboard-response","80","168002","0.0-8.0-0.72","5f219602670e5a0af2cf5237","650c16f0f2faf8d7a0d14c09","651c1dd118a9d74544563e88","null","null","<p style=""font-size: 60px; font-family: BACS"">UvOGJcL</p>","","","","","","","","",""
"html-keyboard-response","81","169006","0.0-8.0-0.73","5f219602670e5a0af2cf5237","650c16f0f2faf8d7a0d14c09","651c1dd118a9d74544563e88","null","null","<p style=""font-size: 60px; font-family: BACS"">ZvalvkYL</p>","","","","","","","","",""
"html-keyboard-response","82","170019","0.0-8.0-0.74","5f219602670e5a0af2cf5237","650c16f0f2faf8d7a0d14c09","651c1dd118a9d74544563e88","null","null","<p style=""font-size: 60px; font-family: BACS"">cAZurAJu</p>","","","","","","","","",""
"html-keyboard-response","83","171026","0.0-8.0-0.75","5f219602670e5a0af2cf5237","650c16f0f2faf8d7a0d14c09","651c1dd118a9d74544563e88","null","null","<p style=""font-size: 60px; font-family: BACS"">NQZvmkc</p>","","","","","","","","",""
"html-keyboard-response","84","172032","0.0-8.0-0.76","5f219602670e5a0af2cf5237","650c16f0f2faf8d7a0d14c09","651c1dd118a9d74544563e88","null","null","<p style=""font-size: 60px; font-family: BACS"">bYGOZJcL</p>","","","","","","","","",""
"html-keyboard-response","85","173040","0.0-8.0-0.77","5f219602670e5a0af2cf5237","650c16f0f2faf8d7a0d14c09","651c1dd118a9d74544563e88","null","null","<p style=""font-size: 60px; font-family: BACS"">ckLALkYL</p>","","","","","","","","",""
"html-keyboard-response","86","174049","0.0-8.0-0.78","5f219602670e5a0af2cf5237","650c16f0f2faf8d7a0d14c09","651c1dd118a9d74544563e88","null","null","<p style=""font-size: 60px; font-family: BACS"">kdEdYdEPD</p>","","","","","","","","",""
"html-keyboard-response","87","175053","0.0-8.0-0.79","5f219602670e5a0af2cf5237","650c16f0f2faf8d7a0d14c09","651c1dd118a9d74544563e88","null","null","<p style=""font-size: 60px; font-family: BACS"">ckLALrAJu</p>","","","","","","","","",""
"html-keyboard-response","88","179396","0.0-9.0","5f219602670e5a0af2cf5237","650c16f0f2faf8d7a0d14c09","651c1dd118a9d74544563e88","4342"," ","<p>Great, you've seen the first block of words. You may now take a short break.</p>
      <p>Press the spacebar when you're ready to continue.</p>","","","","","","","","",""
"html-keyboard-response","89","180412","0.0-10.0-0.0","5f219602670e5a0af2cf5237","650c16f0f2faf8d7a0d14c09","651c1dd118a9d74544563e88","null","null","<p style=""font-size: 60px; font-family: BACS"">ckLALJcL</p>","","","","","","","","",""
"html-keyboard-response","90","181419","0.0-10.0-0.1","5f219602670e5a0af2cf5237","650c16f0f2faf8d7a0d14c09","651c1dd118a9d74544563e88","null","null","<p style=""font-size: 60px; font-family: BACS"">hlkTKmE</p>","","","","","","","","",""
"html-keyboard-response","91","182424","0.0-10.0-0.2","5f219602670e5a0af2cf5237","650c16f0f2faf8d7a0d14c09","651c1dd118a9d74544563e88","null","null","<p style=""font-size: 60px; font-family: BACS"">NQZvkYL</p>","","","","","","","","",""
"html-keyboard-response","92","183436","0.0-10.0-0.3","5f219602670e5a0af2cf5237","650c16f0f2faf8d7a0d14c09","651c1dd118a9d74544563e88","null","null","<p style=""font-size: 60px; font-family: BACS"">OJGQYLU</p>","","","","","","","","",""
"html-keyboard-response","93","184443","0.0-10.0-0.4","5f219602670e5a0af2cf5237","650c16f0f2faf8d7a0d14c09","651c1dd118a9d74544563e88","null","null","<p style=""font-size: 60px; font-family: BACS"">kDRKcdBC</p>","","","","","","","","",""
"html-keyboard-response","94","185451","0.0-10.0-0.5","5f219602670e5a0af2cf5237","650c16f0f2faf8d7a0d14c09","651c1dd118a9d74544563e88","null","null","<p style=""font-size: 60px; font-family: BACS"">UvOGkYL</p>","","","","","","","","",""
"html-keyboard-response","95","186456","0.0-10.0-0.6","5f219602670e5a0af2cf5237","650c16f0f2faf8d7a0d14c09","651c1dd118a9d74544563e88","null","null","<p style=""font-size: 60px; font-family: BACS"">OJGQJcL</p>","","","","","","","","",""
"html-keyboard-response","96","187465","0.0-10.0-0.7","5f219602670e5a0af2cf5237","650c16f0f2faf8d7a0d14c09","651c1dd118a9d74544563e88","null","null","<p style=""font-size: 60px; font-family: BACS"">McMDdCKc</p>","","","","","","","","",""
"html-keyboard-response","97","188469","0.0-10.0-0.8","5f219602670e5a0af2cf5237","650c16f0f2faf8d7a0d14c09","651c1dd118a9d74544563e88","null","null","<p style=""font-size: 60px; font-family: BACS"">BOCRMdEPD</p>","","","","","","","","",""
"html-keyboard-response","98","189477","0.0-10.0-0.9","5f219602670e5a0af2cf5237","650c16f0f2faf8d7a0d14c09","651c1dd118a9d74544563e88","null","null","<p style=""font-size: 60px; font-family: BACS"">aYaNmkc</p>","","","","","","","","",""
"html-keyboard-response","99","190492","0.0-10.0-0.10","5f219602670e5a0af2cf5237","650c16f0f2faf8d7a0d14c09","651c1dd118a9d74544563e88","null","null","<p style=""font-size: 60px; font-family: BACS"">kDRKcdCKc</p>","","","","","","","","",""
"html-keyboard-response","100","191499","0.0-10.0-0.11","5f219602670e5a0af2cf5237","650c16f0f2faf8d7a0d14c09","651c1dd118a9d74544563e88","null","null","<p style=""font-size: 60px; font-family: BACS"">GLluAmkc</p>","","","","","","","","",""
"html-keyboard-response","101","192504","0.0-10.0-0.12","5f219602670e5a0af2cf5237","650c16f0f2faf8d7a0d14c09","651c1dd118a9d74544563e88","null","null","<p style=""font-size: 60px; font-family: BACS"">bYGOZJcL</p>","","","","","","","","",""
"html-keyboard-response","102","193512","0.0-10.0-0.13","5f219602670e5a0af2cf5237","650c16f0f2faf8d7a0d14c09","651c1dd118a9d74544563e88","null","null","<p style=""font-size: 60px; font-family: BACS"">OJGQkYL</p>","","","","","","","","",""
"html-keyboard-response","103","194517","0.0-10.0-0.14","5f219602670e5a0af2cf5237","650c16f0f2faf8d7a0d14c09","651c1dd118a9d74544563e88","null","null","<p style=""font-size: 60px; font-family: BACS"">NQZvmkc</p>","","","","","","","","",""
"html-keyboard-response","104","195529","0.0-10.0-0.15","5f219602670e5a0af2cf5237","650c16f0f2faf8d7a0d14c09","651c1dd118a9d74544563e88","null","null","<p style=""font-size: 60px; font-family: BACS"">bYGOZrAJu</p>","","","","","","","","",""
"html-keyboard-response","105","196535","0.0-10.0-0.16","5f219602670e5a0af2cf5237","650c16f0f2faf8d7a0d14c09","651c1dd118a9d74544563e88","null","null","<p style=""font-size: 60px; font-family: BACS"">kdEdYdCKc</p>","","","","","","","","",""
"html-keyboard-response","106","197539","0.0-10.0-0.17","5f219602670e5a0af2cf5237","650c16f0f2faf8d7a0d14c09","651c1dd118a9d74544563e88","null","null","<p style=""font-size: 60px; font-family: BACS"">aYaNkYL</p>","","","","","","","","",""
"html-keyboard-response","107","198549","0.0-10.0-0.18","5f219602670e5a0af2cf5237","650c16f0f2faf8d7a0d14c09","651c1dd118a9d74544563e88","null","null","<p style=""font-size: 60px; font-family: BACS"">RtRhKmE</p>","","","","","","","","",""
"html-keyboard-response","108","199555","0.0-10.0-0.19","5f219602670e5a0af2cf5237","650c16f0f2faf8d7a0d14c09","651c1dd118a9d74544563e88","null","null","<p style=""font-size: 60px; font-family: BACS"">hlkTdEPD</p>","","","","","","","","",""
"html-keyboard-response","109","200560","0.0-10.0-0.20","5f219602670e5a0af2cf5237","650c16f0f2faf8d7a0d14c09","651c1dd118a9d74544563e88","null","null","<p style=""font-size: 60px; font-family: BACS"">GLluAJcL</p>","","","","","","","","",""
"html-keyboard-response","110","201571","0.0-10.0-0.21","5f219602670e5a0af2cf5237","650c16f0f2faf8d7a0d14c09","651c1dd118a9d74544563e88","null","null","<p style=""font-size: 60px; font-family: BACS"">DmAMEdEPD</p>","","","","","","","","",""
"html-keyboard-response","111","202586","0.0-10.0-0.22","5f219602670e5a0af2cf5237","650c16f0f2faf8d7a0d14c09","651c1dd118a9d74544563e88","null","null","<p style=""font-size: 60px; font-family: BACS"">UvOGJcL</p>","","","","","","","","",""
"html-keyboard-response","112","203596","0.0-10.0-0.23","5f219602670e5a0af2cf5237","650c16f0f2faf8d7a0d14c09","651c1dd118a9d74544563e88","null","null","<p style=""font-size: 60px; font-family: BACS"">NkUArAJu</p>","","","","","","","","",""
"html-keyboard-response","113","204602","0.0-10.0-0.24","5f219602670e5a0af2cf5237","650c16f0f2faf8d7a0d14c09","651c1dd118a9d74544563e88","null","null","<p style=""font-size: 60px; font-family: BACS"">McMDdBC</p>","","","","","","","","",""
"html-keyboard-response","114","205605","0.0-10.0-0.25","5f219602670e5a0af2cf5237","650c16f0f2faf8d7a0d14c09","651c1dd118a9d74544563e88","null","null","<p style=""font-size: 60px; font-family: BACS"">cAZumkc</p>","","","","","","","","",""
"html-keyboard-response","115","206611","0.0-10.0-0.26","5f219602670e5a0af2cf5237","650c16f0f2faf8d7a0d14c09","651c1dd118a9d74544563e88","null","null","<p style=""font-size: 60px; font-family: BACS"">McMDPMd</p>","","","","","","","","",""
"html-keyboard-response","116","207620","0.0-10.0-0.27","5f219602670e5a0af2cf5237","650c16f0f2faf8d7a0d14c09","651c1dd118a9d74544563e88","null","null","<p style=""font-size: 60px; font-family: BACS"">BOCRMdBC</p>","","","","","","","","",""
"html-keyboard-response","117","208627","0.0-10.0-0.28","5f219602670e5a0af2cf5237","650c16f0f2faf8d7a0d14c09","651c1dd118a9d74544563e88","null","null","<p style=""font-size: 60px; font-family: BACS"">ZvalvJcL</p>","","","","","","","","",""
"html-keyboard-response","118","209636","0.0-10.0-0.29","5f219602670e5a0af2cf5237","650c16f0f2faf8d7a0d14c09","651c1dd118a9d74544563e88","null","null","<p style=""font-size: 60px; font-family: BACS"">kdEdYKmE</p>","","","","","","","","",""
"html-keyboard-response","119","210640","0.0-10.0-0.30","5f219602670e5a0af2cf5237","650c16f0f2faf8d7a0d14c09","651c1dd118a9d74544563e88","null","null","<p style=""font-size: 60px; font-family: BACS"">RtRhPMd</p>","","","","","","","","",""
"html-keyboard-response","120","211646","0.0-10.0-0.31","5f219602670e5a0af2cf5237","650c16f0f2faf8d7a0d14c09","651c1dd118a9d74544563e88","null","null","<p style=""font-size: 60px; font-family: BACS"">EPMDkKmE</p>","","","","","","","","",""
"html-keyboard-response","121","212652","0.0-10.0-0.32","5f219602670e5a0af2cf5237","650c16f0f2faf8d7a0d14c09","651c1dd118a9d74544563e88","null","null","<p style=""font-size: 60px; font-family: BACS"">bYGOZYLU</p>","","","","","","","","",""
"html-keyboard-response","122","213663","0.0-10.0-0.33","5f219602670e5a0af2cf5237","650c16f0f2faf8d7a0d14c09","651c1dd118a9d74544563e88","null","null","<p style=""font-size: 60px; font-family: BACS"">KElBKmE</p>","","","","","","","","",""
"html-keyboard-response","123","214670","0.0-10.0-0.34","5f219602670e5a0af2cf5237","650c16f0f2faf8d7a0d14c09","651c1dd118a9d74544563e88","null","null","<p style=""font-size: 60px; font-family: BACS"">kdEdYdBC</p>","","","","","","","","",""
"html-keyboard-response","124","215677","0.0-10.0-0.35","5f219602670e5a0af2cf5237","650c16f0f2faf8d7a0d14c09","651c1dd118a9d74544563e88","null","null","<p style=""font-size: 60px; font-family: BACS"">KElBdEPD</p>","","","","","","","","",""
"html-keyboard-response","125","216684","0.0-10.0-0.36","5f219602670e5a0af2cf5237","650c16f0f2faf8d7a0d14c09","651c1dd118a9d74544563e88","null","null","<p style=""font-size: 60px; font-family: BACS"">RtRhdBC</p>","","","","","","","","",""
"html-keyboard-response","126","217688","0.0-10.0-0.37","5f219602670e5a0af2cf5237","650c16f0f2faf8d7a0d14c09","651c1dd118a9d74544563e88","null","null","<p style=""font-size: 60px; font-family: BACS"">GLluAYLU</p>","","","","","","","","",""
"html-keyboard-response","127","218693","0.0-10.0-0.38","5f219602670e5a0af2cf5237","650c16f0f2faf8d7a0d14c09","651c1dd118a9d74544563e88","null","null","<p style=""font-size: 60px; font-family: BACS"">BOCRMPMd</p>","","","","","","","","",""
"html-keyboard-response","128","219701","0.0-10.0-0.39","5f219602670e5a0af2cf5237","650c16f0f2faf8d7a0d14c09","651c1dd118a9d74544563e88","null","null","<p style=""font-size: 60px; font-family: BACS"">UvOGmkc</p>","","","","","","","","",""
"html-keyboard-response","129","220708","0.0-10.0-0.40","5f219602670e5a0af2cf5237","650c16f0f2faf8d7a0d14c09","651c1dd118a9d74544563e88","null","null","<p style=""font-size: 60px; font-family: BACS"">GLluArAJu</p>","","","","","","","","",""
"html-keyboard-response","130","221716","0.0-10.0-0.41","5f219602670e5a0af2cf5237","650c16f0f2faf8d7a0d14c09","651c1dd118a9d74544563e88","null","null","<p style=""font-size: 60px; font-family: BACS"">ckLALkYL</p>","","","","","","","","",""
"html-keyboard-response","131","222724","0.0-10.0-0.42","5f219602670e5a0af2cf5237","650c16f0f2faf8d7a0d14c09","651c1dd118a9d74544563e88","null","null","<p style=""font-size: 60px; font-family: BACS"">ZvalvrAJu</p>","","","","","","","","",""
"html-keyboard-response","132","223733","0.0-10.0-0.43","5f219602670e5a0af2cf5237","650c16f0f2faf8d7a0d14c09","651c1dd118a9d74544563e88","null","null","<p style=""font-size: 60px; font-family: BACS"">EPMDkdCKc</p>","","","","","","","","",""
"html-keyboard-response","133","224736","0.0-10.0-0.44","5f219602670e5a0af2cf5237","650c16f0f2faf8d7a0d14c09","651c1dd118a9d74544563e88","null","null","<p style=""font-size: 60px; font-family: BACS"">KElBPMd</p>","","","","","","","","",""
"html-keyboard-response","134","225740","0.0-10.0-0.45","5f219602670e5a0af2cf5237","650c16f0f2faf8d7a0d14c09","651c1dd118a9d74544563e88","null","null","<p style=""font-size: 60px; font-family: BACS"">kDRKcdEPD</p>","","","","","","","","",""
"html-keyboard-response","135","226750","0.0-10.0-0.46","5f219602670e5a0af2cf5237","650c16f0f2faf8d7a0d14c09","651c1dd118a9d74544563e88","null","null","<p style=""font-size: 60px; font-family: BACS"">cAZuJcL</p>","","","","","","","","",""
"html-keyboard-response","136","227757","0.0-10.0-0.47","5f219602670e5a0af2cf5237","650c16f0f2faf8d7a0d14c09","651c1dd118a9d74544563e88","null","null","<p style=""font-size: 60px; font-family: BACS"">RhPmdCKc</p>","","","","","","","","",""
"html-keyboard-response","137","228771","0.0-10.0-0.48","5f219602670e5a0af2cf5237","650c16f0f2faf8d7a0d14c09","651c1dd118a9d74544563e88","null","null","<p style=""font-size: 60px; font-family: BACS"">NkUAkYL</p>","","","","","","","","",""
"html-keyboard-response","138","229779","0.0-10.0-0.49","5f219602670e5a0af2cf5237","650c16f0f2faf8d7a0d14c09","651c1dd118a9d74544563e88","null","null","<p style=""font-size: 60px; font-family: BACS"">DmAMEdCKc</p>","","","","","","","","",""
"html-keyboard-response","139","230790","0.0-10.0-0.50","5f219602670e5a0af2cf5237","650c16f0f2faf8d7a0d14c09","651c1dd118a9d74544563e88","null","null","<p style=""font-size: 60px; font-family: BACS"">kDRKcKmE</p>","","","","","","","","",""
"html-keyboard-response","140","231802","0.0-10.0-0.51","5f219602670e5a0af2cf5237","650c16f0f2faf8d7a0d14c09","651c1dd118a9d74544563e88","null","null","<p style=""font-size: 60px; font-family: BACS"">UvOGYLU</p>","","","","","","","","",""
"html-keyboard-response","141","232811","0.0-10.0-0.52","5f219602670e5a0af2cf5237","650c16f0f2faf8d7a0d14c09","651c1dd118a9d74544563e88","null","null","<p style=""font-size: 60px; font-family: BACS"">cAZukYL</p>","","","","","","","","",""
"html-keyboard-response","142","233815","0.0-10.0-0.53","5f219602670e5a0af2cf5237","650c16f0f2faf8d7a0d14c09","651c1dd118a9d74544563e88","null","null","<p style=""font-size: 60px; font-family: BACS"">RhPmPMd</p>","","","","","","","","",""
"html-keyboard-response","143","234821","0.0-10.0-0.54","5f219602670e5a0af2cf5237","650c16f0f2faf8d7a0d14c09","651c1dd118a9d74544563e88","null","null","<p style=""font-size: 60px; font-family: BACS"">bYGOZmkc</p>","","","","","","","","",""
"html-keyboard-response","144","235827","0.0-10.0-0.55","5f219602670e5a0af2cf5237","650c16f0f2faf8d7a0d14c09","651c1dd118a9d74544563e88","null","null","<p style=""font-size: 60px; font-family: BACS"">aYaNYLU</p>","","","","","","","","",""
"html-keyboard-response","145","236835","0.0-10.0-0.56","5f219602670e5a0af2cf5237","650c16f0f2faf8d7a0d14c09","651c1dd118a9d74544563e88","null","null","<p style=""font-size: 60px; font-family: BACS"">NQZvrAJu</p>","","","","","","","","",""
"html-keyboard-response","146","237847","0.0-10.0-0.57","5f219602670e5a0af2cf5237","650c16f0f2faf8d7a0d14c09","651c1dd118a9d74544563e88","null","null","<p style=""font-size: 60px; font-family: BACS"">NkUAYLU</p>","","","","","","","","",""
"html-keyboard-response","147","238852","0.0-10.0-0.58","5f219602670e5a0af2cf5237","650c16f0f2faf8d7a0d14c09","651c1dd118a9d74544563e88","null","null","<p style=""font-size: 60px; font-family: BACS"">aYaNJcL</p>","","","","","","","","",""
"html-keyboard-response","148","239857","0.0-10.0-0.59","5f219602670e5a0af2cf5237","650c16f0f2faf8d7a0d14c09","651c1dd118a9d74544563e88","null","null","<p style=""font-size: 60px; font-family: BACS"">McMDKmE</p>","","","","","","","","",""
"html-keyboard-response","149","240865","0.0-10.0-0.60","5f219602670e5a0af2cf5237","650c16f0f2faf8d7a0d14c09","651c1dd118a9d74544563e88","null","null","<p style=""font-size: 60px; font-family: BACS"">NQZvYLU</p>","","","","","","","","",""
"html-keyboard-response","150","241871","0.0-10.0-0.61","5f219602670e5a0af2cf5237","650c16f0f2faf8d7a0d14c09","651c1dd118a9d74544563e88","null","null","<p style=""font-size: 60px; font-family: BACS"">KElBdCKc</p>","","","","","","","","",""
"html-keyboard-response","151","242880","0.0-10.0-0.62","5f219602670e5a0af2cf5237","650c16f0f2faf8d7a0d14c09","651c1dd118a9d74544563e88","null","null","<p style=""font-size: 60px; font-family: BACS"">hlkTdBC</p>","","","","","","","","",""
"html-keyboard-response","152","243885","0.0-10.0-0.63","5f219602670e5a0af2cf5237","650c16f0f2faf8d7a0d14c09","651c1dd118a9d74544563e88","null","null","<p style=""font-size: 60px; font-family: BACS"">OJGQrAJu</p>","","","","","","","","",""
"html-keyboard-response","153","244890","0.0-10.0-0.64","5f219602670e5a0af2cf5237","650c16f0f2faf8d7a0d14c09","651c1dd118a9d74544563e88","null","null","<p style=""font-size: 60px; font-family: BACS"">kdEdYdEPD</p>","","","","","","","","",""
"html-keyboard-response","154","245897","0.0-10.0-0.65","5f219602670e5a0af2cf5237","650c16f0f2faf8d7a0d14c09","651c1dd118a9d74544563e88","null","null","<p style=""font-size: 60px; font-family: BACS"">ckLALrAJu</p>","","","","","","","","",""
"html-keyboard-response","155","246901","0.0-10.0-0.66","5f219602670e5a0af2cf5237","650c16f0f2faf8d7a0d14c09","651c1dd118a9d74544563e88","null","null","<p style=""font-size: 60px; font-family: BACS"">RhPmKmE</p>","","","","","","","","",""
"html-keyboard-response","156","247908","0.0-10.0-0.67","5f219602670e5a0af2cf5237","650c16f0f2faf8d7a0d14c09","651c1dd118a9d74544563e88","null","null","<p style=""font-size: 60px; font-family: BACS"">EPMDkdEPD</p>","","","","","","","","",""
"html-keyboard-response","157","248911","0.0-10.0-0.68","5f219602670e5a0af2cf5237","650c16f0f2faf8d7a0d14c09","651c1dd118a9d74544563e88","null","null","<p style=""font-size: 60px; font-family: BACS"">hlkTPMd</p>","","","","","","","","",""
"html-keyboard-response","158","249923","0.0-10.0-0.69","5f219602670e5a0af2cf5237","650c16f0f2faf8d7a0d14c09","651c1dd118a9d74544563e88","null","null","<p style=""font-size: 60px; font-family: BACS"">BOCRMdCKc</p>","","","","","","","","",""
"html-keyboard-response","159","250929","0.0-10.0-0.70","5f219602670e5a0af2cf5237","650c16f0f2faf8d7a0d14c09","651c1dd118a9d74544563e88","null","null","<p style=""font-size: 60px; font-family: BACS"">DmAMEdBC</p>","","","","","","","","",""
"html-keyboard-response","160","251940","0.0-10.0-0.71","5f219602670e5a0af2cf5237","650c16f0f2faf8d7a0d14c09","651c1dd118a9d74544563e88","null","null","<p style=""font-size: 60px; font-family: BACS"">NkUAmkc</p>","","","","","","","","",""
"html-keyboard-response","161","252950","0.0-10.0-0.72","5f219602670e5a0af2cf5237","650c16f0f2faf8d7a0d14c09","651c1dd118a9d74544563e88","null","null","<p style=""font-size: 60px; font-family: BACS"">DmAMEPMd</p>","","","","","","","","",""
"html-keyboard-response","162","253958","0.0-10.0-0.73","5f219602670e5a0af2cf5237","650c16f0f2faf8d7a0d14c09","651c1dd118a9d74544563e88","null","null","<p style=""font-size: 60px; font-family: BACS"">ZvalvkYL</p>","","","","","","","","",""
"html-keyboard-response","163","254974","0.0-10.0-0.74","5f219602670e5a0af2cf5237","650c16f0f2faf8d7a0d14c09","651c1dd118a9d74544563e88","null","null","<p style=""font-size: 60px; font-family: BACS"">RtRhdEPD</p>","","","","","","","","",""
"html-keyboard-response","164","255980","0.0-10.0-0.75","5f219602670e5a0af2cf5237","650c16f0f2faf8d7a0d14c09","651c1dd118a9d74544563e88","null","null","<p style=""font-size: 60px; font-family: BACS"">ckLALYLU</p>","","","","","","","","",""
"html-keyboard-response","165","256990","0.0-10.0-0.76","5f219602670e5a0af2cf5237","650c16f0f2faf8d7a0d14c09","651c1dd118a9d74544563e88","null","null","<p style=""font-size: 60px; font-family: BACS"">cAZurAJu</p>","","","","","","","","",""
"html-keyboard-response","166","257998","0.0-10.0-0.77","5f219602670e5a0af2cf5237","650c16f0f2faf8d7a0d14c09","651c1dd118a9d74544563e88","null","null","<p style=""font-size: 60px; font-family: BACS"">RhPmdBC</p>","","","","","","","","",""
"html-keyboard-response","167","259008","0.0-10.0-0.78","5f219602670e5a0af2cf5237","650c16f0f2faf8d7a0d14c09","651c1dd118a9d74544563e88","null","null","<p style=""font-size: 60px; font-family: BACS"">EPMDkPMd</p>","","","","","","","","",""
"html-keyboard-response","168","260014","0.0-10.0-0.79","5f219602670e5a0af2cf5237","650c16f0f2faf8d7a0d14c09","651c1dd118a9d74544563e88","null","null","<p style=""font-size: 60px; font-family: BACS"">Zvalvmkc</p>","","","","","","","","",""
"html-keyboard-response","169","263537","0.0-11.0","5f219602670e5a0af2cf5237","650c16f0f2faf8d7a0d14c09","651c1dd118a9d74544563e88","3522"," ","<p>Great, you've seen the second block of words. You may now take a short break.</p>
      <p>Press the spacebar when you're ready to continue.</p>","","","","","","","","",""
"html-keyboard-response","170","264543","0.0-12.0-0.0","5f219602670e5a0af2cf5237","650c16f0f2faf8d7a0d14c09","651c1dd118a9d74544563e88","null","null","<p style=""font-size: 60px; font-family: BACS"">NkUAYLU</p>","","","","","","","","",""
"html-keyboard-response","171","265550","0.0-12.0-0.1","5f219602670e5a0af2cf5237","650c16f0f2faf8d7a0d14c09","651c1dd118a9d74544563e88","null","null","<p style=""font-size: 60px; font-family: BACS"">hlkTKmE</p>","","","","","","","","",""
"html-keyboard-response","172","266559","0.0-12.0-0.2","5f219602670e5a0af2cf5237","650c16f0f2faf8d7a0d14c09","651c1dd118a9d74544563e88","null","null","<p style=""font-size: 60px; font-family: BACS"">OJGQJcL</p>","","","","","","","","",""
"html-keyboard-response","173","267563","0.0-12.0-0.3","5f219602670e5a0af2cf5237","650c16f0f2faf8d7a0d14c09","651c1dd118a9d74544563e88","null","null","<p style=""font-size: 60px; font-family: BACS"">NQZvkYL</p>","","","","","","","","",""
"html-keyboard-response","174","268570","0.0-12.0-0.4","5f219602670e5a0af2cf5237","650c16f0f2faf8d7a0d14c09","651c1dd118a9d74544563e88","null","null","<p style=""font-size: 60px; font-family: BACS"">RtRhKmE</p>","","","","","","","","",""
"html-keyboard-response","175","269572","0.0-12.0-0.5","5f219602670e5a0af2cf5237","650c16f0f2faf8d7a0d14c09","651c1dd118a9d74544563e88","null","null","<p style=""font-size: 60px; font-family: BACS"">bYGOZrAJu</p>","","","","","","","","",""
"html-keyboard-response","176","270580","0.0-12.0-0.6","5f219602670e5a0af2cf5237","650c16f0f2faf8d7a0d14c09","651c1dd118a9d74544563e88","null","null","<p style=""font-size: 60px; font-family: BACS"">hlkTdEPD</p>","","","","","","","","",""
"html-keyboard-response","177","271588","0.0-12.0-0.7","5f219602670e5a0af2cf5237","650c16f0f2faf8d7a0d14c09","651c1dd118a9d74544563e88","null","null","<p style=""font-size: 60px; font-family: BACS"">NkUArAJu</p>","","","","","","","","",""
"html-keyboard-response","178","272598","0.0-12.0-0.8","5f219602670e5a0af2cf5237","650c16f0f2faf8d7a0d14c09","651c1dd118a9d74544563e88","null","null","<p style=""font-size: 60px; font-family: BACS"">kDRKcdCKc</p>","","","","","","","","",""
"html-keyboard-response","179","273602","0.0-12.0-0.9","5f219602670e5a0af2cf5237","650c16f0f2faf8d7a0d14c09","651c1dd118a9d74544563e88","null","null","<p style=""font-size: 60px; font-family: BACS"">KElBPMd</p>","","","","","","","","",""
"html-keyboard-response","180","274607","0.0-12.0-0.10","5f219602670e5a0af2cf5237","650c16f0f2faf8d7a0d14c09","651c1dd118a9d74544563e88","null","null","<p style=""font-size: 60px; font-family: BACS"">McMDKmE</p>","","","","","","","","",""
"html-keyboard-response","181","275609","0.0-12.0-0.11","5f219602670e5a0af2cf5237","650c16f0f2faf8d7a0d14c09","651c1dd118a9d74544563e88","null","null","<p style=""font-size: 60px; font-family: BACS"">BOCRMdEPD</p>","","","","","","","","",""
"html-keyboard-response","182","276616","0.0-12.0-0.12","5f219602670e5a0af2cf5237","650c16f0f2faf8d7a0d14c09","651c1dd118a9d74544563e88","null","null","<p style=""font-size: 60px; font-family: BACS"">OJGQYLU</p>","","","","","","","","",""
"html-keyboard-response","183","277623","0.0-12.0-0.13","5f219602670e5a0af2cf5237","650c16f0f2faf8d7a0d14c09","651c1dd118a9d74544563e88","null","null","<p style=""font-size: 60px; font-family: BACS"">ZvalvkYL</p>","","","","","","","","",""
"html-keyboard-response","184","278633","0.0-12.0-0.14","5f219602670e5a0af2cf5237","650c16f0f2faf8d7a0d14c09","651c1dd118a9d74544563e88","null","null","<p style=""font-size: 60px; font-family: BACS"">GLluAJcL</p>","","","","","","","","",""
"html-keyboard-response","185","279642","0.0-12.0-0.15","5f219602670e5a0af2cf5237","650c16f0f2faf8d7a0d14c09","651c1dd118a9d74544563e88","null","null","<p style=""font-size: 60px; font-family: BACS"">NQZvmkc</p>","","","","","","","","",""
"html-keyboard-response","186","280648","0.0-12.0-0.16","5f219602670e5a0af2cf5237","650c16f0f2faf8d7a0d14c09","651c1dd118a9d74544563e88","null","null","<p style=""font-size: 60px; font-family: BACS"">cAZurAJu</p>","","","","","","","","",""
"html-keyboard-response","187","281656","0.0-12.0-0.17","5f219602670e5a0af2cf5237","650c16f0f2faf8d7a0d14c09","651c1dd118a9d74544563e88","null","null","<p style=""font-size: 60px; font-family: BACS"">kDRKcdBC</p>","","","","","","","","",""
"html-keyboard-response","188","282664","0.0-12.0-0.18","5f219602670e5a0af2cf5237","650c16f0f2faf8d7a0d14c09","651c1dd118a9d74544563e88","null","null","<p style=""font-size: 60px; font-family: BACS"">NkUAmkc</p>","","","","","","","","",""
"html-keyboard-response","189","283672","0.0-12.0-0.19","5f219602670e5a0af2cf5237","650c16f0f2faf8d7a0d14c09","651c1dd118a9d74544563e88","null","null","<p style=""font-size: 60px; font-family: BACS"">McMDPMd</p>","","","","","","","","",""
"html-keyboard-response","190","284678","0.0-12.0-0.20","5f219602670e5a0af2cf5237","650c16f0f2faf8d7a0d14c09","651c1dd118a9d74544563e88","null","null","<p style=""font-size: 60px; font-family: BACS"">GLluAmkc</p>","","","","","","","","",""
"html-keyboard-response","191","285688","0.0-12.0-0.21","5f219602670e5a0af2cf5237","650c16f0f2faf8d7a0d14c09","651c1dd118a9d74544563e88","null","null","<p style=""font-size: 60px; font-family: BACS"">ckLALYLU</p>","","","","","","","","",""
"html-keyboard-response","192","286696","0.0-12.0-0.22","5f219602670e5a0af2cf5237","650c16f0f2faf8d7a0d14c09","651c1dd118a9d74544563e88","null","null","<p style=""font-size: 60px; font-family: BACS"">aYaNkYL</p>","","","","","","","","",""
"html-keyboard-response","193","287702","0.0-12.0-0.23","5f219602670e5a0af2cf5237","650c16f0f2faf8d7a0d14c09","651c1dd118a9d74544563e88","null","null","<p style=""font-size: 60px; font-family: BACS"">RtRhdBC</p>","","","","","","","","",""
"html-keyboard-response","194","288709","0.0-12.0-0.24","5f219602670e5a0af2cf5237","650c16f0f2faf8d7a0d14c09","651c1dd118a9d74544563e88","null","null","<p style=""font-size: 60px; font-family: BACS"">ckLALrAJu</p>","","","","","","","","",""
"html-keyboard-response","195","289712","0.0-12.0-0.25","5f219602670e5a0af2cf5237","650c16f0f2faf8d7a0d14c09","651c1dd118a9d74544563e88","null","null","<p style=""font-size: 60px; font-family: BACS"">aYaNJcL</p>","","","","","","","","",""
"html-keyboard-response","196","290719","0.0-12.0-0.26","5f219602670e5a0af2cf5237","650c16f0f2faf8d7a0d14c09","651c1dd118a9d74544563e88","null","null","<p style=""font-size: 60px; font-family: BACS"">UvOGkYL</p>","","","","","","","","",""
"html-keyboard-response","197","291723","0.0-12.0-0.27","5f219602670e5a0af2cf5237","650c16f0f2faf8d7a0d14c09","651c1dd118a9d74544563e88","null","null","<p style=""font-size: 60px; font-family: BACS"">kdEdYdCKc</p>","","","","","","","","",""
"html-keyboard-response","198","292727","0.0-12.0-0.28","5f219602670e5a0af2cf5237","650c16f0f2faf8d7a0d14c09","651c1dd118a9d74544563e88","null","null","<p style=""font-size: 60px; font-family: BACS"">DmAMEdBC</p>","","","","","","","","",""
"html-keyboard-response","199","293732","0.0-12.0-0.29","5f219602670e5a0af2cf5237","650c16f0f2faf8d7a0d14c09","651c1dd118a9d74544563e88","null","null","<p style=""font-size: 60px; font-family: BACS"">kdEdYdEPD</p>","","","","","","","","",""
"html-keyboard-response","200","294737","0.0-12.0-0.30","5f219602670e5a0af2cf5237","650c16f0f2faf8d7a0d14c09","651c1dd118a9d74544563e88","null","null","<p style=""font-size: 60px; font-family: BACS"">RhPmKmE</p>","","","","","","","","",""
"html-keyboard-response","201","295742","0.0-12.0-0.31","5f219602670e5a0af2cf5237","650c16f0f2faf8d7a0d14c09","651c1dd118a9d74544563e88","null","null","<p style=""font-size: 60px; font-family: BACS"">bYGOZmkc</p>","","","","","","","","",""
"html-keyboard-response","202","296751","0.0-12.0-0.32","5f219602670e5a0af2cf5237","650c16f0f2faf8d7a0d14c09","651c1dd118a9d74544563e88","null","null","<p style=""font-size: 60px; font-family: BACS"">EPMDkdCKc</p>","","","","","","","","",""
"html-keyboard-response","203","297754","0.0-12.0-0.33","5f219602670e5a0af2cf5237","650c16f0f2faf8d7a0d14c09","651c1dd118a9d74544563e88","null","null","<p style=""font-size: 60px; font-family: BACS"">DmAMEdEPD</p>","","","","","","","","",""
"html-keyboard-response","204","298761","0.0-12.0-0.34","5f219602670e5a0af2cf5237","650c16f0f2faf8d7a0d14c09","651c1dd118a9d74544563e88","null","null","<p style=""font-size: 60px; font-family: BACS"">BOCRMPMd</p>","","","","","","","","",""
"html-keyboard-response","205","299769","0.0-12.0-0.35","5f219602670e5a0af2cf5237","650c16f0f2faf8d7a0d14c09","651c1dd118a9d74544563e88","null","null","<p style=""font-size: 60px; font-family: BACS"">RtRhdEPD</p>","","","","","","","","",""
"html-keyboard-response","206","300777","0.0-12.0-0.36","5f219602670e5a0af2cf5237","650c16f0f2faf8d7a0d14c09","651c1dd118a9d74544563e88","null","null","<p style=""font-size: 60px; font-family: BACS"">ZvalvrAJu</p>","","","","","","","","",""
"html-keyboard-response","207","301785","0.0-12.0-0.37","5f219602670e5a0af2cf5237","650c16f0f2faf8d7a0d14c09","651c1dd118a9d74544563e88","null","null","<p style=""font-size: 60px; font-family: BACS"">aYaNYLU</p>","","","","","","","","",""
"html-keyboard-response","208","302791","0.0-12.0-0.38","5f219602670e5a0af2cf5237","650c16f0f2faf8d7a0d14c09","651c1dd118a9d74544563e88","null","null","<p style=""font-size: 60px; font-family: BACS"">hlkTPMd</p>","","","","","","","","",""
"html-keyboard-response","209","303797","0.0-12.0-0.39","5f219602670e5a0af2cf5237","650c16f0f2faf8d7a0d14c09","651c1dd118a9d74544563e88","null","null","<p style=""font-size: 60px; font-family: BACS"">McMDdBC</p>","","","","","","","","",""
"html-keyboard-response","210","304799","0.0-12.0-0.40","5f219602670e5a0af2cf5237","650c16f0f2faf8d7a0d14c09","651c1dd118a9d74544563e88","null","null","<p style=""font-size: 60px; font-family: BACS"">DmAMEPMd</p>","","","","","","","","",""
"html-keyboard-response","211","305812","0.0-12.0-0.41","5f219602670e5a0af2cf5237","650c16f0f2faf8d7a0d14c09","651c1dd118a9d74544563e88","null","null","<p style=""font-size: 60px; font-family: BACS"">aYaNmkc</p>","","","","","","","","",""
"html-keyboard-response","212","306819","0.0-12.0-0.42","5f219602670e5a0af2cf5237","650c16f0f2faf8d7a0d14c09","651c1dd118a9d74544563e88","null","null","<p style=""font-size: 60px; font-family: BACS"">OJGQrAJu</p>","","","","","","","","",""
"html-keyboard-response","213","307823","0.0-12.0-0.43","5f219602670e5a0af2cf5237","650c16f0f2faf8d7a0d14c09","651c1dd118a9d74544563e88","null","null","<p style=""font-size: 60px; font-family: BACS"">GLluAYLU</p>","","","","","","","","",""
"html-keyboard-response","214","308828","0.0-12.0-0.44","5f219602670e5a0af2cf5237","650c16f0f2faf8d7a0d14c09","651c1dd118a9d74544563e88","null","null","<p style=""font-size: 60px; font-family: BACS"">ckLALkYL</p>","","","","","","","","",""
"html-keyboard-response","215","309834","0.0-12.0-0.45","5f219602670e5a0af2cf5237","650c16f0f2faf8d7a0d14c09","651c1dd118a9d74544563e88","null","null","<p style=""font-size: 60px; font-family: BACS"">RhPmdCKc</p>","","","","","","","","",""
"html-keyboard-response","216","310842","0.0-12.0-0.46","5f219602670e5a0af2cf5237","650c16f0f2faf8d7a0d14c09","651c1dd118a9d74544563e88","null","null","<p style=""font-size: 60px; font-family: BACS"">KElBKmE</p>","","","","","","","","",""
"html-keyboard-response","217","311846","0.0-12.0-0.47","5f219602670e5a0af2cf5237","650c16f0f2faf8d7a0d14c09","651c1dd118a9d74544563e88","null","null","<p style=""font-size: 60px; font-family: BACS"">kdEdYdBC</p>","","","","","","","","",""
"html-keyboard-response","218","312851","0.0-12.0-0.48","5f219602670e5a0af2cf5237","650c16f0f2faf8d7a0d14c09","651c1dd118a9d74544563e88","null","null","<p style=""font-size: 60px; font-family: BACS"">cAZuJcL</p>","","","","","","","","",""
"html-keyboard-response","219","313859","0.0-12.0-0.49","5f219602670e5a0af2cf5237","650c16f0f2faf8d7a0d14c09","651c1dd118a9d74544563e88","null","null","<p style=""font-size: 60px; font-family: BACS"">BOCRMdCKc</p>","","","","","","","","",""
"html-keyboard-response","220","314871","0.0-12.0-0.50","5f219602670e5a0af2cf5237","650c16f0f2faf8d7a0d14c09","651c1dd118a9d74544563e88","null","null","<p style=""font-size: 60px; font-family: BACS"">EPMDkdEPD</p>","","","","","","","","",""
"html-keyboard-response","221","315881","0.0-12.0-0.51","5f219602670e5a0af2cf5237","650c16f0f2faf8d7a0d14c09","651c1dd118a9d74544563e88","null","null","<p style=""font-size: 60px; font-family: BACS"">OJGQkYL</p>","","","","","","","","",""
"html-keyboard-response","222","316890","0.0-12.0-0.52","5f219602670e5a0af2cf5237","650c16f0f2faf8d7a0d14c09","651c1dd118a9d74544563e88","null","null","<p style=""font-size: 60px; font-family: BACS"">ckLALJcL</p>","","","","","","","","",""
"html-keyboard-response","223","317899","0.0-12.0-0.53","5f219602670e5a0af2cf5237","650c16f0f2faf8d7a0d14c09","651c1dd118a9d74544563e88","null","null","<p style=""font-size: 60px; font-family: BACS"">kdEdYKmE</p>","","","","","","","","",""
"html-keyboard-response","224","318908","0.0-12.0-0.54","5f219602670e5a0af2cf5237","650c16f0f2faf8d7a0d14c09","651c1dd118a9d74544563e88","null","null","<p style=""font-size: 60px; font-family: BACS"">BOCRMdBC</p>","","","","","","","","",""
"html-keyboard-response","225","319912","0.0-12.0-0.55","5f219602670e5a0af2cf5237","650c16f0f2faf8d7a0d14c09","651c1dd118a9d74544563e88","null","null","<p style=""font-size: 60px; font-family: BACS"">cAZumkc</p>","","","","","","","","",""
"html-keyboard-response","226","320927","0.0-12.0-0.56","5f219602670e5a0af2cf5237","650c16f0f2faf8d7a0d14c09","651c1dd118a9d74544563e88","null","null","<p style=""font-size: 60px; font-family: BACS"">RhPmdBC</p>","","","","","","","","",""
"html-keyboard-response","227","321933","0.0-12.0-0.57","5f219602670e5a0af2cf5237","650c16f0f2faf8d7a0d14c09","651c1dd118a9d74544563e88","null","null","<p style=""font-size: 60px; font-family: BACS"">Zvalvmkc</p>","","","","","","","","",""
"html-keyboard-response","228","322940","0.0-12.0-0.58","5f219602670e5a0af2cf5237","650c16f0f2faf8d7a0d14c09","651c1dd118a9d74544563e88","null","null","<p style=""font-size: 60px; font-family: BACS"">NkUAkYL</p>","","","","","","","","",""
"html-keyboard-response","229","323945","0.0-12.0-0.59","5f219602670e5a0af2cf5237","650c16f0f2faf8d7a0d14c09","651c1dd118a9d74544563e88","null","null","<p style=""font-size: 60px; font-family: BACS"">RtRhPMd</p>","","","","","","","","",""
"html-keyboard-response","230","324954","0.0-12.0-0.60","5f219602670e5a0af2cf5237","650c16f0f2faf8d7a0d14c09","651c1dd118a9d74544563e88","null","null","<p style=""font-size: 60px; font-family: BACS"">EPMDkKmE</p>","","","","","","","","",""
"html-keyboard-response","231","325962","0.0-12.0-0.61","5f219602670e5a0af2cf5237","650c16f0f2faf8d7a0d14c09","651c1dd118a9d74544563e88","null","null","<p style=""font-size: 60px; font-family: BACS"">NQZvrAJu</p>","","","","","","","","",""
"html-keyboard-response","232","326971","0.0-12.0-0.62","5f219602670e5a0af2cf5237","650c16f0f2faf8d7a0d14c09","651c1dd118a9d74544563e88","null","null","<p style=""font-size: 60px; font-family: BACS"">UvOGJcL</p>","","","","","","","","",""
"html-keyboard-response","233","327978","0.0-12.0-0.63","5f219602670e5a0af2cf5237","650c16f0f2faf8d7a0d14c09","651c1dd118a9d74544563e88","null","null","<p style=""font-size: 60px; font-family: BACS"">kDRKcdEPD</p>","","","","","","","","",""
"html-keyboard-response","234","328996","0.0-12.0-0.64","5f219602670e5a0af2cf5237","650c16f0f2faf8d7a0d14c09","651c1dd118a9d74544563e88","null","null","<p style=""font-size: 60px; font-family: BACS"">bYGOZJcL</p>","","","","","","","","",""
"html-keyboard-response","235","330007","0.0-12.0-0.65","5f219602670e5a0af2cf5237","650c16f0f2faf8d7a0d14c09","651c1dd118a9d74544563e88","null","null","<p style=""font-size: 60px; font-family: BACS"">KElBdEPD</p>","","","","","","","","",""
"html-keyboard-response","236","331018","0.0-12.0-0.66","5f219602670e5a0af2cf5237","650c16f0f2faf8d7a0d14c09","651c1dd118a9d74544563e88","null","null","<p style=""font-size: 60px; font-family: BACS"">ZvalvJcL</p>","","","","","","","","",""
"html-keyboard-response","237","332021","0.0-12.0-0.67","5f219602670e5a0af2cf5237","650c16f0f2faf8d7a0d14c09","651c1dd118a9d74544563e88","null","null","<p style=""font-size: 60px; font-family: BACS"">GLluArAJu</p>","","","","","","","","",""
"html-keyboard-response","238","333032","0.0-12.0-0.68","5f219602670e5a0af2cf5237","650c16f0f2faf8d7a0d14c09","651c1dd118a9d74544563e88","null","null","<p style=""font-size: 60px; font-family: BACS"">UvOGmkc</p>","","","","","","","","",""
"html-keyboard-response","239","334040","0.0-12.0-0.69","5f219602670e5a0af2cf5237","650c16f0f2faf8d7a0d14c09","651c1dd118a9d74544563e88","null","null","<p style=""font-size: 60px; font-family: BACS"">hlkTdBC</p>","","","","","","","","",""
"html-keyboard-response","240","335045","0.0-12.0-0.70","5f219602670e5a0af2cf5237","650c16f0f2faf8d7a0d14c09","651c1dd118a9d74544563e88","null","null","<p style=""font-size: 60px; font-family: BACS"">kDRKcKmE</p>","","","","","","","","",""
"html-keyboard-response","241","336050","0.0-12.0-0.71","5f219602670e5a0af2cf5237","650c16f0f2faf8d7a0d14c09","651c1dd118a9d74544563e88","null","null","<p style=""font-size: 60px; font-family: BACS"">bYGOZYLU</p>","","","","","","","","",""
"html-keyboard-response","242","337062","0.0-12.0-0.72","5f219602670e5a0af2cf5237","650c16f0f2faf8d7a0d14c09","651c1dd118a9d74544563e88","null","null","<p style=""font-size: 60px; font-family: BACS"">DmAMEdCKc</p>","","","","","","","","",""
"html-keyboard-response","243","338067","0.0-12.0-0.73","5f219602670e5a0af2cf5237","650c16f0f2faf8d7a0d14c09","651c1dd118a9d74544563e88","null","null","<p style=""font-size: 60px; font-family: BACS"">cAZukYL</p>","","","","","","","","",""
"html-keyboard-response","244","339079","0.0-12.0-0.74","5f219602670e5a0af2cf5237","650c16f0f2faf8d7a0d14c09","651c1dd118a9d74544563e88","null","null","<p style=""font-size: 60px; font-family: BACS"">UvOGYLU</p>","","","","","","","","",""
"html-keyboard-response","245","340087","0.0-12.0-0.75","5f219602670e5a0af2cf5237","650c16f0f2faf8d7a0d14c09","651c1dd118a9d74544563e88","null","null","<p style=""font-size: 60px; font-family: BACS"">RhPmPMd</p>","","","","","","","","",""
"html-keyboard-response","246","341096","0.0-12.0-0.76","5f219602670e5a0af2cf5237","650c16f0f2faf8d7a0d14c09","651c1dd118a9d74544563e88","null","null","<p style=""font-size: 60px; font-family: BACS"">KElBdCKc</p>","","","","","","","","",""
"html-keyboard-response","247","342105","0.0-12.0-0.77","5f219602670e5a0af2cf5237","650c16f0f2faf8d7a0d14c09","651c1dd118a9d74544563e88","null","null","<p style=""font-size: 60px; font-family: BACS"">EPMDkPMd</p>","","","","","","","","",""
"html-keyboard-response","248","343113","0.0-12.0-0.78","5f219602670e5a0af2cf5237","650c16f0f2faf8d7a0d14c09","651c1dd118a9d74544563e88","null","null","<p style=""font-size: 60px; font-family: BACS"">McMDdCKc</p>","","","","","","","","",""
"html-keyboard-response","249","344121","0.0-12.0-0.79","5f219602670e5a0af2cf5237","650c16f0f2faf8d7a0d14c09","651c1dd118a9d74544563e88","null","null","<p style=""font-size: 60px; font-family: BACS"">NQZvYLU</p>","","","","","","","","",""
"html-keyboard-response","250","347746","0.0-13.0","5f219602670e5a0af2cf5237","650c16f0f2faf8d7a0d14c09","651c1dd118a9d74544563e88","3623"," ","<p>Great, you've seen the third block of words. You may now take a short break.</p>
      <p>Press the spacebar when you're ready to continue.</p>","","","","","","","","",""
"html-keyboard-response","251","348752","0.0-14.0-0.0","5f219602670e5a0af2cf5237","650c16f0f2faf8d7a0d14c09","651c1dd118a9d74544563e88","null","null","<p style=""font-size: 60px; font-family: BACS"">ZvalvkYL</p>","","","","","","","","",""
"html-keyboard-response","252","349760","0.0-14.0-0.1","5f219602670e5a0af2cf5237","650c16f0f2faf8d7a0d14c09","651c1dd118a9d74544563e88","null","null","<p style=""font-size: 60px; font-family: BACS"">DmAMEdEPD</p>","","","","","","","","",""
"html-keyboard-response","253","350766","0.0-14.0-0.2","5f219602670e5a0af2cf5237","650c16f0f2faf8d7a0d14c09","651c1dd118a9d74544563e88","null","null","<p style=""font-size: 60px; font-family: BACS"">kDRKcdBC</p>","","","","","","","","",""
"html-keyboard-response","254","351769","0.0-14.0-0.3","5f219602670e5a0af2cf5237","650c16f0f2faf8d7a0d14c09","651c1dd118a9d74544563e88","null","null","<p style=""font-size: 60px; font-family: BACS"">hlkTdEPD</p>","","","","","","","","",""
"html-keyboard-response","255","352775","0.0-14.0-0.4","5f219602670e5a0af2cf5237","650c16f0f2faf8d7a0d14c09","651c1dd118a9d74544563e88","null","null","<p style=""font-size: 60px; font-family: BACS"">UvOGmkc</p>","","","","","","","","",""
"html-keyboard-response","256","353778","0.0-14.0-0.5","5f219602670e5a0af2cf5237","650c16f0f2faf8d7a0d14c09","651c1dd118a9d74544563e88","null","null","<p style=""font-size: 60px; font-family: BACS"">DmAMEdBC</p>","","","","","","","","",""
"html-keyboard-response","257","354781","0.0-14.0-0.6","5f219602670e5a0af2cf5237","650c16f0f2faf8d7a0d14c09","651c1dd118a9d74544563e88","null","null","<p style=""font-size: 60px; font-family: BACS"">NQZvrAJu</p>","","","","","","","","",""
"html-keyboard-response","258","355783","0.0-14.0-0.7","5f219602670e5a0af2cf5237","650c16f0f2faf8d7a0d14c09","651c1dd118a9d74544563e88","null","null","<p style=""font-size: 60px; font-family: BACS"">EPMDkdEPD</p>","","","","","","","","",""
"html-keyboard-response","259","356800","0.0-14.0-0.8","5f219602670e5a0af2cf5237","650c16f0f2faf8d7a0d14c09","651c1dd118a9d74544563e88","null","null","<p style=""font-size: 60px; font-family: BACS"">BOCRMdBC</p>","","","","","","","","",""
"html-keyboard-response","260","357805","0.0-14.0-0.9","5f219602670e5a0af2cf5237","650c16f0f2faf8d7a0d14c09","651c1dd118a9d74544563e88","null","null","<p style=""font-size: 60px; font-family: BACS"">OJGQkYL</p>","","","","","","","","",""
"html-keyboard-response","261","358811","0.0-14.0-0.10","5f219602670e5a0af2cf5237","650c16f0f2faf8d7a0d14c09","651c1dd118a9d74544563e88","null","null","<p style=""font-size: 60px; font-family: BACS"">EPMDkKmE</p>","","","","","","","","",""
"html-keyboard-response","262","359815","0.0-14.0-0.11","5f219602670e5a0af2cf5237","650c16f0f2faf8d7a0d14c09","651c1dd118a9d74544563e88","null","null","<p style=""font-size: 60px; font-family: BACS"">kDRKcdEPD</p>","","","","","","","","",""
"html-keyboard-response","263","360826","0.0-14.0-0.12","5f219602670e5a0af2cf5237","650c16f0f2faf8d7a0d14c09","651c1dd118a9d74544563e88","null","null","<p style=""font-size: 60px; font-family: BACS"">OJGQJcL</p>","","","","","","","","",""
"html-keyboard-response","264","361828","0.0-14.0-0.13","5f219602670e5a0af2cf5237","650c16f0f2faf8d7a0d14c09","651c1dd118a9d74544563e88","null","null","<p style=""font-size: 60px; font-family: BACS"">bYGOZrAJu</p>","","","","","","","","",""
"html-keyboard-response","265","362833","0.0-14.0-0.14","5f219602670e5a0af2cf5237","650c16f0f2faf8d7a0d14c09","651c1dd118a9d74544563e88","null","null","<p style=""font-size: 60px; font-family: BACS"">RhPmPMd</p>","","","","","","","","",""
"html-keyboard-response","266","363838","0.0-14.0-0.15","5f219602670e5a0af2cf5237","650c16f0f2faf8d7a0d14c09","651c1dd118a9d74544563e88","null","null","<p style=""font-size: 60px; font-family: BACS"">GLluAmkc</p>","","","","","","","","",""
"html-keyboard-response","267","364850","0.0-14.0-0.16","5f219602670e5a0af2cf5237","650c16f0f2faf8d7a0d14c09","651c1dd118a9d74544563e88","null","null","<p style=""font-size: 60px; font-family: BACS"">BOCRMdEPD</p>","","","","","","","","",""
"html-keyboard-response","268","365859","0.0-14.0-0.17","5f219602670e5a0af2cf5237","650c16f0f2faf8d7a0d14c09","651c1dd118a9d74544563e88","null","null","<p style=""font-size: 60px; font-family: BACS"">McMDdBC</p>","","","","","","","","",""
"html-keyboard-response","269","366868","0.0-14.0-0.18","5f219602670e5a0af2cf5237","650c16f0f2faf8d7a0d14c09","651c1dd118a9d74544563e88","null","null","<p style=""font-size: 60px; font-family: BACS"">RtRhKmE</p>","","","","","","","","",""
"html-keyboard-response","270","367875","0.0-14.0-0.19","5f219602670e5a0af2cf5237","650c16f0f2faf8d7a0d14c09","651c1dd118a9d74544563e88","null","null","<p style=""font-size: 60px; font-family: BACS"">BOCRMPMd</p>","","","","","","","","",""
"html-keyboard-response","271","368877","0.0-14.0-0.20","5f219602670e5a0af2cf5237","650c16f0f2faf8d7a0d14c09","651c1dd118a9d74544563e88","null","null","<p style=""font-size: 60px; font-family: BACS"">RhPmdBC</p>","","","","","","","","",""
"html-keyboard-response","272","369884","0.0-14.0-0.21","5f219602670e5a0af2cf5237","650c16f0f2faf8d7a0d14c09","651c1dd118a9d74544563e88","null","null","<p style=""font-size: 60px; font-family: BACS"">cAZurAJu</p>","","","","","","","","",""
"html-keyboard-response","273","370890","0.0-14.0-0.22","5f219602670e5a0af2cf5237","650c16f0f2faf8d7a0d14c09","651c1dd118a9d74544563e88","null","null","<p style=""font-size: 60px; font-family: BACS"">kDRKcdCKc</p>","","","","","","","","",""
"html-keyboard-response","274","371894","0.0-14.0-0.23","5f219602670e5a0af2cf5237","650c16f0f2faf8d7a0d14c09","651c1dd118a9d74544563e88","null","null","<p style=""font-size: 60px; font-family: BACS"">cAZumkc</p>","","","","","","","","",""
"html-keyboard-response","275","372904","0.0-14.0-0.24","5f219602670e5a0af2cf5237","650c16f0f2faf8d7a0d14c09","651c1dd118a9d74544563e88","null","null","<p style=""font-size: 60px; font-family: BACS"">GLluAYLU</p>","","","","","","","","",""
"html-keyboard-response","276","373908","0.0-14.0-0.25","5f219602670e5a0af2cf5237","650c16f0f2faf8d7a0d14c09","651c1dd118a9d74544563e88","null","null","<p style=""font-size: 60px; font-family: BACS"">RtRhdEPD</p>","","","","","","","","",""
"html-keyboard-response","277","374910","0.0-14.0-0.26","5f219602670e5a0af2cf5237","650c16f0f2faf8d7a0d14c09","651c1dd118a9d74544563e88","null","null","<p style=""font-size: 60px; font-family: BACS"">ckLALYLU</p>","","","","","","","","",""
"html-keyboard-response","278","375924","0.0-14.0-0.27","5f219602670e5a0af2cf5237","650c16f0f2faf8d7a0d14c09","651c1dd118a9d74544563e88","null","null","<p style=""font-size: 60px; font-family: BACS"">BOCRMdCKc</p>","","","","","","","","",""
"html-keyboard-response","279","376928","0.0-14.0-0.28","5f219602670e5a0af2cf5237","650c16f0f2faf8d7a0d14c09","651c1dd118a9d74544563e88","null","null","<p style=""font-size: 60px; font-family: BACS"">ZvalvJcL</p>","","","","","","","","",""
"html-keyboard-response","280","377934","0.0-14.0-0.29","5f219602670e5a0af2cf5237","650c16f0f2faf8d7a0d14c09","651c1dd118a9d74544563e88","null","null","<p style=""font-size: 60px; font-family: BACS"">kDRKcKmE</p>","","","","","","","","",""
"html-keyboard-response","281","378937","0.0-14.0-0.30","5f219602670e5a0af2cf5237","650c16f0f2faf8d7a0d14c09","651c1dd118a9d74544563e88","null","null","<p style=""font-size: 60px; font-family: BACS"">ckLALJcL</p>","","","","","","","","",""
"html-keyboard-response","282","379940","0.0-14.0-0.31","5f219602670e5a0af2cf5237","650c16f0f2faf8d7a0d14c09","651c1dd118a9d74544563e88","null","null","<p style=""font-size: 60px; font-family: BACS"">bYGOZmkc</p>","","","","","","","","",""
"html-keyboard-response","283","380949","0.0-14.0-0.32","5f219602670e5a0af2cf5237","650c16f0f2faf8d7a0d14c09","651c1dd118a9d74544563e88","null","null","<p style=""font-size: 60px; font-family: BACS"">RtRhdBC</p>","","","","","","","","",""
"html-keyboard-response","284","381958","0.0-14.0-0.33","5f219602670e5a0af2cf5237","650c16f0f2faf8d7a0d14c09","651c1dd118a9d74544563e88","null","null","<p style=""font-size: 60px; font-family: BACS"">kdEdYdEPD</p>","","","","","","","","",""
"html-keyboard-response","285","382964","0.0-14.0-0.34","5f219602670e5a0af2cf5237","650c16f0f2faf8d7a0d14c09","651c1dd118a9d74544563e88","null","null","<p style=""font-size: 60px; font-family: BACS"">GLluAJcL</p>","","","","","","","","",""
"html-keyboard-response","286","383970","0.0-14.0-0.35","5f219602670e5a0af2cf5237","650c16f0f2faf8d7a0d14c09","651c1dd118a9d74544563e88","null","null","<p style=""font-size: 60px; font-family: BACS"">OJGQrAJu</p>","","","","","","","","",""
"html-keyboard-response","287","384979","0.0-14.0-0.36","5f219602670e5a0af2cf5237","650c16f0f2faf8d7a0d14c09","651c1dd118a9d74544563e88","null","null","<p style=""font-size: 60px; font-family: BACS"">KElBKmE</p>","","","","","","","","",""
"html-keyboard-response","288","385984","0.0-14.0-0.37","5f219602670e5a0af2cf5237","650c16f0f2faf8d7a0d14c09","651c1dd118a9d74544563e88","null","null","<p style=""font-size: 60px; font-family: BACS"">hlkTPMd</p>","","","","","","","","",""
"html-keyboard-response","289","386989","0.0-14.0-0.38","5f219602670e5a0af2cf5237","650c16f0f2faf8d7a0d14c09","651c1dd118a9d74544563e88","null","null","<p style=""font-size: 60px; font-family: BACS"">OJGQYLU</p>","","","","","","","","",""
"html-keyboard-response","290","387992","0.0-14.0-0.39","5f219602670e5a0af2cf5237","650c16f0f2faf8d7a0d14c09","651c1dd118a9d74544563e88","null","null","<p style=""font-size: 60px; font-family: BACS"">aYaNmkc</p>","","","","","","","","",""
"html-keyboard-response","291","388999","0.0-14.0-0.40","5f219602670e5a0af2cf5237","650c16f0f2faf8d7a0d14c09","651c1dd118a9d74544563e88","null","null","<p style=""font-size: 60px; font-family: BACS"">UvOGJcL</p>","","","","","","","","",""
"html-keyboard-response","292","390008","0.0-14.0-0.41","5f219602670e5a0af2cf5237","650c16f0f2faf8d7a0d14c09","651c1dd118a9d74544563e88","null","null","<p style=""font-size: 60px; font-family: BACS"">McMDdCKc</p>","","","","","","","","",""
"html-keyboard-response","293","391014","0.0-14.0-0.42","5f219602670e5a0af2cf5237","650c16f0f2faf8d7a0d14c09","651c1dd118a9d74544563e88","null","null","<p style=""font-size: 60px; font-family: BACS"">RhPmKmE</p>","","","","","","","","",""
"html-keyboard-response","294","392022","0.0-14.0-0.43","5f219602670e5a0af2cf5237","650c16f0f2faf8d7a0d14c09","651c1dd118a9d74544563e88","null","null","<p style=""font-size: 60px; font-family: BACS"">KElBdCKc</p>","","","","","","","","",""
"html-keyboard-response","295","393032","0.0-14.0-0.44","5f219602670e5a0af2cf5237","650c16f0f2faf8d7a0d14c09","651c1dd118a9d74544563e88","null","null","<p style=""font-size: 60px; font-family: BACS"">cAZukYL</p>","","","","","","","","",""
"html-keyboard-response","296","394041","0.0-14.0-0.45","5f219602670e5a0af2cf5237","650c16f0f2faf8d7a0d14c09","651c1dd118a9d74544563e88","null","null","<p style=""font-size: 60px; font-family: BACS"">McMDKmE</p>","","","","","","","","",""
"html-keyboard-response","297","395052","0.0-14.0-0.46","5f219602670e5a0af2cf5237","650c16f0f2faf8d7a0d14c09","651c1dd118a9d74544563e88","null","null","<p style=""font-size: 60px; font-family: BACS"">bYGOZJcL</p>","","","","","","","","",""
"html-keyboard-response","298","396059","0.0-14.0-0.47","5f219602670e5a0af2cf5237","650c16f0f2faf8d7a0d14c09","651c1dd118a9d74544563e88","null","null","<p style=""font-size: 60px; font-family: BACS"">NkUAkYL</p>","","","","","","","","",""
"html-keyboard-response","299","397067","0.0-14.0-0.48","5f219602670e5a0af2cf5237","650c16f0f2faf8d7a0d14c09","651c1dd118a9d74544563e88","null","null","<p style=""font-size: 60px; font-family: BACS"">EPMDkdCKc</p>","","","","","","","","",""
"html-keyboard-response","300","398082","0.0-14.0-0.49","5f219602670e5a0af2cf5237","650c16f0f2faf8d7a0d14c09","651c1dd118a9d74544563e88","null","null","<p style=""font-size: 60px; font-family: BACS"">ZvalvrAJu</p>","","","","","","","","",""
"html-keyboard-response","301","399095","0.0-14.0-0.50","5f219602670e5a0af2cf5237","650c16f0f2faf8d7a0d14c09","651c1dd118a9d74544563e88","null","null","<p style=""font-size: 60px; font-family: BACS"">kdEdYdCKc</p>","","","","","","","","",""
"html-keyboard-response","302","400101","0.0-14.0-0.51","5f219602670e5a0af2cf5237","650c16f0f2faf8d7a0d14c09","651c1dd118a9d74544563e88","null","null","<p style=""font-size: 60px; font-family: BACS"">NkUAYLU</p>","","","","","","","","",""
"html-keyboard-response","303","401110","0.0-14.0-0.52","5f219602670e5a0af2cf5237","650c16f0f2faf8d7a0d14c09","651c1dd118a9d74544563e88","null","null","<p style=""font-size: 60px; font-family: BACS"">cAZuJcL</p>","","","","","","","","",""
"html-keyboard-response","304","402116","0.0-14.0-0.53","5f219602670e5a0af2cf5237","650c16f0f2faf8d7a0d14c09","651c1dd118a9d74544563e88","null","null","<p style=""font-size: 60px; font-family: BACS"">NQZvmkc</p>","","","","","","","","",""
"html-keyboard-response","305","403124","0.0-14.0-0.54","5f219602670e5a0af2cf5237","650c16f0f2faf8d7a0d14c09","651c1dd118a9d74544563e88","null","null","<p style=""font-size: 60px; font-family: BACS"">bYGOZYLU</p>","","","","","","","","",""
"html-keyboard-response","306","404133","0.0-14.0-0.55","5f219602670e5a0af2cf5237","650c16f0f2faf8d7a0d14c09","651c1dd118a9d74544563e88","null","null","<p style=""font-size: 60px; font-family: BACS"">ckLALrAJu</p>","","","","","","","","",""
"html-keyboard-response","307","405141","0.0-14.0-0.56","5f219602670e5a0af2cf5237","650c16f0f2faf8d7a0d14c09","651c1dd118a9d74544563e88","null","null","<p style=""font-size: 60px; font-family: BACS"">aYaNJcL</p>","","","","","","","","",""
"html-keyboard-response","308","406150","0.0-14.0-0.57","5f219602670e5a0af2cf5237","650c16f0f2faf8d7a0d14c09","651c1dd118a9d74544563e88","null","null","<p style=""font-size: 60px; font-family: BACS"">ckLALkYL</p>","","","","","","","","",""
"html-keyboard-response","309","407157","0.0-14.0-0.58","5f219602670e5a0af2cf5237","650c16f0f2faf8d7a0d14c09","651c1dd118a9d74544563e88","null","null","<p style=""font-size: 60px; font-family: BACS"">GLluArAJu</p>","","","","","","","","",""
"html-keyboard-response","310","408163","0.0-14.0-0.59","5f219602670e5a0af2cf5237","650c16f0f2faf8d7a0d14c09","651c1dd118a9d74544563e88","null","null","<p style=""font-size: 60px; font-family: BACS"">KElBdEPD</p>","","","","","","","","",""
"html-keyboard-response","311","409177","0.0-14.0-0.60","5f219602670e5a0af2cf5237","650c16f0f2faf8d7a0d14c09","651c1dd118a9d74544563e88","null","null","<p style=""font-size: 60px; font-family: BACS"">aYaNYLU</p>","","","","","","","","",""
"html-keyboard-response","312","410183","0.0-14.0-0.61","5f219602670e5a0af2cf5237","650c16f0f2faf8d7a0d14c09","651c1dd118a9d74544563e88","null","null","<p style=""font-size: 60px; font-family: BACS"">NQZvkYL</p>","","","","","","","","",""
"html-keyboard-response","313","411187","0.0-14.0-0.62","5f219602670e5a0af2cf5237","650c16f0f2faf8d7a0d14c09","651c1dd118a9d74544563e88","null","null","<p style=""font-size: 60px; font-family: BACS"">hlkTdBC</p>","","","","","","","","",""
"html-keyboard-response","314","412200","0.0-14.0-0.63","5f219602670e5a0af2cf5237","650c16f0f2faf8d7a0d14c09","651c1dd118a9d74544563e88","null","null","<p style=""font-size: 60px; font-family: BACS"">RhPmdCKc</p>","","","","","","","","",""
"html-keyboard-response","315","413202","0.0-14.0-0.64","5f219602670e5a0af2cf5237","650c16f0f2faf8d7a0d14c09","651c1dd118a9d74544563e88","null","null","<p style=""font-size: 60px; font-family: BACS"">McMDPMd</p>","","","","","","","","",""
"html-keyboard-response","316","414209","0.0-14.0-0.65","5f219602670e5a0af2cf5237","650c16f0f2faf8d7a0d14c09","651c1dd118a9d74544563e88","null","null","<p style=""font-size: 60px; font-family: BACS"">kdEdYdBC</p>","","","","","","","","",""
"html-keyboard-response","317","415219","0.0-14.0-0.66","5f219602670e5a0af2cf5237","650c16f0f2faf8d7a0d14c09","651c1dd118a9d74544563e88","null","null","<p style=""font-size: 60px; font-family: BACS"">NQZvYLU</p>","","","","","","","","",""
"html-keyboard-response","318","416226","0.0-14.0-0.67","5f219602670e5a0af2cf5237","650c16f0f2faf8d7a0d14c09","651c1dd118a9d74544563e88","null","null","<p style=""font-size: 60px; font-family: BACS"">EPMDkPMd</p>","","","","","","","","",""
"html-keyboard-response","319","417238","0.0-14.0-0.68","5f219602670e5a0af2cf5237","650c16f0f2faf8d7a0d14c09","651c1dd118a9d74544563e88","null","null","<p style=""font-size: 60px; font-family: BACS"">NkUAmkc</p>","","","","","","","","",""
"html-keyboard-response","320","418248","0.0-14.0-0.69","5f219602670e5a0af2cf5237","650c16f0f2faf8d7a0d14c09","651c1dd118a9d74544563e88","null","null","<p style=""font-size: 60px; font-family: BACS"">RtRhPMd</p>","","","","","","","","",""
"html-keyboard-response","321","419254","0.0-14.0-0.70","5f219602670e5a0af2cf5237","650c16f0f2faf8d7a0d14c09","651c1dd118a9d74544563e88","null","null","<p style=""font-size: 60px; font-family: BACS"">aYaNkYL</p>","","","","","","","","",""
"html-keyboard-response","322","420259","0.0-14.0-0.71","5f219602670e5a0af2cf5237","650c16f0f2faf8d7a0d14c09","651c1dd118a9d74544563e88","null","null","<p style=""font-size: 60px; font-family: BACS"">hlkTKmE</p>","","","","","","","","",""
"html-keyboard-response","323","421264","0.0-14.0-0.72","5f219602670e5a0af2cf5237","650c16f0f2faf8d7a0d14c09","651c1dd118a9d74544563e88","null","null","<p style=""font-size: 60px; font-family: BACS"">UvOGkYL</p>","","","","","","","","",""
"html-keyboard-response","324","422270","0.0-14.0-0.73","5f219602670e5a0af2cf5237","650c16f0f2faf8d7a0d14c09","651c1dd118a9d74544563e88","null","null","<p style=""font-size: 60px; font-family: BACS"">kdEdYKmE</p>","","","","","","","","",""
"html-keyboard-response","325","423280","0.0-14.0-0.74","5f219602670e5a0af2cf5237","650c16f0f2faf8d7a0d14c09","651c1dd118a9d74544563e88","null","null","<p style=""font-size: 60px; font-family: BACS"">DmAMEdCKc</p>","","","","","","","","",""
"html-keyboard-response","326","424284","0.0-14.0-0.75","5f219602670e5a0af2cf5237","650c16f0f2faf8d7a0d14c09","651c1dd118a9d74544563e88","null","null","<p style=""font-size: 60px; font-family: BACS"">KElBPMd</p>","","","","","","","","",""
"html-keyboard-response","327","425291","0.0-14.0-0.76","5f219602670e5a0af2cf5237","650c16f0f2faf8d7a0d14c09","651c1dd118a9d74544563e88","null","null","<p style=""font-size: 60px; font-family: BACS"">NkUArAJu</p>","","","","","","","","",""
"html-keyboard-response","328","426297","0.0-14.0-0.77","5f219602670e5a0af2cf5237","650c16f0f2faf8d7a0d14c09","651c1dd118a9d74544563e88","null","null","<p style=""font-size: 60px; font-family: BACS"">UvOGYLU</p>","","","","","","","","",""
"html-keyboard-response","329","427304","0.0-14.0-0.78","5f219602670e5a0af2cf5237","650c16f0f2faf8d7a0d14c09","651c1dd118a9d74544563e88","null","null","<p style=""font-size: 60px; font-family: BACS"">DmAMEPMd</p>","","","","","","","","",""
"html-keyboard-response","330","428309","0.0-14.0-0.79","5f219602670e5a0af2cf5237","650c16f0f2faf8d7a0d14c09","651c1dd118a9d74544563e88","null","null","<p style=""font-size: 60px; font-family: BACS"">Zvalvmkc</p>","","","","","","","","",""
"html-keyboard-response","331","443856","0.0-15.0","5f219602670e5a0af2cf5237","650c16f0f2faf8d7a0d14c09","651c1dd118a9d74544563e88","15546"," ","<p>Great, you've seen the fourth block of words. You may now take a short break.</p>
      <p>Press the spacebar when you're ready to continue.</p>","","","","","","","","",""
"html-keyboard-response","332","444871","0.0-16.0-0.0","5f219602670e5a0af2cf5237","650c16f0f2faf8d7a0d14c09","651c1dd118a9d74544563e88","null","null","<p style=""font-size: 60px; font-family: BACS"">ckLALrAJu</p>","","","","","","","","",""
"html-keyboard-response","333","445884","0.0-16.0-0.1","5f219602670e5a0af2cf5237","650c16f0f2faf8d7a0d14c09","651c1dd118a9d74544563e88","null","null","<p style=""font-size: 60px; font-family: BACS"">ckLALrAJu</p>","","","","","","","","",""
"html-keyboard-response","334","446889","0.0-16.0-0.2","5f219602670e5a0af2cf5237","650c16f0f2faf8d7a0d14c09","651c1dd118a9d74544563e88","null","null","<p style=""font-size: 60px; font-family: BACS"">ckLALrAJu</p>","","","","","","","","",""
"html-keyboard-response","335","447893","0.0-16.0-0.3","5f219602670e5a0af2cf5237","650c16f0f2faf8d7a0d14c09","651c1dd118a9d74544563e88","null","null","<p style=""font-size: 60px; font-family: BACS"">ckLALrAJu</p>","","","","","","","","",""
"html-keyboard-response","336","448898","0.0-16.0-0.4","5f219602670e5a0af2cf5237","650c16f0f2faf8d7a0d14c09","651c1dd118a9d74544563e88","null","null","<p style=""font-size: 60px; font-family: BACS"">ckLALrAJu</p>","","","","","","","","",""
"html-keyboard-response","337","449903","0.0-16.0-0.5","5f219602670e5a0af2cf5237","650c16f0f2faf8d7a0d14c09","651c1dd118a9d74544563e88","null","null","<p style=""font-size: 60px; font-family: BACS"">ckLALrAJu</p>","","","","","","","","",""
"html-keyboard-response","338","450916","0.0-16.0-0.6","5f219602670e5a0af2cf5237","650c16f0f2faf8d7a0d14c09","651c1dd118a9d74544563e88","null","null","<p style=""font-size: 60px; font-family: BACS"">ckLALrAJu</p>","","","","","","","","",""
"html-keyboard-response","339","451919","0.0-16.0-0.7","5f219602670e5a0af2cf5237","650c16f0f2faf8d7a0d14c09","651c1dd118a9d74544563e88","null","null","<p style=""font-size: 60px; font-family: BACS"">ckLALrAJu</p>","","","","","","","","",""
"html-keyboard-response","340","452927","0.0-16.0-0.8","5f219602670e5a0af2cf5237","650c16f0f2faf8d7a0d14c09","651c1dd118a9d74544563e88","null","null","<p style=""font-size: 60px; font-family: BACS"">ckLALrAJu</p>","","","","","","","","",""
"html-keyboard-response","341","453930","0.0-16.0-0.9","5f219602670e5a0af2cf5237","650c16f0f2faf8d7a0d14c09","651c1dd118a9d74544563e88","null","null","<p style=""font-size: 60px; font-family: BACS"">ckLALrAJu</p>","","","","","","","","",""
"html-keyboard-response","342","454937","0.0-16.0-0.10","5f219602670e5a0af2cf5237","650c16f0f2faf8d7a0d14c09","651c1dd118a9d74544563e88","null","null","<p style=""font-size: 60px; font-family: BACS"">ckLALrAJu</p>","","","","","","","","",""
"html-keyboard-response","343","455945","0.0-16.0-0.11","5f219602670e5a0af2cf5237","650c16f0f2faf8d7a0d14c09","651c1dd118a9d74544563e88","null","null","<p style=""font-size: 60px; font-family: BACS"">ckLALrAJu</p>","","","","","","","","",""
"html-keyboard-response","344","456954","0.0-16.0-0.12","5f219602670e5a0af2cf5237","650c16f0f2faf8d7a0d14c09","651c1dd118a9d74544563e88","null","null","<p style=""font-size: 60px; font-family: BACS"">ckLALrAJu</p>","","","","","","","","",""
"html-keyboard-response","345","457959","0.0-16.0-0.13","5f219602670e5a0af2cf5237","650c16f0f2faf8d7a0d14c09","651c1dd118a9d74544563e88","null","null","<p style=""font-size: 60px; font-family: BACS"">ckLALrAJu</p>","","","","","","","","",""
"html-keyboard-response","346","458967","0.0-16.0-0.14","5f219602670e5a0af2cf5237","650c16f0f2faf8d7a0d14c09","651c1dd118a9d74544563e88","null","null","<p style=""font-size: 60px; font-family: BACS"">ckLALrAJu</p>","","","","","","","","",""
"html-keyboard-response","347","459973","0.0-16.0-0.15","5f219602670e5a0af2cf5237","650c16f0f2faf8d7a0d14c09","651c1dd118a9d74544563e88","null","null","<p style=""font-size: 60px; font-family: BACS"">ckLALrAJu</p>","","","","","","","","",""
"html-keyboard-response","348","460977","0.0-16.0-0.16","5f219602670e5a0af2cf5237","650c16f0f2faf8d7a0d14c09","651c1dd118a9d74544563e88","null","null","<p style=""font-size: 60px; font-family: BACS"">ckLALrAJu</p>","","","","","","","","",""
"html-keyboard-response","349","461987","0.0-16.0-0.17","5f219602670e5a0af2cf5237","650c16f0f2faf8d7a0d14c09","651c1dd118a9d74544563e88","null","null","<p style=""font-size: 60px; font-family: BACS"">ckLALrAJu</p>","","","","","","","","",""
"html-keyboard-response","350","462991","0.0-16.0-0.18","5f219602670e5a0af2cf5237","650c16f0f2faf8d7a0d14c09","651c1dd118a9d74544563e88","null","null","<p style=""font-size: 60px; font-family: BACS"">ckLALrAJu</p>","","","","","","","","",""
"html-keyboard-response","351","463993","0.0-16.0-0.19","5f219602670e5a0af2cf5237","650c16f0f2faf8d7a0d14c09","651c1dd118a9d74544563e88","null","null","<p style=""font-size: 60px; font-family: BACS"">ckLALrAJu</p>","","","","","","","","",""
"html-keyboard-response","352","464999","0.0-16.0-0.20","5f219602670e5a0af2cf5237","650c16f0f2faf8d7a0d14c09","651c1dd118a9d74544563e88","null","null","<p style=""font-size: 60px; font-family: BACS"">ckLALrAJu</p>","","","","","","","","",""
"html-keyboard-response","353","466002","0.0-16.0-0.21","5f219602670e5a0af2cf5237","650c16f0f2faf8d7a0d14c09","651c1dd118a9d74544563e88","null","null","<p style=""font-size: 60px; font-family: BACS"">ckLALrAJu</p>","","","","","","","","",""
"html-keyboard-response","354","467010","0.0-16.0-0.22","5f219602670e5a0af2cf5237","650c16f0f2faf8d7a0d14c09","651c1dd118a9d74544563e88","null","null","<p style=""font-size: 60px; font-family: BACS"">ckLALrAJu</p>","","","","","","","","",""
"html-keyboard-response","355","468022","0.0-16.0-0.23","5f219602670e5a0af2cf5237","650c16f0f2faf8d7a0d14c09","651c1dd118a9d74544563e88","null","null","<p style=""font-size: 60px; font-family: BACS"">ckLALrAJu</p>","","","","","","","","",""
"html-keyboard-response","356","469030","0.0-16.0-0.24","5f219602670e5a0af2cf5237","650c16f0f2faf8d7a0d14c09","651c1dd118a9d74544563e88","null","null","<p style=""font-size: 60px; font-family: BACS"">ckLALrAJu</p>","","","","","","","","",""
"html-keyboard-response","357","470040","0.0-16.0-0.25","5f219602670e5a0af2cf5237","650c16f0f2faf8d7a0d14c09","651c1dd118a9d74544563e88","null","null","<p style=""font-size: 60px; font-family: BACS"">ckLALrAJu</p>","","","","","","","","",""
"html-keyboard-response","358","471045","0.0-16.0-0.26","5f219602670e5a0af2cf5237","650c16f0f2faf8d7a0d14c09","651c1dd118a9d74544563e88","null","null","<p style=""font-size: 60px; font-family: BACS"">ckLALrAJu</p>","","","","","","","","",""
"html-keyboard-response","359","472055","0.0-16.0-0.27","5f219602670e5a0af2cf5237","650c16f0f2faf8d7a0d14c09","651c1dd118a9d74544563e88","null","null","<p style=""font-size: 60px; font-family: BACS"">ckLALrAJu</p>","","","","","","","","",""
"html-keyboard-response","360","473059","0.0-16.0-0.28","5f219602670e5a0af2cf5237","650c16f0f2faf8d7a0d14c09","651c1dd118a9d74544563e88","null","null","<p style=""font-size: 60px; font-family: BACS"">ckLALrAJu</p>","","","","","","","","",""
"html-keyboard-response","361","474063","0.0-16.0-0.29","5f219602670e5a0af2cf5237","650c16f0f2faf8d7a0d14c09","651c1dd118a9d74544563e88","null","null","<p style=""font-size: 60px; font-family: BACS"">ckLALrAJu</p>","","","","","","","","",""
"html-keyboard-response","362","475072","0.0-16.0-0.30","5f219602670e5a0af2cf5237","650c16f0f2faf8d7a0d14c09","651c1dd118a9d74544563e88","null","null","<p style=""font-size: 60px; font-family: BACS"">ckLALrAJu</p>","","","","","","","","",""
"html-keyboard-response","363","476077","0.0-16.0-0.31","5f219602670e5a0af2cf5237","650c16f0f2faf8d7a0d14c09","651c1dd118a9d74544563e88","null","null","<p style=""font-size: 60px; font-family: BACS"">ckLALrAJu</p>","","","","","","","","",""
"html-keyboard-response","364","477081","0.0-16.0-0.32","5f219602670e5a0af2cf5237","650c16f0f2faf8d7a0d14c09","651c1dd118a9d74544563e88","null","null","<p style=""font-size: 60px; font-family: BACS"">ckLALrAJu</p>","","","","","","","","",""
"html-keyboard-response","365","478089","0.0-16.0-0.33","5f219602670e5a0af2cf5237","650c16f0f2faf8d7a0d14c09","651c1dd118a9d74544563e88","null","null","<p style=""font-size: 60px; font-family: BACS"">ckLALrAJu</p>","","","","","","","","",""
"html-keyboard-response","366","479097","0.0-16.0-0.34","5f219602670e5a0af2cf5237","650c16f0f2faf8d7a0d14c09","651c1dd118a9d74544563e88","null","null","<p style=""font-size: 60px; font-family: BACS"">ckLALrAJu</p>","","","","","","","","",""
"html-keyboard-response","367","480101","0.0-16.0-0.35","5f219602670e5a0af2cf5237","650c16f0f2faf8d7a0d14c09","651c1dd118a9d74544563e88","null","null","<p style=""font-size: 60px; font-family: BACS"">ckLALrAJu</p>","","","","","","","","",""
"html-keyboard-response","368","481110","0.0-16.0-0.36","5f219602670e5a0af2cf5237","650c16f0f2faf8d7a0d14c09","651c1dd118a9d74544563e88","null","null","<p style=""font-size: 60px; font-family: BACS"">ckLALrAJu</p>","","","","","","","","",""
"html-keyboard-response","369","482115","0.0-16.0-0.37","5f219602670e5a0af2cf5237","650c16f0f2faf8d7a0d14c09","651c1dd118a9d74544563e88","null","null","<p style=""font-size: 60px; font-family: BACS"">ckLALrAJu</p>","","","","","","","","",""
"html-keyboard-response","370","483123","0.0-16.0-0.38","5f219602670e5a0af2cf5237","650c16f0f2faf8d7a0d14c09","651c1dd118a9d74544563e88","null","null","<p style=""font-size: 60px; font-family: BACS"">ckLALrAJu</p>","","","","","","","","",""
"html-keyboard-response","371","484132","0.0-16.0-0.39","5f219602670e5a0af2cf5237","650c16f0f2faf8d7a0d14c09","651c1dd118a9d74544563e88","null","null","<p style=""font-size: 60px; font-family: BACS"">ckLALrAJu</p>","","","","","","","","",""
"html-keyboard-response","372","485138","0.0-16.0-0.40","5f219602670e5a0af2cf5237","650c16f0f2faf8d7a0d14c09","651c1dd118a9d74544563e88","null","null","<p style=""font-size: 60px; font-family: BACS"">ckLALrAJu</p>","","","","","","","","",""
"html-keyboard-response","373","486148","0.0-16.0-0.41","5f219602670e5a0af2cf5237","650c16f0f2faf8d7a0d14c09","651c1dd118a9d74544563e88","null","null","<p style=""font-size: 60px; font-family: BACS"">ckLALrAJu</p>","","","","","","","","",""
"html-keyboard-response","374","487161","0.0-16.0-0.42","5f219602670e5a0af2cf5237","650c16f0f2faf8d7a0d14c09","651c1dd118a9d74544563e88","null","null","<p style=""font-size: 60px; font-family: BACS"">ckLALrAJu</p>","","","","","","","","",""
"html-keyboard-response","375","488166","0.0-16.0-0.43","5f219602670e5a0af2cf5237","650c16f0f2faf8d7a0d14c09","651c1dd118a9d74544563e88","null","null","<p style=""font-size: 60px; font-family: BACS"">ckLALrAJu</p>","","","","","","","","",""
"html-keyboard-response","376","489174","0.0-16.0-0.44","5f219602670e5a0af2cf5237","650c16f0f2faf8d7a0d14c09","651c1dd118a9d74544563e88","null","null","<p style=""font-size: 60px; font-family: BACS"">ckLALrAJu</p>","","","","","","","","",""
"html-keyboard-response","377","490176","0.0-16.0-0.45","5f219602670e5a0af2cf5237","650c16f0f2faf8d7a0d14c09","651c1dd118a9d74544563e88","null","null","<p style=""font-size: 60px; font-family: BACS"">ckLALrAJu</p>","","","","","","","","",""
"html-keyboard-response","378","491180","0.0-16.0-0.46","5f219602670e5a0af2cf5237","650c16f0f2faf8d7a0d14c09","651c1dd118a9d74544563e88","null","null","<p style=""font-size: 60px; font-family: BACS"">ckLALrAJu</p>","","","","","","","","",""
"html-keyboard-response","379","492188","0.0-16.0-0.47","5f219602670e5a0af2cf5237","650c16f0f2faf8d7a0d14c09","651c1dd118a9d74544563e88","null","null","<p style=""font-size: 60px; font-family: BACS"">ckLALrAJu</p>","","","","","","","","",""
"html-keyboard-response","380","493198","0.0-16.0-0.48","5f219602670e5a0af2cf5237","650c16f0f2faf8d7a0d14c09","651c1dd118a9d74544563e88","null","null","<p style=""font-size: 60px; font-family: BACS"">ckLALrAJu</p>","","","","","","","","",""
"html-keyboard-response","381","494202","0.0-16.0-0.49","5f219602670e5a0af2cf5237","650c16f0f2faf8d7a0d14c09","651c1dd118a9d74544563e88","null","null","<p style=""font-size: 60px; font-family: BACS"">ckLALrAJu</p>","","","","","","","","",""
"html-keyboard-response","382","495212","0.0-16.0-0.50","5f219602670e5a0af2cf5237","650c16f0f2faf8d7a0d14c09","651c1dd118a9d74544563e88","null","null","<p style=""font-size: 60px; font-family: BACS"">ckLALrAJu</p>","","","","","","","","",""
"html-keyboard-response","383","496220","0.0-16.0-0.51","5f219602670e5a0af2cf5237","650c16f0f2faf8d7a0d14c09","651c1dd118a9d74544563e88","null","null","<p style=""font-size: 60px; font-family: BACS"">ckLALrAJu</p>","","","","","","","","",""
"html-keyboard-response","384","497221","0.0-16.0-0.52","5f219602670e5a0af2cf5237","650c16f0f2faf8d7a0d14c09","651c1dd118a9d74544563e88","null","null","<p style=""font-size: 60px; font-family: BACS"">ckLALrAJu</p>","","","","","","","","",""
"html-keyboard-response","385","498231","0.0-16.0-0.53","5f219602670e5a0af2cf5237","650c16f0f2faf8d7a0d14c09","651c1dd118a9d74544563e88","null","null","<p style=""font-size: 60px; font-family: BACS"">ckLALrAJu</p>","","","","","","","","",""
"html-keyboard-response","386","499237","0.0-16.0-0.54","5f219602670e5a0af2cf5237","650c16f0f2faf8d7a0d14c09","651c1dd118a9d74544563e88","null","null","<p style=""font-size: 60px; font-family: BACS"">ckLALrAJu</p>","","","","","","","","",""
"html-keyboard-response","387","500248","0.0-16.0-0.55","5f219602670e5a0af2cf5237","650c16f0f2faf8d7a0d14c09","651c1dd118a9d74544563e88","null","null","<p style=""font-size: 60px; font-family: BACS"">ckLALrAJu</p>","","","","","","","","",""
"html-keyboard-response","388","501251","0.0-16.0-0.56","5f219602670e5a0af2cf5237","650c16f0f2faf8d7a0d14c09","651c1dd118a9d74544563e88","null","null","<p style=""font-size: 60px; font-family: BACS"">ckLALrAJu</p>","","","","","","","","",""
"html-keyboard-response","389","502258","0.0-16.0-0.57","5f219602670e5a0af2cf5237","650c16f0f2faf8d7a0d14c09","651c1dd118a9d74544563e88","null","null","<p style=""font-size: 60px; font-family: BACS"">ckLALrAJu</p>","","","","","","","","",""
"html-keyboard-response","390","503264","0.0-16.0-0.58","5f219602670e5a0af2cf5237","650c16f0f2faf8d7a0d14c09","651c1dd118a9d74544563e88","null","null","<p style=""font-size: 60px; font-family: BACS"">ckLALrAJu</p>","","","","","","","","",""
"html-keyboard-response","391","504270","0.0-16.0-0.59","5f219602670e5a0af2cf5237","650c16f0f2faf8d7a0d14c09","651c1dd118a9d74544563e88","null","null","<p style=""font-size: 60px; font-family: BACS"">ckLALrAJu</p>","","","","","","","","",""
"html-keyboard-response","392","505278","0.0-16.0-0.60","5f219602670e5a0af2cf5237","650c16f0f2faf8d7a0d14c09","651c1dd118a9d74544563e88","null","null","<p style=""font-size: 60px; font-family: BACS"">ckLALrAJu</p>","","","","","","","","",""
"html-keyboard-response","393","506284","0.0-16.0-0.61","5f219602670e5a0af2cf5237","650c16f0f2faf8d7a0d14c09","651c1dd118a9d74544563e88","null","null","<p style=""font-size: 60px; font-family: BACS"">ckLALrAJu</p>","","","","","","","","",""
"html-keyboard-response","394","507291","0.0-16.0-0.62","5f219602670e5a0af2cf5237","650c16f0f2faf8d7a0d14c09","651c1dd118a9d74544563e88","null","null","<p style=""font-size: 60px; font-family: BACS"">ckLALrAJu</p>","","","","","","","","",""
"html-keyboard-response","395","508295","0.0-16.0-0.63","5f219602670e5a0af2cf5237","650c16f0f2faf8d7a0d14c09","651c1dd118a9d74544563e88","null","null","<p style=""font-size: 60px; font-family: BACS"">ckLALrAJu</p>","","","","","","","","",""
"html-keyboard-response","396","509303","0.0-16.0-0.64","5f219602670e5a0af2cf5237","650c16f0f2faf8d7a0d14c09","651c1dd118a9d74544563e88","null","null","<p style=""font-size: 60px; font-family: BACS"">ckLALrAJu</p>","","","","","","","","",""
"html-keyboard-response","397","510305","0.0-16.0-0.65","5f219602670e5a0af2cf5237","650c16f0f2faf8d7a0d14c09","651c1dd118a9d74544563e88","null","null","<p style=""font-size: 60px; font-family: BACS"">ckLALrAJu</p>","","","","","","","","",""
"html-keyboard-response","398","511308","0.0-16.0-0.66","5f219602670e5a0af2cf5237","650c16f0f2faf8d7a0d14c09","651c1dd118a9d74544563e88","null","null","<p style=""font-size: 60px; font-family: BACS"">ckLALrAJu</p>","","","","","","","","",""
"html-keyboard-response","399","512319","0.0-16.0-0.67","5f219602670e5a0af2cf5237","650c16f0f2faf8d7a0d14c09","651c1dd118a9d74544563e88","null","null","<p style=""font-size: 60px; font-family: BACS"">ckLALrAJu</p>","","","","","","","","",""
"html-keyboard-response","400","513327","0.0-16.0-0.68","5f219602670e5a0af2cf5237","650c16f0f2faf8d7a0d14c09","651c1dd118a9d74544563e88","null","null","<p style=""font-size: 60px; font-family: BACS"">ckLALrAJu</p>","","","","","","","","",""
