"trial_type","trial_index","time_elapsed","internal_node_id","subject_id","study_id","session_id","rt","response","stimulus","success","item","task","correct_response","testing_condition","correct","target","confound","name"
"pavlovia","0","1323","0.0-0.0","61616ce2bb94584e11c911af","650c16f0f2faf8d7a0d14c09","651c0a7bc6eaf8f5c63ff236","","","","","","","","","","","",""
"survey-html-form","1","25408","0.0-1.0","61616ce2bb94584e11c911af","650c16f0f2faf8d7a0d14c09","651c0a7bc6eaf8f5c63ff236","24081","{""ID"":""61616ce2bb94584e11c911af""}","","","","","","","","","",""
"html-keyboard-response","2","133409","0.0-2.0","61616ce2bb94584e11c911af","650c16f0f2faf8d7a0d14c09","651c0a7bc6eaf8f5c63ff236","107997"," ","<p style=""font-size: 15px;"">Before beginning, we ask that you read the consent information and confirm your agreement to participate in the experiment.</p>
      <p style=""font-size: 15px;""> We ask that you remember that this is a research project and that your participation is entirely voluntary. You can stop your participation at any time, without needing to provide any explanation. The study we're asking you to participate in aims at examining how readers process written words. You will be engaged in a session of apprximately 20 minutes, followed by a brief questionnaire. You will have the opportunity to take a few breaks during the experiment. You will be paid £4 for your participation, corresponding to a rate of £8/hour. While this experiment looks at cognitive faculties, this experiment doesn't constitute clinical proof of eventual pathologies.</p>
      <p style=""font-size: 15px;"">All of the information collected thanks to yours and others' participation will be held in a secure password-protected server, and will not be shared with anyone not authorised to view it. Your personal information will be kept with an arbitrary participant ID. Thanks to this data anonymity process, any researcher analysing the data won't be able to track the information back to a specific participant. Therefore, this process will make identifying you impossibile, even when results from the study will be published in scientific reviews, presented at congresses, or at any other public forum. More generally, the collected data will be treated in accordance with the laws on privacy and conformity to the Legislative Degree n. 196 ""Code regarding the protection of personal data"" of the 30th of June 2003 and to the European Regulation 2016/670 (General Data Protection Regulation - GDPR). The Data Protection Officer is Avv. Valentina Carollo, who can be contacted at the following email addresses: <a href=""mailto:dpo@sissa.it"">dpo@sissa.it</a> or <a href=""mailto:rpd@sissa.it"">rpd@sissa.it</a> - PEC: <a href=""mailto:protocollo@pec.sissa.it"">protocollo@pec.sissa.it</a>.</p>
      <p style=""font-size: 15px;""> Before expressing your consent to participate, we would like to remind you again that in case you need explanations on any aspect of the experimental procedure, the researcher is at your disposition (<a href=""mailto:aliebelt@sissa.it"">aliebelt@sissa.it</a>, <a href=""mailto:davide.crepaldi@sissa.it"">davide.crepaldi@sissa.it</a>).</p>
      <p style=""font-size: 15px;"">If you would like to download the informed consent form, you can do so here: <a href=""BASL-Informed_Consent.pdf"" download>informed consent form</a>.</p>
      <p style=""font-size: 15px;"">We ask that you press the spacebar to proceed to the consent section.</p>","","","","","","","","",""
"survey-html-form","3","165542","0.0-3.0","61616ce2bb94584e11c911af","650c16f0f2faf8d7a0d14c09","651c0a7bc6eaf8f5c63ff236","32137","{""consent1"":""YES"",""consent2"":""YES"",""consent3"":""YES"",""consent4"":""YES"",""consent5"":""YES"",""consent6"":""YES""}","","","","","","","","","",""
"fullscreen","4","172393","0.0-4.0","61616ce2bb94584e11c911af","650c16f0f2faf8d7a0d14c09","651c0a7bc6eaf8f5c63ff236","","","","true","","","","","","","",""
"html-keyboard-response","5","211471","0.0-5.0","61616ce2bb94584e11c911af","650c16f0f2faf8d7a0d14c09","651c0a7bc6eaf8f5c63ff236","39071"," ","<p>Welcome, and thank you very much for your time!</p>
      <p>In this experiment, you'll be a language expert who's been asked to take a look at words that Earth has received in its first communication with aliens. Your task, in this first part of the experiment, is to pay close attention to the words you'll be shown; later, world leaders will ask you questions on what you saw. The words will be shown to you quite quickly; it seems that the aliens were in a hurry :-)</p>
      <p>Press the spacebar to continue.<p>","","","","","","","","",""
"html-keyboard-response","6","211528","0.0-6.0","61616ce2bb94584e11c911af","650c16f0f2faf8d7a0d14c09","651c0a7bc6eaf8f5c63ff236","null","null","<p style=""font-size: 120px; font-family: BACS""> </p>","","","","","","","","",""
"html-keyboard-response","7","242672","0.0-7.0","61616ce2bb94584e11c911af","650c16f0f2faf8d7a0d14c09","651c0a7bc6eaf8f5c63ff236","31144"," ","<p>Here is an example of the words you'll see:</p>
      <img src='esempio.png' height='400px'>
      <p>When you're ready to begin, press the spacebar.</p></div>","","","","","","","","",""
"html-keyboard-response","8","243682","0.0-8.0-0.0","61616ce2bb94584e11c911af","650c16f0f2faf8d7a0d14c09","651c0a7bc6eaf8f5c63ff236","null","null","<p style=""font-size: 60px; font-family: BACS"">GLYrArba</p>","","","","","","","","",""
"html-keyboard-response","9","244693","0.0-8.0-0.1","61616ce2bb94584e11c911af","650c16f0f2faf8d7a0d14c09","651c0a7bc6eaf8f5c63ff236","null","null","<p style=""font-size: 60px; font-family: BACS"">JAaGJUNa</p>","","","","","","","","",""
"html-keyboard-response","10","245696","0.0-8.0-0.2","61616ce2bb94584e11c911af","650c16f0f2faf8d7a0d14c09","651c0a7bc6eaf8f5c63ff236","null","null","<p style=""font-size: 60px; font-family: BACS"">PEtEYht</p>","","","","","","","","",""
"html-keyboard-response","11","246706","0.0-8.0-0.3","61616ce2bb94584e11c911af","650c16f0f2faf8d7a0d14c09","651c0a7bc6eaf8f5c63ff236","null","null","<p style=""font-size: 60px; font-family: BACS"">tmYhkKE</p>","","","","","","","","",""
"html-keyboard-response","12","247710","0.0-8.0-0.4","61616ce2bb94584e11c911af","650c16f0f2faf8d7a0d14c09","651c0a7bc6eaf8f5c63ff236","null","null","<p style=""font-size: 60px; font-family: BACS"">ABPRBkDOm</p>","","","","","","","","",""
"html-keyboard-response","13","248720","0.0-8.0-0.5","61616ce2bb94584e11c911af","650c16f0f2faf8d7a0d14c09","651c0a7bc6eaf8f5c63ff236","null","null","<p style=""font-size: 60px; font-family: BACS"">OMlTABb</p>","","","","","","","","",""
"html-keyboard-response","14","249732","0.0-8.0-0.6","61616ce2bb94584e11c911af","650c16f0f2faf8d7a0d14c09","651c0a7bc6eaf8f5c63ff236","null","null","<p style=""font-size: 60px; font-family: BACS"">JAaGrAm</p>","","","","","","","","",""
"html-keyboard-response","15","250746","0.0-8.0-0.7","61616ce2bb94584e11c911af","650c16f0f2faf8d7a0d14c09","651c0a7bc6eaf8f5c63ff236","null","null","<p style=""font-size: 60px; font-family: BACS"">kMbTRYcM</p>","","","","","","","","",""
"html-keyboard-response","16","251748","0.0-8.0-0.8","61616ce2bb94584e11c911af","650c16f0f2faf8d7a0d14c09","651c0a7bc6eaf8f5c63ff236","null","null","<p style=""font-size: 60px; font-family: BACS"">mdkKABb</p>","","","","","","","","",""
"html-keyboard-response","17","252753","0.0-8.0-0.9","61616ce2bb94584e11c911af","650c16f0f2faf8d7a0d14c09","651c0a7bc6eaf8f5c63ff236","null","null","<p style=""font-size: 60px; font-family: BACS"">UdumdrGl</p>","","","","","","","","",""
"html-keyboard-response","18","253754","0.0-8.0-0.10","61616ce2bb94584e11c911af","650c16f0f2faf8d7a0d14c09","651c0a7bc6eaf8f5c63ff236","null","null","<p style=""font-size: 60px; font-family: BACS"">mdkKkKE</p>","","","","","","","","",""
"html-keyboard-response","19","254756","0.0-8.0-0.11","61616ce2bb94584e11c911af","650c16f0f2faf8d7a0d14c09","651c0a7bc6eaf8f5c63ff236","null","null","<p style=""font-size: 60px; font-family: BACS"">KElBYht</p>","","","","","","","","",""
"html-keyboard-response","20","255762","0.0-8.0-0.12","61616ce2bb94584e11c911af","650c16f0f2faf8d7a0d14c09","651c0a7bc6eaf8f5c63ff236","null","null","<p style=""font-size: 60px; font-family: BACS"">lYruarGl</p>","","","","","","","","",""
"html-keyboard-response","21","256769","0.0-8.0-0.13","61616ce2bb94584e11c911af","650c16f0f2faf8d7a0d14c09","651c0a7bc6eaf8f5c63ff236","null","null","<p style=""font-size: 60px; font-family: BACS"">GLYrAJUNa</p>","","","","","","","","",""
"html-keyboard-response","22","257780","0.0-8.0-0.14","61616ce2bb94584e11c911af","650c16f0f2faf8d7a0d14c09","651c0a7bc6eaf8f5c63ff236","null","null","<p style=""font-size: 60px; font-family: BACS"">kGlUrGl</p>","","","","","","","","",""
"html-keyboard-response","23","258788","0.0-8.0-0.15","61616ce2bb94584e11c911af","650c16f0f2faf8d7a0d14c09","651c0a7bc6eaf8f5c63ff236","null","null","<p style=""font-size: 60px; font-family: BACS"">JAaGrba</p>","","","","","","","","",""
"html-keyboard-response","24","259789","0.0-8.0-0.16","61616ce2bb94584e11c911af","650c16f0f2faf8d7a0d14c09","651c0a7bc6eaf8f5c63ff236","null","null","<p style=""font-size: 60px; font-family: BACS"">ABPRBkKE</p>","","","","","","","","",""
"html-keyboard-response","25","260794","0.0-8.0-0.17","61616ce2bb94584e11c911af","650c16f0f2faf8d7a0d14c09","651c0a7bc6eaf8f5c63ff236","null","null","<p style=""font-size: 60px; font-family: BACS"">GJGcZYUYa</p>","","","","","","","","",""
"html-keyboard-response","26","261799","0.0-8.0-0.18","61616ce2bb94584e11c911af","650c16f0f2faf8d7a0d14c09","651c0a7bc6eaf8f5c63ff236","null","null","<p style=""font-size: 60px; font-family: BACS"">KElBkKE</p>","","","","","","","","",""
"html-keyboard-response","27","262804","0.0-8.0-0.19","61616ce2bb94584e11c911af","650c16f0f2faf8d7a0d14c09","651c0a7bc6eaf8f5c63ff236","null","null","<p style=""font-size: 60px; font-family: BACS"">vJabrba</p>","","","","","","","","",""
"html-keyboard-response","28","263811","0.0-8.0-0.20","61616ce2bb94584e11c911af","650c16f0f2faf8d7a0d14c09","651c0a7bc6eaf8f5c63ff236","null","null","<p style=""font-size: 60px; font-family: BACS"">KElBABb</p>","","","","","","","","",""
"html-keyboard-response","29","264814","0.0-8.0-0.21","61616ce2bb94584e11c911af","650c16f0f2faf8d7a0d14c09","651c0a7bc6eaf8f5c63ff236","null","null","<p style=""font-size: 60px; font-family: BACS"">lYruarAm</p>","","","","","","","","",""
"html-keyboard-response","30","265821","0.0-8.0-0.22","61616ce2bb94584e11c911af","650c16f0f2faf8d7a0d14c09","651c0a7bc6eaf8f5c63ff236","null","null","<p style=""font-size: 60px; font-family: BACS"">GLYrArGl</p>","","","","","","","","",""
"html-keyboard-response","31","266837","0.0-8.0-0.23","61616ce2bb94584e11c911af","650c16f0f2faf8d7a0d14c09","651c0a7bc6eaf8f5c63ff236","null","null","<p style=""font-size: 60px; font-family: BACS"">GJGcZrAm</p>","","","","","","","","",""
"html-keyboard-response","32","267842","0.0-8.0-0.24","61616ce2bb94584e11c911af","650c16f0f2faf8d7a0d14c09","651c0a7bc6eaf8f5c63ff236","null","null","<p style=""font-size: 60px; font-family: BACS"">kGlUJUNa</p>","","","","","","","","",""
"html-keyboard-response","33","268856","0.0-8.0-0.25","61616ce2bb94584e11c911af","650c16f0f2faf8d7a0d14c09","651c0a7bc6eaf8f5c63ff236","null","null","<p style=""font-size: 60px; font-family: BACS"">kMbTRYht</p>","","","","","","","","",""
"html-keyboard-response","34","269859","0.0-8.0-0.26","61616ce2bb94584e11c911af","650c16f0f2faf8d7a0d14c09","651c0a7bc6eaf8f5c63ff236","null","null","<p style=""font-size: 60px; font-family: BACS"">ABPRBABb</p>","","","","","","","","",""
"html-keyboard-response","35","270861","0.0-8.0-0.27","61616ce2bb94584e11c911af","650c16f0f2faf8d7a0d14c09","651c0a7bc6eaf8f5c63ff236","null","null","<p style=""font-size: 60px; font-family: BACS"">hYDmtYht</p>","","","","","","","","",""
"html-keyboard-response","36","271871","0.0-8.0-0.28","61616ce2bb94584e11c911af","650c16f0f2faf8d7a0d14c09","651c0a7bc6eaf8f5c63ff236","null","null","<p style=""font-size: 60px; font-family: BACS"">mZUrQrGl</p>","","","","","","","","",""
"html-keyboard-response","37","272874","0.0-8.0-0.29","61616ce2bb94584e11c911af","650c16f0f2faf8d7a0d14c09","651c0a7bc6eaf8f5c63ff236","null","null","<p style=""font-size: 60px; font-family: BACS"">chEDOYcM</p>","","","","","","","","",""
"html-keyboard-response","38","273887","0.0-8.0-0.30","61616ce2bb94584e11c911af","650c16f0f2faf8d7a0d14c09","651c0a7bc6eaf8f5c63ff236","null","null","<p style=""font-size: 60px; font-family: BACS"">JauQJUNa</p>","","","","","","","","",""
"html-keyboard-response","39","274898","0.0-8.0-0.31","61616ce2bb94584e11c911af","650c16f0f2faf8d7a0d14c09","651c0a7bc6eaf8f5c63ff236","null","null","<p style=""font-size: 60px; font-family: BACS"">OMlTYcM</p>","","","","","","","","",""
"html-keyboard-response","40","275912","0.0-8.0-0.32","61616ce2bb94584e11c911af","650c16f0f2faf8d7a0d14c09","651c0a7bc6eaf8f5c63ff236","null","null","<p style=""font-size: 60px; font-family: BACS"">GJGcZrGl</p>","","","","","","","","",""
"html-keyboard-response","41","276919","0.0-8.0-0.33","61616ce2bb94584e11c911af","650c16f0f2faf8d7a0d14c09","651c0a7bc6eaf8f5c63ff236","null","null","<p style=""font-size: 60px; font-family: BACS"">lYruarba</p>","","","","","","","","",""
"html-keyboard-response","42","277927","0.0-8.0-0.34","61616ce2bb94584e11c911af","650c16f0f2faf8d7a0d14c09","651c0a7bc6eaf8f5c63ff236","null","null","<p style=""font-size: 60px; font-family: BACS"">chEDOYht</p>","","","","","","","","",""
"html-keyboard-response","43","278943","0.0-8.0-0.35","61616ce2bb94584e11c911af","650c16f0f2faf8d7a0d14c09","651c0a7bc6eaf8f5c63ff236","null","null","<p style=""font-size: 60px; font-family: BACS"">kGlUrAm</p>","","","","","","","","",""
"html-keyboard-response","44","279953","0.0-8.0-0.36","61616ce2bb94584e11c911af","650c16f0f2faf8d7a0d14c09","651c0a7bc6eaf8f5c63ff236","null","null","<p style=""font-size: 60px; font-family: BACS"">chEDOkDOm</p>","","","","","","","","",""
"html-keyboard-response","45","280955","0.0-8.0-0.37","61616ce2bb94584e11c911af","650c16f0f2faf8d7a0d14c09","651c0a7bc6eaf8f5c63ff236","null","null","<p style=""font-size: 60px; font-family: BACS"">JauQYUYa</p>","","","","","","","","",""
"html-keyboard-response","46","281960","0.0-8.0-0.38","61616ce2bb94584e11c911af","650c16f0f2faf8d7a0d14c09","651c0a7bc6eaf8f5c63ff236","null","null","<p style=""font-size: 60px; font-family: BACS"">UdumdrAm</p>","","","","","","","","",""
"html-keyboard-response","47","282963","0.0-8.0-0.39","61616ce2bb94584e11c911af","650c16f0f2faf8d7a0d14c09","651c0a7bc6eaf8f5c63ff236","null","null","<p style=""font-size: 60px; font-family: BACS"">PEtEYcM</p>","","","","","","","","",""
"html-keyboard-response","48","283973","0.0-8.0-0.40","61616ce2bb94584e11c911af","650c16f0f2faf8d7a0d14c09","651c0a7bc6eaf8f5c63ff236","null","null","<p style=""font-size: 60px; font-family: BACS"">GLYrAYUYa</p>","","","","","","","","",""
"html-keyboard-response","49","284985","0.0-8.0-0.41","61616ce2bb94584e11c911af","650c16f0f2faf8d7a0d14c09","651c0a7bc6eaf8f5c63ff236","null","null","<p style=""font-size: 60px; font-family: BACS"">BlmclkKE</p>","","","","","","","","",""
"html-keyboard-response","50","285999","0.0-8.0-0.42","61616ce2bb94584e11c911af","650c16f0f2faf8d7a0d14c09","651c0a7bc6eaf8f5c63ff236","null","null","<p style=""font-size: 60px; font-family: BACS"">mZUrQYUYa</p>","","","","","","","","",""
"html-keyboard-response","51","287017","0.0-8.0-0.43","61616ce2bb94584e11c911af","650c16f0f2faf8d7a0d14c09","651c0a7bc6eaf8f5c63ff236","null","null","<p style=""font-size: 60px; font-family: BACS"">tmYhYcM</p>","","","","","","","","",""
"html-keyboard-response","52","288023","0.0-8.0-0.44","61616ce2bb94584e11c911af","650c16f0f2faf8d7a0d14c09","651c0a7bc6eaf8f5c63ff236","null","null","<p style=""font-size: 60px; font-family: BACS"">vJabYUYa</p>","","","","","","","","",""
"html-keyboard-response","53","289041","0.0-8.0-0.45","61616ce2bb94584e11c911af","650c16f0f2faf8d7a0d14c09","651c0a7bc6eaf8f5c63ff236","null","null","<p style=""font-size: 60px; font-family: BACS"">JauQrAm</p>","","","","","","","","",""
"html-keyboard-response","54","290049","0.0-8.0-0.46","61616ce2bb94584e11c911af","650c16f0f2faf8d7a0d14c09","651c0a7bc6eaf8f5c63ff236","null","null","<p style=""font-size: 60px; font-family: BACS"">PEtEkDOm</p>","","","","","","","","",""
"html-keyboard-response","55","291055","0.0-8.0-0.47","61616ce2bb94584e11c911af","650c16f0f2faf8d7a0d14c09","651c0a7bc6eaf8f5c63ff236","null","null","<p style=""font-size: 60px; font-family: BACS"">tmYhYht</p>","","","","","","","","",""
"html-keyboard-response","56","292058","0.0-8.0-0.48","61616ce2bb94584e11c911af","650c16f0f2faf8d7a0d14c09","651c0a7bc6eaf8f5c63ff236","null","null","<p style=""font-size: 60px; font-family: BACS"">BlmclABb</p>","","","","","","","","",""
"html-keyboard-response","57","293073","0.0-8.0-0.49","61616ce2bb94584e11c911af","650c16f0f2faf8d7a0d14c09","651c0a7bc6eaf8f5c63ff236","null","null","<p style=""font-size: 60px; font-family: BACS"">vJabrAm</p>","","","","","","","","",""
"html-keyboard-response","58","294080","0.0-8.0-0.50","61616ce2bb94584e11c911af","650c16f0f2faf8d7a0d14c09","651c0a7bc6eaf8f5c63ff236","null","null","<p style=""font-size: 60px; font-family: BACS"">ABPRBYcM</p>","","","","","","","","",""
"html-keyboard-response","59","295089","0.0-8.0-0.51","61616ce2bb94584e11c911af","650c16f0f2faf8d7a0d14c09","651c0a7bc6eaf8f5c63ff236","null","null","<p style=""font-size: 60px; font-family: BACS"">kGlUYUYa</p>","","","","","","","","",""
"html-keyboard-response","60","296097","0.0-8.0-0.52","61616ce2bb94584e11c911af","650c16f0f2faf8d7a0d14c09","651c0a7bc6eaf8f5c63ff236","null","null","<p style=""font-size: 60px; font-family: BACS"">GJGcZrba</p>","","","","","","","","",""
"html-keyboard-response","61","297099","0.0-8.0-0.53","61616ce2bb94584e11c911af","650c16f0f2faf8d7a0d14c09","651c0a7bc6eaf8f5c63ff236","null","null","<p style=""font-size: 60px; font-family: BACS"">mZUrQJUNa</p>","","","","","","","","",""
"html-keyboard-response","62","298106","0.0-8.0-0.54","61616ce2bb94584e11c911af","650c16f0f2faf8d7a0d14c09","651c0a7bc6eaf8f5c63ff236","null","null","<p style=""font-size: 60px; font-family: BACS"">OMlTkKE</p>","","","","","","","","",""
"html-keyboard-response","63","299113","0.0-8.0-0.55","61616ce2bb94584e11c911af","650c16f0f2faf8d7a0d14c09","651c0a7bc6eaf8f5c63ff236","null","null","<p style=""font-size: 60px; font-family: BACS"">hYDmtABb</p>","","","","","","","","",""
"html-keyboard-response","64","300123","0.0-8.0-0.56","61616ce2bb94584e11c911af","650c16f0f2faf8d7a0d14c09","651c0a7bc6eaf8f5c63ff236","null","null","<p style=""font-size: 60px; font-family: BACS"">kMbTRkKE</p>","","","","","","","","",""
"html-keyboard-response","65","301132","0.0-8.0-0.57","61616ce2bb94584e11c911af","650c16f0f2faf8d7a0d14c09","651c0a7bc6eaf8f5c63ff236","null","null","<p style=""font-size: 60px; font-family: BACS"">hYDmtkDOm</p>","","","","","","","","",""
"html-keyboard-response","66","302138","0.0-8.0-0.58","61616ce2bb94584e11c911af","650c16f0f2faf8d7a0d14c09","651c0a7bc6eaf8f5c63ff236","null","null","<p style=""font-size: 60px; font-family: BACS"">UdumdJUNa</p>","","","","","","","","",""
"html-keyboard-response","67","303147","0.0-8.0-0.59","61616ce2bb94584e11c911af","650c16f0f2faf8d7a0d14c09","651c0a7bc6eaf8f5c63ff236","null","null","<p style=""font-size: 60px; font-family: BACS"">vJabrGl</p>","","","","","","","","",""
"html-keyboard-response","68","304161","0.0-8.0-0.60","61616ce2bb94584e11c911af","650c16f0f2faf8d7a0d14c09","651c0a7bc6eaf8f5c63ff236","null","null","<p style=""font-size: 60px; font-family: BACS"">mdkKYht</p>","","","","","","","","",""
"html-keyboard-response","69","305164","0.0-8.0-0.61","61616ce2bb94584e11c911af","650c16f0f2faf8d7a0d14c09","651c0a7bc6eaf8f5c63ff236","null","null","<p style=""font-size: 60px; font-family: BACS"">PEtEkKE</p>","","","","","","","","",""
"html-keyboard-response","70","306177","0.0-8.0-0.62","61616ce2bb94584e11c911af","650c16f0f2faf8d7a0d14c09","651c0a7bc6eaf8f5c63ff236","null","null","<p style=""font-size: 60px; font-family: BACS"">Udumdrba</p>","","","","","","","","",""
"html-keyboard-response","71","307181","0.0-8.0-0.63","61616ce2bb94584e11c911af","650c16f0f2faf8d7a0d14c09","651c0a7bc6eaf8f5c63ff236","null","null","<p style=""font-size: 60px; font-family: BACS"">rvUbrAm</p>","","","","","","","","",""
"html-keyboard-response","72","308185","0.0-8.0-0.64","61616ce2bb94584e11c911af","650c16f0f2faf8d7a0d14c09","651c0a7bc6eaf8f5c63ff236","null","null","<p style=""font-size: 60px; font-family: BACS"">chEDOABb</p>","","","","","","","","",""
"html-keyboard-response","73","309186","0.0-8.0-0.65","61616ce2bb94584e11c911af","650c16f0f2faf8d7a0d14c09","651c0a7bc6eaf8f5c63ff236","null","null","<p style=""font-size: 60px; font-family: BACS"">mdkKkDOm</p>","","","","","","","","",""
"html-keyboard-response","74","310202","0.0-8.0-0.66","61616ce2bb94584e11c911af","650c16f0f2faf8d7a0d14c09","651c0a7bc6eaf8f5c63ff236","null","null","<p style=""font-size: 60px; font-family: BACS"">BlmclYcM</p>","","","","","","","","",""
"html-keyboard-response","75","311209","0.0-8.0-0.67","61616ce2bb94584e11c911af","650c16f0f2faf8d7a0d14c09","651c0a7bc6eaf8f5c63ff236","null","null","<p style=""font-size: 60px; font-family: BACS"">lYruaJUNa</p>","","","","","","","","",""
"html-keyboard-response","76","312212","0.0-8.0-0.68","61616ce2bb94584e11c911af","650c16f0f2faf8d7a0d14c09","651c0a7bc6eaf8f5c63ff236","null","null","<p style=""font-size: 60px; font-family: BACS"">JauQrGl</p>","","","","","","","","",""
"html-keyboard-response","77","313228","0.0-8.0-0.69","61616ce2bb94584e11c911af","650c16f0f2faf8d7a0d14c09","651c0a7bc6eaf8f5c63ff236","null","null","<p style=""font-size: 60px; font-family: BACS"">rvUbJUNa</p>","","","","","","","","",""
"html-keyboard-response","78","314243","0.0-8.0-0.70","61616ce2bb94584e11c911af","650c16f0f2faf8d7a0d14c09","651c0a7bc6eaf8f5c63ff236","null","null","<p style=""font-size: 60px; font-family: BACS"">JAaGYUYa</p>","","","","","","","","",""
"html-keyboard-response","79","315252","0.0-8.0-0.71","61616ce2bb94584e11c911af","650c16f0f2faf8d7a0d14c09","651c0a7bc6eaf8f5c63ff236","null","null","<p style=""font-size: 60px; font-family: BACS"">rvUbrba</p>","","","","","","","","",""
"html-keyboard-response","80","316261","0.0-8.0-0.72","61616ce2bb94584e11c911af","650c16f0f2faf8d7a0d14c09","651c0a7bc6eaf8f5c63ff236","null","null","<p style=""font-size: 60px; font-family: BACS"">OMlTYht</p>","","","","","","","","",""
"html-keyboard-response","81","317276","0.0-8.0-0.73","61616ce2bb94584e11c911af","650c16f0f2faf8d7a0d14c09","651c0a7bc6eaf8f5c63ff236","null","null","<p style=""font-size: 60px; font-family: BACS"">tmYhkDOm</p>","","","","","","","","",""
"html-keyboard-response","82","318289","0.0-8.0-0.74","61616ce2bb94584e11c911af","650c16f0f2faf8d7a0d14c09","651c0a7bc6eaf8f5c63ff236","null","null","<p style=""font-size: 60px; font-family: BACS"">hYDmtYcM</p>","","","","","","","","",""
"html-keyboard-response","83","319296","0.0-8.0-0.75","61616ce2bb94584e11c911af","650c16f0f2faf8d7a0d14c09","651c0a7bc6eaf8f5c63ff236","null","null","<p style=""font-size: 60px; font-family: BACS"">KElBkDOm</p>","","","","","","","","",""
"html-keyboard-response","84","320305","0.0-8.0-0.76","61616ce2bb94584e11c911af","650c16f0f2faf8d7a0d14c09","651c0a7bc6eaf8f5c63ff236","null","null","<p style=""font-size: 60px; font-family: BACS"">mZUrQrba</p>","","","","","","","","",""
"html-keyboard-response","85","321311","0.0-8.0-0.77","61616ce2bb94584e11c911af","650c16f0f2faf8d7a0d14c09","651c0a7bc6eaf8f5c63ff236","null","null","<p style=""font-size: 60px; font-family: BACS"">rvUbYUYa</p>","","","","","","","","",""
"html-keyboard-response","86","322318","0.0-8.0-0.78","61616ce2bb94584e11c911af","650c16f0f2faf8d7a0d14c09","651c0a7bc6eaf8f5c63ff236","null","null","<p style=""font-size: 60px; font-family: BACS"">kMbTRABb</p>","","","","","","","","",""
"html-keyboard-response","87","323327","0.0-8.0-0.79","61616ce2bb94584e11c911af","650c16f0f2faf8d7a0d14c09","651c0a7bc6eaf8f5c63ff236","null","null","<p style=""font-size: 60px; font-family: BACS"">BlmclkDOm</p>","","","","","","","","",""
"html-keyboard-response","88","330823","0.0-9.0","61616ce2bb94584e11c911af","650c16f0f2faf8d7a0d14c09","651c0a7bc6eaf8f5c63ff236","7495"," ","<p>Great, you've seen the first block of words. You may now take a short break.</p>
      <p>Press the spacebar when you're ready to continue.</p>","","","","","","","","",""
"html-keyboard-response","89","331836","0.0-10.0-0.0","61616ce2bb94584e11c911af","650c16f0f2faf8d7a0d14c09","651c0a7bc6eaf8f5c63ff236","null","null","<p style=""font-size: 60px; font-family: BACS"">KElBkKE</p>","","","","","","","","",""
"html-keyboard-response","90","332850","0.0-10.0-0.1","61616ce2bb94584e11c911af","650c16f0f2faf8d7a0d14c09","651c0a7bc6eaf8f5c63ff236","null","null","<p style=""font-size: 60px; font-family: BACS"">hYDmtkDOm</p>","","","","","","","","",""
"html-keyboard-response","91","333864","0.0-10.0-0.2","61616ce2bb94584e11c911af","650c16f0f2faf8d7a0d14c09","651c0a7bc6eaf8f5c63ff236","null","null","<p style=""font-size: 60px; font-family: BACS"">rvUbJUNa</p>","","","","","","","","",""
"html-keyboard-response","92","334867","0.0-10.0-0.3","61616ce2bb94584e11c911af","650c16f0f2faf8d7a0d14c09","651c0a7bc6eaf8f5c63ff236","null","null","<p style=""font-size: 60px; font-family: BACS"">PEtEYcM</p>","","","","","","","","",""
"html-keyboard-response","93","335884","0.0-10.0-0.4","61616ce2bb94584e11c911af","650c16f0f2faf8d7a0d14c09","651c0a7bc6eaf8f5c63ff236","null","null","<p style=""font-size: 60px; font-family: BACS"">JAaGrAm</p>","","","","","","","","",""
"html-keyboard-response","94","336889","0.0-10.0-0.5","61616ce2bb94584e11c911af","650c16f0f2faf8d7a0d14c09","651c0a7bc6eaf8f5c63ff236","null","null","<p style=""font-size: 60px; font-family: BACS"">JauQJUNa</p>","","","","","","","","",""
"html-keyboard-response","95","337892","0.0-10.0-0.6","61616ce2bb94584e11c911af","650c16f0f2faf8d7a0d14c09","651c0a7bc6eaf8f5c63ff236","null","null","<p style=""font-size: 60px; font-family: BACS"">lYruarGl</p>","","","","","","","","",""
"html-keyboard-response","96","338893","0.0-10.0-0.7","61616ce2bb94584e11c911af","650c16f0f2faf8d7a0d14c09","651c0a7bc6eaf8f5c63ff236","null","null","<p style=""font-size: 60px; font-family: BACS"">chEDOYcM</p>","","","","","","","","",""
"html-keyboard-response","97","339906","0.0-10.0-0.8","61616ce2bb94584e11c911af","650c16f0f2faf8d7a0d14c09","651c0a7bc6eaf8f5c63ff236","null","null","<p style=""font-size: 60px; font-family: BACS"">mZUrQrGl</p>","","","","","","","","",""
"html-keyboard-response","98","340916","0.0-10.0-0.9","61616ce2bb94584e11c911af","650c16f0f2faf8d7a0d14c09","651c0a7bc6eaf8f5c63ff236","null","null","<p style=""font-size: 60px; font-family: BACS"">GJGcZrAm</p>","","","","","","","","",""
"html-keyboard-response","99","341932","0.0-10.0-0.10","61616ce2bb94584e11c911af","650c16f0f2faf8d7a0d14c09","651c0a7bc6eaf8f5c63ff236","null","null","<p style=""font-size: 60px; font-family: BACS"">JAaGrba</p>","","","","","","","","",""
"html-keyboard-response","100","342935","0.0-10.0-0.11","61616ce2bb94584e11c911af","650c16f0f2faf8d7a0d14c09","651c0a7bc6eaf8f5c63ff236","null","null","<p style=""font-size: 60px; font-family: BACS"">BlmclABb</p>","","","","","","","","",""
"html-keyboard-response","101","343948","0.0-10.0-0.12","61616ce2bb94584e11c911af","650c16f0f2faf8d7a0d14c09","651c0a7bc6eaf8f5c63ff236","null","null","<p style=""font-size: 60px; font-family: BACS"">GJGcZrba</p>","","","","","","","","",""
"html-keyboard-response","102","344950","0.0-10.0-0.13","61616ce2bb94584e11c911af","650c16f0f2faf8d7a0d14c09","651c0a7bc6eaf8f5c63ff236","null","null","<p style=""font-size: 60px; font-family: BACS"">kMbTRYht</p>","","","","","","","","",""
"html-keyboard-response","103","345963","0.0-10.0-0.14","61616ce2bb94584e11c911af","650c16f0f2faf8d7a0d14c09","651c0a7bc6eaf8f5c63ff236","null","null","<p style=""font-size: 60px; font-family: BACS"">tmYhkDOm</p>","","","","","","","","",""
"html-keyboard-response","104","346973","0.0-10.0-0.15","61616ce2bb94584e11c911af","650c16f0f2faf8d7a0d14c09","651c0a7bc6eaf8f5c63ff236","null","null","<p style=""font-size: 60px; font-family: BACS"">kGlUYUYa</p>","","","","","","","","",""
"html-keyboard-response","105","347977","0.0-10.0-0.16","61616ce2bb94584e11c911af","650c16f0f2faf8d7a0d14c09","651c0a7bc6eaf8f5c63ff236","null","null","<p style=""font-size: 60px; font-family: BACS"">mdkKkDOm</p>","","","","","","","","",""
"html-keyboard-response","106","348993","0.0-10.0-0.17","61616ce2bb94584e11c911af","650c16f0f2faf8d7a0d14c09","651c0a7bc6eaf8f5c63ff236","null","null","<p style=""font-size: 60px; font-family: BACS"">tmYhYht</p>","","","","","","","","",""
"html-keyboard-response","107","350009","0.0-10.0-0.18","61616ce2bb94584e11c911af","650c16f0f2faf8d7a0d14c09","651c0a7bc6eaf8f5c63ff236","null","null","<p style=""font-size: 60px; font-family: BACS"">mZUrQYUYa</p>","","","","","","","","",""
"html-keyboard-response","108","351018","0.0-10.0-0.19","61616ce2bb94584e11c911af","650c16f0f2faf8d7a0d14c09","651c0a7bc6eaf8f5c63ff236","null","null","<p style=""font-size: 60px; font-family: BACS"">chEDOYht</p>","","","","","","","","",""
"html-keyboard-response","109","352034","0.0-10.0-0.20","61616ce2bb94584e11c911af","650c16f0f2faf8d7a0d14c09","651c0a7bc6eaf8f5c63ff236","null","null","<p style=""font-size: 60px; font-family: BACS"">hYDmtYcM</p>","","","","","","","","",""
"html-keyboard-response","110","353038","0.0-10.0-0.21","61616ce2bb94584e11c911af","650c16f0f2faf8d7a0d14c09","651c0a7bc6eaf8f5c63ff236","null","null","<p style=""font-size: 60px; font-family: BACS"">KElBABb</p>","","","","","","","","",""
"html-keyboard-response","111","354043","0.0-10.0-0.22","61616ce2bb94584e11c911af","650c16f0f2faf8d7a0d14c09","651c0a7bc6eaf8f5c63ff236","null","null","<p style=""font-size: 60px; font-family: BACS"">GLYrAYUYa</p>","","","","","","","","",""
"html-keyboard-response","112","355054","0.0-10.0-0.23","61616ce2bb94584e11c911af","650c16f0f2faf8d7a0d14c09","651c0a7bc6eaf8f5c63ff236","null","null","<p style=""font-size: 60px; font-family: BACS"">kMbTRABb</p>","","","","","","","","",""
"html-keyboard-response","113","356067","0.0-10.0-0.24","61616ce2bb94584e11c911af","650c16f0f2faf8d7a0d14c09","651c0a7bc6eaf8f5c63ff236","null","null","<p style=""font-size: 60px; font-family: BACS"">kGlUrGl</p>","","","","","","","","",""
"html-keyboard-response","114","357081","0.0-10.0-0.25","61616ce2bb94584e11c911af","650c16f0f2faf8d7a0d14c09","651c0a7bc6eaf8f5c63ff236","null","null","<p style=""font-size: 60px; font-family: BACS"">lYruarba</p>","","","","","","","","",""
"html-keyboard-response","115","358083","0.0-10.0-0.26","61616ce2bb94584e11c911af","650c16f0f2faf8d7a0d14c09","651c0a7bc6eaf8f5c63ff236","null","null","<p style=""font-size: 60px; font-family: BACS"">KElBYht</p>","","","","","","","","",""
"html-keyboard-response","116","359086","0.0-10.0-0.27","61616ce2bb94584e11c911af","650c16f0f2faf8d7a0d14c09","651c0a7bc6eaf8f5c63ff236","null","null","<p style=""font-size: 60px; font-family: BACS"">vJabYUYa</p>","","","","","","","","",""
"html-keyboard-response","117","360091","0.0-10.0-0.28","61616ce2bb94584e11c911af","650c16f0f2faf8d7a0d14c09","651c0a7bc6eaf8f5c63ff236","null","null","<p style=""font-size: 60px; font-family: BACS"">UdumdrGl</p>","","","","","","","","",""
"html-keyboard-response","118","361102","0.0-10.0-0.29","61616ce2bb94584e11c911af","650c16f0f2faf8d7a0d14c09","651c0a7bc6eaf8f5c63ff236","null","null","<p style=""font-size: 60px; font-family: BACS"">hYDmtYht</p>","","","","","","","","",""
"html-keyboard-response","119","362112","0.0-10.0-0.30","61616ce2bb94584e11c911af","650c16f0f2faf8d7a0d14c09","651c0a7bc6eaf8f5c63ff236","null","null","<p style=""font-size: 60px; font-family: BACS"">ABPRBABb</p>","","","","","","","","",""
"html-keyboard-response","120","363122","0.0-10.0-0.31","61616ce2bb94584e11c911af","650c16f0f2faf8d7a0d14c09","651c0a7bc6eaf8f5c63ff236","null","null","<p style=""font-size: 60px; font-family: BACS"">KElBkDOm</p>","","","","","","","","",""
"html-keyboard-response","121","364125","0.0-10.0-0.32","61616ce2bb94584e11c911af","650c16f0f2faf8d7a0d14c09","651c0a7bc6eaf8f5c63ff236","null","null","<p style=""font-size: 60px; font-family: BACS"">OMlTYcM</p>","","","","","","","","",""
"html-keyboard-response","122","365140","0.0-10.0-0.33","61616ce2bb94584e11c911af","650c16f0f2faf8d7a0d14c09","651c0a7bc6eaf8f5c63ff236","null","null","<p style=""font-size: 60px; font-family: BACS"">JAaGJUNa</p>","","","","","","","","",""
"html-keyboard-response","123","366154","0.0-10.0-0.34","61616ce2bb94584e11c911af","650c16f0f2faf8d7a0d14c09","651c0a7bc6eaf8f5c63ff236","null","null","<p style=""font-size: 60px; font-family: BACS"">ABPRBYcM</p>","","","","","","","","",""
"html-keyboard-response","124","367157","0.0-10.0-0.35","61616ce2bb94584e11c911af","650c16f0f2faf8d7a0d14c09","651c0a7bc6eaf8f5c63ff236","null","null","<p style=""font-size: 60px; font-family: BACS"">tmYhkKE</p>","","","","","","","","",""
"html-keyboard-response","125","368162","0.0-10.0-0.36","61616ce2bb94584e11c911af","650c16f0f2faf8d7a0d14c09","651c0a7bc6eaf8f5c63ff236","null","null","<p style=""font-size: 60px; font-family: BACS"">PEtEYht</p>","","","","","","","","",""
"html-keyboard-response","126","369176","0.0-10.0-0.37","61616ce2bb94584e11c911af","650c16f0f2faf8d7a0d14c09","651c0a7bc6eaf8f5c63ff236","null","null","<p style=""font-size: 60px; font-family: BACS"">kMbTRkKE</p>","","","","","","","","",""
"html-keyboard-response","127","370185","0.0-10.0-0.38","61616ce2bb94584e11c911af","650c16f0f2faf8d7a0d14c09","651c0a7bc6eaf8f5c63ff236","null","null","<p style=""font-size: 60px; font-family: BACS"">GJGcZrGl</p>","","","","","","","","",""
"html-keyboard-response","128","371196","0.0-10.0-0.39","61616ce2bb94584e11c911af","650c16f0f2faf8d7a0d14c09","651c0a7bc6eaf8f5c63ff236","null","null","<p style=""font-size: 60px; font-family: BACS"">lYruaJUNa</p>","","","","","","","","",""
"html-keyboard-response","129","372200","0.0-10.0-0.40","61616ce2bb94584e11c911af","650c16f0f2faf8d7a0d14c09","651c0a7bc6eaf8f5c63ff236","null","null","<p style=""font-size: 60px; font-family: BACS"">BlmclkDOm</p>","","","","","","","","",""
"html-keyboard-response","130","373205","0.0-10.0-0.41","61616ce2bb94584e11c911af","650c16f0f2faf8d7a0d14c09","651c0a7bc6eaf8f5c63ff236","null","null","<p style=""font-size: 60px; font-family: BACS"">GLYrArGl</p>","","","","","","","","",""
"html-keyboard-response","131","374220","0.0-10.0-0.42","61616ce2bb94584e11c911af","650c16f0f2faf8d7a0d14c09","651c0a7bc6eaf8f5c63ff236","null","null","<p style=""font-size: 60px; font-family: BACS"">hYDmtABb</p>","","","","","","","","",""
"html-keyboard-response","132","375225","0.0-10.0-0.43","61616ce2bb94584e11c911af","650c16f0f2faf8d7a0d14c09","651c0a7bc6eaf8f5c63ff236","null","null","<p style=""font-size: 60px; font-family: BACS"">vJabrba</p>","","","","","","","","",""
"html-keyboard-response","133","376231","0.0-10.0-0.44","61616ce2bb94584e11c911af","650c16f0f2faf8d7a0d14c09","651c0a7bc6eaf8f5c63ff236","null","null","<p style=""font-size: 60px; font-family: BACS"">mdkKYht</p>","","","","","","","","",""
"html-keyboard-response","134","377237","0.0-10.0-0.45","61616ce2bb94584e11c911af","650c16f0f2faf8d7a0d14c09","651c0a7bc6eaf8f5c63ff236","null","null","<p style=""font-size: 60px; font-family: BACS"">rvUbrba</p>","","","","","","","","",""
"html-keyboard-response","135","378244","0.0-10.0-0.46","61616ce2bb94584e11c911af","650c16f0f2faf8d7a0d14c09","651c0a7bc6eaf8f5c63ff236","null","null","<p style=""font-size: 60px; font-family: BACS"">vJabrGl</p>","","","","","","","","",""
"html-keyboard-response","136","379253","0.0-10.0-0.47","61616ce2bb94584e11c911af","650c16f0f2faf8d7a0d14c09","651c0a7bc6eaf8f5c63ff236","null","null","<p style=""font-size: 60px; font-family: BACS"">GLYrArba</p>","","","","","","","","",""
"html-keyboard-response","137","380263","0.0-10.0-0.48","61616ce2bb94584e11c911af","650c16f0f2faf8d7a0d14c09","651c0a7bc6eaf8f5c63ff236","null","null","<p style=""font-size: 60px; font-family: BACS"">OMlTYht</p>","","","","","","","","",""
"html-keyboard-response","138","381273","0.0-10.0-0.49","61616ce2bb94584e11c911af","650c16f0f2faf8d7a0d14c09","651c0a7bc6eaf8f5c63ff236","null","null","<p style=""font-size: 60px; font-family: BACS"">GLYrAJUNa</p>","","","","","","","","",""
"html-keyboard-response","139","382277","0.0-10.0-0.50","61616ce2bb94584e11c911af","650c16f0f2faf8d7a0d14c09","651c0a7bc6eaf8f5c63ff236","null","null","<p style=""font-size: 60px; font-family: BACS"">PEtEkDOm</p>","","","","","","","","",""
"html-keyboard-response","140","383281","0.0-10.0-0.51","61616ce2bb94584e11c911af","650c16f0f2faf8d7a0d14c09","651c0a7bc6eaf8f5c63ff236","null","null","<p style=""font-size: 60px; font-family: BACS"">Udumdrba</p>","","","","","","","","",""
"html-keyboard-response","141","384288","0.0-10.0-0.52","61616ce2bb94584e11c911af","650c16f0f2faf8d7a0d14c09","651c0a7bc6eaf8f5c63ff236","null","null","<p style=""font-size: 60px; font-family: BACS"">GJGcZYUYa</p>","","","","","","","","",""
"html-keyboard-response","142","385291","0.0-10.0-0.53","61616ce2bb94584e11c911af","650c16f0f2faf8d7a0d14c09","651c0a7bc6eaf8f5c63ff236","null","null","<p style=""font-size: 60px; font-family: BACS"">OMlTkKE</p>","","","","","","","","",""
"html-keyboard-response","143","386302","0.0-10.0-0.54","61616ce2bb94584e11c911af","650c16f0f2faf8d7a0d14c09","651c0a7bc6eaf8f5c63ff236","null","null","<p style=""font-size: 60px; font-family: BACS"">JauQrGl</p>","","","","","","","","",""
"html-keyboard-response","144","387310","0.0-10.0-0.55","61616ce2bb94584e11c911af","650c16f0f2faf8d7a0d14c09","651c0a7bc6eaf8f5c63ff236","null","null","<p style=""font-size: 60px; font-family: BACS"">lYruarAm</p>","","","","","","","","",""
"html-keyboard-response","145","388315","0.0-10.0-0.56","61616ce2bb94584e11c911af","650c16f0f2faf8d7a0d14c09","651c0a7bc6eaf8f5c63ff236","null","null","<p style=""font-size: 60px; font-family: BACS"">mdkKABb</p>","","","","","","","","",""
"html-keyboard-response","146","389319","0.0-10.0-0.57","61616ce2bb94584e11c911af","650c16f0f2faf8d7a0d14c09","651c0a7bc6eaf8f5c63ff236","null","null","<p style=""font-size: 60px; font-family: BACS"">BlmclYcM</p>","","","","","","","","",""
"html-keyboard-response","147","390335","0.0-10.0-0.58","61616ce2bb94584e11c911af","650c16f0f2faf8d7a0d14c09","651c0a7bc6eaf8f5c63ff236","null","null","<p style=""font-size: 60px; font-family: BACS"">UdumdrAm</p>","","","","","","","","",""
"html-keyboard-response","148","391351","0.0-10.0-0.59","61616ce2bb94584e11c911af","650c16f0f2faf8d7a0d14c09","651c0a7bc6eaf8f5c63ff236","null","null","<p style=""font-size: 60px; font-family: BACS"">chEDOkDOm</p>","","","","","","","","",""
"html-keyboard-response","149","392354","0.0-10.0-0.60","61616ce2bb94584e11c911af","650c16f0f2faf8d7a0d14c09","651c0a7bc6eaf8f5c63ff236","null","null","<p style=""font-size: 60px; font-family: BACS"">JAaGYUYa</p>","","","","","","","","",""
"html-keyboard-response","150","393364","0.0-10.0-0.61","61616ce2bb94584e11c911af","650c16f0f2faf8d7a0d14c09","651c0a7bc6eaf8f5c63ff236","null","null","<p style=""font-size: 60px; font-family: BACS"">mZUrQrba</p>","","","","","","","","",""
"html-keyboard-response","151","394367","0.0-10.0-0.62","61616ce2bb94584e11c911af","650c16f0f2faf8d7a0d14c09","651c0a7bc6eaf8f5c63ff236","null","null","<p style=""font-size: 60px; font-family: BACS"">BlmclkKE</p>","","","","","","","","",""
"html-keyboard-response","152","395378","0.0-10.0-0.63","61616ce2bb94584e11c911af","650c16f0f2faf8d7a0d14c09","651c0a7bc6eaf8f5c63ff236","null","null","<p style=""font-size: 60px; font-family: BACS"">JauQYUYa</p>","","","","","","","","",""
"html-keyboard-response","153","396389","0.0-10.0-0.64","61616ce2bb94584e11c911af","650c16f0f2faf8d7a0d14c09","651c0a7bc6eaf8f5c63ff236","null","null","<p style=""font-size: 60px; font-family: BACS"">chEDOABb</p>","","","","","","","","",""
"html-keyboard-response","154","397404","0.0-10.0-0.65","61616ce2bb94584e11c911af","650c16f0f2faf8d7a0d14c09","651c0a7bc6eaf8f5c63ff236","null","null","<p style=""font-size: 60px; font-family: BACS"">vJabrAm</p>","","","","","","","","",""
"html-keyboard-response","155","398416","0.0-10.0-0.66","61616ce2bb94584e11c911af","650c16f0f2faf8d7a0d14c09","651c0a7bc6eaf8f5c63ff236","null","null","<p style=""font-size: 60px; font-family: BACS"">kMbTRYcM</p>","","","","","","","","",""
"html-keyboard-response","156","399432","0.0-10.0-0.67","61616ce2bb94584e11c911af","650c16f0f2faf8d7a0d14c09","651c0a7bc6eaf8f5c63ff236","null","null","<p style=""font-size: 60px; font-family: BACS"">mZUrQJUNa</p>","","","","","","","","",""
"html-keyboard-response","157","400439","0.0-10.0-0.68","61616ce2bb94584e11c911af","650c16f0f2faf8d7a0d14c09","651c0a7bc6eaf8f5c63ff236","null","null","<p style=""font-size: 60px; font-family: BACS"">ABPRBkKE</p>","","","","","","","","",""
"html-keyboard-response","158","401451","0.0-10.0-0.69","61616ce2bb94584e11c911af","650c16f0f2faf8d7a0d14c09","651c0a7bc6eaf8f5c63ff236","null","null","<p style=""font-size: 60px; font-family: BACS"">rvUbYUYa</p>","","","","","","","","",""
"html-keyboard-response","159","402458","0.0-10.0-0.70","61616ce2bb94584e11c911af","650c16f0f2faf8d7a0d14c09","651c0a7bc6eaf8f5c63ff236","null","null","<p style=""font-size: 60px; font-family: BACS"">tmYhYcM</p>","","","","","","","","",""
"html-keyboard-response","160","403475","0.0-10.0-0.71","61616ce2bb94584e11c911af","650c16f0f2faf8d7a0d14c09","651c0a7bc6eaf8f5c63ff236","null","null","<p style=""font-size: 60px; font-family: BACS"">mdkKkKE</p>","","","","","","","","",""
"html-keyboard-response","161","404478","0.0-10.0-0.72","61616ce2bb94584e11c911af","650c16f0f2faf8d7a0d14c09","651c0a7bc6eaf8f5c63ff236","null","null","<p style=""font-size: 60px; font-family: BACS"">OMlTABb</p>","","","","","","","","",""
"html-keyboard-response","162","405489","0.0-10.0-0.73","61616ce2bb94584e11c911af","650c16f0f2faf8d7a0d14c09","651c0a7bc6eaf8f5c63ff236","null","null","<p style=""font-size: 60px; font-family: BACS"">kGlUrAm</p>","","","","","","","","",""
"html-keyboard-response","163","406492","0.0-10.0-0.74","61616ce2bb94584e11c911af","650c16f0f2faf8d7a0d14c09","651c0a7bc6eaf8f5c63ff236","null","null","<p style=""font-size: 60px; font-family: BACS"">ABPRBkDOm</p>","","","","","","","","",""
"html-keyboard-response","164","407498","0.0-10.0-0.75","61616ce2bb94584e11c911af","650c16f0f2faf8d7a0d14c09","651c0a7bc6eaf8f5c63ff236","null","null","<p style=""font-size: 60px; font-family: BACS"">kGlUJUNa</p>","","","","","","","","",""
"html-keyboard-response","165","408503","0.0-10.0-0.76","61616ce2bb94584e11c911af","650c16f0f2faf8d7a0d14c09","651c0a7bc6eaf8f5c63ff236","null","null","<p style=""font-size: 60px; font-family: BACS"">rvUbrAm</p>","","","","","","","","",""
"html-keyboard-response","166","409508","0.0-10.0-0.77","61616ce2bb94584e11c911af","650c16f0f2faf8d7a0d14c09","651c0a7bc6eaf8f5c63ff236","null","null","<p style=""font-size: 60px; font-family: BACS"">PEtEkKE</p>","","","","","","","","",""
"html-keyboard-response","167","410521","0.0-10.0-0.78","61616ce2bb94584e11c911af","650c16f0f2faf8d7a0d14c09","651c0a7bc6eaf8f5c63ff236","null","null","<p style=""font-size: 60px; font-family: BACS"">UdumdJUNa</p>","","","","","","","","",""
"html-keyboard-response","168","411530","0.0-10.0-0.79","61616ce2bb94584e11c911af","650c16f0f2faf8d7a0d14c09","651c0a7bc6eaf8f5c63ff236","null","null","<p style=""font-size: 60px; font-family: BACS"">JauQrAm</p>","","","","","","","","",""
"html-keyboard-response","169","485452","0.0-11.0","61616ce2bb94584e11c911af","650c16f0f2faf8d7a0d14c09","651c0a7bc6eaf8f5c63ff236","73925"," ","<p>Great, you've seen the second block of words. You may now take a short break.</p>
      <p>Press the spacebar when you're ready to continue.</p>","","","","","","","","",""
"html-keyboard-response","170","486468","0.0-12.0-0.0","61616ce2bb94584e11c911af","650c16f0f2faf8d7a0d14c09","651c0a7bc6eaf8f5c63ff236","null","null","<p style=""font-size: 60px; font-family: BACS"">ABPRBkKE</p>","","","","","","","","",""
"html-keyboard-response","171","487470","0.0-12.0-0.1","61616ce2bb94584e11c911af","650c16f0f2faf8d7a0d14c09","651c0a7bc6eaf8f5c63ff236","null","null","<p style=""font-size: 60px; font-family: BACS"">mdkKYht</p>","","","","","","","","",""
"html-keyboard-response","172","488474","0.0-12.0-0.2","61616ce2bb94584e11c911af","650c16f0f2faf8d7a0d14c09","651c0a7bc6eaf8f5c63ff236","null","null","<p style=""font-size: 60px; font-family: BACS"">GJGcZrba</p>","","","","","","","","",""
"html-keyboard-response","173","489490","0.0-12.0-0.3","61616ce2bb94584e11c911af","650c16f0f2faf8d7a0d14c09","651c0a7bc6eaf8f5c63ff236","null","null","<p style=""font-size: 60px; font-family: BACS"">GLYrArGl</p>","","","","","","","","",""
"html-keyboard-response","174","490493","0.0-12.0-0.4","61616ce2bb94584e11c911af","650c16f0f2faf8d7a0d14c09","651c0a7bc6eaf8f5c63ff236","null","null","<p style=""font-size: 60px; font-family: BACS"">hYDmtABb</p>","","","","","","","","",""
"html-keyboard-response","175","491500","0.0-12.0-0.5","61616ce2bb94584e11c911af","650c16f0f2faf8d7a0d14c09","651c0a7bc6eaf8f5c63ff236","null","null","<p style=""font-size: 60px; font-family: BACS"">ABPRBYcM</p>","","","","","","","","",""
"html-keyboard-response","176","492506","0.0-12.0-0.6","61616ce2bb94584e11c911af","650c16f0f2faf8d7a0d14c09","651c0a7bc6eaf8f5c63ff236","null","null","<p style=""font-size: 60px; font-family: BACS"">tmYhkKE</p>","","","","","","","","",""
"html-keyboard-response","177","493509","0.0-12.0-0.7","61616ce2bb94584e11c911af","650c16f0f2faf8d7a0d14c09","651c0a7bc6eaf8f5c63ff236","null","null","<p style=""font-size: 60px; font-family: BACS"">OMlTABb</p>","","","","","","","","",""
"html-keyboard-response","178","494513","0.0-12.0-0.8","61616ce2bb94584e11c911af","650c16f0f2faf8d7a0d14c09","651c0a7bc6eaf8f5c63ff236","null","null","<p style=""font-size: 60px; font-family: BACS"">chEDOYht</p>","","","","","","","","",""
"html-keyboard-response","179","495517","0.0-12.0-0.9","61616ce2bb94584e11c911af","650c16f0f2faf8d7a0d14c09","651c0a7bc6eaf8f5c63ff236","null","null","<p style=""font-size: 60px; font-family: BACS"">tmYhkDOm</p>","","","","","","","","",""
"html-keyboard-response","180","496531","0.0-12.0-0.10","61616ce2bb94584e11c911af","650c16f0f2faf8d7a0d14c09","651c0a7bc6eaf8f5c63ff236","null","null","<p style=""font-size: 60px; font-family: BACS"">BlmclABb</p>","","","","","","","","",""
"html-keyboard-response","181","497535","0.0-12.0-0.11","61616ce2bb94584e11c911af","650c16f0f2faf8d7a0d14c09","651c0a7bc6eaf8f5c63ff236","null","null","<p style=""font-size: 60px; font-family: BACS"">ABPRBkDOm</p>","","","","","","","","",""
"html-keyboard-response","182","498544","0.0-12.0-0.12","61616ce2bb94584e11c911af","650c16f0f2faf8d7a0d14c09","651c0a7bc6eaf8f5c63ff236","null","null","<p style=""font-size: 60px; font-family: BACS"">rvUbrba</p>","","","","","","","","",""
"html-keyboard-response","183","499547","0.0-12.0-0.13","61616ce2bb94584e11c911af","650c16f0f2faf8d7a0d14c09","651c0a7bc6eaf8f5c63ff236","null","null","<p style=""font-size: 60px; font-family: BACS"">kMbTRYht</p>","","","","","","","","",""
"html-keyboard-response","184","500554","0.0-12.0-0.14","61616ce2bb94584e11c911af","650c16f0f2faf8d7a0d14c09","651c0a7bc6eaf8f5c63ff236","null","null","<p style=""font-size: 60px; font-family: BACS"">mZUrQrba</p>","","","","","","","","",""
"html-keyboard-response","185","501561","0.0-12.0-0.15","61616ce2bb94584e11c911af","650c16f0f2faf8d7a0d14c09","651c0a7bc6eaf8f5c63ff236","null","null","<p style=""font-size: 60px; font-family: BACS"">kGlUrGl</p>","","","","","","","","",""
"html-keyboard-response","186","502574","0.0-12.0-0.16","61616ce2bb94584e11c911af","650c16f0f2faf8d7a0d14c09","651c0a7bc6eaf8f5c63ff236","null","null","<p style=""font-size: 60px; font-family: BACS"">JAaGYUYa</p>","","","","","","","","",""
"html-keyboard-response","187","503576","0.0-12.0-0.17","61616ce2bb94584e11c911af","650c16f0f2faf8d7a0d14c09","651c0a7bc6eaf8f5c63ff236","null","null","<p style=""font-size: 60px; font-family: BACS"">BlmclkDOm</p>","","","","","","","","",""
"html-keyboard-response","188","504584","0.0-12.0-0.18","61616ce2bb94584e11c911af","650c16f0f2faf8d7a0d14c09","651c0a7bc6eaf8f5c63ff236","null","null","<p style=""font-size: 60px; font-family: BACS"">kGlUrAm</p>","","","","","","","","",""
"html-keyboard-response","189","505592","0.0-12.0-0.19","61616ce2bb94584e11c911af","650c16f0f2faf8d7a0d14c09","651c0a7bc6eaf8f5c63ff236","null","null","<p style=""font-size: 60px; font-family: BACS"">KElBkDOm</p>","","","","","","","","",""
"html-keyboard-response","190","506608","0.0-12.0-0.20","61616ce2bb94584e11c911af","650c16f0f2faf8d7a0d14c09","651c0a7bc6eaf8f5c63ff236","null","null","<p style=""font-size: 60px; font-family: BACS"">OMlTkKE</p>","","","","","","","","",""
"html-keyboard-response","191","507620","0.0-12.0-0.21","61616ce2bb94584e11c911af","650c16f0f2faf8d7a0d14c09","651c0a7bc6eaf8f5c63ff236","null","null","<p style=""font-size: 60px; font-family: BACS"">JauQYUYa</p>","","","","","","","","",""
"html-keyboard-response","192","508633","0.0-12.0-0.22","61616ce2bb94584e11c911af","650c16f0f2faf8d7a0d14c09","651c0a7bc6eaf8f5c63ff236","null","null","<p style=""font-size: 60px; font-family: BACS"">UdumdrAm</p>","","","","","","","","",""
"html-keyboard-response","193","509641","0.0-12.0-0.23","61616ce2bb94584e11c911af","650c16f0f2faf8d7a0d14c09","651c0a7bc6eaf8f5c63ff236","null","null","<p style=""font-size: 60px; font-family: BACS"">KElBkKE</p>","","","","","","","","",""
"html-keyboard-response","194","510651","0.0-12.0-0.24","61616ce2bb94584e11c911af","650c16f0f2faf8d7a0d14c09","651c0a7bc6eaf8f5c63ff236","null","null","<p style=""font-size: 60px; font-family: BACS"">hYDmtkDOm</p>","","","","","","","","",""
"html-keyboard-response","195","511664","0.0-12.0-0.25","61616ce2bb94584e11c911af","650c16f0f2faf8d7a0d14c09","651c0a7bc6eaf8f5c63ff236","null","null","<p style=""font-size: 60px; font-family: BACS"">PEtEkKE</p>","","","","","","","","",""
"html-keyboard-response","196","512674","0.0-12.0-0.26","61616ce2bb94584e11c911af","650c16f0f2faf8d7a0d14c09","651c0a7bc6eaf8f5c63ff236","null","null","<p style=""font-size: 60px; font-family: BACS"">kMbTRYcM</p>","","","","","","","","",""
"html-keyboard-response","197","513677","0.0-12.0-0.27","61616ce2bb94584e11c911af","650c16f0f2faf8d7a0d14c09","651c0a7bc6eaf8f5c63ff236","null","null","<p style=""font-size: 60px; font-family: BACS"">chEDOABb</p>","","","","","","","","",""
"html-keyboard-response","198","514680","0.0-12.0-0.28","61616ce2bb94584e11c911af","650c16f0f2faf8d7a0d14c09","651c0a7bc6eaf8f5c63ff236","null","null","<p style=""font-size: 60px; font-family: BACS"">vJabrba</p>","","","","","","","","",""
"html-keyboard-response","199","515683","0.0-12.0-0.29","61616ce2bb94584e11c911af","650c16f0f2faf8d7a0d14c09","651c0a7bc6eaf8f5c63ff236","null","null","<p style=""font-size: 60px; font-family: BACS"">GJGcZrGl</p>","","","","","","","","",""
"html-keyboard-response","200","516685","0.0-12.0-0.30","61616ce2bb94584e11c911af","650c16f0f2faf8d7a0d14c09","651c0a7bc6eaf8f5c63ff236","null","null","<p style=""font-size: 60px; font-family: BACS"">mdkKABb</p>","","","","","","","","",""
"html-keyboard-response","201","517690","0.0-12.0-0.31","61616ce2bb94584e11c911af","650c16f0f2faf8d7a0d14c09","651c0a7bc6eaf8f5c63ff236","null","null","<p style=""font-size: 60px; font-family: BACS"">OMlTYcM</p>","","","","","","","","",""
"html-keyboard-response","202","518697","0.0-12.0-0.32","61616ce2bb94584e11c911af","650c16f0f2faf8d7a0d14c09","651c0a7bc6eaf8f5c63ff236","null","null","<p style=""font-size: 60px; font-family: BACS"">Udumdrba</p>","","","","","","","","",""
"html-keyboard-response","203","519703","0.0-12.0-0.33","61616ce2bb94584e11c911af","650c16f0f2faf8d7a0d14c09","651c0a7bc6eaf8f5c63ff236","null","null","<p style=""font-size: 60px; font-family: BACS"">JauQJUNa</p>","","","","","","","","",""
"html-keyboard-response","204","520717","0.0-12.0-0.34","61616ce2bb94584e11c911af","650c16f0f2faf8d7a0d14c09","651c0a7bc6eaf8f5c63ff236","null","null","<p style=""font-size: 60px; font-family: BACS"">kMbTRABb</p>","","","","","","","","",""
"html-keyboard-response","205","521733","0.0-12.0-0.35","61616ce2bb94584e11c911af","650c16f0f2faf8d7a0d14c09","651c0a7bc6eaf8f5c63ff236","null","null","<p style=""font-size: 60px; font-family: BACS"">rvUbYUYa</p>","","","","","","","","",""
"html-keyboard-response","206","522743","0.0-12.0-0.36","61616ce2bb94584e11c911af","650c16f0f2faf8d7a0d14c09","651c0a7bc6eaf8f5c63ff236","null","null","<p style=""font-size: 60px; font-family: BACS"">chEDOYcM</p>","","","","","","","","",""
"html-keyboard-response","207","523750","0.0-12.0-0.37","61616ce2bb94584e11c911af","650c16f0f2faf8d7a0d14c09","651c0a7bc6eaf8f5c63ff236","null","null","<p style=""font-size: 60px; font-family: BACS"">rvUbJUNa</p>","","","","","","","","",""
"html-keyboard-response","208","524762","0.0-12.0-0.38","61616ce2bb94584e11c911af","650c16f0f2faf8d7a0d14c09","651c0a7bc6eaf8f5c63ff236","null","null","<p style=""font-size: 60px; font-family: BACS"">JauQrAm</p>","","","","","","","","",""
"html-keyboard-response","209","525766","0.0-12.0-0.39","61616ce2bb94584e11c911af","650c16f0f2faf8d7a0d14c09","651c0a7bc6eaf8f5c63ff236","null","null","<p style=""font-size: 60px; font-family: BACS"">GLYrAYUYa</p>","","","","","","","","",""
"html-keyboard-response","210","526779","0.0-12.0-0.40","61616ce2bb94584e11c911af","650c16f0f2faf8d7a0d14c09","651c0a7bc6eaf8f5c63ff236","null","null","<p style=""font-size: 60px; font-family: BACS"">PEtEYcM</p>","","","","","","","","",""
"html-keyboard-response","211","527781","0.0-12.0-0.41","61616ce2bb94584e11c911af","650c16f0f2faf8d7a0d14c09","651c0a7bc6eaf8f5c63ff236","null","null","<p style=""font-size: 60px; font-family: BACS"">hYDmtYht</p>","","","","","","","","",""
"html-keyboard-response","212","528796","0.0-12.0-0.42","61616ce2bb94584e11c911af","650c16f0f2faf8d7a0d14c09","651c0a7bc6eaf8f5c63ff236","null","null","<p style=""font-size: 60px; font-family: BACS"">chEDOkDOm</p>","","","","","","","","",""
"html-keyboard-response","213","529810","0.0-12.0-0.43","61616ce2bb94584e11c911af","650c16f0f2faf8d7a0d14c09","651c0a7bc6eaf8f5c63ff236","null","null","<p style=""font-size: 60px; font-family: BACS"">UdumdJUNa</p>","","","","","","","","",""
"html-keyboard-response","214","530822","0.0-12.0-0.44","61616ce2bb94584e11c911af","650c16f0f2faf8d7a0d14c09","651c0a7bc6eaf8f5c63ff236","null","null","<p style=""font-size: 60px; font-family: BACS"">kMbTRkKE</p>","","","","","","","","",""
"html-keyboard-response","215","531834","0.0-12.0-0.45","61616ce2bb94584e11c911af","650c16f0f2faf8d7a0d14c09","651c0a7bc6eaf8f5c63ff236","null","null","<p style=""font-size: 60px; font-family: BACS"">GJGcZrAm</p>","","","","","","","","",""
"html-keyboard-response","216","532838","0.0-12.0-0.46","61616ce2bb94584e11c911af","650c16f0f2faf8d7a0d14c09","651c0a7bc6eaf8f5c63ff236","null","null","<p style=""font-size: 60px; font-family: BACS"">JAaGJUNa</p>","","","","","","","","",""
"html-keyboard-response","217","533840","0.0-12.0-0.47","61616ce2bb94584e11c911af","650c16f0f2faf8d7a0d14c09","651c0a7bc6eaf8f5c63ff236","null","null","<p style=""font-size: 60px; font-family: BACS"">OMlTYht</p>","","","","","","","","",""
"html-keyboard-response","218","534851","0.0-12.0-0.48","61616ce2bb94584e11c911af","650c16f0f2faf8d7a0d14c09","651c0a7bc6eaf8f5c63ff236","null","null","<p style=""font-size: 60px; font-family: BACS"">mZUrQrGl</p>","","","","","","","","",""
"html-keyboard-response","219","535855","0.0-12.0-0.49","61616ce2bb94584e11c911af","650c16f0f2faf8d7a0d14c09","651c0a7bc6eaf8f5c63ff236","null","null","<p style=""font-size: 60px; font-family: BACS"">GJGcZYUYa</p>","","","","","","","","",""
"html-keyboard-response","220","536861","0.0-12.0-0.50","61616ce2bb94584e11c911af","650c16f0f2faf8d7a0d14c09","651c0a7bc6eaf8f5c63ff236","null","null","<p style=""font-size: 60px; font-family: BACS"">GLYrAJUNa</p>","","","","","","","","",""
"html-keyboard-response","221","537864","0.0-12.0-0.51","61616ce2bb94584e11c911af","650c16f0f2faf8d7a0d14c09","651c0a7bc6eaf8f5c63ff236","null","null","<p style=""font-size: 60px; font-family: BACS"">ABPRBABb</p>","","","","","","","","",""
"html-keyboard-response","222","538881","0.0-12.0-0.52","61616ce2bb94584e11c911af","650c16f0f2faf8d7a0d14c09","651c0a7bc6eaf8f5c63ff236","null","null","<p style=""font-size: 60px; font-family: BACS"">UdumdrGl</p>","","","","","","","","",""
"html-keyboard-response","223","539898","0.0-12.0-0.53","61616ce2bb94584e11c911af","650c16f0f2faf8d7a0d14c09","651c0a7bc6eaf8f5c63ff236","null","null","<p style=""font-size: 60px; font-family: BACS"">PEtEkDOm</p>","","","","","","","","",""
"html-keyboard-response","224","540904","0.0-12.0-0.54","61616ce2bb94584e11c911af","650c16f0f2faf8d7a0d14c09","651c0a7bc6eaf8f5c63ff236","null","null","<p style=""font-size: 60px; font-family: BACS"">kGlUYUYa</p>","","","","","","","","",""
"html-keyboard-response","225","541911","0.0-12.0-0.55","61616ce2bb94584e11c911af","650c16f0f2faf8d7a0d14c09","651c0a7bc6eaf8f5c63ff236","null","null","<p style=""font-size: 60px; font-family: BACS"">JauQrGl</p>","","","","","","","","",""
"html-keyboard-response","226","542927","0.0-12.0-0.56","61616ce2bb94584e11c911af","650c16f0f2faf8d7a0d14c09","651c0a7bc6eaf8f5c63ff236","null","null","<p style=""font-size: 60px; font-family: BACS"">PEtEYht</p>","","","","","","","","",""
"html-keyboard-response","227","543933","0.0-12.0-0.57","61616ce2bb94584e11c911af","650c16f0f2faf8d7a0d14c09","651c0a7bc6eaf8f5c63ff236","null","null","<p style=""font-size: 60px; font-family: BACS"">BlmclYcM</p>","","","","","","","","",""
"html-keyboard-response","228","544948","0.0-12.0-0.58","61616ce2bb94584e11c911af","650c16f0f2faf8d7a0d14c09","651c0a7bc6eaf8f5c63ff236","null","null","<p style=""font-size: 60px; font-family: BACS"">KElBABb</p>","","","","","","","","",""
"html-keyboard-response","229","545957","0.0-12.0-0.59","61616ce2bb94584e11c911af","650c16f0f2faf8d7a0d14c09","651c0a7bc6eaf8f5c63ff236","null","null","<p style=""font-size: 60px; font-family: BACS"">vJabYUYa</p>","","","","","","","","",""
"html-keyboard-response","230","546964","0.0-12.0-0.60","61616ce2bb94584e11c911af","650c16f0f2faf8d7a0d14c09","651c0a7bc6eaf8f5c63ff236","null","null","<p style=""font-size: 60px; font-family: BACS"">lYruarba</p>","","","","","","","","",""
"html-keyboard-response","231","547970","0.0-12.0-0.61","61616ce2bb94584e11c911af","650c16f0f2faf8d7a0d14c09","651c0a7bc6eaf8f5c63ff236","null","null","<p style=""font-size: 60px; font-family: BACS"">tmYhYht</p>","","","","","","","","",""
"html-keyboard-response","232","548984","0.0-12.0-0.62","61616ce2bb94584e11c911af","650c16f0f2faf8d7a0d14c09","651c0a7bc6eaf8f5c63ff236","null","null","<p style=""font-size: 60px; font-family: BACS"">mdkKkDOm</p>","","","","","","","","",""
"html-keyboard-response","233","549989","0.0-12.0-0.63","61616ce2bb94584e11c911af","650c16f0f2faf8d7a0d14c09","651c0a7bc6eaf8f5c63ff236","null","null","<p style=""font-size: 60px; font-family: BACS"">tmYhYcM</p>","","","","","","","","",""
"html-keyboard-response","234","551005","0.0-12.0-0.64","61616ce2bb94584e11c911af","650c16f0f2faf8d7a0d14c09","651c0a7bc6eaf8f5c63ff236","null","null","<p style=""font-size: 60px; font-family: BACS"">JAaGrba</p>","","","","","","","","",""
"html-keyboard-response","235","552021","0.0-12.0-0.65","61616ce2bb94584e11c911af","650c16f0f2faf8d7a0d14c09","651c0a7bc6eaf8f5c63ff236","null","null","<p style=""font-size: 60px; font-family: BACS"">kGlUJUNa</p>","","","","","","","","",""
"html-keyboard-response","236","553038","0.0-12.0-0.66","61616ce2bb94584e11c911af","650c16f0f2faf8d7a0d14c09","651c0a7bc6eaf8f5c63ff236","null","null","<p style=""font-size: 60px; font-family: BACS"">mdkKkKE</p>","","","","","","","","",""
"html-keyboard-response","237","554041","0.0-12.0-0.67","61616ce2bb94584e11c911af","650c16f0f2faf8d7a0d14c09","651c0a7bc6eaf8f5c63ff236","null","null","<p style=""font-size: 60px; font-family: BACS"">rvUbrAm</p>","","","","","","","","",""
"html-keyboard-response","238","555054","0.0-12.0-0.68","61616ce2bb94584e11c911af","650c16f0f2faf8d7a0d14c09","651c0a7bc6eaf8f5c63ff236","null","null","<p style=""font-size: 60px; font-family: BACS"">BlmclkKE</p>","","","","","","","","",""
"html-keyboard-response","239","556058","0.0-12.0-0.69","61616ce2bb94584e11c911af","650c16f0f2faf8d7a0d14c09","651c0a7bc6eaf8f5c63ff236","null","null","<p style=""font-size: 60px; font-family: BACS"">vJabrGl</p>","","","","","","","","",""
"html-keyboard-response","240","557066","0.0-12.0-0.70","61616ce2bb94584e11c911af","650c16f0f2faf8d7a0d14c09","651c0a7bc6eaf8f5c63ff236","null","null","<p style=""font-size: 60px; font-family: BACS"">KElBYht</p>","","","","","","","","",""
"html-keyboard-response","241","558084","0.0-12.0-0.71","61616ce2bb94584e11c911af","650c16f0f2faf8d7a0d14c09","651c0a7bc6eaf8f5c63ff236","null","null","<p style=""font-size: 60px; font-family: BACS"">lYruarGl</p>","","","","","","","","",""
"html-keyboard-response","242","559089","0.0-12.0-0.72","61616ce2bb94584e11c911af","650c16f0f2faf8d7a0d14c09","651c0a7bc6eaf8f5c63ff236","null","null","<p style=""font-size: 60px; font-family: BACS"">JAaGrAm</p>","","","","","","","","",""
"html-keyboard-response","243","560096","0.0-12.0-0.73","61616ce2bb94584e11c911af","650c16f0f2faf8d7a0d14c09","651c0a7bc6eaf8f5c63ff236","null","null","<p style=""font-size: 60px; font-family: BACS"">mZUrQYUYa</p>","","","","","","","","",""
"html-keyboard-response","244","561104","0.0-12.0-0.74","61616ce2bb94584e11c911af","650c16f0f2faf8d7a0d14c09","651c0a7bc6eaf8f5c63ff236","null","null","<p style=""font-size: 60px; font-family: BACS"">GLYrArba</p>","","","","","","","","",""
"html-keyboard-response","245","562108","0.0-12.0-0.75","61616ce2bb94584e11c911af","650c16f0f2faf8d7a0d14c09","651c0a7bc6eaf8f5c63ff236","null","null","<p style=""font-size: 60px; font-family: BACS"">mZUrQJUNa</p>","","","","","","","","",""
"html-keyboard-response","246","563110","0.0-12.0-0.76","61616ce2bb94584e11c911af","650c16f0f2faf8d7a0d14c09","651c0a7bc6eaf8f5c63ff236","null","null","<p style=""font-size: 60px; font-family: BACS"">lYruarAm</p>","","","","","","","","",""
"html-keyboard-response","247","564115","0.0-12.0-0.77","61616ce2bb94584e11c911af","650c16f0f2faf8d7a0d14c09","651c0a7bc6eaf8f5c63ff236","null","null","<p style=""font-size: 60px; font-family: BACS"">hYDmtYcM</p>","","","","","","","","",""
"html-keyboard-response","248","565121","0.0-12.0-0.78","61616ce2bb94584e11c911af","650c16f0f2faf8d7a0d14c09","651c0a7bc6eaf8f5c63ff236","null","null","<p style=""font-size: 60px; font-family: BACS"">vJabrAm</p>","","","","","","","","",""
"html-keyboard-response","249","566123","0.0-12.0-0.79","61616ce2bb94584e11c911af","650c16f0f2faf8d7a0d14c09","651c0a7bc6eaf8f5c63ff236","null","null","<p style=""font-size: 60px; font-family: BACS"">lYruaJUNa</p>","","","","","","","","",""
"html-keyboard-response","250","631044","0.0-13.0","61616ce2bb94584e11c911af","650c16f0f2faf8d7a0d14c09","651c0a7bc6eaf8f5c63ff236","64919"," ","<p>Great, you've seen the third block of words. You may now take a short break.</p>
      <p>Press the spacebar when you're ready to continue.</p>","","","","","","","","",""
"html-keyboard-response","251","632052","0.0-14.0-0.0","61616ce2bb94584e11c911af","650c16f0f2faf8d7a0d14c09","651c0a7bc6eaf8f5c63ff236","null","null","<p style=""font-size: 60px; font-family: BACS"">mdkKkDOm</p>","","","","","","","","",""
"html-keyboard-response","252","633067","0.0-14.0-0.1","61616ce2bb94584e11c911af","650c16f0f2faf8d7a0d14c09","651c0a7bc6eaf8f5c63ff236","null","null","<p style=""font-size: 60px; font-family: BACS"">vJabYUYa</p>","","","","","","","","",""
"html-keyboard-response","253","634080","0.0-14.0-0.2","61616ce2bb94584e11c911af","650c16f0f2faf8d7a0d14c09","651c0a7bc6eaf8f5c63ff236","null","null","<p style=""font-size: 60px; font-family: BACS"">ABPRBYcM</p>","","","","","","","","",""
"html-keyboard-response","254","635093","0.0-14.0-0.3","61616ce2bb94584e11c911af","650c16f0f2faf8d7a0d14c09","651c0a7bc6eaf8f5c63ff236","null","null","<p style=""font-size: 60px; font-family: BACS"">KElBkDOm</p>","","","","","","","","",""
"html-keyboard-response","255","636105","0.0-14.0-0.4","61616ce2bb94584e11c911af","650c16f0f2faf8d7a0d14c09","651c0a7bc6eaf8f5c63ff236","null","null","<p style=""font-size: 60px; font-family: BACS"">JAaGJUNa</p>","","","","","","","","",""
"html-keyboard-response","256","637112","0.0-14.0-0.5","61616ce2bb94584e11c911af","650c16f0f2faf8d7a0d14c09","651c0a7bc6eaf8f5c63ff236","null","null","<p style=""font-size: 60px; font-family: BACS"">mZUrQYUYa</p>","","","","","","","","",""
"html-keyboard-response","257","638119","0.0-14.0-0.6","61616ce2bb94584e11c911af","650c16f0f2faf8d7a0d14c09","651c0a7bc6eaf8f5c63ff236","null","null","<p style=""font-size: 60px; font-family: BACS"">lYruarAm</p>","","","","","","","","",""
"html-keyboard-response","258","639122","0.0-14.0-0.7","61616ce2bb94584e11c911af","650c16f0f2faf8d7a0d14c09","651c0a7bc6eaf8f5c63ff236","null","null","<p style=""font-size: 60px; font-family: BACS"">BlmclYcM</p>","","","","","","","","",""
"html-keyboard-response","259","640124","0.0-14.0-0.8","61616ce2bb94584e11c911af","650c16f0f2faf8d7a0d14c09","651c0a7bc6eaf8f5c63ff236","null","null","<p style=""font-size: 60px; font-family: BACS"">kGlUYUYa</p>","","","","","","","","",""
"html-keyboard-response","260","641128","0.0-14.0-0.9","61616ce2bb94584e11c911af","650c16f0f2faf8d7a0d14c09","651c0a7bc6eaf8f5c63ff236","null","null","<p style=""font-size: 60px; font-family: BACS"">BlmclkKE</p>","","","","","","","","",""
"html-keyboard-response","261","642130","0.0-14.0-0.10","61616ce2bb94584e11c911af","650c16f0f2faf8d7a0d14c09","651c0a7bc6eaf8f5c63ff236","null","null","<p style=""font-size: 60px; font-family: BACS"">ABPRBABb</p>","","","","","","","","",""
"html-keyboard-response","262","643136","0.0-14.0-0.11","61616ce2bb94584e11c911af","650c16f0f2faf8d7a0d14c09","651c0a7bc6eaf8f5c63ff236","null","null","<p style=""font-size: 60px; font-family: BACS"">KElBkKE</p>","","","","","","","","",""
"html-keyboard-response","263","644145","0.0-14.0-0.12","61616ce2bb94584e11c911af","650c16f0f2faf8d7a0d14c09","651c0a7bc6eaf8f5c63ff236","null","null","<p style=""font-size: 60px; font-family: BACS"">UdumdrGl</p>","","","","","","","","",""
"html-keyboard-response","264","645150","0.0-14.0-0.13","61616ce2bb94584e11c911af","650c16f0f2faf8d7a0d14c09","651c0a7bc6eaf8f5c63ff236","null","null","<p style=""font-size: 60px; font-family: BACS"">vJabrba</p>","","","","","","","","",""
"html-keyboard-response","265","646162","0.0-14.0-0.14","61616ce2bb94584e11c911af","650c16f0f2faf8d7a0d14c09","651c0a7bc6eaf8f5c63ff236","null","null","<p style=""font-size: 60px; font-family: BACS"">JauQYUYa</p>","","","","","","","","",""
"html-keyboard-response","266","647164","0.0-14.0-0.15","61616ce2bb94584e11c911af","650c16f0f2faf8d7a0d14c09","651c0a7bc6eaf8f5c63ff236","null","null","<p style=""font-size: 60px; font-family: BACS"">chEDOABb</p>","","","","","","","","",""
"html-keyboard-response","267","648172","0.0-14.0-0.16","61616ce2bb94584e11c911af","650c16f0f2faf8d7a0d14c09","651c0a7bc6eaf8f5c63ff236","null","null","<p style=""font-size: 60px; font-family: BACS"">OMlTkKE</p>","","","","","","","","",""
"html-keyboard-response","268","649177","0.0-14.0-0.17","61616ce2bb94584e11c911af","650c16f0f2faf8d7a0d14c09","651c0a7bc6eaf8f5c63ff236","null","null","<p style=""font-size: 60px; font-family: BACS"">GJGcZrAm</p>","","","","","","","","",""
"html-keyboard-response","269","650186","0.0-14.0-0.18","61616ce2bb94584e11c911af","650c16f0f2faf8d7a0d14c09","651c0a7bc6eaf8f5c63ff236","null","null","<p style=""font-size: 60px; font-family: BACS"">PEtEkKE</p>","","","","","","","","",""
"html-keyboard-response","270","651191","0.0-14.0-0.19","61616ce2bb94584e11c911af","650c16f0f2faf8d7a0d14c09","651c0a7bc6eaf8f5c63ff236","null","null","<p style=""font-size: 60px; font-family: BACS"">vJabrGl</p>","","","","","","","","",""
"html-keyboard-response","271","652198","0.0-14.0-0.20","61616ce2bb94584e11c911af","650c16f0f2faf8d7a0d14c09","651c0a7bc6eaf8f5c63ff236","null","null","<p style=""font-size: 60px; font-family: BACS"">PEtEkDOm</p>","","","","","","","","",""
"html-keyboard-response","272","653206","0.0-14.0-0.21","61616ce2bb94584e11c911af","650c16f0f2faf8d7a0d14c09","651c0a7bc6eaf8f5c63ff236","null","null","<p style=""font-size: 60px; font-family: BACS"">OMlTYht</p>","","","","","","","","",""
"html-keyboard-response","273","654219","0.0-14.0-0.22","61616ce2bb94584e11c911af","650c16f0f2faf8d7a0d14c09","651c0a7bc6eaf8f5c63ff236","null","null","<p style=""font-size: 60px; font-family: BACS"">kGlUJUNa</p>","","","","","","","","",""
"html-keyboard-response","274","655229","0.0-14.0-0.23","61616ce2bb94584e11c911af","650c16f0f2faf8d7a0d14c09","651c0a7bc6eaf8f5c63ff236","null","null","<p style=""font-size: 60px; font-family: BACS"">lYruarba</p>","","","","","","","","",""
"html-keyboard-response","275","656233","0.0-14.0-0.24","61616ce2bb94584e11c911af","650c16f0f2faf8d7a0d14c09","651c0a7bc6eaf8f5c63ff236","null","null","<p style=""font-size: 60px; font-family: BACS"">BlmclkDOm</p>","","","","","","","","",""
"html-keyboard-response","276","657250","0.0-14.0-0.25","61616ce2bb94584e11c911af","650c16f0f2faf8d7a0d14c09","651c0a7bc6eaf8f5c63ff236","null","null","<p style=""font-size: 60px; font-family: BACS"">chEDOYht</p>","","","","","","","","",""
"html-keyboard-response","277","658256","0.0-14.0-0.26","61616ce2bb94584e11c911af","650c16f0f2faf8d7a0d14c09","651c0a7bc6eaf8f5c63ff236","null","null","<p style=""font-size: 60px; font-family: BACS"">tmYhYcM</p>","","","","","","","","",""
"html-keyboard-response","278","659264","0.0-14.0-0.27","61616ce2bb94584e11c911af","650c16f0f2faf8d7a0d14c09","651c0a7bc6eaf8f5c63ff236","null","null","<p style=""font-size: 60px; font-family: BACS"">KElBYht</p>","","","","","","","","",""
"html-keyboard-response","279","660277","0.0-14.0-0.28","61616ce2bb94584e11c911af","650c16f0f2faf8d7a0d14c09","651c0a7bc6eaf8f5c63ff236","null","null","<p style=""font-size: 60px; font-family: BACS"">rvUbJUNa</p>","","","","","","","","",""
"html-keyboard-response","280","661288","0.0-14.0-0.29","61616ce2bb94584e11c911af","650c16f0f2faf8d7a0d14c09","651c0a7bc6eaf8f5c63ff236","null","null","<p style=""font-size: 60px; font-family: BACS"">PEtEYcM</p>","","","","","","","","",""
"html-keyboard-response","281","662297","0.0-14.0-0.30","61616ce2bb94584e11c911af","650c16f0f2faf8d7a0d14c09","651c0a7bc6eaf8f5c63ff236","null","null","<p style=""font-size: 60px; font-family: BACS"">ABPRBkDOm</p>","","","","","","","","",""
"html-keyboard-response","282","663310","0.0-14.0-0.31","61616ce2bb94584e11c911af","650c16f0f2faf8d7a0d14c09","651c0a7bc6eaf8f5c63ff236","null","null","<p style=""font-size: 60px; font-family: BACS"">mdkKABb</p>","","","","","","","","",""
"html-keyboard-response","283","664324","0.0-14.0-0.32","61616ce2bb94584e11c911af","650c16f0f2faf8d7a0d14c09","651c0a7bc6eaf8f5c63ff236","null","null","<p style=""font-size: 60px; font-family: BACS"">PEtEYht</p>","","","","","","","","",""
"html-keyboard-response","284","665334","0.0-14.0-0.33","61616ce2bb94584e11c911af","650c16f0f2faf8d7a0d14c09","651c0a7bc6eaf8f5c63ff236","null","null","<p style=""font-size: 60px; font-family: BACS"">JAaGrAm</p>","","","","","","","","",""
"html-keyboard-response","285","666351","0.0-14.0-0.34","61616ce2bb94584e11c911af","650c16f0f2faf8d7a0d14c09","651c0a7bc6eaf8f5c63ff236","null","null","<p style=""font-size: 60px; font-family: BACS"">kMbTRYcM</p>","","","","","","","","",""
"html-keyboard-response","286","667358","0.0-14.0-0.35","61616ce2bb94584e11c911af","650c16f0f2faf8d7a0d14c09","651c0a7bc6eaf8f5c63ff236","null","null","<p style=""font-size: 60px; font-family: BACS"">GLYrArGl</p>","","","","","","","","",""
"html-keyboard-response","287","668367","0.0-14.0-0.36","61616ce2bb94584e11c911af","650c16f0f2faf8d7a0d14c09","651c0a7bc6eaf8f5c63ff236","null","null","<p style=""font-size: 60px; font-family: BACS"">Udumdrba</p>","","","","","","","","",""
"html-keyboard-response","288","669376","0.0-14.0-0.37","61616ce2bb94584e11c911af","650c16f0f2faf8d7a0d14c09","651c0a7bc6eaf8f5c63ff236","null","null","<p style=""font-size: 60px; font-family: BACS"">KElBABb</p>","","","","","","","","",""
"html-keyboard-response","289","670389","0.0-14.0-0.38","61616ce2bb94584e11c911af","650c16f0f2faf8d7a0d14c09","651c0a7bc6eaf8f5c63ff236","null","null","<p style=""font-size: 60px; font-family: BACS"">lYruaJUNa</p>","","","","","","","","",""
"html-keyboard-response","290","671402","0.0-14.0-0.39","61616ce2bb94584e11c911af","650c16f0f2faf8d7a0d14c09","651c0a7bc6eaf8f5c63ff236","null","null","<p style=""font-size: 60px; font-family: BACS"">rvUbrba</p>","","","","","","","","",""
"html-keyboard-response","291","672409","0.0-14.0-0.40","61616ce2bb94584e11c911af","650c16f0f2faf8d7a0d14c09","651c0a7bc6eaf8f5c63ff236","null","null","<p style=""font-size: 60px; font-family: BACS"">tmYhkKE</p>","","","","","","","","",""
"html-keyboard-response","292","673417","0.0-14.0-0.41","61616ce2bb94584e11c911af","650c16f0f2faf8d7a0d14c09","651c0a7bc6eaf8f5c63ff236","null","null","<p style=""font-size: 60px; font-family: BACS"">rvUbrAm</p>","","","","","","","","",""
"html-keyboard-response","293","674425","0.0-14.0-0.42","61616ce2bb94584e11c911af","650c16f0f2faf8d7a0d14c09","651c0a7bc6eaf8f5c63ff236","null","null","<p style=""font-size: 60px; font-family: BACS"">UdumdJUNa</p>","","","","","","","","",""
"html-keyboard-response","294","675440","0.0-14.0-0.43","61616ce2bb94584e11c911af","650c16f0f2faf8d7a0d14c09","651c0a7bc6eaf8f5c63ff236","null","null","<p style=""font-size: 60px; font-family: BACS"">lYruarGl</p>","","","","","","","","",""
"html-keyboard-response","295","676454","0.0-14.0-0.44","61616ce2bb94584e11c911af","650c16f0f2faf8d7a0d14c09","651c0a7bc6eaf8f5c63ff236","null","null","<p style=""font-size: 60px; font-family: BACS"">OMlTABb</p>","","","","","","","","",""
"html-keyboard-response","296","677471","0.0-14.0-0.45","61616ce2bb94584e11c911af","650c16f0f2faf8d7a0d14c09","651c0a7bc6eaf8f5c63ff236","null","null","<p style=""font-size: 60px; font-family: BACS"">mdkKYht</p>","","","","","","","","",""
"html-keyboard-response","297","678476","0.0-14.0-0.46","61616ce2bb94584e11c911af","650c16f0f2faf8d7a0d14c09","651c0a7bc6eaf8f5c63ff236","null","null","<p style=""font-size: 60px; font-family: BACS"">JauQrAm</p>","","","","","","","","",""
"html-keyboard-response","298","679483","0.0-14.0-0.47","61616ce2bb94584e11c911af","650c16f0f2faf8d7a0d14c09","651c0a7bc6eaf8f5c63ff236","null","null","<p style=""font-size: 60px; font-family: BACS"">hYDmtABb</p>","","","","","","","","",""
"html-keyboard-response","299","680491","0.0-14.0-0.48","61616ce2bb94584e11c911af","650c16f0f2faf8d7a0d14c09","651c0a7bc6eaf8f5c63ff236","null","null","<p style=""font-size: 60px; font-family: BACS"">kMbTRYht</p>","","","","","","","","",""
"html-keyboard-response","300","681509","0.0-14.0-0.49","61616ce2bb94584e11c911af","650c16f0f2faf8d7a0d14c09","651c0a7bc6eaf8f5c63ff236","null","null","<p style=""font-size: 60px; font-family: BACS"">GJGcZYUYa</p>","","","","","","","","",""
"html-keyboard-response","301","682522","0.0-14.0-0.50","61616ce2bb94584e11c911af","650c16f0f2faf8d7a0d14c09","651c0a7bc6eaf8f5c63ff236","null","null","<p style=""font-size: 60px; font-family: BACS"">kMbTRkKE</p>","","","","","","","","",""
"html-keyboard-response","302","683531","0.0-14.0-0.51","61616ce2bb94584e11c911af","650c16f0f2faf8d7a0d14c09","651c0a7bc6eaf8f5c63ff236","null","null","<p style=""font-size: 60px; font-family: BACS"">GLYrAYUYa</p>","","","","","","","","",""
"html-keyboard-response","303","684534","0.0-14.0-0.52","61616ce2bb94584e11c911af","650c16f0f2faf8d7a0d14c09","651c0a7bc6eaf8f5c63ff236","null","null","<p style=""font-size: 60px; font-family: BACS"">kMbTRABb</p>","","","","","","","","",""
"html-keyboard-response","304","685540","0.0-14.0-0.53","61616ce2bb94584e11c911af","650c16f0f2faf8d7a0d14c09","651c0a7bc6eaf8f5c63ff236","null","null","<p style=""font-size: 60px; font-family: BACS"">OMlTYcM</p>","","","","","","","","",""
"html-keyboard-response","305","686556","0.0-14.0-0.54","61616ce2bb94584e11c911af","650c16f0f2faf8d7a0d14c09","651c0a7bc6eaf8f5c63ff236","null","null","<p style=""font-size: 60px; font-family: BACS"">kGlUrGl</p>","","","","","","","","",""
"html-keyboard-response","306","687569","0.0-14.0-0.55","61616ce2bb94584e11c911af","650c16f0f2faf8d7a0d14c09","651c0a7bc6eaf8f5c63ff236","null","null","<p style=""font-size: 60px; font-family: BACS"">UdumdrAm</p>","","","","","","","","",""
"html-keyboard-response","307","688571","0.0-14.0-0.56","61616ce2bb94584e11c911af","650c16f0f2faf8d7a0d14c09","651c0a7bc6eaf8f5c63ff236","null","null","<p style=""font-size: 60px; font-family: BACS"">tmYhYht</p>","","","","","","","","",""
"html-keyboard-response","308","689586","0.0-14.0-0.57","61616ce2bb94584e11c911af","650c16f0f2faf8d7a0d14c09","651c0a7bc6eaf8f5c63ff236","null","null","<p style=""font-size: 60px; font-family: BACS"">ABPRBkKE</p>","","","","","","","","",""
"html-keyboard-response","309","690592","0.0-14.0-0.58","61616ce2bb94584e11c911af","650c16f0f2faf8d7a0d14c09","651c0a7bc6eaf8f5c63ff236","null","null","<p style=""font-size: 60px; font-family: BACS"">JAaGYUYa</p>","","","","","","","","",""
"html-keyboard-response","310","691597","0.0-14.0-0.59","61616ce2bb94584e11c911af","650c16f0f2faf8d7a0d14c09","651c0a7bc6eaf8f5c63ff236","null","null","<p style=""font-size: 60px; font-family: BACS"">chEDOkDOm</p>","","","","","","","","",""
"html-keyboard-response","311","692602","0.0-14.0-0.60","61616ce2bb94584e11c911af","650c16f0f2faf8d7a0d14c09","651c0a7bc6eaf8f5c63ff236","null","null","<p style=""font-size: 60px; font-family: BACS"">kGlUrAm</p>","","","","","","","","",""
"html-keyboard-response","312","693610","0.0-14.0-0.61","61616ce2bb94584e11c911af","650c16f0f2faf8d7a0d14c09","651c0a7bc6eaf8f5c63ff236","null","null","<p style=""font-size: 60px; font-family: BACS"">GJGcZrba</p>","","","","","","","","",""
"html-keyboard-response","313","694625","0.0-14.0-0.62","61616ce2bb94584e11c911af","650c16f0f2faf8d7a0d14c09","651c0a7bc6eaf8f5c63ff236","null","null","<p style=""font-size: 60px; font-family: BACS"">GLYrAJUNa</p>","","","","","","","","",""
"html-keyboard-response","314","695638","0.0-14.0-0.63","61616ce2bb94584e11c911af","650c16f0f2faf8d7a0d14c09","651c0a7bc6eaf8f5c63ff236","null","null","<p style=""font-size: 60px; font-family: BACS"">JAaGrba</p>","","","","","","","","",""
"html-keyboard-response","315","696642","0.0-14.0-0.64","61616ce2bb94584e11c911af","650c16f0f2faf8d7a0d14c09","651c0a7bc6eaf8f5c63ff236","null","null","<p style=""font-size: 60px; font-family: BACS"">tmYhkDOm</p>","","","","","","","","",""
"html-keyboard-response","316","697650","0.0-14.0-0.65","61616ce2bb94584e11c911af","650c16f0f2faf8d7a0d14c09","651c0a7bc6eaf8f5c63ff236","null","null","<p style=""font-size: 60px; font-family: BACS"">JauQJUNa</p>","","","","","","","","",""
"html-keyboard-response","317","698651","0.0-14.0-0.66","61616ce2bb94584e11c911af","650c16f0f2faf8d7a0d14c09","651c0a7bc6eaf8f5c63ff236","null","null","<p style=""font-size: 60px; font-family: BACS"">GLYrArba</p>","","","","","","","","",""
"html-keyboard-response","318","699660","0.0-14.0-0.67","61616ce2bb94584e11c911af","650c16f0f2faf8d7a0d14c09","651c0a7bc6eaf8f5c63ff236","null","null","<p style=""font-size: 60px; font-family: BACS"">GJGcZrGl</p>","","","","","","","","",""
"html-keyboard-response","319","700671","0.0-14.0-0.68","61616ce2bb94584e11c911af","650c16f0f2faf8d7a0d14c09","651c0a7bc6eaf8f5c63ff236","null","null","<p style=""font-size: 60px; font-family: BACS"">BlmclABb</p>","","","","","","","","",""
"html-keyboard-response","320","701685","0.0-14.0-0.69","61616ce2bb94584e11c911af","650c16f0f2faf8d7a0d14c09","651c0a7bc6eaf8f5c63ff236","null","null","<p style=""font-size: 60px; font-family: BACS"">mZUrQrba</p>","","","","","","","","",""
"html-keyboard-response","321","702695","0.0-14.0-0.70","61616ce2bb94584e11c911af","650c16f0f2faf8d7a0d14c09","651c0a7bc6eaf8f5c63ff236","null","null","<p style=""font-size: 60px; font-family: BACS"">chEDOYcM</p>","","","","","","","","",""
"html-keyboard-response","322","703704","0.0-14.0-0.71","61616ce2bb94584e11c911af","650c16f0f2faf8d7a0d14c09","651c0a7bc6eaf8f5c63ff236","null","null","<p style=""font-size: 60px; font-family: BACS"">JauQrGl</p>","","","","","","","","",""
"html-keyboard-response","323","704711","0.0-14.0-0.72","61616ce2bb94584e11c911af","650c16f0f2faf8d7a0d14c09","651c0a7bc6eaf8f5c63ff236","null","null","<p style=""font-size: 60px; font-family: BACS"">mdkKkKE</p>","","","","","","","","",""
"html-keyboard-response","324","705715","0.0-14.0-0.73","61616ce2bb94584e11c911af","650c16f0f2faf8d7a0d14c09","651c0a7bc6eaf8f5c63ff236","null","null","<p style=""font-size: 60px; font-family: BACS"">hYDmtkDOm</p>","","","","","","","","",""
"html-keyboard-response","325","706725","0.0-14.0-0.74","61616ce2bb94584e11c911af","650c16f0f2faf8d7a0d14c09","651c0a7bc6eaf8f5c63ff236","null","null","<p style=""font-size: 60px; font-family: BACS"">mZUrQrGl</p>","","","","","","","","",""
"html-keyboard-response","326","707734","0.0-14.0-0.75","61616ce2bb94584e11c911af","650c16f0f2faf8d7a0d14c09","651c0a7bc6eaf8f5c63ff236","null","null","<p style=""font-size: 60px; font-family: BACS"">hYDmtYcM</p>","","","","","","","","",""
"html-keyboard-response","327","708743","0.0-14.0-0.76","61616ce2bb94584e11c911af","650c16f0f2faf8d7a0d14c09","651c0a7bc6eaf8f5c63ff236","null","null","<p style=""font-size: 60px; font-family: BACS"">rvUbYUYa</p>","","","","","","","","",""
"html-keyboard-response","328","709757","0.0-14.0-0.77","61616ce2bb94584e11c911af","650c16f0f2faf8d7a0d14c09","651c0a7bc6eaf8f5c63ff236","null","null","<p style=""font-size: 60px; font-family: BACS"">vJabrAm</p>","","","","","","","","",""
"html-keyboard-response","329","710768","0.0-14.0-0.78","61616ce2bb94584e11c911af","650c16f0f2faf8d7a0d14c09","651c0a7bc6eaf8f5c63ff236","null","null","<p style=""font-size: 60px; font-family: BACS"">mZUrQJUNa</p>","","","","","","","","",""
"html-keyboard-response","330","711783","0.0-14.0-0.79","61616ce2bb94584e11c911af","650c16f0f2faf8d7a0d14c09","651c0a7bc6eaf8f5c63ff236","null","null","<p style=""font-size: 60px; font-family: BACS"">hYDmtYht</p>","","","","","","","","",""
"html-keyboard-response","331","718431","0.0-15.0","61616ce2bb94584e11c911af","650c16f0f2faf8d7a0d14c09","651c0a7bc6eaf8f5c63ff236","6647"," ","<p>Great, you've seen the fourth block of words. You may now take a short break.</p>
      <p>Press the spacebar when you're ready to continue.</p>","","","","","","","","",""
"html-keyboard-response","332","719442","0.0-16.0-0.0","61616ce2bb94584e11c911af","650c16f0f2faf8d7a0d14c09","651c0a7bc6eaf8f5c63ff236","null","null","<p style=""font-size: 60px; font-family: BACS"">BlmclkDOm</p>","","","","","","","","",""
"html-keyboard-response","333","720444","0.0-16.0-0.1","61616ce2bb94584e11c911af","650c16f0f2faf8d7a0d14c09","651c0a7bc6eaf8f5c63ff236","null","null","<p style=""font-size: 60px; font-family: BACS"">BlmclkDOm</p>","","","","","","","","",""
"html-keyboard-response","334","721460","0.0-16.0-0.2","61616ce2bb94584e11c911af","650c16f0f2faf8d7a0d14c09","651c0a7bc6eaf8f5c63ff236","null","null","<p style=""font-size: 60px; font-family: BACS"">BlmclkDOm</p>","","","","","","","","",""
"html-keyboard-response","335","722469","0.0-16.0-0.3","61616ce2bb94584e11c911af","650c16f0f2faf8d7a0d14c09","651c0a7bc6eaf8f5c63ff236","null","null","<p style=""font-size: 60px; font-family: BACS"">BlmclkDOm</p>","","","","","","","","",""
"html-keyboard-response","336","723486","0.0-16.0-0.4","61616ce2bb94584e11c911af","650c16f0f2faf8d7a0d14c09","651c0a7bc6eaf8f5c63ff236","null","null","<p style=""font-size: 60px; font-family: BACS"">BlmclkDOm</p>","","","","","","","","",""
"html-keyboard-response","337","724495","0.0-16.0-0.5","61616ce2bb94584e11c911af","650c16f0f2faf8d7a0d14c09","651c0a7bc6eaf8f5c63ff236","null","null","<p style=""font-size: 60px; font-family: BACS"">BlmclkDOm</p>","","","","","","","","",""
"html-keyboard-response","338","725497","0.0-16.0-0.6","61616ce2bb94584e11c911af","650c16f0f2faf8d7a0d14c09","651c0a7bc6eaf8f5c63ff236","null","null","<p style=""font-size: 60px; font-family: BACS"">BlmclkDOm</p>","","","","","","","","",""
"html-keyboard-response","339","726503","0.0-16.0-0.7","61616ce2bb94584e11c911af","650c16f0f2faf8d7a0d14c09","651c0a7bc6eaf8f5c63ff236","null","null","<p style=""font-size: 60px; font-family: BACS"">BlmclkDOm</p>","","","","","","","","",""
"html-keyboard-response","340","727506","0.0-16.0-0.8","61616ce2bb94584e11c911af","650c16f0f2faf8d7a0d14c09","651c0a7bc6eaf8f5c63ff236","null","null","<p style=""font-size: 60px; font-family: BACS"">BlmclkDOm</p>","","","","","","","","",""
"html-keyboard-response","341","728512","0.0-16.0-0.9","61616ce2bb94584e11c911af","650c16f0f2faf8d7a0d14c09","651c0a7bc6eaf8f5c63ff236","null","null","<p style=""font-size: 60px; font-family: BACS"">BlmclkDOm</p>","","","","","","","","",""
"html-keyboard-response","342","729522","0.0-16.0-0.10","61616ce2bb94584e11c911af","650c16f0f2faf8d7a0d14c09","651c0a7bc6eaf8f5c63ff236","null","null","<p style=""font-size: 60px; font-family: BACS"">BlmclkDOm</p>","","","","","","","","",""
"html-keyboard-response","343","730538","0.0-16.0-0.11","61616ce2bb94584e11c911af","650c16f0f2faf8d7a0d14c09","651c0a7bc6eaf8f5c63ff236","null","null","<p style=""font-size: 60px; font-family: BACS"">BlmclkDOm</p>","","","","","","","","",""
"html-keyboard-response","344","731548","0.0-16.0-0.12","61616ce2bb94584e11c911af","650c16f0f2faf8d7a0d14c09","651c0a7bc6eaf8f5c63ff236","null","null","<p style=""font-size: 60px; font-family: BACS"">BlmclkDOm</p>","","","","","","","","",""
"html-keyboard-response","345","732557","0.0-16.0-0.13","61616ce2bb94584e11c911af","650c16f0f2faf8d7a0d14c09","651c0a7bc6eaf8f5c63ff236","null","null","<p style=""font-size: 60px; font-family: BACS"">BlmclkDOm</p>","","","","","","","","",""
"html-keyboard-response","346","733566","0.0-16.0-0.14","61616ce2bb94584e11c911af","650c16f0f2faf8d7a0d14c09","651c0a7bc6eaf8f5c63ff236","null","null","<p style=""font-size: 60px; font-family: BACS"">BlmclkDOm</p>","","","","","","","","",""
"html-keyboard-response","347","734577","0.0-16.0-0.15","61616ce2bb94584e11c911af","650c16f0f2faf8d7a0d14c09","651c0a7bc6eaf8f5c63ff236","null","null","<p style=""font-size: 60px; font-family: BACS"">BlmclkDOm</p>","","","","","","","","",""
"html-keyboard-response","348","735586","0.0-16.0-0.16","61616ce2bb94584e11c911af","650c16f0f2faf8d7a0d14c09","651c0a7bc6eaf8f5c63ff236","null","null","<p style=""font-size: 60px; font-family: BACS"">BlmclkDOm</p>","","","","","","","","",""
"html-keyboard-response","349","736598","0.0-16.0-0.17","61616ce2bb94584e11c911af","650c16f0f2faf8d7a0d14c09","651c0a7bc6eaf8f5c63ff236","null","null","<p style=""font-size: 60px; font-family: BACS"">BlmclkDOm</p>","","","","","","","","",""
"html-keyboard-response","350","737606","0.0-16.0-0.18","61616ce2bb94584e11c911af","650c16f0f2faf8d7a0d14c09","651c0a7bc6eaf8f5c63ff236","null","null","<p style=""font-size: 60px; font-family: BACS"">BlmclkDOm</p>","","","","","","","","",""
"html-keyboard-response","351","738615","0.0-16.0-0.19","61616ce2bb94584e11c911af","650c16f0f2faf8d7a0d14c09","651c0a7bc6eaf8f5c63ff236","null","null","<p style=""font-size: 60px; font-family: BACS"">BlmclkDOm</p>","","","","","","","","",""
"html-keyboard-response","352","739622","0.0-16.0-0.20","61616ce2bb94584e11c911af","650c16f0f2faf8d7a0d14c09","651c0a7bc6eaf8f5c63ff236","null","null","<p style=""font-size: 60px; font-family: BACS"">BlmclkDOm</p>","","","","","","","","",""
"html-keyboard-response","353","740631","0.0-16.0-0.21","61616ce2bb94584e11c911af","650c16f0f2faf8d7a0d14c09","651c0a7bc6eaf8f5c63ff236","null","null","<p style=""font-size: 60px; font-family: BACS"">BlmclkDOm</p>","","","","","","","","",""
"html-keyboard-response","354","741638","0.0-16.0-0.22","61616ce2bb94584e11c911af","650c16f0f2faf8d7a0d14c09","651c0a7bc6eaf8f5c63ff236","null","null","<p style=""font-size: 60px; font-family: BACS"">BlmclkDOm</p>","","","","","","","","",""
"html-keyboard-response","355","742654","0.0-16.0-0.23","61616ce2bb94584e11c911af","650c16f0f2faf8d7a0d14c09","651c0a7bc6eaf8f5c63ff236","null","null","<p style=""font-size: 60px; font-family: BACS"">BlmclkDOm</p>","","","","","","","","",""
"html-keyboard-response","356","743659","0.0-16.0-0.24","61616ce2bb94584e11c911af","650c16f0f2faf8d7a0d14c09","651c0a7bc6eaf8f5c63ff236","null","null","<p style=""font-size: 60px; font-family: BACS"">BlmclkDOm</p>","","","","","","","","",""
"html-keyboard-response","357","744665","0.0-16.0-0.25","61616ce2bb94584e11c911af","650c16f0f2faf8d7a0d14c09","651c0a7bc6eaf8f5c63ff236","null","null","<p style=""font-size: 60px; font-family: BACS"">BlmclkDOm</p>","","","","","","","","",""
"html-keyboard-response","358","745682","0.0-16.0-0.26","61616ce2bb94584e11c911af","650c16f0f2faf8d7a0d14c09","651c0a7bc6eaf8f5c63ff236","null","null","<p style=""font-size: 60px; font-family: BACS"">BlmclkDOm</p>","","","","","","","","",""
"html-keyboard-response","359","746696","0.0-16.0-0.27","61616ce2bb94584e11c911af","650c16f0f2faf8d7a0d14c09","651c0a7bc6eaf8f5c63ff236","null","null","<p style=""font-size: 60px; font-family: BACS"">BlmclkDOm</p>","","","","","","","","",""
"html-keyboard-response","360","747699","0.0-16.0-0.28","61616ce2bb94584e11c911af","650c16f0f2faf8d7a0d14c09","651c0a7bc6eaf8f5c63ff236","null","null","<p style=""font-size: 60px; font-family: BACS"">BlmclkDOm</p>","","","","","","","","",""
"html-keyboard-response","361","748716","0.0-16.0-0.29","61616ce2bb94584e11c911af","650c16f0f2faf8d7a0d14c09","651c0a7bc6eaf8f5c63ff236","null","null","<p style=""font-size: 60px; font-family: BACS"">BlmclkDOm</p>","","","","","","","","",""
"html-keyboard-response","362","749727","0.0-16.0-0.30","61616ce2bb94584e11c911af","650c16f0f2faf8d7a0d14c09","651c0a7bc6eaf8f5c63ff236","null","null","<p style=""font-size: 60px; font-family: BACS"">BlmclkDOm</p>","","","","","","","","",""
"html-keyboard-response","363","750734","0.0-16.0-0.31","61616ce2bb94584e11c911af","650c16f0f2faf8d7a0d14c09","651c0a7bc6eaf8f5c63ff236","null","null","<p style=""font-size: 60px; font-family: BACS"">BlmclkDOm</p>","","","","","","","","",""
"html-keyboard-response","364","751738","0.0-16.0-0.32","61616ce2bb94584e11c911af","650c16f0f2faf8d7a0d14c09","651c0a7bc6eaf8f5c63ff236","null","null","<p style=""font-size: 60px; font-family: BACS"">BlmclkDOm</p>","","","","","","","","",""
"html-keyboard-response","365","752755","0.0-16.0-0.33","61616ce2bb94584e11c911af","650c16f0f2faf8d7a0d14c09","651c0a7bc6eaf8f5c63ff236","null","null","<p style=""font-size: 60px; font-family: BACS"">BlmclkDOm</p>","","","","","","","","",""
"html-keyboard-response","366","753768","0.0-16.0-0.34","61616ce2bb94584e11c911af","650c16f0f2faf8d7a0d14c09","651c0a7bc6eaf8f5c63ff236","null","null","<p style=""font-size: 60px; font-family: BACS"">BlmclkDOm</p>","","","","","","","","",""
"html-keyboard-response","367","754782","0.0-16.0-0.35","61616ce2bb94584e11c911af","650c16f0f2faf8d7a0d14c09","651c0a7bc6eaf8f5c63ff236","null","null","<p style=""font-size: 60px; font-family: BACS"">BlmclkDOm</p>","","","","","","","","",""
"html-keyboard-response","368","755796","0.0-16.0-0.36","61616ce2bb94584e11c911af","650c16f0f2faf8d7a0d14c09","651c0a7bc6eaf8f5c63ff236","null","null","<p style=""font-size: 60px; font-family: BACS"">BlmclkDOm</p>","","","","","","","","",""
"html-keyboard-response","369","756811","0.0-16.0-0.37","61616ce2bb94584e11c911af","650c16f0f2faf8d7a0d14c09","651c0a7bc6eaf8f5c63ff236","null","null","<p style=""font-size: 60px; font-family: BACS"">BlmclkDOm</p>","","","","","","","","",""
"html-keyboard-response","370","757820","0.0-16.0-0.38","61616ce2bb94584e11c911af","650c16f0f2faf8d7a0d14c09","651c0a7bc6eaf8f5c63ff236","null","null","<p style=""font-size: 60px; font-family: BACS"">BlmclkDOm</p>","","","","","","","","",""
"html-keyboard-response","371","758827","0.0-16.0-0.39","61616ce2bb94584e11c911af","650c16f0f2faf8d7a0d14c09","651c0a7bc6eaf8f5c63ff236","null","null","<p style=""font-size: 60px; font-family: BACS"">BlmclkDOm</p>","","","","","","","","",""
"html-keyboard-response","372","759841","0.0-16.0-0.40","61616ce2bb94584e11c911af","650c16f0f2faf8d7a0d14c09","651c0a7bc6eaf8f5c63ff236","null","null","<p style=""font-size: 60px; font-family: BACS"">BlmclkDOm</p>","","","","","","","","",""
"html-keyboard-response","373","760855","0.0-16.0-0.41","61616ce2bb94584e11c911af","650c16f0f2faf8d7a0d14c09","651c0a7bc6eaf8f5c63ff236","null","null","<p style=""font-size: 60px; font-family: BACS"">BlmclkDOm</p>","","","","","","","","",""
"html-keyboard-response","374","761860","0.0-16.0-0.42","61616ce2bb94584e11c911af","650c16f0f2faf8d7a0d14c09","651c0a7bc6eaf8f5c63ff236","null","null","<p style=""font-size: 60px; font-family: BACS"">BlmclkDOm</p>","","","","","","","","",""
"html-keyboard-response","375","762869","0.0-16.0-0.43","61616ce2bb94584e11c911af","650c16f0f2faf8d7a0d14c09","651c0a7bc6eaf8f5c63ff236","null","null","<p style=""font-size: 60px; font-family: BACS"">BlmclkDOm</p>","","","","","","","","",""
"html-keyboard-response","376","763879","0.0-16.0-0.44","61616ce2bb94584e11c911af","650c16f0f2faf8d7a0d14c09","651c0a7bc6eaf8f5c63ff236","null","null","<p style=""font-size: 60px; font-family: BACS"">BlmclkDOm</p>","","","","","","","","",""
"html-keyboard-response","377","764881","0.0-16.0-0.45","61616ce2bb94584e11c911af","650c16f0f2faf8d7a0d14c09","651c0a7bc6eaf8f5c63ff236","null","null","<p style=""font-size: 60px; font-family: BACS"">BlmclkDOm</p>","","","","","","","","",""
"html-keyboard-response","378","765886","0.0-16.0-0.46","61616ce2bb94584e11c911af","650c16f0f2faf8d7a0d14c09","651c0a7bc6eaf8f5c63ff236","null","null","<p style=""font-size: 60px; font-family: BACS"">BlmclkDOm</p>","","","","","","","","",""
"html-keyboard-response","379","766898","0.0-16.0-0.47","61616ce2bb94584e11c911af","650c16f0f2faf8d7a0d14c09","651c0a7bc6eaf8f5c63ff236","null","null","<p style=""font-size: 60px; font-family: BACS"">BlmclkDOm</p>","","","","","","","","",""
"html-keyboard-response","380","767905","0.0-16.0-0.48","61616ce2bb94584e11c911af","650c16f0f2faf8d7a0d14c09","651c0a7bc6eaf8f5c63ff236","null","null","<p style=""font-size: 60px; font-family: BACS"">BlmclkDOm</p>","","","","","","","","",""
"html-keyboard-response","381","768910","0.0-16.0-0.49","61616ce2bb94584e11c911af","650c16f0f2faf8d7a0d14c09","651c0a7bc6eaf8f5c63ff236","null","null","<p style=""font-size: 60px; font-family: BACS"">BlmclkDOm</p>","","","","","","","","",""
"html-keyboard-response","382","769917","0.0-16.0-0.50","61616ce2bb94584e11c911af","650c16f0f2faf8d7a0d14c09","651c0a7bc6eaf8f5c63ff236","null","null","<p style=""font-size: 60px; font-family: BACS"">BlmclkDOm</p>","","","","","","","","",""
"html-keyboard-response","383","770921","0.0-16.0-0.51","61616ce2bb94584e11c911af","650c16f0f2faf8d7a0d14c09","651c0a7bc6eaf8f5c63ff236","null","null","<p style=""font-size: 60px; font-family: BACS"">BlmclkDOm</p>","","","","","","","","",""
"html-keyboard-response","384","771926","0.0-16.0-0.52","61616ce2bb94584e11c911af","650c16f0f2faf8d7a0d14c09","651c0a7bc6eaf8f5c63ff236","null","null","<p style=""font-size: 60px; font-family: BACS"">BlmclkDOm</p>","","","","","","","","",""
"html-keyboard-response","385","772928","0.0-16.0-0.53","61616ce2bb94584e11c911af","650c16f0f2faf8d7a0d14c09","651c0a7bc6eaf8f5c63ff236","null","null","<p style=""font-size: 60px; font-family: BACS"">BlmclkDOm</p>","","","","","","","","",""
"html-keyboard-response","386","773940","0.0-16.0-0.54","61616ce2bb94584e11c911af","650c16f0f2faf8d7a0d14c09","651c0a7bc6eaf8f5c63ff236","null","null","<p style=""font-size: 60px; font-family: BACS"">BlmclkDOm</p>","","","","","","","","",""
"html-keyboard-response","387","774958","0.0-16.0-0.55","61616ce2bb94584e11c911af","650c16f0f2faf8d7a0d14c09","651c0a7bc6eaf8f5c63ff236","null","null","<p style=""font-size: 60px; font-family: BACS"">BlmclkDOm</p>","","","","","","","","",""
"html-keyboard-response","388","775975","0.0-16.0-0.56","61616ce2bb94584e11c911af","650c16f0f2faf8d7a0d14c09","651c0a7bc6eaf8f5c63ff236","null","null","<p style=""font-size: 60px; font-family: BACS"">BlmclkDOm</p>","","","","","","","","",""
"html-keyboard-response","389","776977","0.0-16.0-0.57","61616ce2bb94584e11c911af","650c16f0f2faf8d7a0d14c09","651c0a7bc6eaf8f5c63ff236","null","null","<p style=""font-size: 60px; font-family: BACS"">BlmclkDOm</p>","","","","","","","","",""
"html-keyboard-response","390","777980","0.0-16.0-0.58","61616ce2bb94584e11c911af","650c16f0f2faf8d7a0d14c09","651c0a7bc6eaf8f5c63ff236","null","null","<p style=""font-size: 60px; font-family: BACS"">BlmclkDOm</p>","","","","","","","","",""
"html-keyboard-response","391","778984","0.0-16.0-0.59","61616ce2bb94584e11c911af","650c16f0f2faf8d7a0d14c09","651c0a7bc6eaf8f5c63ff236","null","null","<p style=""font-size: 60px; font-family: BACS"">BlmclkDOm</p>","","","","","","","","",""
"html-keyboard-response","392","779987","0.0-16.0-0.60","61616ce2bb94584e11c911af","650c16f0f2faf8d7a0d14c09","651c0a7bc6eaf8f5c63ff236","null","null","<p style=""font-size: 60px; font-family: BACS"">BlmclkDOm</p>","","","","","","","","",""
"html-keyboard-response","393","780994","0.0-16.0-0.61","61616ce2bb94584e11c911af","650c16f0f2faf8d7a0d14c09","651c0a7bc6eaf8f5c63ff236","null","null","<p style=""font-size: 60px; font-family: BACS"">BlmclkDOm</p>","","","","","","","","",""
"html-keyboard-response","394","782002","0.0-16.0-0.62","61616ce2bb94584e11c911af","650c16f0f2faf8d7a0d14c09","651c0a7bc6eaf8f5c63ff236","null","null","<p style=""font-size: 60px; font-family: BACS"">BlmclkDOm</p>","","","","","","","","",""
"html-keyboard-response","395","783007","0.0-16.0-0.63","61616ce2bb94584e11c911af","650c16f0f2faf8d7a0d14c09","651c0a7bc6eaf8f5c63ff236","null","null","<p style=""font-size: 60px; font-family: BACS"">BlmclkDOm</p>","","","","","","","","",""
"html-keyboard-response","396","784015","0.0-16.0-0.64","61616ce2bb94584e11c911af","650c16f0f2faf8d7a0d14c09","651c0a7bc6eaf8f5c63ff236","null","null","<p style=""font-size: 60px; font-family: BACS"">BlmclkDOm</p>","","","","","","","","",""
"html-keyboard-response","397","785017","0.0-16.0-0.65","61616ce2bb94584e11c911af","650c16f0f2faf8d7a0d14c09","651c0a7bc6eaf8f5c63ff236","null","null","<p style=""font-size: 60px; font-family: BACS"">BlmclkDOm</p>","","","","","","","","",""
"html-keyboard-response","398","786032","0.0-16.0-0.66","61616ce2bb94584e11c911af","650c16f0f2faf8d7a0d14c09","651c0a7bc6eaf8f5c63ff236","null","null","<p style=""font-size: 60px; font-family: BACS"">BlmclkDOm</p>","","","","","","","","",""
"html-keyboard-response","399","787043","0.0-16.0-0.67","61616ce2bb94584e11c911af","650c16f0f2faf8d7a0d14c09","651c0a7bc6eaf8f5c63ff236","null","null","<p style=""font-size: 60px; font-family: BACS"">BlmclkDOm</p>","","","","","","","","",""
