"trial_type","trial_index","time_elapsed","internal_node_id","subject_id","study_id","session_id","rt","response","stimulus","success","item","task","correct_response","testing_condition","correct","target","confound","name"
"pavlovia","0","951","0.0-0.0","5ebc0c153f8b2e04d3833423","650c16f0f2faf8d7a0d14c09","651c1cf2698d5e803271ef71","","","","","","","","","","","",""
"survey-html-form","1","6190","0.0-1.0","5ebc0c153f8b2e04d3833423","650c16f0f2faf8d7a0d14c09","651c1cf2698d5e803271ef71","5235","{""ID"":""5ebc0c153f8b2e04d3833423""}","","","","","","","","","",""
"html-keyboard-response","2","19140","0.0-2.0","5ebc0c153f8b2e04d3833423","650c16f0f2faf8d7a0d14c09","651c1cf2698d5e803271ef71","12948"," ","<p style=""font-size: 15px;"">Before beginning, we ask that you read the consent information and confirm your agreement to participate in the experiment.</p>
      <p style=""font-size: 15px;""> We ask that you remember that this is a research project and that your participation is entirely voluntary. You can stop your participation at any time, without needing to provide any explanation. The study we're asking you to participate in aims at examining how readers process written words. You will be engaged in a session of apprximately 20 minutes, followed by a brief questionnaire. You will have the opportunity to take a few breaks during the experiment. You will be paid £4 for your participation, corresponding to a rate of £8/hour. While this experiment looks at cognitive faculties, this experiment doesn't constitute clinical proof of eventual pathologies.</p>
      <p style=""font-size: 15px;"">All of the information collected thanks to yours and others' participation will be held in a secure password-protected server, and will not be shared with anyone not authorised to view it. Your personal information will be kept with an arbitrary participant ID. Thanks to this data anonymity process, any researcher analysing the data won't be able to track the information back to a specific participant. Therefore, this process will make identifying you impossibile, even when results from the study will be published in scientific reviews, presented at congresses, or at any other public forum. More generally, the collected data will be treated in accordance with the laws on privacy and conformity to the Legislative Degree n. 196 ""Code regarding the protection of personal data"" of the 30th of June 2003 and to the European Regulation 2016/670 (General Data Protection Regulation - GDPR). The Data Protection Officer is Avv. Valentina Carollo, who can be contacted at the following email addresses: <a href=""mailto:dpo@sissa.it"">dpo@sissa.it</a> or <a href=""mailto:rpd@sissa.it"">rpd@sissa.it</a> - PEC: <a href=""mailto:protocollo@pec.sissa.it"">protocollo@pec.sissa.it</a>.</p>
      <p style=""font-size: 15px;""> Before expressing your consent to participate, we would like to remind you again that in case you need explanations on any aspect of the experimental procedure, the researcher is at your disposition (<a href=""mailto:aliebelt@sissa.it"">aliebelt@sissa.it</a>, <a href=""mailto:davide.crepaldi@sissa.it"">davide.crepaldi@sissa.it</a>).</p>
      <p style=""font-size: 15px;"">If you would like to download the informed consent form, you can do so here: <a href=""BASL-Informed_Consent.pdf"" download>informed consent form</a>.</p>
      <p style=""font-size: 15px;"">We ask that you press the spacebar to proceed to the consent section.</p>","","","","","","","","",""
"survey-html-form","3","34882","0.0-3.0","5ebc0c153f8b2e04d3833423","650c16f0f2faf8d7a0d14c09","651c1cf2698d5e803271ef71","15740","{""consent1"":""YES"",""consent2"":""YES"",""consent3"":""YES"",""consent4"":""YES"",""consent5"":""YES"",""consent6"":""YES""}","","","","","","","","","",""
"fullscreen","4","42725","0.0-4.0","5ebc0c153f8b2e04d3833423","650c16f0f2faf8d7a0d14c09","651c1cf2698d5e803271ef71","","","","true","","","","","","","",""
"html-keyboard-response","5","64875","0.0-5.0","5ebc0c153f8b2e04d3833423","650c16f0f2faf8d7a0d14c09","651c1cf2698d5e803271ef71","22149"," ","<p>Welcome, and thank you very much for your time!</p>
      <p>In this experiment, you'll be a language expert who's been asked to take a look at words that Earth has received in its first communication with aliens. Your task, in this first part of the experiment, is to pay close attention to the words you'll be shown; later, world leaders will ask you questions on what you saw. The words will be shown to you quite quickly; it seems that the aliens were in a hurry :-)</p>
      <p>Press the spacebar to continue.<p>","","","","","","","","",""
"html-keyboard-response","6","64925","0.0-6.0","5ebc0c153f8b2e04d3833423","650c16f0f2faf8d7a0d14c09","651c1cf2698d5e803271ef71","null","null","<p style=""font-size: 120px; font-family: BACS""> </p>","","","","","","","","",""
"html-keyboard-response","7","74139","0.0-7.0","5ebc0c153f8b2e04d3833423","650c16f0f2faf8d7a0d14c09","651c1cf2698d5e803271ef71","9212"," ","<p>Here is an example of the words you'll see:</p>
      <img src='esempio.png' height='400px'>
      <p>When you're ready to begin, press the spacebar.</p></div>","","","","","","","","",""
"html-keyboard-response","8","75142","0.0-8.0-0.0","5ebc0c153f8b2e04d3833423","650c16f0f2faf8d7a0d14c09","651c1cf2698d5e803271ef71","null","null","<p style=""font-size: 60px; font-family: BACS"">BMEMAtAY</p>","","","","","","","","",""
"html-keyboard-response","9","76143","0.0-8.0-0.1","5ebc0c153f8b2e04d3833423","650c16f0f2faf8d7a0d14c09","651c1cf2698d5e803271ef71","null","null","<p style=""font-size: 60px; font-family: BACS"">YLQmGNac</p>","","","","","","","","",""
"html-keyboard-response","10","77159","0.0-8.0-0.2","5ebc0c153f8b2e04d3833423","650c16f0f2faf8d7a0d14c09","651c1cf2698d5e803271ef71","null","null","<p style=""font-size: 60px; font-family: BACS"">BMEMAYht</p>","","","","","","","","",""
"html-keyboard-response","11","78168","0.0-8.0-0.3","5ebc0c153f8b2e04d3833423","650c16f0f2faf8d7a0d14c09","651c1cf2698d5e803271ef71","null","null","<p style=""font-size: 60px; font-family: BACS"">GQrckYL</p>","","","","","","","","",""
"html-keyboard-response","12","79176","0.0-8.0-0.4","5ebc0c153f8b2e04d3833423","650c16f0f2faf8d7a0d14c09","651c1cf2698d5e803271ef71","null","null","<p style=""font-size: 60px; font-family: BACS"">dKRDYht</p>","","","","","","","","",""
"html-keyboard-response","13","80184","0.0-8.0-0.5","5ebc0c153f8b2e04d3833423","650c16f0f2faf8d7a0d14c09","651c1cf2698d5e803271ef71","null","null","<p style=""font-size: 60px; font-family: BACS"">mBbKPMYm</p>","","","","","","","","",""
"html-keyboard-response","14","81194","0.0-8.0-0.6","5ebc0c153f8b2e04d3833423","650c16f0f2faf8d7a0d14c09","651c1cf2698d5e803271ef71","null","null","<p style=""font-size: 60px; font-family: BACS"">GQrcNac</p>","","","","","","","","",""
"html-keyboard-response","15","82208","0.0-8.0-0.7","5ebc0c153f8b2e04d3833423","650c16f0f2faf8d7a0d14c09","651c1cf2698d5e803271ef71","null","null","<p style=""font-size: 60px; font-family: BACS"">JauQUdvY</p>","","","","","","","","",""
"html-keyboard-response","16","83211","0.0-8.0-0.8","5ebc0c153f8b2e04d3833423","650c16f0f2faf8d7a0d14c09","651c1cf2698d5e803271ef71","null","null","<p style=""font-size: 60px; font-family: BACS"">YmBdtAY</p>","","","","","","","","",""
"html-keyboard-response","17","84221","0.0-8.0-0.9","5ebc0c153f8b2e04d3833423","650c16f0f2faf8d7a0d14c09","651c1cf2698d5e803271ef71","null","null","<p style=""font-size: 60px; font-family: BACS"">NvuGrlLG</p>","","","","","","","","",""
"html-keyboard-response","18","85233","0.0-8.0-0.10","5ebc0c153f8b2e04d3833423","650c16f0f2faf8d7a0d14c09","651c1cf2698d5e803271ef71","null","null","<p style=""font-size: 60px; font-family: BACS"">YmBdYht</p>","","","","","","","","",""
"html-keyboard-response","19","86244","0.0-8.0-0.11","5ebc0c153f8b2e04d3833423","650c16f0f2faf8d7a0d14c09","651c1cf2698d5e803271ef71","null","null","<p style=""font-size: 60px; font-family: BACS"">vuJZulLG</p>","","","","","","","","",""
"html-keyboard-response","20","87250","0.0-8.0-0.12","5ebc0c153f8b2e04d3833423","650c16f0f2faf8d7a0d14c09","651c1cf2698d5e803271ef71","null","null","<p style=""font-size: 60px; font-family: BACS"">bvuZkYL</p>","","","","","","","","",""
"html-keyboard-response","21","88253","0.0-8.0-0.13","5ebc0c153f8b2e04d3833423","650c16f0f2faf8d7a0d14c09","651c1cf2698d5e803271ef71","null","null","<p style=""font-size: 60px; font-family: BACS"">KDPAPMYm</p>","","","","","","","","",""
"html-keyboard-response","22","89259","0.0-8.0-0.14","5ebc0c153f8b2e04d3833423","650c16f0f2faf8d7a0d14c09","651c1cf2698d5e803271ef71","null","null","<p style=""font-size: 60px; font-family: BACS"">UrOQJUNa</p>","","","","","","","","",""
"html-keyboard-response","23","90267","0.0-8.0-0.15","5ebc0c153f8b2e04d3833423","650c16f0f2faf8d7a0d14c09","651c1cf2698d5e803271ef71","null","null","<p style=""font-size: 60px; font-family: BACS"">TCbDCYht</p>","","","","","","","","",""
"html-keyboard-response","24","91278","0.0-8.0-0.16","5ebc0c153f8b2e04d3833423","650c16f0f2faf8d7a0d14c09","651c1cf2698d5e803271ef71","null","null","<p style=""font-size: 60px; font-family: BACS"">OAmAdPMYm</p>","","","","","","","","",""
"html-keyboard-response","25","92281","0.0-8.0-0.17","5ebc0c153f8b2e04d3833423","650c16f0f2faf8d7a0d14c09","651c1cf2698d5e803271ef71","null","null","<p style=""font-size: 60px; font-family: BACS"">NvuGrUdvY</p>","","","","","","","","",""
"html-keyboard-response","26","93286","0.0-8.0-0.18","5ebc0c153f8b2e04d3833423","650c16f0f2faf8d7a0d14c09","651c1cf2698d5e803271ef71","null","null","<p style=""font-size: 60px; font-family: BACS"">GQrcJUNa</p>","","","","","","","","",""
"html-keyboard-response","27","94290","0.0-8.0-0.19","5ebc0c153f8b2e04d3833423","650c16f0f2faf8d7a0d14c09","651c1cf2698d5e803271ef71","null","null","<p style=""font-size: 60px; font-family: BACS"">KBKBEPMYm</p>","","","","","","","","",""
"html-keyboard-response","28","95296","0.0-8.0-0.20","5ebc0c153f8b2e04d3833423","650c16f0f2faf8d7a0d14c09","651c1cf2698d5e803271ef71","null","null","<p style=""font-size: 60px; font-family: BACS"">dKRDMCkm</p>","","","","","","","","",""
"html-keyboard-response","29","96300","0.0-8.0-0.21","5ebc0c153f8b2e04d3833423","650c16f0f2faf8d7a0d14c09","651c1cf2698d5e803271ef71","null","null","<p style=""font-size: 60px; font-family: BACS"">KBKBEtAY</p>","","","","","","","","",""
"html-keyboard-response","30","97317","0.0-8.0-0.22","5ebc0c153f8b2e04d3833423","650c16f0f2faf8d7a0d14c09","651c1cf2698d5e803271ef71","null","null","<p style=""font-size: 60px; font-family: BACS"">JauQlLG</p>","","","","","","","","",""
"html-keyboard-response","31","98330","0.0-8.0-0.23","5ebc0c153f8b2e04d3833423","650c16f0f2faf8d7a0d14c09","651c1cf2698d5e803271ef71","null","null","<p style=""font-size: 60px; font-family: BACS"">btlcktAY</p>","","","","","","","","",""
"html-keyboard-response","32","99334","0.0-8.0-0.24","5ebc0c153f8b2e04d3833423","650c16f0f2faf8d7a0d14c09","651c1cf2698d5e803271ef71","null","null","<p style=""font-size: 60px; font-family: BACS"">vuJZuUdvY</p>","","","","","","","","",""
"html-keyboard-response","33","100345","0.0-8.0-0.25","5ebc0c153f8b2e04d3833423","650c16f0f2faf8d7a0d14c09","651c1cf2698d5e803271ef71","null","null","<p style=""font-size: 60px; font-family: BACS"">YmBdBbM</p>","","","","","","","","",""
"html-keyboard-response","34","101350","0.0-8.0-0.26","5ebc0c153f8b2e04d3833423","650c16f0f2faf8d7a0d14c09","651c1cf2698d5e803271ef71","null","null","<p style=""font-size: 60px; font-family: BACS"">JauQNac</p>","","","","","","","","",""
"html-keyboard-response","35","102352","0.0-8.0-0.27","5ebc0c153f8b2e04d3833423","650c16f0f2faf8d7a0d14c09","651c1cf2698d5e803271ef71","null","null","<p style=""font-size: 60px; font-family: BACS"">mZUrQkYL</p>","","","","","","","","",""
"html-keyboard-response","36","103367","0.0-8.0-0.28","5ebc0c153f8b2e04d3833423","650c16f0f2faf8d7a0d14c09","651c1cf2698d5e803271ef71","null","null","<p style=""font-size: 60px; font-family: BACS"">mBbKYht</p>","","","","","","","","",""
"html-keyboard-response","37","104373","0.0-8.0-0.29","5ebc0c153f8b2e04d3833423","650c16f0f2faf8d7a0d14c09","651c1cf2698d5e803271ef71","null","null","<p style=""font-size: 60px; font-family: BACS"">YLQmGkYL</p>","","","","","","","","",""
"html-keyboard-response","38","105389","0.0-8.0-0.30","5ebc0c153f8b2e04d3833423","650c16f0f2faf8d7a0d14c09","651c1cf2698d5e803271ef71","null","null","<p style=""font-size: 60px; font-family: BACS"">MkmEdtAY</p>","","","","","","","","",""
"html-keyboard-response","39","106390","0.0-8.0-0.31","5ebc0c153f8b2e04d3833423","650c16f0f2faf8d7a0d14c09","651c1cf2698d5e803271ef71","null","null","<p style=""font-size: 60px; font-family: BACS"">mUOcOJUNa</p>","","","","","","","","",""
"html-keyboard-response","40","107403","0.0-8.0-0.32","5ebc0c153f8b2e04d3833423","650c16f0f2faf8d7a0d14c09","651c1cf2698d5e803271ef71","null","null","<p style=""font-size: 60px; font-family: BACS"">KBKBEBbM</p>","","","","","","","","",""
"html-keyboard-response","41","108419","0.0-8.0-0.33","5ebc0c153f8b2e04d3833423","650c16f0f2faf8d7a0d14c09","651c1cf2698d5e803271ef71","null","null","<p style=""font-size: 60px; font-family: BACS"">btlckMCkm</p>","","","","","","","","",""
"html-keyboard-response","42","109426","0.0-8.0-0.34","5ebc0c153f8b2e04d3833423","650c16f0f2faf8d7a0d14c09","651c1cf2698d5e803271ef71","null","null","<p style=""font-size: 60px; font-family: BACS"">NvuGrkYL</p>","","","","","","","","",""
"html-keyboard-response","43","110435","0.0-8.0-0.35","5ebc0c153f8b2e04d3833423","650c16f0f2faf8d7a0d14c09","651c1cf2698d5e803271ef71","null","null","<p style=""font-size: 60px; font-family: BACS"">OAmAdYht</p>","","","","","","","","",""
"html-keyboard-response","44","111452","0.0-8.0-0.36","5ebc0c153f8b2e04d3833423","650c16f0f2faf8d7a0d14c09","651c1cf2698d5e803271ef71","null","null","<p style=""font-size: 60px; font-family: BACS"">bvuZNac</p>","","","","","","","","",""
"html-keyboard-response","45","112461","0.0-8.0-0.37","5ebc0c153f8b2e04d3833423","650c16f0f2faf8d7a0d14c09","651c1cf2698d5e803271ef71","null","null","<p style=""font-size: 60px; font-family: BACS"">YLQmGlLG</p>","","","","","","","","",""
"html-keyboard-response","46","113463","0.0-8.0-0.38","5ebc0c153f8b2e04d3833423","650c16f0f2faf8d7a0d14c09","651c1cf2698d5e803271ef71","null","null","<p style=""font-size: 60px; font-family: BACS"">KDPAYht</p>","","","","","","","","",""
"html-keyboard-response","47","114466","0.0-8.0-0.39","5ebc0c153f8b2e04d3833423","650c16f0f2faf8d7a0d14c09","651c1cf2698d5e803271ef71","null","null","<p style=""font-size: 60px; font-family: BACS"">btlckBbM</p>","","","","","","","","",""
"html-keyboard-response","48","115473","0.0-8.0-0.40","5ebc0c153f8b2e04d3833423","650c16f0f2faf8d7a0d14c09","651c1cf2698d5e803271ef71","null","null","<p style=""font-size: 60px; font-family: BACS"">mZUrQNac</p>","","","","","","","","",""
"html-keyboard-response","49","116488","0.0-8.0-0.41","5ebc0c153f8b2e04d3833423","650c16f0f2faf8d7a0d14c09","651c1cf2698d5e803271ef71","null","null","<p style=""font-size: 60px; font-family: BACS"">UrOQlLG</p>","","","","","","","","",""
"html-keyboard-response","50","117501","0.0-8.0-0.42","5ebc0c153f8b2e04d3833423","650c16f0f2faf8d7a0d14c09","651c1cf2698d5e803271ef71","null","null","<p style=""font-size: 60px; font-family: BACS"">MkmEdBbM</p>","","","","","","","","",""
"html-keyboard-response","51","118511","0.0-8.0-0.43","5ebc0c153f8b2e04d3833423","650c16f0f2faf8d7a0d14c09","651c1cf2698d5e803271ef71","null","null","<p style=""font-size: 60px; font-family: BACS"">TCbDCPMYm</p>","","","","","","","","",""
"html-keyboard-response","52","119515","0.0-8.0-0.44","5ebc0c153f8b2e04d3833423","650c16f0f2faf8d7a0d14c09","651c1cf2698d5e803271ef71","null","null","<p style=""font-size: 60px; font-family: BACS"">KDPABbM</p>","","","","","","","","",""
"html-keyboard-response","53","120522","0.0-8.0-0.45","5ebc0c153f8b2e04d3833423","650c16f0f2faf8d7a0d14c09","651c1cf2698d5e803271ef71","null","null","<p style=""font-size: 60px; font-family: BACS"">OAmAdMCkm</p>","","","","","","","","",""
"html-keyboard-response","54","121525","0.0-8.0-0.46","5ebc0c153f8b2e04d3833423","650c16f0f2faf8d7a0d14c09","651c1cf2698d5e803271ef71","null","null","<p style=""font-size: 60px; font-family: BACS"">mUOcONac</p>","","","","","","","","",""
"html-keyboard-response","55","122527","0.0-8.0-0.47","5ebc0c153f8b2e04d3833423","650c16f0f2faf8d7a0d14c09","651c1cf2698d5e803271ef71","null","null","<p style=""font-size: 60px; font-family: BACS"">vuJZuJUNa</p>","","","","","","","","",""
"html-keyboard-response","56","123540","0.0-8.0-0.48","5ebc0c153f8b2e04d3833423","650c16f0f2faf8d7a0d14c09","651c1cf2698d5e803271ef71","null","null","<p style=""font-size: 60px; font-family: BACS"">mZUrQUdvY</p>","","","","","","","","",""
"html-keyboard-response","57","124548","0.0-8.0-0.49","5ebc0c153f8b2e04d3833423","650c16f0f2faf8d7a0d14c09","651c1cf2698d5e803271ef71","null","null","<p style=""font-size: 60px; font-family: BACS"">JauQJUNa</p>","","","","","","","","",""
"html-keyboard-response","58","125564","0.0-8.0-0.50","5ebc0c153f8b2e04d3833423","650c16f0f2faf8d7a0d14c09","651c1cf2698d5e803271ef71","null","null","<p style=""font-size: 60px; font-family: BACS"">OAmAdtAY</p>","","","","","","","","",""
"html-keyboard-response","59","126574","0.0-8.0-0.51","5ebc0c153f8b2e04d3833423","650c16f0f2faf8d7a0d14c09","651c1cf2698d5e803271ef71","null","null","<p style=""font-size: 60px; font-family: BACS"">KBKBEMCkm</p>","","","","","","","","",""
"html-keyboard-response","60","127589","0.0-8.0-0.52","5ebc0c153f8b2e04d3833423","650c16f0f2faf8d7a0d14c09","651c1cf2698d5e803271ef71","null","null","<p style=""font-size: 60px; font-family: BACS"">OZkbJUNa</p>","","","","","","","","",""
"html-keyboard-response","61","128602","0.0-8.0-0.53","5ebc0c153f8b2e04d3833423","650c16f0f2faf8d7a0d14c09","651c1cf2698d5e803271ef71","null","null","<p style=""font-size: 60px; font-family: BACS"">TCbDCMCkm</p>","","","","","","","","",""
"html-keyboard-response","62","129611","0.0-8.0-0.54","5ebc0c153f8b2e04d3833423","650c16f0f2faf8d7a0d14c09","651c1cf2698d5e803271ef71","null","null","<p style=""font-size: 60px; font-family: BACS"">mUOcOUdvY</p>","","","","","","","","",""
"html-keyboard-response","63","130623","0.0-8.0-0.55","5ebc0c153f8b2e04d3833423","650c16f0f2faf8d7a0d14c09","651c1cf2698d5e803271ef71","null","null","<p style=""font-size: 60px; font-family: BACS"">BMEMAMCkm</p>","","","","","","","","",""
"html-keyboard-response","64","131625","0.0-8.0-0.56","5ebc0c153f8b2e04d3833423","650c16f0f2faf8d7a0d14c09","651c1cf2698d5e803271ef71","null","null","<p style=""font-size: 60px; font-family: BACS"">YmBdPMYm</p>","","","","","","","","",""
"html-keyboard-response","65","132639","0.0-8.0-0.57","5ebc0c153f8b2e04d3833423","650c16f0f2faf8d7a0d14c09","651c1cf2698d5e803271ef71","null","null","<p style=""font-size: 60px; font-family: BACS"">MkmEdYht</p>","","","","","","","","",""
"html-keyboard-response","66","133645","0.0-8.0-0.58","5ebc0c153f8b2e04d3833423","650c16f0f2faf8d7a0d14c09","651c1cf2698d5e803271ef71","null","null","<p style=""font-size: 60px; font-family: BACS"">YLQmGUdvY</p>","","","","","","","","",""
"html-keyboard-response","67","134655","0.0-8.0-0.59","5ebc0c153f8b2e04d3833423","650c16f0f2faf8d7a0d14c09","651c1cf2698d5e803271ef71","null","null","<p style=""font-size: 60px; font-family: BACS"">UrOQNac</p>","","","","","","","","",""
"html-keyboard-response","68","135662","0.0-8.0-0.60","5ebc0c153f8b2e04d3833423","650c16f0f2faf8d7a0d14c09","651c1cf2698d5e803271ef71","null","null","<p style=""font-size: 60px; font-family: BACS"">OZkbkYL</p>","","","","","","","","",""
"html-keyboard-response","69","136677","0.0-8.0-0.61","5ebc0c153f8b2e04d3833423","650c16f0f2faf8d7a0d14c09","651c1cf2698d5e803271ef71","null","null","<p style=""font-size: 60px; font-family: BACS"">KDPAMCkm</p>","","","","","","","","",""
"html-keyboard-response","70","137693","0.0-8.0-0.62","5ebc0c153f8b2e04d3833423","650c16f0f2faf8d7a0d14c09","651c1cf2698d5e803271ef71","null","null","<p style=""font-size: 60px; font-family: BACS"">UrOQkYL</p>","","","","","","","","",""
"html-keyboard-response","71","138708","0.0-8.0-0.63","5ebc0c153f8b2e04d3833423","650c16f0f2faf8d7a0d14c09","651c1cf2698d5e803271ef71","null","null","<p style=""font-size: 60px; font-family: BACS"">mBbKtAY</p>","","","","","","","","",""
"html-keyboard-response","72","139712","0.0-8.0-0.64","5ebc0c153f8b2e04d3833423","650c16f0f2faf8d7a0d14c09","651c1cf2698d5e803271ef71","null","null","<p style=""font-size: 60px; font-family: BACS"">bvuZlLG</p>","","","","","","","","",""
"html-keyboard-response","73","140730","0.0-8.0-0.65","5ebc0c153f8b2e04d3833423","650c16f0f2faf8d7a0d14c09","651c1cf2698d5e803271ef71","null","null","<p style=""font-size: 60px; font-family: BACS"">vuJZukYL</p>","","","","","","","","",""
"html-keyboard-response","74","141738","0.0-8.0-0.66","5ebc0c153f8b2e04d3833423","650c16f0f2faf8d7a0d14c09","651c1cf2698d5e803271ef71","null","null","<p style=""font-size: 60px; font-family: BACS"">mBbKBbM</p>","","","","","","","","",""
"html-keyboard-response","75","142748","0.0-8.0-0.67","5ebc0c153f8b2e04d3833423","650c16f0f2faf8d7a0d14c09","651c1cf2698d5e803271ef71","null","null","<p style=""font-size: 60px; font-family: BACS"">mUOcOlLG</p>","","","","","","","","",""
"html-keyboard-response","76","143758","0.0-8.0-0.68","5ebc0c153f8b2e04d3833423","650c16f0f2faf8d7a0d14c09","651c1cf2698d5e803271ef71","null","null","<p style=""font-size: 60px; font-family: BACS"">GQrcUdvY</p>","","","","","","","","",""
"html-keyboard-response","77","144774","0.0-8.0-0.69","5ebc0c153f8b2e04d3833423","650c16f0f2faf8d7a0d14c09","651c1cf2698d5e803271ef71","null","null","<p style=""font-size: 60px; font-family: BACS"">dKRDtAY</p>","","","","","","","","",""
"html-keyboard-response","78","145787","0.0-8.0-0.70","5ebc0c153f8b2e04d3833423","650c16f0f2faf8d7a0d14c09","651c1cf2698d5e803271ef71","null","null","<p style=""font-size: 60px; font-family: BACS"">MkmEdMCkm</p>","","","","","","","","",""
"html-keyboard-response","79","146789","0.0-8.0-0.71","5ebc0c153f8b2e04d3833423","650c16f0f2faf8d7a0d14c09","651c1cf2698d5e803271ef71","null","null","<p style=""font-size: 60px; font-family: BACS"">bvuZJUNa</p>","","","","","","","","",""
"html-keyboard-response","80","147798","0.0-8.0-0.72","5ebc0c153f8b2e04d3833423","650c16f0f2faf8d7a0d14c09","651c1cf2698d5e803271ef71","null","null","<p style=""font-size: 60px; font-family: BACS"">BMEMAPMYm</p>","","","","","","","","",""
"html-keyboard-response","81","148800","0.0-8.0-0.73","5ebc0c153f8b2e04d3833423","650c16f0f2faf8d7a0d14c09","651c1cf2698d5e803271ef71","null","null","<p style=""font-size: 60px; font-family: BACS"">mZUrQJUNa</p>","","","","","","","","",""
"html-keyboard-response","82","149804","0.0-8.0-0.74","5ebc0c153f8b2e04d3833423","650c16f0f2faf8d7a0d14c09","651c1cf2698d5e803271ef71","null","null","<p style=""font-size: 60px; font-family: BACS"">OZkbUdvY</p>","","","","","","","","",""
"html-keyboard-response","83","150808","0.0-8.0-0.75","5ebc0c153f8b2e04d3833423","650c16f0f2faf8d7a0d14c09","651c1cf2698d5e803271ef71","null","null","<p style=""font-size: 60px; font-family: BACS"">btlckPMYm</p>","","","","","","","","",""
"html-keyboard-response","84","151821","0.0-8.0-0.76","5ebc0c153f8b2e04d3833423","650c16f0f2faf8d7a0d14c09","651c1cf2698d5e803271ef71","null","null","<p style=""font-size: 60px; font-family: BACS"">dKRDBbM</p>","","","","","","","","",""
"html-keyboard-response","85","152837","0.0-8.0-0.77","5ebc0c153f8b2e04d3833423","650c16f0f2faf8d7a0d14c09","651c1cf2698d5e803271ef71","null","null","<p style=""font-size: 60px; font-family: BACS"">OZkblLG</p>","","","","","","","","",""
"html-keyboard-response","86","153843","0.0-8.0-0.78","5ebc0c153f8b2e04d3833423","650c16f0f2faf8d7a0d14c09","651c1cf2698d5e803271ef71","null","null","<p style=""font-size: 60px; font-family: BACS"">NvuGrNac</p>","","","","","","","","",""
"html-keyboard-response","87","154860","0.0-8.0-0.79","5ebc0c153f8b2e04d3833423","650c16f0f2faf8d7a0d14c09","651c1cf2698d5e803271ef71","null","null","<p style=""font-size: 60px; font-family: BACS"">TCbDCBbM</p>","","","","","","","","",""
"html-keyboard-response","88","161726","0.0-9.0","5ebc0c153f8b2e04d3833423","650c16f0f2faf8d7a0d14c09","651c1cf2698d5e803271ef71","6865"," ","<p>Great, you've seen the first block of words. You may now take a short break.</p>
      <p>Press the spacebar when you're ready to continue.</p>","","","","","","","","",""
"html-keyboard-response","89","162740","0.0-10.0-0.0","5ebc0c153f8b2e04d3833423","650c16f0f2faf8d7a0d14c09","651c1cf2698d5e803271ef71","null","null","<p style=""font-size: 60px; font-family: BACS"">mBbKPMYm</p>","","","","","","","","",""
"html-keyboard-response","90","163743","0.0-10.0-0.1","5ebc0c153f8b2e04d3833423","650c16f0f2faf8d7a0d14c09","651c1cf2698d5e803271ef71","null","null","<p style=""font-size: 60px; font-family: BACS"">MkmEdMCkm</p>","","","","","","","","",""
"html-keyboard-response","91","164759","0.0-10.0-0.2","5ebc0c153f8b2e04d3833423","650c16f0f2faf8d7a0d14c09","651c1cf2698d5e803271ef71","null","null","<p style=""font-size: 60px; font-family: BACS"">mZUrQUdvY</p>","","","","","","","","",""
"html-keyboard-response","92","165776","0.0-10.0-0.3","5ebc0c153f8b2e04d3833423","650c16f0f2faf8d7a0d14c09","651c1cf2698d5e803271ef71","null","null","<p style=""font-size: 60px; font-family: BACS"">dKRDMCkm</p>","","","","","","","","",""
"html-keyboard-response","93","166790","0.0-10.0-0.4","5ebc0c153f8b2e04d3833423","650c16f0f2faf8d7a0d14c09","651c1cf2698d5e803271ef71","null","null","<p style=""font-size: 60px; font-family: BACS"">mZUrQkYL</p>","","","","","","","","",""
"html-keyboard-response","94","167797","0.0-10.0-0.5","5ebc0c153f8b2e04d3833423","650c16f0f2faf8d7a0d14c09","651c1cf2698d5e803271ef71","null","null","<p style=""font-size: 60px; font-family: BACS"">YmBdPMYm</p>","","","","","","","","",""
"html-keyboard-response","95","168805","0.0-10.0-0.6","5ebc0c153f8b2e04d3833423","650c16f0f2faf8d7a0d14c09","651c1cf2698d5e803271ef71","null","null","<p style=""font-size: 60px; font-family: BACS"">OAmAdtAY</p>","","","","","","","","",""
"html-keyboard-response","96","169806","0.0-10.0-0.7","5ebc0c153f8b2e04d3833423","650c16f0f2faf8d7a0d14c09","651c1cf2698d5e803271ef71","null","null","<p style=""font-size: 60px; font-family: BACS"">TCbDCMCkm</p>","","","","","","","","",""
"html-keyboard-response","97","170815","0.0-10.0-0.8","5ebc0c153f8b2e04d3833423","650c16f0f2faf8d7a0d14c09","651c1cf2698d5e803271ef71","null","null","<p style=""font-size: 60px; font-family: BACS"">KBKBEBbM</p>","","","","","","","","",""
"html-keyboard-response","98","171821","0.0-10.0-0.9","5ebc0c153f8b2e04d3833423","650c16f0f2faf8d7a0d14c09","651c1cf2698d5e803271ef71","null","null","<p style=""font-size: 60px; font-family: BACS"">KDPAPMYm</p>","","","","","","","","",""
"html-keyboard-response","99","172829","0.0-10.0-0.10","5ebc0c153f8b2e04d3833423","650c16f0f2faf8d7a0d14c09","651c1cf2698d5e803271ef71","null","null","<p style=""font-size: 60px; font-family: BACS"">mUOcONac</p>","","","","","","","","",""
"html-keyboard-response","100","173838","0.0-10.0-0.11","5ebc0c153f8b2e04d3833423","650c16f0f2faf8d7a0d14c09","651c1cf2698d5e803271ef71","null","null","<p style=""font-size: 60px; font-family: BACS"">vuJZukYL</p>","","","","","","","","",""
"html-keyboard-response","101","174841","0.0-10.0-0.12","5ebc0c153f8b2e04d3833423","650c16f0f2faf8d7a0d14c09","651c1cf2698d5e803271ef71","null","null","<p style=""font-size: 60px; font-family: BACS"">mUOcOJUNa</p>","","","","","","","","",""
"html-keyboard-response","102","175856","0.0-10.0-0.13","5ebc0c153f8b2e04d3833423","650c16f0f2faf8d7a0d14c09","651c1cf2698d5e803271ef71","null","null","<p style=""font-size: 60px; font-family: BACS"">NvuGrUdvY</p>","","","","","","","","",""
"html-keyboard-response","103","176870","0.0-10.0-0.14","5ebc0c153f8b2e04d3833423","650c16f0f2faf8d7a0d14c09","651c1cf2698d5e803271ef71","null","null","<p style=""font-size: 60px; font-family: BACS"">bvuZlLG</p>","","","","","","","","",""
"html-keyboard-response","104","177875","0.0-10.0-0.15","5ebc0c153f8b2e04d3833423","650c16f0f2faf8d7a0d14c09","651c1cf2698d5e803271ef71","null","null","<p style=""font-size: 60px; font-family: BACS"">dKRDBbM</p>","","","","","","","","",""
"html-keyboard-response","105","178889","0.0-10.0-0.16","5ebc0c153f8b2e04d3833423","650c16f0f2faf8d7a0d14c09","651c1cf2698d5e803271ef71","null","null","<p style=""font-size: 60px; font-family: BACS"">mZUrQNac</p>","","","","","","","","",""
"html-keyboard-response","106","179892","0.0-10.0-0.17","5ebc0c153f8b2e04d3833423","650c16f0f2faf8d7a0d14c09","651c1cf2698d5e803271ef71","null","null","<p style=""font-size: 60px; font-family: BACS"">BMEMAMCkm</p>","","","","","","","","",""
"html-keyboard-response","107","180909","0.0-10.0-0.18","5ebc0c153f8b2e04d3833423","650c16f0f2faf8d7a0d14c09","651c1cf2698d5e803271ef71","null","null","<p style=""font-size: 60px; font-family: BACS"">YmBdBbM</p>","","","","","","","","",""
"html-keyboard-response","108","181921","0.0-10.0-0.19","5ebc0c153f8b2e04d3833423","650c16f0f2faf8d7a0d14c09","651c1cf2698d5e803271ef71","null","null","<p style=""font-size: 60px; font-family: BACS"">bvuZkYL</p>","","","","","","","","",""
"html-keyboard-response","109","182923","0.0-10.0-0.20","5ebc0c153f8b2e04d3833423","650c16f0f2faf8d7a0d14c09","651c1cf2698d5e803271ef71","null","null","<p style=""font-size: 60px; font-family: BACS"">YmBdtAY</p>","","","","","","","","",""
"html-keyboard-response","110","183936","0.0-10.0-0.21","5ebc0c153f8b2e04d3833423","650c16f0f2faf8d7a0d14c09","651c1cf2698d5e803271ef71","null","null","<p style=""font-size: 60px; font-family: BACS"">vuJZulLG</p>","","","","","","","","",""
"html-keyboard-response","111","184943","0.0-10.0-0.22","5ebc0c153f8b2e04d3833423","650c16f0f2faf8d7a0d14c09","651c1cf2698d5e803271ef71","null","null","<p style=""font-size: 60px; font-family: BACS"">mBbKtAY</p>","","","","","","","","",""
"html-keyboard-response","112","185949","0.0-10.0-0.23","5ebc0c153f8b2e04d3833423","650c16f0f2faf8d7a0d14c09","651c1cf2698d5e803271ef71","null","null","<p style=""font-size: 60px; font-family: BACS"">YLQmGlLG</p>","","","","","","","","",""
"html-keyboard-response","113","186953","0.0-10.0-0.24","5ebc0c153f8b2e04d3833423","650c16f0f2faf8d7a0d14c09","651c1cf2698d5e803271ef71","null","null","<p style=""font-size: 60px; font-family: BACS"">vuJZuUdvY</p>","","","","","","","","",""
"html-keyboard-response","114","187969","0.0-10.0-0.25","5ebc0c153f8b2e04d3833423","650c16f0f2faf8d7a0d14c09","651c1cf2698d5e803271ef71","null","null","<p style=""font-size: 60px; font-family: BACS"">mZUrQJUNa</p>","","","","","","","","",""
"html-keyboard-response","115","188978","0.0-10.0-0.26","5ebc0c153f8b2e04d3833423","650c16f0f2faf8d7a0d14c09","651c1cf2698d5e803271ef71","null","null","<p style=""font-size: 60px; font-family: BACS"">BMEMAPMYm</p>","","","","","","","","",""
"html-keyboard-response","116","189988","0.0-10.0-0.27","5ebc0c153f8b2e04d3833423","650c16f0f2faf8d7a0d14c09","651c1cf2698d5e803271ef71","null","null","<p style=""font-size: 60px; font-family: BACS"">JauQNac</p>","","","","","","","","",""
"html-keyboard-response","117","191004","0.0-10.0-0.28","5ebc0c153f8b2e04d3833423","650c16f0f2faf8d7a0d14c09","651c1cf2698d5e803271ef71","null","null","<p style=""font-size: 60px; font-family: BACS"">btlckMCkm</p>","","","","","","","","",""
"html-keyboard-response","118","192018","0.0-10.0-0.29","5ebc0c153f8b2e04d3833423","650c16f0f2faf8d7a0d14c09","651c1cf2698d5e803271ef71","null","null","<p style=""font-size: 60px; font-family: BACS"">MkmEdBbM</p>","","","","","","","","",""
"html-keyboard-response","119","193029","0.0-10.0-0.30","5ebc0c153f8b2e04d3833423","650c16f0f2faf8d7a0d14c09","651c1cf2698d5e803271ef71","null","null","<p style=""font-size: 60px; font-family: BACS"">OAmAdYht</p>","","","","","","","","",""
"html-keyboard-response","120","194042","0.0-10.0-0.31","5ebc0c153f8b2e04d3833423","650c16f0f2faf8d7a0d14c09","651c1cf2698d5e803271ef71","null","null","<p style=""font-size: 60px; font-family: BACS"">dKRDtAY</p>","","","","","","","","",""
"html-keyboard-response","121","195053","0.0-10.0-0.32","5ebc0c153f8b2e04d3833423","650c16f0f2faf8d7a0d14c09","651c1cf2698d5e803271ef71","null","null","<p style=""font-size: 60px; font-family: BACS"">GQrcNac</p>","","","","","","","","",""
"html-keyboard-response","122","196058","0.0-10.0-0.33","5ebc0c153f8b2e04d3833423","650c16f0f2faf8d7a0d14c09","651c1cf2698d5e803271ef71","null","null","<p style=""font-size: 60px; font-family: BACS"">OZkbUdvY</p>","","","","","","","","",""
"html-keyboard-response","123","197069","0.0-10.0-0.34","5ebc0c153f8b2e04d3833423","650c16f0f2faf8d7a0d14c09","651c1cf2698d5e803271ef71","null","null","<p style=""font-size: 60px; font-family: BACS"">vuJZuJUNa</p>","","","","","","","","",""
"html-keyboard-response","124","198085","0.0-10.0-0.35","5ebc0c153f8b2e04d3833423","650c16f0f2faf8d7a0d14c09","651c1cf2698d5e803271ef71","null","null","<p style=""font-size: 60px; font-family: BACS"">GQrcUdvY</p>","","","","","","","","",""
"html-keyboard-response","125","199098","0.0-10.0-0.36","5ebc0c153f8b2e04d3833423","650c16f0f2faf8d7a0d14c09","651c1cf2698d5e803271ef71","null","null","<p style=""font-size: 60px; font-family: BACS"">mBbKBbM</p>","","","","","","","","",""
"html-keyboard-response","126","200115","0.0-10.0-0.37","5ebc0c153f8b2e04d3833423","650c16f0f2faf8d7a0d14c09","651c1cf2698d5e803271ef71","null","null","<p style=""font-size: 60px; font-family: BACS"">KDPAYht</p>","","","","","","","","",""
"html-keyboard-response","127","201131","0.0-10.0-0.38","5ebc0c153f8b2e04d3833423","650c16f0f2faf8d7a0d14c09","651c1cf2698d5e803271ef71","null","null","<p style=""font-size: 60px; font-family: BACS"">UrOQkYL</p>","","","","","","","","",""
"html-keyboard-response","128","202138","0.0-10.0-0.39","5ebc0c153f8b2e04d3833423","650c16f0f2faf8d7a0d14c09","651c1cf2698d5e803271ef71","null","null","<p style=""font-size: 60px; font-family: BACS"">GQrcJUNa</p>","","","","","","","","",""
"html-keyboard-response","129","203153","0.0-10.0-0.40","5ebc0c153f8b2e04d3833423","650c16f0f2faf8d7a0d14c09","651c1cf2698d5e803271ef71","null","null","<p style=""font-size: 60px; font-family: BACS"">OAmAdPMYm</p>","","","","","","","","",""
"html-keyboard-response","130","204170","0.0-10.0-0.41","5ebc0c153f8b2e04d3833423","650c16f0f2faf8d7a0d14c09","651c1cf2698d5e803271ef71","null","null","<p style=""font-size: 60px; font-family: BACS"">bvuZNac</p>","","","","","","","","",""
"html-keyboard-response","131","205174","0.0-10.0-0.42","5ebc0c153f8b2e04d3833423","650c16f0f2faf8d7a0d14c09","651c1cf2698d5e803271ef71","null","null","<p style=""font-size: 60px; font-family: BACS"">NvuGrkYL</p>","","","","","","","","",""
"html-keyboard-response","132","206189","0.0-10.0-0.43","5ebc0c153f8b2e04d3833423","650c16f0f2faf8d7a0d14c09","651c1cf2698d5e803271ef71","null","null","<p style=""font-size: 60px; font-family: BACS"">BMEMAYht</p>","","","","","","","","",""
"html-keyboard-response","133","207194","0.0-10.0-0.44","5ebc0c153f8b2e04d3833423","650c16f0f2faf8d7a0d14c09","651c1cf2698d5e803271ef71","null","null","<p style=""font-size: 60px; font-family: BACS"">btlckPMYm</p>","","","","","","","","",""
"html-keyboard-response","134","208204","0.0-10.0-0.45","5ebc0c153f8b2e04d3833423","650c16f0f2faf8d7a0d14c09","651c1cf2698d5e803271ef71","null","null","<p style=""font-size: 60px; font-family: BACS"">BMEMAtAY</p>","","","","","","","","",""
"html-keyboard-response","135","209206","0.0-10.0-0.46","5ebc0c153f8b2e04d3833423","650c16f0f2faf8d7a0d14c09","651c1cf2698d5e803271ef71","null","null","<p style=""font-size: 60px; font-family: BACS"">TCbDCPMYm</p>","","","","","","","","",""
"html-keyboard-response","136","210210","0.0-10.0-0.47","5ebc0c153f8b2e04d3833423","650c16f0f2faf8d7a0d14c09","651c1cf2698d5e803271ef71","null","null","<p style=""font-size: 60px; font-family: BACS"">JauQlLG</p>","","","","","","","","",""
"html-keyboard-response","137","211215","0.0-10.0-0.48","5ebc0c153f8b2e04d3833423","650c16f0f2faf8d7a0d14c09","651c1cf2698d5e803271ef71","null","null","<p style=""font-size: 60px; font-family: BACS"">YLQmGUdvY</p>","","","","","","","","",""
"html-keyboard-response","138","212230","0.0-10.0-0.49","5ebc0c153f8b2e04d3833423","650c16f0f2faf8d7a0d14c09","651c1cf2698d5e803271ef71","null","null","<p style=""font-size: 60px; font-family: BACS"">MkmEdYht</p>","","","","","","","","",""
"html-keyboard-response","139","213242","0.0-10.0-0.50","5ebc0c153f8b2e04d3833423","650c16f0f2faf8d7a0d14c09","651c1cf2698d5e803271ef71","null","null","<p style=""font-size: 60px; font-family: BACS"">OZkbkYL</p>","","","","","","","","",""
"html-keyboard-response","140","214258","0.0-10.0-0.51","5ebc0c153f8b2e04d3833423","650c16f0f2faf8d7a0d14c09","651c1cf2698d5e803271ef71","null","null","<p style=""font-size: 60px; font-family: BACS"">TCbDCBbM</p>","","","","","","","","",""
"html-keyboard-response","141","215273","0.0-10.0-0.52","5ebc0c153f8b2e04d3833423","650c16f0f2faf8d7a0d14c09","651c1cf2698d5e803271ef71","null","null","<p style=""font-size: 60px; font-family: BACS"">OZkblLG</p>","","","","","","","","",""
"html-keyboard-response","142","216276","0.0-10.0-0.53","5ebc0c153f8b2e04d3833423","650c16f0f2faf8d7a0d14c09","651c1cf2698d5e803271ef71","null","null","<p style=""font-size: 60px; font-family: BACS"">bvuZJUNa</p>","","","","","","","","",""
"html-keyboard-response","143","217286","0.0-10.0-0.54","5ebc0c153f8b2e04d3833423","650c16f0f2faf8d7a0d14c09","651c1cf2698d5e803271ef71","null","null","<p style=""font-size: 60px; font-family: BACS"">UrOQlLG</p>","","","","","","","","",""
"html-keyboard-response","144","218303","0.0-10.0-0.55","5ebc0c153f8b2e04d3833423","650c16f0f2faf8d7a0d14c09","651c1cf2698d5e803271ef71","null","null","<p style=""font-size: 60px; font-family: BACS"">KDPABbM</p>","","","","","","","","",""
"html-keyboard-response","145","219306","0.0-10.0-0.56","5ebc0c153f8b2e04d3833423","650c16f0f2faf8d7a0d14c09","651c1cf2698d5e803271ef71","null","null","<p style=""font-size: 60px; font-family: BACS"">OAmAdMCkm</p>","","","","","","","","",""
"html-keyboard-response","146","220310","0.0-10.0-0.57","5ebc0c153f8b2e04d3833423","650c16f0f2faf8d7a0d14c09","651c1cf2698d5e803271ef71","null","null","<p style=""font-size: 60px; font-family: BACS"">btlckBbM</p>","","","","","","","","",""
"html-keyboard-response","147","221324","0.0-10.0-0.58","5ebc0c153f8b2e04d3833423","650c16f0f2faf8d7a0d14c09","651c1cf2698d5e803271ef71","null","null","<p style=""font-size: 60px; font-family: BACS"">JauQJUNa</p>","","","","","","","","",""
"html-keyboard-response","148","222337","0.0-10.0-0.59","5ebc0c153f8b2e04d3833423","650c16f0f2faf8d7a0d14c09","651c1cf2698d5e803271ef71","null","null","<p style=""font-size: 60px; font-family: BACS"">KBKBEtAY</p>","","","","","","","","",""
"html-keyboard-response","149","223343","0.0-10.0-0.60","5ebc0c153f8b2e04d3833423","650c16f0f2faf8d7a0d14c09","651c1cf2698d5e803271ef71","null","null","<p style=""font-size: 60px; font-family: BACS"">mUOcOlLG</p>","","","","","","","","",""
"html-keyboard-response","150","224356","0.0-10.0-0.61","5ebc0c153f8b2e04d3833423","650c16f0f2faf8d7a0d14c09","651c1cf2698d5e803271ef71","null","null","<p style=""font-size: 60px; font-family: BACS"">OZkbJUNa</p>","","","","","","","","",""
"html-keyboard-response","151","225362","0.0-10.0-0.62","5ebc0c153f8b2e04d3833423","650c16f0f2faf8d7a0d14c09","651c1cf2698d5e803271ef71","null","null","<p style=""font-size: 60px; font-family: BACS"">YLQmGNac</p>","","","","","","","","",""
"html-keyboard-response","152","226378","0.0-10.0-0.63","5ebc0c153f8b2e04d3833423","650c16f0f2faf8d7a0d14c09","651c1cf2698d5e803271ef71","null","null","<p style=""font-size: 60px; font-family: BACS"">dKRDYht</p>","","","","","","","","",""
"html-keyboard-response","153","227384","0.0-10.0-0.64","5ebc0c153f8b2e04d3833423","650c16f0f2faf8d7a0d14c09","651c1cf2698d5e803271ef71","null","null","<p style=""font-size: 60px; font-family: BACS"">NvuGrNac</p>","","","","","","","","",""
"html-keyboard-response","154","228393","0.0-10.0-0.65","5ebc0c153f8b2e04d3833423","650c16f0f2faf8d7a0d14c09","651c1cf2698d5e803271ef71","null","null","<p style=""font-size: 60px; font-family: BACS"">KDPAMCkm</p>","","","","","","","","",""
"html-keyboard-response","155","229403","0.0-10.0-0.66","5ebc0c153f8b2e04d3833423","650c16f0f2faf8d7a0d14c09","651c1cf2698d5e803271ef71","null","null","<p style=""font-size: 60px; font-family: BACS"">KBKBEPMYm</p>","","","","","","","","",""
"html-keyboard-response","156","230412","0.0-10.0-0.67","5ebc0c153f8b2e04d3833423","650c16f0f2faf8d7a0d14c09","651c1cf2698d5e803271ef71","null","null","<p style=""font-size: 60px; font-family: BACS"">mBbKYht</p>","","","","","","","","",""
"html-keyboard-response","157","231422","0.0-10.0-0.68","5ebc0c153f8b2e04d3833423","650c16f0f2faf8d7a0d14c09","651c1cf2698d5e803271ef71","null","null","<p style=""font-size: 60px; font-family: BACS"">NvuGrlLG</p>","","","","","","","","",""
"html-keyboard-response","158","232432","0.0-10.0-0.69","5ebc0c153f8b2e04d3833423","650c16f0f2faf8d7a0d14c09","651c1cf2698d5e803271ef71","null","null","<p style=""font-size: 60px; font-family: BACS"">JauQUdvY</p>","","","","","","","","",""
"html-keyboard-response","159","233435","0.0-10.0-0.70","5ebc0c153f8b2e04d3833423","650c16f0f2faf8d7a0d14c09","651c1cf2698d5e803271ef71","null","null","<p style=""font-size: 60px; font-family: BACS"">UrOQJUNa</p>","","","","","","","","",""
"html-keyboard-response","160","234439","0.0-10.0-0.71","5ebc0c153f8b2e04d3833423","650c16f0f2faf8d7a0d14c09","651c1cf2698d5e803271ef71","null","null","<p style=""font-size: 60px; font-family: BACS"">GQrckYL</p>","","","","","","","","",""
"html-keyboard-response","161","235453","0.0-10.0-0.72","5ebc0c153f8b2e04d3833423","650c16f0f2faf8d7a0d14c09","651c1cf2698d5e803271ef71","null","null","<p style=""font-size: 60px; font-family: BACS"">UrOQNac</p>","","","","","","","","",""
"html-keyboard-response","162","236461","0.0-10.0-0.73","5ebc0c153f8b2e04d3833423","650c16f0f2faf8d7a0d14c09","651c1cf2698d5e803271ef71","null","null","<p style=""font-size: 60px; font-family: BACS"">MkmEdtAY</p>","","","","","","","","",""
"html-keyboard-response","163","237469","0.0-10.0-0.74","5ebc0c153f8b2e04d3833423","650c16f0f2faf8d7a0d14c09","651c1cf2698d5e803271ef71","null","null","<p style=""font-size: 60px; font-family: BACS"">YmBdYht</p>","","","","","","","","",""
"html-keyboard-response","164","238471","0.0-10.0-0.75","5ebc0c153f8b2e04d3833423","650c16f0f2faf8d7a0d14c09","651c1cf2698d5e803271ef71","null","null","<p style=""font-size: 60px; font-family: BACS"">KBKBEMCkm</p>","","","","","","","","",""
"html-keyboard-response","165","239473","0.0-10.0-0.76","5ebc0c153f8b2e04d3833423","650c16f0f2faf8d7a0d14c09","651c1cf2698d5e803271ef71","null","null","<p style=""font-size: 60px; font-family: BACS"">YLQmGkYL</p>","","","","","","","","",""
"html-keyboard-response","166","240484","0.0-10.0-0.77","5ebc0c153f8b2e04d3833423","650c16f0f2faf8d7a0d14c09","651c1cf2698d5e803271ef71","null","null","<p style=""font-size: 60px; font-family: BACS"">mUOcOUdvY</p>","","","","","","","","",""
"html-keyboard-response","167","241498","0.0-10.0-0.78","5ebc0c153f8b2e04d3833423","650c16f0f2faf8d7a0d14c09","651c1cf2698d5e803271ef71","null","null","<p style=""font-size: 60px; font-family: BACS"">TCbDCYht</p>","","","","","","","","",""
"html-keyboard-response","168","242515","0.0-10.0-0.79","5ebc0c153f8b2e04d3833423","650c16f0f2faf8d7a0d14c09","651c1cf2698d5e803271ef71","null","null","<p style=""font-size: 60px; font-family: BACS"">btlcktAY</p>","","","","","","","","",""
"html-keyboard-response","169","245264","0.0-11.0","5ebc0c153f8b2e04d3833423","650c16f0f2faf8d7a0d14c09","651c1cf2698d5e803271ef71","2748"," ","<p>Great, you've seen the second block of words. You may now take a short break.</p>
      <p>Press the spacebar when you're ready to continue.</p>","","","","","","","","",""
"html-keyboard-response","170","246278","0.0-12.0-0.0","5ebc0c153f8b2e04d3833423","650c16f0f2faf8d7a0d14c09","651c1cf2698d5e803271ef71","null","null","<p style=""font-size: 60px; font-family: BACS"">TCbDCBbM</p>","","","","","","","","",""
"html-keyboard-response","171","247285","0.0-12.0-0.1","5ebc0c153f8b2e04d3833423","650c16f0f2faf8d7a0d14c09","651c1cf2698d5e803271ef71","null","null","<p style=""font-size: 60px; font-family: BACS"">JauQUdvY</p>","","","","","","","","",""
"html-keyboard-response","172","248288","0.0-12.0-0.2","5ebc0c153f8b2e04d3833423","650c16f0f2faf8d7a0d14c09","651c1cf2698d5e803271ef71","null","null","<p style=""font-size: 60px; font-family: BACS"">MkmEdBbM</p>","","","","","","","","",""
"html-keyboard-response","173","249298","0.0-12.0-0.3","5ebc0c153f8b2e04d3833423","650c16f0f2faf8d7a0d14c09","651c1cf2698d5e803271ef71","null","null","<p style=""font-size: 60px; font-family: BACS"">KBKBEMCkm</p>","","","","","","","","",""
"html-keyboard-response","174","250314","0.0-12.0-0.4","5ebc0c153f8b2e04d3833423","650c16f0f2faf8d7a0d14c09","651c1cf2698d5e803271ef71","null","null","<p style=""font-size: 60px; font-family: BACS"">vuJZuUdvY</p>","","","","","","","","",""
"html-keyboard-response","175","251323","0.0-12.0-0.5","5ebc0c153f8b2e04d3833423","650c16f0f2faf8d7a0d14c09","651c1cf2698d5e803271ef71","null","null","<p style=""font-size: 60px; font-family: BACS"">TCbDCPMYm</p>","","","","","","","","",""
"html-keyboard-response","176","252326","0.0-12.0-0.6","5ebc0c153f8b2e04d3833423","650c16f0f2faf8d7a0d14c09","651c1cf2698d5e803271ef71","null","null","<p style=""font-size: 60px; font-family: BACS"">OZkbJUNa</p>","","","","","","","","",""
"html-keyboard-response","177","253330","0.0-12.0-0.7","5ebc0c153f8b2e04d3833423","650c16f0f2faf8d7a0d14c09","651c1cf2698d5e803271ef71","null","null","<p style=""font-size: 60px; font-family: BACS"">YmBdBbM</p>","","","","","","","","",""
"html-keyboard-response","178","254344","0.0-12.0-0.8","5ebc0c153f8b2e04d3833423","650c16f0f2faf8d7a0d14c09","651c1cf2698d5e803271ef71","null","null","<p style=""font-size: 60px; font-family: BACS"">KDPAYht</p>","","","","","","","","",""
"html-keyboard-response","179","255348","0.0-12.0-0.9","5ebc0c153f8b2e04d3833423","650c16f0f2faf8d7a0d14c09","651c1cf2698d5e803271ef71","null","null","<p style=""font-size: 60px; font-family: BACS"">dKRDBbM</p>","","","","","","","","",""
"html-keyboard-response","180","256353","0.0-12.0-0.10","5ebc0c153f8b2e04d3833423","650c16f0f2faf8d7a0d14c09","651c1cf2698d5e803271ef71","null","null","<p style=""font-size: 60px; font-family: BACS"">vuJZuJUNa</p>","","","","","","","","",""
"html-keyboard-response","181","257369","0.0-12.0-0.11","5ebc0c153f8b2e04d3833423","650c16f0f2faf8d7a0d14c09","651c1cf2698d5e803271ef71","null","null","<p style=""font-size: 60px; font-family: BACS"">btlckBbM</p>","","","","","","","","",""
"html-keyboard-response","182","258383","0.0-12.0-0.12","5ebc0c153f8b2e04d3833423","650c16f0f2faf8d7a0d14c09","651c1cf2698d5e803271ef71","null","null","<p style=""font-size: 60px; font-family: BACS"">JauQJUNa</p>","","","","","","","","",""
"html-keyboard-response","183","259399","0.0-12.0-0.13","5ebc0c153f8b2e04d3833423","650c16f0f2faf8d7a0d14c09","651c1cf2698d5e803271ef71","null","null","<p style=""font-size: 60px; font-family: BACS"">OAmAdPMYm</p>","","","","","","","","",""
"html-keyboard-response","184","260401","0.0-12.0-0.14","5ebc0c153f8b2e04d3833423","650c16f0f2faf8d7a0d14c09","651c1cf2698d5e803271ef71","null","null","<p style=""font-size: 60px; font-family: BACS"">btlckMCkm</p>","","","","","","","","",""
"html-keyboard-response","185","261404","0.0-12.0-0.15","5ebc0c153f8b2e04d3833423","650c16f0f2faf8d7a0d14c09","651c1cf2698d5e803271ef71","null","null","<p style=""font-size: 60px; font-family: BACS"">vuJZukYL</p>","","","","","","","","",""
"html-keyboard-response","186","262420","0.0-12.0-0.16","5ebc0c153f8b2e04d3833423","650c16f0f2faf8d7a0d14c09","651c1cf2698d5e803271ef71","null","null","<p style=""font-size: 60px; font-family: BACS"">mUOcOlLG</p>","","","","","","","","",""
"html-keyboard-response","187","263431","0.0-12.0-0.17","5ebc0c153f8b2e04d3833423","650c16f0f2faf8d7a0d14c09","651c1cf2698d5e803271ef71","null","null","<p style=""font-size: 60px; font-family: BACS"">BMEMAYht</p>","","","","","","","","",""
"html-keyboard-response","188","264438","0.0-12.0-0.18","5ebc0c153f8b2e04d3833423","650c16f0f2faf8d7a0d14c09","651c1cf2698d5e803271ef71","null","null","<p style=""font-size: 60px; font-family: BACS"">mZUrQkYL</p>","","","","","","","","",""
"html-keyboard-response","189","265446","0.0-12.0-0.19","5ebc0c153f8b2e04d3833423","650c16f0f2faf8d7a0d14c09","651c1cf2698d5e803271ef71","null","null","<p style=""font-size: 60px; font-family: BACS"">MkmEdYht</p>","","","","","","","","",""
"html-keyboard-response","190","266453","0.0-12.0-0.20","5ebc0c153f8b2e04d3833423","650c16f0f2faf8d7a0d14c09","651c1cf2698d5e803271ef71","null","null","<p style=""font-size: 60px; font-family: BACS"">OZkblLG</p>","","","","","","","","",""
"html-keyboard-response","191","267455","0.0-12.0-0.21","5ebc0c153f8b2e04d3833423","650c16f0f2faf8d7a0d14c09","651c1cf2698d5e803271ef71","null","null","<p style=""font-size: 60px; font-family: BACS"">btlckPMYm</p>","","","","","","","","",""
"html-keyboard-response","192","268456","0.0-12.0-0.22","5ebc0c153f8b2e04d3833423","650c16f0f2faf8d7a0d14c09","651c1cf2698d5e803271ef71","null","null","<p style=""font-size: 60px; font-family: BACS"">GQrcJUNa</p>","","","","","","","","",""
"html-keyboard-response","193","269475","0.0-12.0-0.23","5ebc0c153f8b2e04d3833423","650c16f0f2faf8d7a0d14c09","651c1cf2698d5e803271ef71","null","null","<p style=""font-size: 60px; font-family: BACS"">dKRDYht</p>","","","","","","","","",""
"html-keyboard-response","194","270489","0.0-12.0-0.24","5ebc0c153f8b2e04d3833423","650c16f0f2faf8d7a0d14c09","651c1cf2698d5e803271ef71","null","null","<p style=""font-size: 60px; font-family: BACS"">OZkbUdvY</p>","","","","","","","","",""
"html-keyboard-response","195","271504","0.0-12.0-0.25","5ebc0c153f8b2e04d3833423","650c16f0f2faf8d7a0d14c09","651c1cf2698d5e803271ef71","null","null","<p style=""font-size: 60px; font-family: BACS"">mUOcOJUNa</p>","","","","","","","","",""
"html-keyboard-response","196","272513","0.0-12.0-0.26","5ebc0c153f8b2e04d3833423","650c16f0f2faf8d7a0d14c09","651c1cf2698d5e803271ef71","null","null","<p style=""font-size: 60px; font-family: BACS"">BMEMAPMYm</p>","","","","","","","","",""
"html-keyboard-response","197","273528","0.0-12.0-0.27","5ebc0c153f8b2e04d3833423","650c16f0f2faf8d7a0d14c09","651c1cf2698d5e803271ef71","null","null","<p style=""font-size: 60px; font-family: BACS"">YmBdtAY</p>","","","","","","","","",""
"html-keyboard-response","198","274533","0.0-12.0-0.28","5ebc0c153f8b2e04d3833423","650c16f0f2faf8d7a0d14c09","651c1cf2698d5e803271ef71","null","null","<p style=""font-size: 60px; font-family: BACS"">KDPAPMYm</p>","","","","","","","","",""
"html-keyboard-response","199","275534","0.0-12.0-0.29","5ebc0c153f8b2e04d3833423","650c16f0f2faf8d7a0d14c09","651c1cf2698d5e803271ef71","null","null","<p style=""font-size: 60px; font-family: BACS"">YLQmGkYL</p>","","","","","","","","",""
"html-keyboard-response","200","276538","0.0-12.0-0.30","5ebc0c153f8b2e04d3833423","650c16f0f2faf8d7a0d14c09","651c1cf2698d5e803271ef71","null","null","<p style=""font-size: 60px; font-family: BACS"">mBbKYht</p>","","","","","","","","",""
"html-keyboard-response","201","277549","0.0-12.0-0.31","5ebc0c153f8b2e04d3833423","650c16f0f2faf8d7a0d14c09","651c1cf2698d5e803271ef71","null","null","<p style=""font-size: 60px; font-family: BACS"">dKRDtAY</p>","","","","","","","","",""
"html-keyboard-response","202","278560","0.0-12.0-0.32","5ebc0c153f8b2e04d3833423","650c16f0f2faf8d7a0d14c09","651c1cf2698d5e803271ef71","null","null","<p style=""font-size: 60px; font-family: BACS"">JauQlLG</p>","","","","","","","","",""
"html-keyboard-response","203","279572","0.0-12.0-0.33","5ebc0c153f8b2e04d3833423","650c16f0f2faf8d7a0d14c09","651c1cf2698d5e803271ef71","null","null","<p style=""font-size: 60px; font-family: BACS"">mZUrQNac</p>","","","","","","","","",""
"html-keyboard-response","204","280576","0.0-12.0-0.34","5ebc0c153f8b2e04d3833423","650c16f0f2faf8d7a0d14c09","651c1cf2698d5e803271ef71","null","null","<p style=""font-size: 60px; font-family: BACS"">vuJZulLG</p>","","","","","","","","",""
"html-keyboard-response","205","281580","0.0-12.0-0.35","5ebc0c153f8b2e04d3833423","650c16f0f2faf8d7a0d14c09","651c1cf2698d5e803271ef71","null","null","<p style=""font-size: 60px; font-family: BACS"">MkmEdMCkm</p>","","","","","","","","",""
"html-keyboard-response","206","282593","0.0-12.0-0.36","5ebc0c153f8b2e04d3833423","650c16f0f2faf8d7a0d14c09","651c1cf2698d5e803271ef71","null","null","<p style=""font-size: 60px; font-family: BACS"">YLQmGNac</p>","","","","","","","","",""
"html-keyboard-response","207","283609","0.0-12.0-0.37","5ebc0c153f8b2e04d3833423","650c16f0f2faf8d7a0d14c09","651c1cf2698d5e803271ef71","null","null","<p style=""font-size: 60px; font-family: BACS"">GQrckYL</p>","","","","","","","","",""
"html-keyboard-response","208","284622","0.0-12.0-0.38","5ebc0c153f8b2e04d3833423","650c16f0f2faf8d7a0d14c09","651c1cf2698d5e803271ef71","null","null","<p style=""font-size: 60px; font-family: BACS"">KDPAMCkm</p>","","","","","","","","",""
"html-keyboard-response","209","285633","0.0-12.0-0.39","5ebc0c153f8b2e04d3833423","650c16f0f2faf8d7a0d14c09","651c1cf2698d5e803271ef71","null","null","<p style=""font-size: 60px; font-family: BACS"">GQrcNac</p>","","","","","","","","",""
"html-keyboard-response","210","286637","0.0-12.0-0.40","5ebc0c153f8b2e04d3833423","650c16f0f2faf8d7a0d14c09","651c1cf2698d5e803271ef71","null","null","<p style=""font-size: 60px; font-family: BACS"">KBKBEBbM</p>","","","","","","","","",""
"html-keyboard-response","211","287639","0.0-12.0-0.41","5ebc0c153f8b2e04d3833423","650c16f0f2faf8d7a0d14c09","651c1cf2698d5e803271ef71","null","null","<p style=""font-size: 60px; font-family: BACS"">JauQNac</p>","","","","","","","","",""
"html-keyboard-response","212","288654","0.0-12.0-0.42","5ebc0c153f8b2e04d3833423","650c16f0f2faf8d7a0d14c09","651c1cf2698d5e803271ef71","null","null","<p style=""font-size: 60px; font-family: BACS"">YmBdYht</p>","","","","","","","","",""
"html-keyboard-response","213","289671","0.0-12.0-0.43","5ebc0c153f8b2e04d3833423","650c16f0f2faf8d7a0d14c09","651c1cf2698d5e803271ef71","null","null","<p style=""font-size: 60px; font-family: BACS"">MkmEdtAY</p>","","","","","","","","",""
"html-keyboard-response","214","290684","0.0-12.0-0.44","5ebc0c153f8b2e04d3833423","650c16f0f2faf8d7a0d14c09","651c1cf2698d5e803271ef71","null","null","<p style=""font-size: 60px; font-family: BACS"">UrOQlLG</p>","","","","","","","","",""
"html-keyboard-response","215","291688","0.0-12.0-0.45","5ebc0c153f8b2e04d3833423","650c16f0f2faf8d7a0d14c09","651c1cf2698d5e803271ef71","null","null","<p style=""font-size: 60px; font-family: BACS"">mUOcONac</p>","","","","","","","","",""
"html-keyboard-response","216","292705","0.0-12.0-0.46","5ebc0c153f8b2e04d3833423","650c16f0f2faf8d7a0d14c09","651c1cf2698d5e803271ef71","null","null","<p style=""font-size: 60px; font-family: BACS"">OAmAdtAY</p>","","","","","","","","",""
"html-keyboard-response","217","293721","0.0-12.0-0.47","5ebc0c153f8b2e04d3833423","650c16f0f2faf8d7a0d14c09","651c1cf2698d5e803271ef71","null","null","<p style=""font-size: 60px; font-family: BACS"">mUOcOUdvY</p>","","","","","","","","",""
"html-keyboard-response","218","294737","0.0-12.0-0.48","5ebc0c153f8b2e04d3833423","650c16f0f2faf8d7a0d14c09","651c1cf2698d5e803271ef71","null","null","<p style=""font-size: 60px; font-family: BACS"">KBKBEtAY</p>","","","","","","","","",""
"html-keyboard-response","219","295752","0.0-12.0-0.49","5ebc0c153f8b2e04d3833423","650c16f0f2faf8d7a0d14c09","651c1cf2698d5e803271ef71","null","null","<p style=""font-size: 60px; font-family: BACS"">NvuGrNac</p>","","","","","","","","",""
"html-keyboard-response","220","296761","0.0-12.0-0.50","5ebc0c153f8b2e04d3833423","650c16f0f2faf8d7a0d14c09","651c1cf2698d5e803271ef71","null","null","<p style=""font-size: 60px; font-family: BACS"">mZUrQJUNa</p>","","","","","","","","",""
"html-keyboard-response","221","297768","0.0-12.0-0.51","5ebc0c153f8b2e04d3833423","650c16f0f2faf8d7a0d14c09","651c1cf2698d5e803271ef71","null","null","<p style=""font-size: 60px; font-family: BACS"">mBbKPMYm</p>","","","","","","","","",""
"html-keyboard-response","222","298774","0.0-12.0-0.52","5ebc0c153f8b2e04d3833423","650c16f0f2faf8d7a0d14c09","651c1cf2698d5e803271ef71","null","null","<p style=""font-size: 60px; font-family: BACS"">OAmAdMCkm</p>","","","","","","","","",""
"html-keyboard-response","223","299780","0.0-12.0-0.53","5ebc0c153f8b2e04d3833423","650c16f0f2faf8d7a0d14c09","651c1cf2698d5e803271ef71","null","null","<p style=""font-size: 60px; font-family: BACS"">bvuZNac</p>","","","","","","","","",""
"html-keyboard-response","224","300789","0.0-12.0-0.54","5ebc0c153f8b2e04d3833423","650c16f0f2faf8d7a0d14c09","651c1cf2698d5e803271ef71","null","null","<p style=""font-size: 60px; font-family: BACS"">YLQmGUdvY</p>","","","","","","","","",""
"html-keyboard-response","225","301803","0.0-12.0-0.55","5ebc0c153f8b2e04d3833423","650c16f0f2faf8d7a0d14c09","651c1cf2698d5e803271ef71","null","null","<p style=""font-size: 60px; font-family: BACS"">TCbDCYht</p>","","","","","","","","",""
"html-keyboard-response","226","302815","0.0-12.0-0.56","5ebc0c153f8b2e04d3833423","650c16f0f2faf8d7a0d14c09","651c1cf2698d5e803271ef71","null","null","<p style=""font-size: 60px; font-family: BACS"">bvuZkYL</p>","","","","","","","","",""
"html-keyboard-response","227","303817","0.0-12.0-0.57","5ebc0c153f8b2e04d3833423","650c16f0f2faf8d7a0d14c09","651c1cf2698d5e803271ef71","null","null","<p style=""font-size: 60px; font-family: BACS"">KBKBEPMYm</p>","","","","","","","","",""
"html-keyboard-response","228","304820","0.0-12.0-0.58","5ebc0c153f8b2e04d3833423","650c16f0f2faf8d7a0d14c09","651c1cf2698d5e803271ef71","null","null","<p style=""font-size: 60px; font-family: BACS"">mBbKBbM</p>","","","","","","","","",""
"html-keyboard-response","229","305833","0.0-12.0-0.59","5ebc0c153f8b2e04d3833423","650c16f0f2faf8d7a0d14c09","651c1cf2698d5e803271ef71","null","null","<p style=""font-size: 60px; font-family: BACS"">GQrcUdvY</p>","","","","","","","","",""
"html-keyboard-response","230","306842","0.0-12.0-0.60","5ebc0c153f8b2e04d3833423","650c16f0f2faf8d7a0d14c09","651c1cf2698d5e803271ef71","null","null","<p style=""font-size: 60px; font-family: BACS"">YLQmGlLG</p>","","","","","","","","",""
"html-keyboard-response","231","307855","0.0-12.0-0.61","5ebc0c153f8b2e04d3833423","650c16f0f2faf8d7a0d14c09","651c1cf2698d5e803271ef71","null","null","<p style=""font-size: 60px; font-family: BACS"">UrOQkYL</p>","","","","","","","","",""
"html-keyboard-response","232","308873","0.0-12.0-0.62","5ebc0c153f8b2e04d3833423","650c16f0f2faf8d7a0d14c09","651c1cf2698d5e803271ef71","null","null","<p style=""font-size: 60px; font-family: BACS"">btlcktAY</p>","","","","","","","","",""
"html-keyboard-response","233","309878","0.0-12.0-0.63","5ebc0c153f8b2e04d3833423","650c16f0f2faf8d7a0d14c09","651c1cf2698d5e803271ef71","null","null","<p style=""font-size: 60px; font-family: BACS"">NvuGrUdvY</p>","","","","","","","","",""
"html-keyboard-response","234","310891","0.0-12.0-0.64","5ebc0c153f8b2e04d3833423","650c16f0f2faf8d7a0d14c09","651c1cf2698d5e803271ef71","null","null","<p style=""font-size: 60px; font-family: BACS"">OZkbkYL</p>","","","","","","","","",""
"html-keyboard-response","235","311902","0.0-12.0-0.65","5ebc0c153f8b2e04d3833423","650c16f0f2faf8d7a0d14c09","651c1cf2698d5e803271ef71","null","null","<p style=""font-size: 60px; font-family: BACS"">NvuGrlLG</p>","","","","","","","","",""
"html-keyboard-response","236","312918","0.0-12.0-0.66","5ebc0c153f8b2e04d3833423","650c16f0f2faf8d7a0d14c09","651c1cf2698d5e803271ef71","null","null","<p style=""font-size: 60px; font-family: BACS"">OAmAdYht</p>","","","","","","","","",""
"html-keyboard-response","237","313920","0.0-12.0-0.67","5ebc0c153f8b2e04d3833423","650c16f0f2faf8d7a0d14c09","651c1cf2698d5e803271ef71","null","null","<p style=""font-size: 60px; font-family: BACS"">BMEMAMCkm</p>","","","","","","","","",""
"html-keyboard-response","238","314925","0.0-12.0-0.68","5ebc0c153f8b2e04d3833423","650c16f0f2faf8d7a0d14c09","651c1cf2698d5e803271ef71","null","null","<p style=""font-size: 60px; font-family: BACS"">UrOQNac</p>","","","","","","","","",""
"html-keyboard-response","239","315933","0.0-12.0-0.69","5ebc0c153f8b2e04d3833423","650c16f0f2faf8d7a0d14c09","651c1cf2698d5e803271ef71","null","null","<p style=""font-size: 60px; font-family: BACS"">BMEMAtAY</p>","","","","","","","","",""
"html-keyboard-response","240","316948","0.0-12.0-0.70","5ebc0c153f8b2e04d3833423","650c16f0f2faf8d7a0d14c09","651c1cf2698d5e803271ef71","null","null","<p style=""font-size: 60px; font-family: BACS"">dKRDMCkm</p>","","","","","","","","",""
"html-keyboard-response","241","317951","0.0-12.0-0.71","5ebc0c153f8b2e04d3833423","650c16f0f2faf8d7a0d14c09","651c1cf2698d5e803271ef71","null","null","<p style=""font-size: 60px; font-family: BACS"">KDPABbM</p>","","","","","","","","",""
"html-keyboard-response","242","318962","0.0-12.0-0.72","5ebc0c153f8b2e04d3833423","650c16f0f2faf8d7a0d14c09","651c1cf2698d5e803271ef71","null","null","<p style=""font-size: 60px; font-family: BACS"">YmBdPMYm</p>","","","","","","","","",""
"html-keyboard-response","243","319974","0.0-12.0-0.73","5ebc0c153f8b2e04d3833423","650c16f0f2faf8d7a0d14c09","651c1cf2698d5e803271ef71","null","null","<p style=""font-size: 60px; font-family: BACS"">bvuZJUNa</p>","","","","","","","","",""
"html-keyboard-response","244","320978","0.0-12.0-0.74","5ebc0c153f8b2e04d3833423","650c16f0f2faf8d7a0d14c09","651c1cf2698d5e803271ef71","null","null","<p style=""font-size: 60px; font-family: BACS"">mBbKtAY</p>","","","","","","","","",""
"html-keyboard-response","245","321989","0.0-12.0-0.75","5ebc0c153f8b2e04d3833423","650c16f0f2faf8d7a0d14c09","651c1cf2698d5e803271ef71","null","null","<p style=""font-size: 60px; font-family: BACS"">NvuGrkYL</p>","","","","","","","","",""
"html-keyboard-response","246","322997","0.0-12.0-0.76","5ebc0c153f8b2e04d3833423","650c16f0f2faf8d7a0d14c09","651c1cf2698d5e803271ef71","null","null","<p style=""font-size: 60px; font-family: BACS"">TCbDCMCkm</p>","","","","","","","","",""
"html-keyboard-response","247","324013","0.0-12.0-0.77","5ebc0c153f8b2e04d3833423","650c16f0f2faf8d7a0d14c09","651c1cf2698d5e803271ef71","null","null","<p style=""font-size: 60px; font-family: BACS"">bvuZlLG</p>","","","","","","","","",""
"html-keyboard-response","248","325023","0.0-12.0-0.78","5ebc0c153f8b2e04d3833423","650c16f0f2faf8d7a0d14c09","651c1cf2698d5e803271ef71","null","null","<p style=""font-size: 60px; font-family: BACS"">mZUrQUdvY</p>","","","","","","","","",""
"html-keyboard-response","249","326033","0.0-12.0-0.79","5ebc0c153f8b2e04d3833423","650c16f0f2faf8d7a0d14c09","651c1cf2698d5e803271ef71","null","null","<p style=""font-size: 60px; font-family: BACS"">UrOQJUNa</p>","","","","","","","","",""
"html-keyboard-response","250","330122","0.0-13.0","5ebc0c153f8b2e04d3833423","650c16f0f2faf8d7a0d14c09","651c1cf2698d5e803271ef71","4088"," ","<p>Great, you've seen the third block of words. You may now take a short break.</p>
      <p>Press the spacebar when you're ready to continue.</p>","","","","","","","","",""
"html-keyboard-response","251","331130","0.0-14.0-0.0","5ebc0c153f8b2e04d3833423","650c16f0f2faf8d7a0d14c09","651c1cf2698d5e803271ef71","null","null","<p style=""font-size: 60px; font-family: BACS"">vuJZulLG</p>","","","","","","","","",""
"html-keyboard-response","252","332144","0.0-14.0-0.1","5ebc0c153f8b2e04d3833423","650c16f0f2faf8d7a0d14c09","651c1cf2698d5e803271ef71","null","null","<p style=""font-size: 60px; font-family: BACS"">MkmEdMCkm</p>","","","","","","","","",""
"html-keyboard-response","253","333159","0.0-14.0-0.2","5ebc0c153f8b2e04d3833423","650c16f0f2faf8d7a0d14c09","651c1cf2698d5e803271ef71","null","null","<p style=""font-size: 60px; font-family: BACS"">OZkbkYL</p>","","","","","","","","",""
"html-keyboard-response","254","334168","0.0-14.0-0.3","5ebc0c153f8b2e04d3833423","650c16f0f2faf8d7a0d14c09","651c1cf2698d5e803271ef71","null","null","<p style=""font-size: 60px; font-family: BACS"">MkmEdYht</p>","","","","","","","","",""
"html-keyboard-response","255","335184","0.0-14.0-0.4","5ebc0c153f8b2e04d3833423","650c16f0f2faf8d7a0d14c09","651c1cf2698d5e803271ef71","null","null","<p style=""font-size: 60px; font-family: BACS"">mUOcOJUNa</p>","","","","","","","","",""
"html-keyboard-response","256","336200","0.0-14.0-0.5","5ebc0c153f8b2e04d3833423","650c16f0f2faf8d7a0d14c09","651c1cf2698d5e803271ef71","null","null","<p style=""font-size: 60px; font-family: BACS"">mBbKtAY</p>","","","","","","","","",""
"html-keyboard-response","257","337206","0.0-14.0-0.6","5ebc0c153f8b2e04d3833423","650c16f0f2faf8d7a0d14c09","651c1cf2698d5e803271ef71","null","null","<p style=""font-size: 60px; font-family: BACS"">BMEMAPMYm</p>","","","","","","","","",""
"html-keyboard-response","258","338213","0.0-14.0-0.7","5ebc0c153f8b2e04d3833423","650c16f0f2faf8d7a0d14c09","651c1cf2698d5e803271ef71","null","null","<p style=""font-size: 60px; font-family: BACS"">TCbDCYht</p>","","","","","","","","",""
"html-keyboard-response","259","339215","0.0-14.0-0.8","5ebc0c153f8b2e04d3833423","650c16f0f2faf8d7a0d14c09","651c1cf2698d5e803271ef71","null","null","<p style=""font-size: 60px; font-family: BACS"">vuJZuJUNa</p>","","","","","","","","",""
"html-keyboard-response","260","340219","0.0-14.0-0.9","5ebc0c153f8b2e04d3833423","650c16f0f2faf8d7a0d14c09","651c1cf2698d5e803271ef71","null","null","<p style=""font-size: 60px; font-family: BACS"">bvuZlLG</p>","","","","","","","","",""
"html-keyboard-response","261","341233","0.0-14.0-0.10","5ebc0c153f8b2e04d3833423","650c16f0f2faf8d7a0d14c09","651c1cf2698d5e803271ef71","null","null","<p style=""font-size: 60px; font-family: BACS"">mZUrQJUNa</p>","","","","","","","","",""
"html-keyboard-response","262","342241","0.0-14.0-0.11","5ebc0c153f8b2e04d3833423","650c16f0f2faf8d7a0d14c09","651c1cf2698d5e803271ef71","null","null","<p style=""font-size: 60px; font-family: BACS"">BMEMAYht</p>","","","","","","","","",""
"html-keyboard-response","263","343250","0.0-14.0-0.12","5ebc0c153f8b2e04d3833423","650c16f0f2faf8d7a0d14c09","651c1cf2698d5e803271ef71","null","null","<p style=""font-size: 60px; font-family: BACS"">KBKBEPMYm</p>","","","","","","","","",""
"html-keyboard-response","264","344263","0.0-14.0-0.13","5ebc0c153f8b2e04d3833423","650c16f0f2faf8d7a0d14c09","651c1cf2698d5e803271ef71","null","null","<p style=""font-size: 60px; font-family: BACS"">bvuZkYL</p>","","","","","","","","",""
"html-keyboard-response","265","345264","0.0-14.0-0.14","5ebc0c153f8b2e04d3833423","650c16f0f2faf8d7a0d14c09","651c1cf2698d5e803271ef71","null","null","<p style=""font-size: 60px; font-family: BACS"">BMEMAMCkm</p>","","","","","","","","",""
"html-keyboard-response","266","346272","0.0-14.0-0.15","5ebc0c153f8b2e04d3833423","650c16f0f2faf8d7a0d14c09","651c1cf2698d5e803271ef71","null","null","<p style=""font-size: 60px; font-family: BACS"">NvuGrlLG</p>","","","","","","","","",""
"html-keyboard-response","267","347276","0.0-14.0-0.16","5ebc0c153f8b2e04d3833423","650c16f0f2faf8d7a0d14c09","651c1cf2698d5e803271ef71","null","null","<p style=""font-size: 60px; font-family: BACS"">BMEMAtAY</p>","","","","","","","","",""
"html-keyboard-response","268","348290","0.0-14.0-0.17","5ebc0c153f8b2e04d3833423","650c16f0f2faf8d7a0d14c09","651c1cf2698d5e803271ef71","null","null","<p style=""font-size: 60px; font-family: BACS"">mBbKBbM</p>","","","","","","","","",""
"html-keyboard-response","269","349301","0.0-14.0-0.18","5ebc0c153f8b2e04d3833423","650c16f0f2faf8d7a0d14c09","651c1cf2698d5e803271ef71","null","null","<p style=""font-size: 60px; font-family: BACS"">KDPAMCkm</p>","","","","","","","","",""
"html-keyboard-response","270","350310","0.0-14.0-0.19","5ebc0c153f8b2e04d3833423","650c16f0f2faf8d7a0d14c09","651c1cf2698d5e803271ef71","null","null","<p style=""font-size: 60px; font-family: BACS"">mZUrQUdvY</p>","","","","","","","","",""
"html-keyboard-response","271","351323","0.0-14.0-0.20","5ebc0c153f8b2e04d3833423","650c16f0f2faf8d7a0d14c09","651c1cf2698d5e803271ef71","null","null","<p style=""font-size: 60px; font-family: BACS"">mBbKPMYm</p>","","","","","","","","",""
"html-keyboard-response","272","352332","0.0-14.0-0.21","5ebc0c153f8b2e04d3833423","650c16f0f2faf8d7a0d14c09","651c1cf2698d5e803271ef71","null","null","<p style=""font-size: 60px; font-family: BACS"">dKRDYht</p>","","","","","","","","",""
"html-keyboard-response","273","353333","0.0-14.0-0.22","5ebc0c153f8b2e04d3833423","650c16f0f2faf8d7a0d14c09","651c1cf2698d5e803271ef71","null","null","<p style=""font-size: 60px; font-family: BACS"">mUOcONac</p>","","","","","","","","",""
"html-keyboard-response","274","354340","0.0-14.0-0.23","5ebc0c153f8b2e04d3833423","650c16f0f2faf8d7a0d14c09","651c1cf2698d5e803271ef71","null","null","<p style=""font-size: 60px; font-family: BACS"">JauQUdvY</p>","","","","","","","","",""
"html-keyboard-response","275","355345","0.0-14.0-0.24","5ebc0c153f8b2e04d3833423","650c16f0f2faf8d7a0d14c09","651c1cf2698d5e803271ef71","null","null","<p style=""font-size: 60px; font-family: BACS"">MkmEdtAY</p>","","","","","","","","",""
"html-keyboard-response","276","356362","0.0-14.0-0.25","5ebc0c153f8b2e04d3833423","650c16f0f2faf8d7a0d14c09","651c1cf2698d5e803271ef71","null","null","<p style=""font-size: 60px; font-family: BACS"">mUOcOlLG</p>","","","","","","","","",""
"html-keyboard-response","277","357367","0.0-14.0-0.26","5ebc0c153f8b2e04d3833423","650c16f0f2faf8d7a0d14c09","651c1cf2698d5e803271ef71","null","null","<p style=""font-size: 60px; font-family: BACS"">vuJZuUdvY</p>","","","","","","","","",""
"html-keyboard-response","278","358383","0.0-14.0-0.27","5ebc0c153f8b2e04d3833423","650c16f0f2faf8d7a0d14c09","651c1cf2698d5e803271ef71","null","null","<p style=""font-size: 60px; font-family: BACS"">btlcktAY</p>","","","","","","","","",""
"html-keyboard-response","279","359384","0.0-14.0-0.28","5ebc0c153f8b2e04d3833423","650c16f0f2faf8d7a0d14c09","651c1cf2698d5e803271ef71","null","null","<p style=""font-size: 60px; font-family: BACS"">TCbDCBbM</p>","","","","","","","","",""
"html-keyboard-response","280","360392","0.0-14.0-0.29","5ebc0c153f8b2e04d3833423","650c16f0f2faf8d7a0d14c09","651c1cf2698d5e803271ef71","null","null","<p style=""font-size: 60px; font-family: BACS"">KBKBEMCkm</p>","","","","","","","","",""
"html-keyboard-response","281","361408","0.0-14.0-0.30","5ebc0c153f8b2e04d3833423","650c16f0f2faf8d7a0d14c09","651c1cf2698d5e803271ef71","null","null","<p style=""font-size: 60px; font-family: BACS"">NvuGrkYL</p>","","","","","","","","",""
"html-keyboard-response","282","362413","0.0-14.0-0.31","5ebc0c153f8b2e04d3833423","650c16f0f2faf8d7a0d14c09","651c1cf2698d5e803271ef71","null","null","<p style=""font-size: 60px; font-family: BACS"">YmBdPMYm</p>","","","","","","","","",""
"html-keyboard-response","283","363418","0.0-14.0-0.32","5ebc0c153f8b2e04d3833423","650c16f0f2faf8d7a0d14c09","651c1cf2698d5e803271ef71","null","null","<p style=""font-size: 60px; font-family: BACS"">dKRDtAY</p>","","","","","","","","",""
"html-keyboard-response","284","364433","0.0-14.0-0.33","5ebc0c153f8b2e04d3833423","650c16f0f2faf8d7a0d14c09","651c1cf2698d5e803271ef71","null","null","<p style=""font-size: 60px; font-family: BACS"">btlckBbM</p>","","","","","","","","",""
"html-keyboard-response","285","365450","0.0-14.0-0.34","5ebc0c153f8b2e04d3833423","650c16f0f2faf8d7a0d14c09","651c1cf2698d5e803271ef71","null","null","<p style=""font-size: 60px; font-family: BACS"">UrOQJUNa</p>","","","","","","","","",""
"html-keyboard-response","286","366460","0.0-14.0-0.35","5ebc0c153f8b2e04d3833423","650c16f0f2faf8d7a0d14c09","651c1cf2698d5e803271ef71","null","null","<p style=""font-size: 60px; font-family: BACS"">YLQmGkYL</p>","","","","","","","","",""
"html-keyboard-response","287","367475","0.0-14.0-0.36","5ebc0c153f8b2e04d3833423","650c16f0f2faf8d7a0d14c09","651c1cf2698d5e803271ef71","null","null","<p style=""font-size: 60px; font-family: BACS"">JauQNac</p>","","","","","","","","",""
"html-keyboard-response","288","368480","0.0-14.0-0.37","5ebc0c153f8b2e04d3833423","650c16f0f2faf8d7a0d14c09","651c1cf2698d5e803271ef71","null","null","<p style=""font-size: 60px; font-family: BACS"">dKRDBbM</p>","","","","","","","","",""
"html-keyboard-response","289","369487","0.0-14.0-0.38","5ebc0c153f8b2e04d3833423","650c16f0f2faf8d7a0d14c09","651c1cf2698d5e803271ef71","null","null","<p style=""font-size: 60px; font-family: BACS"">KBKBEtAY</p>","","","","","","","","",""
"html-keyboard-response","290","370498","0.0-14.0-0.39","5ebc0c153f8b2e04d3833423","650c16f0f2faf8d7a0d14c09","651c1cf2698d5e803271ef71","null","null","<p style=""font-size: 60px; font-family: BACS"">OAmAdPMYm</p>","","","","","","","","",""
"html-keyboard-response","291","371507","0.0-14.0-0.40","5ebc0c153f8b2e04d3833423","650c16f0f2faf8d7a0d14c09","651c1cf2698d5e803271ef71","null","null","<p style=""font-size: 60px; font-family: BACS"">GQrcNac</p>","","","","","","","","",""
"html-keyboard-response","292","372515","0.0-14.0-0.41","5ebc0c153f8b2e04d3833423","650c16f0f2faf8d7a0d14c09","651c1cf2698d5e803271ef71","null","null","<p style=""font-size: 60px; font-family: BACS"">JauQlLG</p>","","","","","","","","",""
"html-keyboard-response","293","373523","0.0-14.0-0.42","5ebc0c153f8b2e04d3833423","650c16f0f2faf8d7a0d14c09","651c1cf2698d5e803271ef71","null","null","<p style=""font-size: 60px; font-family: BACS"">OAmAdYht</p>","","","","","","","","",""
"html-keyboard-response","294","374529","0.0-14.0-0.43","5ebc0c153f8b2e04d3833423","650c16f0f2faf8d7a0d14c09","651c1cf2698d5e803271ef71","null","null","<p style=""font-size: 60px; font-family: BACS"">JauQJUNa</p>","","","","","","","","",""
"html-keyboard-response","295","375536","0.0-14.0-0.44","5ebc0c153f8b2e04d3833423","650c16f0f2faf8d7a0d14c09","651c1cf2698d5e803271ef71","null","null","<p style=""font-size: 60px; font-family: BACS"">KDPAPMYm</p>","","","","","","","","",""
"html-keyboard-response","296","376549","0.0-14.0-0.45","5ebc0c153f8b2e04d3833423","650c16f0f2faf8d7a0d14c09","651c1cf2698d5e803271ef71","null","null","<p style=""font-size: 60px; font-family: BACS"">YmBdYht</p>","","","","","","","","",""
"html-keyboard-response","297","377564","0.0-14.0-0.46","5ebc0c153f8b2e04d3833423","650c16f0f2faf8d7a0d14c09","651c1cf2698d5e803271ef71","null","null","<p style=""font-size: 60px; font-family: BACS"">NvuGrUdvY</p>","","","","","","","","",""
"html-keyboard-response","298","378579","0.0-14.0-0.47","5ebc0c153f8b2e04d3833423","650c16f0f2faf8d7a0d14c09","651c1cf2698d5e803271ef71","null","null","<p style=""font-size: 60px; font-family: BACS"">mZUrQNac</p>","","","","","","","","",""
"html-keyboard-response","299","379582","0.0-14.0-0.48","5ebc0c153f8b2e04d3833423","650c16f0f2faf8d7a0d14c09","651c1cf2698d5e803271ef71","null","null","<p style=""font-size: 60px; font-family: BACS"">UrOQlLG</p>","","","","","","","","",""
"html-keyboard-response","300","380597","0.0-14.0-0.49","5ebc0c153f8b2e04d3833423","650c16f0f2faf8d7a0d14c09","651c1cf2698d5e803271ef71","null","null","<p style=""font-size: 60px; font-family: BACS"">GQrcUdvY</p>","","","","","","","","",""
"html-keyboard-response","301","381602","0.0-14.0-0.50","5ebc0c153f8b2e04d3833423","650c16f0f2faf8d7a0d14c09","651c1cf2698d5e803271ef71","null","null","<p style=""font-size: 60px; font-family: BACS"">vuJZukYL</p>","","","","","","","","",""
"html-keyboard-response","302","382606","0.0-14.0-0.51","5ebc0c153f8b2e04d3833423","650c16f0f2faf8d7a0d14c09","651c1cf2698d5e803271ef71","null","null","<p style=""font-size: 60px; font-family: BACS"">btlckPMYm</p>","","","","","","","","",""
"html-keyboard-response","303","383619","0.0-14.0-0.52","5ebc0c153f8b2e04d3833423","650c16f0f2faf8d7a0d14c09","651c1cf2698d5e803271ef71","null","null","<p style=""font-size: 60px; font-family: BACS"">mUOcOUdvY</p>","","","","","","","","",""
"html-keyboard-response","304","384627","0.0-14.0-0.53","5ebc0c153f8b2e04d3833423","650c16f0f2faf8d7a0d14c09","651c1cf2698d5e803271ef71","null","null","<p style=""font-size: 60px; font-family: BACS"">bvuZNac</p>","","","","","","","","",""
"html-keyboard-response","305","385633","0.0-14.0-0.54","5ebc0c153f8b2e04d3833423","650c16f0f2faf8d7a0d14c09","651c1cf2698d5e803271ef71","null","null","<p style=""font-size: 60px; font-family: BACS"">GQrcJUNa</p>","","","","","","","","",""
"html-keyboard-response","306","386643","0.0-14.0-0.55","5ebc0c153f8b2e04d3833423","650c16f0f2faf8d7a0d14c09","651c1cf2698d5e803271ef71","null","null","<p style=""font-size: 60px; font-family: BACS"">OZkbUdvY</p>","","","","","","","","",""
"html-keyboard-response","307","387650","0.0-14.0-0.56","5ebc0c153f8b2e04d3833423","650c16f0f2faf8d7a0d14c09","651c1cf2698d5e803271ef71","null","null","<p style=""font-size: 60px; font-family: BACS"">bvuZJUNa</p>","","","","","","","","",""
"html-keyboard-response","308","388660","0.0-14.0-0.57","5ebc0c153f8b2e04d3833423","650c16f0f2faf8d7a0d14c09","651c1cf2698d5e803271ef71","null","null","<p style=""font-size: 60px; font-family: BACS"">YmBdtAY</p>","","","","","","","","",""
"html-keyboard-response","309","389666","0.0-14.0-0.58","5ebc0c153f8b2e04d3833423","650c16f0f2faf8d7a0d14c09","651c1cf2698d5e803271ef71","null","null","<p style=""font-size: 60px; font-family: BACS"">TCbDCPMYm</p>","","","","","","","","",""
"html-keyboard-response","310","390670","0.0-14.0-0.59","5ebc0c153f8b2e04d3833423","650c16f0f2faf8d7a0d14c09","651c1cf2698d5e803271ef71","null","null","<p style=""font-size: 60px; font-family: BACS"">OZkbJUNa</p>","","","","","","","","",""
"html-keyboard-response","311","391673","0.0-14.0-0.60","5ebc0c153f8b2e04d3833423","650c16f0f2faf8d7a0d14c09","651c1cf2698d5e803271ef71","null","null","<p style=""font-size: 60px; font-family: BACS"">dKRDMCkm</p>","","","","","","","","",""
"html-keyboard-response","312","392689","0.0-14.0-0.61","5ebc0c153f8b2e04d3833423","650c16f0f2faf8d7a0d14c09","651c1cf2698d5e803271ef71","null","null","<p style=""font-size: 60px; font-family: BACS"">KDPAYht</p>","","","","","","","","",""
"html-keyboard-response","313","393697","0.0-14.0-0.62","5ebc0c153f8b2e04d3833423","650c16f0f2faf8d7a0d14c09","651c1cf2698d5e803271ef71","null","null","<p style=""font-size: 60px; font-family: BACS"">YLQmGUdvY</p>","","","","","","","","",""
"html-keyboard-response","314","394710","0.0-14.0-0.63","5ebc0c153f8b2e04d3833423","650c16f0f2faf8d7a0d14c09","651c1cf2698d5e803271ef71","null","null","<p style=""font-size: 60px; font-family: BACS"">KBKBEBbM</p>","","","","","","","","",""
"html-keyboard-response","315","395726","0.0-14.0-0.64","5ebc0c153f8b2e04d3833423","650c16f0f2faf8d7a0d14c09","651c1cf2698d5e803271ef71","null","null","<p style=""font-size: 60px; font-family: BACS"">mZUrQkYL</p>","","","","","","","","",""
"html-keyboard-response","316","396729","0.0-14.0-0.65","5ebc0c153f8b2e04d3833423","650c16f0f2faf8d7a0d14c09","651c1cf2698d5e803271ef71","null","null","<p style=""font-size: 60px; font-family: BACS"">YLQmGNac</p>","","","","","","","","",""
"html-keyboard-response","317","397744","0.0-14.0-0.66","5ebc0c153f8b2e04d3833423","650c16f0f2faf8d7a0d14c09","651c1cf2698d5e803271ef71","null","null","<p style=""font-size: 60px; font-family: BACS"">TCbDCMCkm</p>","","","","","","","","",""
"html-keyboard-response","318","398759","0.0-14.0-0.67","5ebc0c153f8b2e04d3833423","650c16f0f2faf8d7a0d14c09","651c1cf2698d5e803271ef71","null","null","<p style=""font-size: 60px; font-family: BACS"">GQrckYL</p>","","","","","","","","",""
"html-keyboard-response","319","399765","0.0-14.0-0.68","5ebc0c153f8b2e04d3833423","650c16f0f2faf8d7a0d14c09","651c1cf2698d5e803271ef71","null","null","<p style=""font-size: 60px; font-family: BACS"">NvuGrNac</p>","","","","","","","","",""
"html-keyboard-response","320","400781","0.0-14.0-0.69","5ebc0c153f8b2e04d3833423","650c16f0f2faf8d7a0d14c09","651c1cf2698d5e803271ef71","null","null","<p style=""font-size: 60px; font-family: BACS"">btlckMCkm</p>","","","","","","","","",""
"html-keyboard-response","321","401782","0.0-14.0-0.70","5ebc0c153f8b2e04d3833423","650c16f0f2faf8d7a0d14c09","651c1cf2698d5e803271ef71","null","null","<p style=""font-size: 60px; font-family: BACS"">MkmEdBbM</p>","","","","","","","","",""
"html-keyboard-response","322","402791","0.0-14.0-0.71","5ebc0c153f8b2e04d3833423","650c16f0f2faf8d7a0d14c09","651c1cf2698d5e803271ef71","null","null","<p style=""font-size: 60px; font-family: BACS"">OAmAdMCkm</p>","","","","","","","","",""
"html-keyboard-response","323","403793","0.0-14.0-0.72","5ebc0c153f8b2e04d3833423","650c16f0f2faf8d7a0d14c09","651c1cf2698d5e803271ef71","null","null","<p style=""font-size: 60px; font-family: BACS"">OZkblLG</p>","","","","","","","","",""
"html-keyboard-response","324","404796","0.0-14.0-0.73","5ebc0c153f8b2e04d3833423","650c16f0f2faf8d7a0d14c09","651c1cf2698d5e803271ef71","null","null","<p style=""font-size: 60px; font-family: BACS"">UrOQNac</p>","","","","","","","","",""
"html-keyboard-response","325","405810","0.0-14.0-0.74","5ebc0c153f8b2e04d3833423","650c16f0f2faf8d7a0d14c09","651c1cf2698d5e803271ef71","null","null","<p style=""font-size: 60px; font-family: BACS"">mBbKYht</p>","","","","","","","","",""
"html-keyboard-response","326","406819","0.0-14.0-0.75","5ebc0c153f8b2e04d3833423","650c16f0f2faf8d7a0d14c09","651c1cf2698d5e803271ef71","null","null","<p style=""font-size: 60px; font-family: BACS"">YmBdBbM</p>","","","","","","","","",""
"html-keyboard-response","327","407829","0.0-14.0-0.76","5ebc0c153f8b2e04d3833423","650c16f0f2faf8d7a0d14c09","651c1cf2698d5e803271ef71","null","null","<p style=""font-size: 60px; font-family: BACS"">OAmAdtAY</p>","","","","","","","","",""
"html-keyboard-response","328","408842","0.0-14.0-0.77","5ebc0c153f8b2e04d3833423","650c16f0f2faf8d7a0d14c09","651c1cf2698d5e803271ef71","null","null","<p style=""font-size: 60px; font-family: BACS"">KDPABbM</p>","","","","","","","","",""
"html-keyboard-response","329","409845","0.0-14.0-0.78","5ebc0c153f8b2e04d3833423","650c16f0f2faf8d7a0d14c09","651c1cf2698d5e803271ef71","null","null","<p style=""font-size: 60px; font-family: BACS"">YLQmGlLG</p>","","","","","","","","",""
"html-keyboard-response","330","410848","0.0-14.0-0.79","5ebc0c153f8b2e04d3833423","650c16f0f2faf8d7a0d14c09","651c1cf2698d5e803271ef71","null","null","<p style=""font-size: 60px; font-family: BACS"">UrOQkYL</p>","","","","","","","","",""
"html-keyboard-response","331","414364","0.0-15.0","5ebc0c153f8b2e04d3833423","650c16f0f2faf8d7a0d14c09","651c1cf2698d5e803271ef71","3516"," ","<p>Great, you've seen the fourth block of words. You may now take a short break.</p>
      <p>Press the spacebar when you're ready to continue.</p>","","","","","","","","",""
"html-keyboard-response","332","415366","0.0-16.0-0.0","5ebc0c153f8b2e04d3833423","650c16f0f2faf8d7a0d14c09","651c1cf2698d5e803271ef71","null","null","<p style=""font-size: 60px; font-family: BACS"">TCbDCBbM</p>","","","","","","","","",""
"html-keyboard-response","333","416372","0.0-16.0-0.1","5ebc0c153f8b2e04d3833423","650c16f0f2faf8d7a0d14c09","651c1cf2698d5e803271ef71","null","null","<p style=""font-size: 60px; font-family: BACS"">TCbDCBbM</p>","","","","","","","","",""
"html-keyboard-response","334","417389","0.0-16.0-0.2","5ebc0c153f8b2e04d3833423","650c16f0f2faf8d7a0d14c09","651c1cf2698d5e803271ef71","null","null","<p style=""font-size: 60px; font-family: BACS"">TCbDCBbM</p>","","","","","","","","",""
"html-keyboard-response","335","418394","0.0-16.0-0.3","5ebc0c153f8b2e04d3833423","650c16f0f2faf8d7a0d14c09","651c1cf2698d5e803271ef71","null","null","<p style=""font-size: 60px; font-family: BACS"">TCbDCBbM</p>","","","","","","","","",""
"html-keyboard-response","336","419397","0.0-16.0-0.4","5ebc0c153f8b2e04d3833423","650c16f0f2faf8d7a0d14c09","651c1cf2698d5e803271ef71","null","null","<p style=""font-size: 60px; font-family: BACS"">TCbDCBbM</p>","","","","","","","","",""
"html-keyboard-response","337","420413","0.0-16.0-0.5","5ebc0c153f8b2e04d3833423","650c16f0f2faf8d7a0d14c09","651c1cf2698d5e803271ef71","null","null","<p style=""font-size: 60px; font-family: BACS"">TCbDCBbM</p>","","","","","","","","",""
"html-keyboard-response","338","421417","0.0-16.0-0.6","5ebc0c153f8b2e04d3833423","650c16f0f2faf8d7a0d14c09","651c1cf2698d5e803271ef71","null","null","<p style=""font-size: 60px; font-family: BACS"">TCbDCBbM</p>","","","","","","","","",""
"html-keyboard-response","339","422424","0.0-16.0-0.7","5ebc0c153f8b2e04d3833423","650c16f0f2faf8d7a0d14c09","651c1cf2698d5e803271ef71","null","null","<p style=""font-size: 60px; font-family: BACS"">TCbDCBbM</p>","","","","","","","","",""
"html-keyboard-response","340","423440","0.0-16.0-0.8","5ebc0c153f8b2e04d3833423","650c16f0f2faf8d7a0d14c09","651c1cf2698d5e803271ef71","null","null","<p style=""font-size: 60px; font-family: BACS"">TCbDCBbM</p>","","","","","","","","",""
"html-keyboard-response","341","424442","0.0-16.0-0.9","5ebc0c153f8b2e04d3833423","650c16f0f2faf8d7a0d14c09","651c1cf2698d5e803271ef71","null","null","<p style=""font-size: 60px; font-family: BACS"">TCbDCBbM</p>","","","","","","","","",""
"html-keyboard-response","342","425458","0.0-16.0-0.10","5ebc0c153f8b2e04d3833423","650c16f0f2faf8d7a0d14c09","651c1cf2698d5e803271ef71","null","null","<p style=""font-size: 60px; font-family: BACS"">TCbDCBbM</p>","","","","","","","","",""
"html-keyboard-response","343","426467","0.0-16.0-0.11","5ebc0c153f8b2e04d3833423","650c16f0f2faf8d7a0d14c09","651c1cf2698d5e803271ef71","null","null","<p style=""font-size: 60px; font-family: BACS"">TCbDCBbM</p>","","","","","","","","",""
"html-keyboard-response","344","427482","0.0-16.0-0.12","5ebc0c153f8b2e04d3833423","650c16f0f2faf8d7a0d14c09","651c1cf2698d5e803271ef71","null","null","<p style=""font-size: 60px; font-family: BACS"">TCbDCBbM</p>","","","","","","","","",""
"html-keyboard-response","345","428494","0.0-16.0-0.13","5ebc0c153f8b2e04d3833423","650c16f0f2faf8d7a0d14c09","651c1cf2698d5e803271ef71","null","null","<p style=""font-size: 60px; font-family: BACS"">TCbDCBbM</p>","","","","","","","","",""
"html-keyboard-response","346","429507","0.0-16.0-0.14","5ebc0c153f8b2e04d3833423","650c16f0f2faf8d7a0d14c09","651c1cf2698d5e803271ef71","null","null","<p style=""font-size: 60px; font-family: BACS"">TCbDCBbM</p>","","","","","","","","",""
"html-keyboard-response","347","430522","0.0-16.0-0.15","5ebc0c153f8b2e04d3833423","650c16f0f2faf8d7a0d14c09","651c1cf2698d5e803271ef71","null","null","<p style=""font-size: 60px; font-family: BACS"">TCbDCBbM</p>","","","","","","","","",""
"html-keyboard-response","348","431525","0.0-16.0-0.16","5ebc0c153f8b2e04d3833423","650c16f0f2faf8d7a0d14c09","651c1cf2698d5e803271ef71","null","null","<p style=""font-size: 60px; font-family: BACS"">TCbDCBbM</p>","","","","","","","","",""
"html-keyboard-response","349","432529","0.0-16.0-0.17","5ebc0c153f8b2e04d3833423","650c16f0f2faf8d7a0d14c09","651c1cf2698d5e803271ef71","null","null","<p style=""font-size: 60px; font-family: BACS"">TCbDCBbM</p>","","","","","","","","",""
"html-keyboard-response","350","433543","0.0-16.0-0.18","5ebc0c153f8b2e04d3833423","650c16f0f2faf8d7a0d14c09","651c1cf2698d5e803271ef71","null","null","<p style=""font-size: 60px; font-family: BACS"">TCbDCBbM</p>","","","","","","","","",""
"html-keyboard-response","351","434545","0.0-16.0-0.19","5ebc0c153f8b2e04d3833423","650c16f0f2faf8d7a0d14c09","651c1cf2698d5e803271ef71","null","null","<p style=""font-size: 60px; font-family: BACS"">TCbDCBbM</p>","","","","","","","","",""
"html-keyboard-response","352","435560","0.0-16.0-0.20","5ebc0c153f8b2e04d3833423","650c16f0f2faf8d7a0d14c09","651c1cf2698d5e803271ef71","null","null","<p style=""font-size: 60px; font-family: BACS"">TCbDCBbM</p>","","","","","","","","",""
"html-keyboard-response","353","436569","0.0-16.0-0.21","5ebc0c153f8b2e04d3833423","650c16f0f2faf8d7a0d14c09","651c1cf2698d5e803271ef71","null","null","<p style=""font-size: 60px; font-family: BACS"">TCbDCBbM</p>","","","","","","","","",""
"html-keyboard-response","354","437579","0.0-16.0-0.22","5ebc0c153f8b2e04d3833423","650c16f0f2faf8d7a0d14c09","651c1cf2698d5e803271ef71","null","null","<p style=""font-size: 60px; font-family: BACS"">TCbDCBbM</p>","","","","","","","","",""
"html-keyboard-response","355","438581","0.0-16.0-0.23","5ebc0c153f8b2e04d3833423","650c16f0f2faf8d7a0d14c09","651c1cf2698d5e803271ef71","null","null","<p style=""font-size: 60px; font-family: BACS"">TCbDCBbM</p>","","","","","","","","",""
"html-keyboard-response","356","439585","0.0-16.0-0.24","5ebc0c153f8b2e04d3833423","650c16f0f2faf8d7a0d14c09","651c1cf2698d5e803271ef71","null","null","<p style=""font-size: 60px; font-family: BACS"">TCbDCBbM</p>","","","","","","","","",""
"html-keyboard-response","357","440594","0.0-16.0-0.25","5ebc0c153f8b2e04d3833423","650c16f0f2faf8d7a0d14c09","651c1cf2698d5e803271ef71","null","null","<p style=""font-size: 60px; font-family: BACS"">TCbDCBbM</p>","","","","","","","","",""
"html-keyboard-response","358","441596","0.0-16.0-0.26","5ebc0c153f8b2e04d3833423","650c16f0f2faf8d7a0d14c09","651c1cf2698d5e803271ef71","null","null","<p style=""font-size: 60px; font-family: BACS"">TCbDCBbM</p>","","","","","","","","",""
"html-keyboard-response","359","442610","0.0-16.0-0.27","5ebc0c153f8b2e04d3833423","650c16f0f2faf8d7a0d14c09","651c1cf2698d5e803271ef71","null","null","<p style=""font-size: 60px; font-family: BACS"">TCbDCBbM</p>","","","","","","","","",""
"html-keyboard-response","360","443624","0.0-16.0-0.28","5ebc0c153f8b2e04d3833423","650c16f0f2faf8d7a0d14c09","651c1cf2698d5e803271ef71","null","null","<p style=""font-size: 60px; font-family: BACS"">TCbDCBbM</p>","","","","","","","","",""
"html-keyboard-response","361","444626","0.0-16.0-0.29","5ebc0c153f8b2e04d3833423","650c16f0f2faf8d7a0d14c09","651c1cf2698d5e803271ef71","null","null","<p style=""font-size: 60px; font-family: BACS"">TCbDCBbM</p>","","","","","","","","",""
"html-keyboard-response","362","445628","0.0-16.0-0.30","5ebc0c153f8b2e04d3833423","650c16f0f2faf8d7a0d14c09","651c1cf2698d5e803271ef71","null","null","<p style=""font-size: 60px; font-family: BACS"">TCbDCBbM</p>","","","","","","","","",""
"html-keyboard-response","363","446629","0.0-16.0-0.31","5ebc0c153f8b2e04d3833423","650c16f0f2faf8d7a0d14c09","651c1cf2698d5e803271ef71","null","null","<p style=""font-size: 60px; font-family: BACS"">TCbDCBbM</p>","","","","","","","","",""
"html-keyboard-response","364","447646","0.0-16.0-0.32","5ebc0c153f8b2e04d3833423","650c16f0f2faf8d7a0d14c09","651c1cf2698d5e803271ef71","null","null","<p style=""font-size: 60px; font-family: BACS"">TCbDCBbM</p>","","","","","","","","",""
"html-keyboard-response","365","448663","0.0-16.0-0.33","5ebc0c153f8b2e04d3833423","650c16f0f2faf8d7a0d14c09","651c1cf2698d5e803271ef71","null","null","<p style=""font-size: 60px; font-family: BACS"">TCbDCBbM</p>","","","","","","","","",""
"html-keyboard-response","366","449670","0.0-16.0-0.34","5ebc0c153f8b2e04d3833423","650c16f0f2faf8d7a0d14c09","651c1cf2698d5e803271ef71","null","null","<p style=""font-size: 60px; font-family: BACS"">TCbDCBbM</p>","","","","","","","","",""
"html-keyboard-response","367","450671","0.0-16.0-0.35","5ebc0c153f8b2e04d3833423","650c16f0f2faf8d7a0d14c09","651c1cf2698d5e803271ef71","null","null","<p style=""font-size: 60px; font-family: BACS"">TCbDCBbM</p>","","","","","","","","",""
"html-keyboard-response","368","451677","0.0-16.0-0.36","5ebc0c153f8b2e04d3833423","650c16f0f2faf8d7a0d14c09","651c1cf2698d5e803271ef71","null","null","<p style=""font-size: 60px; font-family: BACS"">TCbDCBbM</p>","","","","","","","","",""
"html-keyboard-response","369","452679","0.0-16.0-0.37","5ebc0c153f8b2e04d3833423","650c16f0f2faf8d7a0d14c09","651c1cf2698d5e803271ef71","null","null","<p style=""font-size: 60px; font-family: BACS"">TCbDCBbM</p>","","","","","","","","",""
"html-keyboard-response","370","453686","0.0-16.0-0.38","5ebc0c153f8b2e04d3833423","650c16f0f2faf8d7a0d14c09","651c1cf2698d5e803271ef71","null","null","<p style=""font-size: 60px; font-family: BACS"">TCbDCBbM</p>","","","","","","","","",""
"html-keyboard-response","371","454696","0.0-16.0-0.39","5ebc0c153f8b2e04d3833423","650c16f0f2faf8d7a0d14c09","651c1cf2698d5e803271ef71","null","null","<p style=""font-size: 60px; font-family: BACS"">TCbDCBbM</p>","","","","","","","","",""
"html-keyboard-response","372","455704","0.0-16.0-0.40","5ebc0c153f8b2e04d3833423","650c16f0f2faf8d7a0d14c09","651c1cf2698d5e803271ef71","null","null","<p style=""font-size: 60px; font-family: BACS"">TCbDCBbM</p>","","","","","","","","",""
"html-keyboard-response","373","456706","0.0-16.0-0.41","5ebc0c153f8b2e04d3833423","650c16f0f2faf8d7a0d14c09","651c1cf2698d5e803271ef71","null","null","<p style=""font-size: 60px; font-family: BACS"">TCbDCBbM</p>","","","","","","","","",""
"html-keyboard-response","374","457707","0.0-16.0-0.42","5ebc0c153f8b2e04d3833423","650c16f0f2faf8d7a0d14c09","651c1cf2698d5e803271ef71","null","null","<p style=""font-size: 60px; font-family: BACS"">TCbDCBbM</p>","","","","","","","","",""
"html-keyboard-response","375","458710","0.0-16.0-0.43","5ebc0c153f8b2e04d3833423","650c16f0f2faf8d7a0d14c09","651c1cf2698d5e803271ef71","null","null","<p style=""font-size: 60px; font-family: BACS"">TCbDCBbM</p>","","","","","","","","",""
"html-keyboard-response","376","459725","0.0-16.0-0.44","5ebc0c153f8b2e04d3833423","650c16f0f2faf8d7a0d14c09","651c1cf2698d5e803271ef71","null","null","<p style=""font-size: 60px; font-family: BACS"">TCbDCBbM</p>","","","","","","","","",""
"html-keyboard-response","377","460742","0.0-16.0-0.45","5ebc0c153f8b2e04d3833423","650c16f0f2faf8d7a0d14c09","651c1cf2698d5e803271ef71","null","null","<p style=""font-size: 60px; font-family: BACS"">TCbDCBbM</p>","","","","","","","","",""
"html-keyboard-response","378","461744","0.0-16.0-0.46","5ebc0c153f8b2e04d3833423","650c16f0f2faf8d7a0d14c09","651c1cf2698d5e803271ef71","null","null","<p style=""font-size: 60px; font-family: BACS"">TCbDCBbM</p>","","","","","","","","",""
"html-keyboard-response","379","462746","0.0-16.0-0.47","5ebc0c153f8b2e04d3833423","650c16f0f2faf8d7a0d14c09","651c1cf2698d5e803271ef71","null","null","<p style=""font-size: 60px; font-family: BACS"">TCbDCBbM</p>","","","","","","","","",""
"html-keyboard-response","380","463763","0.0-16.0-0.48","5ebc0c153f8b2e04d3833423","650c16f0f2faf8d7a0d14c09","651c1cf2698d5e803271ef71","null","null","<p style=""font-size: 60px; font-family: BACS"">TCbDCBbM</p>","","","","","","","","",""
"html-keyboard-response","381","464774","0.0-16.0-0.49","5ebc0c153f8b2e04d3833423","650c16f0f2faf8d7a0d14c09","651c1cf2698d5e803271ef71","null","null","<p style=""font-size: 60px; font-family: BACS"">TCbDCBbM</p>","","","","","","","","",""
"html-keyboard-response","382","465780","0.0-16.0-0.50","5ebc0c153f8b2e04d3833423","650c16f0f2faf8d7a0d14c09","651c1cf2698d5e803271ef71","null","null","<p style=""font-size: 60px; font-family: BACS"">TCbDCBbM</p>","","","","","","","","",""
"html-keyboard-response","383","466795","0.0-16.0-0.51","5ebc0c153f8b2e04d3833423","650c16f0f2faf8d7a0d14c09","651c1cf2698d5e803271ef71","null","null","<p style=""font-size: 60px; font-family: BACS"">TCbDCBbM</p>","","","","","","","","",""
"html-keyboard-response","384","467800","0.0-16.0-0.52","5ebc0c153f8b2e04d3833423","650c16f0f2faf8d7a0d14c09","651c1cf2698d5e803271ef71","null","null","<p style=""font-size: 60px; font-family: BACS"">TCbDCBbM</p>","","","","","","","","",""
"html-keyboard-response","385","468811","0.0-16.0-0.53","5ebc0c153f8b2e04d3833423","650c16f0f2faf8d7a0d14c09","651c1cf2698d5e803271ef71","null","null","<p style=""font-size: 60px; font-family: BACS"">TCbDCBbM</p>","","","","","","","","",""
"html-keyboard-response","386","469818","0.0-16.0-0.54","5ebc0c153f8b2e04d3833423","650c16f0f2faf8d7a0d14c09","651c1cf2698d5e803271ef71","null","null","<p style=""font-size: 60px; font-family: BACS"">TCbDCBbM</p>","","","","","","","","",""
"html-keyboard-response","387","470824","0.0-16.0-0.55","5ebc0c153f8b2e04d3833423","650c16f0f2faf8d7a0d14c09","651c1cf2698d5e803271ef71","null","null","<p style=""font-size: 60px; font-family: BACS"">TCbDCBbM</p>","","","","","","","","",""
"html-keyboard-response","388","471826","0.0-16.0-0.56","5ebc0c153f8b2e04d3833423","650c16f0f2faf8d7a0d14c09","651c1cf2698d5e803271ef71","null","null","<p style=""font-size: 60px; font-family: BACS"">TCbDCBbM</p>","","","","","","","","",""
"html-keyboard-response","389","472843","0.0-16.0-0.57","5ebc0c153f8b2e04d3833423","650c16f0f2faf8d7a0d14c09","651c1cf2698d5e803271ef71","null","null","<p style=""font-size: 60px; font-family: BACS"">TCbDCBbM</p>","","","","","","","","",""
"html-keyboard-response","390","473858","0.0-16.0-0.58","5ebc0c153f8b2e04d3833423","650c16f0f2faf8d7a0d14c09","651c1cf2698d5e803271ef71","null","null","<p style=""font-size: 60px; font-family: BACS"">TCbDCBbM</p>","","","","","","","","",""
"html-keyboard-response","391","474863","0.0-16.0-0.59","5ebc0c153f8b2e04d3833423","650c16f0f2faf8d7a0d14c09","651c1cf2698d5e803271ef71","null","null","<p style=""font-size: 60px; font-family: BACS"">TCbDCBbM</p>","","","","","","","","",""
"html-keyboard-response","392","475870","0.0-16.0-0.60","5ebc0c153f8b2e04d3833423","650c16f0f2faf8d7a0d14c09","651c1cf2698d5e803271ef71","null","null","<p style=""font-size: 60px; font-family: BACS"">TCbDCBbM</p>","","","","","","","","",""
"html-keyboard-response","393","476878","0.0-16.0-0.61","5ebc0c153f8b2e04d3833423","650c16f0f2faf8d7a0d14c09","651c1cf2698d5e803271ef71","null","null","<p style=""font-size: 60px; font-family: BACS"">TCbDCBbM</p>","","","","","","","","",""
"html-keyboard-response","394","477894","0.0-16.0-0.62","5ebc0c153f8b2e04d3833423","650c16f0f2faf8d7a0d14c09","651c1cf2698d5e803271ef71","null","null","<p style=""font-size: 60px; font-family: BACS"">TCbDCBbM</p>","","","","","","","","",""
"html-keyboard-response","395","478895","0.0-16.0-0.63","5ebc0c153f8b2e04d3833423","650c16f0f2faf8d7a0d14c09","651c1cf2698d5e803271ef71","null","null","<p style=""font-size: 60px; font-family: BACS"">TCbDCBbM</p>","","","","","","","","",""
"html-keyboard-response","396","479911","0.0-16.0-0.64","5ebc0c153f8b2e04d3833423","650c16f0f2faf8d7a0d14c09","651c1cf2698d5e803271ef71","null","null","<p style=""font-size: 60px; font-family: BACS"">TCbDCBbM</p>","","","","","","","","",""
"html-keyboard-response","397","480928","0.0-16.0-0.65","5ebc0c153f8b2e04d3833423","650c16f0f2faf8d7a0d14c09","651c1cf2698d5e803271ef71","null","null","<p style=""font-size: 60px; font-family: BACS"">TCbDCBbM</p>","","","","","","","","",""
"html-keyboard-response","398","481939","0.0-16.0-0.66","5ebc0c153f8b2e04d3833423","650c16f0f2faf8d7a0d14c09","651c1cf2698d5e803271ef71","null","null","<p style=""font-size: 60px; font-family: BACS"">TCbDCBbM</p>","","","","","","","","",""
"html-keyboard-response","399","482956","0.0-16.0-0.67","5ebc0c153f8b2e04d3833423","650c16f0f2faf8d7a0d14c09","651c1cf2698d5e803271ef71","null","null","<p style=""font-size: 60px; font-family: BACS"">TCbDCBbM</p>","","","","","","","","",""
"html-keyboard-response","400","483963","0.0-16.0-0.68","5ebc0c153f8b2e04d3833423","650c16f0f2faf8d7a0d14c09","651c1cf2698d5e803271ef71","null","null","<p style=""font-size: 60px; font-family: BACS"">TCbDCBbM</p>","","","","","","","","",""
