"trial_type","trial_index","time_elapsed","internal_node_id","subject_id","study_id","session_id","rt","response","stimulus","success","item","task","correct_response","testing_condition","correct","target","confound","name"
"pavlovia","0","711","0.0-0.0","6065d7d47409810344f7e6bb","650c16f0f2faf8d7a0d14c09","651c1e90c58ed94d241a0786","","","","","","","","","","","",""
"survey-html-form","1","6781","0.0-1.0","6065d7d47409810344f7e6bb","650c16f0f2faf8d7a0d14c09","651c1e90c58ed94d241a0786","6066","{""ID"":""6065d7d47409810344f7e6bb""}","","","","","","","","","",""
"html-keyboard-response","2","14947","0.0-2.0","6065d7d47409810344f7e6bb","650c16f0f2faf8d7a0d14c09","651c1e90c58ed94d241a0786","8163"," ","<p style=""font-size: 15px;"">Before beginning, we ask that you read the consent information and confirm your agreement to participate in the experiment.</p>
      <p style=""font-size: 15px;""> We ask that you remember that this is a research project and that your participation is entirely voluntary. You can stop your participation at any time, without needing to provide any explanation. The study we're asking you to participate in aims at examining how readers process written words. You will be engaged in a session of apprximately 20 minutes, followed by a brief questionnaire. You will have the opportunity to take a few breaks during the experiment. You will be paid £4 for your participation, corresponding to a rate of £8/hour. While this experiment looks at cognitive faculties, this experiment doesn't constitute clinical proof of eventual pathologies.</p>
      <p style=""font-size: 15px;"">All of the information collected thanks to yours and others' participation will be held in a secure password-protected server, and will not be shared with anyone not authorised to view it. Your personal information will be kept with an arbitrary participant ID. Thanks to this data anonymity process, any researcher analysing the data won't be able to track the information back to a specific participant. Therefore, this process will make identifying you impossibile, even when results from the study will be published in scientific reviews, presented at congresses, or at any other public forum. More generally, the collected data will be treated in accordance with the laws on privacy and conformity to the Legislative Degree n. 196 ""Code regarding the protection of personal data"" of the 30th of June 2003 and to the European Regulation 2016/670 (General Data Protection Regulation - GDPR). The Data Protection Officer is Avv. Valentina Carollo, who can be contacted at the following email addresses: <a href=""mailto:dpo@sissa.it"">dpo@sissa.it</a> or <a href=""mailto:rpd@sissa.it"">rpd@sissa.it</a> - PEC: <a href=""mailto:protocollo@pec.sissa.it"">protocollo@pec.sissa.it</a>.</p>
      <p style=""font-size: 15px;""> Before expressing your consent to participate, we would like to remind you again that in case you need explanations on any aspect of the experimental procedure, the researcher is at your disposition (<a href=""mailto:aliebelt@sissa.it"">aliebelt@sissa.it</a>, <a href=""mailto:davide.crepaldi@sissa.it"">davide.crepaldi@sissa.it</a>).</p>
      <p style=""font-size: 15px;"">If you would like to download the informed consent form, you can do so here: <a href=""BASL-Informed_Consent.pdf"" download>informed consent form</a>.</p>
      <p style=""font-size: 15px;"">We ask that you press the spacebar to proceed to the consent section.</p>","","","","","","","","",""
"survey-html-form","3","32364","0.0-3.0","6065d7d47409810344f7e6bb","650c16f0f2faf8d7a0d14c09","651c1e90c58ed94d241a0786","17415","{""consent1"":""YES"",""consent2"":""YES"",""consent3"":""YES"",""consent4"":""YES"",""consent5"":""YES"",""consent6"":""YES""}","","","","","","","","","",""
"fullscreen","4","37445","0.0-4.0","6065d7d47409810344f7e6bb","650c16f0f2faf8d7a0d14c09","651c1e90c58ed94d241a0786","","","","true","","","","","","","",""
"html-keyboard-response","5","59914","0.0-5.0","6065d7d47409810344f7e6bb","650c16f0f2faf8d7a0d14c09","651c1e90c58ed94d241a0786","22467"," ","<p>Welcome, and thank you very much for your time!</p>
      <p>In this experiment, you'll be a language expert who's been asked to take a look at words that Earth has received in its first communication with aliens. Your task, in this first part of the experiment, is to pay close attention to the words you'll be shown; later, world leaders will ask you questions on what you saw. The words will be shown to you quite quickly; it seems that the aliens were in a hurry :-)</p>
      <p>Press the spacebar to continue.<p>","","","","","","","","",""
"html-keyboard-response","6","59977","0.0-6.0","6065d7d47409810344f7e6bb","650c16f0f2faf8d7a0d14c09","651c1e90c58ed94d241a0786","null","null","<p style=""font-size: 120px; font-family: BACS""> </p>","","","","","","","","",""
"html-keyboard-response","7","69095","0.0-7.0","6065d7d47409810344f7e6bb","650c16f0f2faf8d7a0d14c09","651c1e90c58ed94d241a0786","9117"," ","<p>Here is an example of the words you'll see:</p>
      <img src='esempio.png' height='400px'>
      <p>When you're ready to begin, press the spacebar.</p></div>","","","","","","","","",""
"html-keyboard-response","8","70104","0.0-8.0-0.0","6065d7d47409810344f7e6bb","650c16f0f2faf8d7a0d14c09","651c1e90c58ed94d241a0786","null","null","<p style=""font-size: 60px; font-family: BACS"">UvOGaQr</p>","","","","","","","","",""
"html-keyboard-response","9","71113","0.0-8.0-0.1","6065d7d47409810344f7e6bb","650c16f0f2faf8d7a0d14c09","651c1e90c58ed94d241a0786","null","null","<p style=""font-size: 60px; font-family: BACS"">QOLmurAm</p>","","","","","","","","",""
"html-keyboard-response","10","72133","0.0-8.0-0.2","6065d7d47409810344f7e6bb","650c16f0f2faf8d7a0d14c09","651c1e90c58ed94d241a0786","null","null","<p style=""font-size: 60px; font-family: BACS"">ctktbAMO</p>","","","","","","","","",""
"html-keyboard-response","11","73135","0.0-8.0-0.3","6065d7d47409810344f7e6bb","650c16f0f2faf8d7a0d14c09","651c1e90c58ed94d241a0786","null","null","<p style=""font-size: 60px; font-family: BACS"">BOCRMkPM</p>","","","","","","","","",""
"html-keyboard-response","12","74139","0.0-8.0-0.4","6065d7d47409810344f7e6bb","650c16f0f2faf8d7a0d14c09","651c1e90c58ed94d241a0786","null","null","<p style=""font-size: 60px; font-family: BACS"">OAmAdkKE</p>","","","","","","","","",""
"html-keyboard-response","13","75144","0.0-8.0-0.5","6065d7d47409810344f7e6bb","650c16f0f2faf8d7a0d14c09","651c1e90c58ed94d241a0786","null","null","<p style=""font-size: 60px; font-family: BACS"">mcOJlvk</p>","","","","","","","","",""
"html-keyboard-response","14","76150","0.0-8.0-0.6","6065d7d47409810344f7e6bb","650c16f0f2faf8d7a0d14c09","651c1e90c58ed94d241a0786","null","null","<p style=""font-size: 60px; font-family: BACS"">dMYBPkPM</p>","","","","","","","","",""
"html-keyboard-response","15","77152","0.0-8.0-0.7","6065d7d47409810344f7e6bb","650c16f0f2faf8d7a0d14c09","651c1e90c58ed94d241a0786","null","null","<p style=""font-size: 60px; font-family: BACS"">EMYKCkbd</p>","","","","","","","","",""
"html-keyboard-response","16","78160","0.0-8.0-0.8","6065d7d47409810344f7e6bb","650c16f0f2faf8d7a0d14c09","651c1e90c58ed94d241a0786","null","null","<p style=""font-size: 60px; font-family: BACS"">NbacAlLG</p>","","","","","","","","",""
"html-keyboard-response","17","79166","0.0-8.0-0.9","6065d7d47409810344f7e6bb","650c16f0f2faf8d7a0d14c09","651c1e90c58ed94d241a0786","null","null","<p style=""font-size: 60px; font-family: BACS"">YcdOmvG</p>","","","","","","","","",""
"html-keyboard-response","18","80184","0.0-8.0-0.10","6065d7d47409810344f7e6bb","650c16f0f2faf8d7a0d14c09","651c1e90c58ed94d241a0786","null","null","<p style=""font-size: 60px; font-family: BACS"">alJYrAm</p>","","","","","","","","",""
"html-keyboard-response","19","81199","0.0-8.0-0.11","6065d7d47409810344f7e6bb","650c16f0f2faf8d7a0d14c09","651c1e90c58ed94d241a0786","null","null","<p style=""font-size: 60px; font-family: BACS"">KdARkPM</p>","","","","","","","","",""
"html-keyboard-response","20","82205","0.0-8.0-0.12","6065d7d47409810344f7e6bb","650c16f0f2faf8d7a0d14c09","651c1e90c58ed94d241a0786","null","null","<p style=""font-size: 60px; font-family: BACS"">mcOJaQr</p>","","","","","","","","",""
"html-keyboard-response","21","83212","0.0-8.0-0.13","6065d7d47409810344f7e6bb","650c16f0f2faf8d7a0d14c09","651c1e90c58ed94d241a0786","null","null","<p style=""font-size: 60px; font-family: BACS"">UvOGlLG</p>","","","","","","","","",""
"html-keyboard-response","22","84220","0.0-8.0-0.14","6065d7d47409810344f7e6bb","650c16f0f2faf8d7a0d14c09","651c1e90c58ed94d241a0786","null","null","<p style=""font-size: 60px; font-family: BACS"">UAcduaQr</p>","","","","","","","","",""
"html-keyboard-response","23","85225","0.0-8.0-0.15","6065d7d47409810344f7e6bb","650c16f0f2faf8d7a0d14c09","651c1e90c58ed94d241a0786","null","null","<p style=""font-size: 60px; font-family: BACS"">mBYlCkbd</p>","","","","","","","","",""
"html-keyboard-response","24","86235","0.0-8.0-0.16","6065d7d47409810344f7e6bb","650c16f0f2faf8d7a0d14c09","651c1e90c58ed94d241a0786","null","null","<p style=""font-size: 60px; font-family: BACS"">uQuZclLG</p>","","","","","","","","",""
"html-keyboard-response","25","87237","0.0-8.0-0.17","6065d7d47409810344f7e6bb","650c16f0f2faf8d7a0d14c09","651c1e90c58ed94d241a0786","null","null","<p style=""font-size: 60px; font-family: BACS"">BOCRMbTE</p>","","","","","","","","",""
"html-keyboard-response","26","88250","0.0-8.0-0.18","6065d7d47409810344f7e6bb","650c16f0f2faf8d7a0d14c09","651c1e90c58ed94d241a0786","null","null","<p style=""font-size: 60px; font-family: BACS"">bRABtCkbd</p>","","","","","","","","",""
"html-keyboard-response","27","89254","0.0-8.0-0.19","6065d7d47409810344f7e6bb","650c16f0f2faf8d7a0d14c09","651c1e90c58ed94d241a0786","null","null","<p style=""font-size: 60px; font-family: BACS"">QOLmulvk</p>","","","","","","","","",""
"html-keyboard-response","28","90262","0.0-8.0-0.20","6065d7d47409810344f7e6bb","650c16f0f2faf8d7a0d14c09","651c1e90c58ed94d241a0786","null","null","<p style=""font-size: 60px; font-family: BACS"">uQuZcrAm</p>","","","","","","","","",""
"html-keyboard-response","29","91270","0.0-8.0-0.21","6065d7d47409810344f7e6bb","650c16f0f2faf8d7a0d14c09","651c1e90c58ed94d241a0786","null","null","<p style=""font-size: 60px; font-family: BACS"">mBYlkPM</p>","","","","","","","","",""
"html-keyboard-response","30","92290","0.0-8.0-0.22","6065d7d47409810344f7e6bb","650c16f0f2faf8d7a0d14c09","651c1e90c58ed94d241a0786","null","null","<p style=""font-size: 60px; font-family: BACS"">UvOGmvG</p>","","","","","","","","",""
"html-keyboard-response","31","93296","0.0-8.0-0.23","6065d7d47409810344f7e6bb","650c16f0f2faf8d7a0d14c09","651c1e90c58ed94d241a0786","null","null","<p style=""font-size: 60px; font-family: BACS"">ctktbTE</p>","","","","","","","","",""
"html-keyboard-response","32","94299","0.0-8.0-0.24","6065d7d47409810344f7e6bb","650c16f0f2faf8d7a0d14c09","651c1e90c58ed94d241a0786","null","null","<p style=""font-size: 60px; font-family: BACS"">mBYlbAMO</p>","","","","","","","","",""
"html-keyboard-response","33","95301","0.0-8.0-0.25","6065d7d47409810344f7e6bb","650c16f0f2faf8d7a0d14c09","651c1e90c58ed94d241a0786","null","null","<p style=""font-size: 60px; font-family: BACS"">UAcdulLG</p>","","","","","","","","",""
"html-keyboard-response","34","96305","0.0-8.0-0.26","6065d7d47409810344f7e6bb","650c16f0f2faf8d7a0d14c09","651c1e90c58ed94d241a0786","null","null","<p style=""font-size: 60px; font-family: BACS"">QOLmumvG</p>","","","","","","","","",""
"html-keyboard-response","35","97314","0.0-8.0-0.27","6065d7d47409810344f7e6bb","650c16f0f2faf8d7a0d14c09","651c1e90c58ed94d241a0786","null","null","<p style=""font-size: 60px; font-family: BACS"">mcOJrAm</p>","","","","","","","","",""
"html-keyboard-response","36","98327","0.0-8.0-0.28","6065d7d47409810344f7e6bb","650c16f0f2faf8d7a0d14c09","651c1e90c58ed94d241a0786","null","null","<p style=""font-size: 60px; font-family: BACS"">YuaNdmvG</p>","","","","","","","","",""
"html-keyboard-response","37","99333","0.0-8.0-0.29","6065d7d47409810344f7e6bb","650c16f0f2faf8d7a0d14c09","651c1e90c58ed94d241a0786","null","null","<p style=""font-size: 60px; font-family: BACS"">KdARbAMO</p>","","","","","","","","",""
"html-keyboard-response","38","100337","0.0-8.0-0.30","6065d7d47409810344f7e6bb","650c16f0f2faf8d7a0d14c09","651c1e90c58ed94d241a0786","null","null","<p style=""font-size: 60px; font-family: BACS"">YuaNdlLG</p>","","","","","","","","",""
"html-keyboard-response","39","101347","0.0-8.0-0.31","6065d7d47409810344f7e6bb","650c16f0f2faf8d7a0d14c09","651c1e90c58ed94d241a0786","null","null","<p style=""font-size: 60px; font-family: BACS"">PEkhACkbd</p>","","","","","","","","",""
"html-keyboard-response","40","102367","0.0-8.0-0.32","6065d7d47409810344f7e6bb","650c16f0f2faf8d7a0d14c09","651c1e90c58ed94d241a0786","null","null","<p style=""font-size: 60px; font-family: BACS"">NbacArAm</p>","","","","","","","","",""
"html-keyboard-response","41","103373","0.0-8.0-0.33","6065d7d47409810344f7e6bb","650c16f0f2faf8d7a0d14c09","651c1e90c58ed94d241a0786","null","null","<p style=""font-size: 60px; font-family: BACS"">kbmZOlLG</p>","","","","","","","","",""
"html-keyboard-response","42","104384","0.0-8.0-0.34","6065d7d47409810344f7e6bb","650c16f0f2faf8d7a0d14c09","651c1e90c58ed94d241a0786","null","null","<p style=""font-size: 60px; font-family: BACS"">YuaNdaQr</p>","","","","","","","","",""
"html-keyboard-response","43","105399","0.0-8.0-0.35","6065d7d47409810344f7e6bb","650c16f0f2faf8d7a0d14c09","651c1e90c58ed94d241a0786","null","null","<p style=""font-size: 60px; font-family: BACS"">uQuZclvk</p>","","","","","","","","",""
"html-keyboard-response","44","106414","0.0-8.0-0.36","6065d7d47409810344f7e6bb","650c16f0f2faf8d7a0d14c09","651c1e90c58ed94d241a0786","null","null","<p style=""font-size: 60px; font-family: BACS"">mcOJmvG</p>","","","","","","","","",""
"html-keyboard-response","45","107426","0.0-8.0-0.37","6065d7d47409810344f7e6bb","650c16f0f2faf8d7a0d14c09","651c1e90c58ed94d241a0786","null","null","<p style=""font-size: 60px; font-family: BACS"">EMYKkKE</p>","","","","","","","","",""
"html-keyboard-response","46","108434","0.0-8.0-0.38","6065d7d47409810344f7e6bb","650c16f0f2faf8d7a0d14c09","651c1e90c58ed94d241a0786","null","null","<p style=""font-size: 60px; font-family: BACS"">NbacAaQr</p>","","","","","","","","",""
"html-keyboard-response","47","109436","0.0-8.0-0.39","6065d7d47409810344f7e6bb","650c16f0f2faf8d7a0d14c09","651c1e90c58ed94d241a0786","null","null","<p style=""font-size: 60px; font-family: BACS"">UvOGlvk</p>","","","","","","","","",""
"html-keyboard-response","48","110448","0.0-8.0-0.40","6065d7d47409810344f7e6bb","650c16f0f2faf8d7a0d14c09","651c1e90c58ed94d241a0786","null","null","<p style=""font-size: 60px; font-family: BACS"">KdARCkbd</p>","","","","","","","","",""
"html-keyboard-response","49","111463","0.0-8.0-0.41","6065d7d47409810344f7e6bb","650c16f0f2faf8d7a0d14c09","651c1e90c58ed94d241a0786","null","null","<p style=""font-size: 60px; font-family: BACS"">NbacAlvk</p>","","","","","","","","",""
"html-keyboard-response","50","112469","0.0-8.0-0.42","6065d7d47409810344f7e6bb","650c16f0f2faf8d7a0d14c09","651c1e90c58ed94d241a0786","null","null","<p style=""font-size: 60px; font-family: BACS"">dMYBPkKE</p>","","","","","","","","",""
"html-keyboard-response","51","113471","0.0-8.0-0.43","6065d7d47409810344f7e6bb","650c16f0f2faf8d7a0d14c09","651c1e90c58ed94d241a0786","null","null","<p style=""font-size: 60px; font-family: BACS"">OAmAdbAMO</p>","","","","","","","","",""
"html-keyboard-response","52","114485","0.0-8.0-0.44","6065d7d47409810344f7e6bb","650c16f0f2faf8d7a0d14c09","651c1e90c58ed94d241a0786","null","null","<p style=""font-size: 60px; font-family: BACS"">kbmZOrAm</p>","","","","","","","","",""
"html-keyboard-response","53","115491","0.0-8.0-0.45","6065d7d47409810344f7e6bb","650c16f0f2faf8d7a0d14c09","651c1e90c58ed94d241a0786","null","null","<p style=""font-size: 60px; font-family: BACS"">mBYlkKE</p>","","","","","","","","",""
"html-keyboard-response","54","116501","0.0-8.0-0.46","6065d7d47409810344f7e6bb","650c16f0f2faf8d7a0d14c09","651c1e90c58ed94d241a0786","null","null","<p style=""font-size: 60px; font-family: BACS"">UAcdurAm</p>","","","","","","","","",""
"html-keyboard-response","55","117513","0.0-8.0-0.47","6065d7d47409810344f7e6bb","650c16f0f2faf8d7a0d14c09","651c1e90c58ed94d241a0786","null","null","<p style=""font-size: 60px; font-family: BACS"">OAmAdCkbd</p>","","","","","","","","",""
"html-keyboard-response","56","118524","0.0-8.0-0.48","6065d7d47409810344f7e6bb","650c16f0f2faf8d7a0d14c09","651c1e90c58ed94d241a0786","null","null","<p style=""font-size: 60px; font-family: BACS"">EMYKbTE</p>","","","","","","","","",""
"html-keyboard-response","57","119534","0.0-8.0-0.49","6065d7d47409810344f7e6bb","650c16f0f2faf8d7a0d14c09","651c1e90c58ed94d241a0786","null","null","<p style=""font-size: 60px; font-family: BACS"">kbmZOmvG</p>","","","","","","","","",""
"html-keyboard-response","58","120545","0.0-8.0-0.50","6065d7d47409810344f7e6bb","650c16f0f2faf8d7a0d14c09","651c1e90c58ed94d241a0786","null","null","<p style=""font-size: 60px; font-family: BACS"">BOCRMCkbd</p>","","","","","","","","",""
"html-keyboard-response","59","121559","0.0-8.0-0.51","6065d7d47409810344f7e6bb","650c16f0f2faf8d7a0d14c09","651c1e90c58ed94d241a0786","null","null","<p style=""font-size: 60px; font-family: BACS"">OAmAdkPM</p>","","","","","","","","",""
"html-keyboard-response","60","122568","0.0-8.0-0.52","6065d7d47409810344f7e6bb","650c16f0f2faf8d7a0d14c09","651c1e90c58ed94d241a0786","null","null","<p style=""font-size: 60px; font-family: BACS"">BKDRYbAMO</p>","","","","","","","","",""
"html-keyboard-response","61","123577","0.0-8.0-0.53","6065d7d47409810344f7e6bb","650c16f0f2faf8d7a0d14c09","651c1e90c58ed94d241a0786","null","null","<p style=""font-size: 60px; font-family: BACS"">alJYaQr</p>","","","","","","","","",""
"html-keyboard-response","62","124579","0.0-8.0-0.54","6065d7d47409810344f7e6bb","650c16f0f2faf8d7a0d14c09","651c1e90c58ed94d241a0786","null","null","<p style=""font-size: 60px; font-family: BACS"">bRABtbTE</p>","","","","","","","","",""
"html-keyboard-response","63","125591","0.0-8.0-0.55","6065d7d47409810344f7e6bb","650c16f0f2faf8d7a0d14c09","651c1e90c58ed94d241a0786","null","null","<p style=""font-size: 60px; font-family: BACS"">BKDRYkKE</p>","","","","","","","","",""
"html-keyboard-response","64","126595","0.0-8.0-0.56","6065d7d47409810344f7e6bb","650c16f0f2faf8d7a0d14c09","651c1e90c58ed94d241a0786","null","null","<p style=""font-size: 60px; font-family: BACS"">dMYBPbAMO</p>","","","","","","","","",""
"html-keyboard-response","65","127606","0.0-8.0-0.57","6065d7d47409810344f7e6bb","650c16f0f2faf8d7a0d14c09","651c1e90c58ed94d241a0786","null","null","<p style=""font-size: 60px; font-family: BACS"">alJYlLG</p>","","","","","","","","",""
"html-keyboard-response","66","128610","0.0-8.0-0.58","6065d7d47409810344f7e6bb","650c16f0f2faf8d7a0d14c09","651c1e90c58ed94d241a0786","null","null","<p style=""font-size: 60px; font-family: BACS"">YuaNdrAm</p>","","","","","","","","",""
"html-keyboard-response","67","129625","0.0-8.0-0.59","6065d7d47409810344f7e6bb","650c16f0f2faf8d7a0d14c09","651c1e90c58ed94d241a0786","null","null","<p style=""font-size: 60px; font-family: BACS"">PEkhAkKE</p>","","","","","","","","",""
"html-keyboard-response","68","130640","0.0-8.0-0.60","6065d7d47409810344f7e6bb","650c16f0f2faf8d7a0d14c09","651c1e90c58ed94d241a0786","null","null","<p style=""font-size: 60px; font-family: BACS"">YcdOaQr</p>","","","","","","","","",""
"html-keyboard-response","69","131646","0.0-8.0-0.61","6065d7d47409810344f7e6bb","650c16f0f2faf8d7a0d14c09","651c1e90c58ed94d241a0786","null","null","<p style=""font-size: 60px; font-family: BACS"">bRABtkPM</p>","","","","","","","","",""
"html-keyboard-response","70","132662","0.0-8.0-0.62","6065d7d47409810344f7e6bb","650c16f0f2faf8d7a0d14c09","651c1e90c58ed94d241a0786","null","null","<p style=""font-size: 60px; font-family: BACS"">EMYKbAMO</p>","","","","","","","","",""
"html-keyboard-response","71","133674","0.0-8.0-0.63","6065d7d47409810344f7e6bb","650c16f0f2faf8d7a0d14c09","651c1e90c58ed94d241a0786","null","null","<p style=""font-size: 60px; font-family: BACS"">UAcdulvk</p>","","","","","","","","",""
"html-keyboard-response","72","134683","0.0-8.0-0.64","6065d7d47409810344f7e6bb","650c16f0f2faf8d7a0d14c09","651c1e90c58ed94d241a0786","null","null","<p style=""font-size: 60px; font-family: BACS"">PEkhAkPM</p>","","","","","","","","",""
"html-keyboard-response","73","135689","0.0-8.0-0.65","6065d7d47409810344f7e6bb","650c16f0f2faf8d7a0d14c09","651c1e90c58ed94d241a0786","null","null","<p style=""font-size: 60px; font-family: BACS"">uQuZcmvG</p>","","","","","","","","",""
"html-keyboard-response","74","136708","0.0-8.0-0.66","6065d7d47409810344f7e6bb","650c16f0f2faf8d7a0d14c09","651c1e90c58ed94d241a0786","null","null","<p style=""font-size: 60px; font-family: BACS"">kbmZOlvk</p>","","","","","","","","",""
"html-keyboard-response","75","137711","0.0-8.0-0.67","6065d7d47409810344f7e6bb","650c16f0f2faf8d7a0d14c09","651c1e90c58ed94d241a0786","null","null","<p style=""font-size: 60px; font-family: BACS"">YcdOlLG</p>","","","","","","","","",""
"html-keyboard-response","76","138718","0.0-8.0-0.68","6065d7d47409810344f7e6bb","650c16f0f2faf8d7a0d14c09","651c1e90c58ed94d241a0786","null","null","<p style=""font-size: 60px; font-family: BACS"">bRABtkKE</p>","","","","","","","","",""
"html-keyboard-response","77","139723","0.0-8.0-0.69","6065d7d47409810344f7e6bb","650c16f0f2faf8d7a0d14c09","651c1e90c58ed94d241a0786","null","null","<p style=""font-size: 60px; font-family: BACS"">PEkhAbTE</p>","","","","","","","","",""
"html-keyboard-response","78","140725","0.0-8.0-0.70","6065d7d47409810344f7e6bb","650c16f0f2faf8d7a0d14c09","651c1e90c58ed94d241a0786","null","null","<p style=""font-size: 60px; font-family: BACS"">ctktCkbd</p>","","","","","","","","",""
"html-keyboard-response","79","141729","0.0-8.0-0.71","6065d7d47409810344f7e6bb","650c16f0f2faf8d7a0d14c09","651c1e90c58ed94d241a0786","null","null","<p style=""font-size: 60px; font-family: BACS"">BKDRYkPM</p>","","","","","","","","",""
"html-keyboard-response","80","142742","0.0-8.0-0.72","6065d7d47409810344f7e6bb","650c16f0f2faf8d7a0d14c09","651c1e90c58ed94d241a0786","null","null","<p style=""font-size: 60px; font-family: BACS"">alJYmvG</p>","","","","","","","","",""
"html-keyboard-response","81","143744","0.0-8.0-0.73","6065d7d47409810344f7e6bb","650c16f0f2faf8d7a0d14c09","651c1e90c58ed94d241a0786","null","null","<p style=""font-size: 60px; font-family: BACS"">BKDRYbTE</p>","","","","","","","","",""
"html-keyboard-response","82","144758","0.0-8.0-0.74","6065d7d47409810344f7e6bb","650c16f0f2faf8d7a0d14c09","651c1e90c58ed94d241a0786","null","null","<p style=""font-size: 60px; font-family: BACS"">YcdOlvk</p>","","","","","","","","",""
"html-keyboard-response","83","145773","0.0-8.0-0.75","6065d7d47409810344f7e6bb","650c16f0f2faf8d7a0d14c09","651c1e90c58ed94d241a0786","null","null","<p style=""font-size: 60px; font-family: BACS"">KdARbTE</p>","","","","","","","","",""
"html-keyboard-response","84","146787","0.0-8.0-0.76","6065d7d47409810344f7e6bb","650c16f0f2faf8d7a0d14c09","651c1e90c58ed94d241a0786","null","null","<p style=""font-size: 60px; font-family: BACS"">ctktkKE</p>","","","","","","","","",""
"html-keyboard-response","85","147801","0.0-8.0-0.77","6065d7d47409810344f7e6bb","650c16f0f2faf8d7a0d14c09","651c1e90c58ed94d241a0786","null","null","<p style=""font-size: 60px; font-family: BACS"">BOCRMbAMO</p>","","","","","","","","",""
"html-keyboard-response","86","148806","0.0-8.0-0.78","6065d7d47409810344f7e6bb","650c16f0f2faf8d7a0d14c09","651c1e90c58ed94d241a0786","null","null","<p style=""font-size: 60px; font-family: BACS"">QOLmuaQr</p>","","","","","","","","",""
"html-keyboard-response","87","149820","0.0-8.0-0.79","6065d7d47409810344f7e6bb","650c16f0f2faf8d7a0d14c09","651c1e90c58ed94d241a0786","null","null","<p style=""font-size: 60px; font-family: BACS"">dMYBPbTE</p>","","","","","","","","",""
"html-keyboard-response","88","154089","0.0-9.0","6065d7d47409810344f7e6bb","650c16f0f2faf8d7a0d14c09","651c1e90c58ed94d241a0786","4268"," ","<p>Great, you've seen the first block of words. You may now take a short break.</p>
      <p>Press the spacebar when you're ready to continue.</p>","","","","","","","","",""
"html-keyboard-response","89","155097","0.0-10.0-0.0","6065d7d47409810344f7e6bb","650c16f0f2faf8d7a0d14c09","651c1e90c58ed94d241a0786","null","null","<p style=""font-size: 60px; font-family: BACS"">KdARkPM</p>","","","","","","","","",""
"html-keyboard-response","90","156115","0.0-10.0-0.1","6065d7d47409810344f7e6bb","650c16f0f2faf8d7a0d14c09","651c1e90c58ed94d241a0786","null","null","<p style=""font-size: 60px; font-family: BACS"">NbacAlLG</p>","","","","","","","","",""
"html-keyboard-response","91","157125","0.0-10.0-0.2","6065d7d47409810344f7e6bb","650c16f0f2faf8d7a0d14c09","651c1e90c58ed94d241a0786","null","null","<p style=""font-size: 60px; font-family: BACS"">UvOGmvG</p>","","","","","","","","",""
"html-keyboard-response","92","158130","0.0-10.0-0.3","6065d7d47409810344f7e6bb","650c16f0f2faf8d7a0d14c09","651c1e90c58ed94d241a0786","null","null","<p style=""font-size: 60px; font-family: BACS"">BOCRMkPM</p>","","","","","","","","",""
"html-keyboard-response","93","159133","0.0-10.0-0.4","6065d7d47409810344f7e6bb","650c16f0f2faf8d7a0d14c09","651c1e90c58ed94d241a0786","null","null","<p style=""font-size: 60px; font-family: BACS"">NbacAaQr</p>","","","","","","","","",""
"html-keyboard-response","94","160147","0.0-10.0-0.5","6065d7d47409810344f7e6bb","650c16f0f2faf8d7a0d14c09","651c1e90c58ed94d241a0786","null","null","<p style=""font-size: 60px; font-family: BACS"">uQuZclLG</p>","","","","","","","","",""
"html-keyboard-response","95","161155","0.0-10.0-0.6","6065d7d47409810344f7e6bb","650c16f0f2faf8d7a0d14c09","651c1e90c58ed94d241a0786","null","null","<p style=""font-size: 60px; font-family: BACS"">mBYlbAMO</p>","","","","","","","","",""
"html-keyboard-response","96","162164","0.0-10.0-0.7","6065d7d47409810344f7e6bb","650c16f0f2faf8d7a0d14c09","651c1e90c58ed94d241a0786","null","null","<p style=""font-size: 60px; font-family: BACS"">OAmAdkPM</p>","","","","","","","","",""
"html-keyboard-response","97","163176","0.0-10.0-0.8","6065d7d47409810344f7e6bb","650c16f0f2faf8d7a0d14c09","651c1e90c58ed94d241a0786","null","null","<p style=""font-size: 60px; font-family: BACS"">uQuZcrAm</p>","","","","","","","","",""
"html-keyboard-response","98","164179","0.0-10.0-0.9","6065d7d47409810344f7e6bb","650c16f0f2faf8d7a0d14c09","651c1e90c58ed94d241a0786","null","null","<p style=""font-size: 60px; font-family: BACS"">alJYmvG</p>","","","","","","","","",""
"html-keyboard-response","99","165184","0.0-10.0-0.10","6065d7d47409810344f7e6bb","650c16f0f2faf8d7a0d14c09","651c1e90c58ed94d241a0786","null","null","<p style=""font-size: 60px; font-family: BACS"">BKDRYbTE</p>","","","","","","","","",""
"html-keyboard-response","100","166196","0.0-10.0-0.11","6065d7d47409810344f7e6bb","650c16f0f2faf8d7a0d14c09","651c1e90c58ed94d241a0786","null","null","<p style=""font-size: 60px; font-family: BACS"">BOCRMCkbd</p>","","","","","","","","",""
"html-keyboard-response","101","167210","0.0-10.0-0.12","6065d7d47409810344f7e6bb","650c16f0f2faf8d7a0d14c09","651c1e90c58ed94d241a0786","null","null","<p style=""font-size: 60px; font-family: BACS"">YcdOlLG</p>","","","","","","","","",""
"html-keyboard-response","102","168218","0.0-10.0-0.13","6065d7d47409810344f7e6bb","650c16f0f2faf8d7a0d14c09","651c1e90c58ed94d241a0786","null","null","<p style=""font-size: 60px; font-family: BACS"">KdARbAMO</p>","","","","","","","","",""
"html-keyboard-response","103","169229","0.0-10.0-0.14","6065d7d47409810344f7e6bb","650c16f0f2faf8d7a0d14c09","651c1e90c58ed94d241a0786","null","null","<p style=""font-size: 60px; font-family: BACS"">dMYBPbTE</p>","","","","","","","","",""
"html-keyboard-response","104","170233","0.0-10.0-0.15","6065d7d47409810344f7e6bb","650c16f0f2faf8d7a0d14c09","651c1e90c58ed94d241a0786","null","null","<p style=""font-size: 60px; font-family: BACS"">kbmZOlvk</p>","","","","","","","","",""
"html-keyboard-response","105","171248","0.0-10.0-0.16","6065d7d47409810344f7e6bb","650c16f0f2faf8d7a0d14c09","651c1e90c58ed94d241a0786","null","null","<p style=""font-size: 60px; font-family: BACS"">UvOGaQr</p>","","","","","","","","",""
"html-keyboard-response","106","172254","0.0-10.0-0.17","6065d7d47409810344f7e6bb","650c16f0f2faf8d7a0d14c09","651c1e90c58ed94d241a0786","null","null","<p style=""font-size: 60px; font-family: BACS"">uQuZcmvG</p>","","","","","","","","",""
"html-keyboard-response","107","173269","0.0-10.0-0.18","6065d7d47409810344f7e6bb","650c16f0f2faf8d7a0d14c09","651c1e90c58ed94d241a0786","null","null","<p style=""font-size: 60px; font-family: BACS"">ctktkKE</p>","","","","","","","","",""
"html-keyboard-response","108","174284","0.0-10.0-0.19","6065d7d47409810344f7e6bb","650c16f0f2faf8d7a0d14c09","651c1e90c58ed94d241a0786","null","null","<p style=""font-size: 60px; font-family: BACS"">bRABtbTE</p>","","","","","","","","",""
"html-keyboard-response","109","175295","0.0-10.0-0.20","6065d7d47409810344f7e6bb","650c16f0f2faf8d7a0d14c09","651c1e90c58ed94d241a0786","null","null","<p style=""font-size: 60px; font-family: BACS"">dMYBPkKE</p>","","","","","","","","",""
"html-keyboard-response","110","176304","0.0-10.0-0.21","6065d7d47409810344f7e6bb","650c16f0f2faf8d7a0d14c09","651c1e90c58ed94d241a0786","null","null","<p style=""font-size: 60px; font-family: BACS"">YcdOaQr</p>","","","","","","","","",""
"html-keyboard-response","111","177307","0.0-10.0-0.22","6065d7d47409810344f7e6bb","650c16f0f2faf8d7a0d14c09","651c1e90c58ed94d241a0786","null","null","<p style=""font-size: 60px; font-family: BACS"">BKDRYkKE</p>","","","","","","","","",""
"html-keyboard-response","112","178320","0.0-10.0-0.23","6065d7d47409810344f7e6bb","650c16f0f2faf8d7a0d14c09","651c1e90c58ed94d241a0786","null","null","<p style=""font-size: 60px; font-family: BACS"">UAcdulvk</p>","","","","","","","","",""
"html-keyboard-response","113","179323","0.0-10.0-0.24","6065d7d47409810344f7e6bb","650c16f0f2faf8d7a0d14c09","651c1e90c58ed94d241a0786","null","null","<p style=""font-size: 60px; font-family: BACS"">OAmAdkKE</p>","","","","","","","","",""
"html-keyboard-response","114","180338","0.0-10.0-0.25","6065d7d47409810344f7e6bb","650c16f0f2faf8d7a0d14c09","651c1e90c58ed94d241a0786","null","null","<p style=""font-size: 60px; font-family: BACS"">NbacArAm</p>","","","","","","","","",""
"html-keyboard-response","115","181340","0.0-10.0-0.26","6065d7d47409810344f7e6bb","650c16f0f2faf8d7a0d14c09","651c1e90c58ed94d241a0786","null","null","<p style=""font-size: 60px; font-family: BACS"">mcOJlvk</p>","","","","","","","","",""
"html-keyboard-response","116","182345","0.0-10.0-0.27","6065d7d47409810344f7e6bb","650c16f0f2faf8d7a0d14c09","651c1e90c58ed94d241a0786","null","null","<p style=""font-size: 60px; font-family: BACS"">kbmZOlLG</p>","","","","","","","","",""
"html-keyboard-response","117","183358","0.0-10.0-0.28","6065d7d47409810344f7e6bb","650c16f0f2faf8d7a0d14c09","651c1e90c58ed94d241a0786","null","null","<p style=""font-size: 60px; font-family: BACS"">QOLmurAm</p>","","","","","","","","",""
"html-keyboard-response","118","184369","0.0-10.0-0.29","6065d7d47409810344f7e6bb","650c16f0f2faf8d7a0d14c09","651c1e90c58ed94d241a0786","null","null","<p style=""font-size: 60px; font-family: BACS"">BKDRYkPM</p>","","","","","","","","",""
"html-keyboard-response","119","185382","0.0-10.0-0.30","6065d7d47409810344f7e6bb","650c16f0f2faf8d7a0d14c09","651c1e90c58ed94d241a0786","null","null","<p style=""font-size: 60px; font-family: BACS"">KdARbTE</p>","","","","","","","","",""
"html-keyboard-response","120","186401","0.0-10.0-0.31","6065d7d47409810344f7e6bb","650c16f0f2faf8d7a0d14c09","651c1e90c58ed94d241a0786","null","null","<p style=""font-size: 60px; font-family: BACS"">UvOGlLG</p>","","","","","","","","",""
"html-keyboard-response","121","187415","0.0-10.0-0.32","6065d7d47409810344f7e6bb","650c16f0f2faf8d7a0d14c09","651c1e90c58ed94d241a0786","null","null","<p style=""font-size: 60px; font-family: BACS"">mBYlCkbd</p>","","","","","","","","",""
"html-keyboard-response","122","188425","0.0-10.0-0.33","6065d7d47409810344f7e6bb","650c16f0f2faf8d7a0d14c09","651c1e90c58ed94d241a0786","null","null","<p style=""font-size: 60px; font-family: BACS"">PEkhAbTE</p>","","","","","","","","",""
"html-keyboard-response","123","189428","0.0-10.0-0.34","6065d7d47409810344f7e6bb","650c16f0f2faf8d7a0d14c09","651c1e90c58ed94d241a0786","null","null","<p style=""font-size: 60px; font-family: BACS"">YcdOlvk</p>","","","","","","","","",""
"html-keyboard-response","124","190431","0.0-10.0-0.35","6065d7d47409810344f7e6bb","650c16f0f2faf8d7a0d14c09","651c1e90c58ed94d241a0786","null","null","<p style=""font-size: 60px; font-family: BACS"">KdARCkbd</p>","","","","","","","","",""
"html-keyboard-response","125","191434","0.0-10.0-0.36","6065d7d47409810344f7e6bb","650c16f0f2faf8d7a0d14c09","651c1e90c58ed94d241a0786","null","null","<p style=""font-size: 60px; font-family: BACS"">mcOJaQr</p>","","","","","","","","",""
"html-keyboard-response","126","192441","0.0-10.0-0.37","6065d7d47409810344f7e6bb","650c16f0f2faf8d7a0d14c09","651c1e90c58ed94d241a0786","null","null","<p style=""font-size: 60px; font-family: BACS"">OAmAdCkbd</p>","","","","","","","","",""
"html-keyboard-response","127","193453","0.0-10.0-0.38","6065d7d47409810344f7e6bb","650c16f0f2faf8d7a0d14c09","651c1e90c58ed94d241a0786","null","null","<p style=""font-size: 60px; font-family: BACS"">alJYrAm</p>","","","","","","","","",""
"html-keyboard-response","128","194470","0.0-10.0-0.39","6065d7d47409810344f7e6bb","650c16f0f2faf8d7a0d14c09","651c1e90c58ed94d241a0786","null","null","<p style=""font-size: 60px; font-family: BACS"">BOCRMbAMO</p>","","","","","","","","",""
"html-keyboard-response","129","195481","0.0-10.0-0.40","6065d7d47409810344f7e6bb","650c16f0f2faf8d7a0d14c09","651c1e90c58ed94d241a0786","null","null","<p style=""font-size: 60px; font-family: BACS"">EMYKbTE</p>","","","","","","","","",""
"html-keyboard-response","130","196486","0.0-10.0-0.41","6065d7d47409810344f7e6bb","650c16f0f2faf8d7a0d14c09","651c1e90c58ed94d241a0786","null","null","<p style=""font-size: 60px; font-family: BACS"">YuaNdlLG</p>","","","","","","","","",""
"html-keyboard-response","131","197490","0.0-10.0-0.42","6065d7d47409810344f7e6bb","650c16f0f2faf8d7a0d14c09","651c1e90c58ed94d241a0786","null","null","<p style=""font-size: 60px; font-family: BACS"">dMYBPkPM</p>","","","","","","","","",""
"html-keyboard-response","132","198502","0.0-10.0-0.43","6065d7d47409810344f7e6bb","650c16f0f2faf8d7a0d14c09","651c1e90c58ed94d241a0786","null","null","<p style=""font-size: 60px; font-family: BACS"">mBYlkKE</p>","","","","","","","","",""
"html-keyboard-response","133","199507","0.0-10.0-0.44","6065d7d47409810344f7e6bb","650c16f0f2faf8d7a0d14c09","651c1e90c58ed94d241a0786","null","null","<p style=""font-size: 60px; font-family: BACS"">QOLmulvk</p>","","","","","","","","",""
"html-keyboard-response","134","200517","0.0-10.0-0.45","6065d7d47409810344f7e6bb","650c16f0f2faf8d7a0d14c09","651c1e90c58ed94d241a0786","null","null","<p style=""font-size: 60px; font-family: BACS"">ctktbAMO</p>","","","","","","","","",""
"html-keyboard-response","135","201528","0.0-10.0-0.46","6065d7d47409810344f7e6bb","650c16f0f2faf8d7a0d14c09","651c1e90c58ed94d241a0786","null","null","<p style=""font-size: 60px; font-family: BACS"">UvOGlvk</p>","","","","","","","","",""
"html-keyboard-response","136","202539","0.0-10.0-0.47","6065d7d47409810344f7e6bb","650c16f0f2faf8d7a0d14c09","651c1e90c58ed94d241a0786","null","null","<p style=""font-size: 60px; font-family: BACS"">dMYBPbAMO</p>","","","","","","","","",""
"html-keyboard-response","137","203554","0.0-10.0-0.48","6065d7d47409810344f7e6bb","650c16f0f2faf8d7a0d14c09","651c1e90c58ed94d241a0786","null","null","<p style=""font-size: 60px; font-family: BACS"">bRABtkKE</p>","","","","","","","","",""
"html-keyboard-response","138","204559","0.0-10.0-0.49","6065d7d47409810344f7e6bb","650c16f0f2faf8d7a0d14c09","651c1e90c58ed94d241a0786","null","null","<p style=""font-size: 60px; font-family: BACS"">UAcdurAm</p>","","","","","","","","",""
"html-keyboard-response","139","205568","0.0-10.0-0.50","6065d7d47409810344f7e6bb","650c16f0f2faf8d7a0d14c09","651c1e90c58ed94d241a0786","null","null","<p style=""font-size: 60px; font-family: BACS"">ctktCkbd</p>","","","","","","","","",""
"html-keyboard-response","140","206587","0.0-10.0-0.51","6065d7d47409810344f7e6bb","650c16f0f2faf8d7a0d14c09","651c1e90c58ed94d241a0786","null","null","<p style=""font-size: 60px; font-family: BACS"">UAcdulLG</p>","","","","","","","","",""
"html-keyboard-response","141","207600","0.0-10.0-0.52","6065d7d47409810344f7e6bb","650c16f0f2faf8d7a0d14c09","651c1e90c58ed94d241a0786","null","null","<p style=""font-size: 60px; font-family: BACS"">PEkhAkKE</p>","","","","","","","","",""
"html-keyboard-response","142","208603","0.0-10.0-0.53","6065d7d47409810344f7e6bb","650c16f0f2faf8d7a0d14c09","651c1e90c58ed94d241a0786","null","null","<p style=""font-size: 60px; font-family: BACS"">bRABtCkbd</p>","","","","","","","","",""
"html-keyboard-response","143","209606","0.0-10.0-0.54","6065d7d47409810344f7e6bb","650c16f0f2faf8d7a0d14c09","651c1e90c58ed94d241a0786","null","null","<p style=""font-size: 60px; font-family: BACS"">ctktbTE</p>","","","","","","","","",""
"html-keyboard-response","144","210620","0.0-10.0-0.55","6065d7d47409810344f7e6bb","650c16f0f2faf8d7a0d14c09","651c1e90c58ed94d241a0786","null","null","<p style=""font-size: 60px; font-family: BACS"">YuaNdaQr</p>","","","","","","","","",""
"html-keyboard-response","145","211624","0.0-10.0-0.56","6065d7d47409810344f7e6bb","650c16f0f2faf8d7a0d14c09","651c1e90c58ed94d241a0786","null","null","<p style=""font-size: 60px; font-family: BACS"">EMYKCkbd</p>","","","","","","","","",""
"html-keyboard-response","146","212633","0.0-10.0-0.57","6065d7d47409810344f7e6bb","650c16f0f2faf8d7a0d14c09","651c1e90c58ed94d241a0786","null","null","<p style=""font-size: 60px; font-family: BACS"">OAmAdbAMO</p>","","","","","","","","",""
"html-keyboard-response","147","213647","0.0-10.0-0.58","6065d7d47409810344f7e6bb","650c16f0f2faf8d7a0d14c09","651c1e90c58ed94d241a0786","null","null","<p style=""font-size: 60px; font-family: BACS"">alJYlLG</p>","","","","","","","","",""
"html-keyboard-response","148","214656","0.0-10.0-0.59","6065d7d47409810344f7e6bb","650c16f0f2faf8d7a0d14c09","651c1e90c58ed94d241a0786","null","null","<p style=""font-size: 60px; font-family: BACS"">QOLmuaQr</p>","","","","","","","","",""
"html-keyboard-response","149","215662","0.0-10.0-0.60","6065d7d47409810344f7e6bb","650c16f0f2faf8d7a0d14c09","651c1e90c58ed94d241a0786","null","null","<p style=""font-size: 60px; font-family: BACS"">kbmZOmvG</p>","","","","","","","","",""
"html-keyboard-response","150","216672","0.0-10.0-0.61","6065d7d47409810344f7e6bb","650c16f0f2faf8d7a0d14c09","651c1e90c58ed94d241a0786","null","null","<p style=""font-size: 60px; font-family: BACS"">EMYKkKE</p>","","","","","","","","",""
"html-keyboard-response","151","217677","0.0-10.0-0.62","6065d7d47409810344f7e6bb","650c16f0f2faf8d7a0d14c09","651c1e90c58ed94d241a0786","null","null","<p style=""font-size: 60px; font-family: BACS"">alJYaQr</p>","","","","","","","","",""
"html-keyboard-response","152","218685","0.0-10.0-0.63","6065d7d47409810344f7e6bb","650c16f0f2faf8d7a0d14c09","651c1e90c58ed94d241a0786","null","null","<p style=""font-size: 60px; font-family: BACS"">mcOJrAm</p>","","","","","","","","",""
"html-keyboard-response","153","219688","0.0-10.0-0.64","6065d7d47409810344f7e6bb","650c16f0f2faf8d7a0d14c09","651c1e90c58ed94d241a0786","null","null","<p style=""font-size: 60px; font-family: BACS"">uQuZclvk</p>","","","","","","","","",""
"html-keyboard-response","154","220693","0.0-10.0-0.65","6065d7d47409810344f7e6bb","650c16f0f2faf8d7a0d14c09","651c1e90c58ed94d241a0786","null","null","<p style=""font-size: 60px; font-family: BACS"">YcdOmvG</p>","","","","","","","","",""
"html-keyboard-response","155","221710","0.0-10.0-0.66","6065d7d47409810344f7e6bb","650c16f0f2faf8d7a0d14c09","651c1e90c58ed94d241a0786","null","null","<p style=""font-size: 60px; font-family: BACS"">bRABtkPM</p>","","","","","","","","",""
"html-keyboard-response","156","222718","0.0-10.0-0.67","6065d7d47409810344f7e6bb","650c16f0f2faf8d7a0d14c09","651c1e90c58ed94d241a0786","null","null","<p style=""font-size: 60px; font-family: BACS"">PEkhACkbd</p>","","","","","","","","",""
"html-keyboard-response","157","223727","0.0-10.0-0.68","6065d7d47409810344f7e6bb","650c16f0f2faf8d7a0d14c09","651c1e90c58ed94d241a0786","null","null","<p style=""font-size: 60px; font-family: BACS"">BKDRYbAMO</p>","","","","","","","","",""
"html-keyboard-response","158","224736","0.0-10.0-0.69","6065d7d47409810344f7e6bb","650c16f0f2faf8d7a0d14c09","651c1e90c58ed94d241a0786","null","null","<p style=""font-size: 60px; font-family: BACS"">mBYlkPM</p>","","","","","","","","",""
"html-keyboard-response","159","225743","0.0-10.0-0.70","6065d7d47409810344f7e6bb","650c16f0f2faf8d7a0d14c09","651c1e90c58ed94d241a0786","null","null","<p style=""font-size: 60px; font-family: BACS"">mcOJmvG</p>","","","","","","","","",""
"html-keyboard-response","160","226757","0.0-10.0-0.71","6065d7d47409810344f7e6bb","650c16f0f2faf8d7a0d14c09","651c1e90c58ed94d241a0786","null","null","<p style=""font-size: 60px; font-family: BACS"">NbacAlvk</p>","","","","","","","","",""
"html-keyboard-response","161","227759","0.0-10.0-0.72","6065d7d47409810344f7e6bb","650c16f0f2faf8d7a0d14c09","651c1e90c58ed94d241a0786","null","null","<p style=""font-size: 60px; font-family: BACS"">UAcduaQr</p>","","","","","","","","",""
"html-keyboard-response","162","228772","0.0-10.0-0.73","6065d7d47409810344f7e6bb","650c16f0f2faf8d7a0d14c09","651c1e90c58ed94d241a0786","null","null","<p style=""font-size: 60px; font-family: BACS"">YuaNdmvG</p>","","","","","","","","",""
"html-keyboard-response","163","229777","0.0-10.0-0.74","6065d7d47409810344f7e6bb","650c16f0f2faf8d7a0d14c09","651c1e90c58ed94d241a0786","null","null","<p style=""font-size: 60px; font-family: BACS"">PEkhAkPM</p>","","","","","","","","",""
"html-keyboard-response","164","230780","0.0-10.0-0.75","6065d7d47409810344f7e6bb","650c16f0f2faf8d7a0d14c09","651c1e90c58ed94d241a0786","null","null","<p style=""font-size: 60px; font-family: BACS"">BOCRMbTE</p>","","","","","","","","",""
"html-keyboard-response","165","231796","0.0-10.0-0.76","6065d7d47409810344f7e6bb","650c16f0f2faf8d7a0d14c09","651c1e90c58ed94d241a0786","null","null","<p style=""font-size: 60px; font-family: BACS"">YuaNdrAm</p>","","","","","","","","",""
"html-keyboard-response","166","232804","0.0-10.0-0.77","6065d7d47409810344f7e6bb","650c16f0f2faf8d7a0d14c09","651c1e90c58ed94d241a0786","null","null","<p style=""font-size: 60px; font-family: BACS"">QOLmumvG</p>","","","","","","","","",""
"html-keyboard-response","167","233811","0.0-10.0-0.78","6065d7d47409810344f7e6bb","650c16f0f2faf8d7a0d14c09","651c1e90c58ed94d241a0786","null","null","<p style=""font-size: 60px; font-family: BACS"">kbmZOrAm</p>","","","","","","","","",""
"html-keyboard-response","168","234817","0.0-10.0-0.79","6065d7d47409810344f7e6bb","650c16f0f2faf8d7a0d14c09","651c1e90c58ed94d241a0786","null","null","<p style=""font-size: 60px; font-family: BACS"">EMYKbAMO</p>","","","","","","","","",""
"html-keyboard-response","169","245695","0.0-11.0","6065d7d47409810344f7e6bb","650c16f0f2faf8d7a0d14c09","651c1e90c58ed94d241a0786","10877"," ","<p>Great, you've seen the second block of words. You may now take a short break.</p>
      <p>Press the spacebar when you're ready to continue.</p>","","","","","","","","",""
"html-keyboard-response","170","246698","0.0-12.0-0.0","6065d7d47409810344f7e6bb","650c16f0f2faf8d7a0d14c09","651c1e90c58ed94d241a0786","null","null","<p style=""font-size: 60px; font-family: BACS"">kbmZOrAm</p>","","","","","","","","",""
"html-keyboard-response","171","247707","0.0-12.0-0.1","6065d7d47409810344f7e6bb","650c16f0f2faf8d7a0d14c09","651c1e90c58ed94d241a0786","null","null","<p style=""font-size: 60px; font-family: BACS"">BOCRMbAMO</p>","","","","","","","","",""
"html-keyboard-response","172","248724","0.0-12.0-0.2","6065d7d47409810344f7e6bb","650c16f0f2faf8d7a0d14c09","651c1e90c58ed94d241a0786","null","null","<p style=""font-size: 60px; font-family: BACS"">EMYKbTE</p>","","","","","","","","",""
"html-keyboard-response","173","249737","0.0-12.0-0.3","6065d7d47409810344f7e6bb","650c16f0f2faf8d7a0d14c09","651c1e90c58ed94d241a0786","null","null","<p style=""font-size: 60px; font-family: BACS"">kbmZOmvG</p>","","","","","","","","",""
"html-keyboard-response","174","250740","0.0-12.0-0.4","6065d7d47409810344f7e6bb","650c16f0f2faf8d7a0d14c09","651c1e90c58ed94d241a0786","null","null","<p style=""font-size: 60px; font-family: BACS"">YcdOlvk</p>","","","","","","","","",""
"html-keyboard-response","175","251743","0.0-12.0-0.5","6065d7d47409810344f7e6bb","650c16f0f2faf8d7a0d14c09","651c1e90c58ed94d241a0786","null","null","<p style=""font-size: 60px; font-family: BACS"">mcOJrAm</p>","","","","","","","","",""
"html-keyboard-response","176","252746","0.0-12.0-0.6","6065d7d47409810344f7e6bb","650c16f0f2faf8d7a0d14c09","651c1e90c58ed94d241a0786","null","null","<p style=""font-size: 60px; font-family: BACS"">dMYBPkPM</p>","","","","","","","","",""
"html-keyboard-response","177","253748","0.0-12.0-0.7","6065d7d47409810344f7e6bb","650c16f0f2faf8d7a0d14c09","651c1e90c58ed94d241a0786","null","null","<p style=""font-size: 60px; font-family: BACS"">NbacAaQr</p>","","","","","","","","",""
"html-keyboard-response","178","254751","0.0-12.0-0.8","6065d7d47409810344f7e6bb","650c16f0f2faf8d7a0d14c09","651c1e90c58ed94d241a0786","null","null","<p style=""font-size: 60px; font-family: BACS"">bRABtkPM</p>","","","","","","","","",""
"html-keyboard-response","179","255760","0.0-12.0-0.9","6065d7d47409810344f7e6bb","650c16f0f2faf8d7a0d14c09","651c1e90c58ed94d241a0786","null","null","<p style=""font-size: 60px; font-family: BACS"">alJYrAm</p>","","","","","","","","",""
"html-keyboard-response","180","256770","0.0-12.0-0.10","6065d7d47409810344f7e6bb","650c16f0f2faf8d7a0d14c09","651c1e90c58ed94d241a0786","null","null","<p style=""font-size: 60px; font-family: BACS"">OAmAdkKE</p>","","","","","","","","",""
"html-keyboard-response","181","257775","0.0-12.0-0.11","6065d7d47409810344f7e6bb","650c16f0f2faf8d7a0d14c09","651c1e90c58ed94d241a0786","null","null","<p style=""font-size: 60px; font-family: BACS"">KdARCkbd</p>","","","","","","","","",""
"html-keyboard-response","182","258783","0.0-12.0-0.12","6065d7d47409810344f7e6bb","650c16f0f2faf8d7a0d14c09","651c1e90c58ed94d241a0786","null","null","<p style=""font-size: 60px; font-family: BACS"">PEkhAkPM</p>","","","","","","","","",""
"html-keyboard-response","183","259789","0.0-12.0-0.13","6065d7d47409810344f7e6bb","650c16f0f2faf8d7a0d14c09","651c1e90c58ed94d241a0786","null","null","<p style=""font-size: 60px; font-family: BACS"">UvOGmvG</p>","","","","","","","","",""
"html-keyboard-response","184","260797","0.0-12.0-0.14","6065d7d47409810344f7e6bb","650c16f0f2faf8d7a0d14c09","651c1e90c58ed94d241a0786","null","null","<p style=""font-size: 60px; font-family: BACS"">QOLmulvk</p>","","","","","","","","",""
"html-keyboard-response","185","261802","0.0-12.0-0.15","6065d7d47409810344f7e6bb","650c16f0f2faf8d7a0d14c09","651c1e90c58ed94d241a0786","null","null","<p style=""font-size: 60px; font-family: BACS"">mBYlCkbd</p>","","","","","","","","",""
"html-keyboard-response","186","262811","0.0-12.0-0.16","6065d7d47409810344f7e6bb","650c16f0f2faf8d7a0d14c09","651c1e90c58ed94d241a0786","null","null","<p style=""font-size: 60px; font-family: BACS"">uQuZclLG</p>","","","","","","","","",""
"html-keyboard-response","187","263825","0.0-12.0-0.17","6065d7d47409810344f7e6bb","650c16f0f2faf8d7a0d14c09","651c1e90c58ed94d241a0786","null","null","<p style=""font-size: 60px; font-family: BACS"">YuaNdrAm</p>","","","","","","","","",""
"html-keyboard-response","188","264842","0.0-12.0-0.18","6065d7d47409810344f7e6bb","650c16f0f2faf8d7a0d14c09","651c1e90c58ed94d241a0786","null","null","<p style=""font-size: 60px; font-family: BACS"">alJYlLG</p>","","","","","","","","",""
"html-keyboard-response","189","265856","0.0-12.0-0.19","6065d7d47409810344f7e6bb","650c16f0f2faf8d7a0d14c09","651c1e90c58ed94d241a0786","null","null","<p style=""font-size: 60px; font-family: BACS"">mBYlbAMO</p>","","","","","","","","",""
"html-keyboard-response","190","266866","0.0-12.0-0.20","6065d7d47409810344f7e6bb","650c16f0f2faf8d7a0d14c09","651c1e90c58ed94d241a0786","null","null","<p style=""font-size: 60px; font-family: BACS"">uQuZcmvG</p>","","","","","","","","",""
"html-keyboard-response","191","267880","0.0-12.0-0.21","6065d7d47409810344f7e6bb","650c16f0f2faf8d7a0d14c09","651c1e90c58ed94d241a0786","null","null","<p style=""font-size: 60px; font-family: BACS"">dMYBPkKE</p>","","","","","","","","",""
"html-keyboard-response","192","268890","0.0-12.0-0.22","6065d7d47409810344f7e6bb","650c16f0f2faf8d7a0d14c09","651c1e90c58ed94d241a0786","null","null","<p style=""font-size: 60px; font-family: BACS"">NbacAlLG</p>","","","","","","","","",""
"html-keyboard-response","193","269894","0.0-12.0-0.23","6065d7d47409810344f7e6bb","650c16f0f2faf8d7a0d14c09","651c1e90c58ed94d241a0786","null","null","<p style=""font-size: 60px; font-family: BACS"">alJYmvG</p>","","","","","","","","",""
"html-keyboard-response","194","270897","0.0-12.0-0.24","6065d7d47409810344f7e6bb","650c16f0f2faf8d7a0d14c09","651c1e90c58ed94d241a0786","null","null","<p style=""font-size: 60px; font-family: BACS"">KdARbTE</p>","","","","","","","","",""
"html-keyboard-response","195","271909","0.0-12.0-0.25","6065d7d47409810344f7e6bb","650c16f0f2faf8d7a0d14c09","651c1e90c58ed94d241a0786","null","null","<p style=""font-size: 60px; font-family: BACS"">OAmAdbAMO</p>","","","","","","","","",""
"html-keyboard-response","196","272925","0.0-12.0-0.26","6065d7d47409810344f7e6bb","650c16f0f2faf8d7a0d14c09","651c1e90c58ed94d241a0786","null","null","<p style=""font-size: 60px; font-family: BACS"">PEkhAkKE</p>","","","","","","","","",""
"html-keyboard-response","197","273929","0.0-12.0-0.27","6065d7d47409810344f7e6bb","650c16f0f2faf8d7a0d14c09","651c1e90c58ed94d241a0786","null","null","<p style=""font-size: 60px; font-family: BACS"">ctktbAMO</p>","","","","","","","","",""
"html-keyboard-response","198","274931","0.0-12.0-0.28","6065d7d47409810344f7e6bb","650c16f0f2faf8d7a0d14c09","651c1e90c58ed94d241a0786","null","null","<p style=""font-size: 60px; font-family: BACS"">QOLmurAm</p>","","","","","","","","",""
"html-keyboard-response","199","275946","0.0-12.0-0.29","6065d7d47409810344f7e6bb","650c16f0f2faf8d7a0d14c09","651c1e90c58ed94d241a0786","null","null","<p style=""font-size: 60px; font-family: BACS"">YcdOlLG</p>","","","","","","","","",""
"html-keyboard-response","200","276958","0.0-12.0-0.30","6065d7d47409810344f7e6bb","650c16f0f2faf8d7a0d14c09","651c1e90c58ed94d241a0786","null","null","<p style=""font-size: 60px; font-family: BACS"">UAcduaQr</p>","","","","","","","","",""
"html-keyboard-response","201","277965","0.0-12.0-0.31","6065d7d47409810344f7e6bb","650c16f0f2faf8d7a0d14c09","651c1e90c58ed94d241a0786","null","null","<p style=""font-size: 60px; font-family: BACS"">mcOJlvk</p>","","","","","","","","",""
"html-keyboard-response","202","278974","0.0-12.0-0.32","6065d7d47409810344f7e6bb","650c16f0f2faf8d7a0d14c09","651c1e90c58ed94d241a0786","null","null","<p style=""font-size: 60px; font-family: BACS"">YcdOaQr</p>","","","","","","","","",""
"html-keyboard-response","203","279985","0.0-12.0-0.33","6065d7d47409810344f7e6bb","650c16f0f2faf8d7a0d14c09","651c1e90c58ed94d241a0786","null","null","<p style=""font-size: 60px; font-family: BACS"">NbacAlvk</p>","","","","","","","","",""
"html-keyboard-response","204","280992","0.0-12.0-0.34","6065d7d47409810344f7e6bb","650c16f0f2faf8d7a0d14c09","651c1e90c58ed94d241a0786","null","null","<p style=""font-size: 60px; font-family: BACS"">YcdOmvG</p>","","","","","","","","",""
"html-keyboard-response","205","281996","0.0-12.0-0.35","6065d7d47409810344f7e6bb","650c16f0f2faf8d7a0d14c09","651c1e90c58ed94d241a0786","null","null","<p style=""font-size: 60px; font-family: BACS"">mBYlkPM</p>","","","","","","","","",""
"html-keyboard-response","206","283007","0.0-12.0-0.36","6065d7d47409810344f7e6bb","650c16f0f2faf8d7a0d14c09","651c1e90c58ed94d241a0786","null","null","<p style=""font-size: 60px; font-family: BACS"">KdARbAMO</p>","","","","","","","","",""
"html-keyboard-response","207","284014","0.0-12.0-0.37","6065d7d47409810344f7e6bb","650c16f0f2faf8d7a0d14c09","651c1e90c58ed94d241a0786","null","null","<p style=""font-size: 60px; font-family: BACS"">ctktkKE</p>","","","","","","","","",""
"html-keyboard-response","208","285020","0.0-12.0-0.38","6065d7d47409810344f7e6bb","650c16f0f2faf8d7a0d14c09","651c1e90c58ed94d241a0786","null","null","<p style=""font-size: 60px; font-family: BACS"">YuaNdaQr</p>","","","","","","","","",""
"html-keyboard-response","209","286032","0.0-12.0-0.39","6065d7d47409810344f7e6bb","650c16f0f2faf8d7a0d14c09","651c1e90c58ed94d241a0786","null","null","<p style=""font-size: 60px; font-family: BACS"">bRABtkKE</p>","","","","","","","","",""
"html-keyboard-response","210","287046","0.0-12.0-0.40","6065d7d47409810344f7e6bb","650c16f0f2faf8d7a0d14c09","651c1e90c58ed94d241a0786","null","null","<p style=""font-size: 60px; font-family: BACS"">ctktCkbd</p>","","","","","","","","",""
"html-keyboard-response","211","288048","0.0-12.0-0.41","6065d7d47409810344f7e6bb","650c16f0f2faf8d7a0d14c09","651c1e90c58ed94d241a0786","null","null","<p style=""font-size: 60px; font-family: BACS"">kbmZOlvk</p>","","","","","","","","",""
"html-keyboard-response","212","289059","0.0-12.0-0.42","6065d7d47409810344f7e6bb","650c16f0f2faf8d7a0d14c09","651c1e90c58ed94d241a0786","null","null","<p style=""font-size: 60px; font-family: BACS"">EMYKbAMO</p>","","","","","","","","",""
"html-keyboard-response","213","290075","0.0-12.0-0.43","6065d7d47409810344f7e6bb","650c16f0f2faf8d7a0d14c09","651c1e90c58ed94d241a0786","null","null","<p style=""font-size: 60px; font-family: BACS"">BOCRMbTE</p>","","","","","","","","",""
"html-keyboard-response","214","291082","0.0-12.0-0.44","6065d7d47409810344f7e6bb","650c16f0f2faf8d7a0d14c09","651c1e90c58ed94d241a0786","null","null","<p style=""font-size: 60px; font-family: BACS"">OAmAdCkbd</p>","","","","","","","","",""
"html-keyboard-response","215","292092","0.0-12.0-0.45","6065d7d47409810344f7e6bb","650c16f0f2faf8d7a0d14c09","651c1e90c58ed94d241a0786","null","null","<p style=""font-size: 60px; font-family: BACS"">BKDRYkPM</p>","","","","","","","","",""
"html-keyboard-response","216","293098","0.0-12.0-0.46","6065d7d47409810344f7e6bb","650c16f0f2faf8d7a0d14c09","651c1e90c58ed94d241a0786","null","null","<p style=""font-size: 60px; font-family: BACS"">QOLmuaQr</p>","","","","","","","","",""
"html-keyboard-response","217","294117","0.0-12.0-0.47","6065d7d47409810344f7e6bb","650c16f0f2faf8d7a0d14c09","651c1e90c58ed94d241a0786","null","null","<p style=""font-size: 60px; font-family: BACS"">PEkhACkbd</p>","","","","","","","","",""
"html-keyboard-response","218","295127","0.0-12.0-0.48","6065d7d47409810344f7e6bb","650c16f0f2faf8d7a0d14c09","651c1e90c58ed94d241a0786","null","null","<p style=""font-size: 60px; font-family: BACS"">BKDRYkKE</p>","","","","","","","","",""
"html-keyboard-response","219","296136","0.0-12.0-0.49","6065d7d47409810344f7e6bb","650c16f0f2faf8d7a0d14c09","651c1e90c58ed94d241a0786","null","null","<p style=""font-size: 60px; font-family: BACS"">UvOGlLG</p>","","","","","","","","",""
"html-keyboard-response","220","297149","0.0-12.0-0.50","6065d7d47409810344f7e6bb","650c16f0f2faf8d7a0d14c09","651c1e90c58ed94d241a0786","null","null","<p style=""font-size: 60px; font-family: BACS"">uQuZclvk</p>","","","","","","","","",""
"html-keyboard-response","221","298155","0.0-12.0-0.51","6065d7d47409810344f7e6bb","650c16f0f2faf8d7a0d14c09","651c1e90c58ed94d241a0786","null","null","<p style=""font-size: 60px; font-family: BACS"">KdARkPM</p>","","","","","","","","",""
"html-keyboard-response","222","299159","0.0-12.0-0.52","6065d7d47409810344f7e6bb","650c16f0f2faf8d7a0d14c09","651c1e90c58ed94d241a0786","null","null","<p style=""font-size: 60px; font-family: BACS"">UAcdurAm</p>","","","","","","","","",""
"html-keyboard-response","223","300171","0.0-12.0-0.53","6065d7d47409810344f7e6bb","650c16f0f2faf8d7a0d14c09","651c1e90c58ed94d241a0786","null","null","<p style=""font-size: 60px; font-family: BACS"">QOLmumvG</p>","","","","","","","","",""
"html-keyboard-response","224","301183","0.0-12.0-0.54","6065d7d47409810344f7e6bb","650c16f0f2faf8d7a0d14c09","651c1e90c58ed94d241a0786","null","null","<p style=""font-size: 60px; font-family: BACS"">kbmZOlLG</p>","","","","","","","","",""
"html-keyboard-response","225","302190","0.0-12.0-0.55","6065d7d47409810344f7e6bb","650c16f0f2faf8d7a0d14c09","651c1e90c58ed94d241a0786","null","null","<p style=""font-size: 60px; font-family: BACS"">BOCRMkPM</p>","","","","","","","","",""
"html-keyboard-response","226","303200","0.0-12.0-0.56","6065d7d47409810344f7e6bb","650c16f0f2faf8d7a0d14c09","651c1e90c58ed94d241a0786","null","null","<p style=""font-size: 60px; font-family: BACS"">PEkhAbTE</p>","","","","","","","","",""
"html-keyboard-response","227","304207","0.0-12.0-0.57","6065d7d47409810344f7e6bb","650c16f0f2faf8d7a0d14c09","651c1e90c58ed94d241a0786","null","null","<p style=""font-size: 60px; font-family: BACS"">UAcdulvk</p>","","","","","","","","",""
"html-keyboard-response","228","305219","0.0-12.0-0.58","6065d7d47409810344f7e6bb","650c16f0f2faf8d7a0d14c09","651c1e90c58ed94d241a0786","null","null","<p style=""font-size: 60px; font-family: BACS"">bRABtbTE</p>","","","","","","","","",""
"html-keyboard-response","229","306234","0.0-12.0-0.59","6065d7d47409810344f7e6bb","650c16f0f2faf8d7a0d14c09","651c1e90c58ed94d241a0786","null","null","<p style=""font-size: 60px; font-family: BACS"">dMYBPbAMO</p>","","","","","","","","",""
"html-keyboard-response","230","307243","0.0-12.0-0.60","6065d7d47409810344f7e6bb","650c16f0f2faf8d7a0d14c09","651c1e90c58ed94d241a0786","null","null","<p style=""font-size: 60px; font-family: BACS"">NbacArAm</p>","","","","","","","","",""
"html-keyboard-response","231","308254","0.0-12.0-0.61","6065d7d47409810344f7e6bb","650c16f0f2faf8d7a0d14c09","651c1e90c58ed94d241a0786","null","null","<p style=""font-size: 60px; font-family: BACS"">bRABtCkbd</p>","","","","","","","","",""
"html-keyboard-response","232","309259","0.0-12.0-0.62","6065d7d47409810344f7e6bb","650c16f0f2faf8d7a0d14c09","651c1e90c58ed94d241a0786","null","null","<p style=""font-size: 60px; font-family: BACS"">mcOJaQr</p>","","","","","","","","",""
"html-keyboard-response","233","310269","0.0-12.0-0.63","6065d7d47409810344f7e6bb","650c16f0f2faf8d7a0d14c09","651c1e90c58ed94d241a0786","null","null","<p style=""font-size: 60px; font-family: BACS"">uQuZcrAm</p>","","","","","","","","",""
"html-keyboard-response","234","311271","0.0-12.0-0.64","6065d7d47409810344f7e6bb","650c16f0f2faf8d7a0d14c09","651c1e90c58ed94d241a0786","null","null","<p style=""font-size: 60px; font-family: BACS"">YuaNdmvG</p>","","","","","","","","",""
"html-keyboard-response","235","312275","0.0-12.0-0.65","6065d7d47409810344f7e6bb","650c16f0f2faf8d7a0d14c09","651c1e90c58ed94d241a0786","null","null","<p style=""font-size: 60px; font-family: BACS"">UvOGaQr</p>","","","","","","","","",""
"html-keyboard-response","236","313289","0.0-12.0-0.66","6065d7d47409810344f7e6bb","650c16f0f2faf8d7a0d14c09","651c1e90c58ed94d241a0786","null","null","<p style=""font-size: 60px; font-family: BACS"">mcOJmvG</p>","","","","","","","","",""
"html-keyboard-response","237","314293","0.0-12.0-0.67","6065d7d47409810344f7e6bb","650c16f0f2faf8d7a0d14c09","651c1e90c58ed94d241a0786","null","null","<p style=""font-size: 60px; font-family: BACS"">OAmAdkPM</p>","","","","","","","","",""
"html-keyboard-response","238","315303","0.0-12.0-0.68","6065d7d47409810344f7e6bb","650c16f0f2faf8d7a0d14c09","651c1e90c58ed94d241a0786","null","null","<p style=""font-size: 60px; font-family: BACS"">EMYKkKE</p>","","","","","","","","",""
"html-keyboard-response","239","316308","0.0-12.0-0.69","6065d7d47409810344f7e6bb","650c16f0f2faf8d7a0d14c09","651c1e90c58ed94d241a0786","null","null","<p style=""font-size: 60px; font-family: BACS"">dMYBPbTE</p>","","","","","","","","",""
"html-keyboard-response","240","317320","0.0-12.0-0.70","6065d7d47409810344f7e6bb","650c16f0f2faf8d7a0d14c09","651c1e90c58ed94d241a0786","null","null","<p style=""font-size: 60px; font-family: BACS"">alJYaQr</p>","","","","","","","","",""
"html-keyboard-response","241","318322","0.0-12.0-0.71","6065d7d47409810344f7e6bb","650c16f0f2faf8d7a0d14c09","651c1e90c58ed94d241a0786","null","null","<p style=""font-size: 60px; font-family: BACS"">ctktbTE</p>","","","","","","","","",""
"html-keyboard-response","242","319335","0.0-12.0-0.72","6065d7d47409810344f7e6bb","650c16f0f2faf8d7a0d14c09","651c1e90c58ed94d241a0786","null","null","<p style=""font-size: 60px; font-family: BACS"">BKDRYbAMO</p>","","","","","","","","",""
"html-keyboard-response","243","320347","0.0-12.0-0.73","6065d7d47409810344f7e6bb","650c16f0f2faf8d7a0d14c09","651c1e90c58ed94d241a0786","null","null","<p style=""font-size: 60px; font-family: BACS"">YuaNdlLG</p>","","","","","","","","",""
"html-keyboard-response","244","321356","0.0-12.0-0.74","6065d7d47409810344f7e6bb","650c16f0f2faf8d7a0d14c09","651c1e90c58ed94d241a0786","null","null","<p style=""font-size: 60px; font-family: BACS"">mBYlkKE</p>","","","","","","","","",""
"html-keyboard-response","245","322364","0.0-12.0-0.75","6065d7d47409810344f7e6bb","650c16f0f2faf8d7a0d14c09","651c1e90c58ed94d241a0786","null","null","<p style=""font-size: 60px; font-family: BACS"">UAcdulLG</p>","","","","","","","","",""
"html-keyboard-response","246","323370","0.0-12.0-0.76","6065d7d47409810344f7e6bb","650c16f0f2faf8d7a0d14c09","651c1e90c58ed94d241a0786","null","null","<p style=""font-size: 60px; font-family: BACS"">EMYKCkbd</p>","","","","","","","","",""
"html-keyboard-response","247","324372","0.0-12.0-0.77","6065d7d47409810344f7e6bb","650c16f0f2faf8d7a0d14c09","651c1e90c58ed94d241a0786","null","null","<p style=""font-size: 60px; font-family: BACS"">BKDRYbTE</p>","","","","","","","","",""
"html-keyboard-response","248","325383","0.0-12.0-0.78","6065d7d47409810344f7e6bb","650c16f0f2faf8d7a0d14c09","651c1e90c58ed94d241a0786","null","null","<p style=""font-size: 60px; font-family: BACS"">UvOGlvk</p>","","","","","","","","",""
"html-keyboard-response","249","326391","0.0-12.0-0.79","6065d7d47409810344f7e6bb","650c16f0f2faf8d7a0d14c09","651c1e90c58ed94d241a0786","null","null","<p style=""font-size: 60px; font-family: BACS"">BOCRMCkbd</p>","","","","","","","","",""
"html-keyboard-response","250","368987","0.0-13.0","6065d7d47409810344f7e6bb","650c16f0f2faf8d7a0d14c09","651c1e90c58ed94d241a0786","42594"," ","<p>Great, you've seen the third block of words. You may now take a short break.</p>
      <p>Press the spacebar when you're ready to continue.</p>","","","","","","","","",""
"html-keyboard-response","251","369997","0.0-14.0-0.0","6065d7d47409810344f7e6bb","650c16f0f2faf8d7a0d14c09","651c1e90c58ed94d241a0786","null","null","<p style=""font-size: 60px; font-family: BACS"">alJYlLG</p>","","","","","","","","",""
"html-keyboard-response","252","371006","0.0-14.0-0.1","6065d7d47409810344f7e6bb","650c16f0f2faf8d7a0d14c09","651c1e90c58ed94d241a0786","null","null","<p style=""font-size: 60px; font-family: BACS"">mBYlkPM</p>","","","","","","","","",""
"html-keyboard-response","253","372019","0.0-14.0-0.2","6065d7d47409810344f7e6bb","650c16f0f2faf8d7a0d14c09","651c1e90c58ed94d241a0786","null","null","<p style=""font-size: 60px; font-family: BACS"">PEkhACkbd</p>","","","","","","","","",""
"html-keyboard-response","254","373023","0.0-14.0-0.3","6065d7d47409810344f7e6bb","650c16f0f2faf8d7a0d14c09","651c1e90c58ed94d241a0786","null","null","<p style=""font-size: 60px; font-family: BACS"">dMYBPkKE</p>","","","","","","","","",""
"html-keyboard-response","255","374029","0.0-14.0-0.4","6065d7d47409810344f7e6bb","650c16f0f2faf8d7a0d14c09","651c1e90c58ed94d241a0786","null","null","<p style=""font-size: 60px; font-family: BACS"">kbmZOlLG</p>","","","","","","","","",""
"html-keyboard-response","256","375033","0.0-14.0-0.5","6065d7d47409810344f7e6bb","650c16f0f2faf8d7a0d14c09","651c1e90c58ed94d241a0786","null","null","<p style=""font-size: 60px; font-family: BACS"">YuaNdrAm</p>","","","","","","","","",""
"html-keyboard-response","257","376045","0.0-14.0-0.6","6065d7d47409810344f7e6bb","650c16f0f2faf8d7a0d14c09","651c1e90c58ed94d241a0786","null","null","<p style=""font-size: 60px; font-family: BACS"">alJYaQr</p>","","","","","","","","",""
"html-keyboard-response","258","377048","0.0-14.0-0.7","6065d7d47409810344f7e6bb","650c16f0f2faf8d7a0d14c09","651c1e90c58ed94d241a0786","null","null","<p style=""font-size: 60px; font-family: BACS"">OAmAdbAMO</p>","","","","","","","","",""
"html-keyboard-response","259","378050","0.0-14.0-0.8","6065d7d47409810344f7e6bb","650c16f0f2faf8d7a0d14c09","651c1e90c58ed94d241a0786","null","null","<p style=""font-size: 60px; font-family: BACS"">bRABtkPM</p>","","","","","","","","",""
"html-keyboard-response","260","379058","0.0-14.0-0.9","6065d7d47409810344f7e6bb","650c16f0f2faf8d7a0d14c09","651c1e90c58ed94d241a0786","null","null","<p style=""font-size: 60px; font-family: BACS"">PEkhAkKE</p>","","","","","","","","",""
"html-keyboard-response","261","380063","0.0-14.0-0.10","6065d7d47409810344f7e6bb","650c16f0f2faf8d7a0d14c09","651c1e90c58ed94d241a0786","null","null","<p style=""font-size: 60px; font-family: BACS"">mBYlbAMO</p>","","","","","","","","",""
"html-keyboard-response","262","381076","0.0-14.0-0.11","6065d7d47409810344f7e6bb","650c16f0f2faf8d7a0d14c09","651c1e90c58ed94d241a0786","null","null","<p style=""font-size: 60px; font-family: BACS"">bRABtbTE</p>","","","","","","","","",""
"html-keyboard-response","263","382087","0.0-14.0-0.12","6065d7d47409810344f7e6bb","650c16f0f2faf8d7a0d14c09","651c1e90c58ed94d241a0786","null","null","<p style=""font-size: 60px; font-family: BACS"">uQuZcrAm</p>","","","","","","","","",""
"html-keyboard-response","264","383102","0.0-14.0-0.13","6065d7d47409810344f7e6bb","650c16f0f2faf8d7a0d14c09","651c1e90c58ed94d241a0786","null","null","<p style=""font-size: 60px; font-family: BACS"">OAmAdCkbd</p>","","","","","","","","",""
"html-keyboard-response","265","384110","0.0-14.0-0.14","6065d7d47409810344f7e6bb","650c16f0f2faf8d7a0d14c09","651c1e90c58ed94d241a0786","null","null","<p style=""font-size: 60px; font-family: BACS"">mcOJaQr</p>","","","","","","","","",""
"html-keyboard-response","266","385120","0.0-14.0-0.15","6065d7d47409810344f7e6bb","650c16f0f2faf8d7a0d14c09","651c1e90c58ed94d241a0786","null","null","<p style=""font-size: 60px; font-family: BACS"">dMYBPbAMO</p>","","","","","","","","",""
"html-keyboard-response","267","386125","0.0-14.0-0.16","6065d7d47409810344f7e6bb","650c16f0f2faf8d7a0d14c09","651c1e90c58ed94d241a0786","null","null","<p style=""font-size: 60px; font-family: BACS"">UAcdulvk</p>","","","","","","","","",""
"html-keyboard-response","268","387130","0.0-14.0-0.17","6065d7d47409810344f7e6bb","650c16f0f2faf8d7a0d14c09","651c1e90c58ed94d241a0786","null","null","<p style=""font-size: 60px; font-family: BACS"">YuaNdlLG</p>","","","","","","","","",""
"html-keyboard-response","269","388140","0.0-14.0-0.18","6065d7d47409810344f7e6bb","650c16f0f2faf8d7a0d14c09","651c1e90c58ed94d241a0786","null","null","<p style=""font-size: 60px; font-family: BACS"">PEkhAkPM</p>","","","","","","","","",""
"html-keyboard-response","270","389141","0.0-14.0-0.19","6065d7d47409810344f7e6bb","650c16f0f2faf8d7a0d14c09","651c1e90c58ed94d241a0786","null","null","<p style=""font-size: 60px; font-family: BACS"">BOCRMCkbd</p>","","","","","","","","",""
"html-keyboard-response","271","390155","0.0-14.0-0.20","6065d7d47409810344f7e6bb","650c16f0f2faf8d7a0d14c09","651c1e90c58ed94d241a0786","null","null","<p style=""font-size: 60px; font-family: BACS"">NbacAaQr</p>","","","","","","","","",""
"html-keyboard-response","272","391166","0.0-14.0-0.21","6065d7d47409810344f7e6bb","650c16f0f2faf8d7a0d14c09","651c1e90c58ed94d241a0786","null","null","<p style=""font-size: 60px; font-family: BACS"">dMYBPkPM</p>","","","","","","","","",""
"html-keyboard-response","273","392168","0.0-14.0-0.22","6065d7d47409810344f7e6bb","650c16f0f2faf8d7a0d14c09","651c1e90c58ed94d241a0786","null","null","<p style=""font-size: 60px; font-family: BACS"">QOLmuaQr</p>","","","","","","","","",""
"html-keyboard-response","274","393171","0.0-14.0-0.23","6065d7d47409810344f7e6bb","650c16f0f2faf8d7a0d14c09","651c1e90c58ed94d241a0786","null","null","<p style=""font-size: 60px; font-family: BACS"">EMYKbTE</p>","","","","","","","","",""
"html-keyboard-response","275","394174","0.0-14.0-0.24","6065d7d47409810344f7e6bb","650c16f0f2faf8d7a0d14c09","651c1e90c58ed94d241a0786","null","null","<p style=""font-size: 60px; font-family: BACS"">QOLmumvG</p>","","","","","","","","",""
"html-keyboard-response","276","395177","0.0-14.0-0.25","6065d7d47409810344f7e6bb","650c16f0f2faf8d7a0d14c09","651c1e90c58ed94d241a0786","null","null","<p style=""font-size: 60px; font-family: BACS"">dMYBPbTE</p>","","","","","","","","",""
"html-keyboard-response","277","396188","0.0-14.0-0.26","6065d7d47409810344f7e6bb","650c16f0f2faf8d7a0d14c09","651c1e90c58ed94d241a0786","null","null","<p style=""font-size: 60px; font-family: BACS"">YuaNdaQr</p>","","","","","","","","",""
"html-keyboard-response","278","397198","0.0-14.0-0.27","6065d7d47409810344f7e6bb","650c16f0f2faf8d7a0d14c09","651c1e90c58ed94d241a0786","null","null","<p style=""font-size: 60px; font-family: BACS"">ctktbTE</p>","","","","","","","","",""
"html-keyboard-response","279","398208","0.0-14.0-0.28","6065d7d47409810344f7e6bb","650c16f0f2faf8d7a0d14c09","651c1e90c58ed94d241a0786","null","null","<p style=""font-size: 60px; font-family: BACS"">BKDRYkPM</p>","","","","","","","","",""
"html-keyboard-response","280","399215","0.0-14.0-0.29","6065d7d47409810344f7e6bb","650c16f0f2faf8d7a0d14c09","651c1e90c58ed94d241a0786","null","null","<p style=""font-size: 60px; font-family: BACS"">NbacAlLG</p>","","","","","","","","",""
"html-keyboard-response","281","400224","0.0-14.0-0.30","6065d7d47409810344f7e6bb","650c16f0f2faf8d7a0d14c09","651c1e90c58ed94d241a0786","null","null","<p style=""font-size: 60px; font-family: BACS"">bRABtCkbd</p>","","","","","","","","",""
"html-keyboard-response","282","401229","0.0-14.0-0.31","6065d7d47409810344f7e6bb","650c16f0f2faf8d7a0d14c09","651c1e90c58ed94d241a0786","null","null","<p style=""font-size: 60px; font-family: BACS"">kbmZOlvk</p>","","","","","","","","",""
"html-keyboard-response","283","402232","0.0-14.0-0.32","6065d7d47409810344f7e6bb","650c16f0f2faf8d7a0d14c09","651c1e90c58ed94d241a0786","null","null","<p style=""font-size: 60px; font-family: BACS"">BOCRMbTE</p>","","","","","","","","",""
"html-keyboard-response","284","403236","0.0-14.0-0.33","6065d7d47409810344f7e6bb","650c16f0f2faf8d7a0d14c09","651c1e90c58ed94d241a0786","null","null","<p style=""font-size: 60px; font-family: BACS"">kbmZOmvG</p>","","","","","","","","",""
"html-keyboard-response","285","404244","0.0-14.0-0.34","6065d7d47409810344f7e6bb","650c16f0f2faf8d7a0d14c09","651c1e90c58ed94d241a0786","null","null","<p style=""font-size: 60px; font-family: BACS"">KdARCkbd</p>","","","","","","","","",""
"html-keyboard-response","286","405254","0.0-14.0-0.35","6065d7d47409810344f7e6bb","650c16f0f2faf8d7a0d14c09","651c1e90c58ed94d241a0786","null","null","<p style=""font-size: 60px; font-family: BACS"">UvOGlvk</p>","","","","","","","","",""
"html-keyboard-response","287","406260","0.0-14.0-0.36","6065d7d47409810344f7e6bb","650c16f0f2faf8d7a0d14c09","651c1e90c58ed94d241a0786","null","null","<p style=""font-size: 60px; font-family: BACS"">KdARbTE</p>","","","","","","","","",""
"html-keyboard-response","288","407271","0.0-14.0-0.37","6065d7d47409810344f7e6bb","650c16f0f2faf8d7a0d14c09","651c1e90c58ed94d241a0786","null","null","<p style=""font-size: 60px; font-family: BACS"">UvOGaQr</p>","","","","","","","","",""
"html-keyboard-response","289","408274","0.0-14.0-0.38","6065d7d47409810344f7e6bb","650c16f0f2faf8d7a0d14c09","651c1e90c58ed94d241a0786","null","null","<p style=""font-size: 60px; font-family: BACS"">OAmAdkKE</p>","","","","","","","","",""
"html-keyboard-response","290","409288","0.0-14.0-0.39","6065d7d47409810344f7e6bb","650c16f0f2faf8d7a0d14c09","651c1e90c58ed94d241a0786","null","null","<p style=""font-size: 60px; font-family: BACS"">uQuZclLG</p>","","","","","","","","",""
"html-keyboard-response","291","410292","0.0-14.0-0.40","6065d7d47409810344f7e6bb","650c16f0f2faf8d7a0d14c09","651c1e90c58ed94d241a0786","null","null","<p style=""font-size: 60px; font-family: BACS"">mcOJrAm</p>","","","","","","","","",""
"html-keyboard-response","292","411306","0.0-14.0-0.41","6065d7d47409810344f7e6bb","650c16f0f2faf8d7a0d14c09","651c1e90c58ed94d241a0786","null","null","<p style=""font-size: 60px; font-family: BACS"">YcdOaQr</p>","","","","","","","","",""
"html-keyboard-response","293","412320","0.0-14.0-0.42","6065d7d47409810344f7e6bb","650c16f0f2faf8d7a0d14c09","651c1e90c58ed94d241a0786","null","null","<p style=""font-size: 60px; font-family: BACS"">EMYKCkbd</p>","","","","","","","","",""
"html-keyboard-response","294","413331","0.0-14.0-0.43","6065d7d47409810344f7e6bb","650c16f0f2faf8d7a0d14c09","651c1e90c58ed94d241a0786","null","null","<p style=""font-size: 60px; font-family: BACS"">UvOGlLG</p>","","","","","","","","",""
"html-keyboard-response","295","414334","0.0-14.0-0.44","6065d7d47409810344f7e6bb","650c16f0f2faf8d7a0d14c09","651c1e90c58ed94d241a0786","null","null","<p style=""font-size: 60px; font-family: BACS"">NbacAlvk</p>","","","","","","","","",""
"html-keyboard-response","296","415346","0.0-14.0-0.45","6065d7d47409810344f7e6bb","650c16f0f2faf8d7a0d14c09","651c1e90c58ed94d241a0786","null","null","<p style=""font-size: 60px; font-family: BACS"">YuaNdmvG</p>","","","","","","","","",""
"html-keyboard-response","297","416357","0.0-14.0-0.46","6065d7d47409810344f7e6bb","650c16f0f2faf8d7a0d14c09","651c1e90c58ed94d241a0786","null","null","<p style=""font-size: 60px; font-family: BACS"">mcOJlvk</p>","","","","","","","","",""
"html-keyboard-response","298","417372","0.0-14.0-0.47","6065d7d47409810344f7e6bb","650c16f0f2faf8d7a0d14c09","651c1e90c58ed94d241a0786","null","null","<p style=""font-size: 60px; font-family: BACS"">uQuZcmvG</p>","","","","","","","","",""
"html-keyboard-response","299","418380","0.0-14.0-0.48","6065d7d47409810344f7e6bb","650c16f0f2faf8d7a0d14c09","651c1e90c58ed94d241a0786","null","null","<p style=""font-size: 60px; font-family: BACS"">QOLmurAm</p>","","","","","","","","",""
"html-keyboard-response","300","419391","0.0-14.0-0.49","6065d7d47409810344f7e6bb","650c16f0f2faf8d7a0d14c09","651c1e90c58ed94d241a0786","null","null","<p style=""font-size: 60px; font-family: BACS"">ctktCkbd</p>","","","","","","","","",""
"html-keyboard-response","301","420392","0.0-14.0-0.50","6065d7d47409810344f7e6bb","650c16f0f2faf8d7a0d14c09","651c1e90c58ed94d241a0786","null","null","<p style=""font-size: 60px; font-family: BACS"">bRABtkKE</p>","","","","","","","","",""
"html-keyboard-response","302","421409","0.0-14.0-0.51","6065d7d47409810344f7e6bb","650c16f0f2faf8d7a0d14c09","651c1e90c58ed94d241a0786","null","null","<p style=""font-size: 60px; font-family: BACS"">KdARbAMO</p>","","","","","","","","",""
"html-keyboard-response","303","422411","0.0-14.0-0.52","6065d7d47409810344f7e6bb","650c16f0f2faf8d7a0d14c09","651c1e90c58ed94d241a0786","null","null","<p style=""font-size: 60px; font-family: BACS"">UvOGmvG</p>","","","","","","","","",""
"html-keyboard-response","304","423413","0.0-14.0-0.53","6065d7d47409810344f7e6bb","650c16f0f2faf8d7a0d14c09","651c1e90c58ed94d241a0786","null","null","<p style=""font-size: 60px; font-family: BACS"">uQuZclvk</p>","","","","","","","","",""
"html-keyboard-response","305","424415","0.0-14.0-0.54","6065d7d47409810344f7e6bb","650c16f0f2faf8d7a0d14c09","651c1e90c58ed94d241a0786","null","null","<p style=""font-size: 60px; font-family: BACS"">OAmAdkPM</p>","","","","","","","","",""
"html-keyboard-response","306","425429","0.0-14.0-0.55","6065d7d47409810344f7e6bb","650c16f0f2faf8d7a0d14c09","651c1e90c58ed94d241a0786","null","null","<p style=""font-size: 60px; font-family: BACS"">ctktbAMO</p>","","","","","","","","",""
"html-keyboard-response","307","426442","0.0-14.0-0.56","6065d7d47409810344f7e6bb","650c16f0f2faf8d7a0d14c09","651c1e90c58ed94d241a0786","null","null","<p style=""font-size: 60px; font-family: BACS"">UAcduaQr</p>","","","","","","","","",""
"html-keyboard-response","308","427452","0.0-14.0-0.57","6065d7d47409810344f7e6bb","650c16f0f2faf8d7a0d14c09","651c1e90c58ed94d241a0786","null","null","<p style=""font-size: 60px; font-family: BACS"">NbacArAm</p>","","","","","","","","",""
"html-keyboard-response","309","428460","0.0-14.0-0.58","6065d7d47409810344f7e6bb","650c16f0f2faf8d7a0d14c09","651c1e90c58ed94d241a0786","null","null","<p style=""font-size: 60px; font-family: BACS"">BKDRYbAMO</p>","","","","","","","","",""
"html-keyboard-response","310","429463","0.0-14.0-0.59","6065d7d47409810344f7e6bb","650c16f0f2faf8d7a0d14c09","651c1e90c58ed94d241a0786","null","null","<p style=""font-size: 60px; font-family: BACS"">EMYKkKE</p>","","","","","","","","",""
"html-keyboard-response","311","430472","0.0-14.0-0.60","6065d7d47409810344f7e6bb","650c16f0f2faf8d7a0d14c09","651c1e90c58ed94d241a0786","null","null","<p style=""font-size: 60px; font-family: BACS"">YcdOmvG</p>","","","","","","","","",""
"html-keyboard-response","312","431480","0.0-14.0-0.61","6065d7d47409810344f7e6bb","650c16f0f2faf8d7a0d14c09","651c1e90c58ed94d241a0786","null","null","<p style=""font-size: 60px; font-family: BACS"">BKDRYkKE</p>","","","","","","","","",""
"html-keyboard-response","313","432490","0.0-14.0-0.62","6065d7d47409810344f7e6bb","650c16f0f2faf8d7a0d14c09","651c1e90c58ed94d241a0786","null","null","<p style=""font-size: 60px; font-family: BACS"">UAcdurAm</p>","","","","","","","","",""
"html-keyboard-response","314","433494","0.0-14.0-0.63","6065d7d47409810344f7e6bb","650c16f0f2faf8d7a0d14c09","651c1e90c58ed94d241a0786","null","null","<p style=""font-size: 60px; font-family: BACS"">mcOJmvG</p>","","","","","","","","",""
"html-keyboard-response","315","434500","0.0-14.0-0.64","6065d7d47409810344f7e6bb","650c16f0f2faf8d7a0d14c09","651c1e90c58ed94d241a0786","null","null","<p style=""font-size: 60px; font-family: BACS"">UAcdulLG</p>","","","","","","","","",""
"html-keyboard-response","316","435513","0.0-14.0-0.65","6065d7d47409810344f7e6bb","650c16f0f2faf8d7a0d14c09","651c1e90c58ed94d241a0786","null","null","<p style=""font-size: 60px; font-family: BACS"">mBYlkKE</p>","","","","","","","","",""
"html-keyboard-response","317","436525","0.0-14.0-0.66","6065d7d47409810344f7e6bb","650c16f0f2faf8d7a0d14c09","651c1e90c58ed94d241a0786","null","null","<p style=""font-size: 60px; font-family: BACS"">BOCRMkPM</p>","","","","","","","","",""
"html-keyboard-response","318","437536","0.0-14.0-0.67","6065d7d47409810344f7e6bb","650c16f0f2faf8d7a0d14c09","651c1e90c58ed94d241a0786","null","null","<p style=""font-size: 60px; font-family: BACS"">PEkhAbTE</p>","","","","","","","","",""
"html-keyboard-response","319","438540","0.0-14.0-0.68","6065d7d47409810344f7e6bb","650c16f0f2faf8d7a0d14c09","651c1e90c58ed94d241a0786","null","null","<p style=""font-size: 60px; font-family: BACS"">alJYrAm</p>","","","","","","","","",""
"html-keyboard-response","320","439543","0.0-14.0-0.69","6065d7d47409810344f7e6bb","650c16f0f2faf8d7a0d14c09","651c1e90c58ed94d241a0786","null","null","<p style=""font-size: 60px; font-family: BACS"">YcdOlvk</p>","","","","","","","","",""
"html-keyboard-response","321","440549","0.0-14.0-0.70","6065d7d47409810344f7e6bb","650c16f0f2faf8d7a0d14c09","651c1e90c58ed94d241a0786","null","null","<p style=""font-size: 60px; font-family: BACS"">BKDRYbTE</p>","","","","","","","","",""
"html-keyboard-response","322","441563","0.0-14.0-0.71","6065d7d47409810344f7e6bb","650c16f0f2faf8d7a0d14c09","651c1e90c58ed94d241a0786","null","null","<p style=""font-size: 60px; font-family: BACS"">YcdOlLG</p>","","","","","","","","",""
"html-keyboard-response","323","442576","0.0-14.0-0.72","6065d7d47409810344f7e6bb","650c16f0f2faf8d7a0d14c09","651c1e90c58ed94d241a0786","null","null","<p style=""font-size: 60px; font-family: BACS"">ctktkKE</p>","","","","","","","","",""
"html-keyboard-response","324","443579","0.0-14.0-0.73","6065d7d47409810344f7e6bb","650c16f0f2faf8d7a0d14c09","651c1e90c58ed94d241a0786","null","null","<p style=""font-size: 60px; font-family: BACS"">kbmZOrAm</p>","","","","","","","","",""
"html-keyboard-response","325","444594","0.0-14.0-0.74","6065d7d47409810344f7e6bb","650c16f0f2faf8d7a0d14c09","651c1e90c58ed94d241a0786","null","null","<p style=""font-size: 60px; font-family: BACS"">QOLmulvk</p>","","","","","","","","",""
"html-keyboard-response","326","445600","0.0-14.0-0.75","6065d7d47409810344f7e6bb","650c16f0f2faf8d7a0d14c09","651c1e90c58ed94d241a0786","null","null","<p style=""font-size: 60px; font-family: BACS"">mBYlCkbd</p>","","","","","","","","",""
"html-keyboard-response","327","446603","0.0-14.0-0.76","6065d7d47409810344f7e6bb","650c16f0f2faf8d7a0d14c09","651c1e90c58ed94d241a0786","null","null","<p style=""font-size: 60px; font-family: BACS"">KdARkPM</p>","","","","","","","","",""
"html-keyboard-response","328","447609","0.0-14.0-0.77","6065d7d47409810344f7e6bb","650c16f0f2faf8d7a0d14c09","651c1e90c58ed94d241a0786","null","null","<p style=""font-size: 60px; font-family: BACS"">BOCRMbAMO</p>","","","","","","","","",""
"html-keyboard-response","329","448623","0.0-14.0-0.78","6065d7d47409810344f7e6bb","650c16f0f2faf8d7a0d14c09","651c1e90c58ed94d241a0786","null","null","<p style=""font-size: 60px; font-family: BACS"">alJYmvG</p>","","","","","","","","",""
"html-keyboard-response","330","449624","0.0-14.0-0.79","6065d7d47409810344f7e6bb","650c16f0f2faf8d7a0d14c09","651c1e90c58ed94d241a0786","null","null","<p style=""font-size: 60px; font-family: BACS"">EMYKbAMO</p>","","","","","","","","",""
"html-keyboard-response","331","499884","0.0-15.0","6065d7d47409810344f7e6bb","650c16f0f2faf8d7a0d14c09","651c1e90c58ed94d241a0786","50258"," ","<p>Great, you've seen the fourth block of words. You may now take a short break.</p>
      <p>Press the spacebar when you're ready to continue.</p>","","","","","","","","",""
"html-keyboard-response","332","500893","0.0-16.0-0.0","6065d7d47409810344f7e6bb","650c16f0f2faf8d7a0d14c09","651c1e90c58ed94d241a0786","null","null","<p style=""font-size: 60px; font-family: BACS"">dMYBPbTE</p>","","","","","","","","",""
"html-keyboard-response","333","501905","0.0-16.0-0.1","6065d7d47409810344f7e6bb","650c16f0f2faf8d7a0d14c09","651c1e90c58ed94d241a0786","null","null","<p style=""font-size: 60px; font-family: BACS"">dMYBPbTE</p>","","","","","","","","",""
"html-keyboard-response","334","502911","0.0-16.0-0.2","6065d7d47409810344f7e6bb","650c16f0f2faf8d7a0d14c09","651c1e90c58ed94d241a0786","null","null","<p style=""font-size: 60px; font-family: BACS"">dMYBPbTE</p>","","","","","","","","",""
"html-keyboard-response","335","503914","0.0-16.0-0.3","6065d7d47409810344f7e6bb","650c16f0f2faf8d7a0d14c09","651c1e90c58ed94d241a0786","null","null","<p style=""font-size: 60px; font-family: BACS"">dMYBPbTE</p>","","","","","","","","",""
"html-keyboard-response","336","504922","0.0-16.0-0.4","6065d7d47409810344f7e6bb","650c16f0f2faf8d7a0d14c09","651c1e90c58ed94d241a0786","null","null","<p style=""font-size: 60px; font-family: BACS"">dMYBPbTE</p>","","","","","","","","",""
"html-keyboard-response","337","505933","0.0-16.0-0.5","6065d7d47409810344f7e6bb","650c16f0f2faf8d7a0d14c09","651c1e90c58ed94d241a0786","null","null","<p style=""font-size: 60px; font-family: BACS"">dMYBPbTE</p>","","","","","","","","",""
"html-keyboard-response","338","506944","0.0-16.0-0.6","6065d7d47409810344f7e6bb","650c16f0f2faf8d7a0d14c09","651c1e90c58ed94d241a0786","null","null","<p style=""font-size: 60px; font-family: BACS"">dMYBPbTE</p>","","","","","","","","",""
"html-keyboard-response","339","507947","0.0-16.0-0.7","6065d7d47409810344f7e6bb","650c16f0f2faf8d7a0d14c09","651c1e90c58ed94d241a0786","null","null","<p style=""font-size: 60px; font-family: BACS"">dMYBPbTE</p>","","","","","","","","",""
"html-keyboard-response","340","508961","0.0-16.0-0.8","6065d7d47409810344f7e6bb","650c16f0f2faf8d7a0d14c09","651c1e90c58ed94d241a0786","null","null","<p style=""font-size: 60px; font-family: BACS"">dMYBPbTE</p>","","","","","","","","",""
"html-keyboard-response","341","509971","0.0-16.0-0.9","6065d7d47409810344f7e6bb","650c16f0f2faf8d7a0d14c09","651c1e90c58ed94d241a0786","null","null","<p style=""font-size: 60px; font-family: BACS"">dMYBPbTE</p>","","","","","","","","",""
"html-keyboard-response","342","510973","0.0-16.0-0.10","6065d7d47409810344f7e6bb","650c16f0f2faf8d7a0d14c09","651c1e90c58ed94d241a0786","null","null","<p style=""font-size: 60px; font-family: BACS"">dMYBPbTE</p>","","","","","","","","",""
"html-keyboard-response","343","511985","0.0-16.0-0.11","6065d7d47409810344f7e6bb","650c16f0f2faf8d7a0d14c09","651c1e90c58ed94d241a0786","null","null","<p style=""font-size: 60px; font-family: BACS"">dMYBPbTE</p>","","","","","","","","",""
"html-keyboard-response","344","512992","0.0-16.0-0.12","6065d7d47409810344f7e6bb","650c16f0f2faf8d7a0d14c09","651c1e90c58ed94d241a0786","null","null","<p style=""font-size: 60px; font-family: BACS"">dMYBPbTE</p>","","","","","","","","",""
"html-keyboard-response","345","514002","0.0-16.0-0.13","6065d7d47409810344f7e6bb","650c16f0f2faf8d7a0d14c09","651c1e90c58ed94d241a0786","null","null","<p style=""font-size: 60px; font-family: BACS"">dMYBPbTE</p>","","","","","","","","",""
"html-keyboard-response","346","515006","0.0-16.0-0.14","6065d7d47409810344f7e6bb","650c16f0f2faf8d7a0d14c09","651c1e90c58ed94d241a0786","null","null","<p style=""font-size: 60px; font-family: BACS"">dMYBPbTE</p>","","","","","","","","",""
"html-keyboard-response","347","516018","0.0-16.0-0.15","6065d7d47409810344f7e6bb","650c16f0f2faf8d7a0d14c09","651c1e90c58ed94d241a0786","null","null","<p style=""font-size: 60px; font-family: BACS"">dMYBPbTE</p>","","","","","","","","",""
"html-keyboard-response","348","517029","0.0-16.0-0.16","6065d7d47409810344f7e6bb","650c16f0f2faf8d7a0d14c09","651c1e90c58ed94d241a0786","null","null","<p style=""font-size: 60px; font-family: BACS"">dMYBPbTE</p>","","","","","","","","",""
"html-keyboard-response","349","518032","0.0-16.0-0.17","6065d7d47409810344f7e6bb","650c16f0f2faf8d7a0d14c09","651c1e90c58ed94d241a0786","null","null","<p style=""font-size: 60px; font-family: BACS"">dMYBPbTE</p>","","","","","","","","",""
"html-keyboard-response","350","519040","0.0-16.0-0.18","6065d7d47409810344f7e6bb","650c16f0f2faf8d7a0d14c09","651c1e90c58ed94d241a0786","null","null","<p style=""font-size: 60px; font-family: BACS"">dMYBPbTE</p>","","","","","","","","",""
"html-keyboard-response","351","520043","0.0-16.0-0.19","6065d7d47409810344f7e6bb","650c16f0f2faf8d7a0d14c09","651c1e90c58ed94d241a0786","null","null","<p style=""font-size: 60px; font-family: BACS"">dMYBPbTE</p>","","","","","","","","",""
"html-keyboard-response","352","521048","0.0-16.0-0.20","6065d7d47409810344f7e6bb","650c16f0f2faf8d7a0d14c09","651c1e90c58ed94d241a0786","null","null","<p style=""font-size: 60px; font-family: BACS"">dMYBPbTE</p>","","","","","","","","",""
"html-keyboard-response","353","522062","0.0-16.0-0.21","6065d7d47409810344f7e6bb","650c16f0f2faf8d7a0d14c09","651c1e90c58ed94d241a0786","null","null","<p style=""font-size: 60px; font-family: BACS"">dMYBPbTE</p>","","","","","","","","",""
"html-keyboard-response","354","523076","0.0-16.0-0.22","6065d7d47409810344f7e6bb","650c16f0f2faf8d7a0d14c09","651c1e90c58ed94d241a0786","null","null","<p style=""font-size: 60px; font-family: BACS"">dMYBPbTE</p>","","","","","","","","",""
"html-keyboard-response","355","524081","0.0-16.0-0.23","6065d7d47409810344f7e6bb","650c16f0f2faf8d7a0d14c09","651c1e90c58ed94d241a0786","null","null","<p style=""font-size: 60px; font-family: BACS"">dMYBPbTE</p>","","","","","","","","",""
"html-keyboard-response","356","525087","0.0-16.0-0.24","6065d7d47409810344f7e6bb","650c16f0f2faf8d7a0d14c09","651c1e90c58ed94d241a0786","null","null","<p style=""font-size: 60px; font-family: BACS"">dMYBPbTE</p>","","","","","","","","",""
"html-keyboard-response","357","526096","0.0-16.0-0.25","6065d7d47409810344f7e6bb","650c16f0f2faf8d7a0d14c09","651c1e90c58ed94d241a0786","null","null","<p style=""font-size: 60px; font-family: BACS"">dMYBPbTE</p>","","","","","","","","",""
"html-keyboard-response","358","527110","0.0-16.0-0.26","6065d7d47409810344f7e6bb","650c16f0f2faf8d7a0d14c09","651c1e90c58ed94d241a0786","null","null","<p style=""font-size: 60px; font-family: BACS"">dMYBPbTE</p>","","","","","","","","",""
"html-keyboard-response","359","528112","0.0-16.0-0.27","6065d7d47409810344f7e6bb","650c16f0f2faf8d7a0d14c09","651c1e90c58ed94d241a0786","null","null","<p style=""font-size: 60px; font-family: BACS"">dMYBPbTE</p>","","","","","","","","",""
"html-keyboard-response","360","529114","0.0-16.0-0.28","6065d7d47409810344f7e6bb","650c16f0f2faf8d7a0d14c09","651c1e90c58ed94d241a0786","null","null","<p style=""font-size: 60px; font-family: BACS"">dMYBPbTE</p>","","","","","","","","",""
"html-keyboard-response","361","530117","0.0-16.0-0.29","6065d7d47409810344f7e6bb","650c16f0f2faf8d7a0d14c09","651c1e90c58ed94d241a0786","null","null","<p style=""font-size: 60px; font-family: BACS"">dMYBPbTE</p>","","","","","","","","",""
"html-keyboard-response","362","531122","0.0-16.0-0.30","6065d7d47409810344f7e6bb","650c16f0f2faf8d7a0d14c09","651c1e90c58ed94d241a0786","null","null","<p style=""font-size: 60px; font-family: BACS"">dMYBPbTE</p>","","","","","","","","",""
"html-keyboard-response","363","532138","0.0-16.0-0.31","6065d7d47409810344f7e6bb","650c16f0f2faf8d7a0d14c09","651c1e90c58ed94d241a0786","null","null","<p style=""font-size: 60px; font-family: BACS"">dMYBPbTE</p>","","","","","","","","",""
"html-keyboard-response","364","533150","0.0-16.0-0.32","6065d7d47409810344f7e6bb","650c16f0f2faf8d7a0d14c09","651c1e90c58ed94d241a0786","null","null","<p style=""font-size: 60px; font-family: BACS"">dMYBPbTE</p>","","","","","","","","",""
"html-keyboard-response","365","534165","0.0-16.0-0.33","6065d7d47409810344f7e6bb","650c16f0f2faf8d7a0d14c09","651c1e90c58ed94d241a0786","null","null","<p style=""font-size: 60px; font-family: BACS"">dMYBPbTE</p>","","","","","","","","",""
"html-keyboard-response","366","535170","0.0-16.0-0.34","6065d7d47409810344f7e6bb","650c16f0f2faf8d7a0d14c09","651c1e90c58ed94d241a0786","null","null","<p style=""font-size: 60px; font-family: BACS"">dMYBPbTE</p>","","","","","","","","",""
"html-keyboard-response","367","536177","0.0-16.0-0.35","6065d7d47409810344f7e6bb","650c16f0f2faf8d7a0d14c09","651c1e90c58ed94d241a0786","null","null","<p style=""font-size: 60px; font-family: BACS"">dMYBPbTE</p>","","","","","","","","",""
"html-keyboard-response","368","537180","0.0-16.0-0.36","6065d7d47409810344f7e6bb","650c16f0f2faf8d7a0d14c09","651c1e90c58ed94d241a0786","null","null","<p style=""font-size: 60px; font-family: BACS"">dMYBPbTE</p>","","","","","","","","",""
"html-keyboard-response","369","538186","0.0-16.0-0.37","6065d7d47409810344f7e6bb","650c16f0f2faf8d7a0d14c09","651c1e90c58ed94d241a0786","null","null","<p style=""font-size: 60px; font-family: BACS"">dMYBPbTE</p>","","","","","","","","",""
"html-keyboard-response","370","539201","0.0-16.0-0.38","6065d7d47409810344f7e6bb","650c16f0f2faf8d7a0d14c09","651c1e90c58ed94d241a0786","null","null","<p style=""font-size: 60px; font-family: BACS"">dMYBPbTE</p>","","","","","","","","",""
"html-keyboard-response","371","540207","0.0-16.0-0.39","6065d7d47409810344f7e6bb","650c16f0f2faf8d7a0d14c09","651c1e90c58ed94d241a0786","null","null","<p style=""font-size: 60px; font-family: BACS"">dMYBPbTE</p>","","","","","","","","",""
"html-keyboard-response","372","541210","0.0-16.0-0.40","6065d7d47409810344f7e6bb","650c16f0f2faf8d7a0d14c09","651c1e90c58ed94d241a0786","null","null","<p style=""font-size: 60px; font-family: BACS"">dMYBPbTE</p>","","","","","","","","",""
"html-keyboard-response","373","542220","0.0-16.0-0.41","6065d7d47409810344f7e6bb","650c16f0f2faf8d7a0d14c09","651c1e90c58ed94d241a0786","null","null","<p style=""font-size: 60px; font-family: BACS"">dMYBPbTE</p>","","","","","","","","",""
"html-keyboard-response","374","543226","0.0-16.0-0.42","6065d7d47409810344f7e6bb","650c16f0f2faf8d7a0d14c09","651c1e90c58ed94d241a0786","null","null","<p style=""font-size: 60px; font-family: BACS"">dMYBPbTE</p>","","","","","","","","",""
"html-keyboard-response","375","544241","0.0-16.0-0.43","6065d7d47409810344f7e6bb","650c16f0f2faf8d7a0d14c09","651c1e90c58ed94d241a0786","null","null","<p style=""font-size: 60px; font-family: BACS"">dMYBPbTE</p>","","","","","","","","",""
"html-keyboard-response","376","545245","0.0-16.0-0.44","6065d7d47409810344f7e6bb","650c16f0f2faf8d7a0d14c09","651c1e90c58ed94d241a0786","null","null","<p style=""font-size: 60px; font-family: BACS"">dMYBPbTE</p>","","","","","","","","",""
"html-keyboard-response","377","546251","0.0-16.0-0.45","6065d7d47409810344f7e6bb","650c16f0f2faf8d7a0d14c09","651c1e90c58ed94d241a0786","null","null","<p style=""font-size: 60px; font-family: BACS"">dMYBPbTE</p>","","","","","","","","",""
"html-keyboard-response","378","547266","0.0-16.0-0.46","6065d7d47409810344f7e6bb","650c16f0f2faf8d7a0d14c09","651c1e90c58ed94d241a0786","null","null","<p style=""font-size: 60px; font-family: BACS"">dMYBPbTE</p>","","","","","","","","",""
"html-keyboard-response","379","548269","0.0-16.0-0.47","6065d7d47409810344f7e6bb","650c16f0f2faf8d7a0d14c09","651c1e90c58ed94d241a0786","null","null","<p style=""font-size: 60px; font-family: BACS"">dMYBPbTE</p>","","","","","","","","",""
"html-keyboard-response","380","549273","0.0-16.0-0.48","6065d7d47409810344f7e6bb","650c16f0f2faf8d7a0d14c09","651c1e90c58ed94d241a0786","null","null","<p style=""font-size: 60px; font-family: BACS"">dMYBPbTE</p>","","","","","","","","",""
"html-keyboard-response","381","550283","0.0-16.0-0.49","6065d7d47409810344f7e6bb","650c16f0f2faf8d7a0d14c09","651c1e90c58ed94d241a0786","null","null","<p style=""font-size: 60px; font-family: BACS"">dMYBPbTE</p>","","","","","","","","",""
"html-keyboard-response","382","551288","0.0-16.0-0.50","6065d7d47409810344f7e6bb","650c16f0f2faf8d7a0d14c09","651c1e90c58ed94d241a0786","null","null","<p style=""font-size: 60px; font-family: BACS"">dMYBPbTE</p>","","","","","","","","",""
"html-keyboard-response","383","552299","0.0-16.0-0.51","6065d7d47409810344f7e6bb","650c16f0f2faf8d7a0d14c09","651c1e90c58ed94d241a0786","null","null","<p style=""font-size: 60px; font-family: BACS"">dMYBPbTE</p>","","","","","","","","",""
"html-keyboard-response","384","553308","0.0-16.0-0.52","6065d7d47409810344f7e6bb","650c16f0f2faf8d7a0d14c09","651c1e90c58ed94d241a0786","null","null","<p style=""font-size: 60px; font-family: BACS"">dMYBPbTE</p>","","","","","","","","",""
"html-keyboard-response","385","554317","0.0-16.0-0.53","6065d7d47409810344f7e6bb","650c16f0f2faf8d7a0d14c09","651c1e90c58ed94d241a0786","null","null","<p style=""font-size: 60px; font-family: BACS"">dMYBPbTE</p>","","","","","","","","",""
"html-keyboard-response","386","555327","0.0-16.0-0.54","6065d7d47409810344f7e6bb","650c16f0f2faf8d7a0d14c09","651c1e90c58ed94d241a0786","null","null","<p style=""font-size: 60px; font-family: BACS"">dMYBPbTE</p>","","","","","","","","",""
"html-keyboard-response","387","556346","0.0-16.0-0.55","6065d7d47409810344f7e6bb","650c16f0f2faf8d7a0d14c09","651c1e90c58ed94d241a0786","null","null","<p style=""font-size: 60px; font-family: BACS"">dMYBPbTE</p>","","","","","","","","",""
"html-keyboard-response","388","557351","0.0-16.0-0.56","6065d7d47409810344f7e6bb","650c16f0f2faf8d7a0d14c09","651c1e90c58ed94d241a0786","null","null","<p style=""font-size: 60px; font-family: BACS"">dMYBPbTE</p>","","","","","","","","",""
"html-keyboard-response","389","558360","0.0-16.0-0.57","6065d7d47409810344f7e6bb","650c16f0f2faf8d7a0d14c09","651c1e90c58ed94d241a0786","null","null","<p style=""font-size: 60px; font-family: BACS"">dMYBPbTE</p>","","","","","","","","",""
"html-keyboard-response","390","559367","0.0-16.0-0.58","6065d7d47409810344f7e6bb","650c16f0f2faf8d7a0d14c09","651c1e90c58ed94d241a0786","null","null","<p style=""font-size: 60px; font-family: BACS"">dMYBPbTE</p>","","","","","","","","",""
"html-keyboard-response","391","560378","0.0-16.0-0.59","6065d7d47409810344f7e6bb","650c16f0f2faf8d7a0d14c09","651c1e90c58ed94d241a0786","null","null","<p style=""font-size: 60px; font-family: BACS"">dMYBPbTE</p>","","","","","","","","",""
"html-keyboard-response","392","561385","0.0-16.0-0.60","6065d7d47409810344f7e6bb","650c16f0f2faf8d7a0d14c09","651c1e90c58ed94d241a0786","null","null","<p style=""font-size: 60px; font-family: BACS"">dMYBPbTE</p>","","","","","","","","",""
"html-keyboard-response","393","562389","0.0-16.0-0.61","6065d7d47409810344f7e6bb","650c16f0f2faf8d7a0d14c09","651c1e90c58ed94d241a0786","null","null","<p style=""font-size: 60px; font-family: BACS"">dMYBPbTE</p>","","","","","","","","",""
"html-keyboard-response","394","563394","0.0-16.0-0.62","6065d7d47409810344f7e6bb","650c16f0f2faf8d7a0d14c09","651c1e90c58ed94d241a0786","null","null","<p style=""font-size: 60px; font-family: BACS"">dMYBPbTE</p>","","","","","","","","",""
"html-keyboard-response","395","564402","0.0-16.0-0.63","6065d7d47409810344f7e6bb","650c16f0f2faf8d7a0d14c09","651c1e90c58ed94d241a0786","null","null","<p style=""font-size: 60px; font-family: BACS"">dMYBPbTE</p>","","","","","","","","",""
"html-keyboard-response","396","565416","0.0-16.0-0.64","6065d7d47409810344f7e6bb","650c16f0f2faf8d7a0d14c09","651c1e90c58ed94d241a0786","null","null","<p style=""font-size: 60px; font-family: BACS"">dMYBPbTE</p>","","","","","","","","",""
"html-keyboard-response","397","566419","0.0-16.0-0.65","6065d7d47409810344f7e6bb","650c16f0f2faf8d7a0d14c09","651c1e90c58ed94d241a0786","null","null","<p style=""font-size: 60px; font-family: BACS"">dMYBPbTE</p>","","","","","","","","",""
"html-keyboard-response","398","567433","0.0-16.0-0.66","6065d7d47409810344f7e6bb","650c16f0f2faf8d7a0d14c09","651c1e90c58ed94d241a0786","null","null","<p style=""font-size: 60px; font-family: BACS"">dMYBPbTE</p>","","","","","","","","",""
"html-keyboard-response","399","568437","0.0-16.0-0.67","6065d7d47409810344f7e6bb","650c16f0f2faf8d7a0d14c09","651c1e90c58ed94d241a0786","null","null","<p style=""font-size: 60px; font-family: BACS"">dMYBPbTE</p>","","","","","","","","",""
"html-keyboard-response","400","569451","0.0-16.0-0.68","6065d7d47409810344f7e6bb","650c16f0f2faf8d7a0d14c09","651c1e90c58ed94d241a0786","null","null","<p style=""font-size: 60px; font-family: BACS"">dMYBPbTE</p>","","","","","","","","",""
