trial_type,trial_index,time_elapsed,internal_node_id,subject_id,study_id,session_id,rt,response,stimulus,success,item,task,correct_response,testing_condition,correct,target,confound,name,view_history
pavlovia,0,1080,0.0-0.0,60f579085ebf24f9c80f223e,650c16f0f2faf8d7a0d14c09,651c1afa0e67b1fcb7bbb06c,,,,,,,,,,,,,
survey-html-form,1,11555,0.0-1.0,60f579085ebf24f9c80f223e,650c16f0f2faf8d7a0d14c09,651c1afa0e67b1fcb7bbb06c,10472,"{""ID"":""60f579085ebf24f9c80f223e""}",,,,,,,,,,,
html-keyboard-response,2,14667,0.0-2.0,60f579085ebf24f9c80f223e,650c16f0f2faf8d7a0d14c09,651c1afa0e67b1fcb7bbb06c,3109, ,"<p style=""font-size: 15px;"">Before beginning, we ask that you read the consent information and confirm your agreement to participate in the experiment.</p>
      <p style=""font-size: 15px;""> We ask that you remember that this is a research project and that your participation is entirely voluntary. You can stop your participation at any time, without needing to provide any explanation. The study we're asking you to participate in aims at examining how readers process written words. You will be engaged in a session of apprximately 20 minutes, followed by a brief questionnaire. You will have the opportunity to take a few breaks during the experiment. You will be paid £4 for your participation, corresponding to a rate of £8/hour. While this experiment looks at cognitive faculties, this experiment doesn't constitute clinical proof of eventual pathologies.</p>
      <p style=""font-size: 15px;"">All of the information collected thanks to yours and others' participation will be held in a secure password-protected server, and will not be shared with anyone not authorised to view it. Your personal information will be kept with an arbitrary participant ID. Thanks to this data anonymity process, any researcher analysing the data won't be able to track the information back to a specific participant. Therefore, this process will make identifying you impossibile, even when results from the study will be published in scientific reviews, presented at congresses, or at any other public forum. More generally, the collected data will be treated in accordance with the laws on privacy and conformity to the Legislative Degree n. 196 ""Code regarding the protection of personal data"" of the 30th of June 2003 and to the European Regulation 2016/670 (General Data Protection Regulation - GDPR). The Data Protection Officer is Avv. Valentina Carollo, who can be contacted at the following email addresses: <a href=""mailto:dpo@sissa.it"">dpo@sissa.it</a> or <a href=""mailto:rpd@sissa.it"">rpd@sissa.it</a> - PEC: <a href=""mailto:protocollo@pec.sissa.it"">protocollo@pec.sissa.it</a>.</p>
      <p style=""font-size: 15px;""> Before expressing your consent to participate, we would like to remind you again that in case you need explanations on any aspect of the experimental procedure, the researcher is at your disposition (<a href=""mailto:aliebelt@sissa.it"">aliebelt@sissa.it</a>, <a href=""mailto:davide.crepaldi@sissa.it"">davide.crepaldi@sissa.it</a>).</p>
      <p style=""font-size: 15px;"">If you would like to download the informed consent form, you can do so here: <a href=""BASL-Informed_Consent.pdf"" download>informed consent form</a>.</p>
      <p style=""font-size: 15px;"">We ask that you press the spacebar to proceed to the consent section.</p>",,,,,,,,,,
survey-html-form,3,22167,0.0-3.0,60f579085ebf24f9c80f223e,650c16f0f2faf8d7a0d14c09,651c1afa0e67b1fcb7bbb06c,7499,"{""consent1"":""YES"",""consent2"":""YES"",""consent3"":""YES"",""consent4"":""YES"",""consent5"":""YES"",""consent6"":""YES""}",,,,,,,,,,,
fullscreen,4,31210,0.0-4.0,60f579085ebf24f9c80f223e,650c16f0f2faf8d7a0d14c09,651c1afa0e67b1fcb7bbb06c,,,,TRUE,,,,,,,,,
html-keyboard-response,5,43418,0.0-5.0,60f579085ebf24f9c80f223e,650c16f0f2faf8d7a0d14c09,651c1afa0e67b1fcb7bbb06c,12207, ,"<p>Welcome, and thank you very much for your time!</p>
      <p>In this experiment, you'll be a language expert who's been asked to take a look at words that Earth has received in its first communication with aliens. Your task, in this first part of the experiment, is to pay close attention to the words you'll be shown; later, world leaders will ask you questions on what you saw. The words will be shown to you quite quickly; it seems that the aliens were in a hurry :-)</p>
      <p>Press the spacebar to continue.<p>",,,,,,,,,,
html-keyboard-response,6,43483,0.0-6.0,60f579085ebf24f9c80f223e,650c16f0f2faf8d7a0d14c09,651c1afa0e67b1fcb7bbb06c,null,null,"<p style=""font-size: 120px; font-family: BACS""> </p>",,,,,,,,,,
html-keyboard-response,7,45981,0.0-7.0,60f579085ebf24f9c80f223e,650c16f0f2faf8d7a0d14c09,651c1afa0e67b1fcb7bbb06c,2497, ,"<p>Here is an example of the words you'll see:</p>
      <img src='esempio.png' height='400px'>
      <p>When you're ready to begin, press the spacebar.</p></div>",,,,,,,,,,
html-keyboard-response,8,46992,0.0-8.0-0.0,60f579085ebf24f9c80f223e,650c16f0f2faf8d7a0d14c09,651c1afa0e67b1fcb7bbb06c,null,null,"<p style=""font-size: 60px; font-family: BACS"">kGlUkmU</p>",,,,,,,,,,
html-keyboard-response,9,48010,0.0-8.0-0.1,60f579085ebf24f9c80f223e,650c16f0f2faf8d7a0d14c09,651c1afa0e67b1fcb7bbb06c,null,null,"<p style=""font-size: 60px; font-family: BACS"">kCRmBCAd</p>",,,,,,,,,,
html-keyboard-response,10,49024,0.0-8.0-0.2,60f579085ebf24f9c80f223e,650c16f0f2faf8d7a0d14c09,651c1afa0e67b1fcb7bbb06c,null,null,"<p style=""font-size: 60px; font-family: BACS"">AZlLNkmU</p>",,,,,,,,,,
html-keyboard-response,11,50041,0.0-8.0-0.3,60f579085ebf24f9c80f223e,650c16f0f2faf8d7a0d14c09,651c1afa0e67b1fcb7bbb06c,null,null,"<p style=""font-size: 60px; font-family: BACS"">kCRmRCdc</p>",,,,,,,,,,
html-keyboard-response,12,51057,0.0-8.0-0.4,60f579085ebf24f9c80f223e,650c16f0f2faf8d7a0d14c09,651c1afa0e67b1fcb7bbb06c,null,null,"<p style=""font-size: 60px; font-family: BACS"">kGlUrab</p>",,,,,,,,,,
html-keyboard-response,13,52073,0.0-8.0-0.5,60f579085ebf24f9c80f223e,650c16f0f2faf8d7a0d14c09,651c1afa0e67b1fcb7bbb06c,null,null,"<p style=""font-size: 60px; font-family: BACS"">BOckPRCdc</p>",,,,,,,,,,
html-keyboard-response,14,53074,0.0-8.0-0.6,60f579085ebf24f9c80f223e,650c16f0f2faf8d7a0d14c09,651c1afa0e67b1fcb7bbb06c,null,null,"<p style=""font-size: 60px; font-family: BACS"">GZJYvAvb</p>",,,,,,,,,,
html-keyboard-response,15,54089,0.0-8.0-0.7,60f579085ebf24f9c80f223e,650c16f0f2faf8d7a0d14c09,651c1afa0e67b1fcb7bbb06c,null,null,"<p style=""font-size: 60px; font-family: BACS"">AZlLNrkra</p>",,,,,,,,,,
html-keyboard-response,16,55090,0.0-8.0-0.8,60f579085ebf24f9c80f223e,650c16f0f2faf8d7a0d14c09,651c1afa0e67b1fcb7bbb06c,null,null,"<p style=""font-size: 60px; font-family: BACS"">kLvdNrab</p>",,,,,,,,,,
html-keyboard-response,17,56105,0.0-8.0-0.9,60f579085ebf24f9c80f223e,650c16f0f2faf8d7a0d14c09,651c1afa0e67b1fcb7bbb06c,null,null,"<p style=""font-size: 60px; font-family: BACS"">ctktBCAd</p>",,,,,,,,,,
html-keyboard-response,18,57106,0.0-8.0-0.10,60f579085ebf24f9c80f223e,650c16f0f2faf8d7a0d14c09,651c1afa0e67b1fcb7bbb06c,null,null,"<p style=""font-size: 60px; font-family: BACS"">kLvdNkmU</p>",,,,,,,,,,
html-keyboard-response,19,58122,0.0-8.0-0.11,60f579085ebf24f9c80f223e,650c16f0f2faf8d7a0d14c09,651c1afa0e67b1fcb7bbb06c,null,null,"<p style=""font-size: 60px; font-family: BACS"">BbODdCKc</p>",,,,,,,,,,
html-keyboard-response,20,59138,0.0-8.0-0.12,60f579085ebf24f9c80f223e,650c16f0f2faf8d7a0d14c09,651c1afa0e67b1fcb7bbb06c,null,null,"<p style=""font-size: 60px; font-family: BACS"">AbkavAvb</p>",,,,,,,,,,
html-keyboard-response,21,60156,0.0-8.0-0.13,60f579085ebf24f9c80f223e,650c16f0f2faf8d7a0d14c09,651c1afa0e67b1fcb7bbb06c,null,null,"<p style=""font-size: 60px; font-family: BACS"">bYGOZrkra</p>",,,,,,,,,,
html-keyboard-response,22,61172,0.0-8.0-0.14,60f579085ebf24f9c80f223e,650c16f0f2faf8d7a0d14c09,651c1afa0e67b1fcb7bbb06c,null,null,"<p style=""font-size: 60px; font-family: BACS"">BbODBCAd</p>",,,,,,,,,,
html-keyboard-response,23,62173,0.0-8.0-0.15,60f579085ebf24f9c80f223e,650c16f0f2faf8d7a0d14c09,651c1afa0e67b1fcb7bbb06c,null,null,"<p style=""font-size: 60px; font-family: BACS"">vJabmLJ</p>",,,,,,,,,,
html-keyboard-response,24,63188,0.0-8.0-0.16,60f579085ebf24f9c80f223e,650c16f0f2faf8d7a0d14c09,651c1afa0e67b1fcb7bbb06c,null,null,"<p style=""font-size: 60px; font-family: BACS"">NJZlkmU</p>",,,,,,,,,,
html-keyboard-response,25,64204,0.0-8.0-0.17,60f579085ebf24f9c80f223e,650c16f0f2faf8d7a0d14c09,651c1afa0e67b1fcb7bbb06c,null,null,"<p style=""font-size: 60px; font-family: BACS"">AbkamLJ</p>",,,,,,,,,,
html-keyboard-response,26,65205,0.0-8.0-0.18,60f579085ebf24f9c80f223e,650c16f0f2faf8d7a0d14c09,651c1afa0e67b1fcb7bbb06c,null,null,"<p style=""font-size: 60px; font-family: BACS"">kCRmMAB</p>",,,,,,,,,,
html-keyboard-response,27,66220,0.0-8.0-0.19,60f579085ebf24f9c80f223e,650c16f0f2faf8d7a0d14c09,651c1afa0e67b1fcb7bbb06c,null,null,"<p style=""font-size: 60px; font-family: BACS"">ukYZrkra</p>",,,,,,,,,,
html-keyboard-response,28,67222,0.0-8.0-0.20,60f579085ebf24f9c80f223e,650c16f0f2faf8d7a0d14c09,651c1afa0e67b1fcb7bbb06c,null,null,"<p style=""font-size: 60px; font-family: BACS"">kcdOtBCAd</p>",,,,,,,,,,
html-keyboard-response,29,68236,0.0-8.0-0.21,60f579085ebf24f9c80f223e,650c16f0f2faf8d7a0d14c09,651c1afa0e67b1fcb7bbb06c,null,null,"<p style=""font-size: 60px; font-family: BACS"">AZlLNvAvb</p>",,,,,,,,,,
html-keyboard-response,30,69252,0.0-8.0-0.22,60f579085ebf24f9c80f223e,650c16f0f2faf8d7a0d14c09,651c1afa0e67b1fcb7bbb06c,null,null,"<p style=""font-size: 60px; font-family: BACS"">BOckPMAB</p>",,,,,,,,,,
html-keyboard-response,31,70268,0.0-8.0-0.23,60f579085ebf24f9c80f223e,650c16f0f2faf8d7a0d14c09,651c1afa0e67b1fcb7bbb06c,null,null,"<p style=""font-size: 60px; font-family: BACS"">ctktCEM</p>",,,,,,,,,,
html-keyboard-response,32,71271,0.0-8.0-0.24,60f579085ebf24f9c80f223e,650c16f0f2faf8d7a0d14c09,651c1afa0e67b1fcb7bbb06c,null,null,"<p style=""font-size: 60px; font-family: BACS"">bYGOZkmU</p>",,,,,,,,,,
html-keyboard-response,33,72286,0.0-8.0-0.25,60f579085ebf24f9c80f223e,650c16f0f2faf8d7a0d14c09,651c1afa0e67b1fcb7bbb06c,null,null,"<p style=""font-size: 60px; font-family: BACS"">DcPTcBCAd</p>",,,,,,,,,,
html-keyboard-response,34,73303,0.0-8.0-0.26,60f579085ebf24f9c80f223e,650c16f0f2faf8d7a0d14c09,651c1afa0e67b1fcb7bbb06c,null,null,"<p style=""font-size: 60px; font-family: BACS"">BECkRCdc</p>",,,,,,,,,,
html-keyboard-response,35,74319,0.0-8.0-0.27,60f579085ebf24f9c80f223e,650c16f0f2faf8d7a0d14c09,651c1afa0e67b1fcb7bbb06c,null,null,"<p style=""font-size: 60px; font-family: BACS"">BOckPdCKc</p>",,,,,,,,,,
html-keyboard-response,36,75334,0.0-8.0-0.28,60f579085ebf24f9c80f223e,650c16f0f2faf8d7a0d14c09,651c1afa0e67b1fcb7bbb06c,null,null,"<p style=""font-size: 60px; font-family: BACS"">NJZlrkra</p>",,,,,,,,,,
html-keyboard-response,37,76336,0.0-8.0-0.29,60f579085ebf24f9c80f223e,650c16f0f2faf8d7a0d14c09,651c1afa0e67b1fcb7bbb06c,null,null,"<p style=""font-size: 60px; font-family: BACS"">vJabrab</p>",,,,,,,,,,
html-keyboard-response,38,77350,0.0-8.0-0.30,60f579085ebf24f9c80f223e,650c16f0f2faf8d7a0d14c09,651c1afa0e67b1fcb7bbb06c,null,null,"<p style=""font-size: 60px; font-family: BACS"">AZlLNmLJ</p>",,,,,,,,,,
html-keyboard-response,39,78353,0.0-8.0-0.31,60f579085ebf24f9c80f223e,650c16f0f2faf8d7a0d14c09,651c1afa0e67b1fcb7bbb06c,null,null,"<p style=""font-size: 60px; font-family: BACS"">DcPTcMAB</p>",,,,,,,,,,
html-keyboard-response,40,79367,0.0-8.0-0.32,60f579085ebf24f9c80f223e,650c16f0f2faf8d7a0d14c09,651c1afa0e67b1fcb7bbb06c,null,null,"<p style=""font-size: 60px; font-family: BACS"">Abkarkra</p>",,,,,,,,,,
html-keyboard-response,41,80383,0.0-8.0-0.33,60f579085ebf24f9c80f223e,650c16f0f2faf8d7a0d14c09,651c1afa0e67b1fcb7bbb06c,null,null,"<p style=""font-size: 60px; font-family: BACS"">kdEdYdCKc</p>",,,,,,,,,,
html-keyboard-response,42,81399,0.0-8.0-0.34,60f579085ebf24f9c80f223e,650c16f0f2faf8d7a0d14c09,651c1afa0e67b1fcb7bbb06c,null,null,"<p style=""font-size: 60px; font-family: BACS"">kcdOtCEM</p>",,,,,,,,,,
html-keyboard-response,43,82400,0.0-8.0-0.35,60f579085ebf24f9c80f223e,650c16f0f2faf8d7a0d14c09,651c1afa0e67b1fcb7bbb06c,null,null,"<p style=""font-size: 60px; font-family: BACS"">vJabvAvb</p>",,,,,,,,,,
html-keyboard-response,44,83416,0.0-8.0-0.36,60f579085ebf24f9c80f223e,650c16f0f2faf8d7a0d14c09,651c1afa0e67b1fcb7bbb06c,null,null,"<p style=""font-size: 60px; font-family: BACS"">kGlUmLJ</p>",,,,,,,,,,
html-keyboard-response,45,84432,0.0-8.0-0.37,60f579085ebf24f9c80f223e,650c16f0f2faf8d7a0d14c09,651c1afa0e67b1fcb7bbb06c,null,null,"<p style=""font-size: 60px; font-family: BACS"">ZkGmYrab</p>",,,,,,,,,,
html-keyboard-response,46,85449,0.0-8.0-0.38,60f579085ebf24f9c80f223e,650c16f0f2faf8d7a0d14c09,651c1afa0e67b1fcb7bbb06c,null,null,"<p style=""font-size: 60px; font-family: BACS"">ukYZvAvb</p>",,,,,,,,,,
html-keyboard-response,47,86451,0.0-8.0-0.39,60f579085ebf24f9c80f223e,650c16f0f2faf8d7a0d14c09,651c1afa0e67b1fcb7bbb06c,null,null,"<p style=""font-size: 60px; font-family: BACS"">DcPTcdCKc</p>",,,,,,,,,,
html-keyboard-response,48,87466,0.0-8.0-0.40,60f579085ebf24f9c80f223e,650c16f0f2faf8d7a0d14c09,651c1afa0e67b1fcb7bbb06c,null,null,"<p style=""font-size: 60px; font-family: BACS"">ORbkBCAd</p>",,,,,,,,,,
html-keyboard-response,49,88482,0.0-8.0-0.41,60f579085ebf24f9c80f223e,650c16f0f2faf8d7a0d14c09,651c1afa0e67b1fcb7bbb06c,null,null,"<p style=""font-size: 60px; font-family: BACS"">ctktRCdc</p>",,,,,,,,,,
html-keyboard-response,50,89498,0.0-8.0-0.42,60f579085ebf24f9c80f223e,650c16f0f2faf8d7a0d14c09,651c1afa0e67b1fcb7bbb06c,null,null,"<p style=""font-size: 60px; font-family: BACS"">ORbkCEM</p>",,,,,,,,,,
html-keyboard-response,51,90514,0.0-8.0-0.43,60f579085ebf24f9c80f223e,650c16f0f2faf8d7a0d14c09,651c1afa0e67b1fcb7bbb06c,null,null,"<p style=""font-size: 60px; font-family: BACS"">BMEMAMAB</p>",,,,,,,,,,
html-keyboard-response,52,91515,0.0-8.0-0.44,60f579085ebf24f9c80f223e,650c16f0f2faf8d7a0d14c09,651c1afa0e67b1fcb7bbb06c,null,null,"<p style=""font-size: 60px; font-family: BACS"">BbODRCdc</p>",,,,,,,,,,
html-keyboard-response,53,92530,0.0-8.0-0.45,60f579085ebf24f9c80f223e,650c16f0f2faf8d7a0d14c09,651c1afa0e67b1fcb7bbb06c,null,null,"<p style=""font-size: 60px; font-family: BACS"">kdEdYBCAd</p>",,,,,,,,,,
html-keyboard-response,54,93532,0.0-8.0-0.46,60f579085ebf24f9c80f223e,650c16f0f2faf8d7a0d14c09,651c1afa0e67b1fcb7bbb06c,null,null,"<p style=""font-size: 60px; font-family: BACS"">GZJYrab</p>",,,,,,,,,,
html-keyboard-response,55,94547,0.0-8.0-0.47,60f579085ebf24f9c80f223e,650c16f0f2faf8d7a0d14c09,651c1afa0e67b1fcb7bbb06c,null,null,"<p style=""font-size: 60px; font-family: BACS"">DcPTcCEM</p>",,,,,,,,,,
html-keyboard-response,56,95563,0.0-8.0-0.48,60f579085ebf24f9c80f223e,650c16f0f2faf8d7a0d14c09,651c1afa0e67b1fcb7bbb06c,null,null,"<p style=""font-size: 60px; font-family: BACS"">ukYZkmU</p>",,,,,,,,,,
html-keyboard-response,57,96564,0.0-8.0-0.49,60f579085ebf24f9c80f223e,650c16f0f2faf8d7a0d14c09,651c1afa0e67b1fcb7bbb06c,null,null,"<p style=""font-size: 60px; font-family: BACS"">kcdOtRCdc</p>",,,,,,,,,,
html-keyboard-response,58,97580,0.0-8.0-0.50,60f579085ebf24f9c80f223e,650c16f0f2faf8d7a0d14c09,651c1afa0e67b1fcb7bbb06c,null,null,"<p style=""font-size: 60px; font-family: BACS"">kGlUvAvb</p>",,,,,,,,,,
html-keyboard-response,59,98595,0.0-8.0-0.51,60f579085ebf24f9c80f223e,650c16f0f2faf8d7a0d14c09,651c1afa0e67b1fcb7bbb06c,null,null,"<p style=""font-size: 60px; font-family: BACS"">GZJYrkra</p>",,,,,,,,,,
html-keyboard-response,60,99598,0.0-8.0-0.52,60f579085ebf24f9c80f223e,650c16f0f2faf8d7a0d14c09,651c1afa0e67b1fcb7bbb06c,null,null,"<p style=""font-size: 60px; font-family: BACS"">BECkMAB</p>",,,,,,,,,,
html-keyboard-response,61,100613,0.0-8.0-0.53,60f579085ebf24f9c80f223e,650c16f0f2faf8d7a0d14c09,651c1afa0e67b1fcb7bbb06c,null,null,"<p style=""font-size: 60px; font-family: BACS"">ORbkRCdc</p>",,,,,,,,,,
html-keyboard-response,62,101629,0.0-8.0-0.54,60f579085ebf24f9c80f223e,650c16f0f2faf8d7a0d14c09,651c1afa0e67b1fcb7bbb06c,null,null,"<p style=""font-size: 60px; font-family: BACS"">NJZlmLJ</p>",,,,,,,,,,
html-keyboard-response,63,102645,0.0-8.0-0.55,60f579085ebf24f9c80f223e,650c16f0f2faf8d7a0d14c09,651c1afa0e67b1fcb7bbb06c,null,null,"<p style=""font-size: 60px; font-family: BACS"">ZkGmYkmU</p>",,,,,,,,,,
html-keyboard-response,64,103661,0.0-8.0-0.56,60f579085ebf24f9c80f223e,650c16f0f2faf8d7a0d14c09,651c1afa0e67b1fcb7bbb06c,null,null,"<p style=""font-size: 60px; font-family: BACS"">BMEMACEM</p>",,,,,,,,,,
html-keyboard-response,65,104663,0.0-8.0-0.57,60f579085ebf24f9c80f223e,650c16f0f2faf8d7a0d14c09,651c1afa0e67b1fcb7bbb06c,null,null,"<p style=""font-size: 60px; font-family: BACS"">GZJYmLJ</p>",,,,,,,,,,
html-keyboard-response,66,105677,0.0-8.0-0.58,60f579085ebf24f9c80f223e,650c16f0f2faf8d7a0d14c09,651c1afa0e67b1fcb7bbb06c,null,null,"<p style=""font-size: 60px; font-family: BACS"">BbODMAB</p>",,,,,,,,,,
html-keyboard-response,67,106679,0.0-8.0-0.59,60f579085ebf24f9c80f223e,650c16f0f2faf8d7a0d14c09,651c1afa0e67b1fcb7bbb06c,null,null,"<p style=""font-size: 60px; font-family: BACS"">BECkdCKc</p>",,,,,,,,,,
html-keyboard-response,68,107693,0.0-8.0-0.60,60f579085ebf24f9c80f223e,650c16f0f2faf8d7a0d14c09,651c1afa0e67b1fcb7bbb06c,null,null,"<p style=""font-size: 60px; font-family: BACS"">BOckPCEM</p>",,,,,,,,,,
html-keyboard-response,69,108709,0.0-8.0-0.61,60f579085ebf24f9c80f223e,650c16f0f2faf8d7a0d14c09,651c1afa0e67b1fcb7bbb06c,null,null,"<p style=""font-size: 60px; font-family: BACS"">BMEMARCdc</p>",,,,,,,,,,
html-keyboard-response,70,109727,0.0-8.0-0.62,60f579085ebf24f9c80f223e,650c16f0f2faf8d7a0d14c09,651c1afa0e67b1fcb7bbb06c,null,null,"<p style=""font-size: 60px; font-family: BACS"">ukYZmLJ</p>",,,,,,,,,,
html-keyboard-response,71,110743,0.0-8.0-0.63,60f579085ebf24f9c80f223e,650c16f0f2faf8d7a0d14c09,651c1afa0e67b1fcb7bbb06c,null,null,"<p style=""font-size: 60px; font-family: BACS"">BECkBCAd</p>",,,,,,,,,,
html-keyboard-response,72,111760,0.0-8.0-0.64,60f579085ebf24f9c80f223e,650c16f0f2faf8d7a0d14c09,651c1afa0e67b1fcb7bbb06c,null,null,"<p style=""font-size: 60px; font-family: BACS"">kcdOtMAB</p>",,,,,,,,,,
html-keyboard-response,73,112776,0.0-8.0-0.65,60f579085ebf24f9c80f223e,650c16f0f2faf8d7a0d14c09,651c1afa0e67b1fcb7bbb06c,null,null,"<p style=""font-size: 60px; font-family: BACS"">ZkGmYvAvb</p>",,,,,,,,,,
html-keyboard-response,74,113777,0.0-8.0-0.66,60f579085ebf24f9c80f223e,650c16f0f2faf8d7a0d14c09,651c1afa0e67b1fcb7bbb06c,null,null,"<p style=""font-size: 60px; font-family: BACS"">kLvdNrkra</p>",,,,,,,,,,
html-keyboard-response,75,114791,0.0-8.0-0.67,60f579085ebf24f9c80f223e,650c16f0f2faf8d7a0d14c09,651c1afa0e67b1fcb7bbb06c,null,null,"<p style=""font-size: 60px; font-family: BACS"">kdEdYMAB</p>",,,,,,,,,,
html-keyboard-response,76,115807,0.0-8.0-0.68,60f579085ebf24f9c80f223e,650c16f0f2faf8d7a0d14c09,651c1afa0e67b1fcb7bbb06c,null,null,"<p style=""font-size: 60px; font-family: BACS"">kLvdNmLJ</p>",,,,,,,,,,
html-keyboard-response,77,116809,0.0-8.0-0.69,60f579085ebf24f9c80f223e,650c16f0f2faf8d7a0d14c09,651c1afa0e67b1fcb7bbb06c,null,null,"<p style=""font-size: 60px; font-family: BACS"">bYGOZvAvb</p>",,,,,,,,,,
html-keyboard-response,78,117825,0.0-8.0-0.70,60f579085ebf24f9c80f223e,650c16f0f2faf8d7a0d14c09,651c1afa0e67b1fcb7bbb06c,null,null,"<p style=""font-size: 60px; font-family: BACS"">vJabkmU</p>",,,,,,,,,,
html-keyboard-response,79,118840,0.0-8.0-0.71,60f579085ebf24f9c80f223e,650c16f0f2faf8d7a0d14c09,651c1afa0e67b1fcb7bbb06c,null,null,"<p style=""font-size: 60px; font-family: BACS"">BMEMAdCKc</p>",,,,,,,,,,
html-keyboard-response,80,119841,0.0-8.0-0.72,60f579085ebf24f9c80f223e,650c16f0f2faf8d7a0d14c09,651c1afa0e67b1fcb7bbb06c,null,null,"<p style=""font-size: 60px; font-family: BACS"">kdEdYCEM</p>",,,,,,,,,,
html-keyboard-response,81,120856,0.0-8.0-0.73,60f579085ebf24f9c80f223e,650c16f0f2faf8d7a0d14c09,651c1afa0e67b1fcb7bbb06c,null,null,"<p style=""font-size: 60px; font-family: BACS"">bYGOZrab</p>",,,,,,,,,,
html-keyboard-response,82,121873,0.0-8.0-0.74,60f579085ebf24f9c80f223e,650c16f0f2faf8d7a0d14c09,651c1afa0e67b1fcb7bbb06c,null,null,"<p style=""font-size: 60px; font-family: BACS"">ORbkdCKc</p>",,,,,,,,,,
html-keyboard-response,83,122891,0.0-8.0-0.75,60f579085ebf24f9c80f223e,650c16f0f2faf8d7a0d14c09,651c1afa0e67b1fcb7bbb06c,null,null,"<p style=""font-size: 60px; font-family: BACS"">Abkarab</p>",,,,,,,,,,
html-keyboard-response,84,123906,0.0-8.0-0.76,60f579085ebf24f9c80f223e,650c16f0f2faf8d7a0d14c09,651c1afa0e67b1fcb7bbb06c,null,null,"<p style=""font-size: 60px; font-family: BACS"">ZkGmYrkra</p>",,,,,,,,,,
html-keyboard-response,85,124922,0.0-8.0-0.77,60f579085ebf24f9c80f223e,650c16f0f2faf8d7a0d14c09,651c1afa0e67b1fcb7bbb06c,null,null,"<p style=""font-size: 60px; font-family: BACS"">ctktdCKc</p>",,,,,,,,,,
html-keyboard-response,86,125939,0.0-8.0-0.78,60f579085ebf24f9c80f223e,650c16f0f2faf8d7a0d14c09,651c1afa0e67b1fcb7bbb06c,null,null,"<p style=""font-size: 60px; font-family: BACS"">kCRmCEM</p>",,,,,,,,,,
html-keyboard-response,87,126956,0.0-8.0-0.79,60f579085ebf24f9c80f223e,650c16f0f2faf8d7a0d14c09,651c1afa0e67b1fcb7bbb06c,null,null,"<p style=""font-size: 60px; font-family: BACS"">NJZlrab</p>",,,,,,,,,,
html-keyboard-response,88,140464,0.0-9.0,60f579085ebf24f9c80f223e,650c16f0f2faf8d7a0d14c09,651c1afa0e67b1fcb7bbb06c,13507, ,"<p>Great, you've seen the first block of words. You may now take a short break.</p>
      <p>Press the spacebar when you're ready to continue.</p>",,,,,,,,,,
html-keyboard-response,89,141468,0.0-10.0-0.0,60f579085ebf24f9c80f223e,650c16f0f2faf8d7a0d14c09,651c1afa0e67b1fcb7bbb06c,null,null,"<p style=""font-size: 60px; font-family: BACS"">kLvdNrkra</p>",,,,,,,,,,
html-keyboard-response,90,142485,0.0-10.0-0.1,60f579085ebf24f9c80f223e,650c16f0f2faf8d7a0d14c09,651c1afa0e67b1fcb7bbb06c,null,null,"<p style=""font-size: 60px; font-family: BACS"">BbODRCdc</p>",,,,,,,,,,
html-keyboard-response,91,143501,0.0-10.0-0.2,60f579085ebf24f9c80f223e,650c16f0f2faf8d7a0d14c09,651c1afa0e67b1fcb7bbb06c,null,null,"<p style=""font-size: 60px; font-family: BACS"">kLvdNkmU</p>",,,,,,,,,,
html-keyboard-response,92,144517,0.0-10.0-0.3,60f579085ebf24f9c80f223e,650c16f0f2faf8d7a0d14c09,651c1afa0e67b1fcb7bbb06c,null,null,"<p style=""font-size: 60px; font-family: BACS"">kGlUvAvb</p>",,,,,,,,,,
html-keyboard-response,93,145518,0.0-10.0-0.4,60f579085ebf24f9c80f223e,650c16f0f2faf8d7a0d14c09,651c1afa0e67b1fcb7bbb06c,null,null,"<p style=""font-size: 60px; font-family: BACS"">kdEdYdCKc</p>",,,,,,,,,,
html-keyboard-response,94,146535,0.0-10.0-0.5,60f579085ebf24f9c80f223e,650c16f0f2faf8d7a0d14c09,651c1afa0e67b1fcb7bbb06c,null,null,"<p style=""font-size: 60px; font-family: BACS"">bYGOZvAvb</p>",,,,,,,,,,
html-keyboard-response,95,147551,0.0-10.0-0.6,60f579085ebf24f9c80f223e,650c16f0f2faf8d7a0d14c09,651c1afa0e67b1fcb7bbb06c,null,null,"<p style=""font-size: 60px; font-family: BACS"">kdEdYMAB</p>",,,,,,,,,,
html-keyboard-response,96,148566,0.0-10.0-0.7,60f579085ebf24f9c80f223e,650c16f0f2faf8d7a0d14c09,651c1afa0e67b1fcb7bbb06c,null,null,"<p style=""font-size: 60px; font-family: BACS"">ukYZkmU</p>",,,,,,,,,,
html-keyboard-response,97,149568,0.0-10.0-0.8,60f579085ebf24f9c80f223e,650c16f0f2faf8d7a0d14c09,651c1afa0e67b1fcb7bbb06c,null,null,"<p style=""font-size: 60px; font-family: BACS"">ctktRCdc</p>",,,,,,,,,,
html-keyboard-response,98,150585,0.0-10.0-0.9,60f579085ebf24f9c80f223e,650c16f0f2faf8d7a0d14c09,651c1afa0e67b1fcb7bbb06c,null,null,"<p style=""font-size: 60px; font-family: BACS"">vJabmLJ</p>",,,,,,,,,,
html-keyboard-response,99,151600,0.0-10.0-0.10,60f579085ebf24f9c80f223e,650c16f0f2faf8d7a0d14c09,651c1afa0e67b1fcb7bbb06c,null,null,"<p style=""font-size: 60px; font-family: BACS"">ZkGmYrab</p>",,,,,,,,,,
html-keyboard-response,100,152616,0.0-10.0-0.11,60f579085ebf24f9c80f223e,650c16f0f2faf8d7a0d14c09,651c1afa0e67b1fcb7bbb06c,null,null,"<p style=""font-size: 60px; font-family: BACS"">bYGOZkmU</p>",,,,,,,,,,
html-keyboard-response,101,153632,0.0-10.0-0.12,60f579085ebf24f9c80f223e,650c16f0f2faf8d7a0d14c09,651c1afa0e67b1fcb7bbb06c,null,null,"<p style=""font-size: 60px; font-family: BACS"">BECkRCdc</p>",,,,,,,,,,
html-keyboard-response,102,154648,0.0-10.0-0.13,60f579085ebf24f9c80f223e,650c16f0f2faf8d7a0d14c09,651c1afa0e67b1fcb7bbb06c,null,null,"<p style=""font-size: 60px; font-family: BACS"">ctktCEM</p>",,,,,,,,,,
html-keyboard-response,103,155650,0.0-10.0-0.14,60f579085ebf24f9c80f223e,650c16f0f2faf8d7a0d14c09,651c1afa0e67b1fcb7bbb06c,null,null,"<p style=""font-size: 60px; font-family: BACS"">BMEMAMAB</p>",,,,,,,,,,
html-keyboard-response,104,156664,0.0-10.0-0.15,60f579085ebf24f9c80f223e,650c16f0f2faf8d7a0d14c09,651c1afa0e67b1fcb7bbb06c,null,null,"<p style=""font-size: 60px; font-family: BACS"">DcPTcCEM</p>",,,,,,,,,,
html-keyboard-response,105,157680,0.0-10.0-0.16,60f579085ebf24f9c80f223e,650c16f0f2faf8d7a0d14c09,651c1afa0e67b1fcb7bbb06c,null,null,"<p style=""font-size: 60px; font-family: BACS"">kcdOtRCdc</p>",,,,,,,,,,
html-keyboard-response,106,158682,0.0-10.0-0.17,60f579085ebf24f9c80f223e,650c16f0f2faf8d7a0d14c09,651c1afa0e67b1fcb7bbb06c,null,null,"<p style=""font-size: 60px; font-family: BACS"">BECkMAB</p>",,,,,,,,,,
html-keyboard-response,107,159698,0.0-10.0-0.18,60f579085ebf24f9c80f223e,650c16f0f2faf8d7a0d14c09,651c1afa0e67b1fcb7bbb06c,null,null,"<p style=""font-size: 60px; font-family: BACS"">ORbkdCKc</p>",,,,,,,,,,
html-keyboard-response,108,160713,0.0-10.0-0.19,60f579085ebf24f9c80f223e,650c16f0f2faf8d7a0d14c09,651c1afa0e67b1fcb7bbb06c,null,null,"<p style=""font-size: 60px; font-family: BACS"">GZJYmLJ</p>",,,,,,,,,,
html-keyboard-response,109,161715,0.0-10.0-0.20,60f579085ebf24f9c80f223e,650c16f0f2faf8d7a0d14c09,651c1afa0e67b1fcb7bbb06c,null,null,"<p style=""font-size: 60px; font-family: BACS"">kLvdNrab</p>",,,,,,,,,,
html-keyboard-response,110,162731,0.0-10.0-0.21,60f579085ebf24f9c80f223e,650c16f0f2faf8d7a0d14c09,651c1afa0e67b1fcb7bbb06c,null,null,"<p style=""font-size: 60px; font-family: BACS"">BOckPdCKc</p>",,,,,,,,,,
html-keyboard-response,111,163747,0.0-10.0-0.22,60f579085ebf24f9c80f223e,650c16f0f2faf8d7a0d14c09,651c1afa0e67b1fcb7bbb06c,null,null,"<p style=""font-size: 60px; font-family: BACS"">ukYZrkra</p>",,,,,,,,,,
html-keyboard-response,112,164763,0.0-10.0-0.23,60f579085ebf24f9c80f223e,650c16f0f2faf8d7a0d14c09,651c1afa0e67b1fcb7bbb06c,null,null,"<p style=""font-size: 60px; font-family: BACS"">AbkamLJ</p>",,,,,,,,,,
html-keyboard-response,113,165779,0.0-10.0-0.24,60f579085ebf24f9c80f223e,650c16f0f2faf8d7a0d14c09,651c1afa0e67b1fcb7bbb06c,null,null,"<p style=""font-size: 60px; font-family: BACS"">BMEMAdCKc</p>",,,,,,,,,,
html-keyboard-response,114,166781,0.0-10.0-0.25,60f579085ebf24f9c80f223e,650c16f0f2faf8d7a0d14c09,651c1afa0e67b1fcb7bbb06c,null,null,"<p style=""font-size: 60px; font-family: BACS"">bYGOZrab</p>",,,,,,,,,,
html-keyboard-response,115,167796,0.0-10.0-0.26,60f579085ebf24f9c80f223e,650c16f0f2faf8d7a0d14c09,651c1afa0e67b1fcb7bbb06c,null,null,"<p style=""font-size: 60px; font-family: BACS"">ORbkRCdc</p>",,,,,,,,,,
html-keyboard-response,116,168811,0.0-10.0-0.27,60f579085ebf24f9c80f223e,650c16f0f2faf8d7a0d14c09,651c1afa0e67b1fcb7bbb06c,null,null,"<p style=""font-size: 60px; font-family: BACS"">NJZlmLJ</p>",,,,,,,,,,
html-keyboard-response,117,169812,0.0-10.0-0.28,60f579085ebf24f9c80f223e,650c16f0f2faf8d7a0d14c09,651c1afa0e67b1fcb7bbb06c,null,null,"<p style=""font-size: 60px; font-family: BACS"">Abkarkra</p>",,,,,,,,,,
html-keyboard-response,118,170828,0.0-10.0-0.29,60f579085ebf24f9c80f223e,650c16f0f2faf8d7a0d14c09,651c1afa0e67b1fcb7bbb06c,null,null,"<p style=""font-size: 60px; font-family: BACS"">NJZlkmU</p>",,,,,,,,,,
html-keyboard-response,119,171845,0.0-10.0-0.30,60f579085ebf24f9c80f223e,650c16f0f2faf8d7a0d14c09,651c1afa0e67b1fcb7bbb06c,null,null,"<p style=""font-size: 60px; font-family: BACS"">BECkdCKc</p>",,,,,,,,,,
html-keyboard-response,120,172862,0.0-10.0-0.31,60f579085ebf24f9c80f223e,650c16f0f2faf8d7a0d14c09,651c1afa0e67b1fcb7bbb06c,null,null,"<p style=""font-size: 60px; font-family: BACS"">kGlUrab</p>",,,,,,,,,,
html-keyboard-response,121,173878,0.0-10.0-0.32,60f579085ebf24f9c80f223e,650c16f0f2faf8d7a0d14c09,651c1afa0e67b1fcb7bbb06c,null,null,"<p style=""font-size: 60px; font-family: BACS"">kcdOtCEM</p>",,,,,,,,,,
html-keyboard-response,122,174879,0.0-10.0-0.33,60f579085ebf24f9c80f223e,650c16f0f2faf8d7a0d14c09,651c1afa0e67b1fcb7bbb06c,null,null,"<p style=""font-size: 60px; font-family: BACS"">NJZlrab</p>",,,,,,,,,,
html-keyboard-response,123,175894,0.0-10.0-0.34,60f579085ebf24f9c80f223e,650c16f0f2faf8d7a0d14c09,651c1afa0e67b1fcb7bbb06c,null,null,"<p style=""font-size: 60px; font-family: BACS"">bYGOZrkra</p>",,,,,,,,,,
html-keyboard-response,124,176910,0.0-10.0-0.35,60f579085ebf24f9c80f223e,650c16f0f2faf8d7a0d14c09,651c1afa0e67b1fcb7bbb06c,null,null,"<p style=""font-size: 60px; font-family: BACS"">ORbkCEM</p>",,,,,,,,,,
html-keyboard-response,125,177926,0.0-10.0-0.36,60f579085ebf24f9c80f223e,650c16f0f2faf8d7a0d14c09,651c1afa0e67b1fcb7bbb06c,null,null,"<p style=""font-size: 60px; font-family: BACS"">ZkGmYkmU</p>",,,,,,,,,,
html-keyboard-response,126,178927,0.0-10.0-0.37,60f579085ebf24f9c80f223e,650c16f0f2faf8d7a0d14c09,651c1afa0e67b1fcb7bbb06c,null,null,"<p style=""font-size: 60px; font-family: BACS"">kdEdYCEM</p>",,,,,,,,,,
html-keyboard-response,127,179942,0.0-10.0-0.38,60f579085ebf24f9c80f223e,650c16f0f2faf8d7a0d14c09,651c1afa0e67b1fcb7bbb06c,null,null,"<p style=""font-size: 60px; font-family: BACS"">ukYZvAvb</p>",,,,,,,,,,
html-keyboard-response,128,180959,0.0-10.0-0.39,60f579085ebf24f9c80f223e,650c16f0f2faf8d7a0d14c09,651c1afa0e67b1fcb7bbb06c,null,null,"<p style=""font-size: 60px; font-family: BACS"">BOckPRCdc</p>",,,,,,,,,,
html-keyboard-response,129,181976,0.0-10.0-0.40,60f579085ebf24f9c80f223e,650c16f0f2faf8d7a0d14c09,651c1afa0e67b1fcb7bbb06c,null,null,"<p style=""font-size: 60px; font-family: BACS"">ctktdCKc</p>",,,,,,,,,,
html-keyboard-response,130,182977,0.0-10.0-0.41,60f579085ebf24f9c80f223e,650c16f0f2faf8d7a0d14c09,651c1afa0e67b1fcb7bbb06c,null,null,"<p style=""font-size: 60px; font-family: BACS"">BECkBCAd</p>",,,,,,,,,,
html-keyboard-response,131,183992,0.0-10.0-0.42,60f579085ebf24f9c80f223e,650c16f0f2faf8d7a0d14c09,651c1afa0e67b1fcb7bbb06c,null,null,"<p style=""font-size: 60px; font-family: BACS"">BMEMARCdc</p>",,,,,,,,,,
html-keyboard-response,132,185008,0.0-10.0-0.43,60f579085ebf24f9c80f223e,650c16f0f2faf8d7a0d14c09,651c1afa0e67b1fcb7bbb06c,null,null,"<p style=""font-size: 60px; font-family: BACS"">vJabkmU</p>",,,,,,,,,,
html-keyboard-response,133,186009,0.0-10.0-0.44,60f579085ebf24f9c80f223e,650c16f0f2faf8d7a0d14c09,651c1afa0e67b1fcb7bbb06c,null,null,"<p style=""font-size: 60px; font-family: BACS"">DcPTcBCAd</p>",,,,,,,,,,
html-keyboard-response,134,187025,0.0-10.0-0.45,60f579085ebf24f9c80f223e,650c16f0f2faf8d7a0d14c09,651c1afa0e67b1fcb7bbb06c,null,null,"<p style=""font-size: 60px; font-family: BACS"">GZJYrab</p>",,,,,,,,,,
html-keyboard-response,135,188042,0.0-10.0-0.46,60f579085ebf24f9c80f223e,650c16f0f2faf8d7a0d14c09,651c1afa0e67b1fcb7bbb06c,null,null,"<p style=""font-size: 60px; font-family: BACS"">NJZlrkra</p>",,,,,,,,,,
html-keyboard-response,136,189058,0.0-10.0-0.47,60f579085ebf24f9c80f223e,650c16f0f2faf8d7a0d14c09,651c1afa0e67b1fcb7bbb06c,null,null,"<p style=""font-size: 60px; font-family: BACS"">kcdOtMAB</p>",,,,,,,,,,
html-keyboard-response,137,190074,0.0-10.0-0.48,60f579085ebf24f9c80f223e,650c16f0f2faf8d7a0d14c09,651c1afa0e67b1fcb7bbb06c,null,null,"<p style=""font-size: 60px; font-family: BACS"">kCRmBCAd</p>",,,,,,,,,,
html-keyboard-response,138,191089,0.0-10.0-0.49,60f579085ebf24f9c80f223e,650c16f0f2faf8d7a0d14c09,651c1afa0e67b1fcb7bbb06c,null,null,"<p style=""font-size: 60px; font-family: BACS"">Abkarab</p>",,,,,,,,,,
html-keyboard-response,139,192091,0.0-10.0-0.50,60f579085ebf24f9c80f223e,650c16f0f2faf8d7a0d14c09,651c1afa0e67b1fcb7bbb06c,null,null,"<p style=""font-size: 60px; font-family: BACS"">BbODMAB</p>",,,,,,,,,,
html-keyboard-response,140,193106,0.0-10.0-0.51,60f579085ebf24f9c80f223e,650c16f0f2faf8d7a0d14c09,651c1afa0e67b1fcb7bbb06c,null,null,"<p style=""font-size: 60px; font-family: BACS"">vJabrab</p>",,,,,,,,,,
html-keyboard-response,141,194123,0.0-10.0-0.52,60f579085ebf24f9c80f223e,650c16f0f2faf8d7a0d14c09,651c1afa0e67b1fcb7bbb06c,null,null,"<p style=""font-size: 60px; font-family: BACS"">GZJYvAvb</p>",,,,,,,,,,
html-keyboard-response,142,195125,0.0-10.0-0.53,60f579085ebf24f9c80f223e,650c16f0f2faf8d7a0d14c09,651c1afa0e67b1fcb7bbb06c,null,null,"<p style=""font-size: 60px; font-family: BACS"">ZkGmYrkra</p>",,,,,,,,,,
html-keyboard-response,143,196140,0.0-10.0-0.54,60f579085ebf24f9c80f223e,650c16f0f2faf8d7a0d14c09,651c1afa0e67b1fcb7bbb06c,null,null,"<p style=""font-size: 60px; font-family: BACS"">kGlUkmU</p>",,,,,,,,,,
html-keyboard-response,144,197155,0.0-10.0-0.55,60f579085ebf24f9c80f223e,650c16f0f2faf8d7a0d14c09,651c1afa0e67b1fcb7bbb06c,null,null,"<p style=""font-size: 60px; font-family: BACS"">kCRmMAB</p>",,,,,,,,,,
html-keyboard-response,145,198157,0.0-10.0-0.56,60f579085ebf24f9c80f223e,650c16f0f2faf8d7a0d14c09,651c1afa0e67b1fcb7bbb06c,null,null,"<p style=""font-size: 60px; font-family: BACS"">ZkGmYvAvb</p>",,,,,,,,,,
html-keyboard-response,146,199171,0.0-10.0-0.57,60f579085ebf24f9c80f223e,650c16f0f2faf8d7a0d14c09,651c1afa0e67b1fcb7bbb06c,null,null,"<p style=""font-size: 60px; font-family: BACS"">DcPTcMAB</p>",,,,,,,,,,
html-keyboard-response,147,200187,0.0-10.0-0.58,60f579085ebf24f9c80f223e,650c16f0f2faf8d7a0d14c09,651c1afa0e67b1fcb7bbb06c,null,null,"<p style=""font-size: 60px; font-family: BACS"">kCRmCEM</p>",,,,,,,,,,
html-keyboard-response,148,201203,0.0-10.0-0.59,60f579085ebf24f9c80f223e,650c16f0f2faf8d7a0d14c09,651c1afa0e67b1fcb7bbb06c,null,null,"<p style=""font-size: 60px; font-family: BACS"">AZlLNkmU</p>",,,,,,,,,,
html-keyboard-response,149,202206,0.0-10.0-0.60,60f579085ebf24f9c80f223e,650c16f0f2faf8d7a0d14c09,651c1afa0e67b1fcb7bbb06c,null,null,"<p style=""font-size: 60px; font-family: BACS"">kdEdYBCAd</p>",,,,,,,,,,
html-keyboard-response,150,203220,0.0-10.0-0.61,60f579085ebf24f9c80f223e,650c16f0f2faf8d7a0d14c09,651c1afa0e67b1fcb7bbb06c,null,null,"<p style=""font-size: 60px; font-family: BACS"">kLvdNmLJ</p>",,,,,,,,,,
html-keyboard-response,151,204221,0.0-10.0-0.62,60f579085ebf24f9c80f223e,650c16f0f2faf8d7a0d14c09,651c1afa0e67b1fcb7bbb06c,null,null,"<p style=""font-size: 60px; font-family: BACS"">AbkavAvb</p>",,,,,,,,,,
html-keyboard-response,152,205236,0.0-10.0-0.63,60f579085ebf24f9c80f223e,650c16f0f2faf8d7a0d14c09,651c1afa0e67b1fcb7bbb06c,null,null,"<p style=""font-size: 60px; font-family: BACS"">kcdOtBCAd</p>",,,,,,,,,,
html-keyboard-response,153,206237,0.0-10.0-0.64,60f579085ebf24f9c80f223e,650c16f0f2faf8d7a0d14c09,651c1afa0e67b1fcb7bbb06c,null,null,"<p style=""font-size: 60px; font-family: BACS"">AZlLNmLJ</p>",,,,,,,,,,
html-keyboard-response,154,207252,0.0-10.0-0.65,60f579085ebf24f9c80f223e,650c16f0f2faf8d7a0d14c09,651c1afa0e67b1fcb7bbb06c,null,null,"<p style=""font-size: 60px; font-family: BACS"">BOckPCEM</p>",,,,,,,,,,
html-keyboard-response,155,208254,0.0-10.0-0.66,60f579085ebf24f9c80f223e,650c16f0f2faf8d7a0d14c09,651c1afa0e67b1fcb7bbb06c,null,null,"<p style=""font-size: 60px; font-family: BACS"">DcPTcdCKc</p>",,,,,,,,,,
html-keyboard-response,156,209270,0.0-10.0-0.67,60f579085ebf24f9c80f223e,650c16f0f2faf8d7a0d14c09,651c1afa0e67b1fcb7bbb06c,null,null,"<p style=""font-size: 60px; font-family: BACS"">ctktBCAd</p>",,,,,,,,,,
html-keyboard-response,157,210285,0.0-10.0-0.68,60f579085ebf24f9c80f223e,650c16f0f2faf8d7a0d14c09,651c1afa0e67b1fcb7bbb06c,null,null,"<p style=""font-size: 60px; font-family: BACS"">kCRmRCdc</p>",,,,,,,,,,
html-keyboard-response,158,211286,0.0-10.0-0.69,60f579085ebf24f9c80f223e,650c16f0f2faf8d7a0d14c09,651c1afa0e67b1fcb7bbb06c,null,null,"<p style=""font-size: 60px; font-family: BACS"">ukYZmLJ</p>",,,,,,,,,,
html-keyboard-response,159,212303,0.0-10.0-0.70,60f579085ebf24f9c80f223e,650c16f0f2faf8d7a0d14c09,651c1afa0e67b1fcb7bbb06c,null,null,"<p style=""font-size: 60px; font-family: BACS"">vJabvAvb</p>",,,,,,,,,,
html-keyboard-response,160,213319,0.0-10.0-0.71,60f579085ebf24f9c80f223e,650c16f0f2faf8d7a0d14c09,651c1afa0e67b1fcb7bbb06c,null,null,"<p style=""font-size: 60px; font-family: BACS"">BbODdCKc</p>",,,,,,,,,,
html-keyboard-response,161,214334,0.0-10.0-0.72,60f579085ebf24f9c80f223e,650c16f0f2faf8d7a0d14c09,651c1afa0e67b1fcb7bbb06c,null,null,"<p style=""font-size: 60px; font-family: BACS"">AZlLNvAvb</p>",,,,,,,,,,
html-keyboard-response,162,215349,0.0-10.0-0.73,60f579085ebf24f9c80f223e,650c16f0f2faf8d7a0d14c09,651c1afa0e67b1fcb7bbb06c,null,null,"<p style=""font-size: 60px; font-family: BACS"">kGlUmLJ</p>",,,,,,,,,,
html-keyboard-response,163,216351,0.0-10.0-0.74,60f579085ebf24f9c80f223e,650c16f0f2faf8d7a0d14c09,651c1afa0e67b1fcb7bbb06c,null,null,"<p style=""font-size: 60px; font-family: BACS"">GZJYrkra</p>",,,,,,,,,,
html-keyboard-response,164,217368,0.0-10.0-0.75,60f579085ebf24f9c80f223e,650c16f0f2faf8d7a0d14c09,651c1afa0e67b1fcb7bbb06c,null,null,"<p style=""font-size: 60px; font-family: BACS"">BOckPMAB</p>",,,,,,,,,,
html-keyboard-response,165,218383,0.0-10.0-0.76,60f579085ebf24f9c80f223e,650c16f0f2faf8d7a0d14c09,651c1afa0e67b1fcb7bbb06c,null,null,"<p style=""font-size: 60px; font-family: BACS"">ORbkBCAd</p>",,,,,,,,,,
html-keyboard-response,166,219398,0.0-10.0-0.77,60f579085ebf24f9c80f223e,650c16f0f2faf8d7a0d14c09,651c1afa0e67b1fcb7bbb06c,null,null,"<p style=""font-size: 60px; font-family: BACS"">AZlLNrkra</p>",,,,,,,,,,
html-keyboard-response,167,220401,0.0-10.0-0.78,60f579085ebf24f9c80f223e,650c16f0f2faf8d7a0d14c09,651c1afa0e67b1fcb7bbb06c,null,null,"<p style=""font-size: 60px; font-family: BACS"">BMEMACEM</p>",,,,,,,,,,
html-keyboard-response,168,221416,0.0-10.0-0.79,60f579085ebf24f9c80f223e,650c16f0f2faf8d7a0d14c09,651c1afa0e67b1fcb7bbb06c,null,null,"<p style=""font-size: 60px; font-family: BACS"">BbODBCAd</p>",,,,,,,,,,
html-keyboard-response,169,229287,0.0-11.0,60f579085ebf24f9c80f223e,650c16f0f2faf8d7a0d14c09,651c1afa0e67b1fcb7bbb06c,7870, ,"<p>Great, you've seen the second block of words. You may now take a short break.</p>
      <p>Press the spacebar when you're ready to continue.</p>",,,,,,,,,,
html-keyboard-response,170,230298,0.0-12.0-0.0,60f579085ebf24f9c80f223e,650c16f0f2faf8d7a0d14c09,651c1afa0e67b1fcb7bbb06c,null,null,"<p style=""font-size: 60px; font-family: BACS"">DcPTcCEM</p>",,,,,,,,,,
html-keyboard-response,171,231312,0.0-12.0-0.1,60f579085ebf24f9c80f223e,650c16f0f2faf8d7a0d14c09,651c1afa0e67b1fcb7bbb06c,null,null,"<p style=""font-size: 60px; font-family: BACS"">BbODBCAd</p>",,,,,,,,,,
html-keyboard-response,172,232315,0.0-12.0-0.2,60f579085ebf24f9c80f223e,650c16f0f2faf8d7a0d14c09,651c1afa0e67b1fcb7bbb06c,null,null,"<p style=""font-size: 60px; font-family: BACS"">bYGOZkmU</p>",,,,,,,,,,
html-keyboard-response,173,233329,0.0-12.0-0.3,60f579085ebf24f9c80f223e,650c16f0f2faf8d7a0d14c09,651c1afa0e67b1fcb7bbb06c,null,null,"<p style=""font-size: 60px; font-family: BACS"">BECkRCdc</p>",,,,,,,,,,
html-keyboard-response,174,234346,0.0-12.0-0.4,60f579085ebf24f9c80f223e,650c16f0f2faf8d7a0d14c09,651c1afa0e67b1fcb7bbb06c,null,null,"<p style=""font-size: 60px; font-family: BACS"">ZkGmYvAvb</p>",,,,,,,,,,
html-keyboard-response,175,235347,0.0-12.0-0.5,60f579085ebf24f9c80f223e,650c16f0f2faf8d7a0d14c09,651c1afa0e67b1fcb7bbb06c,null,null,"<p style=""font-size: 60px; font-family: BACS"">BOckPRCdc</p>",,,,,,,,,,
html-keyboard-response,176,236362,0.0-12.0-0.6,60f579085ebf24f9c80f223e,650c16f0f2faf8d7a0d14c09,651c1afa0e67b1fcb7bbb06c,null,null,"<p style=""font-size: 60px; font-family: BACS"">ctktBCAd</p>",,,,,,,,,,
html-keyboard-response,177,237379,0.0-12.0-0.7,60f579085ebf24f9c80f223e,650c16f0f2faf8d7a0d14c09,651c1afa0e67b1fcb7bbb06c,null,null,"<p style=""font-size: 60px; font-family: BACS"">kGlUkmU</p>",,,,,,,,,,
html-keyboard-response,178,238395,0.0-12.0-0.8,60f579085ebf24f9c80f223e,650c16f0f2faf8d7a0d14c09,651c1afa0e67b1fcb7bbb06c,null,null,"<p style=""font-size: 60px; font-family: BACS"">ORbkdCKc</p>",,,,,,,,,,
html-keyboard-response,179,239412,0.0-12.0-0.9,60f579085ebf24f9c80f223e,650c16f0f2faf8d7a0d14c09,651c1afa0e67b1fcb7bbb06c,null,null,"<p style=""font-size: 60px; font-family: BACS"">ctktRCdc</p>",,,,,,,,,,
html-keyboard-response,180,240428,0.0-12.0-0.10,60f579085ebf24f9c80f223e,650c16f0f2faf8d7a0d14c09,651c1afa0e67b1fcb7bbb06c,null,null,"<p style=""font-size: 60px; font-family: BACS"">vJabrab</p>",,,,,,,,,,
html-keyboard-response,181,241429,0.0-12.0-0.11,60f579085ebf24f9c80f223e,650c16f0f2faf8d7a0d14c09,651c1afa0e67b1fcb7bbb06c,null,null,"<p style=""font-size: 60px; font-family: BACS"">ORbkRCdc</p>",,,,,,,,,,
html-keyboard-response,182,242445,0.0-12.0-0.12,60f579085ebf24f9c80f223e,650c16f0f2faf8d7a0d14c09,651c1afa0e67b1fcb7bbb06c,null,null,"<p style=""font-size: 60px; font-family: BACS"">vJabvAvb</p>",,,,,,,,,,
html-keyboard-response,183,243461,0.0-12.0-0.13,60f579085ebf24f9c80f223e,650c16f0f2faf8d7a0d14c09,651c1afa0e67b1fcb7bbb06c,null,null,"<p style=""font-size: 60px; font-family: BACS"">Abkarab</p>",,,,,,,,,,
html-keyboard-response,184,244477,0.0-12.0-0.14,60f579085ebf24f9c80f223e,650c16f0f2faf8d7a0d14c09,651c1afa0e67b1fcb7bbb06c,null,null,"<p style=""font-size: 60px; font-family: BACS"">BOckPCEM</p>",,,,,,,,,,
html-keyboard-response,185,245478,0.0-12.0-0.15,60f579085ebf24f9c80f223e,650c16f0f2faf8d7a0d14c09,651c1afa0e67b1fcb7bbb06c,null,null,"<p style=""font-size: 60px; font-family: BACS"">kCRmRCdc</p>",,,,,,,,,,
html-keyboard-response,186,246493,0.0-12.0-0.16,60f579085ebf24f9c80f223e,650c16f0f2faf8d7a0d14c09,651c1afa0e67b1fcb7bbb06c,null,null,"<p style=""font-size: 60px; font-family: BACS"">BOckPdCKc</p>",,,,,,,,,,
html-keyboard-response,187,247494,0.0-12.0-0.17,60f579085ebf24f9c80f223e,650c16f0f2faf8d7a0d14c09,651c1afa0e67b1fcb7bbb06c,null,null,"<p style=""font-size: 60px; font-family: BACS"">kGlUrab</p>",,,,,,,,,,
html-keyboard-response,188,248509,0.0-12.0-0.18,60f579085ebf24f9c80f223e,650c16f0f2faf8d7a0d14c09,651c1afa0e67b1fcb7bbb06c,null,null,"<p style=""font-size: 60px; font-family: BACS"">kcdOtRCdc</p>",,,,,,,,,,
html-keyboard-response,189,249511,0.0-12.0-0.19,60f579085ebf24f9c80f223e,650c16f0f2faf8d7a0d14c09,651c1afa0e67b1fcb7bbb06c,null,null,"<p style=""font-size: 60px; font-family: BACS"">kdEdYMAB</p>",,,,,,,,,,
html-keyboard-response,190,250525,0.0-12.0-0.20,60f579085ebf24f9c80f223e,650c16f0f2faf8d7a0d14c09,651c1afa0e67b1fcb7bbb06c,null,null,"<p style=""font-size: 60px; font-family: BACS"">kcdOtCEM</p>",,,,,,,,,,
html-keyboard-response,191,251528,0.0-12.0-0.21,60f579085ebf24f9c80f223e,650c16f0f2faf8d7a0d14c09,651c1afa0e67b1fcb7bbb06c,null,null,"<p style=""font-size: 60px; font-family: BACS"">GZJYrab</p>",,,,,,,,,,
html-keyboard-response,192,252542,0.0-12.0-0.22,60f579085ebf24f9c80f223e,650c16f0f2faf8d7a0d14c09,651c1afa0e67b1fcb7bbb06c,null,null,"<p style=""font-size: 60px; font-family: BACS"">vJabkmU</p>",,,,,,,,,,
html-keyboard-response,193,253544,0.0-12.0-0.23,60f579085ebf24f9c80f223e,650c16f0f2faf8d7a0d14c09,651c1afa0e67b1fcb7bbb06c,null,null,"<p style=""font-size: 60px; font-family: BACS"">kdEdYBCAd</p>",,,,,,,,,,
html-keyboard-response,194,254557,0.0-12.0-0.24,60f579085ebf24f9c80f223e,650c16f0f2faf8d7a0d14c09,651c1afa0e67b1fcb7bbb06c,null,null,"<p style=""font-size: 60px; font-family: BACS"">BMEMACEM</p>",,,,,,,,,,
html-keyboard-response,195,255560,0.0-12.0-0.25,60f579085ebf24f9c80f223e,650c16f0f2faf8d7a0d14c09,651c1afa0e67b1fcb7bbb06c,null,null,"<p style=""font-size: 60px; font-family: BACS"">kGlUmLJ</p>",,,,,,,,,,
html-keyboard-response,196,256574,0.0-12.0-0.26,60f579085ebf24f9c80f223e,650c16f0f2faf8d7a0d14c09,651c1afa0e67b1fcb7bbb06c,null,null,"<p style=""font-size: 60px; font-family: BACS"">BbODdCKc</p>",,,,,,,,,,
html-keyboard-response,197,257577,0.0-12.0-0.27,60f579085ebf24f9c80f223e,650c16f0f2faf8d7a0d14c09,651c1afa0e67b1fcb7bbb06c,null,null,"<p style=""font-size: 60px; font-family: BACS"">ZkGmYrab</p>",,,,,,,,,,
html-keyboard-response,198,258591,0.0-12.0-0.28,60f579085ebf24f9c80f223e,650c16f0f2faf8d7a0d14c09,651c1afa0e67b1fcb7bbb06c,null,null,"<p style=""font-size: 60px; font-family: BACS"">kLvdNkmU</p>",,,,,,,,,,
html-keyboard-response,199,259607,0.0-12.0-0.29,60f579085ebf24f9c80f223e,650c16f0f2faf8d7a0d14c09,651c1afa0e67b1fcb7bbb06c,null,null,"<p style=""font-size: 60px; font-family: BACS"">kCRmMAB</p>",,,,,,,,,,
html-keyboard-response,200,260608,0.0-12.0-0.30,60f579085ebf24f9c80f223e,650c16f0f2faf8d7a0d14c09,651c1afa0e67b1fcb7bbb06c,null,null,"<p style=""font-size: 60px; font-family: BACS"">BMEMAdCKc</p>",,,,,,,,,,
html-keyboard-response,201,261624,0.0-12.0-0.31,60f579085ebf24f9c80f223e,650c16f0f2faf8d7a0d14c09,651c1afa0e67b1fcb7bbb06c,null,null,"<p style=""font-size: 60px; font-family: BACS"">kCRmCEM</p>",,,,,,,,,,
html-keyboard-response,202,262624,0.0-12.0-0.32,60f579085ebf24f9c80f223e,650c16f0f2faf8d7a0d14c09,651c1afa0e67b1fcb7bbb06c,null,null,"<p style=""font-size: 60px; font-family: BACS"">AbkavAvb</p>",,,,,,,,,,
html-keyboard-response,203,263639,0.0-12.0-0.33,60f579085ebf24f9c80f223e,650c16f0f2faf8d7a0d14c09,651c1afa0e67b1fcb7bbb06c,null,null,"<p style=""font-size: 60px; font-family: BACS"">BbODMAB</p>",,,,,,,,,,
html-keyboard-response,204,264656,0.0-12.0-0.34,60f579085ebf24f9c80f223e,650c16f0f2faf8d7a0d14c09,651c1afa0e67b1fcb7bbb06c,null,null,"<p style=""font-size: 60px; font-family: BACS"">ORbkCEM</p>",,,,,,,,,,
html-keyboard-response,205,265673,0.0-12.0-0.35,60f579085ebf24f9c80f223e,650c16f0f2faf8d7a0d14c09,651c1afa0e67b1fcb7bbb06c,null,null,"<p style=""font-size: 60px; font-family: BACS"">kLvdNrab</p>",,,,,,,,,,
html-keyboard-response,206,266689,0.0-12.0-0.36,60f579085ebf24f9c80f223e,650c16f0f2faf8d7a0d14c09,651c1afa0e67b1fcb7bbb06c,null,null,"<p style=""font-size: 60px; font-family: BACS"">GZJYvAvb</p>",,,,,,,,,,
html-keyboard-response,207,267690,0.0-12.0-0.37,60f579085ebf24f9c80f223e,650c16f0f2faf8d7a0d14c09,651c1afa0e67b1fcb7bbb06c,null,null,"<p style=""font-size: 60px; font-family: BACS"">DcPTcdCKc</p>",,,,,,,,,,
html-keyboard-response,208,268707,0.0-12.0-0.38,60f579085ebf24f9c80f223e,650c16f0f2faf8d7a0d14c09,651c1afa0e67b1fcb7bbb06c,null,null,"<p style=""font-size: 60px; font-family: BACS"">BMEMARCdc</p>",,,,,,,,,,
html-keyboard-response,209,269722,0.0-12.0-0.39,60f579085ebf24f9c80f223e,650c16f0f2faf8d7a0d14c09,651c1afa0e67b1fcb7bbb06c,null,null,"<p style=""font-size: 60px; font-family: BACS"">kGlUvAvb</p>",,,,,,,,,,
html-keyboard-response,210,270738,0.0-12.0-0.40,60f579085ebf24f9c80f223e,650c16f0f2faf8d7a0d14c09,651c1afa0e67b1fcb7bbb06c,null,null,"<p style=""font-size: 60px; font-family: BACS"">ctktdCKc</p>",,,,,,,,,,
html-keyboard-response,211,271739,0.0-12.0-0.41,60f579085ebf24f9c80f223e,650c16f0f2faf8d7a0d14c09,651c1afa0e67b1fcb7bbb06c,null,null,"<p style=""font-size: 60px; font-family: BACS"">GZJYmLJ</p>",,,,,,,,,,
html-keyboard-response,212,272754,0.0-12.0-0.42,60f579085ebf24f9c80f223e,650c16f0f2faf8d7a0d14c09,651c1afa0e67b1fcb7bbb06c,null,null,"<p style=""font-size: 60px; font-family: BACS"">BECkdCKc</p>",,,,,,,,,,
html-keyboard-response,213,273770,0.0-12.0-0.43,60f579085ebf24f9c80f223e,650c16f0f2faf8d7a0d14c09,651c1afa0e67b1fcb7bbb06c,null,null,"<p style=""font-size: 60px; font-family: BACS"">BMEMAMAB</p>",,,,,,,,,,
html-keyboard-response,214,274787,0.0-12.0-0.44,60f579085ebf24f9c80f223e,650c16f0f2faf8d7a0d14c09,651c1afa0e67b1fcb7bbb06c,null,null,"<p style=""font-size: 60px; font-family: BACS"">kdEdYCEM</p>",,,,,,,,,,
html-keyboard-response,215,275802,0.0-12.0-0.45,60f579085ebf24f9c80f223e,650c16f0f2faf8d7a0d14c09,651c1afa0e67b1fcb7bbb06c,null,null,"<p style=""font-size: 60px; font-family: BACS"">GZJYrkra</p>",,,,,,,,,,
html-keyboard-response,216,276804,0.0-12.0-0.46,60f579085ebf24f9c80f223e,650c16f0f2faf8d7a0d14c09,651c1afa0e67b1fcb7bbb06c,null,null,"<p style=""font-size: 60px; font-family: BACS"">ukYZmLJ</p>",,,,,,,,,,
html-keyboard-response,217,277820,0.0-12.0-0.47,60f579085ebf24f9c80f223e,650c16f0f2faf8d7a0d14c09,651c1afa0e67b1fcb7bbb06c,null,null,"<p style=""font-size: 60px; font-family: BACS"">BECkBCAd</p>",,,,,,,,,,
html-keyboard-response,218,278822,0.0-12.0-0.48,60f579085ebf24f9c80f223e,650c16f0f2faf8d7a0d14c09,651c1afa0e67b1fcb7bbb06c,null,null,"<p style=""font-size: 60px; font-family: BACS"">AZlLNmLJ</p>",,,,,,,,,,
html-keyboard-response,219,279837,0.0-12.0-0.49,60f579085ebf24f9c80f223e,650c16f0f2faf8d7a0d14c09,651c1afa0e67b1fcb7bbb06c,null,null,"<p style=""font-size: 60px; font-family: BACS"">DcPTcBCAd</p>",,,,,,,,,,
html-keyboard-response,220,280838,0.0-12.0-0.50,60f579085ebf24f9c80f223e,650c16f0f2faf8d7a0d14c09,651c1afa0e67b1fcb7bbb06c,null,null,"<p style=""font-size: 60px; font-family: BACS"">NJZlkmU</p>",,,,,,,,,,
html-keyboard-response,221,281852,0.0-12.0-0.51,60f579085ebf24f9c80f223e,650c16f0f2faf8d7a0d14c09,651c1afa0e67b1fcb7bbb06c,null,null,"<p style=""font-size: 60px; font-family: BACS"">Abkarkra</p>",,,,,,,,,,
html-keyboard-response,222,282853,0.0-12.0-0.52,60f579085ebf24f9c80f223e,650c16f0f2faf8d7a0d14c09,651c1afa0e67b1fcb7bbb06c,null,null,"<p style=""font-size: 60px; font-family: BACS"">AZlLNkmU</p>",,,,,,,,,,
html-keyboard-response,223,283869,0.0-12.0-0.53,60f579085ebf24f9c80f223e,650c16f0f2faf8d7a0d14c09,651c1afa0e67b1fcb7bbb06c,null,null,"<p style=""font-size: 60px; font-family: BACS"">ctktCEM</p>",,,,,,,,,,
html-keyboard-response,224,284884,0.0-12.0-0.54,60f579085ebf24f9c80f223e,650c16f0f2faf8d7a0d14c09,651c1afa0e67b1fcb7bbb06c,null,null,"<p style=""font-size: 60px; font-family: BACS"">BOckPMAB</p>",,,,,,,,,,
html-keyboard-response,225,285886,0.0-12.0-0.55,60f579085ebf24f9c80f223e,650c16f0f2faf8d7a0d14c09,651c1afa0e67b1fcb7bbb06c,null,null,"<p style=""font-size: 60px; font-family: BACS"">kcdOtBCAd</p>",,,,,,,,,,
html-keyboard-response,226,286900,0.0-12.0-0.56,60f579085ebf24f9c80f223e,650c16f0f2faf8d7a0d14c09,651c1afa0e67b1fcb7bbb06c,null,null,"<p style=""font-size: 60px; font-family: BACS"">AZlLNvAvb</p>",,,,,,,,,,
html-keyboard-response,227,287917,0.0-12.0-0.57,60f579085ebf24f9c80f223e,650c16f0f2faf8d7a0d14c09,651c1afa0e67b1fcb7bbb06c,null,null,"<p style=""font-size: 60px; font-family: BACS"">kLvdNrkra</p>",,,,,,,,,,
html-keyboard-response,228,288918,0.0-12.0-0.58,60f579085ebf24f9c80f223e,650c16f0f2faf8d7a0d14c09,651c1afa0e67b1fcb7bbb06c,null,null,"<p style=""font-size: 60px; font-family: BACS"">ORbkBCAd</p>",,,,,,,,,,
html-keyboard-response,229,289935,0.0-12.0-0.59,60f579085ebf24f9c80f223e,650c16f0f2faf8d7a0d14c09,651c1afa0e67b1fcb7bbb06c,null,null,"<p style=""font-size: 60px; font-family: BACS"">BbODRCdc</p>",,,,,,,,,,
html-keyboard-response,230,290949,0.0-12.0-0.60,60f579085ebf24f9c80f223e,650c16f0f2faf8d7a0d14c09,651c1afa0e67b1fcb7bbb06c,null,null,"<p style=""font-size: 60px; font-family: BACS"">ukYZkmU</p>",,,,,,,,,,
html-keyboard-response,231,291950,0.0-12.0-0.61,60f579085ebf24f9c80f223e,650c16f0f2faf8d7a0d14c09,651c1afa0e67b1fcb7bbb06c,null,null,"<p style=""font-size: 60px; font-family: BACS"">DcPTcMAB</p>",,,,,,,,,,
html-keyboard-response,232,292952,0.0-12.0-0.62,60f579085ebf24f9c80f223e,650c16f0f2faf8d7a0d14c09,651c1afa0e67b1fcb7bbb06c,null,null,"<p style=""font-size: 60px; font-family: BACS"">kdEdYdCKc</p>",,,,,,,,,,
html-keyboard-response,233,293966,0.0-12.0-0.63,60f579085ebf24f9c80f223e,650c16f0f2faf8d7a0d14c09,651c1afa0e67b1fcb7bbb06c,null,null,"<p style=""font-size: 60px; font-family: BACS"">ZkGmYkmU</p>",,,,,,,,,,
html-keyboard-response,234,294983,0.0-12.0-0.64,60f579085ebf24f9c80f223e,650c16f0f2faf8d7a0d14c09,651c1afa0e67b1fcb7bbb06c,null,null,"<p style=""font-size: 60px; font-family: BACS"">AbkamLJ</p>",,,,,,,,,,
html-keyboard-response,235,295999,0.0-12.0-0.65,60f579085ebf24f9c80f223e,650c16f0f2faf8d7a0d14c09,651c1afa0e67b1fcb7bbb06c,null,null,"<p style=""font-size: 60px; font-family: BACS"">BECkMAB</p>",,,,,,,,,,
html-keyboard-response,236,297000,0.0-12.0-0.66,60f579085ebf24f9c80f223e,650c16f0f2faf8d7a0d14c09,651c1afa0e67b1fcb7bbb06c,null,null,"<p style=""font-size: 60px; font-family: BACS"">vJabmLJ</p>",,,,,,,,,,
html-keyboard-response,237,298015,0.0-12.0-0.67,60f579085ebf24f9c80f223e,650c16f0f2faf8d7a0d14c09,651c1afa0e67b1fcb7bbb06c,null,null,"<p style=""font-size: 60px; font-family: BACS"">kCRmBCAd</p>",,,,,,,,,,
html-keyboard-response,238,299031,0.0-12.0-0.68,60f579085ebf24f9c80f223e,650c16f0f2faf8d7a0d14c09,651c1afa0e67b1fcb7bbb06c,null,null,"<p style=""font-size: 60px; font-family: BACS"">bYGOZvAvb</p>",,,,,,,,,,
html-keyboard-response,239,300031,0.0-12.0-0.69,60f579085ebf24f9c80f223e,650c16f0f2faf8d7a0d14c09,651c1afa0e67b1fcb7bbb06c,null,null,"<p style=""font-size: 60px; font-family: BACS"">kcdOtMAB</p>",,,,,,,,,,
html-keyboard-response,240,301046,0.0-12.0-0.70,60f579085ebf24f9c80f223e,650c16f0f2faf8d7a0d14c09,651c1afa0e67b1fcb7bbb06c,null,null,"<p style=""font-size: 60px; font-family: BACS"">ukYZrkra</p>",,,,,,,,,,
html-keyboard-response,241,302063,0.0-12.0-0.71,60f579085ebf24f9c80f223e,650c16f0f2faf8d7a0d14c09,651c1afa0e67b1fcb7bbb06c,null,null,"<p style=""font-size: 60px; font-family: BACS"">bYGOZrab</p>",,,,,,,,,,
html-keyboard-response,242,303065,0.0-12.0-0.72,60f579085ebf24f9c80f223e,650c16f0f2faf8d7a0d14c09,651c1afa0e67b1fcb7bbb06c,null,null,"<p style=""font-size: 60px; font-family: BACS"">AZlLNrkra</p>",,,,,,,,,,
html-keyboard-response,243,304079,0.0-12.0-0.73,60f579085ebf24f9c80f223e,650c16f0f2faf8d7a0d14c09,651c1afa0e67b1fcb7bbb06c,null,null,"<p style=""font-size: 60px; font-family: BACS"">NJZlmLJ</p>",,,,,,,,,,
html-keyboard-response,244,305096,0.0-12.0-0.74,60f579085ebf24f9c80f223e,650c16f0f2faf8d7a0d14c09,651c1afa0e67b1fcb7bbb06c,null,null,"<p style=""font-size: 60px; font-family: BACS"">bYGOZrkra</p>",,,,,,,,,,
html-keyboard-response,245,306098,0.0-12.0-0.75,60f579085ebf24f9c80f223e,650c16f0f2faf8d7a0d14c09,651c1afa0e67b1fcb7bbb06c,null,null,"<p style=""font-size: 60px; font-family: BACS"">NJZlrab</p>",,,,,,,,,,
html-keyboard-response,246,307112,0.0-12.0-0.76,60f579085ebf24f9c80f223e,650c16f0f2faf8d7a0d14c09,651c1afa0e67b1fcb7bbb06c,null,null,"<p style=""font-size: 60px; font-family: BACS"">ZkGmYrkra</p>",,,,,,,,,,
html-keyboard-response,247,308129,0.0-12.0-0.77,60f579085ebf24f9c80f223e,650c16f0f2faf8d7a0d14c09,651c1afa0e67b1fcb7bbb06c,null,null,"<p style=""font-size: 60px; font-family: BACS"">ukYZvAvb</p>",,,,,,,,,,
html-keyboard-response,248,309146,0.0-12.0-0.78,60f579085ebf24f9c80f223e,650c16f0f2faf8d7a0d14c09,651c1afa0e67b1fcb7bbb06c,null,null,"<p style=""font-size: 60px; font-family: BACS"">kLvdNmLJ</p>",,,,,,,,,,
html-keyboard-response,249,310161,0.0-12.0-0.79,60f579085ebf24f9c80f223e,650c16f0f2faf8d7a0d14c09,651c1afa0e67b1fcb7bbb06c,null,null,"<p style=""font-size: 60px; font-family: BACS"">NJZlrkra</p>",,,,,,,,,,
html-keyboard-response,250,317375,0.0-13.0,60f579085ebf24f9c80f223e,650c16f0f2faf8d7a0d14c09,651c1afa0e67b1fcb7bbb06c,7213, ,"<p>Great, you've seen the third block of words. You may now take a short break.</p>
      <p>Press the spacebar when you're ready to continue.</p>",,,,,,,,,,
html-keyboard-response,251,318377,0.0-14.0-0.0,60f579085ebf24f9c80f223e,650c16f0f2faf8d7a0d14c09,651c1afa0e67b1fcb7bbb06c,null,null,"<p style=""font-size: 60px; font-family: BACS"">BbODdCKc</p>",,,,,,,,,,
html-keyboard-response,252,319394,0.0-14.0-0.1,60f579085ebf24f9c80f223e,650c16f0f2faf8d7a0d14c09,651c1afa0e67b1fcb7bbb06c,null,null,"<p style=""font-size: 60px; font-family: BACS"">BECkBCAd</p>",,,,,,,,,,
html-keyboard-response,253,320410,0.0-14.0-0.2,60f579085ebf24f9c80f223e,650c16f0f2faf8d7a0d14c09,651c1afa0e67b1fcb7bbb06c,null,null,"<p style=""font-size: 60px; font-family: BACS"">kLvdNmLJ</p>",,,,,,,,,,
html-keyboard-response,254,321425,0.0-14.0-0.3,60f579085ebf24f9c80f223e,650c16f0f2faf8d7a0d14c09,651c1afa0e67b1fcb7bbb06c,null,null,"<p style=""font-size: 60px; font-family: BACS"">kCRmRCdc</p>",,,,,,,,,,
html-keyboard-response,255,322442,0.0-14.0-0.4,60f579085ebf24f9c80f223e,650c16f0f2faf8d7a0d14c09,651c1afa0e67b1fcb7bbb06c,null,null,"<p style=""font-size: 60px; font-family: BACS"">BECkdCKc</p>",,,,,,,,,,
html-keyboard-response,256,323443,0.0-14.0-0.5,60f579085ebf24f9c80f223e,650c16f0f2faf8d7a0d14c09,651c1afa0e67b1fcb7bbb06c,null,null,"<p style=""font-size: 60px; font-family: BACS"">ctktBCAd</p>",,,,,,,,,,
html-keyboard-response,257,324458,0.0-14.0-0.6,60f579085ebf24f9c80f223e,650c16f0f2faf8d7a0d14c09,651c1afa0e67b1fcb7bbb06c,null,null,"<p style=""font-size: 60px; font-family: BACS"">AZlLNmLJ</p>",,,,,,,,,,
html-keyboard-response,258,325474,0.0-14.0-0.7,60f579085ebf24f9c80f223e,650c16f0f2faf8d7a0d14c09,651c1afa0e67b1fcb7bbb06c,null,null,"<p style=""font-size: 60px; font-family: BACS"">ORbkBCAd</p>",,,,,,,,,,
html-keyboard-response,259,326491,0.0-14.0-0.8,60f579085ebf24f9c80f223e,650c16f0f2faf8d7a0d14c09,651c1afa0e67b1fcb7bbb06c,null,null,"<p style=""font-size: 60px; font-family: BACS"">GZJYmLJ</p>",,,,,,,,,,
html-keyboard-response,260,327508,0.0-14.0-0.9,60f579085ebf24f9c80f223e,650c16f0f2faf8d7a0d14c09,651c1afa0e67b1fcb7bbb06c,null,null,"<p style=""font-size: 60px; font-family: BACS"">ZkGmYrkra</p>",,,,,,,,,,
html-keyboard-response,261,328524,0.0-14.0-0.10,60f579085ebf24f9c80f223e,650c16f0f2faf8d7a0d14c09,651c1afa0e67b1fcb7bbb06c,null,null,"<p style=""font-size: 60px; font-family: BACS"">BMEMAMAB</p>",,,,,,,,,,
html-keyboard-response,262,329540,0.0-14.0-0.11,60f579085ebf24f9c80f223e,650c16f0f2faf8d7a0d14c09,651c1afa0e67b1fcb7bbb06c,null,null,"<p style=""font-size: 60px; font-family: BACS"">bYGOZkmU</p>",,,,,,,,,,
html-keyboard-response,263,330557,0.0-14.0-0.12,60f579085ebf24f9c80f223e,650c16f0f2faf8d7a0d14c09,651c1afa0e67b1fcb7bbb06c,null,null,"<p style=""font-size: 60px; font-family: BACS"">DcPTcBCAd</p>",,,,,,,,,,
html-keyboard-response,264,331573,0.0-14.0-0.13,60f579085ebf24f9c80f223e,650c16f0f2faf8d7a0d14c09,651c1afa0e67b1fcb7bbb06c,null,null,"<p style=""font-size: 60px; font-family: BACS"">ukYZvAvb</p>",,,,,,,,,,
html-keyboard-response,265,332574,0.0-14.0-0.14,60f579085ebf24f9c80f223e,650c16f0f2faf8d7a0d14c09,651c1afa0e67b1fcb7bbb06c,null,null,"<p style=""font-size: 60px; font-family: BACS"">BOckPdCKc</p>",,,,,,,,,,
html-keyboard-response,266,333589,0.0-14.0-0.15,60f579085ebf24f9c80f223e,650c16f0f2faf8d7a0d14c09,651c1afa0e67b1fcb7bbb06c,null,null,"<p style=""font-size: 60px; font-family: BACS"">BbODBCAd</p>",,,,,,,,,,
html-keyboard-response,267,334606,0.0-14.0-0.16,60f579085ebf24f9c80f223e,650c16f0f2faf8d7a0d14c09,651c1afa0e67b1fcb7bbb06c,null,null,"<p style=""font-size: 60px; font-family: BACS"">ukYZrkra</p>",,,,,,,,,,
html-keyboard-response,268,335623,0.0-14.0-0.17,60f579085ebf24f9c80f223e,650c16f0f2faf8d7a0d14c09,651c1afa0e67b1fcb7bbb06c,null,null,"<p style=""font-size: 60px; font-family: BACS"">Abkarab</p>",,,,,,,,,,
html-keyboard-response,269,336640,0.0-14.0-0.18,60f579085ebf24f9c80f223e,650c16f0f2faf8d7a0d14c09,651c1afa0e67b1fcb7bbb06c,null,null,"<p style=""font-size: 60px; font-family: BACS"">AZlLNvAvb</p>",,,,,,,,,,
html-keyboard-response,270,337656,0.0-14.0-0.19,60f579085ebf24f9c80f223e,650c16f0f2faf8d7a0d14c09,651c1afa0e67b1fcb7bbb06c,null,null,"<p style=""font-size: 60px; font-family: BACS"">kGlUrab</p>",,,,,,,,,,
html-keyboard-response,271,338672,0.0-14.0-0.20,60f579085ebf24f9c80f223e,650c16f0f2faf8d7a0d14c09,651c1afa0e67b1fcb7bbb06c,null,null,"<p style=""font-size: 60px; font-family: BACS"">AbkamLJ</p>",,,,,,,,,,
html-keyboard-response,272,339687,0.0-14.0-0.21,60f579085ebf24f9c80f223e,650c16f0f2faf8d7a0d14c09,651c1afa0e67b1fcb7bbb06c,null,null,"<p style=""font-size: 60px; font-family: BACS"">NJZlkmU</p>",,,,,,,,,,
html-keyboard-response,273,340704,0.0-14.0-0.22,60f579085ebf24f9c80f223e,650c16f0f2faf8d7a0d14c09,651c1afa0e67b1fcb7bbb06c,null,null,"<p style=""font-size: 60px; font-family: BACS"">kGlUmLJ</p>",,,,,,,,,,
html-keyboard-response,274,341720,0.0-14.0-0.23,60f579085ebf24f9c80f223e,650c16f0f2faf8d7a0d14c09,651c1afa0e67b1fcb7bbb06c,null,null,"<p style=""font-size: 60px; font-family: BACS"">BOckPRCdc</p>",,,,,,,,,,
html-keyboard-response,275,342737,0.0-14.0-0.24,60f579085ebf24f9c80f223e,650c16f0f2faf8d7a0d14c09,651c1afa0e67b1fcb7bbb06c,null,null,"<p style=""font-size: 60px; font-family: BACS"">ctktdCKc</p>",,,,,,,,,,
html-keyboard-response,276,343738,0.0-14.0-0.25,60f579085ebf24f9c80f223e,650c16f0f2faf8d7a0d14c09,651c1afa0e67b1fcb7bbb06c,null,null,"<p style=""font-size: 60px; font-family: BACS"">bYGOZvAvb</p>",,,,,,,,,,
html-keyboard-response,277,344755,0.0-14.0-0.26,60f579085ebf24f9c80f223e,650c16f0f2faf8d7a0d14c09,651c1afa0e67b1fcb7bbb06c,null,null,"<p style=""font-size: 60px; font-family: BACS"">ZkGmYrab</p>",,,,,,,,,,
html-keyboard-response,278,345770,0.0-14.0-0.27,60f579085ebf24f9c80f223e,650c16f0f2faf8d7a0d14c09,651c1afa0e67b1fcb7bbb06c,null,null,"<p style=""font-size: 60px; font-family: BACS"">vJabkmU</p>",,,,,,,,,,
html-keyboard-response,279,346771,0.0-14.0-0.28,60f579085ebf24f9c80f223e,650c16f0f2faf8d7a0d14c09,651c1afa0e67b1fcb7bbb06c,null,null,"<p style=""font-size: 60px; font-family: BACS"">kLvdNrab</p>",,,,,,,,,,
html-keyboard-response,280,347787,0.0-14.0-0.29,60f579085ebf24f9c80f223e,650c16f0f2faf8d7a0d14c09,651c1afa0e67b1fcb7bbb06c,null,null,"<p style=""font-size: 60px; font-family: BACS"">kcdOtCEM</p>",,,,,,,,,,
html-keyboard-response,281,348802,0.0-14.0-0.30,60f579085ebf24f9c80f223e,650c16f0f2faf8d7a0d14c09,651c1afa0e67b1fcb7bbb06c,null,null,"<p style=""font-size: 60px; font-family: BACS"">GZJYrkra</p>",,,,,,,,,,
html-keyboard-response,282,349818,0.0-14.0-0.31,60f579085ebf24f9c80f223e,650c16f0f2faf8d7a0d14c09,651c1afa0e67b1fcb7bbb06c,null,null,"<p style=""font-size: 60px; font-family: BACS"">kdEdYBCAd</p>",,,,,,,,,,
html-keyboard-response,283,350834,0.0-14.0-0.32,60f579085ebf24f9c80f223e,650c16f0f2faf8d7a0d14c09,651c1afa0e67b1fcb7bbb06c,null,null,"<p style=""font-size: 60px; font-family: BACS"">BECkMAB</p>",,,,,,,,,,
html-keyboard-response,284,351837,0.0-14.0-0.33,60f579085ebf24f9c80f223e,650c16f0f2faf8d7a0d14c09,651c1afa0e67b1fcb7bbb06c,null,null,"<p style=""font-size: 60px; font-family: BACS"">ctktCEM</p>",,,,,,,,,,
html-keyboard-response,285,352851,0.0-14.0-0.34,60f579085ebf24f9c80f223e,650c16f0f2faf8d7a0d14c09,651c1afa0e67b1fcb7bbb06c,null,null,"<p style=""font-size: 60px; font-family: BACS"">bYGOZrab</p>",,,,,,,,,,
html-keyboard-response,286,353853,0.0-14.0-0.35,60f579085ebf24f9c80f223e,650c16f0f2faf8d7a0d14c09,651c1afa0e67b1fcb7bbb06c,null,null,"<p style=""font-size: 60px; font-family: BACS"">ORbkdCKc</p>",,,,,,,,,,
html-keyboard-response,287,354867,0.0-14.0-0.36,60f579085ebf24f9c80f223e,650c16f0f2faf8d7a0d14c09,651c1afa0e67b1fcb7bbb06c,null,null,"<p style=""font-size: 60px; font-family: BACS"">AbkavAvb</p>",,,,,,,,,,
html-keyboard-response,288,355869,0.0-14.0-0.37,60f579085ebf24f9c80f223e,650c16f0f2faf8d7a0d14c09,651c1afa0e67b1fcb7bbb06c,null,null,"<p style=""font-size: 60px; font-family: BACS"">BMEMARCdc</p>",,,,,,,,,,
html-keyboard-response,289,356883,0.0-14.0-0.38,60f579085ebf24f9c80f223e,650c16f0f2faf8d7a0d14c09,651c1afa0e67b1fcb7bbb06c,null,null,"<p style=""font-size: 60px; font-family: BACS"">kGlUkmU</p>",,,,,,,,,,
html-keyboard-response,290,357899,0.0-14.0-0.39,60f579085ebf24f9c80f223e,650c16f0f2faf8d7a0d14c09,651c1afa0e67b1fcb7bbb06c,null,null,"<p style=""font-size: 60px; font-family: BACS"">kcdOtMAB</p>",,,,,,,,,,
html-keyboard-response,291,358901,0.0-14.0-0.40,60f579085ebf24f9c80f223e,650c16f0f2faf8d7a0d14c09,651c1afa0e67b1fcb7bbb06c,null,null,"<p style=""font-size: 60px; font-family: BACS"">AZlLNrkra</p>",,,,,,,,,,
html-keyboard-response,292,359916,0.0-14.0-0.41,60f579085ebf24f9c80f223e,650c16f0f2faf8d7a0d14c09,651c1afa0e67b1fcb7bbb06c,null,null,"<p style=""font-size: 60px; font-family: BACS"">DcPTcCEM</p>",,,,,,,,,,
html-keyboard-response,293,360919,0.0-14.0-0.42,60f579085ebf24f9c80f223e,650c16f0f2faf8d7a0d14c09,651c1afa0e67b1fcb7bbb06c,null,null,"<p style=""font-size: 60px; font-family: BACS"">kLvdNrkra</p>",,,,,,,,,,
html-keyboard-response,294,361934,0.0-14.0-0.43,60f579085ebf24f9c80f223e,650c16f0f2faf8d7a0d14c09,651c1afa0e67b1fcb7bbb06c,null,null,"<p style=""font-size: 60px; font-family: BACS"">kGlUvAvb</p>",,,,,,,,,,
html-keyboard-response,295,362934,0.0-14.0-0.44,60f579085ebf24f9c80f223e,650c16f0f2faf8d7a0d14c09,651c1afa0e67b1fcb7bbb06c,null,null,"<p style=""font-size: 60px; font-family: BACS"">BMEMAdCKc</p>",,,,,,,,,,
html-keyboard-response,296,363950,0.0-14.0-0.45,60f579085ebf24f9c80f223e,650c16f0f2faf8d7a0d14c09,651c1afa0e67b1fcb7bbb06c,null,null,"<p style=""font-size: 60px; font-family: BACS"">DcPTcMAB</p>",,,,,,,,,,
html-keyboard-response,297,364965,0.0-14.0-0.46,60f579085ebf24f9c80f223e,650c16f0f2faf8d7a0d14c09,651c1afa0e67b1fcb7bbb06c,null,null,"<p style=""font-size: 60px; font-family: BACS"">kcdOtRCdc</p>",,,,,,,,,,
html-keyboard-response,298,365982,0.0-14.0-0.47,60f579085ebf24f9c80f223e,650c16f0f2faf8d7a0d14c09,651c1afa0e67b1fcb7bbb06c,null,null,"<p style=""font-size: 60px; font-family: BACS"">Abkarkra</p>",,,,,,,,,,
html-keyboard-response,299,366997,0.0-14.0-0.48,60f579085ebf24f9c80f223e,650c16f0f2faf8d7a0d14c09,651c1afa0e67b1fcb7bbb06c,null,null,"<p style=""font-size: 60px; font-family: BACS"">vJabmLJ</p>",,,,,,,,,,
html-keyboard-response,300,368000,0.0-14.0-0.49,60f579085ebf24f9c80f223e,650c16f0f2faf8d7a0d14c09,651c1afa0e67b1fcb7bbb06c,null,null,"<p style=""font-size: 60px; font-family: BACS"">ukYZkmU</p>",,,,,,,,,,
html-keyboard-response,301,369015,0.0-14.0-0.50,60f579085ebf24f9c80f223e,650c16f0f2faf8d7a0d14c09,651c1afa0e67b1fcb7bbb06c,null,null,"<p style=""font-size: 60px; font-family: BACS"">kdEdYMAB</p>",,,,,,,,,,
html-keyboard-response,302,370031,0.0-14.0-0.51,60f579085ebf24f9c80f223e,650c16f0f2faf8d7a0d14c09,651c1afa0e67b1fcb7bbb06c,null,null,"<p style=""font-size: 60px; font-family: BACS"">ZkGmYkmU</p>",,,,,,,,,,
html-keyboard-response,303,371048,0.0-14.0-0.52,60f579085ebf24f9c80f223e,650c16f0f2faf8d7a0d14c09,651c1afa0e67b1fcb7bbb06c,null,null,"<p style=""font-size: 60px; font-family: BACS"">GZJYvAvb</p>",,,,,,,,,,
html-keyboard-response,304,372049,0.0-14.0-0.53,60f579085ebf24f9c80f223e,650c16f0f2faf8d7a0d14c09,651c1afa0e67b1fcb7bbb06c,null,null,"<p style=""font-size: 60px; font-family: BACS"">ukYZmLJ</p>",,,,,,,,,,
html-keyboard-response,305,373064,0.0-14.0-0.54,60f579085ebf24f9c80f223e,650c16f0f2faf8d7a0d14c09,651c1afa0e67b1fcb7bbb06c,null,null,"<p style=""font-size: 60px; font-family: BACS"">kLvdNkmU</p>",,,,,,,,,,
html-keyboard-response,306,374080,0.0-14.0-0.55,60f579085ebf24f9c80f223e,650c16f0f2faf8d7a0d14c09,651c1afa0e67b1fcb7bbb06c,null,null,"<p style=""font-size: 60px; font-family: BACS"">vJabvAvb</p>",,,,,,,,,,
html-keyboard-response,307,375095,0.0-14.0-0.56,60f579085ebf24f9c80f223e,650c16f0f2faf8d7a0d14c09,651c1afa0e67b1fcb7bbb06c,null,null,"<p style=""font-size: 60px; font-family: BACS"">ctktRCdc</p>",,,,,,,,,,
html-keyboard-response,308,376112,0.0-14.0-0.57,60f579085ebf24f9c80f223e,650c16f0f2faf8d7a0d14c09,651c1afa0e67b1fcb7bbb06c,null,null,"<p style=""font-size: 60px; font-family: BACS"">vJabrab</p>",,,,,,,,,,
html-keyboard-response,309,377114,0.0-14.0-0.58,60f579085ebf24f9c80f223e,650c16f0f2faf8d7a0d14c09,651c1afa0e67b1fcb7bbb06c,null,null,"<p style=""font-size: 60px; font-family: BACS"">kcdOtBCAd</p>",,,,,,,,,,
html-keyboard-response,310,378129,0.0-14.0-0.59,60f579085ebf24f9c80f223e,650c16f0f2faf8d7a0d14c09,651c1afa0e67b1fcb7bbb06c,null,null,"<p style=""font-size: 60px; font-family: BACS"">kdEdYdCKc</p>",,,,,,,,,,
html-keyboard-response,311,379131,0.0-14.0-0.60,60f579085ebf24f9c80f223e,650c16f0f2faf8d7a0d14c09,651c1afa0e67b1fcb7bbb06c,null,null,"<p style=""font-size: 60px; font-family: BACS"">BbODRCdc</p>",,,,,,,,,,
html-keyboard-response,312,380145,0.0-14.0-0.61,60f579085ebf24f9c80f223e,650c16f0f2faf8d7a0d14c09,651c1afa0e67b1fcb7bbb06c,null,null,"<p style=""font-size: 60px; font-family: BACS"">AZlLNkmU</p>",,,,,,,,,,
html-keyboard-response,313,381147,0.0-14.0-0.62,60f579085ebf24f9c80f223e,650c16f0f2faf8d7a0d14c09,651c1afa0e67b1fcb7bbb06c,null,null,"<p style=""font-size: 60px; font-family: BACS"">ORbkCEM</p>",,,,,,,,,,
html-keyboard-response,314,382161,0.0-14.0-0.63,60f579085ebf24f9c80f223e,650c16f0f2faf8d7a0d14c09,651c1afa0e67b1fcb7bbb06c,null,null,"<p style=""font-size: 60px; font-family: BACS"">NJZlrkra</p>",,,,,,,,,,
html-keyboard-response,315,383162,0.0-14.0-0.64,60f579085ebf24f9c80f223e,650c16f0f2faf8d7a0d14c09,651c1afa0e67b1fcb7bbb06c,null,null,"<p style=""font-size: 60px; font-family: BACS"">BOckPMAB</p>",,,,,,,,,,
html-keyboard-response,316,384176,0.0-14.0-0.65,60f579085ebf24f9c80f223e,650c16f0f2faf8d7a0d14c09,651c1afa0e67b1fcb7bbb06c,null,null,"<p style=""font-size: 60px; font-family: BACS"">bYGOZrkra</p>",,,,,,,,,,
html-keyboard-response,317,385178,0.0-14.0-0.66,60f579085ebf24f9c80f223e,650c16f0f2faf8d7a0d14c09,651c1afa0e67b1fcb7bbb06c,null,null,"<p style=""font-size: 60px; font-family: BACS"">DcPTcdCKc</p>",,,,,,,,,,
html-keyboard-response,318,386195,0.0-14.0-0.67,60f579085ebf24f9c80f223e,650c16f0f2faf8d7a0d14c09,651c1afa0e67b1fcb7bbb06c,null,null,"<p style=""font-size: 60px; font-family: BACS"">BOckPCEM</p>",,,,,,,,,,
html-keyboard-response,319,387209,0.0-14.0-0.68,60f579085ebf24f9c80f223e,650c16f0f2faf8d7a0d14c09,651c1afa0e67b1fcb7bbb06c,null,null,"<p style=""font-size: 60px; font-family: BACS"">NJZlmLJ</p>",,,,,,,,,,
html-keyboard-response,320,388212,0.0-14.0-0.69,60f579085ebf24f9c80f223e,650c16f0f2faf8d7a0d14c09,651c1afa0e67b1fcb7bbb06c,null,null,"<p style=""font-size: 60px; font-family: BACS"">ORbkRCdc</p>",,,,,,,,,,
html-keyboard-response,321,389227,0.0-14.0-0.70,60f579085ebf24f9c80f223e,650c16f0f2faf8d7a0d14c09,651c1afa0e67b1fcb7bbb06c,null,null,"<p style=""font-size: 60px; font-family: BACS"">GZJYrab</p>",,,,,,,,,,
html-keyboard-response,322,390243,0.0-14.0-0.71,60f579085ebf24f9c80f223e,650c16f0f2faf8d7a0d14c09,651c1afa0e67b1fcb7bbb06c,null,null,"<p style=""font-size: 60px; font-family: BACS"">kCRmCEM</p>",,,,,,,,,,
html-keyboard-response,323,391259,0.0-14.0-0.72,60f579085ebf24f9c80f223e,650c16f0f2faf8d7a0d14c09,651c1afa0e67b1fcb7bbb06c,null,null,"<p style=""font-size: 60px; font-family: BACS"">NJZlrab</p>",,,,,,,,,,
html-keyboard-response,324,392275,0.0-14.0-0.73,60f579085ebf24f9c80f223e,650c16f0f2faf8d7a0d14c09,651c1afa0e67b1fcb7bbb06c,null,null,"<p style=""font-size: 60px; font-family: BACS"">kCRmMAB</p>",,,,,,,,,,
html-keyboard-response,325,393291,0.0-14.0-0.74,60f579085ebf24f9c80f223e,650c16f0f2faf8d7a0d14c09,651c1afa0e67b1fcb7bbb06c,null,null,"<p style=""font-size: 60px; font-family: BACS"">ZkGmYvAvb</p>",,,,,,,,,,
html-keyboard-response,326,394293,0.0-14.0-0.75,60f579085ebf24f9c80f223e,650c16f0f2faf8d7a0d14c09,651c1afa0e67b1fcb7bbb06c,null,null,"<p style=""font-size: 60px; font-family: BACS"">kCRmBCAd</p>",,,,,,,,,,
html-keyboard-response,327,395308,0.0-14.0-0.76,60f579085ebf24f9c80f223e,650c16f0f2faf8d7a0d14c09,651c1afa0e67b1fcb7bbb06c,null,null,"<p style=""font-size: 60px; font-family: BACS"">BMEMACEM</p>",,,,,,,,,,
html-keyboard-response,328,396324,0.0-14.0-0.77,60f579085ebf24f9c80f223e,650c16f0f2faf8d7a0d14c09,651c1afa0e67b1fcb7bbb06c,null,null,"<p style=""font-size: 60px; font-family: BACS"">BECkRCdc</p>",,,,,,,,,,
html-keyboard-response,329,397326,0.0-14.0-0.78,60f579085ebf24f9c80f223e,650c16f0f2faf8d7a0d14c09,651c1afa0e67b1fcb7bbb06c,null,null,"<p style=""font-size: 60px; font-family: BACS"">kdEdYCEM</p>",,,,,,,,,,
html-keyboard-response,330,398341,0.0-14.0-0.79,60f579085ebf24f9c80f223e,650c16f0f2faf8d7a0d14c09,651c1afa0e67b1fcb7bbb06c,null,null,"<p style=""font-size: 60px; font-family: BACS"">BbODMAB</p>",,,,,,,,,,
html-keyboard-response,331,411123,0.0-15.0,60f579085ebf24f9c80f223e,650c16f0f2faf8d7a0d14c09,651c1afa0e67b1fcb7bbb06c,12780, ,"<p>Great, you've seen the fourth block of words. You may now take a short break.</p>
      <p>Press the spacebar when you're ready to continue.</p>",,,,,,,,,,
html-keyboard-response,332,412137,0.0-16.0-0.0,60f579085ebf24f9c80f223e,650c16f0f2faf8d7a0d14c09,651c1afa0e67b1fcb7bbb06c,null,null,"<p style=""font-size: 60px; font-family: BACS"">NJZlrab</p>",,,,,,,,,,
html-keyboard-response,333,413154,0.0-16.0-0.1,60f579085ebf24f9c80f223e,650c16f0f2faf8d7a0d14c09,651c1afa0e67b1fcb7bbb06c,null,null,"<p style=""font-size: 60px; font-family: BACS"">NJZlrab</p>",,,,,,,,,,
html-keyboard-response,334,414156,0.0-16.0-0.2,60f579085ebf24f9c80f223e,650c16f0f2faf8d7a0d14c09,651c1afa0e67b1fcb7bbb06c,null,null,"<p style=""font-size: 60px; font-family: BACS"">NJZlrab</p>",,,,,,,,,,
html-keyboard-response,335,415169,0.0-16.0-0.3,60f579085ebf24f9c80f223e,650c16f0f2faf8d7a0d14c09,651c1afa0e67b1fcb7bbb06c,null,null,"<p style=""font-size: 60px; font-family: BACS"">NJZlrab</p>",,,,,,,,,,
html-keyboard-response,336,416171,0.0-16.0-0.4,60f579085ebf24f9c80f223e,650c16f0f2faf8d7a0d14c09,651c1afa0e67b1fcb7bbb06c,null,null,"<p style=""font-size: 60px; font-family: BACS"">NJZlrab</p>",,,,,,,,,,
html-keyboard-response,337,417186,0.0-16.0-0.5,60f579085ebf24f9c80f223e,650c16f0f2faf8d7a0d14c09,651c1afa0e67b1fcb7bbb06c,null,null,"<p style=""font-size: 60px; font-family: BACS"">NJZlrab</p>",,,,,,,,,,
html-keyboard-response,338,418187,0.0-16.0-0.6,60f579085ebf24f9c80f223e,650c16f0f2faf8d7a0d14c09,651c1afa0e67b1fcb7bbb06c,null,null,"<p style=""font-size: 60px; font-family: BACS"">NJZlrab</p>",,,,,,,,,,
html-keyboard-response,339,419203,0.0-16.0-0.7,60f579085ebf24f9c80f223e,650c16f0f2faf8d7a0d14c09,651c1afa0e67b1fcb7bbb06c,null,null,"<p style=""font-size: 60px; font-family: BACS"">NJZlrab</p>",,,,,,,,,,
html-keyboard-response,340,420219,0.0-16.0-0.8,60f579085ebf24f9c80f223e,650c16f0f2faf8d7a0d14c09,651c1afa0e67b1fcb7bbb06c,null,null,"<p style=""font-size: 60px; font-family: BACS"">NJZlrab</p>",,,,,,,,,,
html-keyboard-response,341,421236,0.0-16.0-0.9,60f579085ebf24f9c80f223e,650c16f0f2faf8d7a0d14c09,651c1afa0e67b1fcb7bbb06c,null,null,"<p style=""font-size: 60px; font-family: BACS"">NJZlrab</p>",,,,,,,,,,
html-keyboard-response,342,422251,0.0-16.0-0.10,60f579085ebf24f9c80f223e,650c16f0f2faf8d7a0d14c09,651c1afa0e67b1fcb7bbb06c,null,null,"<p style=""font-size: 60px; font-family: BACS"">NJZlrab</p>",,,,,,,,,,
html-keyboard-response,343,423268,0.0-16.0-0.11,60f579085ebf24f9c80f223e,650c16f0f2faf8d7a0d14c09,651c1afa0e67b1fcb7bbb06c,null,null,"<p style=""font-size: 60px; font-family: BACS"">NJZlrab</p>",,,,,,,,,,
html-keyboard-response,344,424270,0.0-16.0-0.12,60f579085ebf24f9c80f223e,650c16f0f2faf8d7a0d14c09,651c1afa0e67b1fcb7bbb06c,null,null,"<p style=""font-size: 60px; font-family: BACS"">NJZlrab</p>",,,,,,,,,,
html-keyboard-response,345,425284,0.0-16.0-0.13,60f579085ebf24f9c80f223e,650c16f0f2faf8d7a0d14c09,651c1afa0e67b1fcb7bbb06c,null,null,"<p style=""font-size: 60px; font-family: BACS"">NJZlrab</p>",,,,,,,,,,
html-keyboard-response,346,426285,0.0-16.0-0.14,60f579085ebf24f9c80f223e,650c16f0f2faf8d7a0d14c09,651c1afa0e67b1fcb7bbb06c,null,null,"<p style=""font-size: 60px; font-family: BACS"">NJZlrab</p>",,,,,,,,,,
html-keyboard-response,347,427301,0.0-16.0-0.15,60f579085ebf24f9c80f223e,650c16f0f2faf8d7a0d14c09,651c1afa0e67b1fcb7bbb06c,null,null,"<p style=""font-size: 60px; font-family: BACS"">NJZlrab</p>",,,,,,,,,,
html-keyboard-response,348,428317,0.0-16.0-0.16,60f579085ebf24f9c80f223e,650c16f0f2faf8d7a0d14c09,651c1afa0e67b1fcb7bbb06c,null,null,"<p style=""font-size: 60px; font-family: BACS"">NJZlrab</p>",,,,,,,,,,
html-keyboard-response,349,429333,0.0-16.0-0.17,60f579085ebf24f9c80f223e,650c16f0f2faf8d7a0d14c09,651c1afa0e67b1fcb7bbb06c,null,null,"<p style=""font-size: 60px; font-family: BACS"">NJZlrab</p>",,,,,,,,,,
html-keyboard-response,350,430335,0.0-16.0-0.18,60f579085ebf24f9c80f223e,650c16f0f2faf8d7a0d14c09,651c1afa0e67b1fcb7bbb06c,null,null,"<p style=""font-size: 60px; font-family: BACS"">NJZlrab</p>",,,,,,,,,,
html-keyboard-response,351,431349,0.0-16.0-0.19,60f579085ebf24f9c80f223e,650c16f0f2faf8d7a0d14c09,651c1afa0e67b1fcb7bbb06c,null,null,"<p style=""font-size: 60px; font-family: BACS"">NJZlrab</p>",,,,,,,,,,
html-keyboard-response,352,432367,0.0-16.0-0.20,60f579085ebf24f9c80f223e,650c16f0f2faf8d7a0d14c09,651c1afa0e67b1fcb7bbb06c,null,null,"<p style=""font-size: 60px; font-family: BACS"">NJZlrab</p>",,,,,,,,,,
html-keyboard-response,353,433383,0.0-16.0-0.21,60f579085ebf24f9c80f223e,650c16f0f2faf8d7a0d14c09,651c1afa0e67b1fcb7bbb06c,null,null,"<p style=""font-size: 60px; font-family: BACS"">NJZlrab</p>",,,,,,,,,,
html-keyboard-response,354,434399,0.0-16.0-0.22,60f579085ebf24f9c80f223e,650c16f0f2faf8d7a0d14c09,651c1afa0e67b1fcb7bbb06c,null,null,"<p style=""font-size: 60px; font-family: BACS"">NJZlrab</p>",,,,,,,,,,
html-keyboard-response,355,435416,0.0-16.0-0.23,60f579085ebf24f9c80f223e,650c16f0f2faf8d7a0d14c09,651c1afa0e67b1fcb7bbb06c,null,null,"<p style=""font-size: 60px; font-family: BACS"">NJZlrab</p>",,,,,,,,,,
html-keyboard-response,356,436431,0.0-16.0-0.24,60f579085ebf24f9c80f223e,650c16f0f2faf8d7a0d14c09,651c1afa0e67b1fcb7bbb06c,null,null,"<p style=""font-size: 60px; font-family: BACS"">NJZlrab</p>",,,,,,,,,,
html-keyboard-response,357,437432,0.0-16.0-0.25,60f579085ebf24f9c80f223e,650c16f0f2faf8d7a0d14c09,651c1afa0e67b1fcb7bbb06c,null,null,"<p style=""font-size: 60px; font-family: BACS"">NJZlrab</p>",,,,,,,,,,
html-keyboard-response,358,438448,0.0-16.0-0.26,60f579085ebf24f9c80f223e,650c16f0f2faf8d7a0d14c09,651c1afa0e67b1fcb7bbb06c,null,null,"<p style=""font-size: 60px; font-family: BACS"">NJZlrab</p>",,,,,,,,,,
html-keyboard-response,359,439464,0.0-16.0-0.27,60f579085ebf24f9c80f223e,650c16f0f2faf8d7a0d14c09,651c1afa0e67b1fcb7bbb06c,null,null,"<p style=""font-size: 60px; font-family: BACS"">NJZlrab</p>",,,,,,,,,,
html-keyboard-response,360,440480,0.0-16.0-0.28,60f579085ebf24f9c80f223e,650c16f0f2faf8d7a0d14c09,651c1afa0e67b1fcb7bbb06c,null,null,"<p style=""font-size: 60px; font-family: BACS"">NJZlrab</p>",,,,,,,,,,
html-keyboard-response,361,441482,0.0-16.0-0.29,60f579085ebf24f9c80f223e,650c16f0f2faf8d7a0d14c09,651c1afa0e67b1fcb7bbb06c,null,null,"<p style=""font-size: 60px; font-family: BACS"">NJZlrab</p>",,,,,,,,,,
html-keyboard-response,362,442497,0.0-16.0-0.30,60f579085ebf24f9c80f223e,650c16f0f2faf8d7a0d14c09,651c1afa0e67b1fcb7bbb06c,null,null,"<p style=""font-size: 60px; font-family: BACS"">NJZlrab</p>",,,,,,,,,,
html-keyboard-response,363,443499,0.0-16.0-0.31,60f579085ebf24f9c80f223e,650c16f0f2faf8d7a0d14c09,651c1afa0e67b1fcb7bbb06c,null,null,"<p style=""font-size: 60px; font-family: BACS"">NJZlrab</p>",,,,,,,,,,
html-keyboard-response,364,444514,0.0-16.0-0.32,60f579085ebf24f9c80f223e,650c16f0f2faf8d7a0d14c09,651c1afa0e67b1fcb7bbb06c,null,null,"<p style=""font-size: 60px; font-family: BACS"">NJZlrab</p>",,,,,,,,,,
html-keyboard-response,365,445530,0.0-16.0-0.33,60f579085ebf24f9c80f223e,650c16f0f2faf8d7a0d14c09,651c1afa0e67b1fcb7bbb06c,null,null,"<p style=""font-size: 60px; font-family: BACS"">NJZlrab</p>",,,,,,,,,,
html-keyboard-response,366,446531,0.0-16.0-0.34,60f579085ebf24f9c80f223e,650c16f0f2faf8d7a0d14c09,651c1afa0e67b1fcb7bbb06c,null,null,"<p style=""font-size: 60px; font-family: BACS"">NJZlrab</p>",,,,,,,,,,
html-keyboard-response,367,447546,0.0-16.0-0.35,60f579085ebf24f9c80f223e,650c16f0f2faf8d7a0d14c09,651c1afa0e67b1fcb7bbb06c,null,null,"<p style=""font-size: 60px; font-family: BACS"">NJZlrab</p>",,,,,,,,,,
html-keyboard-response,368,448563,0.0-16.0-0.36,60f579085ebf24f9c80f223e,650c16f0f2faf8d7a0d14c09,651c1afa0e67b1fcb7bbb06c,null,null,"<p style=""font-size: 60px; font-family: BACS"">NJZlrab</p>",,,,,,,,,,
html-keyboard-response,369,449578,0.0-16.0-0.37,60f579085ebf24f9c80f223e,650c16f0f2faf8d7a0d14c09,651c1afa0e67b1fcb7bbb06c,null,null,"<p style=""font-size: 60px; font-family: BACS"">NJZlrab</p>",,,,,,,,,,
html-keyboard-response,370,450595,0.0-16.0-0.38,60f579085ebf24f9c80f223e,650c16f0f2faf8d7a0d14c09,651c1afa0e67b1fcb7bbb06c,null,null,"<p style=""font-size: 60px; font-family: BACS"">NJZlrab</p>",,,,,,,,,,
html-keyboard-response,371,451611,0.0-16.0-0.39,60f579085ebf24f9c80f223e,650c16f0f2faf8d7a0d14c09,651c1afa0e67b1fcb7bbb06c,null,null,"<p style=""font-size: 60px; font-family: BACS"">NJZlrab</p>",,,,,,,,,,
html-keyboard-response,372,452626,0.0-16.0-0.40,60f579085ebf24f9c80f223e,650c16f0f2faf8d7a0d14c09,651c1afa0e67b1fcb7bbb06c,null,null,"<p style=""font-size: 60px; font-family: BACS"">NJZlrab</p>",,,,,,,,,,
html-keyboard-response,373,453628,0.0-16.0-0.41,60f579085ebf24f9c80f223e,650c16f0f2faf8d7a0d14c09,651c1afa0e67b1fcb7bbb06c,null,null,"<p style=""font-size: 60px; font-family: BACS"">NJZlrab</p>",,,,,,,,,,
html-keyboard-response,374,454645,0.0-16.0-0.42,60f579085ebf24f9c80f223e,650c16f0f2faf8d7a0d14c09,651c1afa0e67b1fcb7bbb06c,null,null,"<p style=""font-size: 60px; font-family: BACS"">NJZlrab</p>",,,,,,,,,,
html-keyboard-response,375,455662,0.0-16.0-0.43,60f579085ebf24f9c80f223e,650c16f0f2faf8d7a0d14c09,651c1afa0e67b1fcb7bbb06c,null,null,"<p style=""font-size: 60px; font-family: BACS"">NJZlrab</p>",,,,,,,,,,
html-keyboard-response,376,456676,0.0-16.0-0.44,60f579085ebf24f9c80f223e,650c16f0f2faf8d7a0d14c09,651c1afa0e67b1fcb7bbb06c,null,null,"<p style=""font-size: 60px; font-family: BACS"">NJZlrab</p>",,,,,,,,,,
html-keyboard-response,377,457679,0.0-16.0-0.45,60f579085ebf24f9c80f223e,650c16f0f2faf8d7a0d14c09,651c1afa0e67b1fcb7bbb06c,null,null,"<p style=""font-size: 60px; font-family: BACS"">NJZlrab</p>",,,,,,,,,,
html-keyboard-response,378,458694,0.0-16.0-0.46,60f579085ebf24f9c80f223e,650c16f0f2faf8d7a0d14c09,651c1afa0e67b1fcb7bbb06c,null,null,"<p style=""font-size: 60px; font-family: BACS"">NJZlrab</p>",,,,,,,,,,
html-keyboard-response,379,459695,0.0-16.0-0.47,60f579085ebf24f9c80f223e,650c16f0f2faf8d7a0d14c09,651c1afa0e67b1fcb7bbb06c,null,null,"<p style=""font-size: 60px; font-family: BACS"">NJZlrab</p>",,,,,,,,,,
html-keyboard-response,380,460710,0.0-16.0-0.48,60f579085ebf24f9c80f223e,650c16f0f2faf8d7a0d14c09,651c1afa0e67b1fcb7bbb06c,null,null,"<p style=""font-size: 60px; font-family: BACS"">NJZlrab</p>",,,,,,,,,,
html-keyboard-response,381,461726,0.0-16.0-0.49,60f579085ebf24f9c80f223e,650c16f0f2faf8d7a0d14c09,651c1afa0e67b1fcb7bbb06c,null,null,"<p style=""font-size: 60px; font-family: BACS"">NJZlrab</p>",,,,,,,,,,
html-keyboard-response,382,462742,0.0-16.0-0.50,60f579085ebf24f9c80f223e,650c16f0f2faf8d7a0d14c09,651c1afa0e67b1fcb7bbb06c,null,null,"<p style=""font-size: 60px; font-family: BACS"">NJZlrab</p>",,,,,,,,,,
html-keyboard-response,383,463744,0.0-16.0-0.51,60f579085ebf24f9c80f223e,650c16f0f2faf8d7a0d14c09,651c1afa0e67b1fcb7bbb06c,null,null,"<p style=""font-size: 60px; font-family: BACS"">NJZlrab</p>",,,,,,,,,,
html-keyboard-response,384,464758,0.0-16.0-0.52,60f579085ebf24f9c80f223e,650c16f0f2faf8d7a0d14c09,651c1afa0e67b1fcb7bbb06c,null,null,"<p style=""font-size: 60px; font-family: BACS"">NJZlrab</p>",,,,,,,,,,
html-keyboard-response,385,465774,0.0-16.0-0.53,60f579085ebf24f9c80f223e,650c16f0f2faf8d7a0d14c09,651c1afa0e67b1fcb7bbb06c,null,null,"<p style=""font-size: 60px; font-family: BACS"">NJZlrab</p>",,,,,,,,,,
html-keyboard-response,386,466792,0.0-16.0-0.54,60f579085ebf24f9c80f223e,650c16f0f2faf8d7a0d14c09,651c1afa0e67b1fcb7bbb06c,null,null,"<p style=""font-size: 60px; font-family: BACS"">NJZlrab</p>",,,,,,,,,,
html-keyboard-response,387,467809,0.0-16.0-0.55,60f579085ebf24f9c80f223e,650c16f0f2faf8d7a0d14c09,651c1afa0e67b1fcb7bbb06c,null,null,"<p style=""font-size: 60px; font-family: BACS"">NJZlrab</p>",,,,,,,,,,
html-keyboard-response,388,468825,0.0-16.0-0.56,60f579085ebf24f9c80f223e,650c16f0f2faf8d7a0d14c09,651c1afa0e67b1fcb7bbb06c,null,null,"<p style=""font-size: 60px; font-family: BACS"">NJZlrab</p>",,,,,,,,,,
html-keyboard-response,389,469841,0.0-16.0-0.57,60f579085ebf24f9c80f223e,650c16f0f2faf8d7a0d14c09,651c1afa0e67b1fcb7bbb06c,null,null,"<p style=""font-size: 60px; font-family: BACS"">NJZlrab</p>",,,,,,,,,,
html-keyboard-response,390,470857,0.0-16.0-0.58,60f579085ebf24f9c80f223e,650c16f0f2faf8d7a0d14c09,651c1afa0e67b1fcb7bbb06c,null,null,"<p style=""font-size: 60px; font-family: BACS"">NJZlrab</p>",,,,,,,,,,
html-keyboard-response,391,471858,0.0-16.0-0.59,60f579085ebf24f9c80f223e,650c16f0f2faf8d7a0d14c09,651c1afa0e67b1fcb7bbb06c,null,null,"<p style=""font-size: 60px; font-family: BACS"">NJZlrab</p>",,,,,,,,,,
html-keyboard-response,392,472874,0.0-16.0-0.60,60f579085ebf24f9c80f223e,650c16f0f2faf8d7a0d14c09,651c1afa0e67b1fcb7bbb06c,null,null,"<p style=""font-size: 60px; font-family: BACS"">NJZlrab</p>",,,,,,,,,,
html-keyboard-response,393,473889,0.0-16.0-0.61,60f579085ebf24f9c80f223e,650c16f0f2faf8d7a0d14c09,651c1afa0e67b1fcb7bbb06c,null,null,"<p style=""font-size: 60px; font-family: BACS"">NJZlrab</p>",,,,,,,,,,
html-keyboard-response,394,474906,0.0-16.0-0.62,60f579085ebf24f9c80f223e,650c16f0f2faf8d7a0d14c09,651c1afa0e67b1fcb7bbb06c,null,null,"<p style=""font-size: 60px; font-family: BACS"">NJZlrab</p>",,,,,,,,,,
html-keyboard-response,395,475908,0.0-16.0-0.63,60f579085ebf24f9c80f223e,650c16f0f2faf8d7a0d14c09,651c1afa0e67b1fcb7bbb06c,null,null,"<p style=""font-size: 60px; font-family: BACS"">NJZlrab</p>",,,,,,,,,,
html-keyboard-response,396,476924,0.0-16.0-0.64,60f579085ebf24f9c80f223e,650c16f0f2faf8d7a0d14c09,651c1afa0e67b1fcb7bbb06c,null,null,"<p style=""font-size: 60px; font-family: BACS"">NJZlrab</p>",,,,,,,,,,
html-keyboard-response,397,477939,0.0-16.0-0.65,60f579085ebf24f9c80f223e,650c16f0f2faf8d7a0d14c09,651c1afa0e67b1fcb7bbb06c,null,null,"<p style=""font-size: 60px; font-family: BACS"">NJZlrab</p>",,,,,,,,,,
html-keyboard-response,398,478956,0.0-16.0-0.66,60f579085ebf24f9c80f223e,650c16f0f2faf8d7a0d14c09,651c1afa0e67b1fcb7bbb06c,null,null,"<p style=""font-size: 60px; font-family: BACS"">NJZlrab</p>",,,,,,,,,,
html-keyboard-response,399,479972,0.0-16.0-0.67,60f579085ebf24f9c80f223e,650c16f0f2faf8d7a0d14c09,651c1afa0e67b1fcb7bbb06c,null,null,"<p style=""font-size: 60px; font-family: BACS"">NJZlrab</p>",,,,,,,,,,
html-keyboard-response,400,480988,0.0-16.0-0.68,60f579085ebf24f9c80f223e,650c16f0f2faf8d7a0d14c09,651c1afa0e67b1fcb7bbb06c,null,null,"<p style=""font-size: 60px; font-family: BACS"">NJZlrab</p>",,,,,,,,,,
html-keyboard-response,401,482003,0.0-16.0-0.69,60f579085ebf24f9c80f223e,650c16f0f2faf8d7a0d14c09,651c1afa0e67b1fcb7bbb06c,null,null,"<p style=""font-size: 60px; font-family: BACS"">NJZlrab</p>",,,,,,,,,,
html-keyboard-response,402,483019,0.0-16.0-0.70,60f579085ebf24f9c80f223e,650c16f0f2faf8d7a0d14c09,651c1afa0e67b1fcb7bbb06c,null,null,"<p style=""font-size: 60px; font-family: BACS"">NJZlrab</p>",,,,,,,,,,
html-keyboard-response,403,484022,0.0-16.0-0.71,60f579085ebf24f9c80f223e,650c16f0f2faf8d7a0d14c09,651c1afa0e67b1fcb7bbb06c,null,null,"<p style=""font-size: 60px; font-family: BACS"">NJZlrab</p>",,,,,,,,,,
html-keyboard-response,404,485037,0.0-16.0-0.72,60f579085ebf24f9c80f223e,650c16f0f2faf8d7a0d14c09,651c1afa0e67b1fcb7bbb06c,null,null,"<p style=""font-size: 60px; font-family: BACS"">NJZlrab</p>",,,,,,,,,,
html-keyboard-response,405,486053,0.0-16.0-0.73,60f579085ebf24f9c80f223e,650c16f0f2faf8d7a0d14c09,651c1afa0e67b1fcb7bbb06c,null,null,"<p style=""font-size: 60px; font-family: BACS"">NJZlrab</p>",,,,,,,,,,
html-keyboard-response,406,487054,0.0-16.0-0.74,60f579085ebf24f9c80f223e,650c16f0f2faf8d7a0d14c09,651c1afa0e67b1fcb7bbb06c,null,null,"<p style=""font-size: 60px; font-family: BACS"">NJZlrab</p>",,,,,,,,,,
html-keyboard-response,407,488069,0.0-16.0-0.75,60f579085ebf24f9c80f223e,650c16f0f2faf8d7a0d14c09,651c1afa0e67b1fcb7bbb06c,null,null,"<p style=""font-size: 60px; font-family: BACS"">NJZlrab</p>",,,,,,,,,,
html-keyboard-response,408,489070,0.0-16.0-0.76,60f579085ebf24f9c80f223e,650c16f0f2faf8d7a0d14c09,651c1afa0e67b1fcb7bbb06c,null,null,"<p style=""font-size: 60px; font-family: BACS"">NJZlrab</p>",,,,,,,,,,
html-keyboard-response,409,490085,0.0-16.0-0.77,60f579085ebf24f9c80f223e,650c16f0f2faf8d7a0d14c09,651c1afa0e67b1fcb7bbb06c,null,null,"<p style=""font-size: 60px; font-family: BACS"">NJZlrab</p>",,,,,,,,,,
html-keyboard-response,410,491101,0.0-16.0-0.78,60f579085ebf24f9c80f223e,650c16f0f2faf8d7a0d14c09,651c1afa0e67b1fcb7bbb06c,null,null,"<p style=""font-size: 60px; font-family: BACS"">NJZlrab</p>",,,,,,,,,,
html-keyboard-response,411,492119,0.0-16.0-0.79,60f579085ebf24f9c80f223e,650c16f0f2faf8d7a0d14c09,651c1afa0e67b1fcb7bbb06c,null,null,"<p style=""font-size: 60px; font-family: BACS"">NJZlrab</p>",,,,,,,,,,
html-keyboard-response,412,518437,0.0-17.0,60f579085ebf24f9c80f223e,650c16f0f2faf8d7a0d14c09,651c1afa0e67b1fcb7bbb06c,26317, ,"<p>Great, you've seen the fifth block of words. You may now take a short break.</p>
      <p>Press the spacebar when you're ready to continue.</p>",,,,,,,,,,
html-keyboard-response,413,519445,0.0-18.0-0.0,60f579085ebf24f9c80f223e,650c16f0f2faf8d7a0d14c09,651c1afa0e67b1fcb7bbb06c,null,null,"<p style=""font-size: 60px; font-family: BACS"">ZkGmYrkra</p>",,,,,,,,,,
html-keyboard-response,414,520461,0.0-18.0-0.1,60f579085ebf24f9c80f223e,650c16f0f2faf8d7a0d14c09,651c1afa0e67b1fcb7bbb06c,null,null,"<p style=""font-size: 60px; font-family: BACS"">kCRmBCAd</p>",,,,,,,,,,
html-keyboard-response,415,521478,0.0-18.0-0.2,60f579085ebf24f9c80f223e,650c16f0f2faf8d7a0d14c09,651c1afa0e67b1fcb7bbb06c,null,null,"<p style=""font-size: 60px; font-family: BACS"">BOckPRCdc</p>",,,,,,,,,,
html-keyboard-response,416,522495,0.0-18.0-0.3,60f579085ebf24f9c80f223e,650c16f0f2faf8d7a0d14c09,651c1afa0e67b1fcb7bbb06c,null,null,"<p style=""font-size: 60px; font-family: BACS"">kcdOtMAB</p>",,,,,,,,,,
html-keyboard-response,417,523511,0.0-18.0-0.4,60f579085ebf24f9c80f223e,650c16f0f2faf8d7a0d14c09,651c1afa0e67b1fcb7bbb06c,null,null,"<p style=""font-size: 60px; font-family: BACS"">ctktBCAd</p>",,,,,,,,,,
html-keyboard-response,418,524528,0.0-18.0-0.5,60f579085ebf24f9c80f223e,650c16f0f2faf8d7a0d14c09,651c1afa0e67b1fcb7bbb06c,null,null,"<p style=""font-size: 60px; font-family: BACS"">kdEdYdCKc</p>",,,,,,,,,,
html-keyboard-response,419,525543,0.0-18.0-0.6,60f579085ebf24f9c80f223e,650c16f0f2faf8d7a0d14c09,651c1afa0e67b1fcb7bbb06c,null,null,"<p style=""font-size: 60px; font-family: BACS"">GZJYmLJ</p>",,,,,,,,,,
html-keyboard-response,420,526544,0.0-18.0-0.7,60f579085ebf24f9c80f223e,650c16f0f2faf8d7a0d14c09,651c1afa0e67b1fcb7bbb06c,null,null,"<p style=""font-size: 60px; font-family: BACS"">NJZlkmU</p>",,,,,,,,,,
html-keyboard-response,421,527559,0.0-18.0-0.8,60f579085ebf24f9c80f223e,650c16f0f2faf8d7a0d14c09,651c1afa0e67b1fcb7bbb06c,null,null,"<p style=""font-size: 60px; font-family: BACS"">bYGOZrab</p>",,,,,,,,,,
html-keyboard-response,422,528561,0.0-18.0-0.9,60f579085ebf24f9c80f223e,650c16f0f2faf8d7a0d14c09,651c1afa0e67b1fcb7bbb06c,null,null,"<p style=""font-size: 60px; font-family: BACS"">kcdOtBCAd</p>",,,,,,,,,,
html-keyboard-response,423,529576,0.0-18.0-0.10,60f579085ebf24f9c80f223e,650c16f0f2faf8d7a0d14c09,651c1afa0e67b1fcb7bbb06c,null,null,"<p style=""font-size: 60px; font-family: BACS"">BECkdCKc</p>",,,,,,,,,,
html-keyboard-response,424,530592,0.0-18.0-0.11,60f579085ebf24f9c80f223e,650c16f0f2faf8d7a0d14c09,651c1afa0e67b1fcb7bbb06c,null,null,"<p style=""font-size: 60px; font-family: BACS"">AZlLNmLJ</p>",,,,,,,,,,
html-keyboard-response,425,531607,0.0-18.0-0.12,60f579085ebf24f9c80f223e,650c16f0f2faf8d7a0d14c09,651c1afa0e67b1fcb7bbb06c,null,null,"<p style=""font-size: 60px; font-family: BACS"">ukYZvAvb</p>",,,,,,,,,,
html-keyboard-response,426,532610,0.0-18.0-0.13,60f579085ebf24f9c80f223e,650c16f0f2faf8d7a0d14c09,651c1afa0e67b1fcb7bbb06c,null,null,"<p style=""font-size: 60px; font-family: BACS"">bYGOZkmU</p>",,,,,,,,,,
html-keyboard-response,427,533626,0.0-18.0-0.14,60f579085ebf24f9c80f223e,650c16f0f2faf8d7a0d14c09,651c1afa0e67b1fcb7bbb06c,null,null,"<p style=""font-size: 60px; font-family: BACS"">NJZlmLJ</p>",,,,,,,,,,
html-keyboard-response,428,534627,0.0-18.0-0.15,60f579085ebf24f9c80f223e,650c16f0f2faf8d7a0d14c09,651c1afa0e67b1fcb7bbb06c,null,null,"<p style=""font-size: 60px; font-family: BACS"">Abkarkra</p>",,,,,,,,,,
html-keyboard-response,429,535641,0.0-18.0-0.16,60f579085ebf24f9c80f223e,650c16f0f2faf8d7a0d14c09,651c1afa0e67b1fcb7bbb06c,null,null,"<p style=""font-size: 60px; font-family: BACS"">AZlLNkmU</p>",,,,,,,,,,
html-keyboard-response,430,536642,0.0-18.0-0.17,60f579085ebf24f9c80f223e,650c16f0f2faf8d7a0d14c09,651c1afa0e67b1fcb7bbb06c,null,null,"<p style=""font-size: 60px; font-family: BACS"">ctktCEM</p>",,,,,,,,,,
html-keyboard-response,431,537658,0.0-18.0-0.18,60f579085ebf24f9c80f223e,650c16f0f2faf8d7a0d14c09,651c1afa0e67b1fcb7bbb06c,null,null,"<p style=""font-size: 60px; font-family: BACS"">bYGOZvAvb</p>",,,,,,,,,,
html-keyboard-response,432,538674,0.0-18.0-0.19,60f579085ebf24f9c80f223e,650c16f0f2faf8d7a0d14c09,651c1afa0e67b1fcb7bbb06c,null,null,"<p style=""font-size: 60px; font-family: BACS"">kLvdNkmU</p>",,,,,,,,,,
html-keyboard-response,433,539675,0.0-18.0-0.20,60f579085ebf24f9c80f223e,650c16f0f2faf8d7a0d14c09,651c1afa0e67b1fcb7bbb06c,null,null,"<p style=""font-size: 60px; font-family: BACS"">ZkGmYvAvb</p>",,,,,,,,,,
html-keyboard-response,434,540689,0.0-18.0-0.21,60f579085ebf24f9c80f223e,650c16f0f2faf8d7a0d14c09,651c1afa0e67b1fcb7bbb06c,null,null,"<p style=""font-size: 60px; font-family: BACS"">GZJYrkra</p>",,,,,,,,,,
html-keyboard-response,435,541690,0.0-18.0-0.22,60f579085ebf24f9c80f223e,650c16f0f2faf8d7a0d14c09,651c1afa0e67b1fcb7bbb06c,null,null,"<p style=""font-size: 60px; font-family: BACS"">kLvdNrab</p>",,,,,,,,,,
html-keyboard-response,436,542692,0.0-18.0-0.23,60f579085ebf24f9c80f223e,650c16f0f2faf8d7a0d14c09,651c1afa0e67b1fcb7bbb06c,null,null,"<p style=""font-size: 60px; font-family: BACS"">ORbkCEM</p>",,,,,,,,,,
html-keyboard-response,437,543707,0.0-18.0-0.24,60f579085ebf24f9c80f223e,650c16f0f2faf8d7a0d14c09,651c1afa0e67b1fcb7bbb06c,null,null,"<p style=""font-size: 60px; font-family: BACS"">ctktdCKc</p>",,,,,,,,,,
html-keyboard-response,438,544722,0.0-18.0-0.25,60f579085ebf24f9c80f223e,650c16f0f2faf8d7a0d14c09,651c1afa0e67b1fcb7bbb06c,null,null,"<p style=""font-size: 60px; font-family: BACS"">AbkamLJ</p>",,,,,,,,,,
html-keyboard-response,439,545724,0.0-18.0-0.26,60f579085ebf24f9c80f223e,650c16f0f2faf8d7a0d14c09,651c1afa0e67b1fcb7bbb06c,null,null,"<p style=""font-size: 60px; font-family: BACS"">BOckPMAB</p>",,,,,,,,,,
html-keyboard-response,440,546740,0.0-18.0-0.27,60f579085ebf24f9c80f223e,650c16f0f2faf8d7a0d14c09,651c1afa0e67b1fcb7bbb06c,null,null,"<p style=""font-size: 60px; font-family: BACS"">ORbkRCdc</p>",,,,,,,,,,
html-keyboard-response,441,547755,0.0-18.0-0.28,60f579085ebf24f9c80f223e,650c16f0f2faf8d7a0d14c09,651c1afa0e67b1fcb7bbb06c,null,null,"<p style=""font-size: 60px; font-family: BACS"">bYGOZrkra</p>",,,,,,,,,,
html-keyboard-response,442,548771,0.0-18.0-0.29,60f579085ebf24f9c80f223e,650c16f0f2faf8d7a0d14c09,651c1afa0e67b1fcb7bbb06c,null,null,"<p style=""font-size: 60px; font-family: BACS"">BOckPCEM</p>",,,,,,,,,,
html-keyboard-response,443,549773,0.0-18.0-0.30,60f579085ebf24f9c80f223e,650c16f0f2faf8d7a0d14c09,651c1afa0e67b1fcb7bbb06c,null,null,"<p style=""font-size: 60px; font-family: BACS"">BMEMARCdc</p>",,,,,,,,,,
html-keyboard-response,444,550790,0.0-18.0-0.31,60f579085ebf24f9c80f223e,650c16f0f2faf8d7a0d14c09,651c1afa0e67b1fcb7bbb06c,null,null,"<p style=""font-size: 60px; font-family: BACS"">AbkavAvb</p>",,,,,,,,,,
html-keyboard-response,445,551805,0.0-18.0-0.32,60f579085ebf24f9c80f223e,650c16f0f2faf8d7a0d14c09,651c1afa0e67b1fcb7bbb06c,null,null,"<p style=""font-size: 60px; font-family: BACS"">BMEMAdCKc</p>",,,,,,,,,,
html-keyboard-response,446,552821,0.0-18.0-0.33,60f579085ebf24f9c80f223e,650c16f0f2faf8d7a0d14c09,651c1afa0e67b1fcb7bbb06c,null,null,"<p style=""font-size: 60px; font-family: BACS"">ZkGmYrab</p>",,,,,,,,,,
html-keyboard-response,447,553837,0.0-18.0-0.34,60f579085ebf24f9c80f223e,650c16f0f2faf8d7a0d14c09,651c1afa0e67b1fcb7bbb06c,null,null,"<p style=""font-size: 60px; font-family: BACS"">kLvdNrkra</p>",,,,,,,,,,
html-keyboard-response,448,554853,0.0-18.0-0.35,60f579085ebf24f9c80f223e,650c16f0f2faf8d7a0d14c09,651c1afa0e67b1fcb7bbb06c,null,null,"<p style=""font-size: 60px; font-family: BACS"">kGlUrab</p>",,,,,,,,,,
html-keyboard-response,449,555868,0.0-18.0-0.36,60f579085ebf24f9c80f223e,650c16f0f2faf8d7a0d14c09,651c1afa0e67b1fcb7bbb06c,null,null,"<p style=""font-size: 60px; font-family: BACS"">BbODRCdc</p>",,,,,,,,,,
html-keyboard-response,450,556871,0.0-18.0-0.37,60f579085ebf24f9c80f223e,650c16f0f2faf8d7a0d14c09,651c1afa0e67b1fcb7bbb06c,null,null,"<p style=""font-size: 60px; font-family: BACS"">vJabkmU</p>",,,,,,,,,,
html-keyboard-response,451,557886,0.0-18.0-0.38,60f579085ebf24f9c80f223e,650c16f0f2faf8d7a0d14c09,651c1afa0e67b1fcb7bbb06c,null,null,"<p style=""font-size: 60px; font-family: BACS"">BOckPdCKc</p>",,,,,,,,,,
html-keyboard-response,452,558902,0.0-18.0-0.39,60f579085ebf24f9c80f223e,650c16f0f2faf8d7a0d14c09,651c1afa0e67b1fcb7bbb06c,null,null,"<p style=""font-size: 60px; font-family: BACS"">ZkGmYkmU</p>",,,,,,,,,,
html-keyboard-response,453,559919,0.0-18.0-0.40,60f579085ebf24f9c80f223e,650c16f0f2faf8d7a0d14c09,651c1afa0e67b1fcb7bbb06c,null,null,"<p style=""font-size: 60px; font-family: BACS"">AZlLNvAvb</p>",,,,,,,,,,
html-keyboard-response,454,560935,0.0-18.0-0.41,60f579085ebf24f9c80f223e,650c16f0f2faf8d7a0d14c09,651c1afa0e67b1fcb7bbb06c,null,null,"<p style=""font-size: 60px; font-family: BACS"">BbODdCKc</p>",,,,,,,,,,
html-keyboard-response,455,561952,0.0-18.0-0.42,60f579085ebf24f9c80f223e,650c16f0f2faf8d7a0d14c09,651c1afa0e67b1fcb7bbb06c,null,null,"<p style=""font-size: 60px; font-family: BACS"">kLvdNmLJ</p>",,,,,,,,,,
html-keyboard-response,456,562969,0.0-18.0-0.43,60f579085ebf24f9c80f223e,650c16f0f2faf8d7a0d14c09,651c1afa0e67b1fcb7bbb06c,null,null,"<p style=""font-size: 60px; font-family: BACS"">kCRmMAB</p>",,,,,,,,,,
html-keyboard-response,457,563986,0.0-18.0-0.44,60f579085ebf24f9c80f223e,650c16f0f2faf8d7a0d14c09,651c1afa0e67b1fcb7bbb06c,null,null,"<p style=""font-size: 60px; font-family: BACS"">ukYZmLJ</p>",,,,,,,,,,
html-keyboard-response,458,565001,0.0-18.0-0.45,60f579085ebf24f9c80f223e,650c16f0f2faf8d7a0d14c09,651c1afa0e67b1fcb7bbb06c,null,null,"<p style=""font-size: 60px; font-family: BACS"">NJZlrkra</p>",,,,,,,,,,
html-keyboard-response,459,566015,0.0-18.0-0.46,60f579085ebf24f9c80f223e,650c16f0f2faf8d7a0d14c09,651c1afa0e67b1fcb7bbb06c,null,null,"<p style=""font-size: 60px; font-family: BACS"">ORbkBCAd</p>",,,,,,,,,,
html-keyboard-response,460,567019,0.0-18.0-0.47,60f579085ebf24f9c80f223e,650c16f0f2faf8d7a0d14c09,651c1afa0e67b1fcb7bbb06c,null,null,"<p style=""font-size: 60px; font-family: BACS"">kcdOtRCdc</p>",,,,,,,,,,
html-keyboard-response,461,568033,0.0-18.0-0.48,60f579085ebf24f9c80f223e,650c16f0f2faf8d7a0d14c09,651c1afa0e67b1fcb7bbb06c,null,null,"<p style=""font-size: 60px; font-family: BACS"">kdEdYMAB</p>",,,,,,,,,,
html-keyboard-response,462,569034,0.0-18.0-0.49,60f579085ebf24f9c80f223e,650c16f0f2faf8d7a0d14c09,651c1afa0e67b1fcb7bbb06c,null,null,"<p style=""font-size: 60px; font-family: BACS"">vJabrab</p>",,,,,,,,,,
html-keyboard-response,463,570049,0.0-18.0-0.50,60f579085ebf24f9c80f223e,650c16f0f2faf8d7a0d14c09,651c1afa0e67b1fcb7bbb06c,null,null,"<p style=""font-size: 60px; font-family: BACS"">kCRmCEM</p>",,,,,,,,,,
html-keyboard-response,464,571050,0.0-18.0-0.51,60f579085ebf24f9c80f223e,650c16f0f2faf8d7a0d14c09,651c1afa0e67b1fcb7bbb06c,null,null,"<p style=""font-size: 60px; font-family: BACS"">vJabmLJ</p>",,,,,,,,,,
html-keyboard-response,465,572068,0.0-18.0-0.52,60f579085ebf24f9c80f223e,650c16f0f2faf8d7a0d14c09,651c1afa0e67b1fcb7bbb06c,null,null,"<p style=""font-size: 60px; font-family: BACS"">ukYZkmU</p>",,,,,,,,,,
html-keyboard-response,466,573084,0.0-18.0-0.53,60f579085ebf24f9c80f223e,650c16f0f2faf8d7a0d14c09,651c1afa0e67b1fcb7bbb06c,null,null,"<p style=""font-size: 60px; font-family: BACS"">NJZlrab</p>",,,,,,,,,,
html-keyboard-response,467,574098,0.0-18.0-0.54,60f579085ebf24f9c80f223e,650c16f0f2faf8d7a0d14c09,651c1afa0e67b1fcb7bbb06c,null,null,"<p style=""font-size: 60px; font-family: BACS"">DcPTcMAB</p>",,,,,,,,,,
html-keyboard-response,468,575100,0.0-18.0-0.55,60f579085ebf24f9c80f223e,650c16f0f2faf8d7a0d14c09,651c1afa0e67b1fcb7bbb06c,null,null,"<p style=""font-size: 60px; font-family: BACS"">BMEMACEM</p>",,,,,,,,,,
