"trial_type","trial_index","time_elapsed","internal_node_id","subject_id","study_id","session_id","rt","response","stimulus","success","item","task","correct_response","correct","target","confound","name"
"pavlovia","0","2961","0.0-0.0","614060a52d7c64c27ef9887c","64afc2c9a8732ea92db0087d","64afd4a6be2c6adcdd08d9af","","","","","","","","","","",""
"survey-html-form","1","7915","0.0-1.0","614060a52d7c64c27ef9887c","64afc2c9a8732ea92db0087d","64afd4a6be2c6adcdd08d9af","4953","{""ID"":""614060a52d7c64c27ef9887c""}","","","","","","","","",""
"html-keyboard-response","2","29400","0.0-2.0","614060a52d7c64c27ef9887c","64afc2c9a8732ea92db0087d","64afd4a6be2c6adcdd08d9af","21484"," ","<p style=""font-size: 15px;"">Prima di cominciare, le chiediamo di leggere il modulo di consenso informato e confermare la sua volontà di partecipare all'esperimento.</p>
      <p style=""font-size: 15px;""> La preghiamo di ricordare che questo è un progetto di ricerca e che la sua partecipazione è completamente volontaria. Lei si potra' ritirare in qualunque momento, senza necessariamente dover dare alcuna spiegazione. Lo studio al quale Le si chiede di partecipare ha lo scopo di esaminare come i lettori elaborano le parole scritte. La somministrazione delle prove è individuale. Lei sarà impegnato in una sessione di lavoro della durata media di 10 minuti, e un questionario di 10 minuti. L’ordine delle prove ed il loro svolgimento sono stabiliti in modo tale da evitare un eventuale affaticamento. Tutte le prove saranno precedute da un breve addestramento in modo tale che abbia la possibilità di familiarizzare con il compito. Sono previste alcune pause nel corso dello svolgimento dell’esperimento. Una ricompensa di £4 (£8 per ora) Le verrà consegnata al termine della sessione di testing. Nonostante il testing preveda delle prove cognitive, il presente esperimento non costituisce una prova clinica che permetta la diagnosi di eventuali patologie.</p>
      <p style=""font-size: 15px;"">Tutti i dati raccolti grazie alla partecipazione Sua e di altre persone volontarie saranno custoditi in server sicuri e protetti da password, e non sarà consentito ad alcuna persona non autorizzata di accedervi. Le Sue informazioni personali saranno conservate separatamente dai risultati della presente ricerca, cui saranno associati soltanto attraverso un ID arbitrario. Grazie a questo processo di anonimizzazione dei dati, a nessun ricercatore sarà possibile analizzare i risultati sapendo da quale specifico partecipante essi provengono. Inoltre, questa procedura renderà impossibile la Sua identificazione anche nel momento in cui i risultati della ricerca fossero pubblicati su riviste scientifiche, o presentati a congressi o in qualsiasi altro pubblico consesso. Più in generale, i dati raccolti saranno trattati in accordo con le leggi sulla privacy e in conformità al Decreto Legislativo 30 giugno 2003 n. 196 “Codice in materia di protezione dei dati personali” e al Regolamento Europeo 2016/679 (General Data Protection Regulation - GDPR). Il Responsabile della protezione dei dati (RPD) è l’Avv. Valentina Carollo che può essere contattato ai seguenti indirizzi email: <a href=""mailto:dpo@sissa.it"">dpo@sissa.it</a> oppure <a href=""mailto:rpd@sissa.it"">rpd@sissa.it</a> - PEC: <a href=""mailto:protocollo@pec.sissa.it"">protocollo@pec.sissa.it</a>.</p>
      <p style=""font-size: 15px;""> Prima di esprimere il suo consenso alla partecipazione, Le ricordiamo ancora che in caso Lei abbia bisogno di delucidazioni su qualunque aspetto della procedura sperimentale, il ricercatore è a Sua completa disposizione (<a href=""mailto:aliebelt@sissa.it"">aliebelt@sissa.it</a>, <a href=""mailto:davide.crepaldi@sissa.it"">davide.crepaldi@sissa.it</a>).</p>
      <p style=""font-size: 15px;"">Se vuole scaricare il modulo di consenso informato, clicca qui: <a href=""BASL_modulo_consenso.pdf"" download>modulo di consenso</a>.</p>
      <p style=""font-size: 15px;""> Le chiediamo di premere la barra per continuare al consenso.</p>","","","","","","","",""
"survey-html-form","3","47081","0.0-3.0","614060a52d7c64c27ef9887c","64afc2c9a8732ea92db0087d","64afd4a6be2c6adcdd08d9af","17679","{""consent1"":""YES"",""consent2"":""YES"",""consent3"":""YES"",""consent4"":""YES"",""consent5"":""YES"",""consent6"":""YES""}","","","","","","","","",""
"fullscreen","4","53234","0.0-4.0","614060a52d7c64c27ef9887c","64afc2c9a8732ea92db0087d","64afd4a6be2c6adcdd08d9af","","","","true","","","","","","",""
"html-keyboard-response","5","72478","0.0-5.0","614060a52d7c64c27ef9887c","64afc2c9a8732ea92db0087d","64afd4a6be2c6adcdd08d9af","19243"," ","<p>Benvenuta/o, e grazie mille del tuo tempo!</p>
      <p>In questo esperimento sarai un esperto/un'esperta di linguaggio cui è stato chiesto di dare un'occhiata ad alcuni messaggi che la Terra ha ricevuto dallo spazio. Il tuo compito, in questa prima parte dell'esperimento, sarà di fare molta attenzione alle parole che ti verranno mostrate; più tardi, i leader del mondo ti chiederanno qualche informazione su quello che hai visto. Le parole si susseguiranno abbastanza velocemente; sembra che questi alieni abbiano una certa fretta :-) </p>
      <p>Per favore, chiama lo sperimentatore se ha qualche domanda.</p><p>Premi la barra per continuare.</p>","","","","","","","",""
"html-keyboard-response","6","79173","0.0-6.0","614060a52d7c64c27ef9887c","64afc2c9a8732ea92db0087d","64afd4a6be2c6adcdd08d9af","6695"," ","<p>Ecco un esempio delle parole che vedrai:</p>
      <img src='esempio.png' height='400px'>
      <p>Quando sei pronti per iniziare, premi la barra.</p></div>","","","","","","","",""
"html-keyboard-response","7","80182","0.0-7.0-0.0","614060a52d7c64c27ef9887c","64afc2c9a8732ea92db0087d","64afd4a6be2c6adcdd08d9af","null","null","<p style=""font-size: 60px; font-family: BACS"">UmNJYZUZ</p>","","","","","","","",""
"html-keyboard-response","8","81198","0.0-7.0-0.1","614060a52d7c64c27ef9887c","64afc2c9a8732ea92db0087d","64afd4a6be2c6adcdd08d9af","null","null","<p style=""font-size: 60px; font-family: BACS"">lbBDEMAB</p>","","","","","","","",""
"html-keyboard-response","9","82200","0.0-7.0-0.2","614060a52d7c64c27ef9887c","64afc2c9a8732ea92db0087d","64afd4a6be2c6adcdd08d9af","null","null","<p style=""font-size: 60px; font-family: BACS"">GLYrAkbu</p>","","","","","","","",""
"html-keyboard-response","10","83210","0.0-7.0-0.3","614060a52d7c64c27ef9887c","64afc2c9a8732ea92db0087d","64afd4a6be2c6adcdd08d9af","null","null","<p style=""font-size: 60px; font-family: BACS"">kGlUGrub</p>","","","","","","","",""
"html-keyboard-response","11","84215","0.0-7.0-0.4","614060a52d7c64c27ef9887c","64afc2c9a8732ea92db0087d","64afd4a6be2c6adcdd08d9af","null","null","<p style=""font-size: 60px; font-family: BACS"">uauOdUr</p>","","","","","","","",""
"html-keyboard-response","12","85223","0.0-7.0-0.5","614060a52d7c64c27ef9887c","64afc2c9a8732ea92db0087d","64afd4a6be2c6adcdd08d9af","null","null","<p style=""font-size: 60px; font-family: BACS"">UmNJGrub</p>","","","","","","","",""
"html-keyboard-response","13","86229","0.0-7.0-0.6","614060a52d7c64c27ef9887c","64afc2c9a8732ea92db0087d","64afd4a6be2c6adcdd08d9af","null","null","<p style=""font-size: 60px; font-family: BACS"">GLYrAdUr</p>","","","","","","","",""
"html-keyboard-response","14","87232","0.0-7.0-0.7","614060a52d7c64c27ef9887c","64afc2c9a8732ea92db0087d","64afd4a6be2c6adcdd08d9af","null","null","<p style=""font-size: 60px; font-family: BACS"">UmNJkbu</p>","","","","","","","",""
"html-keyboard-response","15","88239","0.0-7.0-0.8","614060a52d7c64c27ef9887c","64afc2c9a8732ea92db0087d","64afd4a6be2c6adcdd08d9af","null","null","<p style=""font-size: 60px; font-family: BACS"">uauOYmb</p>","","","","","","","",""
"html-keyboard-response","16","89246","0.0-7.0-0.9","614060a52d7c64c27ef9887c","64afc2c9a8732ea92db0087d","64afd4a6be2c6adcdd08d9af","null","null","<p style=""font-size: 60px; font-family: BACS"">KABABbM</p>","","","","","","","",""
"html-keyboard-response","17","90249","0.0-7.0-0.10","614060a52d7c64c27ef9887c","64afc2c9a8732ea92db0087d","64afd4a6be2c6adcdd08d9af","null","null","<p style=""font-size: 60px; font-family: BACS"">bGuOYmb</p>","","","","","","","",""
"html-keyboard-response","18","91250","0.0-7.0-0.11","614060a52d7c64c27ef9887c","64afc2c9a8732ea92db0087d","64afd4a6be2c6adcdd08d9af","null","null","<p style=""font-size: 60px; font-family: BACS"">JvaAGrub</p>","","","","","","","",""
"html-keyboard-response","19","92262","0.0-7.0-0.12","614060a52d7c64c27ef9887c","64afc2c9a8732ea92db0087d","64afd4a6be2c6adcdd08d9af","null","null","<p style=""font-size: 60px; font-family: BACS"">lhCTCMAB</p>","","","","","","","",""
"html-keyboard-response","20","93263","0.0-7.0-0.13","614060a52d7c64c27ef9887c","64afc2c9a8732ea92db0087d","64afd4a6be2c6adcdd08d9af","null","null","<p style=""font-size: 60px; font-family: BACS"">DhMtBbM</p>","","","","","","","",""
"html-keyboard-response","21","94265","0.0-7.0-0.14","614060a52d7c64c27ef9887c","64afc2c9a8732ea92db0087d","64afd4a6be2c6adcdd08d9af","null","null","<p style=""font-size: 60px; font-family: BACS"">GLYrAYZUZ</p>","","","","","","","",""
"html-keyboard-response","22","95268","0.0-7.0-0.15","614060a52d7c64c27ef9887c","64afc2c9a8732ea92db0087d","64afd4a6be2c6adcdd08d9af","null","null","<p style=""font-size: 60px; font-family: BACS"">DcPTcBbM</p>","","","","","","","",""
"html-keyboard-response","23","96278","0.0-7.0-0.16","614060a52d7c64c27ef9887c","64afc2c9a8732ea92db0087d","64afd4a6be2c6adcdd08d9af","null","null","<p style=""font-size: 60px; font-family: BACS"">kGamNGrub</p>","","","","","","","",""
"html-keyboard-response","24","97279","0.0-7.0-0.17","614060a52d7c64c27ef9887c","64afc2c9a8732ea92db0087d","64afd4a6be2c6adcdd08d9af","null","null","<p style=""font-size: 60px; font-family: BACS"">hlkTBbM</p>","","","","","","","",""
"html-keyboard-response","25","98295","0.0-7.0-0.18","614060a52d7c64c27ef9887c","64afc2c9a8732ea92db0087d","64afd4a6be2c6adcdd08d9af","null","null","<p style=""font-size: 60px; font-family: BACS"">DhMtbdtK</p>","","","","","","","",""
"html-keyboard-response","26","99302","0.0-7.0-0.19","614060a52d7c64c27ef9887c","64afc2c9a8732ea92db0087d","64afd4a6be2c6adcdd08d9af","null","null","<p style=""font-size: 60px; font-family: BACS"">uAkrYZUZ</p>","","","","","","","",""
"html-keyboard-response","27","100304","0.0-7.0-0.20","614060a52d7c64c27ef9887c","64afc2c9a8732ea92db0087d","64afd4a6be2c6adcdd08d9af","null","null","<p style=""font-size: 60px; font-family: BACS"">uauOGrub</p>","","","","","","","",""
"html-keyboard-response","28","101305","0.0-7.0-0.21","614060a52d7c64c27ef9887c","64afc2c9a8732ea92db0087d","64afd4a6be2c6adcdd08d9af","null","null","<p style=""font-size: 60px; font-family: BACS"">lhCTCYDE</p>","","","","","","","",""
"html-keyboard-response","29","102307","0.0-7.0-0.22","614060a52d7c64c27ef9887c","64afc2c9a8732ea92db0087d","64afd4a6be2c6adcdd08d9af","null","null","<p style=""font-size: 60px; font-family: BACS"">kGlUYmb</p>","","","","","","","",""
"html-keyboard-response","30","103308","0.0-7.0-0.23","614060a52d7c64c27ef9887c","64afc2c9a8732ea92db0087d","64afd4a6be2c6adcdd08d9af","null","null","<p style=""font-size: 60px; font-family: BACS"">RKYkBbM</p>","","","","","","","",""
"html-keyboard-response","31","104310","0.0-7.0-0.24","614060a52d7c64c27ef9887c","64afc2c9a8732ea92db0087d","64afd4a6be2c6adcdd08d9af","null","null","<p style=""font-size: 60px; font-family: BACS"">YKRkKOYC</p>","","","","","","","",""
"html-keyboard-response","32","105311","0.0-7.0-0.25","614060a52d7c64c27ef9887c","64afc2c9a8732ea92db0087d","64afd4a6be2c6adcdd08d9af","null","null","<p style=""font-size: 60px; font-family: BACS"">dkLlGrub</p>","","","","","","","",""
"html-keyboard-response","33","106318","0.0-7.0-0.26","614060a52d7c64c27ef9887c","64afc2c9a8732ea92db0087d","64afd4a6be2c6adcdd08d9af","null","null","<p style=""font-size: 60px; font-family: BACS"">RKYkMAB</p>","","","","","","","",""
"html-keyboard-response","34","107320","0.0-7.0-0.27","614060a52d7c64c27ef9887c","64afc2c9a8732ea92db0087d","64afd4a6be2c6adcdd08d9af","null","null","<p style=""font-size: 60px; font-family: BACS"">dkLlYmb</p>","","","","","","","",""
"html-keyboard-response","35","108321","0.0-7.0-0.28","614060a52d7c64c27ef9887c","64afc2c9a8732ea92db0087d","64afd4a6be2c6adcdd08d9af","null","null","<p style=""font-size: 60px; font-family: BACS"">DcPTcMAB</p>","","","","","","","",""
"html-keyboard-response","36","109322","0.0-7.0-0.29","614060a52d7c64c27ef9887c","64afc2c9a8732ea92db0087d","64afd4a6be2c6adcdd08d9af","null","null","<p style=""font-size: 60px; font-family: BACS"">JvaAYZUZ</p>","","","","","","","",""
"html-keyboard-response","37","110324","0.0-7.0-0.30","614060a52d7c64c27ef9887c","64afc2c9a8732ea92db0087d","64afd4a6be2c6adcdd08d9af","null","null","<p style=""font-size: 60px; font-family: BACS"">DcPTcKOYC</p>","","","","","","","",""
"html-keyboard-response","38","111326","0.0-7.0-0.31","614060a52d7c64c27ef9887c","64afc2c9a8732ea92db0087d","64afd4a6be2c6adcdd08d9af","null","null","<p style=""font-size: 60px; font-family: BACS"">hlkTMAB</p>","","","","","","","",""
"html-keyboard-response","39","112327","0.0-7.0-0.32","614060a52d7c64c27ef9887c","64afc2c9a8732ea92db0087d","64afd4a6be2c6adcdd08d9af","null","null","<p style=""font-size: 60px; font-family: BACS"">lhCTCBbM</p>","","","","","","","",""
"html-keyboard-response","40","113334","0.0-7.0-0.33","614060a52d7c64c27ef9887c","64afc2c9a8732ea92db0087d","64afd4a6be2c6adcdd08d9af","null","null","<p style=""font-size: 60px; font-family: BACS"">JvaAkbu</p>","","","","","","","",""
"html-keyboard-response","41","114336","0.0-7.0-0.34","614060a52d7c64c27ef9887c","64afc2c9a8732ea92db0087d","64afd4a6be2c6adcdd08d9af","null","null","<p style=""font-size: 60px; font-family: BACS"">BMEMAYDE</p>","","","","","","","",""
"html-keyboard-response","42","115337","0.0-7.0-0.35","614060a52d7c64c27ef9887c","64afc2c9a8732ea92db0087d","64afd4a6be2c6adcdd08d9af","null","null","<p style=""font-size: 60px; font-family: BACS"">GLYrAYmb</p>","","","","","","","",""
"html-keyboard-response","43","116338","0.0-7.0-0.36","614060a52d7c64c27ef9887c","64afc2c9a8732ea92db0087d","64afd4a6be2c6adcdd08d9af","null","null","<p style=""font-size: 60px; font-family: BACS"">bGuOdUr</p>","","","","","","","",""
"html-keyboard-response","44","117340","0.0-7.0-0.37","614060a52d7c64c27ef9887c","64afc2c9a8732ea92db0087d","64afd4a6be2c6adcdd08d9af","null","null","<p style=""font-size: 60px; font-family: BACS"">kRCkOKOYC</p>","","","","","","","",""
"html-keyboard-response","45","118349","0.0-7.0-0.38","614060a52d7c64c27ef9887c","64afc2c9a8732ea92db0087d","64afd4a6be2c6adcdd08d9af","null","null","<p style=""font-size: 60px; font-family: BACS"">kGlUkbu</p>","","","","","","","",""
"html-keyboard-response","46","119350","0.0-7.0-0.39","614060a52d7c64c27ef9887c","64afc2c9a8732ea92db0087d","64afd4a6be2c6adcdd08d9af","null","null","<p style=""font-size: 60px; font-family: BACS"">RKYkYDE</p>","","","","","","","",""
"html-keyboard-response","47","120352","0.0-7.0-0.40","614060a52d7c64c27ef9887c","64afc2c9a8732ea92db0087d","64afd4a6be2c6adcdd08d9af","null","null","<p style=""font-size: 60px; font-family: BACS"">uAkrdUr</p>","","","","","","","",""
"html-keyboard-response","48","121354","0.0-7.0-0.41","614060a52d7c64c27ef9887c","64afc2c9a8732ea92db0087d","64afd4a6be2c6adcdd08d9af","null","null","<p style=""font-size: 60px; font-family: BACS"">dkLlYZUZ</p>","","","","","","","",""
"html-keyboard-response","49","122355","0.0-7.0-0.42","614060a52d7c64c27ef9887c","64afc2c9a8732ea92db0087d","64afd4a6be2c6adcdd08d9af","null","null","<p style=""font-size: 60px; font-family: BACS"">bGuOGrub</p>","","","","","","","",""
"html-keyboard-response","50","123356","0.0-7.0-0.43","614060a52d7c64c27ef9887c","64afc2c9a8732ea92db0087d","64afd4a6be2c6adcdd08d9af","null","null","<p style=""font-size: 60px; font-family: BACS"">BMEMAKOYC</p>","","","","","","","",""
"html-keyboard-response","51","124358","0.0-7.0-0.44","614060a52d7c64c27ef9887c","64afc2c9a8732ea92db0087d","64afd4a6be2c6adcdd08d9af","null","null","<p style=""font-size: 60px; font-family: BACS"">kGlUYZUZ</p>","","","","","","","",""
"html-keyboard-response","52","125359","0.0-7.0-0.45","614060a52d7c64c27ef9887c","64afc2c9a8732ea92db0087d","64afd4a6be2c6adcdd08d9af","null","null","<p style=""font-size: 60px; font-family: BACS"">uAkrkbu</p>","","","","","","","",""
"html-keyboard-response","53","126360","0.0-7.0-0.46","614060a52d7c64c27ef9887c","64afc2c9a8732ea92db0087d","64afd4a6be2c6adcdd08d9af","null","null","<p style=""font-size: 60px; font-family: BACS"">BMEMABbM</p>","","","","","","","",""
"html-keyboard-response","54","127362","0.0-7.0-0.47","614060a52d7c64c27ef9887c","64afc2c9a8732ea92db0087d","64afd4a6be2c6adcdd08d9af","null","null","<p style=""font-size: 60px; font-family: BACS"">kRCkOYDE</p>","","","","","","","",""
"html-keyboard-response","55","128364","0.0-7.0-0.48","614060a52d7c64c27ef9887c","64afc2c9a8732ea92db0087d","64afd4a6be2c6adcdd08d9af","null","null","<p style=""font-size: 60px; font-family: BACS"">lbBDEKOYC</p>","","","","","","","",""
"html-keyboard-response","56","129365","0.0-7.0-0.49","614060a52d7c64c27ef9887c","64afc2c9a8732ea92db0087d","64afd4a6be2c6adcdd08d9af","null","null","<p style=""font-size: 60px; font-family: BACS"">KABAYDE</p>","","","","","","","",""
"html-keyboard-response","57","130367","0.0-7.0-0.50","614060a52d7c64c27ef9887c","64afc2c9a8732ea92db0087d","64afd4a6be2c6adcdd08d9af","null","null","<p style=""font-size: 60px; font-family: BACS"">uauOkbu</p>","","","","","","","",""
"html-keyboard-response","58","131368","0.0-7.0-0.51","614060a52d7c64c27ef9887c","64afc2c9a8732ea92db0087d","64afd4a6be2c6adcdd08d9af","null","null","<p style=""font-size: 60px; font-family: BACS"">DhMtKOYC</p>","","","","","","","",""
"html-keyboard-response","59","132369","0.0-7.0-0.52","614060a52d7c64c27ef9887c","64afc2c9a8732ea92db0087d","64afd4a6be2c6adcdd08d9af","null","null","<p style=""font-size: 60px; font-family: BACS"">BMEMAbdtK</p>","","","","","","","",""
"html-keyboard-response","60","133370","0.0-7.0-0.53","614060a52d7c64c27ef9887c","64afc2c9a8732ea92db0087d","64afd4a6be2c6adcdd08d9af","null","null","<p style=""font-size: 60px; font-family: BACS"">KABAMAB</p>","","","","","","","",""
"html-keyboard-response","61","134371","0.0-7.0-0.54","614060a52d7c64c27ef9887c","64afc2c9a8732ea92db0087d","64afd4a6be2c6adcdd08d9af","null","null","<p style=""font-size: 60px; font-family: BACS"">YKRkbdtK</p>","","","","","","","",""
"html-keyboard-response","62","135372","0.0-7.0-0.55","614060a52d7c64c27ef9887c","64afc2c9a8732ea92db0087d","64afd4a6be2c6adcdd08d9af","null","null","<p style=""font-size: 60px; font-family: BACS"">dkLldUr</p>","","","","","","","",""
"html-keyboard-response","63","136376","0.0-7.0-0.56","614060a52d7c64c27ef9887c","64afc2c9a8732ea92db0087d","64afd4a6be2c6adcdd08d9af","null","null","<p style=""font-size: 60px; font-family: BACS"">uAkrGrub</p>","","","","","","","",""
"html-keyboard-response","64","137378","0.0-7.0-0.57","614060a52d7c64c27ef9887c","64afc2c9a8732ea92db0087d","64afd4a6be2c6adcdd08d9af","null","null","<p style=""font-size: 60px; font-family: BACS"">kGamNYZUZ</p>","","","","","","","",""
"html-keyboard-response","65","138379","0.0-7.0-0.58","614060a52d7c64c27ef9887c","64afc2c9a8732ea92db0087d","64afd4a6be2c6adcdd08d9af","null","null","<p style=""font-size: 60px; font-family: BACS"">aUZAdUr</p>","","","","","","","",""
"html-keyboard-response","66","139381","0.0-7.0-0.59","614060a52d7c64c27ef9887c","64afc2c9a8732ea92db0087d","64afd4a6be2c6adcdd08d9af","null","null","<p style=""font-size: 60px; font-family: BACS"">kRCkOMAB</p>","","","","","","","",""
"html-keyboard-response","67","140382","0.0-7.0-0.60","614060a52d7c64c27ef9887c","64afc2c9a8732ea92db0087d","64afd4a6be2c6adcdd08d9af","null","null","<p style=""font-size: 60px; font-family: BACS"">DhMtYDE</p>","","","","","","","",""
"html-keyboard-response","68","141383","0.0-7.0-0.61","614060a52d7c64c27ef9887c","64afc2c9a8732ea92db0087d","64afd4a6be2c6adcdd08d9af","null","null","<p style=""font-size: 60px; font-family: BACS"">kGamNYmb</p>","","","","","","","",""
"html-keyboard-response","69","142385","0.0-7.0-0.62","614060a52d7c64c27ef9887c","64afc2c9a8732ea92db0087d","64afd4a6be2c6adcdd08d9af","null","null","<p style=""font-size: 60px; font-family: BACS"">YKRkYDE</p>","","","","","","","",""
"html-keyboard-response","70","143387","0.0-7.0-0.63","614060a52d7c64c27ef9887c","64afc2c9a8732ea92db0087d","64afd4a6be2c6adcdd08d9af","null","null","<p style=""font-size: 60px; font-family: BACS"">RKYkKOYC</p>","","","","","","","",""
"html-keyboard-response","71","144388","0.0-7.0-0.64","614060a52d7c64c27ef9887c","64afc2c9a8732ea92db0087d","64afd4a6be2c6adcdd08d9af","null","null","<p style=""font-size: 60px; font-family: BACS"">kGamNdUr</p>","","","","","","","",""
"html-keyboard-response","72","145389","0.0-7.0-0.65","614060a52d7c64c27ef9887c","64afc2c9a8732ea92db0087d","64afd4a6be2c6adcdd08d9af","null","null","<p style=""font-size: 60px; font-family: BACS"">aUZAYmb</p>","","","","","","","",""
"html-keyboard-response","73","146391","0.0-7.0-0.66","614060a52d7c64c27ef9887c","64afc2c9a8732ea92db0087d","64afd4a6be2c6adcdd08d9af","null","null","<p style=""font-size: 60px; font-family: BACS"">YKRkMAB</p>","","","","","","","",""
"html-keyboard-response","74","147393","0.0-7.0-0.67","614060a52d7c64c27ef9887c","64afc2c9a8732ea92db0087d","64afd4a6be2c6adcdd08d9af","null","null","<p style=""font-size: 60px; font-family: BACS"">hlkTKOYC</p>","","","","","","","",""
"html-keyboard-response","75","148394","0.0-7.0-0.68","614060a52d7c64c27ef9887c","64afc2c9a8732ea92db0087d","64afd4a6be2c6adcdd08d9af","null","null","<p style=""font-size: 60px; font-family: BACS"">UmNJdUr</p>","","","","","","","",""
"html-keyboard-response","76","149395","0.0-7.0-0.69","614060a52d7c64c27ef9887c","64afc2c9a8732ea92db0087d","64afd4a6be2c6adcdd08d9af","null","null","<p style=""font-size: 60px; font-family: BACS"">lbBDEYDE</p>","","","","","","","",""
"html-keyboard-response","77","150397","0.0-7.0-0.70","614060a52d7c64c27ef9887c","64afc2c9a8732ea92db0087d","64afd4a6be2c6adcdd08d9af","null","null","<p style=""font-size: 60px; font-family: BACS"">kRCkObdtK</p>","","","","","","","",""
"html-keyboard-response","78","151413","0.0-7.0-0.71","614060a52d7c64c27ef9887c","64afc2c9a8732ea92db0087d","64afd4a6be2c6adcdd08d9af","null","null","<p style=""font-size: 60px; font-family: BACS"">lbBDEBbM</p>","","","","","","","",""
"html-keyboard-response","79","152415","0.0-7.0-0.72","614060a52d7c64c27ef9887c","64afc2c9a8732ea92db0087d","64afd4a6be2c6adcdd08d9af","null","null","<p style=""font-size: 60px; font-family: BACS"">lhCTCbdtK</p>","","","","","","","",""
"html-keyboard-response","80","153426","0.0-7.0-0.73","614060a52d7c64c27ef9887c","64afc2c9a8732ea92db0087d","64afd4a6be2c6adcdd08d9af","null","null","<p style=""font-size: 60px; font-family: BACS"">aUZAkbu</p>","","","","","","","",""
"html-keyboard-response","81","154427","0.0-7.0-0.74","614060a52d7c64c27ef9887c","64afc2c9a8732ea92db0087d","64afd4a6be2c6adcdd08d9af","null","null","<p style=""font-size: 60px; font-family: BACS"">DcPTcbdtK</p>","","","","","","","",""
"html-keyboard-response","82","155441","0.0-7.0-0.75","614060a52d7c64c27ef9887c","64afc2c9a8732ea92db0087d","64afd4a6be2c6adcdd08d9af","null","null","<p style=""font-size: 60px; font-family: BACS"">JvaAYmb</p>","","","","","","","",""
"html-keyboard-response","83","156443","0.0-7.0-0.76","614060a52d7c64c27ef9887c","64afc2c9a8732ea92db0087d","64afd4a6be2c6adcdd08d9af","null","null","<p style=""font-size: 60px; font-family: BACS"">hlkTbdtK</p>","","","","","","","",""
"html-keyboard-response","84","157445","0.0-7.0-0.77","614060a52d7c64c27ef9887c","64afc2c9a8732ea92db0087d","64afd4a6be2c6adcdd08d9af","null","null","<p style=""font-size: 60px; font-family: BACS"">aUZAYZUZ</p>","","","","","","","",""
"html-keyboard-response","85","158450","0.0-7.0-0.78","614060a52d7c64c27ef9887c","64afc2c9a8732ea92db0087d","64afd4a6be2c6adcdd08d9af","null","null","<p style=""font-size: 60px; font-family: BACS"">bGuOkbu</p>","","","","","","","",""
"html-keyboard-response","86","159451","0.0-7.0-0.79","614060a52d7c64c27ef9887c","64afc2c9a8732ea92db0087d","64afd4a6be2c6adcdd08d9af","null","null","<p style=""font-size: 60px; font-family: BACS"">KABAbdtK</p>","","","","","","","",""
"html-keyboard-response","87","168360","0.0-8.0","614060a52d7c64c27ef9887c","64afc2c9a8732ea92db0087d","64afd4a6be2c6adcdd08d9af","8909"," ","<p>Ottimo, hai visto il primo blocco di parole. Ora puoi prenderti una piccola pausa.</p>
      <p>Premi la barra quando sei pronta/o per riprendere.</p>","","","","","","","",""
"html-keyboard-response","88","169369","0.0-9.0-0.0","614060a52d7c64c27ef9887c","64afc2c9a8732ea92db0087d","64afd4a6be2c6adcdd08d9af","null","null","<p style=""font-size: 60px; font-family: BACS"">DcPTcMAB</p>","","","","","","","",""
"html-keyboard-response","89","170373","0.0-9.0-0.1","614060a52d7c64c27ef9887c","64afc2c9a8732ea92db0087d","64afd4a6be2c6adcdd08d9af","null","null","<p style=""font-size: 60px; font-family: BACS"">kRCkObdtK</p>","","","","","","","",""
"html-keyboard-response","90","171375","0.0-9.0-0.2","614060a52d7c64c27ef9887c","64afc2c9a8732ea92db0087d","64afd4a6be2c6adcdd08d9af","null","null","<p style=""font-size: 60px; font-family: BACS"">JvaAYmb</p>","","","","","","","",""
"html-keyboard-response","91","172377","0.0-9.0-0.3","614060a52d7c64c27ef9887c","64afc2c9a8732ea92db0087d","64afd4a6be2c6adcdd08d9af","null","null","<p style=""font-size: 60px; font-family: BACS"">BMEMABbM</p>","","","","","","","",""
"html-keyboard-response","92","173378","0.0-9.0-0.4","614060a52d7c64c27ef9887c","64afc2c9a8732ea92db0087d","64afd4a6be2c6adcdd08d9af","null","null","<p style=""font-size: 60px; font-family: BACS"">lhCTCYDE</p>","","","","","","","",""
"html-keyboard-response","93","174393","0.0-9.0-0.5","614060a52d7c64c27ef9887c","64afc2c9a8732ea92db0087d","64afd4a6be2c6adcdd08d9af","null","null","<p style=""font-size: 60px; font-family: BACS"">lbBDEKOYC</p>","","","","","","","",""
"html-keyboard-response","94","175394","0.0-9.0-0.6","614060a52d7c64c27ef9887c","64afc2c9a8732ea92db0087d","64afd4a6be2c6adcdd08d9af","null","null","<p style=""font-size: 60px; font-family: BACS"">dkLldUr</p>","","","","","","","",""
"html-keyboard-response","95","176395","0.0-9.0-0.7","614060a52d7c64c27ef9887c","64afc2c9a8732ea92db0087d","64afd4a6be2c6adcdd08d9af","null","null","<p style=""font-size: 60px; font-family: BACS"">lhCTCBbM</p>","","","","","","","",""
"html-keyboard-response","96","177399","0.0-9.0-0.8","614060a52d7c64c27ef9887c","64afc2c9a8732ea92db0087d","64afd4a6be2c6adcdd08d9af","null","null","<p style=""font-size: 60px; font-family: BACS"">uAkrdUr</p>","","","","","","","",""
"html-keyboard-response","97","178401","0.0-9.0-0.9","614060a52d7c64c27ef9887c","64afc2c9a8732ea92db0087d","64afd4a6be2c6adcdd08d9af","null","null","<p style=""font-size: 60px; font-family: BACS"">lhCTCbdtK</p>","","","","","","","",""
"html-keyboard-response","98","179410","0.0-9.0-0.10","614060a52d7c64c27ef9887c","64afc2c9a8732ea92db0087d","64afd4a6be2c6adcdd08d9af","null","null","<p style=""font-size: 60px; font-family: BACS"">kGlUkbu</p>","","","","","","","",""
"html-keyboard-response","99","180411","0.0-9.0-0.11","614060a52d7c64c27ef9887c","64afc2c9a8732ea92db0087d","64afd4a6be2c6adcdd08d9af","null","null","<p style=""font-size: 60px; font-family: BACS"">lbBDEYDE</p>","","","","","","","",""
"html-keyboard-response","100","181424","0.0-9.0-0.12","614060a52d7c64c27ef9887c","64afc2c9a8732ea92db0087d","64afd4a6be2c6adcdd08d9af","null","null","<p style=""font-size: 60px; font-family: BACS"">aUZAYmb</p>","","","","","","","",""
"html-keyboard-response","101","182434","0.0-9.0-0.13","614060a52d7c64c27ef9887c","64afc2c9a8732ea92db0087d","64afd4a6be2c6adcdd08d9af","null","null","<p style=""font-size: 60px; font-family: BACS"">DcPTcKOYC</p>","","","","","","","",""
"html-keyboard-response","102","183436","0.0-9.0-0.14","614060a52d7c64c27ef9887c","64afc2c9a8732ea92db0087d","64afd4a6be2c6adcdd08d9af","null","null","<p style=""font-size: 60px; font-family: BACS"">dkLlGrub</p>","","","","","","","",""
"html-keyboard-response","103","184437","0.0-9.0-0.15","614060a52d7c64c27ef9887c","64afc2c9a8732ea92db0087d","64afd4a6be2c6adcdd08d9af","null","null","<p style=""font-size: 60px; font-family: BACS"">lhCTCMAB</p>","","","","","","","",""
"html-keyboard-response","104","185439","0.0-9.0-0.16","614060a52d7c64c27ef9887c","64afc2c9a8732ea92db0087d","64afd4a6be2c6adcdd08d9af","null","null","<p style=""font-size: 60px; font-family: BACS"">aUZAYZUZ</p>","","","","","","","",""
"html-keyboard-response","105","186440","0.0-9.0-0.17","614060a52d7c64c27ef9887c","64afc2c9a8732ea92db0087d","64afd4a6be2c6adcdd08d9af","null","null","<p style=""font-size: 60px; font-family: BACS"">BMEMAbdtK</p>","","","","","","","",""
"html-keyboard-response","106","187442","0.0-9.0-0.18","614060a52d7c64c27ef9887c","64afc2c9a8732ea92db0087d","64afd4a6be2c6adcdd08d9af","null","null","<p style=""font-size: 60px; font-family: BACS"">uauOGrub</p>","","","","","","","",""
"html-keyboard-response","107","188458","0.0-9.0-0.19","614060a52d7c64c27ef9887c","64afc2c9a8732ea92db0087d","64afd4a6be2c6adcdd08d9af","null","null","<p style=""font-size: 60px; font-family: BACS"">uAkrYZUZ</p>","","","","","","","",""
"html-keyboard-response","108","189460","0.0-9.0-0.20","614060a52d7c64c27ef9887c","64afc2c9a8732ea92db0087d","64afd4a6be2c6adcdd08d9af","null","null","<p style=""font-size: 60px; font-family: BACS"">JvaAGrub</p>","","","","","","","",""
"html-keyboard-response","109","190462","0.0-9.0-0.21","614060a52d7c64c27ef9887c","64afc2c9a8732ea92db0087d","64afd4a6be2c6adcdd08d9af","null","null","<p style=""font-size: 60px; font-family: BACS"">lbBDEBbM</p>","","","","","","","",""
"html-keyboard-response","110","191463","0.0-9.0-0.22","614060a52d7c64c27ef9887c","64afc2c9a8732ea92db0087d","64afd4a6be2c6adcdd08d9af","null","null","<p style=""font-size: 60px; font-family: BACS"">uAkrGrub</p>","","","","","","","",""
"html-keyboard-response","111","192478","0.0-9.0-0.23","614060a52d7c64c27ef9887c","64afc2c9a8732ea92db0087d","64afd4a6be2c6adcdd08d9af","null","null","<p style=""font-size: 60px; font-family: BACS"">DcPTcbdtK</p>","","","","","","","",""
"html-keyboard-response","112","193481","0.0-9.0-0.24","614060a52d7c64c27ef9887c","64afc2c9a8732ea92db0087d","64afd4a6be2c6adcdd08d9af","null","null","<p style=""font-size: 60px; font-family: BACS"">GLYrAYZUZ</p>","","","","","","","",""
"html-keyboard-response","113","194489","0.0-9.0-0.25","614060a52d7c64c27ef9887c","64afc2c9a8732ea92db0087d","64afd4a6be2c6adcdd08d9af","null","null","<p style=""font-size: 60px; font-family: BACS"">bGuOGrub</p>","","","","","","","",""
"html-keyboard-response","114","195490","0.0-9.0-0.26","614060a52d7c64c27ef9887c","64afc2c9a8732ea92db0087d","64afd4a6be2c6adcdd08d9af","null","null","<p style=""font-size: 60px; font-family: BACS"">hlkTbdtK</p>","","","","","","","",""
"html-keyboard-response","115","196492","0.0-9.0-0.27","614060a52d7c64c27ef9887c","64afc2c9a8732ea92db0087d","64afd4a6be2c6adcdd08d9af","null","null","<p style=""font-size: 60px; font-family: BACS"">kRCkOYDE</p>","","","","","","","",""
"html-keyboard-response","116","197493","0.0-9.0-0.28","614060a52d7c64c27ef9887c","64afc2c9a8732ea92db0087d","64afd4a6be2c6adcdd08d9af","null","null","<p style=""font-size: 60px; font-family: BACS"">hlkTBbM</p>","","","","","","","",""
"html-keyboard-response","117","198494","0.0-9.0-0.29","614060a52d7c64c27ef9887c","64afc2c9a8732ea92db0087d","64afd4a6be2c6adcdd08d9af","null","null","<p style=""font-size: 60px; font-family: BACS"">uAkrkbu</p>","","","","","","","",""
"html-keyboard-response","118","199506","0.0-9.0-0.30","614060a52d7c64c27ef9887c","64afc2c9a8732ea92db0087d","64afd4a6be2c6adcdd08d9af","null","null","<p style=""font-size: 60px; font-family: BACS"">kRCkOMAB</p>","","","","","","","",""
"html-keyboard-response","119","200507","0.0-9.0-0.31","614060a52d7c64c27ef9887c","64afc2c9a8732ea92db0087d","64afd4a6be2c6adcdd08d9af","null","null","<p style=""font-size: 60px; font-family: BACS"">aUZAkbu</p>","","","","","","","",""
"html-keyboard-response","120","201509","0.0-9.0-0.32","614060a52d7c64c27ef9887c","64afc2c9a8732ea92db0087d","64afd4a6be2c6adcdd08d9af","null","null","<p style=""font-size: 60px; font-family: BACS"">RKYkBbM</p>","","","","","","","",""
"html-keyboard-response","121","202510","0.0-9.0-0.33","614060a52d7c64c27ef9887c","64afc2c9a8732ea92db0087d","64afd4a6be2c6adcdd08d9af","null","null","<p style=""font-size: 60px; font-family: BACS"">YKRkMAB</p>","","","","","","","",""
"html-keyboard-response","122","203516","0.0-9.0-0.34","614060a52d7c64c27ef9887c","64afc2c9a8732ea92db0087d","64afd4a6be2c6adcdd08d9af","null","null","<p style=""font-size: 60px; font-family: BACS"">KABABbM</p>","","","","","","","",""
"html-keyboard-response","123","204524","0.0-9.0-0.35","614060a52d7c64c27ef9887c","64afc2c9a8732ea92db0087d","64afd4a6be2c6adcdd08d9af","null","null","<p style=""font-size: 60px; font-family: BACS"">bGuOdUr</p>","","","","","","","",""
"html-keyboard-response","124","205531","0.0-9.0-0.36","614060a52d7c64c27ef9887c","64afc2c9a8732ea92db0087d","64afd4a6be2c6adcdd08d9af","null","null","<p style=""font-size: 60px; font-family: BACS"">DcPTcBbM</p>","","","","","","","",""
"html-keyboard-response","125","206540","0.0-9.0-0.37","614060a52d7c64c27ef9887c","64afc2c9a8732ea92db0087d","64afd4a6be2c6adcdd08d9af","null","null","<p style=""font-size: 60px; font-family: BACS"">GLYrAkbu</p>","","","","","","","",""
"html-keyboard-response","126","207543","0.0-9.0-0.38","614060a52d7c64c27ef9887c","64afc2c9a8732ea92db0087d","64afd4a6be2c6adcdd08d9af","null","null","<p style=""font-size: 60px; font-family: BACS"">YKRkbdtK</p>","","","","","","","",""
"html-keyboard-response","127","208545","0.0-9.0-0.39","614060a52d7c64c27ef9887c","64afc2c9a8732ea92db0087d","64afd4a6be2c6adcdd08d9af","null","null","<p style=""font-size: 60px; font-family: BACS"">aUZAdUr</p>","","","","","","","",""
"html-keyboard-response","128","209546","0.0-9.0-0.40","614060a52d7c64c27ef9887c","64afc2c9a8732ea92db0087d","64afd4a6be2c6adcdd08d9af","null","null","<p style=""font-size: 60px; font-family: BACS"">dkLlYZUZ</p>","","","","","","","",""
"html-keyboard-response","129","210560","0.0-9.0-0.41","614060a52d7c64c27ef9887c","64afc2c9a8732ea92db0087d","64afd4a6be2c6adcdd08d9af","null","null","<p style=""font-size: 60px; font-family: BACS"">BMEMAYDE</p>","","","","","","","",""
"html-keyboard-response","130","211561","0.0-9.0-0.42","614060a52d7c64c27ef9887c","64afc2c9a8732ea92db0087d","64afd4a6be2c6adcdd08d9af","null","null","<p style=""font-size: 60px; font-family: BACS"">dkLlYmb</p>","","","","","","","",""
"html-keyboard-response","131","212565","0.0-9.0-0.43","614060a52d7c64c27ef9887c","64afc2c9a8732ea92db0087d","64afd4a6be2c6adcdd08d9af","null","null","<p style=""font-size: 60px; font-family: BACS"">lbBDEMAB</p>","","","","","","","",""
"html-keyboard-response","132","213573","0.0-9.0-0.44","614060a52d7c64c27ef9887c","64afc2c9a8732ea92db0087d","64afd4a6be2c6adcdd08d9af","null","null","<p style=""font-size: 60px; font-family: BACS"">bGuOYmb</p>","","","","","","","",""
"html-keyboard-response","133","214574","0.0-9.0-0.45","614060a52d7c64c27ef9887c","64afc2c9a8732ea92db0087d","64afd4a6be2c6adcdd08d9af","null","null","<p style=""font-size: 60px; font-family: BACS"">DhMtbdtK</p>","","","","","","","",""
"html-keyboard-response","134","215590","0.0-9.0-0.46","614060a52d7c64c27ef9887c","64afc2c9a8732ea92db0087d","64afd4a6be2c6adcdd08d9af","null","null","<p style=""font-size: 60px; font-family: BACS"">KABAMAB</p>","","","","","","","",""
"html-keyboard-response","135","216599","0.0-9.0-0.47","614060a52d7c64c27ef9887c","64afc2c9a8732ea92db0087d","64afd4a6be2c6adcdd08d9af","null","null","<p style=""font-size: 60px; font-family: BACS"">JvaAYZUZ</p>","","","","","","","",""
"html-keyboard-response","136","217604","0.0-9.0-0.48","614060a52d7c64c27ef9887c","64afc2c9a8732ea92db0087d","64afd4a6be2c6adcdd08d9af","null","null","<p style=""font-size: 60px; font-family: BACS"">kRCkOKOYC</p>","","","","","","","",""
"html-keyboard-response","137","218605","0.0-9.0-0.49","614060a52d7c64c27ef9887c","64afc2c9a8732ea92db0087d","64afd4a6be2c6adcdd08d9af","null","null","<p style=""font-size: 60px; font-family: BACS"">KABAYDE</p>","","","","","","","",""
"html-keyboard-response","138","219606","0.0-9.0-0.50","614060a52d7c64c27ef9887c","64afc2c9a8732ea92db0087d","64afd4a6be2c6adcdd08d9af","null","null","<p style=""font-size: 60px; font-family: BACS"">RKYkMAB</p>","","","","","","","",""
"html-keyboard-response","139","220614","0.0-9.0-0.51","614060a52d7c64c27ef9887c","64afc2c9a8732ea92db0087d","64afd4a6be2c6adcdd08d9af","null","null","<p style=""font-size: 60px; font-family: BACS"">bGuOkbu</p>","","","","","","","",""
"html-keyboard-response","140","221615","0.0-9.0-0.52","614060a52d7c64c27ef9887c","64afc2c9a8732ea92db0087d","64afd4a6be2c6adcdd08d9af","null","null","<p style=""font-size: 60px; font-family: BACS"">YKRkYDE</p>","","","","","","","",""
"html-keyboard-response","141","222627","0.0-9.0-0.53","614060a52d7c64c27ef9887c","64afc2c9a8732ea92db0087d","64afd4a6be2c6adcdd08d9af","null","null","<p style=""font-size: 60px; font-family: BACS"">kGamNdUr</p>","","","","","","","",""
"html-keyboard-response","142","223629","0.0-9.0-0.54","614060a52d7c64c27ef9887c","64afc2c9a8732ea92db0087d","64afd4a6be2c6adcdd08d9af","null","null","<p style=""font-size: 60px; font-family: BACS"">GLYrAYmb</p>","","","","","","","",""
"html-keyboard-response","143","224632","0.0-9.0-0.55","614060a52d7c64c27ef9887c","64afc2c9a8732ea92db0087d","64afd4a6be2c6adcdd08d9af","null","null","<p style=""font-size: 60px; font-family: BACS"">UmNJGrub</p>","","","","","","","",""
"html-keyboard-response","144","225633","0.0-9.0-0.56","614060a52d7c64c27ef9887c","64afc2c9a8732ea92db0087d","64afd4a6be2c6adcdd08d9af","null","null","<p style=""font-size: 60px; font-family: BACS"">JvaAkbu</p>","","","","","","","",""
"html-keyboard-response","145","226649","0.0-9.0-0.57","614060a52d7c64c27ef9887c","64afc2c9a8732ea92db0087d","64afd4a6be2c6adcdd08d9af","null","null","<p style=""font-size: 60px; font-family: BACS"">DhMtKOYC</p>","","","","","","","",""
"html-keyboard-response","146","227650","0.0-9.0-0.58","614060a52d7c64c27ef9887c","64afc2c9a8732ea92db0087d","64afd4a6be2c6adcdd08d9af","null","null","<p style=""font-size: 60px; font-family: BACS"">hlkTMAB</p>","","","","","","","",""
"html-keyboard-response","147","228651","0.0-9.0-0.59","614060a52d7c64c27ef9887c","64afc2c9a8732ea92db0087d","64afd4a6be2c6adcdd08d9af","null","null","<p style=""font-size: 60px; font-family: BACS"">uauOYmb</p>","","","","","","","",""
"html-keyboard-response","148","229665","0.0-9.0-0.60","614060a52d7c64c27ef9887c","64afc2c9a8732ea92db0087d","64afd4a6be2c6adcdd08d9af","null","null","<p style=""font-size: 60px; font-family: BACS"">kGlUYZUZ</p>","","","","","","","",""
"html-keyboard-response","149","230666","0.0-9.0-0.61","614060a52d7c64c27ef9887c","64afc2c9a8732ea92db0087d","64afd4a6be2c6adcdd08d9af","null","null","<p style=""font-size: 60px; font-family: BACS"">UmNJdUr</p>","","","","","","","",""
"html-keyboard-response","150","231675","0.0-9.0-0.62","614060a52d7c64c27ef9887c","64afc2c9a8732ea92db0087d","64afd4a6be2c6adcdd08d9af","null","null","<p style=""font-size: 60px; font-family: BACS"">RKYkKOYC</p>","","","","","","","",""
"html-keyboard-response","151","232681","0.0-9.0-0.63","614060a52d7c64c27ef9887c","64afc2c9a8732ea92db0087d","64afd4a6be2c6adcdd08d9af","null","null","<p style=""font-size: 60px; font-family: BACS"">UmNJYZUZ</p>","","","","","","","",""
"html-keyboard-response","152","233683","0.0-9.0-0.64","614060a52d7c64c27ef9887c","64afc2c9a8732ea92db0087d","64afd4a6be2c6adcdd08d9af","null","null","<p style=""font-size: 60px; font-family: BACS"">DhMtBbM</p>","","","","","","","",""
"html-keyboard-response","153","234689","0.0-9.0-0.65","614060a52d7c64c27ef9887c","64afc2c9a8732ea92db0087d","64afd4a6be2c6adcdd08d9af","null","null","<p style=""font-size: 60px; font-family: BACS"">YKRkKOYC</p>","","","","","","","",""
"html-keyboard-response","154","235690","0.0-9.0-0.66","614060a52d7c64c27ef9887c","64afc2c9a8732ea92db0087d","64afd4a6be2c6adcdd08d9af","null","null","<p style=""font-size: 60px; font-family: BACS"">KABAbdtK</p>","","","","","","","",""
"html-keyboard-response","155","236702","0.0-9.0-0.67","614060a52d7c64c27ef9887c","64afc2c9a8732ea92db0087d","64afd4a6be2c6adcdd08d9af","null","null","<p style=""font-size: 60px; font-family: BACS"">kGlUGrub</p>","","","","","","","",""
"html-keyboard-response","156","237708","0.0-9.0-0.68","614060a52d7c64c27ef9887c","64afc2c9a8732ea92db0087d","64afd4a6be2c6adcdd08d9af","null","null","<p style=""font-size: 60px; font-family: BACS"">uauOkbu</p>","","","","","","","",""
"html-keyboard-response","157","238709","0.0-9.0-0.69","614060a52d7c64c27ef9887c","64afc2c9a8732ea92db0087d","64afd4a6be2c6adcdd08d9af","null","null","<p style=""font-size: 60px; font-family: BACS"">BMEMAKOYC</p>","","","","","","","",""
"html-keyboard-response","158","239723","0.0-9.0-0.70","614060a52d7c64c27ef9887c","64afc2c9a8732ea92db0087d","64afd4a6be2c6adcdd08d9af","null","null","<p style=""font-size: 60px; font-family: BACS"">kGamNYmb</p>","","","","","","","",""
"html-keyboard-response","159","240732","0.0-9.0-0.71","614060a52d7c64c27ef9887c","64afc2c9a8732ea92db0087d","64afd4a6be2c6adcdd08d9af","null","null","<p style=""font-size: 60px; font-family: BACS"">DhMtYDE</p>","","","","","","","",""
"html-keyboard-response","160","241733","0.0-9.0-0.72","614060a52d7c64c27ef9887c","64afc2c9a8732ea92db0087d","64afd4a6be2c6adcdd08d9af","null","null","<p style=""font-size: 60px; font-family: BACS"">hlkTKOYC</p>","","","","","","","",""
"html-keyboard-response","161","242735","0.0-9.0-0.73","614060a52d7c64c27ef9887c","64afc2c9a8732ea92db0087d","64afd4a6be2c6adcdd08d9af","null","null","<p style=""font-size: 60px; font-family: BACS"">GLYrAdUr</p>","","","","","","","",""
"html-keyboard-response","162","243749","0.0-9.0-0.74","614060a52d7c64c27ef9887c","64afc2c9a8732ea92db0087d","64afd4a6be2c6adcdd08d9af","null","null","<p style=""font-size: 60px; font-family: BACS"">kGamNYZUZ</p>","","","","","","","",""
"html-keyboard-response","163","244755","0.0-9.0-0.75","614060a52d7c64c27ef9887c","64afc2c9a8732ea92db0087d","64afd4a6be2c6adcdd08d9af","null","null","<p style=""font-size: 60px; font-family: BACS"">UmNJkbu</p>","","","","","","","",""
"html-keyboard-response","164","245757","0.0-9.0-0.76","614060a52d7c64c27ef9887c","64afc2c9a8732ea92db0087d","64afd4a6be2c6adcdd08d9af","null","null","<p style=""font-size: 60px; font-family: BACS"">uauOdUr</p>","","","","","","","",""
"html-keyboard-response","165","246764","0.0-9.0-0.77","614060a52d7c64c27ef9887c","64afc2c9a8732ea92db0087d","64afd4a6be2c6adcdd08d9af","null","null","<p style=""font-size: 60px; font-family: BACS"">kGlUYmb</p>","","","","","","","",""
"html-keyboard-response","166","247771","0.0-9.0-0.78","614060a52d7c64c27ef9887c","64afc2c9a8732ea92db0087d","64afd4a6be2c6adcdd08d9af","null","null","<p style=""font-size: 60px; font-family: BACS"">RKYkYDE</p>","","","","","","","",""
"html-keyboard-response","167","248772","0.0-9.0-0.79","614060a52d7c64c27ef9887c","64afc2c9a8732ea92db0087d","64afd4a6be2c6adcdd08d9af","null","null","<p style=""font-size: 60px; font-family: BACS"">kGamNGrub</p>","","","","","","","",""
"html-keyboard-response","168","254003","0.0-10.0","614060a52d7c64c27ef9887c","64afc2c9a8732ea92db0087d","64afd4a6be2c6adcdd08d9af","5230"," ","<p>Ottimo, hai visto il secondo blocco di parole. Ora puoi prenderti una piccola pausa.</p>
      <p>Premi la barra quando sei pronta/o per riprendere.</p>","","","","","","","",""
"html-keyboard-response","169","255004","0.0-11.0-0.0","614060a52d7c64c27ef9887c","64afc2c9a8732ea92db0087d","64afd4a6be2c6adcdd08d9af","null","null","<p style=""font-size: 60px; font-family: BACS"">YKRkMAB</p>","","","","","","","",""
"html-keyboard-response","170","256005","0.0-11.0-0.1","614060a52d7c64c27ef9887c","64afc2c9a8732ea92db0087d","64afd4a6be2c6adcdd08d9af","null","null","<p style=""font-size: 60px; font-family: BACS"">BMEMAKOYC</p>","","","","","","","",""
"html-keyboard-response","171","257007","0.0-11.0-0.2","614060a52d7c64c27ef9887c","64afc2c9a8732ea92db0087d","64afd4a6be2c6adcdd08d9af","null","null","<p style=""font-size: 60px; font-family: BACS"">kGlUYZUZ</p>","","","","","","","",""
"html-keyboard-response","172","258015","0.0-11.0-0.3","614060a52d7c64c27ef9887c","64afc2c9a8732ea92db0087d","64afd4a6be2c6adcdd08d9af","null","null","<p style=""font-size: 60px; font-family: BACS"">DhMtYDE</p>","","","","","","","",""
"html-keyboard-response","173","259017","0.0-11.0-0.4","614060a52d7c64c27ef9887c","64afc2c9a8732ea92db0087d","64afd4a6be2c6adcdd08d9af","null","null","<p style=""font-size: 60px; font-family: BACS"">uAkrkbu</p>","","","","","","","",""
"html-keyboard-response","174","260019","0.0-11.0-0.5","614060a52d7c64c27ef9887c","64afc2c9a8732ea92db0087d","64afd4a6be2c6adcdd08d9af","null","null","<p style=""font-size: 60px; font-family: BACS"">YKRkYDE</p>","","","","","","","",""
"html-keyboard-response","175","261024","0.0-11.0-0.6","614060a52d7c64c27ef9887c","64afc2c9a8732ea92db0087d","64afd4a6be2c6adcdd08d9af","null","null","<p style=""font-size: 60px; font-family: BACS"">bGuOdUr</p>","","","","","","","",""
"html-keyboard-response","176","262025","0.0-11.0-0.7","614060a52d7c64c27ef9887c","64afc2c9a8732ea92db0087d","64afd4a6be2c6adcdd08d9af","null","null","<p style=""font-size: 60px; font-family: BACS"">kGamNYZUZ</p>","","","","","","","",""
"html-keyboard-response","177","263026","0.0-11.0-0.8","614060a52d7c64c27ef9887c","64afc2c9a8732ea92db0087d","64afd4a6be2c6adcdd08d9af","null","null","<p style=""font-size: 60px; font-family: BACS"">uauOdUr</p>","","","","","","","",""
"html-keyboard-response","178","264028","0.0-11.0-0.9","614060a52d7c64c27ef9887c","64afc2c9a8732ea92db0087d","64afd4a6be2c6adcdd08d9af","null","null","<p style=""font-size: 60px; font-family: BACS"">bGuOGrub</p>","","","","","","","",""
"html-keyboard-response","179","265041","0.0-11.0-0.10","614060a52d7c64c27ef9887c","64afc2c9a8732ea92db0087d","64afd4a6be2c6adcdd08d9af","null","null","<p style=""font-size: 60px; font-family: BACS"">BMEMAYDE</p>","","","","","","","",""
"html-keyboard-response","180","266043","0.0-11.0-0.11","614060a52d7c64c27ef9887c","64afc2c9a8732ea92db0087d","64afd4a6be2c6adcdd08d9af","null","null","<p style=""font-size: 60px; font-family: BACS"">RKYkBbM</p>","","","","","","","",""
"html-keyboard-response","181","267060","0.0-11.0-0.12","614060a52d7c64c27ef9887c","64afc2c9a8732ea92db0087d","64afd4a6be2c6adcdd08d9af","null","null","<p style=""font-size: 60px; font-family: BACS"">JvaAGrub</p>","","","","","","","",""
"html-keyboard-response","182","268061","0.0-11.0-0.13","614060a52d7c64c27ef9887c","64afc2c9a8732ea92db0087d","64afd4a6be2c6adcdd08d9af","null","null","<p style=""font-size: 60px; font-family: BACS"">dkLlYZUZ</p>","","","","","","","",""
"html-keyboard-response","183","269068","0.0-11.0-0.14","614060a52d7c64c27ef9887c","64afc2c9a8732ea92db0087d","64afd4a6be2c6adcdd08d9af","null","null","<p style=""font-size: 60px; font-family: BACS"">uAkrGrub</p>","","","","","","","",""
"html-keyboard-response","184","270074","0.0-11.0-0.15","614060a52d7c64c27ef9887c","64afc2c9a8732ea92db0087d","64afd4a6be2c6adcdd08d9af","null","null","<p style=""font-size: 60px; font-family: BACS"">hlkTKOYC</p>","","","","","","","",""
"html-keyboard-response","185","271076","0.0-11.0-0.16","614060a52d7c64c27ef9887c","64afc2c9a8732ea92db0087d","64afd4a6be2c6adcdd08d9af","null","null","<p style=""font-size: 60px; font-family: BACS"">kRCkOYDE</p>","","","","","","","",""
"html-keyboard-response","186","272077","0.0-11.0-0.17","614060a52d7c64c27ef9887c","64afc2c9a8732ea92db0087d","64afd4a6be2c6adcdd08d9af","null","null","<p style=""font-size: 60px; font-family: BACS"">KABABbM</p>","","","","","","","",""
"html-keyboard-response","187","273078","0.0-11.0-0.18","614060a52d7c64c27ef9887c","64afc2c9a8732ea92db0087d","64afd4a6be2c6adcdd08d9af","null","null","<p style=""font-size: 60px; font-family: BACS"">RKYkYDE</p>","","","","","","","",""
"html-keyboard-response","188","274080","0.0-11.0-0.19","614060a52d7c64c27ef9887c","64afc2c9a8732ea92db0087d","64afd4a6be2c6adcdd08d9af","null","null","<p style=""font-size: 60px; font-family: BACS"">uauOYmb</p>","","","","","","","",""
"html-keyboard-response","189","275095","0.0-11.0-0.20","614060a52d7c64c27ef9887c","64afc2c9a8732ea92db0087d","64afd4a6be2c6adcdd08d9af","null","null","<p style=""font-size: 60px; font-family: BACS"">kGlUGrub</p>","","","","","","","",""
"html-keyboard-response","190","276096","0.0-11.0-0.21","614060a52d7c64c27ef9887c","64afc2c9a8732ea92db0087d","64afd4a6be2c6adcdd08d9af","null","null","<p style=""font-size: 60px; font-family: BACS"">KABAYDE</p>","","","","","","","",""
"html-keyboard-response","191","277102","0.0-11.0-0.22","614060a52d7c64c27ef9887c","64afc2c9a8732ea92db0087d","64afd4a6be2c6adcdd08d9af","null","null","<p style=""font-size: 60px; font-family: BACS"">JvaAYZUZ</p>","","","","","","","",""
"html-keyboard-response","192","278111","0.0-11.0-0.23","614060a52d7c64c27ef9887c","64afc2c9a8732ea92db0087d","64afd4a6be2c6adcdd08d9af","null","null","<p style=""font-size: 60px; font-family: BACS"">aUZAkbu</p>","","","","","","","",""
"html-keyboard-response","193","279113","0.0-11.0-0.24","614060a52d7c64c27ef9887c","64afc2c9a8732ea92db0087d","64afd4a6be2c6adcdd08d9af","null","null","<p style=""font-size: 60px; font-family: BACS"">JvaAYmb</p>","","","","","","","",""
"html-keyboard-response","194","280115","0.0-11.0-0.25","614060a52d7c64c27ef9887c","64afc2c9a8732ea92db0087d","64afd4a6be2c6adcdd08d9af","null","null","<p style=""font-size: 60px; font-family: BACS"">aUZAYZUZ</p>","","","","","","","",""
"html-keyboard-response","195","281126","0.0-11.0-0.26","614060a52d7c64c27ef9887c","64afc2c9a8732ea92db0087d","64afd4a6be2c6adcdd08d9af","null","null","<p style=""font-size: 60px; font-family: BACS"">BMEMABbM</p>","","","","","","","",""
"html-keyboard-response","196","282133","0.0-11.0-0.27","614060a52d7c64c27ef9887c","64afc2c9a8732ea92db0087d","64afd4a6be2c6adcdd08d9af","null","null","<p style=""font-size: 60px; font-family: BACS"">lhCTCbdtK</p>","","","","","","","",""
"html-keyboard-response","197","283140","0.0-11.0-0.28","614060a52d7c64c27ef9887c","64afc2c9a8732ea92db0087d","64afd4a6be2c6adcdd08d9af","null","null","<p style=""font-size: 60px; font-family: BACS"">RKYkMAB</p>","","","","","","","",""
"html-keyboard-response","198","284141","0.0-11.0-0.29","614060a52d7c64c27ef9887c","64afc2c9a8732ea92db0087d","64afd4a6be2c6adcdd08d9af","null","null","<p style=""font-size: 60px; font-family: BACS"">kGlUkbu</p>","","","","","","","",""
"html-keyboard-response","199","285146","0.0-11.0-0.30","614060a52d7c64c27ef9887c","64afc2c9a8732ea92db0087d","64afd4a6be2c6adcdd08d9af","null","null","<p style=""font-size: 60px; font-family: BACS"">DhMtbdtK</p>","","","","","","","",""
"html-keyboard-response","200","286152","0.0-11.0-0.31","614060a52d7c64c27ef9887c","64afc2c9a8732ea92db0087d","64afd4a6be2c6adcdd08d9af","null","null","<p style=""font-size: 60px; font-family: BACS"">GLYrAYmb</p>","","","","","","","",""
"html-keyboard-response","201","287153","0.0-11.0-0.32","614060a52d7c64c27ef9887c","64afc2c9a8732ea92db0087d","64afd4a6be2c6adcdd08d9af","null","null","<p style=""font-size: 60px; font-family: BACS"">UmNJGrub</p>","","","","","","","",""
"html-keyboard-response","202","288162","0.0-11.0-0.33","614060a52d7c64c27ef9887c","64afc2c9a8732ea92db0087d","64afd4a6be2c6adcdd08d9af","null","null","<p style=""font-size: 60px; font-family: BACS"">KABAMAB</p>","","","","","","","",""
"html-keyboard-response","203","289164","0.0-11.0-0.34","614060a52d7c64c27ef9887c","64afc2c9a8732ea92db0087d","64afd4a6be2c6adcdd08d9af","null","null","<p style=""font-size: 60px; font-family: BACS"">GLYrAYZUZ</p>","","","","","","","",""
"html-keyboard-response","204","290166","0.0-11.0-0.35","614060a52d7c64c27ef9887c","64afc2c9a8732ea92db0087d","64afd4a6be2c6adcdd08d9af","null","null","<p style=""font-size: 60px; font-family: BACS"">lhCTCYDE</p>","","","","","","","",""
"html-keyboard-response","205","291171","0.0-11.0-0.36","614060a52d7c64c27ef9887c","64afc2c9a8732ea92db0087d","64afd4a6be2c6adcdd08d9af","null","null","<p style=""font-size: 60px; font-family: BACS"">dkLlYmb</p>","","","","","","","",""
"html-keyboard-response","206","292176","0.0-11.0-0.37","614060a52d7c64c27ef9887c","64afc2c9a8732ea92db0087d","64afd4a6be2c6adcdd08d9af","null","null","<p style=""font-size: 60px; font-family: BACS"">lbBDEYDE</p>","","","","","","","",""
"html-keyboard-response","207","293177","0.0-11.0-0.38","614060a52d7c64c27ef9887c","64afc2c9a8732ea92db0087d","64afd4a6be2c6adcdd08d9af","null","null","<p style=""font-size: 60px; font-family: BACS"">YKRkKOYC</p>","","","","","","","",""
"html-keyboard-response","208","294178","0.0-11.0-0.39","614060a52d7c64c27ef9887c","64afc2c9a8732ea92db0087d","64afd4a6be2c6adcdd08d9af","null","null","<p style=""font-size: 60px; font-family: BACS"">DcPTcbdtK</p>","","","","","","","",""
"html-keyboard-response","209","295194","0.0-11.0-0.40","614060a52d7c64c27ef9887c","64afc2c9a8732ea92db0087d","64afd4a6be2c6adcdd08d9af","null","null","<p style=""font-size: 60px; font-family: BACS"">uAkrdUr</p>","","","","","","","",""
"html-keyboard-response","210","296195","0.0-11.0-0.41","614060a52d7c64c27ef9887c","64afc2c9a8732ea92db0087d","64afd4a6be2c6adcdd08d9af","null","null","<p style=""font-size: 60px; font-family: BACS"">bGuOYmb</p>","","","","","","","",""
"html-keyboard-response","211","297203","0.0-11.0-0.42","614060a52d7c64c27ef9887c","64afc2c9a8732ea92db0087d","64afd4a6be2c6adcdd08d9af","null","null","<p style=""font-size: 60px; font-family: BACS"">DcPTcMAB</p>","","","","","","","",""
"html-keyboard-response","212","298208","0.0-11.0-0.43","614060a52d7c64c27ef9887c","64afc2c9a8732ea92db0087d","64afd4a6be2c6adcdd08d9af","null","null","<p style=""font-size: 60px; font-family: BACS"">hlkTBbM</p>","","","","","","","",""
"html-keyboard-response","213","299210","0.0-11.0-0.44","614060a52d7c64c27ef9887c","64afc2c9a8732ea92db0087d","64afd4a6be2c6adcdd08d9af","null","null","<p style=""font-size: 60px; font-family: BACS"">RKYkKOYC</p>","","","","","","","",""
"html-keyboard-response","214","300223","0.0-11.0-0.45","614060a52d7c64c27ef9887c","64afc2c9a8732ea92db0087d","64afd4a6be2c6adcdd08d9af","null","null","<p style=""font-size: 60px; font-family: BACS"">kGlUYmb</p>","","","","","","","",""
"html-keyboard-response","215","301225","0.0-11.0-0.46","614060a52d7c64c27ef9887c","64afc2c9a8732ea92db0087d","64afd4a6be2c6adcdd08d9af","null","null","<p style=""font-size: 60px; font-family: BACS"">DhMtBbM</p>","","","","","","","",""
"html-keyboard-response","216","302236","0.0-11.0-0.47","614060a52d7c64c27ef9887c","64afc2c9a8732ea92db0087d","64afd4a6be2c6adcdd08d9af","null","null","<p style=""font-size: 60px; font-family: BACS"">aUZAYmb</p>","","","","","","","",""
"html-keyboard-response","217","303237","0.0-11.0-0.48","614060a52d7c64c27ef9887c","64afc2c9a8732ea92db0087d","64afd4a6be2c6adcdd08d9af","null","null","<p style=""font-size: 60px; font-family: BACS"">lhCTCBbM</p>","","","","","","","",""
"html-keyboard-response","218","304243","0.0-11.0-0.49","614060a52d7c64c27ef9887c","64afc2c9a8732ea92db0087d","64afd4a6be2c6adcdd08d9af","null","null","<p style=""font-size: 60px; font-family: BACS"">DhMtKOYC</p>","","","","","","","",""
"html-keyboard-response","219","305249","0.0-11.0-0.50","614060a52d7c64c27ef9887c","64afc2c9a8732ea92db0087d","64afd4a6be2c6adcdd08d9af","null","null","<p style=""font-size: 60px; font-family: BACS"">hlkTbdtK</p>","","","","","","","",""
"html-keyboard-response","220","306251","0.0-11.0-0.51","614060a52d7c64c27ef9887c","64afc2c9a8732ea92db0087d","64afd4a6be2c6adcdd08d9af","null","null","<p style=""font-size: 60px; font-family: BACS"">uauOkbu</p>","","","","","","","",""
"html-keyboard-response","221","307253","0.0-11.0-0.52","614060a52d7c64c27ef9887c","64afc2c9a8732ea92db0087d","64afd4a6be2c6adcdd08d9af","null","null","<p style=""font-size: 60px; font-family: BACS"">kGamNdUr</p>","","","","","","","",""
"html-keyboard-response","222","308257","0.0-11.0-0.53","614060a52d7c64c27ef9887c","64afc2c9a8732ea92db0087d","64afd4a6be2c6adcdd08d9af","null","null","<p style=""font-size: 60px; font-family: BACS"">JvaAkbu</p>","","","","","","","",""
"html-keyboard-response","223","309267","0.0-11.0-0.54","614060a52d7c64c27ef9887c","64afc2c9a8732ea92db0087d","64afd4a6be2c6adcdd08d9af","null","null","<p style=""font-size: 60px; font-family: BACS"">hlkTMAB</p>","","","","","","","",""
"html-keyboard-response","224","310268","0.0-11.0-0.55","614060a52d7c64c27ef9887c","64afc2c9a8732ea92db0087d","64afd4a6be2c6adcdd08d9af","null","null","<p style=""font-size: 60px; font-family: BACS"">GLYrAdUr</p>","","","","","","","",""
"html-keyboard-response","225","311282","0.0-11.0-0.56","614060a52d7c64c27ef9887c","64afc2c9a8732ea92db0087d","64afd4a6be2c6adcdd08d9af","null","null","<p style=""font-size: 60px; font-family: BACS"">YKRkbdtK</p>","","","","","","","",""
"html-keyboard-response","226","312283","0.0-11.0-0.57","614060a52d7c64c27ef9887c","64afc2c9a8732ea92db0087d","64afd4a6be2c6adcdd08d9af","null","null","<p style=""font-size: 60px; font-family: BACS"">dkLldUr</p>","","","","","","","",""
"html-keyboard-response","227","313298","0.0-11.0-0.58","614060a52d7c64c27ef9887c","64afc2c9a8732ea92db0087d","64afd4a6be2c6adcdd08d9af","null","null","<p style=""font-size: 60px; font-family: BACS"">UmNJkbu</p>","","","","","","","",""
"html-keyboard-response","228","314299","0.0-11.0-0.59","614060a52d7c64c27ef9887c","64afc2c9a8732ea92db0087d","64afd4a6be2c6adcdd08d9af","null","null","<p style=""font-size: 60px; font-family: BACS"">KABAbdtK</p>","","","","","","","",""
"html-keyboard-response","229","315301","0.0-11.0-0.60","614060a52d7c64c27ef9887c","64afc2c9a8732ea92db0087d","64afd4a6be2c6adcdd08d9af","null","null","<p style=""font-size: 60px; font-family: BACS"">kGamNGrub</p>","","","","","","","",""
"html-keyboard-response","230","316312","0.0-11.0-0.61","614060a52d7c64c27ef9887c","64afc2c9a8732ea92db0087d","64afd4a6be2c6adcdd08d9af","null","null","<p style=""font-size: 60px; font-family: BACS"">uAkrYZUZ</p>","","","","","","","",""
"html-keyboard-response","231","317317","0.0-11.0-0.62","614060a52d7c64c27ef9887c","64afc2c9a8732ea92db0087d","64afd4a6be2c6adcdd08d9af","null","null","<p style=""font-size: 60px; font-family: BACS"">lbBDEKOYC</p>","","","","","","","",""
"html-keyboard-response","232","318318","0.0-11.0-0.63","614060a52d7c64c27ef9887c","64afc2c9a8732ea92db0087d","64afd4a6be2c6adcdd08d9af","null","null","<p style=""font-size: 60px; font-family: BACS"">aUZAdUr</p>","","","","","","","",""
"html-keyboard-response","233","319329","0.0-11.0-0.64","614060a52d7c64c27ef9887c","64afc2c9a8732ea92db0087d","64afd4a6be2c6adcdd08d9af","null","null","<p style=""font-size: 60px; font-family: BACS"">UmNJYZUZ</p>","","","","","","","",""
"html-keyboard-response","234","320330","0.0-11.0-0.65","614060a52d7c64c27ef9887c","64afc2c9a8732ea92db0087d","64afd4a6be2c6adcdd08d9af","null","null","<p style=""font-size: 60px; font-family: BACS"">lbBDEMAB</p>","","","","","","","",""
"html-keyboard-response","235","321343","0.0-11.0-0.66","614060a52d7c64c27ef9887c","64afc2c9a8732ea92db0087d","64afd4a6be2c6adcdd08d9af","null","null","<p style=""font-size: 60px; font-family: BACS"">uauOGrub</p>","","","","","","","",""
"html-keyboard-response","236","322344","0.0-11.0-0.67","614060a52d7c64c27ef9887c","64afc2c9a8732ea92db0087d","64afd4a6be2c6adcdd08d9af","null","null","<p style=""font-size: 60px; font-family: BACS"">UmNJdUr</p>","","","","","","","",""
"html-keyboard-response","237","323358","0.0-11.0-0.68","614060a52d7c64c27ef9887c","64afc2c9a8732ea92db0087d","64afd4a6be2c6adcdd08d9af","null","null","<p style=""font-size: 60px; font-family: BACS"">lbBDEBbM</p>","","","","","","","",""
"html-keyboard-response","238","324359","0.0-11.0-0.69","614060a52d7c64c27ef9887c","64afc2c9a8732ea92db0087d","64afd4a6be2c6adcdd08d9af","null","null","<p style=""font-size: 60px; font-family: BACS"">lhCTCMAB</p>","","","","","","","",""
"html-keyboard-response","239","325360","0.0-11.0-0.70","614060a52d7c64c27ef9887c","64afc2c9a8732ea92db0087d","64afd4a6be2c6adcdd08d9af","null","null","<p style=""font-size: 60px; font-family: BACS"">bGuOkbu</p>","","","","","","","",""
"html-keyboard-response","240","326361","0.0-11.0-0.71","614060a52d7c64c27ef9887c","64afc2c9a8732ea92db0087d","64afd4a6be2c6adcdd08d9af","null","null","<p style=""font-size: 60px; font-family: BACS"">DcPTcKOYC</p>","","","","","","","",""
"html-keyboard-response","241","327363","0.0-11.0-0.72","614060a52d7c64c27ef9887c","64afc2c9a8732ea92db0087d","64afd4a6be2c6adcdd08d9af","null","null","<p style=""font-size: 60px; font-family: BACS"">kGamNYmb</p>","","","","","","","",""
"html-keyboard-response","242","328364","0.0-11.0-0.73","614060a52d7c64c27ef9887c","64afc2c9a8732ea92db0087d","64afd4a6be2c6adcdd08d9af","null","null","<p style=""font-size: 60px; font-family: BACS"">DcPTcBbM</p>","","","","","","","",""
"html-keyboard-response","243","329366","0.0-11.0-0.74","614060a52d7c64c27ef9887c","64afc2c9a8732ea92db0087d","64afd4a6be2c6adcdd08d9af","null","null","<p style=""font-size: 60px; font-family: BACS"">GLYrAkbu</p>","","","","","","","",""
"html-keyboard-response","244","330368","0.0-11.0-0.75","614060a52d7c64c27ef9887c","64afc2c9a8732ea92db0087d","64afd4a6be2c6adcdd08d9af","null","null","<p style=""font-size: 60px; font-family: BACS"">kRCkObdtK</p>","","","","","","","",""
"html-keyboard-response","245","331369","0.0-11.0-0.76","614060a52d7c64c27ef9887c","64afc2c9a8732ea92db0087d","64afd4a6be2c6adcdd08d9af","null","null","<p style=""font-size: 60px; font-family: BACS"">dkLlGrub</p>","","","","","","","",""
"html-keyboard-response","246","332380","0.0-11.0-0.77","614060a52d7c64c27ef9887c","64afc2c9a8732ea92db0087d","64afd4a6be2c6adcdd08d9af","null","null","<p style=""font-size: 60px; font-family: BACS"">kRCkOMAB</p>","","","","","","","",""
"html-keyboard-response","247","333387","0.0-11.0-0.78","614060a52d7c64c27ef9887c","64afc2c9a8732ea92db0087d","64afd4a6be2c6adcdd08d9af","null","null","<p style=""font-size: 60px; font-family: BACS"">BMEMAbdtK</p>","","","","","","","",""
"html-keyboard-response","248","334398","0.0-11.0-0.79","614060a52d7c64c27ef9887c","64afc2c9a8732ea92db0087d","64afd4a6be2c6adcdd08d9af","null","null","<p style=""font-size: 60px; font-family: BACS"">kRCkOKOYC</p>","","","","","","","",""
"html-keyboard-response","249","394917","0.0-12.0","614060a52d7c64c27ef9887c","64afc2c9a8732ea92db0087d","64afd4a6be2c6adcdd08d9af","60519"," ","<p>Ottimo, hai visto il terzo blocco di parole. Ora puoi prenderti una piccola pausa.</p>
      <p>Premi la barra quando sei pronta/o per riprendere.</p>","","","","","","","",""
"html-keyboard-response","250","395932","0.0-13.0-0.0","614060a52d7c64c27ef9887c","64afc2c9a8732ea92db0087d","64afd4a6be2c6adcdd08d9af","null","null","<p style=""font-size: 60px; font-family: BACS"">uauOkbu</p>","","","","","","","",""
"html-keyboard-response","251","396936","0.0-13.0-0.1","614060a52d7c64c27ef9887c","64afc2c9a8732ea92db0087d","64afd4a6be2c6adcdd08d9af","null","null","<p style=""font-size: 60px; font-family: BACS"">bGuOGrub</p>","","","","","","","",""
"html-keyboard-response","252","397942","0.0-13.0-0.2","614060a52d7c64c27ef9887c","64afc2c9a8732ea92db0087d","64afd4a6be2c6adcdd08d9af","null","null","<p style=""font-size: 60px; font-family: BACS"">KABAMAB</p>","","","","","","","",""
"html-keyboard-response","253","398949","0.0-13.0-0.3","614060a52d7c64c27ef9887c","64afc2c9a8732ea92db0087d","64afd4a6be2c6adcdd08d9af","null","null","<p style=""font-size: 60px; font-family: BACS"">JvaAYmb</p>","","","","","","","",""
"html-keyboard-response","254","399951","0.0-13.0-0.4","614060a52d7c64c27ef9887c","64afc2c9a8732ea92db0087d","64afd4a6be2c6adcdd08d9af","null","null","<p style=""font-size: 60px; font-family: BACS"">uauOGrub</p>","","","","","","","",""
"html-keyboard-response","255","400953","0.0-13.0-0.5","614060a52d7c64c27ef9887c","64afc2c9a8732ea92db0087d","64afd4a6be2c6adcdd08d9af","null","null","<p style=""font-size: 60px; font-family: BACS"">DcPTcKOYC</p>","","","","","","","",""
"html-keyboard-response","256","401968","0.0-13.0-0.6","614060a52d7c64c27ef9887c","64afc2c9a8732ea92db0087d","64afd4a6be2c6adcdd08d9af","null","null","<p style=""font-size: 60px; font-family: BACS"">BMEMABbM</p>","","","","","","","",""
"html-keyboard-response","257","402971","0.0-13.0-0.7","614060a52d7c64c27ef9887c","64afc2c9a8732ea92db0087d","64afd4a6be2c6adcdd08d9af","null","null","<p style=""font-size: 60px; font-family: BACS"">uAkrdUr</p>","","","","","","","",""
"html-keyboard-response","258","403974","0.0-13.0-0.8","614060a52d7c64c27ef9887c","64afc2c9a8732ea92db0087d","64afd4a6be2c6adcdd08d9af","null","null","<p style=""font-size: 60px; font-family: BACS"">BMEMAKOYC</p>","","","","","","","",""
"html-keyboard-response","259","404975","0.0-13.0-0.9","614060a52d7c64c27ef9887c","64afc2c9a8732ea92db0087d","64afd4a6be2c6adcdd08d9af","null","null","<p style=""font-size: 60px; font-family: BACS"">kRCkOMAB</p>","","","","","","","",""
"html-keyboard-response","260","405976","0.0-13.0-0.10","614060a52d7c64c27ef9887c","64afc2c9a8732ea92db0087d","64afd4a6be2c6adcdd08d9af","null","null","<p style=""font-size: 60px; font-family: BACS"">lhCTCYDE</p>","","","","","","","",""
"html-keyboard-response","261","406978","0.0-13.0-0.11","614060a52d7c64c27ef9887c","64afc2c9a8732ea92db0087d","64afd4a6be2c6adcdd08d9af","null","null","<p style=""font-size: 60px; font-family: BACS"">aUZAdUr</p>","","","","","","","",""
"html-keyboard-response","262","407986","0.0-13.0-0.12","614060a52d7c64c27ef9887c","64afc2c9a8732ea92db0087d","64afd4a6be2c6adcdd08d9af","null","null","<p style=""font-size: 60px; font-family: BACS"">kRCkOKOYC</p>","","","","","","","",""
"html-keyboard-response","263","408989","0.0-13.0-0.13","614060a52d7c64c27ef9887c","64afc2c9a8732ea92db0087d","64afd4a6be2c6adcdd08d9af","null","null","<p style=""font-size: 60px; font-family: BACS"">DcPTcBbM</p>","","","","","","","",""
"html-keyboard-response","264","409990","0.0-13.0-0.14","614060a52d7c64c27ef9887c","64afc2c9a8732ea92db0087d","64afd4a6be2c6adcdd08d9af","null","null","<p style=""font-size: 60px; font-family: BACS"">lhCTCMAB</p>","","","","","","","",""
"html-keyboard-response","265","410991","0.0-13.0-0.15","614060a52d7c64c27ef9887c","64afc2c9a8732ea92db0087d","64afd4a6be2c6adcdd08d9af","null","null","<p style=""font-size: 60px; font-family: BACS"">kGamNYmb</p>","","","","","","","",""
"html-keyboard-response","266","411991","0.0-13.0-0.16","614060a52d7c64c27ef9887c","64afc2c9a8732ea92db0087d","64afd4a6be2c6adcdd08d9af","null","null","<p style=""font-size: 60px; font-family: BACS"">DhMtBbM</p>","","","","","","","",""
"html-keyboard-response","267","412993","0.0-13.0-0.17","614060a52d7c64c27ef9887c","64afc2c9a8732ea92db0087d","64afd4a6be2c6adcdd08d9af","null","null","<p style=""font-size: 60px; font-family: BACS"">DcPTcbdtK</p>","","","","","","","",""
"html-keyboard-response","268","413996","0.0-13.0-0.18","614060a52d7c64c27ef9887c","64afc2c9a8732ea92db0087d","64afd4a6be2c6adcdd08d9af","null","null","<p style=""font-size: 60px; font-family: BACS"">kGlUkbu</p>","","","","","","","",""
"html-keyboard-response","269","415001","0.0-13.0-0.19","614060a52d7c64c27ef9887c","64afc2c9a8732ea92db0087d","64afd4a6be2c6adcdd08d9af","null","null","<p style=""font-size: 60px; font-family: BACS"">GLYrAYmb</p>","","","","","","","",""
"html-keyboard-response","270","416011","0.0-13.0-0.20","614060a52d7c64c27ef9887c","64afc2c9a8732ea92db0087d","64afd4a6be2c6adcdd08d9af","null","null","<p style=""font-size: 60px; font-family: BACS"">uAkrYZUZ</p>","","","","","","","",""
"html-keyboard-response","271","417014","0.0-13.0-0.21","614060a52d7c64c27ef9887c","64afc2c9a8732ea92db0087d","64afd4a6be2c6adcdd08d9af","null","null","<p style=""font-size: 60px; font-family: BACS"">uauOdUr</p>","","","","","","","",""
"html-keyboard-response","272","418016","0.0-13.0-0.22","614060a52d7c64c27ef9887c","64afc2c9a8732ea92db0087d","64afd4a6be2c6adcdd08d9af","null","null","<p style=""font-size: 60px; font-family: BACS"">kGamNYZUZ</p>","","","","","","","",""
"html-keyboard-response","273","419017","0.0-13.0-0.23","614060a52d7c64c27ef9887c","64afc2c9a8732ea92db0087d","64afd4a6be2c6adcdd08d9af","null","null","<p style=""font-size: 60px; font-family: BACS"">UmNJGrub</p>","","","","","","","",""
"html-keyboard-response","274","420019","0.0-13.0-0.24","614060a52d7c64c27ef9887c","64afc2c9a8732ea92db0087d","64afd4a6be2c6adcdd08d9af","null","null","<p style=""font-size: 60px; font-family: BACS"">kRCkObdtK</p>","","","","","","","",""
"html-keyboard-response","275","421024","0.0-13.0-0.25","614060a52d7c64c27ef9887c","64afc2c9a8732ea92db0087d","64afd4a6be2c6adcdd08d9af","null","null","<p style=""font-size: 60px; font-family: BACS"">KABAYDE</p>","","","","","","","",""
"html-keyboard-response","276","422032","0.0-13.0-0.26","614060a52d7c64c27ef9887c","64afc2c9a8732ea92db0087d","64afd4a6be2c6adcdd08d9af","null","null","<p style=""font-size: 60px; font-family: BACS"">DcPTcMAB</p>","","","","","","","",""
"html-keyboard-response","277","423040","0.0-13.0-0.27","614060a52d7c64c27ef9887c","64afc2c9a8732ea92db0087d","64afd4a6be2c6adcdd08d9af","null","null","<p style=""font-size: 60px; font-family: BACS"">uAkrkbu</p>","","","","","","","",""
"html-keyboard-response","278","424041","0.0-13.0-0.28","614060a52d7c64c27ef9887c","64afc2c9a8732ea92db0087d","64afd4a6be2c6adcdd08d9af","null","null","<p style=""font-size: 60px; font-family: BACS"">aUZAYmb</p>","","","","","","","",""
"html-keyboard-response","279","425042","0.0-13.0-0.29","614060a52d7c64c27ef9887c","64afc2c9a8732ea92db0087d","64afd4a6be2c6adcdd08d9af","null","null","<p style=""font-size: 60px; font-family: BACS"">JvaAkbu</p>","","","","","","","",""
"html-keyboard-response","280","426044","0.0-13.0-0.30","614060a52d7c64c27ef9887c","64afc2c9a8732ea92db0087d","64afd4a6be2c6adcdd08d9af","null","null","<p style=""font-size: 60px; font-family: BACS"">kRCkOYDE</p>","","","","","","","",""
"html-keyboard-response","281","427045","0.0-13.0-0.31","614060a52d7c64c27ef9887c","64afc2c9a8732ea92db0087d","64afd4a6be2c6adcdd08d9af","null","null","<p style=""font-size: 60px; font-family: BACS"">hlkTBbM</p>","","","","","","","",""
"html-keyboard-response","282","428046","0.0-13.0-0.32","614060a52d7c64c27ef9887c","64afc2c9a8732ea92db0087d","64afd4a6be2c6adcdd08d9af","null","null","<p style=""font-size: 60px; font-family: BACS"">bGuOYmb</p>","","","","","","","",""
"html-keyboard-response","283","429047","0.0-13.0-0.33","614060a52d7c64c27ef9887c","64afc2c9a8732ea92db0087d","64afd4a6be2c6adcdd08d9af","null","null","<p style=""font-size: 60px; font-family: BACS"">aUZAkbu</p>","","","","","","","",""
"html-keyboard-response","284","430049","0.0-13.0-0.34","614060a52d7c64c27ef9887c","64afc2c9a8732ea92db0087d","64afd4a6be2c6adcdd08d9af","null","null","<p style=""font-size: 60px; font-family: BACS"">RKYkBbM</p>","","","","","","","",""
"html-keyboard-response","285","431051","0.0-13.0-0.35","614060a52d7c64c27ef9887c","64afc2c9a8732ea92db0087d","64afd4a6be2c6adcdd08d9af","null","null","<p style=""font-size: 60px; font-family: BACS"">uauOYmb</p>","","","","","","","",""
"html-keyboard-response","286","432052","0.0-13.0-0.36","614060a52d7c64c27ef9887c","64afc2c9a8732ea92db0087d","64afd4a6be2c6adcdd08d9af","null","null","<p style=""font-size: 60px; font-family: BACS"">UmNJYZUZ</p>","","","","","","","",""
"html-keyboard-response","287","433053","0.0-13.0-0.37","614060a52d7c64c27ef9887c","64afc2c9a8732ea92db0087d","64afd4a6be2c6adcdd08d9af","null","null","<p style=""font-size: 60px; font-family: BACS"">bGuOdUr</p>","","","","","","","",""
"html-keyboard-response","288","434055","0.0-13.0-0.38","614060a52d7c64c27ef9887c","64afc2c9a8732ea92db0087d","64afd4a6be2c6adcdd08d9af","null","null","<p style=""font-size: 60px; font-family: BACS"">KABABbM</p>","","","","","","","",""
"html-keyboard-response","289","435056","0.0-13.0-0.39","614060a52d7c64c27ef9887c","64afc2c9a8732ea92db0087d","64afd4a6be2c6adcdd08d9af","null","null","<p style=""font-size: 60px; font-family: BACS"">YKRkbdtK</p>","","","","","","","",""
"html-keyboard-response","290","436058","0.0-13.0-0.40","614060a52d7c64c27ef9887c","64afc2c9a8732ea92db0087d","64afd4a6be2c6adcdd08d9af","null","null","<p style=""font-size: 60px; font-family: BACS"">kGamNGrub</p>","","","","","","","",""
"html-keyboard-response","291","437059","0.0-13.0-0.41","614060a52d7c64c27ef9887c","64afc2c9a8732ea92db0087d","64afd4a6be2c6adcdd08d9af","null","null","<p style=""font-size: 60px; font-family: BACS"">bGuOkbu</p>","","","","","","","",""
"html-keyboard-response","292","438061","0.0-13.0-0.42","614060a52d7c64c27ef9887c","64afc2c9a8732ea92db0087d","64afd4a6be2c6adcdd08d9af","null","null","<p style=""font-size: 60px; font-family: BACS"">YKRkKOYC</p>","","","","","","","",""
"html-keyboard-response","293","439064","0.0-13.0-0.43","614060a52d7c64c27ef9887c","64afc2c9a8732ea92db0087d","64afd4a6be2c6adcdd08d9af","null","null","<p style=""font-size: 60px; font-family: BACS"">JvaAGrub</p>","","","","","","","",""
"html-keyboard-response","294","440065","0.0-13.0-0.44","614060a52d7c64c27ef9887c","64afc2c9a8732ea92db0087d","64afd4a6be2c6adcdd08d9af","null","null","<p style=""font-size: 60px; font-family: BACS"">YKRkYDE</p>","","","","","","","",""
"html-keyboard-response","295","441078","0.0-13.0-0.45","614060a52d7c64c27ef9887c","64afc2c9a8732ea92db0087d","64afd4a6be2c6adcdd08d9af","null","null","<p style=""font-size: 60px; font-family: BACS"">RKYkKOYC</p>","","","","","","","",""
"html-keyboard-response","296","442079","0.0-13.0-0.46","614060a52d7c64c27ef9887c","64afc2c9a8732ea92db0087d","64afd4a6be2c6adcdd08d9af","null","null","<p style=""font-size: 60px; font-family: BACS"">DhMtYDE</p>","","","","","","","",""
"html-keyboard-response","297","443091","0.0-13.0-0.47","614060a52d7c64c27ef9887c","64afc2c9a8732ea92db0087d","64afd4a6be2c6adcdd08d9af","null","null","<p style=""font-size: 60px; font-family: BACS"">dkLldUr</p>","","","","","","","",""
"html-keyboard-response","298","444092","0.0-13.0-0.48","614060a52d7c64c27ef9887c","64afc2c9a8732ea92db0087d","64afd4a6be2c6adcdd08d9af","null","null","<p style=""font-size: 60px; font-family: BACS"">BMEMAYDE</p>","","","","","","","",""
"html-keyboard-response","299","445094","0.0-13.0-0.49","614060a52d7c64c27ef9887c","64afc2c9a8732ea92db0087d","64afd4a6be2c6adcdd08d9af","null","null","<p style=""font-size: 60px; font-family: BACS"">dkLlYmb</p>","","","","","","","",""
"html-keyboard-response","300","446095","0.0-13.0-0.50","614060a52d7c64c27ef9887c","64afc2c9a8732ea92db0087d","64afd4a6be2c6adcdd08d9af","null","null","<p style=""font-size: 60px; font-family: BACS"">lbBDEMAB</p>","","","","","","","",""
"html-keyboard-response","301","447097","0.0-13.0-0.51","614060a52d7c64c27ef9887c","64afc2c9a8732ea92db0087d","64afd4a6be2c6adcdd08d9af","null","null","<p style=""font-size: 60px; font-family: BACS"">lhCTCBbM</p>","","","","","","","",""
"html-keyboard-response","302","448099","0.0-13.0-0.52","614060a52d7c64c27ef9887c","64afc2c9a8732ea92db0087d","64afd4a6be2c6adcdd08d9af","null","null","<p style=""font-size: 60px; font-family: BACS"">lbBDEYDE</p>","","","","","","","",""
"html-keyboard-response","303","449100","0.0-13.0-0.53","614060a52d7c64c27ef9887c","64afc2c9a8732ea92db0087d","64afd4a6be2c6adcdd08d9af","null","null","<p style=""font-size: 60px; font-family: BACS"">kGlUGrub</p>","","","","","","","",""
"html-keyboard-response","304","450102","0.0-13.0-0.54","614060a52d7c64c27ef9887c","64afc2c9a8732ea92db0087d","64afd4a6be2c6adcdd08d9af","null","null","<p style=""font-size: 60px; font-family: BACS"">lhCTCbdtK</p>","","","","","","","",""
"html-keyboard-response","305","451114","0.0-13.0-0.55","614060a52d7c64c27ef9887c","64afc2c9a8732ea92db0087d","64afd4a6be2c6adcdd08d9af","null","null","<p style=""font-size: 60px; font-family: BACS"">lbBDEBbM</p>","","","","","","","",""
"html-keyboard-response","306","452120","0.0-13.0-0.56","614060a52d7c64c27ef9887c","64afc2c9a8732ea92db0087d","64afd4a6be2c6adcdd08d9af","null","null","<p style=""font-size: 60px; font-family: BACS"">JvaAYZUZ</p>","","","","","","","",""
"html-keyboard-response","307","453122","0.0-13.0-0.57","614060a52d7c64c27ef9887c","64afc2c9a8732ea92db0087d","64afd4a6be2c6adcdd08d9af","null","null","<p style=""font-size: 60px; font-family: BACS"">GLYrAdUr</p>","","","","","","","",""
"html-keyboard-response","308","454123","0.0-13.0-0.58","614060a52d7c64c27ef9887c","64afc2c9a8732ea92db0087d","64afd4a6be2c6adcdd08d9af","null","null","<p style=""font-size: 60px; font-family: BACS"">uAkrGrub</p>","","","","","","","",""
"html-keyboard-response","309","455126","0.0-13.0-0.59","614060a52d7c64c27ef9887c","64afc2c9a8732ea92db0087d","64afd4a6be2c6adcdd08d9af","null","null","<p style=""font-size: 60px; font-family: BACS"">GLYrAkbu</p>","","","","","","","",""
"html-keyboard-response","310","456131","0.0-13.0-0.60","614060a52d7c64c27ef9887c","64afc2c9a8732ea92db0087d","64afd4a6be2c6adcdd08d9af","null","null","<p style=""font-size: 60px; font-family: BACS"">aUZAYZUZ</p>","","","","","","","",""
"html-keyboard-response","311","457139","0.0-13.0-0.61","614060a52d7c64c27ef9887c","64afc2c9a8732ea92db0087d","64afd4a6be2c6adcdd08d9af","null","null","<p style=""font-size: 60px; font-family: BACS"">UmNJkbu</p>","","","","","","","",""
"html-keyboard-response","312","458146","0.0-13.0-0.62","614060a52d7c64c27ef9887c","64afc2c9a8732ea92db0087d","64afd4a6be2c6adcdd08d9af","null","null","<p style=""font-size: 60px; font-family: BACS"">dkLlGrub</p>","","","","","","","",""
"html-keyboard-response","313","459147","0.0-13.0-0.63","614060a52d7c64c27ef9887c","64afc2c9a8732ea92db0087d","64afd4a6be2c6adcdd08d9af","null","null","<p style=""font-size: 60px; font-family: BACS"">kGlUYZUZ</p>","","","","","","","",""
"html-keyboard-response","314","460149","0.0-13.0-0.64","614060a52d7c64c27ef9887c","64afc2c9a8732ea92db0087d","64afd4a6be2c6adcdd08d9af","null","null","<p style=""font-size: 60px; font-family: BACS"">lbBDEKOYC</p>","","","","","","","",""
"html-keyboard-response","315","461151","0.0-13.0-0.65","614060a52d7c64c27ef9887c","64afc2c9a8732ea92db0087d","64afd4a6be2c6adcdd08d9af","null","null","<p style=""font-size: 60px; font-family: BACS"">dkLlYZUZ</p>","","","","","","","",""
"html-keyboard-response","316","462159","0.0-13.0-0.66","614060a52d7c64c27ef9887c","64afc2c9a8732ea92db0087d","64afd4a6be2c6adcdd08d9af","null","null","<p style=""font-size: 60px; font-family: BACS"">YKRkMAB</p>","","","","","","","",""
"html-keyboard-response","317","463160","0.0-13.0-0.67","614060a52d7c64c27ef9887c","64afc2c9a8732ea92db0087d","64afd4a6be2c6adcdd08d9af","null","null","<p style=""font-size: 60px; font-family: BACS"">hlkTbdtK</p>","","","","","","","",""
"html-keyboard-response","318","464176","0.0-13.0-0.68","614060a52d7c64c27ef9887c","64afc2c9a8732ea92db0087d","64afd4a6be2c6adcdd08d9af","null","null","<p style=""font-size: 60px; font-family: BACS"">kGamNdUr</p>","","","","","","","",""
"html-keyboard-response","319","465177","0.0-13.0-0.69","614060a52d7c64c27ef9887c","64afc2c9a8732ea92db0087d","64afd4a6be2c6adcdd08d9af","null","null","<p style=""font-size: 60px; font-family: BACS"">BMEMAbdtK</p>","","","","","","","",""
"html-keyboard-response","320","466189","0.0-13.0-0.70","614060a52d7c64c27ef9887c","64afc2c9a8732ea92db0087d","64afd4a6be2c6adcdd08d9af","null","null","<p style=""font-size: 60px; font-family: BACS"">UmNJdUr</p>","","","","","","","",""
"html-keyboard-response","321","467195","0.0-13.0-0.71","614060a52d7c64c27ef9887c","64afc2c9a8732ea92db0087d","64afd4a6be2c6adcdd08d9af","null","null","<p style=""font-size: 60px; font-family: BACS"">DhMtKOYC</p>","","","","","","","",""
"html-keyboard-response","322","468201","0.0-13.0-0.72","614060a52d7c64c27ef9887c","64afc2c9a8732ea92db0087d","64afd4a6be2c6adcdd08d9af","null","null","<p style=""font-size: 60px; font-family: BACS"">RKYkMAB</p>","","","","","","","",""
"html-keyboard-response","323","469205","0.0-13.0-0.73","614060a52d7c64c27ef9887c","64afc2c9a8732ea92db0087d","64afd4a6be2c6adcdd08d9af","null","null","<p style=""font-size: 60px; font-family: BACS"">GLYrAYZUZ</p>","","","","","","","",""
"html-keyboard-response","324","470206","0.0-13.0-0.74","614060a52d7c64c27ef9887c","64afc2c9a8732ea92db0087d","64afd4a6be2c6adcdd08d9af","null","null","<p style=""font-size: 60px; font-family: BACS"">hlkTKOYC</p>","","","","","","","",""
"html-keyboard-response","325","471207","0.0-13.0-0.75","614060a52d7c64c27ef9887c","64afc2c9a8732ea92db0087d","64afd4a6be2c6adcdd08d9af","null","null","<p style=""font-size: 60px; font-family: BACS"">KABAbdtK</p>","","","","","","","",""
"html-keyboard-response","326","472209","0.0-13.0-0.76","614060a52d7c64c27ef9887c","64afc2c9a8732ea92db0087d","64afd4a6be2c6adcdd08d9af","null","null","<p style=""font-size: 60px; font-family: BACS"">kGlUYmb</p>","","","","","","","",""
"html-keyboard-response","327","473210","0.0-13.0-0.77","614060a52d7c64c27ef9887c","64afc2c9a8732ea92db0087d","64afd4a6be2c6adcdd08d9af","null","null","<p style=""font-size: 60px; font-family: BACS"">DhMtbdtK</p>","","","","","","","",""
"html-keyboard-response","328","474212","0.0-13.0-0.78","614060a52d7c64c27ef9887c","64afc2c9a8732ea92db0087d","64afd4a6be2c6adcdd08d9af","null","null","<p style=""font-size: 60px; font-family: BACS"">hlkTMAB</p>","","","","","","","",""
"html-keyboard-response","329","475213","0.0-13.0-0.79","614060a52d7c64c27ef9887c","64afc2c9a8732ea92db0087d","64afd4a6be2c6adcdd08d9af","null","null","<p style=""font-size: 60px; font-family: BACS"">RKYkYDE</p>","","","","","","","",""
"html-keyboard-response","330","513170","0.0-14.0","614060a52d7c64c27ef9887c","64afc2c9a8732ea92db0087d","64afd4a6be2c6adcdd08d9af","37956"," ","<p>Ottimo! Hai visto tutte le parole che abbiamo ricevuto dallo spazio.</p>
      <p>Premi la barra quando sei pronta/o per continuare.</p>","","","","","","","",""
"html-keyboard-response","331","541185","0.0-15.0","614060a52d7c64c27ef9887c","64afc2c9a8732ea92db0087d","64afd4a6be2c6adcdd08d9af","28015"," ","<p>In questa seconda parte, vedrai delle nuove parole che abbiamo ricevuto dallo stesso gruppo di alieni, e altre che invece provengono da un'altra comunicazione, con un altro gruppo di alieni. Purtroppo le due comunicazioni non arrivano a noi separatamente, per cui le parole sono mescolate tra loro. Il tuo compito sarà quello di individuare le parole che provengono dal gruppo che hai studiato nella prima parte dell'esperimento.</p>
      <p>Questo compito non è per nulla facile; le due comunicazioni infatti usano gli stessi caratteri. Il tuo meeting con i leader mondiali inizia tra poco, per cui non avrai molto tempo per prendere la tua decisione; dovrai essere veloce. Cerca di fare del tuo meglio usando la tua intuizione; non hai tempo di stare a pensare a lungo su ogni singola parola.</p>
      <p>Premi <strong>k</strong> quando pensi che la parola che stai vedendo sia degli stessi alieni che hai studiato prima, e <strong>d</strong> quando invece pensi che la parola che stai vedendo venga dall'altra comunicazione, con il nuovo gruppo di alieni.</p><p>Premi la barra quando sei pronta/o per iniziare.</p>","","","","","","","",""
"html-keyboard-response","332","544073","0.0-16.0-0.0","614060a52d7c64c27ef9887c","64afc2c9a8732ea92db0087d","64afd4a6be2c6adcdd08d9af","2887","d","<p style=""font-size: 30px;"">La parola viene del gruppo di alieni che hai studiato prima?</p><br><p style=""font-size: 60px; font-family: BACS"">UmNJYmb<p style=""font-size: 15px"">Premi <strong>k</strong> per sì, <strong>d</strong> per no.</p>","","UmNJYmb","testing","k","false","","",""
"html-keyboard-response","333","548483","0.0-16.0-1.0-0.0","614060a52d7c64c27ef9887c","64afc2c9a8732ea92db0087d","64afd4a6be2c6adcdd08d9af","4407"," ","<p style=""font-size: 30px; color: red"">Attenzione! Sei stato troppo lento con questa parola.</p>
      <p style=""font-size: 30px; color: red"">Cerca di essere più veloce.</p><p></p><p>Premi la barra per continuare.</p>","","","","","","","",""
"html-keyboard-response","334","549734","0.0-16.0-0.1","614060a52d7c64c27ef9887c","64afc2c9a8732ea92db0087d","64afd4a6be2c6adcdd08d9af","1250","k","<p style=""font-size: 30px;"">La parola viene del gruppo di alieni che hai studiato prima?</p><br><p style=""font-size: 60px; font-family: BACS"">kGlUdUr<p style=""font-size: 15px"">Premi <strong>k</strong> per sì, <strong>d</strong> per no.</p>","","kGlUdUr","testing","k","true","","",""
"html-keyboard-response","335","550883","0.0-16.0-0.2","614060a52d7c64c27ef9887c","64afc2c9a8732ea92db0087d","64afd4a6be2c6adcdd08d9af","1148","k","<p style=""font-size: 30px;"">La parola viene del gruppo di alieni che hai studiato prima?</p><br><p style=""font-size: 60px; font-family: BACS"">DhMtMAB<p style=""font-size: 15px"">Premi <strong>k</strong> per sì, <strong>d</strong> per no.</p>","","DhMtMAB","testing","k","true","","",""
"html-keyboard-response","336","552297","0.0-16.0-0.3","614060a52d7c64c27ef9887c","64afc2c9a8732ea92db0087d","64afd4a6be2c6adcdd08d9af","1413","k","<p style=""font-size: 30px"">&emsp;</p><br><p style=""font-size: 60px; font-family: BACS"">GLYrAbdtK<p style=""font-size: 15px"">Premi <strong>k</strong> per sì, <strong>d</strong> per no.</p>","","GLYrAbdtK","testing","d","false","","",""
"html-keyboard-response","337","553893","0.0-16.0-0.4","614060a52d7c64c27ef9887c","64afc2c9a8732ea92db0087d","64afd4a6be2c6adcdd08d9af","1596","d","<p style=""font-size: 30px"">&emsp;</p><br><p style=""font-size: 60px; font-family: BACS"">UmNJMAB<p style=""font-size: 15px"">Premi <strong>k</strong> per sì, <strong>d</strong> per no.</p>","","UmNJMAB","testing","d","true","","",""
"html-keyboard-response","338","555545","0.0-16.0-0.5","614060a52d7c64c27ef9887c","64afc2c9a8732ea92db0087d","64afd4a6be2c6adcdd08d9af","1651","d","<p style=""font-size: 30px"">&emsp;</p><br><p style=""font-size: 60px; font-family: BACS"">YKRkBbM<p style=""font-size: 15px"">Premi <strong>k</strong> per sì, <strong>d</strong> per no.</p>","","YKRkBbM","testing","k","false","","",""
"html-keyboard-response","339","556871","0.0-16.0-0.6","614060a52d7c64c27ef9887c","64afc2c9a8732ea92db0087d","64afd4a6be2c6adcdd08d9af","1325","k","<p style=""font-size: 30px"">&emsp;</p><br><p style=""font-size: 60px; font-family: BACS"">uauOYDE<p style=""font-size: 15px"">Premi <strong>k</strong> per sì, <strong>d</strong> per no.</p>","","uauOYDE","testing","d","false","","",""
"html-keyboard-response","340","558088","0.0-16.0-0.7","614060a52d7c64c27ef9887c","64afc2c9a8732ea92db0087d","64afd4a6be2c6adcdd08d9af","1216","d","<p style=""font-size: 30px"">&emsp;</p><br><p style=""font-size: 60px; font-family: BACS"">kGamNkbu<p style=""font-size: 15px"">Premi <strong>k</strong> per sì, <strong>d</strong> per no.</p>","","kGamNkbu","testing","k","false","","",""
"html-keyboard-response","341","559529","0.0-16.0-0.8","614060a52d7c64c27ef9887c","64afc2c9a8732ea92db0087d","64afd4a6be2c6adcdd08d9af","1441","k","<p style=""font-size: 30px"">&emsp;</p><br><p style=""font-size: 60px; font-family: BACS"">uauOYZUZ<p style=""font-size: 15px"">Premi <strong>k</strong> per sì, <strong>d</strong> per no.</p>","","uauOYZUZ","testing","k","true","","",""
"html-keyboard-response","342","560535","0.0-16.0-0.9","614060a52d7c64c27ef9887c","64afc2c9a8732ea92db0087d","64afd4a6be2c6adcdd08d9af","1005","k","<p style=""font-size: 30px"">&emsp;</p><br><p style=""font-size: 60px; font-family: BACS"">bGuOYDE<p style=""font-size: 15px"">Premi <strong>k</strong> per sì, <strong>d</strong> per no.</p>","","bGuOYDE","testing","d","false","","",""
"html-keyboard-response","343","562445","0.0-16.0-0.10","614060a52d7c64c27ef9887c","64afc2c9a8732ea92db0087d","64afd4a6be2c6adcdd08d9af","1909","d","<p style=""font-size: 30px"">&emsp;</p><br><p style=""font-size: 60px; font-family: BACS"">kGlUKOYC<p style=""font-size: 15px"">Premi <strong>k</strong> per sì, <strong>d</strong> per no.</p>","","kGlUKOYC","testing","d","true","","",""
"html-keyboard-response","344","563456","0.0-16.0-0.11","614060a52d7c64c27ef9887c","64afc2c9a8732ea92db0087d","64afd4a6be2c6adcdd08d9af","1010","k","<p style=""font-size: 30px"">&emsp;</p><br><p style=""font-size: 60px; font-family: BACS"">DcPTcYDE<p style=""font-size: 15px"">Premi <strong>k</strong> per sì, <strong>d</strong> per no.</p>","","DcPTcYDE","testing","k","true","","",""
"html-keyboard-response","345","564860","0.0-16.0-0.12","614060a52d7c64c27ef9887c","64afc2c9a8732ea92db0087d","64afd4a6be2c6adcdd08d9af","1403","k","<p style=""font-size: 30px"">&emsp;</p><br><p style=""font-size: 60px; font-family: BACS"">lhCTCdUr<p style=""font-size: 15px"">Premi <strong>k</strong> per sì, <strong>d</strong> per no.</p>","","lhCTCdUr","testing","d","false","","",""
"html-keyboard-response","346","566061","0.0-16.0-0.13","614060a52d7c64c27ef9887c","64afc2c9a8732ea92db0087d","64afd4a6be2c6adcdd08d9af","1201","k","<p style=""font-size: 30px"">&emsp;</p><br><p style=""font-size: 60px; font-family: BACS"">RKYkbdtK<p style=""font-size: 15px"">Premi <strong>k</strong> per sì, <strong>d</strong> per no.</p>","","RKYkbdtK","testing","k","true","","",""
"html-keyboard-response","347","566909","0.0-16.0-0.14","614060a52d7c64c27ef9887c","64afc2c9a8732ea92db0087d","64afd4a6be2c6adcdd08d9af","847","k","<p style=""font-size: 30px"">&emsp;</p><br><p style=""font-size: 60px; font-family: BACS"">JvaAKOYC<p style=""font-size: 15px"">Premi <strong>k</strong> per sì, <strong>d</strong> per no.</p>","","JvaAKOYC","testing","d","false","","",""
"html-keyboard-response","348","568398","0.0-16.0-0.15","614060a52d7c64c27ef9887c","64afc2c9a8732ea92db0087d","64afd4a6be2c6adcdd08d9af","1488","d","<p style=""font-size: 30px"">&emsp;</p><br><p style=""font-size: 60px; font-family: BACS"">aUZAGrub<p style=""font-size: 15px"">Premi <strong>k</strong> per sì, <strong>d</strong> per no.</p>","","aUZAGrub","testing","k","false","","",""
"html-keyboard-response","349","569646","0.0-16.0-0.16","614060a52d7c64c27ef9887c","64afc2c9a8732ea92db0087d","64afd4a6be2c6adcdd08d9af","1247","k","<p style=""font-size: 30px"">&emsp;</p><br><p style=""font-size: 60px; font-family: BACS"">lhCTCKOYC<p style=""font-size: 15px"">Premi <strong>k</strong> per sì, <strong>d</strong> per no.</p>","","lhCTCKOYC","testing","k","true","","",""
"html-keyboard-response","350","571573","0.0-16.0-0.17","614060a52d7c64c27ef9887c","64afc2c9a8732ea92db0087d","64afd4a6be2c6adcdd08d9af","1927","k","<p style=""font-size: 30px"">&emsp;</p><br><p style=""font-size: 60px; font-family: BACS"">RKYkGrub<p style=""font-size: 15px"">Premi <strong>k</strong> per sì, <strong>d</strong> per no.</p>","","RKYkGrub","testing","d","false","","",""
"html-keyboard-response","351","572378","0.0-16.0-0.18","614060a52d7c64c27ef9887c","64afc2c9a8732ea92db0087d","64afd4a6be2c6adcdd08d9af","804","d","<p style=""font-size: 30px"">&emsp;</p><br><p style=""font-size: 60px; font-family: BACS"">uAkrMAB<p style=""font-size: 15px"">Premi <strong>k</strong> per sì, <strong>d</strong> per no.</p>","","uAkrMAB","testing","d","true","","",""
"html-keyboard-response","352","573788","0.0-16.0-0.19","614060a52d7c64c27ef9887c","64afc2c9a8732ea92db0087d","64afd4a6be2c6adcdd08d9af","1410","d","<p style=""font-size: 30px"">&emsp;</p><br><p style=""font-size: 60px; font-family: BACS"">KABAdUr<p style=""font-size: 15px"">Premi <strong>k</strong> per sì, <strong>d</strong> per no.</p>","","KABAdUr","testing","d","true","","",""
"html-keyboard-response","353","575324","0.0-16.0-0.20","614060a52d7c64c27ef9887c","64afc2c9a8732ea92db0087d","64afd4a6be2c6adcdd08d9af","1536","d","<p style=""font-size: 30px"">&emsp;</p><br><p style=""font-size: 60px; font-family: BACS"">BMEMAYmb<p style=""font-size: 15px"">Premi <strong>k</strong> per sì, <strong>d</strong> per no.</p>","","BMEMAYmb","testing","d","true","","",""
"html-keyboard-response","354","576993","0.0-16.0-0.21","614060a52d7c64c27ef9887c","64afc2c9a8732ea92db0087d","64afd4a6be2c6adcdd08d9af","1668","d","<p style=""font-size: 30px"">&emsp;</p><br><p style=""font-size: 60px; font-family: BACS"">dkLlkbu<p style=""font-size: 15px"">Premi <strong>k</strong> per sì, <strong>d</strong> per no.</p>","","dkLlkbu","testing","k","false","","",""
"html-keyboard-response","355","579064","0.0-16.0-0.22","614060a52d7c64c27ef9887c","64afc2c9a8732ea92db0087d","64afd4a6be2c6adcdd08d9af","2070","k","<p style=""font-size: 30px"">&emsp;</p><br><p style=""font-size: 60px; font-family: BACS"">hlkTYDE<p style=""font-size: 15px"">Premi <strong>k</strong> per sì, <strong>d</strong> per no.</p>","","hlkTYDE","testing","k","true","","",""
"html-keyboard-response","356","581293","0.0-16.0-1.22-0.22","614060a52d7c64c27ef9887c","64afc2c9a8732ea92db0087d","64afd4a6be2c6adcdd08d9af","2229"," ","<p style=""font-size: 30px; color: red"">Attenzione! Sei stato troppo lento con questa parola.</p>
      <p style=""font-size: 30px; color: red"">Cerca di essere più veloce.</p><p></p><p>Premi la barra per continuare.</p>","","","","","","","",""
"html-keyboard-response","357","582438","0.0-16.0-0.23","614060a52d7c64c27ef9887c","64afc2c9a8732ea92db0087d","64afd4a6be2c6adcdd08d9af","1144","k","<p style=""font-size: 30px"">&emsp;</p><br><p style=""font-size: 60px; font-family: BACS"">kRCkOBbM<p style=""font-size: 15px"">Premi <strong>k</strong> per sì, <strong>d</strong> per no.</p>","","kRCkOBbM","testing","k","true","","",""
"html-keyboard-response","358","583281","0.0-16.0-0.24","614060a52d7c64c27ef9887c","64afc2c9a8732ea92db0087d","64afd4a6be2c6adcdd08d9af","843","k","<p style=""font-size: 30px"">&emsp;</p><br><p style=""font-size: 60px; font-family: BACS"">lbBDEbdtK<p style=""font-size: 15px"">Premi <strong>k</strong> per sì, <strong>d</strong> per no.</p>","","lbBDEbdtK","testing","k","true","","",""
"html-keyboard-response","359","584163","0.0-16.0-0.25","614060a52d7c64c27ef9887c","64afc2c9a8732ea92db0087d","64afd4a6be2c6adcdd08d9af","881","d","<p style=""font-size: 30px"">&emsp;</p><br><p style=""font-size: 60px; font-family: BACS"">kRCkOkbu<p style=""font-size: 15px"">Premi <strong>k</strong> per sì, <strong>d</strong> per no.</p>","","kRCkOkbu","testing","d","true","","",""
"html-keyboard-response","360","585347","0.0-16.0-0.26","614060a52d7c64c27ef9887c","64afc2c9a8732ea92db0087d","64afd4a6be2c6adcdd08d9af","1183","k","<p style=""font-size: 30px"">&emsp;</p><br><p style=""font-size: 60px; font-family: BACS"">lbBDEGrub<p style=""font-size: 15px"">Premi <strong>k</strong> per sì, <strong>d</strong> per no.</p>","","lbBDEGrub","testing","d","false","","",""
"html-keyboard-response","361","586564","0.0-16.0-0.27","614060a52d7c64c27ef9887c","64afc2c9a8732ea92db0087d","64afd4a6be2c6adcdd08d9af","1216","d","<p style=""font-size: 30px"">&emsp;</p><br><p style=""font-size: 60px; font-family: BACS"">JvaAdUr<p style=""font-size: 15px"">Premi <strong>k</strong> per sì, <strong>d</strong> per no.</p>","","JvaAdUr","testing","k","false","","",""
"html-keyboard-response","362","587454","0.0-16.0-0.28","614060a52d7c64c27ef9887c","64afc2c9a8732ea92db0087d","64afd4a6be2c6adcdd08d9af","890","d","<p style=""font-size: 30px"">&emsp;</p><br><p style=""font-size: 60px; font-family: BACS"">bGuOYZUZ<p style=""font-size: 15px"">Premi <strong>k</strong> per sì, <strong>d</strong> per no.</p>","","bGuOYZUZ","testing","k","false","","",""
"html-keyboard-response","363","588671","0.0-16.0-0.29","614060a52d7c64c27ef9887c","64afc2c9a8732ea92db0087d","64afd4a6be2c6adcdd08d9af","1216","d","<p style=""font-size: 30px"">&emsp;</p><br><p style=""font-size: 60px; font-family: BACS"">YKRkkbu<p style=""font-size: 15px"">Premi <strong>k</strong> per sì, <strong>d</strong> per no.</p>","","YKRkkbu","testing","d","true","","",""
"html-keyboard-response","364","589517","0.0-16.0-0.30","614060a52d7c64c27ef9887c","64afc2c9a8732ea92db0087d","64afd4a6be2c6adcdd08d9af","845","k","<p style=""font-size: 30px"">&emsp;</p><br><p style=""font-size: 60px; font-family: BACS"">KABAKOYC<p style=""font-size: 15px"">Premi <strong>k</strong> per sì, <strong>d</strong> per no.</p>","","KABAKOYC","testing","k","true","","",""
"html-keyboard-response","365","590829","0.0-16.0-0.31","614060a52d7c64c27ef9887c","64afc2c9a8732ea92db0087d","64afd4a6be2c6adcdd08d9af","1312","d","<p style=""font-size: 30px"">&emsp;</p><br><p style=""font-size: 60px; font-family: BACS"">GLYrAGrub<p style=""font-size: 15px"">Premi <strong>k</strong> per sì, <strong>d</strong> per no.</p>","","GLYrAGrub","testing","k","false","","",""
"html-keyboard-response","366","591495","0.0-16.0-0.32","614060a52d7c64c27ef9887c","64afc2c9a8732ea92db0087d","64afd4a6be2c6adcdd08d9af","665","k","<p style=""font-size: 30px"">&emsp;</p><br><p style=""font-size: 60px; font-family: BACS"">DcPTcYZUZ<p style=""font-size: 15px"">Premi <strong>k</strong> per sì, <strong>d</strong> per no.</p>","","DcPTcYZUZ","testing","d","false","","",""
"html-keyboard-response","367","592232","0.0-16.0-0.33","614060a52d7c64c27ef9887c","64afc2c9a8732ea92db0087d","64afd4a6be2c6adcdd08d9af","736","k","<p style=""font-size: 30px"">&emsp;</p><br><p style=""font-size: 60px; font-family: BACS"">BMEMAMAB<p style=""font-size: 15px"">Premi <strong>k</strong> per sì, <strong>d</strong> per no.</p>","","BMEMAMAB","testing","k","true","","",""
"html-keyboard-response","368","593578","0.0-16.0-0.34","614060a52d7c64c27ef9887c","64afc2c9a8732ea92db0087d","64afd4a6be2c6adcdd08d9af","1346","k","<p style=""font-size: 30px"">&emsp;</p><br><p style=""font-size: 60px; font-family: BACS"">kGamNBbM<p style=""font-size: 15px"">Premi <strong>k</strong> per sì, <strong>d</strong> per no.</p>","","kGamNBbM","testing","d","false","","",""
"html-keyboard-response","369","594656","0.0-16.0-0.35","614060a52d7c64c27ef9887c","64afc2c9a8732ea92db0087d","64afd4a6be2c6adcdd08d9af","1077","k","<p style=""font-size: 30px"">&emsp;</p><br><p style=""font-size: 60px; font-family: BACS"">hlkTYZUZ<p style=""font-size: 15px"">Premi <strong>k</strong> per sì, <strong>d</strong> per no.</p>","","hlkTYZUZ","testing","d","false","","",""
"html-keyboard-response","370","596365","0.0-16.0-0.36","614060a52d7c64c27ef9887c","64afc2c9a8732ea92db0087d","64afd4a6be2c6adcdd08d9af","1708","d","<p style=""font-size: 30px"">&emsp;</p><br><p style=""font-size: 60px; font-family: BACS"">uAkrYmb<p style=""font-size: 15px"">Premi <strong>k</strong> per sì, <strong>d</strong> per no.</p>","","uAkrYmb","testing","k","false","","",""
"html-keyboard-response","371","597535","0.0-16.0-0.37","614060a52d7c64c27ef9887c","64afc2c9a8732ea92db0087d","64afd4a6be2c6adcdd08d9af","1170","k","<p style=""font-size: 30px"">&emsp;</p><br><p style=""font-size: 60px; font-family: BACS"">aUZAbdtK<p style=""font-size: 15px"">Premi <strong>k</strong> per sì, <strong>d</strong> per no.</p>","","aUZAbdtK","testing","d","false","","",""
"html-keyboard-response","372","598395","0.0-16.0-0.38","614060a52d7c64c27ef9887c","64afc2c9a8732ea92db0087d","64afd4a6be2c6adcdd08d9af","860","k","<p style=""font-size: 30px"">&emsp;</p><br><p style=""font-size: 60px; font-family: BACS"">DhMtYmb<p style=""font-size: 15px"">Premi <strong>k</strong> per sì, <strong>d</strong> per no.</p>","","DhMtYmb","testing","d","false","","",""
