"trial_type","trial_index","time_elapsed","internal_node_id","subject_id","study_id","session_id","rt","response","stimulus","success","item","task","correct_response","testing_condition","correct","target","confound","name"
"pavlovia","0","767","0.0-0.0","5f350f459bf003464a03ea5e","650c16f0f2faf8d7a0d14c09","651c1c43a64ded2eaf7db52a","","","","","","","","","","","",""
"survey-html-form","1","34380","0.0-1.0","5f350f459bf003464a03ea5e","650c16f0f2faf8d7a0d14c09","651c1c43a64ded2eaf7db52a","33612","{""ID"":""5f350f459bf003464a03ea5e""}","","","","","","","","","",""
"html-keyboard-response","2","50650","0.0-2.0","5f350f459bf003464a03ea5e","650c16f0f2faf8d7a0d14c09","651c1c43a64ded2eaf7db52a","16269"," ","<p style=""font-size: 15px;"">Before beginning, we ask that you read the consent information and confirm your agreement to participate in the experiment.</p>
      <p style=""font-size: 15px;""> We ask that you remember that this is a research project and that your participation is entirely voluntary. You can stop your participation at any time, without needing to provide any explanation. The study we're asking you to participate in aims at examining how readers process written words. You will be engaged in a session of apprximately 20 minutes, followed by a brief questionnaire. You will have the opportunity to take a few breaks during the experiment. You will be paid £4 for your participation, corresponding to a rate of £8/hour. While this experiment looks at cognitive faculties, this experiment doesn't constitute clinical proof of eventual pathologies.</p>
      <p style=""font-size: 15px;"">All of the information collected thanks to yours and others' participation will be held in a secure password-protected server, and will not be shared with anyone not authorised to view it. Your personal information will be kept with an arbitrary participant ID. Thanks to this data anonymity process, any researcher analysing the data won't be able to track the information back to a specific participant. Therefore, this process will make identifying you impossibile, even when results from the study will be published in scientific reviews, presented at congresses, or at any other public forum. More generally, the collected data will be treated in accordance with the laws on privacy and conformity to the Legislative Degree n. 196 ""Code regarding the protection of personal data"" of the 30th of June 2003 and to the European Regulation 2016/670 (General Data Protection Regulation - GDPR). The Data Protection Officer is Avv. Valentina Carollo, who can be contacted at the following email addresses: <a href=""mailto:dpo@sissa.it"">dpo@sissa.it</a> or <a href=""mailto:rpd@sissa.it"">rpd@sissa.it</a> - PEC: <a href=""mailto:protocollo@pec.sissa.it"">protocollo@pec.sissa.it</a>.</p>
      <p style=""font-size: 15px;""> Before expressing your consent to participate, we would like to remind you again that in case you need explanations on any aspect of the experimental procedure, the researcher is at your disposition (<a href=""mailto:aliebelt@sissa.it"">aliebelt@sissa.it</a>, <a href=""mailto:davide.crepaldi@sissa.it"">davide.crepaldi@sissa.it</a>).</p>
      <p style=""font-size: 15px;"">If you would like to download the informed consent form, you can do so here: <a href=""BASL-Informed_Consent.pdf"" download>informed consent form</a>.</p>
      <p style=""font-size: 15px;"">We ask that you press the spacebar to proceed to the consent section.</p>","","","","","","","","",""
"survey-html-form","3","56659","0.0-3.0","5f350f459bf003464a03ea5e","650c16f0f2faf8d7a0d14c09","651c1c43a64ded2eaf7db52a","6007","{""consent1"":""YES"",""consent2"":""YES"",""consent3"":""YES"",""consent4"":""YES"",""consent5"":""YES"",""consent6"":""YES""}","","","","","","","","","",""
"fullscreen","4","74360","0.0-4.0","5f350f459bf003464a03ea5e","650c16f0f2faf8d7a0d14c09","651c1c43a64ded2eaf7db52a","","","","true","","","","","","","",""
"html-keyboard-response","5","90725","0.0-5.0","5f350f459bf003464a03ea5e","650c16f0f2faf8d7a0d14c09","651c1c43a64ded2eaf7db52a","16362"," ","<p>Welcome, and thank you very much for your time!</p>
      <p>In this experiment, you'll be a language expert who's been asked to take a look at words that Earth has received in its first communication with aliens. Your task, in this first part of the experiment, is to pay close attention to the words you'll be shown; later, world leaders will ask you questions on what you saw. The words will be shown to you quite quickly; it seems that the aliens were in a hurry :-)</p>
      <p>Press the spacebar to continue.<p>","","","","","","","","",""
"html-keyboard-response","6","90776","0.0-6.0","5f350f459bf003464a03ea5e","650c16f0f2faf8d7a0d14c09","651c1c43a64ded2eaf7db52a","null","null","<p style=""font-size: 120px; font-family: BACS""> </p>","","","","","","","","",""
"html-keyboard-response","7","94987","0.0-7.0","5f350f459bf003464a03ea5e","650c16f0f2faf8d7a0d14c09","651c1c43a64ded2eaf7db52a","4210"," ","<p>Here is an example of the words you'll see:</p>
      <img src='esempio.png' height='400px'>
      <p>When you're ready to begin, press the spacebar.</p></div>","","","","","","","","",""
"html-keyboard-response","8","95989","0.0-8.0-0.0","5f350f459bf003464a03ea5e","650c16f0f2faf8d7a0d14c09","651c1c43a64ded2eaf7db52a","null","null","<p style=""font-size: 60px; font-family: BACS"">rkYLlLG</p>","","","","","","","","",""
"html-keyboard-response","9","97001","0.0-8.0-0.1","5f350f459bf003464a03ea5e","650c16f0f2faf8d7a0d14c09","651c1c43a64ded2eaf7db52a","null","null","<p style=""font-size: 60px; font-family: BACS"">bcbMhBK</p>","","","","","","","","",""
"html-keyboard-response","10","98005","0.0-8.0-0.2","5f350f459bf003464a03ea5e","650c16f0f2faf8d7a0d14c09","651c1c43a64ded2eaf7db52a","null","null","<p style=""font-size: 60px; font-family: BACS"">dRbDbOMC</p>","","","","","","","","",""
"html-keyboard-response","11","99016","0.0-8.0-0.3","5f350f459bf003464a03ea5e","650c16f0f2faf8d7a0d14c09","651c1c43a64ded2eaf7db52a","null","null","<p style=""font-size: 60px; font-family: BACS"">cDOEBPTl</p>","","","","","","","","",""
"html-keyboard-response","12","100029","0.0-8.0-0.4","5f350f459bf003464a03ea5e","650c16f0f2faf8d7a0d14c09","651c1c43a64ded2eaf7db52a","null","null","<p style=""font-size: 60px; font-family: BACS"">kdaAJcUN</p>","","","","","","","","",""
"html-keyboard-response","13","101034","0.0-8.0-0.5","5f350f459bf003464a03ea5e","650c16f0f2faf8d7a0d14c09","651c1c43a64ded2eaf7db52a","null","null","<p style=""font-size: 60px; font-family: BACS"">UaZmarGl</p>","","","","","","","","",""
"html-keyboard-response","14","102041","0.0-8.0-0.6","5f350f459bf003464a03ea5e","650c16f0f2faf8d7a0d14c09","651c1c43a64ded2eaf7db52a","null","null","<p style=""font-size: 60px; font-family: BACS"">dRbDbcDR</p>","","","","","","","","",""
"html-keyboard-response","15","103046","0.0-8.0-0.7","5f350f459bf003464a03ea5e","650c16f0f2faf8d7a0d14c09","651c1c43a64ded2eaf7db52a","null","null","<p style=""font-size: 60px; font-family: BACS"">MBKREOMC</p>","","","","","","","","",""
"html-keyboard-response","16","104056","0.0-8.0-0.8","5f350f459bf003464a03ea5e","650c16f0f2faf8d7a0d14c09","651c1c43a64ded2eaf7db52a","null","null","<p style=""font-size: 60px; font-family: BACS"">advYOQvlZ</p>","","","","","","","","",""
"html-keyboard-response","17","105065","0.0-8.0-0.9","5f350f459bf003464a03ea5e","650c16f0f2faf8d7a0d14c09","651c1c43a64ded2eaf7db52a","null","null","<p style=""font-size: 60px; font-family: BACS"">OAmAdhBK</p>","","","","","","","","",""
"html-keyboard-response","18","106075","0.0-8.0-0.10","5f350f459bf003464a03ea5e","650c16f0f2faf8d7a0d14c09","651c1c43a64ded2eaf7db52a","null","null","<p style=""font-size: 60px; font-family: BACS"">BECkTbk</p>","","","","","","","","",""
"html-keyboard-response","19","107086","0.0-8.0-0.11","5f350f459bf003464a03ea5e","650c16f0f2faf8d7a0d14c09","651c1c43a64ded2eaf7db52a","null","null","<p style=""font-size: 60px; font-family: BACS"">vYLUQvlZ</p>","","","","","","","","",""
"html-keyboard-response","20","108098","0.0-8.0-0.12","5f350f459bf003464a03ea5e","650c16f0f2faf8d7a0d14c09","651c1c43a64ded2eaf7db52a","null","null","<p style=""font-size: 60px; font-family: BACS"">ODBDAcDR</p>","","","","","","","","",""
"html-keyboard-response","21","109108","0.0-8.0-0.13","5f350f459bf003464a03ea5e","650c16f0f2faf8d7a0d14c09","651c1c43a64ded2eaf7db52a","null","null","<p style=""font-size: 60px; font-family: BACS"">kdaAJQvlZ</p>","","","","","","","","",""
"html-keyboard-response","22","110115","0.0-8.0-0.14","5f350f459bf003464a03ea5e","650c16f0f2faf8d7a0d14c09","651c1c43a64ded2eaf7db52a","null","null","<p style=""font-size: 60px; font-family: BACS"">DRPkYTbk</p>","","","","","","","","",""
"html-keyboard-response","23","111122","0.0-8.0-0.15","5f350f459bf003464a03ea5e","650c16f0f2faf8d7a0d14c09","651c1c43a64ded2eaf7db52a","null","null","<p style=""font-size: 60px; font-family: BACS"">UaZmacUN</p>","","","","","","","","",""
"html-keyboard-response","24","112127","0.0-8.0-0.16","5f350f459bf003464a03ea5e","650c16f0f2faf8d7a0d14c09","651c1c43a64ded2eaf7db52a","null","null","<p style=""font-size: 60px; font-family: BACS"">CDEmYcDR</p>","","","","","","","","",""
"html-keyboard-response","25","113138","0.0-8.0-0.17","5f350f459bf003464a03ea5e","650c16f0f2faf8d7a0d14c09","651c1c43a64ded2eaf7db52a","null","null","<p style=""font-size: 60px; font-family: BACS"">bvuZGrbk</p>","","","","","","","","",""
"html-keyboard-response","26","114151","0.0-8.0-0.18","5f350f459bf003464a03ea5e","650c16f0f2faf8d7a0d14c09","651c1c43a64ded2eaf7db52a","null","null","<p style=""font-size: 60px; font-family: BACS"">rkYLcUN</p>","","","","","","","","",""
"html-keyboard-response","27","115162","0.0-8.0-0.19","5f350f459bf003464a03ea5e","650c16f0f2faf8d7a0d14c09","651c1c43a64ded2eaf7db52a","null","null","<p style=""font-size: 60px; font-family: BACS"">vclYlLG</p>","","","","","","","","",""
"html-keyboard-response","28","116172","0.0-8.0-0.20","5f350f459bf003464a03ea5e","650c16f0f2faf8d7a0d14c09","651c1c43a64ded2eaf7db52a","null","null","<p style=""font-size: 60px; font-family: BACS"">CDEmYTbk</p>","","","","","","","","",""
"html-keyboard-response","29","117177","0.0-8.0-0.21","5f350f459bf003464a03ea5e","650c16f0f2faf8d7a0d14c09","651c1c43a64ded2eaf7db52a","null","null","<p style=""font-size: 60px; font-family: BACS"">TbKMEhBK</p>","","","","","","","","",""
"html-keyboard-response","30","118192","0.0-8.0-0.22","5f350f459bf003464a03ea5e","650c16f0f2faf8d7a0d14c09","651c1c43a64ded2eaf7db52a","null","null","<p style=""font-size: 60px; font-family: BACS"">cDOEBOMC</p>","","","","","","","","",""
"html-keyboard-response","31","119200","0.0-8.0-0.23","5f350f459bf003464a03ea5e","650c16f0f2faf8d7a0d14c09","651c1c43a64ded2eaf7db52a","null","null","<p style=""font-size: 60px; font-family: BACS"">kdaAJlLG</p>","","","","","","","","",""
"html-keyboard-response","32","120209","0.0-8.0-0.24","5f350f459bf003464a03ea5e","650c16f0f2faf8d7a0d14c09","651c1c43a64ded2eaf7db52a","null","null","<p style=""font-size: 60px; font-family: BACS"">TbKMEPTl</p>","","","","","","","","",""
"html-keyboard-response","33","121216","0.0-8.0-0.25","5f350f459bf003464a03ea5e","650c16f0f2faf8d7a0d14c09","651c1c43a64ded2eaf7db52a","null","null","<p style=""font-size: 60px; font-family: BACS"">DRPkYOMC</p>","","","","","","","","",""
"html-keyboard-response","34","122226","0.0-8.0-0.26","5f350f459bf003464a03ea5e","650c16f0f2faf8d7a0d14c09","651c1c43a64ded2eaf7db52a","null","null","<p style=""font-size: 60px; font-family: BACS"">lYruarGl</p>","","","","","","","","",""
"html-keyboard-response","35","123233","0.0-8.0-0.27","5f350f459bf003464a03ea5e","650c16f0f2faf8d7a0d14c09","651c1c43a64ded2eaf7db52a","null","null","<p style=""font-size: 60px; font-family: BACS"">cDOEBcDR</p>","","","","","","","","",""
"html-keyboard-response","36","124248","0.0-8.0-0.28","5f350f459bf003464a03ea5e","650c16f0f2faf8d7a0d14c09","651c1c43a64ded2eaf7db52a","null","null","<p style=""font-size: 60px; font-family: BACS"">advYOrGl</p>","","","","","","","","",""
"html-keyboard-response","37","125259","0.0-8.0-0.29","5f350f459bf003464a03ea5e","650c16f0f2faf8d7a0d14c09","651c1c43a64ded2eaf7db52a","null","null","<p style=""font-size: 60px; font-family: BACS"">MBKRETbk</p>","","","","","","","","",""
"html-keyboard-response","38","126266","0.0-8.0-0.30","5f350f459bf003464a03ea5e","650c16f0f2faf8d7a0d14c09","651c1c43a64ded2eaf7db52a","null","null","<p style=""font-size: 60px; font-family: BACS"">CDEmYhBK</p>","","","","","","","","",""
"html-keyboard-response","39","127275","0.0-8.0-0.31","5f350f459bf003464a03ea5e","650c16f0f2faf8d7a0d14c09","651c1c43a64ded2eaf7db52a","null","null","<p style=""font-size: 60px; font-family: BACS"">bvuZQvlZ</p>","","","","","","","","",""
"html-keyboard-response","40","128288","0.0-8.0-0.32","5f350f459bf003464a03ea5e","650c16f0f2faf8d7a0d14c09","651c1c43a64ded2eaf7db52a","null","null","<p style=""font-size: 60px; font-family: BACS"">OAmAdTbk</p>","","","","","","","","",""
"html-keyboard-response","41","129299","0.0-8.0-0.33","5f350f459bf003464a03ea5e","650c16f0f2faf8d7a0d14c09","651c1c43a64ded2eaf7db52a","null","null","<p style=""font-size: 60px; font-family: BACS"">vYLUlLG</p>","","","","","","","","",""
"html-keyboard-response","42","130309","0.0-8.0-0.34","5f350f459bf003464a03ea5e","650c16f0f2faf8d7a0d14c09","651c1c43a64ded2eaf7db52a","null","null","<p style=""font-size: 60px; font-family: BACS"">OAmAdcDR</p>","","","","","","","","",""
"html-keyboard-response","43","131324","0.0-8.0-0.35","5f350f459bf003464a03ea5e","650c16f0f2faf8d7a0d14c09","651c1c43a64ded2eaf7db52a","null","null","<p style=""font-size: 60px; font-family: BACS"">bcbMPTl</p>","","","","","","","","",""
"html-keyboard-response","44","132334","0.0-8.0-0.36","5f350f459bf003464a03ea5e","650c16f0f2faf8d7a0d14c09","651c1c43a64ded2eaf7db52a","null","null","<p style=""font-size: 60px; font-family: BACS"">vclYGrbk</p>","","","","","","","","",""
"html-keyboard-response","45","133347","0.0-8.0-0.37","5f350f459bf003464a03ea5e","650c16f0f2faf8d7a0d14c09","651c1c43a64ded2eaf7db52a","null","null","<p style=""font-size: 60px; font-family: BACS"">aONdlLG</p>","","","","","","","","",""
"html-keyboard-response","46","134359","0.0-8.0-0.38","5f350f459bf003464a03ea5e","650c16f0f2faf8d7a0d14c09","651c1c43a64ded2eaf7db52a","null","null","<p style=""font-size: 60px; font-family: BACS"">vYLUrGl</p>","","","","","","","","",""
"html-keyboard-response","47","135370","0.0-8.0-0.39","5f350f459bf003464a03ea5e","650c16f0f2faf8d7a0d14c09","651c1c43a64ded2eaf7db52a","null","null","<p style=""font-size: 60px; font-family: BACS"">bcbMTbk</p>","","","","","","","","",""
"html-keyboard-response","48","136378","0.0-8.0-0.40","5f350f459bf003464a03ea5e","650c16f0f2faf8d7a0d14c09","651c1c43a64ded2eaf7db52a","null","null","<p style=""font-size: 60px; font-family: BACS"">rkYLrGl</p>","","","","","","","","",""
"html-keyboard-response","49","137386","0.0-8.0-0.41","5f350f459bf003464a03ea5e","650c16f0f2faf8d7a0d14c09","651c1c43a64ded2eaf7db52a","null","null","<p style=""font-size: 60px; font-family: BACS"">lYrualLG</p>","","","","","","","","",""
"html-keyboard-response","50","138393","0.0-8.0-0.42","5f350f459bf003464a03ea5e","650c16f0f2faf8d7a0d14c09","651c1c43a64ded2eaf7db52a","null","null","<p style=""font-size: 60px; font-family: BACS"">DRPkYcDR</p>","","","","","","","","",""
"html-keyboard-response","51","139400","0.0-8.0-0.43","5f350f459bf003464a03ea5e","650c16f0f2faf8d7a0d14c09","651c1c43a64ded2eaf7db52a","null","null","<p style=""font-size: 60px; font-family: BACS"">kdaAJGrbk</p>","","","","","","","","",""
"html-keyboard-response","52","140409","0.0-8.0-0.44","5f350f459bf003464a03ea5e","650c16f0f2faf8d7a0d14c09","651c1c43a64ded2eaf7db52a","null","null","<p style=""font-size: 60px; font-family: BACS"">advYOlLG</p>","","","","","","","","",""
"html-keyboard-response","53","141421","0.0-8.0-0.45","5f350f459bf003464a03ea5e","650c16f0f2faf8d7a0d14c09","651c1c43a64ded2eaf7db52a","null","null","<p style=""font-size: 60px; font-family: BACS"">MBKREcDR</p>","","","","","","","","",""
"html-keyboard-response","54","142432","0.0-8.0-0.46","5f350f459bf003464a03ea5e","650c16f0f2faf8d7a0d14c09","651c1c43a64ded2eaf7db52a","null","null","<p style=""font-size: 60px; font-family: BACS"">rkYLGrbk</p>","","","","","","","","",""
"html-keyboard-response","55","143433","0.0-8.0-0.47","5f350f459bf003464a03ea5e","650c16f0f2faf8d7a0d14c09","651c1c43a64ded2eaf7db52a","null","null","<p style=""font-size: 60px; font-family: BACS"">OAmAdOMC</p>","","","","","","","","",""
"html-keyboard-response","56","144442","0.0-8.0-0.48","5f350f459bf003464a03ea5e","650c16f0f2faf8d7a0d14c09","651c1c43a64ded2eaf7db52a","null","null","<p style=""font-size: 60px; font-family: BACS"">UaZmaGrbk</p>","","","","","","","","",""
"html-keyboard-response","57","145454","0.0-8.0-0.49","5f350f459bf003464a03ea5e","650c16f0f2faf8d7a0d14c09","651c1c43a64ded2eaf7db52a","null","null","<p style=""font-size: 60px; font-family: BACS"">bmbNcUN</p>","","","","","","","","",""
"html-keyboard-response","58","146465","0.0-8.0-0.50","5f350f459bf003464a03ea5e","650c16f0f2faf8d7a0d14c09","651c1c43a64ded2eaf7db52a","null","null","<p style=""font-size: 60px; font-family: BACS"">ODBDAhBK</p>","","","","","","","","",""
"html-keyboard-response","59","147477","0.0-8.0-0.51","5f350f459bf003464a03ea5e","650c16f0f2faf8d7a0d14c09","651c1c43a64ded2eaf7db52a","null","null","<p style=""font-size: 60px; font-family: BACS"">bmbNrGl</p>","","","","","","","","",""
"html-keyboard-response","60","148492","0.0-8.0-0.52","5f350f459bf003464a03ea5e","650c16f0f2faf8d7a0d14c09","651c1c43a64ded2eaf7db52a","null","null","<p style=""font-size: 60px; font-family: BACS"">lYruaGrbk</p>","","","","","","","","",""
"html-keyboard-response","61","149505","0.0-8.0-0.53","5f350f459bf003464a03ea5e","650c16f0f2faf8d7a0d14c09","651c1c43a64ded2eaf7db52a","null","null","<p style=""font-size: 60px; font-family: BACS"">cDOEBhBK</p>","","","","","","","","",""
"html-keyboard-response","62","150516","0.0-8.0-0.54","5f350f459bf003464a03ea5e","650c16f0f2faf8d7a0d14c09","651c1c43a64ded2eaf7db52a","null","null","<p style=""font-size: 60px; font-family: BACS"">aONdrGl</p>","","","","","","","","",""
"html-keyboard-response","63","151524","0.0-8.0-0.55","5f350f459bf003464a03ea5e","650c16f0f2faf8d7a0d14c09","651c1c43a64ded2eaf7db52a","null","null","<p style=""font-size: 60px; font-family: BACS"">bmbNQvlZ</p>","","","","","","","","",""
"html-keyboard-response","64","152534","0.0-8.0-0.56","5f350f459bf003464a03ea5e","650c16f0f2faf8d7a0d14c09","651c1c43a64ded2eaf7db52a","null","null","<p style=""font-size: 60px; font-family: BACS"">bvuZlLG</p>","","","","","","","","",""
"html-keyboard-response","65","153547","0.0-8.0-0.57","5f350f459bf003464a03ea5e","650c16f0f2faf8d7a0d14c09","651c1c43a64ded2eaf7db52a","null","null","<p style=""font-size: 60px; font-family: BACS"">bcbMOMC</p>","","","","","","","","",""
"html-keyboard-response","66","154557","0.0-8.0-0.58","5f350f459bf003464a03ea5e","650c16f0f2faf8d7a0d14c09","651c1c43a64ded2eaf7db52a","null","null","<p style=""font-size: 60px; font-family: BACS"">advYOGrbk</p>","","","","","","","","",""
"html-keyboard-response","67","155564","0.0-8.0-0.59","5f350f459bf003464a03ea5e","650c16f0f2faf8d7a0d14c09","651c1c43a64ded2eaf7db52a","null","null","<p style=""font-size: 60px; font-family: BACS"">MBKREPTl</p>","","","","","","","","",""
"html-keyboard-response","68","156569","0.0-8.0-0.60","5f350f459bf003464a03ea5e","650c16f0f2faf8d7a0d14c09","651c1c43a64ded2eaf7db52a","null","null","<p style=""font-size: 60px; font-family: BACS"">dRbDbhBK</p>","","","","","","","","",""
"html-keyboard-response","69","157592","0.0-8.0-0.61","5f350f459bf003464a03ea5e","650c16f0f2faf8d7a0d14c09","651c1c43a64ded2eaf7db52a","null","null","<p style=""font-size: 60px; font-family: BACS"">ODBDAPTl</p>","","","","","","","","",""
"html-keyboard-response","70","158604","0.0-8.0-0.62","5f350f459bf003464a03ea5e","650c16f0f2faf8d7a0d14c09","651c1c43a64ded2eaf7db52a","null","null","<p style=""font-size: 60px; font-family: BACS"">BECkOMC</p>","","","","","","","","",""
"html-keyboard-response","71","159616","0.0-8.0-0.63","5f350f459bf003464a03ea5e","650c16f0f2faf8d7a0d14c09","651c1c43a64ded2eaf7db52a","null","null","<p style=""font-size: 60px; font-family: BACS"">bmbNGrbk</p>","","","","","","","","",""
"html-keyboard-response","72","160628","0.0-8.0-0.64","5f350f459bf003464a03ea5e","650c16f0f2faf8d7a0d14c09","651c1c43a64ded2eaf7db52a","null","null","<p style=""font-size: 60px; font-family: BACS"">CDEmYPTl</p>","","","","","","","","",""
"html-keyboard-response","73","161640","0.0-8.0-0.65","5f350f459bf003464a03ea5e","650c16f0f2faf8d7a0d14c09","651c1c43a64ded2eaf7db52a","null","null","<p style=""font-size: 60px; font-family: BACS"">bvuZrGl</p>","","","","","","","","",""
"html-keyboard-response","74","162653","0.0-8.0-0.66","5f350f459bf003464a03ea5e","650c16f0f2faf8d7a0d14c09","651c1c43a64ded2eaf7db52a","null","null","<p style=""font-size: 60px; font-family: BACS"">DRPkYPTl</p>","","","","","","","","",""
"html-keyboard-response","75","163664","0.0-8.0-0.67","5f350f459bf003464a03ea5e","650c16f0f2faf8d7a0d14c09","651c1c43a64ded2eaf7db52a","null","null","<p style=""font-size: 60px; font-family: BACS"">dRbDbTbk</p>","","","","","","","","",""
"html-keyboard-response","76","164669","0.0-8.0-0.68","5f350f459bf003464a03ea5e","650c16f0f2faf8d7a0d14c09","651c1c43a64ded2eaf7db52a","null","null","<p style=""font-size: 60px; font-family: BACS"">vclYcUN</p>","","","","","","","","",""
"html-keyboard-response","77","165678","0.0-8.0-0.69","5f350f459bf003464a03ea5e","650c16f0f2faf8d7a0d14c09","651c1c43a64ded2eaf7db52a","null","null","<p style=""font-size: 60px; font-family: BACS"">BECkPTl</p>","","","","","","","","",""
"html-keyboard-response","78","166689","0.0-8.0-0.70","5f350f459bf003464a03ea5e","650c16f0f2faf8d7a0d14c09","651c1c43a64ded2eaf7db52a","null","null","<p style=""font-size: 60px; font-family: BACS"">vYLUcUN</p>","","","","","","","","",""
"html-keyboard-response","79","167703","0.0-8.0-0.71","5f350f459bf003464a03ea5e","650c16f0f2faf8d7a0d14c09","651c1c43a64ded2eaf7db52a","null","null","<p style=""font-size: 60px; font-family: BACS"">TbKMETbk</p>","","","","","","","","",""
"html-keyboard-response","80","168713","0.0-8.0-0.72","5f350f459bf003464a03ea5e","650c16f0f2faf8d7a0d14c09","651c1c43a64ded2eaf7db52a","null","null","<p style=""font-size: 60px; font-family: BACS"">aONdcUN</p>","","","","","","","","",""
"html-keyboard-response","81","169724","0.0-8.0-0.73","5f350f459bf003464a03ea5e","650c16f0f2faf8d7a0d14c09","651c1c43a64ded2eaf7db52a","null","null","<p style=""font-size: 60px; font-family: BACS"">UaZmaQvlZ</p>","","","","","","","","",""
"html-keyboard-response","82","170737","0.0-8.0-0.74","5f350f459bf003464a03ea5e","650c16f0f2faf8d7a0d14c09","651c1c43a64ded2eaf7db52a","null","null","<p style=""font-size: 60px; font-family: BACS"">TbKMEcDR</p>","","","","","","","","",""
"html-keyboard-response","83","171748","0.0-8.0-0.75","5f350f459bf003464a03ea5e","650c16f0f2faf8d7a0d14c09","651c1c43a64ded2eaf7db52a","null","null","<p style=""font-size: 60px; font-family: BACS"">aONdQvlZ</p>","","","","","","","","",""
"html-keyboard-response","84","172759","0.0-8.0-0.76","5f350f459bf003464a03ea5e","650c16f0f2faf8d7a0d14c09","651c1c43a64ded2eaf7db52a","null","null","<p style=""font-size: 60px; font-family: BACS"">BECkhBK</p>","","","","","","","","",""
"html-keyboard-response","85","173761","0.0-8.0-0.77","5f350f459bf003464a03ea5e","650c16f0f2faf8d7a0d14c09","651c1c43a64ded2eaf7db52a","null","null","<p style=""font-size: 60px; font-family: BACS"">vclYQvlZ</p>","","","","","","","","",""
"html-keyboard-response","86","174768","0.0-8.0-0.78","5f350f459bf003464a03ea5e","650c16f0f2faf8d7a0d14c09","651c1c43a64ded2eaf7db52a","null","null","<p style=""font-size: 60px; font-family: BACS"">lYruacUN</p>","","","","","","","","",""
"html-keyboard-response","87","175779","0.0-8.0-0.79","5f350f459bf003464a03ea5e","650c16f0f2faf8d7a0d14c09","651c1c43a64ded2eaf7db52a","null","null","<p style=""font-size: 60px; font-family: BACS"">ODBDAOMC</p>","","","","","","","","",""
"html-keyboard-response","88","182188","0.0-9.0","5f350f459bf003464a03ea5e","650c16f0f2faf8d7a0d14c09","651c1c43a64ded2eaf7db52a","6408"," ","<p>Great, you've seen the first block of words. You may now take a short break.</p>
      <p>Press the spacebar when you're ready to continue.</p>","","","","","","","","",""
"html-keyboard-response","89","183197","0.0-10.0-0.0","5f350f459bf003464a03ea5e","650c16f0f2faf8d7a0d14c09","651c1c43a64ded2eaf7db52a","null","null","<p style=""font-size: 60px; font-family: BACS"">bvuZlLG</p>","","","","","","","","",""
"html-keyboard-response","90","184208","0.0-10.0-0.1","5f350f459bf003464a03ea5e","650c16f0f2faf8d7a0d14c09","651c1c43a64ded2eaf7db52a","null","null","<p style=""font-size: 60px; font-family: BACS"">vclYQvlZ</p>","","","","","","","","",""
"html-keyboard-response","91","185221","0.0-10.0-0.2","5f350f459bf003464a03ea5e","650c16f0f2faf8d7a0d14c09","651c1c43a64ded2eaf7db52a","null","null","<p style=""font-size: 60px; font-family: BACS"">vYLUlLG</p>","","","","","","","","",""
"html-keyboard-response","92","186235","0.0-10.0-0.3","5f350f459bf003464a03ea5e","650c16f0f2faf8d7a0d14c09","651c1c43a64ded2eaf7db52a","null","null","<p style=""font-size: 60px; font-family: BACS"">ODBDAhBK</p>","","","","","","","","",""
"html-keyboard-response","93","187250","0.0-10.0-0.4","5f350f459bf003464a03ea5e","650c16f0f2faf8d7a0d14c09","651c1c43a64ded2eaf7db52a","null","null","<p style=""font-size: 60px; font-family: BACS"">bvuZrGl</p>","","","","","","","","",""
"html-keyboard-response","94","188263","0.0-10.0-0.5","5f350f459bf003464a03ea5e","650c16f0f2faf8d7a0d14c09","651c1c43a64ded2eaf7db52a","null","null","<p style=""font-size: 60px; font-family: BACS"">UaZmaGrbk</p>","","","","","","","","",""
"html-keyboard-response","95","189276","0.0-10.0-0.6","5f350f459bf003464a03ea5e","650c16f0f2faf8d7a0d14c09","651c1c43a64ded2eaf7db52a","null","null","<p style=""font-size: 60px; font-family: BACS"">advYOrGl</p>","","","","","","","","",""
"html-keyboard-response","96","190278","0.0-10.0-0.7","5f350f459bf003464a03ea5e","650c16f0f2faf8d7a0d14c09","651c1c43a64ded2eaf7db52a","null","null","<p style=""font-size: 60px; font-family: BACS"">vYLUQvlZ</p>","","","","","","","","",""
"html-keyboard-response","97","191295","0.0-10.0-0.8","5f350f459bf003464a03ea5e","650c16f0f2faf8d7a0d14c09","651c1c43a64ded2eaf7db52a","null","null","<p style=""font-size: 60px; font-family: BACS"">MBKREPTl</p>","","","","","","","","",""
"html-keyboard-response","98","192306","0.0-10.0-0.9","5f350f459bf003464a03ea5e","650c16f0f2faf8d7a0d14c09","651c1c43a64ded2eaf7db52a","null","null","<p style=""font-size: 60px; font-family: BACS"">advYOlLG</p>","","","","","","","","",""
"html-keyboard-response","99","193318","0.0-10.0-0.10","5f350f459bf003464a03ea5e","650c16f0f2faf8d7a0d14c09","651c1c43a64ded2eaf7db52a","null","null","<p style=""font-size: 60px; font-family: BACS"">DRPkYOMC</p>","","","","","","","","",""
"html-keyboard-response","100","194331","0.0-10.0-0.11","5f350f459bf003464a03ea5e","650c16f0f2faf8d7a0d14c09","651c1c43a64ded2eaf7db52a","null","null","<p style=""font-size: 60px; font-family: BACS"">UaZmaQvlZ</p>","","","","","","","","",""
"html-keyboard-response","101","195332","0.0-10.0-0.12","5f350f459bf003464a03ea5e","650c16f0f2faf8d7a0d14c09","651c1c43a64ded2eaf7db52a","null","null","<p style=""font-size: 60px; font-family: BACS"">vclYcUN</p>","","","","","","","","",""
"html-keyboard-response","102","196341","0.0-10.0-0.13","5f350f459bf003464a03ea5e","650c16f0f2faf8d7a0d14c09","651c1c43a64ded2eaf7db52a","null","null","<p style=""font-size: 60px; font-family: BACS"">TbKMEcDR</p>","","","","","","","","",""
"html-keyboard-response","103","197354","0.0-10.0-0.14","5f350f459bf003464a03ea5e","650c16f0f2faf8d7a0d14c09","651c1c43a64ded2eaf7db52a","null","null","<p style=""font-size: 60px; font-family: BACS"">advYOGrbk</p>","","","","","","","","",""
"html-keyboard-response","104","198366","0.0-10.0-0.15","5f350f459bf003464a03ea5e","650c16f0f2faf8d7a0d14c09","651c1c43a64ded2eaf7db52a","null","null","<p style=""font-size: 60px; font-family: BACS"">kdaAJcUN</p>","","","","","","","","",""
"html-keyboard-response","105","199367","0.0-10.0-0.16","5f350f459bf003464a03ea5e","650c16f0f2faf8d7a0d14c09","651c1c43a64ded2eaf7db52a","null","null","<p style=""font-size: 60px; font-family: BACS"">aONdQvlZ</p>","","","","","","","","",""
"html-keyboard-response","106","200381","0.0-10.0-0.17","5f350f459bf003464a03ea5e","650c16f0f2faf8d7a0d14c09","651c1c43a64ded2eaf7db52a","null","null","<p style=""font-size: 60px; font-family: BACS"">rkYLcUN</p>","","","","","","","","",""
"html-keyboard-response","107","201382","0.0-10.0-0.18","5f350f459bf003464a03ea5e","650c16f0f2faf8d7a0d14c09","651c1c43a64ded2eaf7db52a","null","null","<p style=""font-size: 60px; font-family: BACS"">bmbNrGl</p>","","","","","","","","",""
"html-keyboard-response","108","202396","0.0-10.0-0.19","5f350f459bf003464a03ea5e","650c16f0f2faf8d7a0d14c09","651c1c43a64ded2eaf7db52a","null","null","<p style=""font-size: 60px; font-family: BACS"">MBKREOMC</p>","","","","","","","","",""
"html-keyboard-response","109","203405","0.0-10.0-0.20","5f350f459bf003464a03ea5e","650c16f0f2faf8d7a0d14c09","651c1c43a64ded2eaf7db52a","null","null","<p style=""font-size: 60px; font-family: BACS"">vclYlLG</p>","","","","","","","","",""
"html-keyboard-response","110","204407","0.0-10.0-0.21","5f350f459bf003464a03ea5e","650c16f0f2faf8d7a0d14c09","651c1c43a64ded2eaf7db52a","null","null","<p style=""font-size: 60px; font-family: BACS"">UaZmarGl</p>","","","","","","","","",""
"html-keyboard-response","111","205419","0.0-10.0-0.22","5f350f459bf003464a03ea5e","650c16f0f2faf8d7a0d14c09","651c1c43a64ded2eaf7db52a","null","null","<p style=""font-size: 60px; font-family: BACS"">cDOEBPTl</p>","","","","","","","","",""
"html-keyboard-response","112","206427","0.0-10.0-0.23","5f350f459bf003464a03ea5e","650c16f0f2faf8d7a0d14c09","651c1c43a64ded2eaf7db52a","null","null","<p style=""font-size: 60px; font-family: BACS"">bmbNGrbk</p>","","","","","","","","",""
"html-keyboard-response","113","207428","0.0-10.0-0.24","5f350f459bf003464a03ea5e","650c16f0f2faf8d7a0d14c09","651c1c43a64ded2eaf7db52a","null","null","<p style=""font-size: 60px; font-family: BACS"">UaZmacUN</p>","","","","","","","","",""
"html-keyboard-response","114","208436","0.0-10.0-0.25","5f350f459bf003464a03ea5e","650c16f0f2faf8d7a0d14c09","651c1c43a64ded2eaf7db52a","null","null","<p style=""font-size: 60px; font-family: BACS"">OAmAdTbk</p>","","","","","","","","",""
"html-keyboard-response","115","209445","0.0-10.0-0.26","5f350f459bf003464a03ea5e","650c16f0f2faf8d7a0d14c09","651c1c43a64ded2eaf7db52a","null","null","<p style=""font-size: 60px; font-family: BACS"">bcbMhBK</p>","","","","","","","","",""
"html-keyboard-response","116","210459","0.0-10.0-0.27","5f350f459bf003464a03ea5e","650c16f0f2faf8d7a0d14c09","651c1c43a64ded2eaf7db52a","null","null","<p style=""font-size: 60px; font-family: BACS"">aONdlLG</p>","","","","","","","","",""
"html-keyboard-response","117","211468","0.0-10.0-0.28","5f350f459bf003464a03ea5e","650c16f0f2faf8d7a0d14c09","651c1c43a64ded2eaf7db52a","null","null","<p style=""font-size: 60px; font-family: BACS"">DRPkYcDR</p>","","","","","","","","",""
"html-keyboard-response","118","212471","0.0-10.0-0.29","5f350f459bf003464a03ea5e","650c16f0f2faf8d7a0d14c09","651c1c43a64ded2eaf7db52a","null","null","<p style=""font-size: 60px; font-family: BACS"">OAmAdhBK</p>","","","","","","","","",""
"html-keyboard-response","119","213476","0.0-10.0-0.30","5f350f459bf003464a03ea5e","650c16f0f2faf8d7a0d14c09","651c1c43a64ded2eaf7db52a","null","null","<p style=""font-size: 60px; font-family: BACS"">dRbDbTbk</p>","","","","","","","","",""
"html-keyboard-response","120","214482","0.0-10.0-0.31","5f350f459bf003464a03ea5e","650c16f0f2faf8d7a0d14c09","651c1c43a64ded2eaf7db52a","null","null","<p style=""font-size: 60px; font-family: BACS"">bcbMPTl</p>","","","","","","","","",""
"html-keyboard-response","121","215492","0.0-10.0-0.32","5f350f459bf003464a03ea5e","650c16f0f2faf8d7a0d14c09","651c1c43a64ded2eaf7db52a","null","null","<p style=""font-size: 60px; font-family: BACS"">vYLUcUN</p>","","","","","","","","",""
"html-keyboard-response","122","216497","0.0-10.0-0.33","5f350f459bf003464a03ea5e","650c16f0f2faf8d7a0d14c09","651c1c43a64ded2eaf7db52a","null","null","<p style=""font-size: 60px; font-family: BACS"">ODBDAcDR</p>","","","","","","","","",""
"html-keyboard-response","123","217498","0.0-10.0-0.34","5f350f459bf003464a03ea5e","650c16f0f2faf8d7a0d14c09","651c1c43a64ded2eaf7db52a","null","null","<p style=""font-size: 60px; font-family: BACS"">CDEmYPTl</p>","","","","","","","","",""
"html-keyboard-response","124","218506","0.0-10.0-0.35","5f350f459bf003464a03ea5e","650c16f0f2faf8d7a0d14c09","651c1c43a64ded2eaf7db52a","null","null","<p style=""font-size: 60px; font-family: BACS"">TbKMEhBK</p>","","","","","","","","",""
"html-keyboard-response","125","219520","0.0-10.0-0.36","5f350f459bf003464a03ea5e","650c16f0f2faf8d7a0d14c09","651c1c43a64ded2eaf7db52a","null","null","<p style=""font-size: 60px; font-family: BACS"">ODBDAOMC</p>","","","","","","","","",""
"html-keyboard-response","126","220532","0.0-10.0-0.37","5f350f459bf003464a03ea5e","650c16f0f2faf8d7a0d14c09","651c1c43a64ded2eaf7db52a","null","null","<p style=""font-size: 60px; font-family: BACS"">BECkhBK</p>","","","","","","","","",""
"html-keyboard-response","127","221543","0.0-10.0-0.38","5f350f459bf003464a03ea5e","650c16f0f2faf8d7a0d14c09","651c1c43a64ded2eaf7db52a","null","null","<p style=""font-size: 60px; font-family: BACS"">kdaAJGrbk</p>","","","","","","","","",""
"html-keyboard-response","128","222550","0.0-10.0-0.39","5f350f459bf003464a03ea5e","650c16f0f2faf8d7a0d14c09","651c1c43a64ded2eaf7db52a","null","null","<p style=""font-size: 60px; font-family: BACS"">aONdrGl</p>","","","","","","","","",""
"html-keyboard-response","129","223558","0.0-10.0-0.40","5f350f459bf003464a03ea5e","650c16f0f2faf8d7a0d14c09","651c1c43a64ded2eaf7db52a","null","null","<p style=""font-size: 60px; font-family: BACS"">BECkTbk</p>","","","","","","","","",""
"html-keyboard-response","130","224567","0.0-10.0-0.41","5f350f459bf003464a03ea5e","650c16f0f2faf8d7a0d14c09","651c1c43a64ded2eaf7db52a","null","null","<p style=""font-size: 60px; font-family: BACS"">DRPkYPTl</p>","","","","","","","","",""
"html-keyboard-response","131","225573","0.0-10.0-0.42","5f350f459bf003464a03ea5e","650c16f0f2faf8d7a0d14c09","651c1c43a64ded2eaf7db52a","null","null","<p style=""font-size: 60px; font-family: BACS"">TbKMETbk</p>","","","","","","","","",""
"html-keyboard-response","132","226582","0.0-10.0-0.43","5f350f459bf003464a03ea5e","650c16f0f2faf8d7a0d14c09","651c1c43a64ded2eaf7db52a","null","null","<p style=""font-size: 60px; font-family: BACS"">cDOEBhBK</p>","","","","","","","","",""
"html-keyboard-response","133","227594","0.0-10.0-0.44","5f350f459bf003464a03ea5e","650c16f0f2faf8d7a0d14c09","651c1c43a64ded2eaf7db52a","null","null","<p style=""font-size: 60px; font-family: BACS"">kdaAJQvlZ</p>","","","","","","","","",""
"html-keyboard-response","134","228602","0.0-10.0-0.45","5f350f459bf003464a03ea5e","650c16f0f2faf8d7a0d14c09","651c1c43a64ded2eaf7db52a","null","null","<p style=""font-size: 60px; font-family: BACS"">dRbDbcDR</p>","","","","","","","","",""
"html-keyboard-response","135","229613","0.0-10.0-0.46","5f350f459bf003464a03ea5e","650c16f0f2faf8d7a0d14c09","651c1c43a64ded2eaf7db52a","null","null","<p style=""font-size: 60px; font-family: BACS"">vclYGrbk</p>","","","","","","","","",""
"html-keyboard-response","136","230623","0.0-10.0-0.47","5f350f459bf003464a03ea5e","650c16f0f2faf8d7a0d14c09","651c1c43a64ded2eaf7db52a","null","null","<p style=""font-size: 60px; font-family: BACS"">cDOEBOMC</p>","","","","","","","","",""
"html-keyboard-response","137","231630","0.0-10.0-0.48","5f350f459bf003464a03ea5e","650c16f0f2faf8d7a0d14c09","651c1c43a64ded2eaf7db52a","null","null","<p style=""font-size: 60px; font-family: BACS"">bmbNQvlZ</p>","","","","","","","","",""
"html-keyboard-response","138","232637","0.0-10.0-0.49","5f350f459bf003464a03ea5e","650c16f0f2faf8d7a0d14c09","651c1c43a64ded2eaf7db52a","null","null","<p style=""font-size: 60px; font-family: BACS"">rkYLrGl</p>","","","","","","","","",""
"html-keyboard-response","139","233648","0.0-10.0-0.50","5f350f459bf003464a03ea5e","650c16f0f2faf8d7a0d14c09","651c1c43a64ded2eaf7db52a","null","null","<p style=""font-size: 60px; font-family: BACS"">MBKRETbk</p>","","","","","","","","",""
"html-keyboard-response","140","234655","0.0-10.0-0.51","5f350f459bf003464a03ea5e","650c16f0f2faf8d7a0d14c09","651c1c43a64ded2eaf7db52a","null","null","<p style=""font-size: 60px; font-family: BACS"">bvuZQvlZ</p>","","","","","","","","",""
"html-keyboard-response","141","235666","0.0-10.0-0.52","5f350f459bf003464a03ea5e","650c16f0f2faf8d7a0d14c09","651c1c43a64ded2eaf7db52a","null","null","<p style=""font-size: 60px; font-family: BACS"">CDEmYTbk</p>","","","","","","","","",""
"html-keyboard-response","142","236673","0.0-10.0-0.53","5f350f459bf003464a03ea5e","650c16f0f2faf8d7a0d14c09","651c1c43a64ded2eaf7db52a","null","null","<p style=""font-size: 60px; font-family: BACS"">BECkPTl</p>","","","","","","","","",""
"html-keyboard-response","143","237675","0.0-10.0-0.54","5f350f459bf003464a03ea5e","650c16f0f2faf8d7a0d14c09","651c1c43a64ded2eaf7db52a","null","null","<p style=""font-size: 60px; font-family: BACS"">rkYLGrbk</p>","","","","","","","","",""
"html-keyboard-response","144","238684","0.0-10.0-0.55","5f350f459bf003464a03ea5e","650c16f0f2faf8d7a0d14c09","651c1c43a64ded2eaf7db52a","null","null","<p style=""font-size: 60px; font-family: BACS"">TbKMEPTl</p>","","","","","","","","",""
"html-keyboard-response","145","239697","0.0-10.0-0.56","5f350f459bf003464a03ea5e","650c16f0f2faf8d7a0d14c09","651c1c43a64ded2eaf7db52a","null","null","<p style=""font-size: 60px; font-family: BACS"">rkYLlLG</p>","","","","","","","","",""
"html-keyboard-response","146","240708","0.0-10.0-0.57","5f350f459bf003464a03ea5e","650c16f0f2faf8d7a0d14c09","651c1c43a64ded2eaf7db52a","null","null","<p style=""font-size: 60px; font-family: BACS"">bvuZGrbk</p>","","","","","","","","",""
"html-keyboard-response","147","241718","0.0-10.0-0.58","5f350f459bf003464a03ea5e","650c16f0f2faf8d7a0d14c09","651c1c43a64ded2eaf7db52a","null","null","<p style=""font-size: 60px; font-family: BACS"">CDEmYcDR</p>","","","","","","","","",""
"html-keyboard-response","148","242731","0.0-10.0-0.59","5f350f459bf003464a03ea5e","650c16f0f2faf8d7a0d14c09","651c1c43a64ded2eaf7db52a","null","null","<p style=""font-size: 60px; font-family: BACS"">kdaAJlLG</p>","","","","","","","","",""
"html-keyboard-response","149","243732","0.0-10.0-0.60","5f350f459bf003464a03ea5e","650c16f0f2faf8d7a0d14c09","651c1c43a64ded2eaf7db52a","null","null","<p style=""font-size: 60px; font-family: BACS"">vYLUrGl</p>","","","","","","","","",""
"html-keyboard-response","150","244741","0.0-10.0-0.61","5f350f459bf003464a03ea5e","650c16f0f2faf8d7a0d14c09","651c1c43a64ded2eaf7db52a","null","null","<p style=""font-size: 60px; font-family: BACS"">dRbDbhBK</p>","","","","","","","","",""
"html-keyboard-response","151","245754","0.0-10.0-0.62","5f350f459bf003464a03ea5e","650c16f0f2faf8d7a0d14c09","651c1c43a64ded2eaf7db52a","null","null","<p style=""font-size: 60px; font-family: BACS"">DRPkYTbk</p>","","","","","","","","",""
"html-keyboard-response","152","246766","0.0-10.0-0.63","5f350f459bf003464a03ea5e","650c16f0f2faf8d7a0d14c09","651c1c43a64ded2eaf7db52a","null","null","<p style=""font-size: 60px; font-family: BACS"">bcbMOMC</p>","","","","","","","","",""
"html-keyboard-response","153","247773","0.0-10.0-0.64","5f350f459bf003464a03ea5e","650c16f0f2faf8d7a0d14c09","651c1c43a64ded2eaf7db52a","null","null","<p style=""font-size: 60px; font-family: BACS"">MBKREcDR</p>","","","","","","","","",""
"html-keyboard-response","154","248784","0.0-10.0-0.65","5f350f459bf003464a03ea5e","650c16f0f2faf8d7a0d14c09","651c1c43a64ded2eaf7db52a","null","null","<p style=""font-size: 60px; font-family: BACS"">CDEmYhBK</p>","","","","","","","","",""
"html-keyboard-response","155","249793","0.0-10.0-0.66","5f350f459bf003464a03ea5e","650c16f0f2faf8d7a0d14c09","651c1c43a64ded2eaf7db52a","null","null","<p style=""font-size: 60px; font-family: BACS"">ODBDAPTl</p>","","","","","","","","",""
"html-keyboard-response","156","250802","0.0-10.0-0.67","5f350f459bf003464a03ea5e","650c16f0f2faf8d7a0d14c09","651c1c43a64ded2eaf7db52a","null","null","<p style=""font-size: 60px; font-family: BACS"">aONdcUN</p>","","","","","","","","",""
"html-keyboard-response","157","251806","0.0-10.0-0.68","5f350f459bf003464a03ea5e","650c16f0f2faf8d7a0d14c09","651c1c43a64ded2eaf7db52a","null","null","<p style=""font-size: 60px; font-family: BACS"">OAmAdOMC</p>","","","","","","","","",""
"html-keyboard-response","158","252813","0.0-10.0-0.69","5f350f459bf003464a03ea5e","650c16f0f2faf8d7a0d14c09","651c1c43a64ded2eaf7db52a","null","null","<p style=""font-size: 60px; font-family: BACS"">lYrualLG</p>","","","","","","","","",""
"html-keyboard-response","159","253822","0.0-10.0-0.70","5f350f459bf003464a03ea5e","650c16f0f2faf8d7a0d14c09","651c1c43a64ded2eaf7db52a","null","null","<p style=""font-size: 60px; font-family: BACS"">bmbNcUN</p>","","","","","","","","",""
"html-keyboard-response","160","254829","0.0-10.0-0.71","5f350f459bf003464a03ea5e","650c16f0f2faf8d7a0d14c09","651c1c43a64ded2eaf7db52a","null","null","<p style=""font-size: 60px; font-family: BACS"">lYruaGrbk</p>","","","","","","","","",""
"html-keyboard-response","161","255837","0.0-10.0-0.72","5f350f459bf003464a03ea5e","650c16f0f2faf8d7a0d14c09","651c1c43a64ded2eaf7db52a","null","null","<p style=""font-size: 60px; font-family: BACS"">advYOQvlZ</p>","","","","","","","","",""
"html-keyboard-response","162","256844","0.0-10.0-0.73","5f350f459bf003464a03ea5e","650c16f0f2faf8d7a0d14c09","651c1c43a64ded2eaf7db52a","null","null","<p style=""font-size: 60px; font-family: BACS"">dRbDbOMC</p>","","","","","","","","",""
"html-keyboard-response","163","257851","0.0-10.0-0.74","5f350f459bf003464a03ea5e","650c16f0f2faf8d7a0d14c09","651c1c43a64ded2eaf7db52a","null","null","<p style=""font-size: 60px; font-family: BACS"">lYruacUN</p>","","","","","","","","",""
"html-keyboard-response","164","258863","0.0-10.0-0.75","5f350f459bf003464a03ea5e","650c16f0f2faf8d7a0d14c09","651c1c43a64ded2eaf7db52a","null","null","<p style=""font-size: 60px; font-family: BACS"">bcbMTbk</p>","","","","","","","","",""
"html-keyboard-response","165","259873","0.0-10.0-0.76","5f350f459bf003464a03ea5e","650c16f0f2faf8d7a0d14c09","651c1c43a64ded2eaf7db52a","null","null","<p style=""font-size: 60px; font-family: BACS"">cDOEBcDR</p>","","","","","","","","",""
"html-keyboard-response","166","260877","0.0-10.0-0.77","5f350f459bf003464a03ea5e","650c16f0f2faf8d7a0d14c09","651c1c43a64ded2eaf7db52a","null","null","<p style=""font-size: 60px; font-family: BACS"">BECkOMC</p>","","","","","","","","",""
"html-keyboard-response","167","261885","0.0-10.0-0.78","5f350f459bf003464a03ea5e","650c16f0f2faf8d7a0d14c09","651c1c43a64ded2eaf7db52a","null","null","<p style=""font-size: 60px; font-family: BACS"">lYruarGl</p>","","","","","","","","",""
"html-keyboard-response","168","262897","0.0-10.0-0.79","5f350f459bf003464a03ea5e","650c16f0f2faf8d7a0d14c09","651c1c43a64ded2eaf7db52a","null","null","<p style=""font-size: 60px; font-family: BACS"">OAmAdcDR</p>","","","","","","","","",""
"html-keyboard-response","169","278102","0.0-11.0","5f350f459bf003464a03ea5e","650c16f0f2faf8d7a0d14c09","651c1c43a64ded2eaf7db52a","15205"," ","<p>Great, you've seen the second block of words. You may now take a short break.</p>
      <p>Press the spacebar when you're ready to continue.</p>","","","","","","","","",""
"html-keyboard-response","170","279118","0.0-12.0-0.0","5f350f459bf003464a03ea5e","650c16f0f2faf8d7a0d14c09","651c1c43a64ded2eaf7db52a","null","null","<p style=""font-size: 60px; font-family: BACS"">cDOEBPTl</p>","","","","","","","","",""
"html-keyboard-response","171","280131","0.0-12.0-0.1","5f350f459bf003464a03ea5e","650c16f0f2faf8d7a0d14c09","651c1c43a64ded2eaf7db52a","null","null","<p style=""font-size: 60px; font-family: BACS"">DRPkYOMC</p>","","","","","","","","",""
"html-keyboard-response","172","281145","0.0-12.0-0.2","5f350f459bf003464a03ea5e","650c16f0f2faf8d7a0d14c09","651c1c43a64ded2eaf7db52a","null","null","<p style=""font-size: 60px; font-family: BACS"">vYLUQvlZ</p>","","","","","","","","",""
"html-keyboard-response","173","282156","0.0-12.0-0.3","5f350f459bf003464a03ea5e","650c16f0f2faf8d7a0d14c09","651c1c43a64ded2eaf7db52a","null","null","<p style=""font-size: 60px; font-family: BACS"">OAmAdTbk</p>","","","","","","","","",""
"html-keyboard-response","174","283169","0.0-12.0-0.4","5f350f459bf003464a03ea5e","650c16f0f2faf8d7a0d14c09","651c1c43a64ded2eaf7db52a","null","null","<p style=""font-size: 60px; font-family: BACS"">aONdcUN</p>","","","","","","","","",""
"html-keyboard-response","175","284176","0.0-12.0-0.5","5f350f459bf003464a03ea5e","650c16f0f2faf8d7a0d14c09","651c1c43a64ded2eaf7db52a","null","null","<p style=""font-size: 60px; font-family: BACS"">DRPkYTbk</p>","","","","","","","","",""
"html-keyboard-response","176","285185","0.0-12.0-0.6","5f350f459bf003464a03ea5e","650c16f0f2faf8d7a0d14c09","651c1c43a64ded2eaf7db52a","null","null","<p style=""font-size: 60px; font-family: BACS"">vclYcUN</p>","","","","","","","","",""
"html-keyboard-response","177","286194","0.0-12.0-0.7","5f350f459bf003464a03ea5e","650c16f0f2faf8d7a0d14c09","651c1c43a64ded2eaf7db52a","null","null","<p style=""font-size: 60px; font-family: BACS"">cDOEBhBK</p>","","","","","","","","",""
"html-keyboard-response","178","287200","0.0-12.0-0.8","5f350f459bf003464a03ea5e","650c16f0f2faf8d7a0d14c09","651c1c43a64ded2eaf7db52a","null","null","<p style=""font-size: 60px; font-family: BACS"">bvuZlLG</p>","","","","","","","","",""
"html-keyboard-response","179","288208","0.0-12.0-0.9","5f350f459bf003464a03ea5e","650c16f0f2faf8d7a0d14c09","651c1c43a64ded2eaf7db52a","null","null","<p style=""font-size: 60px; font-family: BACS"">advYOQvlZ</p>","","","","","","","","",""
"html-keyboard-response","180","289215","0.0-12.0-0.10","5f350f459bf003464a03ea5e","650c16f0f2faf8d7a0d14c09","651c1c43a64ded2eaf7db52a","null","null","<p style=""font-size: 60px; font-family: BACS"">BECkTbk</p>","","","","","","","","",""
"html-keyboard-response","181","290223","0.0-12.0-0.11","5f350f459bf003464a03ea5e","650c16f0f2faf8d7a0d14c09","651c1c43a64ded2eaf7db52a","null","null","<p style=""font-size: 60px; font-family: BACS"">TbKMEPTl</p>","","","","","","","","",""
"html-keyboard-response","182","291230","0.0-12.0-0.12","5f350f459bf003464a03ea5e","650c16f0f2faf8d7a0d14c09","651c1c43a64ded2eaf7db52a","null","null","<p style=""font-size: 60px; font-family: BACS"">CDEmYhBK</p>","","","","","","","","",""
"html-keyboard-response","183","292244","0.0-12.0-0.13","5f350f459bf003464a03ea5e","650c16f0f2faf8d7a0d14c09","651c1c43a64ded2eaf7db52a","null","null","<p style=""font-size: 60px; font-family: BACS"">bcbMTbk</p>","","","","","","","","",""
"html-keyboard-response","184","293252","0.0-12.0-0.14","5f350f459bf003464a03ea5e","650c16f0f2faf8d7a0d14c09","651c1c43a64ded2eaf7db52a","null","null","<p style=""font-size: 60px; font-family: BACS"">bvuZQvlZ</p>","","","","","","","","",""
"html-keyboard-response","185","294257","0.0-12.0-0.15","5f350f459bf003464a03ea5e","650c16f0f2faf8d7a0d14c09","651c1c43a64ded2eaf7db52a","null","null","<p style=""font-size: 60px; font-family: BACS"">CDEmYTbk</p>","","","","","","","","",""
"html-keyboard-response","186","295266","0.0-12.0-0.16","5f350f459bf003464a03ea5e","650c16f0f2faf8d7a0d14c09","651c1c43a64ded2eaf7db52a","null","null","<p style=""font-size: 60px; font-family: BACS"">bcbMOMC</p>","","","","","","","","",""
"html-keyboard-response","187","296272","0.0-12.0-0.17","5f350f459bf003464a03ea5e","650c16f0f2faf8d7a0d14c09","651c1c43a64ded2eaf7db52a","null","null","<p style=""font-size: 60px; font-family: BACS"">BECkhBK</p>","","","","","","","","",""
"html-keyboard-response","188","297284","0.0-12.0-0.18","5f350f459bf003464a03ea5e","650c16f0f2faf8d7a0d14c09","651c1c43a64ded2eaf7db52a","null","null","<p style=""font-size: 60px; font-family: BACS"">bmbNQvlZ</p>","","","","","","","","",""
"html-keyboard-response","189","298290","0.0-12.0-0.19","5f350f459bf003464a03ea5e","650c16f0f2faf8d7a0d14c09","651c1c43a64ded2eaf7db52a","null","null","<p style=""font-size: 60px; font-family: BACS"">OAmAdOMC</p>","","","","","","","","",""
"html-keyboard-response","190","299300","0.0-12.0-0.20","5f350f459bf003464a03ea5e","650c16f0f2faf8d7a0d14c09","651c1c43a64ded2eaf7db52a","null","null","<p style=""font-size: 60px; font-family: BACS"">TbKMEcDR</p>","","","","","","","","",""
"html-keyboard-response","191","300315","0.0-12.0-0.21","5f350f459bf003464a03ea5e","650c16f0f2faf8d7a0d14c09","651c1c43a64ded2eaf7db52a","null","null","<p style=""font-size: 60px; font-family: BACS"">aONdQvlZ</p>","","","","","","","","",""
"html-keyboard-response","192","301322","0.0-12.0-0.22","5f350f459bf003464a03ea5e","650c16f0f2faf8d7a0d14c09","651c1c43a64ded2eaf7db52a","null","null","<p style=""font-size: 60px; font-family: BACS"">rkYLrGl</p>","","","","","","","","",""
"html-keyboard-response","193","302327","0.0-12.0-0.23","5f350f459bf003464a03ea5e","650c16f0f2faf8d7a0d14c09","651c1c43a64ded2eaf7db52a","null","null","<p style=""font-size: 60px; font-family: BACS"">ODBDAhBK</p>","","","","","","","","",""
"html-keyboard-response","194","303332","0.0-12.0-0.24","5f350f459bf003464a03ea5e","650c16f0f2faf8d7a0d14c09","651c1c43a64ded2eaf7db52a","null","null","<p style=""font-size: 60px; font-family: BACS"">vclYQvlZ</p>","","","","","","","","",""
"html-keyboard-response","195","304348","0.0-12.0-0.25","5f350f459bf003464a03ea5e","650c16f0f2faf8d7a0d14c09","651c1c43a64ded2eaf7db52a","null","null","<p style=""font-size: 60px; font-family: BACS"">CDEmYPTl</p>","","","","","","","","",""
"html-keyboard-response","196","305357","0.0-12.0-0.26","5f350f459bf003464a03ea5e","650c16f0f2faf8d7a0d14c09","651c1c43a64ded2eaf7db52a","null","null","<p style=""font-size: 60px; font-family: BACS"">UaZmacUN</p>","","","","","","","","",""
"html-keyboard-response","197","306368","0.0-12.0-0.27","5f350f459bf003464a03ea5e","650c16f0f2faf8d7a0d14c09","651c1c43a64ded2eaf7db52a","null","null","<p style=""font-size: 60px; font-family: BACS"">MBKRETbk</p>","","","","","","","","",""
"html-keyboard-response","198","307375","0.0-12.0-0.28","5f350f459bf003464a03ea5e","650c16f0f2faf8d7a0d14c09","651c1c43a64ded2eaf7db52a","null","null","<p style=""font-size: 60px; font-family: BACS"">BECkOMC</p>","","","","","","","","",""
"html-keyboard-response","199","308383","0.0-12.0-0.29","5f350f459bf003464a03ea5e","650c16f0f2faf8d7a0d14c09","651c1c43a64ded2eaf7db52a","null","null","<p style=""font-size: 60px; font-family: BACS"">ODBDAPTl</p>","","","","","","","","",""
"html-keyboard-response","200","309388","0.0-12.0-0.30","5f350f459bf003464a03ea5e","650c16f0f2faf8d7a0d14c09","651c1c43a64ded2eaf7db52a","null","null","<p style=""font-size: 60px; font-family: BACS"">dRbDbTbk</p>","","","","","","","","",""
"html-keyboard-response","201","310403","0.0-12.0-0.31","5f350f459bf003464a03ea5e","650c16f0f2faf8d7a0d14c09","651c1c43a64ded2eaf7db52a","null","null","<p style=""font-size: 60px; font-family: BACS"">vclYlLG</p>","","","","","","","","",""
"html-keyboard-response","202","311415","0.0-12.0-0.32","5f350f459bf003464a03ea5e","650c16f0f2faf8d7a0d14c09","651c1c43a64ded2eaf7db52a","null","null","<p style=""font-size: 60px; font-family: BACS"">vYLUcUN</p>","","","","","","","","",""
"html-keyboard-response","203","312426","0.0-12.0-0.33","5f350f459bf003464a03ea5e","650c16f0f2faf8d7a0d14c09","651c1c43a64ded2eaf7db52a","null","null","<p style=""font-size: 60px; font-family: BACS"">bcbMPTl</p>","","","","","","","","",""
"html-keyboard-response","204","313436","0.0-12.0-0.34","5f350f459bf003464a03ea5e","650c16f0f2faf8d7a0d14c09","651c1c43a64ded2eaf7db52a","null","null","<p style=""font-size: 60px; font-family: BACS"">bmbNcUN</p>","","","","","","","","",""
"html-keyboard-response","205","314450","0.0-12.0-0.35","5f350f459bf003464a03ea5e","650c16f0f2faf8d7a0d14c09","651c1c43a64ded2eaf7db52a","null","null","<p style=""font-size: 60px; font-family: BACS"">bvuZGrbk</p>","","","","","","","","",""
"html-keyboard-response","206","315461","0.0-12.0-0.36","5f350f459bf003464a03ea5e","650c16f0f2faf8d7a0d14c09","651c1c43a64ded2eaf7db52a","null","null","<p style=""font-size: 60px; font-family: BACS"">lYrualLG</p>","","","","","","","","",""
"html-keyboard-response","207","316476","0.0-12.0-0.37","5f350f459bf003464a03ea5e","650c16f0f2faf8d7a0d14c09","651c1c43a64ded2eaf7db52a","null","null","<p style=""font-size: 60px; font-family: BACS"">bcbMhBK</p>","","","","","","","","",""
"html-keyboard-response","208","317489","0.0-12.0-0.38","5f350f459bf003464a03ea5e","650c16f0f2faf8d7a0d14c09","651c1c43a64ded2eaf7db52a","null","null","<p style=""font-size: 60px; font-family: BACS"">DRPkYcDR</p>","","","","","","","","",""
"html-keyboard-response","209","318497","0.0-12.0-0.39","5f350f459bf003464a03ea5e","650c16f0f2faf8d7a0d14c09","651c1c43a64ded2eaf7db52a","null","null","<p style=""font-size: 60px; font-family: BACS"">vYLUlLG</p>","","","","","","","","",""
"html-keyboard-response","210","319510","0.0-12.0-0.40","5f350f459bf003464a03ea5e","650c16f0f2faf8d7a0d14c09","651c1c43a64ded2eaf7db52a","null","null","<p style=""font-size: 60px; font-family: BACS"">cDOEBOMC</p>","","","","","","","","",""
"html-keyboard-response","211","320525","0.0-12.0-0.41","5f350f459bf003464a03ea5e","650c16f0f2faf8d7a0d14c09","651c1c43a64ded2eaf7db52a","null","null","<p style=""font-size: 60px; font-family: BACS"">OAmAdcDR</p>","","","","","","","","",""
"html-keyboard-response","212","321526","0.0-12.0-0.42","5f350f459bf003464a03ea5e","650c16f0f2faf8d7a0d14c09","651c1c43a64ded2eaf7db52a","null","null","<p style=""font-size: 60px; font-family: BACS"">UaZmarGl</p>","","","","","","","","",""
"html-keyboard-response","213","322532","0.0-12.0-0.43","5f350f459bf003464a03ea5e","650c16f0f2faf8d7a0d14c09","651c1c43a64ded2eaf7db52a","null","null","<p style=""font-size: 60px; font-family: BACS"">vclYGrbk</p>","","","","","","","","",""
"html-keyboard-response","214","323543","0.0-12.0-0.44","5f350f459bf003464a03ea5e","650c16f0f2faf8d7a0d14c09","651c1c43a64ded2eaf7db52a","null","null","<p style=""font-size: 60px; font-family: BACS"">advYOrGl</p>","","","","","","","","",""
"html-keyboard-response","215","324555","0.0-12.0-0.45","5f350f459bf003464a03ea5e","650c16f0f2faf8d7a0d14c09","651c1c43a64ded2eaf7db52a","null","null","<p style=""font-size: 60px; font-family: BACS"">rkYLcUN</p>","","","","","","","","",""
"html-keyboard-response","216","325568","0.0-12.0-0.46","5f350f459bf003464a03ea5e","650c16f0f2faf8d7a0d14c09","651c1c43a64ded2eaf7db52a","null","null","<p style=""font-size: 60px; font-family: BACS"">dRbDbhBK</p>","","","","","","","","",""
"html-keyboard-response","217","326574","0.0-12.0-0.47","5f350f459bf003464a03ea5e","650c16f0f2faf8d7a0d14c09","651c1c43a64ded2eaf7db52a","null","null","<p style=""font-size: 60px; font-family: BACS"">bmbNGrbk</p>","","","","","","","","",""
"html-keyboard-response","218","327585","0.0-12.0-0.48","5f350f459bf003464a03ea5e","650c16f0f2faf8d7a0d14c09","651c1c43a64ded2eaf7db52a","null","null","<p style=""font-size: 60px; font-family: BACS"">kdaAJlLG</p>","","","","","","","","",""
"html-keyboard-response","219","328590","0.0-12.0-0.49","5f350f459bf003464a03ea5e","650c16f0f2faf8d7a0d14c09","651c1c43a64ded2eaf7db52a","null","null","<p style=""font-size: 60px; font-family: BACS"">UaZmaGrbk</p>","","","","","","","","",""
"html-keyboard-response","220","329602","0.0-12.0-0.50","5f350f459bf003464a03ea5e","650c16f0f2faf8d7a0d14c09","651c1c43a64ded2eaf7db52a","null","null","<p style=""font-size: 60px; font-family: BACS"">DRPkYPTl</p>","","","","","","","","",""
"html-keyboard-response","221","330611","0.0-12.0-0.51","5f350f459bf003464a03ea5e","650c16f0f2faf8d7a0d14c09","651c1c43a64ded2eaf7db52a","null","null","<p style=""font-size: 60px; font-family: BACS"">lYruarGl</p>","","","","","","","","",""
"html-keyboard-response","222","331622","0.0-12.0-0.52","5f350f459bf003464a03ea5e","650c16f0f2faf8d7a0d14c09","651c1c43a64ded2eaf7db52a","null","null","<p style=""font-size: 60px; font-family: BACS"">ODBDAOMC</p>","","","","","","","","",""
"html-keyboard-response","223","332633","0.0-12.0-0.53","5f350f459bf003464a03ea5e","650c16f0f2faf8d7a0d14c09","651c1c43a64ded2eaf7db52a","null","null","<p style=""font-size: 60px; font-family: BACS"">MBKREcDR</p>","","","","","","","","",""
"html-keyboard-response","224","333643","0.0-12.0-0.54","5f350f459bf003464a03ea5e","650c16f0f2faf8d7a0d14c09","651c1c43a64ded2eaf7db52a","null","null","<p style=""font-size: 60px; font-family: BACS"">vYLUrGl</p>","","","","","","","","",""
"html-keyboard-response","225","334657","0.0-12.0-0.55","5f350f459bf003464a03ea5e","650c16f0f2faf8d7a0d14c09","651c1c43a64ded2eaf7db52a","null","null","<p style=""font-size: 60px; font-family: BACS"">MBKREOMC</p>","","","","","","","","",""
"html-keyboard-response","226","335671","0.0-12.0-0.56","5f350f459bf003464a03ea5e","650c16f0f2faf8d7a0d14c09","651c1c43a64ded2eaf7db52a","null","null","<p style=""font-size: 60px; font-family: BACS"">lYruaGrbk</p>","","","","","","","","",""
"html-keyboard-response","227","336681","0.0-12.0-0.57","5f350f459bf003464a03ea5e","650c16f0f2faf8d7a0d14c09","651c1c43a64ded2eaf7db52a","null","null","<p style=""font-size: 60px; font-family: BACS"">bmbNrGl</p>","","","","","","","","",""
"html-keyboard-response","228","337690","0.0-12.0-0.58","5f350f459bf003464a03ea5e","650c16f0f2faf8d7a0d14c09","651c1c43a64ded2eaf7db52a","null","null","<p style=""font-size: 60px; font-family: BACS"">aONdlLG</p>","","","","","","","","",""
"html-keyboard-response","229","338696","0.0-12.0-0.59","5f350f459bf003464a03ea5e","650c16f0f2faf8d7a0d14c09","651c1c43a64ded2eaf7db52a","null","null","<p style=""font-size: 60px; font-family: BACS"">dRbDbcDR</p>","","","","","","","","",""
"html-keyboard-response","230","339705","0.0-12.0-0.60","5f350f459bf003464a03ea5e","650c16f0f2faf8d7a0d14c09","651c1c43a64ded2eaf7db52a","null","null","<p style=""font-size: 60px; font-family: BACS"">kdaAJQvlZ</p>","","","","","","","","",""
"html-keyboard-response","231","340713","0.0-12.0-0.61","5f350f459bf003464a03ea5e","650c16f0f2faf8d7a0d14c09","651c1c43a64ded2eaf7db52a","null","null","<p style=""font-size: 60px; font-family: BACS"">TbKMETbk</p>","","","","","","","","",""
"html-keyboard-response","232","341721","0.0-12.0-0.62","5f350f459bf003464a03ea5e","650c16f0f2faf8d7a0d14c09","651c1c43a64ded2eaf7db52a","null","null","<p style=""font-size: 60px; font-family: BACS"">dRbDbOMC</p>","","","","","","","","",""
"html-keyboard-response","233","342727","0.0-12.0-0.63","5f350f459bf003464a03ea5e","650c16f0f2faf8d7a0d14c09","651c1c43a64ded2eaf7db52a","null","null","<p style=""font-size: 60px; font-family: BACS"">aONdrGl</p>","","","","","","","","",""
"html-keyboard-response","234","343734","0.0-12.0-0.64","5f350f459bf003464a03ea5e","650c16f0f2faf8d7a0d14c09","651c1c43a64ded2eaf7db52a","null","null","<p style=""font-size: 60px; font-family: BACS"">BECkPTl</p>","","","","","","","","",""
"html-keyboard-response","235","344743","0.0-12.0-0.65","5f350f459bf003464a03ea5e","650c16f0f2faf8d7a0d14c09","651c1c43a64ded2eaf7db52a","null","null","<p style=""font-size: 60px; font-family: BACS"">kdaAJGrbk</p>","","","","","","","","",""
"html-keyboard-response","236","345754","0.0-12.0-0.66","5f350f459bf003464a03ea5e","650c16f0f2faf8d7a0d14c09","651c1c43a64ded2eaf7db52a","null","null","<p style=""font-size: 60px; font-family: BACS"">MBKREPTl</p>","","","","","","","","",""
"html-keyboard-response","237","346761","0.0-12.0-0.67","5f350f459bf003464a03ea5e","650c16f0f2faf8d7a0d14c09","651c1c43a64ded2eaf7db52a","null","null","<p style=""font-size: 60px; font-family: BACS"">kdaAJcUN</p>","","","","","","","","",""
"html-keyboard-response","238","347764","0.0-12.0-0.68","5f350f459bf003464a03ea5e","650c16f0f2faf8d7a0d14c09","651c1c43a64ded2eaf7db52a","null","null","<p style=""font-size: 60px; font-family: BACS"">UaZmaQvlZ</p>","","","","","","","","",""
"html-keyboard-response","239","348773","0.0-12.0-0.69","5f350f459bf003464a03ea5e","650c16f0f2faf8d7a0d14c09","651c1c43a64ded2eaf7db52a","null","null","<p style=""font-size: 60px; font-family: BACS"">advYOlLG</p>","","","","","","","","",""
"html-keyboard-response","240","349784","0.0-12.0-0.70","5f350f459bf003464a03ea5e","650c16f0f2faf8d7a0d14c09","651c1c43a64ded2eaf7db52a","null","null","<p style=""font-size: 60px; font-family: BACS"">rkYLGrbk</p>","","","","","","","","",""
"html-keyboard-response","241","350794","0.0-12.0-0.71","5f350f459bf003464a03ea5e","650c16f0f2faf8d7a0d14c09","651c1c43a64ded2eaf7db52a","null","null","<p style=""font-size: 60px; font-family: BACS"">lYruacUN</p>","","","","","","","","",""
"html-keyboard-response","242","351809","0.0-12.0-0.72","5f350f459bf003464a03ea5e","650c16f0f2faf8d7a0d14c09","651c1c43a64ded2eaf7db52a","null","null","<p style=""font-size: 60px; font-family: BACS"">cDOEBcDR</p>","","","","","","","","",""
"html-keyboard-response","243","352817","0.0-12.0-0.73","5f350f459bf003464a03ea5e","650c16f0f2faf8d7a0d14c09","651c1c43a64ded2eaf7db52a","null","null","<p style=""font-size: 60px; font-family: BACS"">advYOGrbk</p>","","","","","","","","",""
"html-keyboard-response","244","353826","0.0-12.0-0.74","5f350f459bf003464a03ea5e","650c16f0f2faf8d7a0d14c09","651c1c43a64ded2eaf7db52a","null","null","<p style=""font-size: 60px; font-family: BACS"">TbKMEhBK</p>","","","","","","","","",""
"html-keyboard-response","245","354834","0.0-12.0-0.75","5f350f459bf003464a03ea5e","650c16f0f2faf8d7a0d14c09","651c1c43a64ded2eaf7db52a","null","null","<p style=""font-size: 60px; font-family: BACS"">bvuZrGl</p>","","","","","","","","",""
"html-keyboard-response","246","355844","0.0-12.0-0.76","5f350f459bf003464a03ea5e","650c16f0f2faf8d7a0d14c09","651c1c43a64ded2eaf7db52a","null","null","<p style=""font-size: 60px; font-family: BACS"">CDEmYcDR</p>","","","","","","","","",""
"html-keyboard-response","247","356855","0.0-12.0-0.77","5f350f459bf003464a03ea5e","650c16f0f2faf8d7a0d14c09","651c1c43a64ded2eaf7db52a","null","null","<p style=""font-size: 60px; font-family: BACS"">rkYLlLG</p>","","","","","","","","",""
"html-keyboard-response","248","357866","0.0-12.0-0.78","5f350f459bf003464a03ea5e","650c16f0f2faf8d7a0d14c09","651c1c43a64ded2eaf7db52a","null","null","<p style=""font-size: 60px; font-family: BACS"">OAmAdhBK</p>","","","","","","","","",""
"html-keyboard-response","249","358875","0.0-12.0-0.79","5f350f459bf003464a03ea5e","650c16f0f2faf8d7a0d14c09","651c1c43a64ded2eaf7db52a","null","null","<p style=""font-size: 60px; font-family: BACS"">ODBDAcDR</p>","","","","","","","","",""
"html-keyboard-response","250","425317","0.0-13.0","5f350f459bf003464a03ea5e","650c16f0f2faf8d7a0d14c09","651c1c43a64ded2eaf7db52a","66442"," ","<p>Great, you've seen the third block of words. You may now take a short break.</p>
      <p>Press the spacebar when you're ready to continue.</p>","","","","","","","","",""
"html-keyboard-response","251","426329","0.0-14.0-0.0","5f350f459bf003464a03ea5e","650c16f0f2faf8d7a0d14c09","651c1c43a64ded2eaf7db52a","null","null","<p style=""font-size: 60px; font-family: BACS"">DRPkYTbk</p>","","","","","","","","",""
"html-keyboard-response","252","427341","0.0-14.0-0.1","5f350f459bf003464a03ea5e","650c16f0f2faf8d7a0d14c09","651c1c43a64ded2eaf7db52a","null","null","<p style=""font-size: 60px; font-family: BACS"">TbKMEhBK</p>","","","","","","","","",""
"html-keyboard-response","253","428352","0.0-14.0-0.2","5f350f459bf003464a03ea5e","650c16f0f2faf8d7a0d14c09","651c1c43a64ded2eaf7db52a","null","null","<p style=""font-size: 60px; font-family: BACS"">vYLUQvlZ</p>","","","","","","","","",""
"html-keyboard-response","254","429366","0.0-14.0-0.3","5f350f459bf003464a03ea5e","650c16f0f2faf8d7a0d14c09","651c1c43a64ded2eaf7db52a","null","null","<p style=""font-size: 60px; font-family: BACS"">MBKRETbk</p>","","","","","","","","",""
"html-keyboard-response","255","430379","0.0-14.0-0.4","5f350f459bf003464a03ea5e","650c16f0f2faf8d7a0d14c09","651c1c43a64ded2eaf7db52a","null","null","<p style=""font-size: 60px; font-family: BACS"">advYOlLG</p>","","","","","","","","",""
"html-keyboard-response","256","431386","0.0-14.0-0.5","5f350f459bf003464a03ea5e","650c16f0f2faf8d7a0d14c09","651c1c43a64ded2eaf7db52a","null","null","<p style=""font-size: 60px; font-family: BACS"">cDOEBhBK</p>","","","","","","","","",""
"html-keyboard-response","257","432392","0.0-14.0-0.6","5f350f459bf003464a03ea5e","650c16f0f2faf8d7a0d14c09","651c1c43a64ded2eaf7db52a","null","null","<p style=""font-size: 60px; font-family: BACS"">bvuZlLG</p>","","","","","","","","",""
"html-keyboard-response","258","433407","0.0-14.0-0.7","5f350f459bf003464a03ea5e","650c16f0f2faf8d7a0d14c09","651c1c43a64ded2eaf7db52a","null","null","<p style=""font-size: 60px; font-family: BACS"">aONdcUN</p>","","","","","","","","",""
"html-keyboard-response","259","434416","0.0-14.0-0.8","5f350f459bf003464a03ea5e","650c16f0f2faf8d7a0d14c09","651c1c43a64ded2eaf7db52a","null","null","<p style=""font-size: 60px; font-family: BACS"">UaZmarGl</p>","","","","","","","","",""
"html-keyboard-response","260","435431","0.0-14.0-0.9","5f350f459bf003464a03ea5e","650c16f0f2faf8d7a0d14c09","651c1c43a64ded2eaf7db52a","null","null","<p style=""font-size: 60px; font-family: BACS"">dRbDbTbk</p>","","","","","","","","",""
"html-keyboard-response","261","436447","0.0-14.0-0.10","5f350f459bf003464a03ea5e","650c16f0f2faf8d7a0d14c09","651c1c43a64ded2eaf7db52a","null","null","<p style=""font-size: 60px; font-family: BACS"">advYOrGl</p>","","","","","","","","",""
"html-keyboard-response","262","437457","0.0-14.0-0.11","5f350f459bf003464a03ea5e","650c16f0f2faf8d7a0d14c09","651c1c43a64ded2eaf7db52a","null","null","<p style=""font-size: 60px; font-family: BACS"">vclYlLG</p>","","","","","","","","",""
"html-keyboard-response","263","438469","0.0-14.0-0.12","5f350f459bf003464a03ea5e","650c16f0f2faf8d7a0d14c09","651c1c43a64ded2eaf7db52a","null","null","<p style=""font-size: 60px; font-family: BACS"">vYLUrGl</p>","","","","","","","","",""
"html-keyboard-response","264","439481","0.0-14.0-0.13","5f350f459bf003464a03ea5e","650c16f0f2faf8d7a0d14c09","651c1c43a64ded2eaf7db52a","null","null","<p style=""font-size: 60px; font-family: BACS"">cDOEBOMC</p>","","","","","","","","",""
"html-keyboard-response","265","440492","0.0-14.0-0.14","5f350f459bf003464a03ea5e","650c16f0f2faf8d7a0d14c09","651c1c43a64ded2eaf7db52a","null","null","<p style=""font-size: 60px; font-family: BACS"">vYLUlLG</p>","","","","","","","","",""
"html-keyboard-response","266","441499","0.0-14.0-0.15","5f350f459bf003464a03ea5e","650c16f0f2faf8d7a0d14c09","651c1c43a64ded2eaf7db52a","null","null","<p style=""font-size: 60px; font-family: BACS"">BECkTbk</p>","","","","","","","","",""
"html-keyboard-response","267","442509","0.0-14.0-0.16","5f350f459bf003464a03ea5e","650c16f0f2faf8d7a0d14c09","651c1c43a64ded2eaf7db52a","null","null","<p style=""font-size: 60px; font-family: BACS"">cDOEBcDR</p>","","","","","","","","",""
"html-keyboard-response","268","443518","0.0-14.0-0.17","5f350f459bf003464a03ea5e","650c16f0f2faf8d7a0d14c09","651c1c43a64ded2eaf7db52a","null","null","<p style=""font-size: 60px; font-family: BACS"">MBKREOMC</p>","","","","","","","","",""
"html-keyboard-response","269","444526","0.0-14.0-0.18","5f350f459bf003464a03ea5e","650c16f0f2faf8d7a0d14c09","651c1c43a64ded2eaf7db52a","null","null","<p style=""font-size: 60px; font-family: BACS"">kdaAJcUN</p>","","","","","","","","",""
"html-keyboard-response","270","445531","0.0-14.0-0.19","5f350f459bf003464a03ea5e","650c16f0f2faf8d7a0d14c09","651c1c43a64ded2eaf7db52a","null","null","<p style=""font-size: 60px; font-family: BACS"">bcbMOMC</p>","","","","","","","","",""
"html-keyboard-response","271","446559","0.0-14.0-0.20","5f350f459bf003464a03ea5e","650c16f0f2faf8d7a0d14c09","651c1c43a64ded2eaf7db52a","null","null","<p style=""font-size: 60px; font-family: BACS"">bmbNGrbk</p>","","","","","","","","",""
"html-keyboard-response","272","447570","0.0-14.0-0.21","5f350f459bf003464a03ea5e","650c16f0f2faf8d7a0d14c09","651c1c43a64ded2eaf7db52a","null","null","<p style=""font-size: 60px; font-family: BACS"">kdaAJQvlZ</p>","","","","","","","","",""
"html-keyboard-response","273","448596","0.0-14.0-0.22","5f350f459bf003464a03ea5e","650c16f0f2faf8d7a0d14c09","651c1c43a64ded2eaf7db52a","null","null","<p style=""font-size: 60px; font-family: BACS"">aONdrGl</p>","","","","","","","","",""
"html-keyboard-response","274","449604","0.0-14.0-0.23","5f350f459bf003464a03ea5e","650c16f0f2faf8d7a0d14c09","651c1c43a64ded2eaf7db52a","null","null","<p style=""font-size: 60px; font-family: BACS"">BECkhBK</p>","","","","","","","","",""
"html-keyboard-response","275","450633","0.0-14.0-0.24","5f350f459bf003464a03ea5e","650c16f0f2faf8d7a0d14c09","651c1c43a64ded2eaf7db52a","null","null","<p style=""font-size: 60px; font-family: BACS"">lYrualLG</p>","","","","","","","","",""
"html-keyboard-response","276","451643","0.0-14.0-0.25","5f350f459bf003464a03ea5e","650c16f0f2faf8d7a0d14c09","651c1c43a64ded2eaf7db52a","null","null","<p style=""font-size: 60px; font-family: BACS"">MBKREcDR</p>","","","","","","","","",""
"html-keyboard-response","277","452675","0.0-14.0-0.26","5f350f459bf003464a03ea5e","650c16f0f2faf8d7a0d14c09","651c1c43a64ded2eaf7db52a","null","null","<p style=""font-size: 60px; font-family: BACS"">kdaAJlLG</p>","","","","","","","","",""
"html-keyboard-response","278","453686","0.0-14.0-0.27","5f350f459bf003464a03ea5e","650c16f0f2faf8d7a0d14c09","651c1c43a64ded2eaf7db52a","null","null","<p style=""font-size: 60px; font-family: BACS"">advYOQvlZ</p>","","","","","","","","",""
"html-keyboard-response","279","454713","0.0-14.0-0.28","5f350f459bf003464a03ea5e","650c16f0f2faf8d7a0d14c09","651c1c43a64ded2eaf7db52a","null","null","<p style=""font-size: 60px; font-family: BACS"">dRbDbhBK</p>","","","","","","","","",""
"html-keyboard-response","280","455728","0.0-14.0-0.29","5f350f459bf003464a03ea5e","650c16f0f2faf8d7a0d14c09","651c1c43a64ded2eaf7db52a","null","null","<p style=""font-size: 60px; font-family: BACS"">aONdlLG</p>","","","","","","","","",""
"html-keyboard-response","281","456757","0.0-14.0-0.30","5f350f459bf003464a03ea5e","650c16f0f2faf8d7a0d14c09","651c1c43a64ded2eaf7db52a","null","null","<p style=""font-size: 60px; font-family: BACS"">CDEmYTbk</p>","","","","","","","","",""
"html-keyboard-response","282","457766","0.0-14.0-0.31","5f350f459bf003464a03ea5e","650c16f0f2faf8d7a0d14c09","651c1c43a64ded2eaf7db52a","null","null","<p style=""font-size: 60px; font-family: BACS"">bvuZQvlZ</p>","","","","","","","","",""
"html-keyboard-response","283","458793","0.0-14.0-0.32","5f350f459bf003464a03ea5e","650c16f0f2faf8d7a0d14c09","651c1c43a64ded2eaf7db52a","null","null","<p style=""font-size: 60px; font-family: BACS"">vclYGrbk</p>","","","","","","","","",""
"html-keyboard-response","284","459802","0.0-14.0-0.33","5f350f459bf003464a03ea5e","650c16f0f2faf8d7a0d14c09","651c1c43a64ded2eaf7db52a","null","null","<p style=""font-size: 60px; font-family: BACS"">BECkPTl</p>","","","","","","","","",""
"html-keyboard-response","285","460816","0.0-14.0-0.34","5f350f459bf003464a03ea5e","650c16f0f2faf8d7a0d14c09","651c1c43a64ded2eaf7db52a","null","null","<p style=""font-size: 60px; font-family: BACS"">OAmAdcDR</p>","","","","","","","","",""
"html-keyboard-response","286","461823","0.0-14.0-0.35","5f350f459bf003464a03ea5e","650c16f0f2faf8d7a0d14c09","651c1c43a64ded2eaf7db52a","null","null","<p style=""font-size: 60px; font-family: BACS"">vYLUcUN</p>","","","","","","","","",""
"html-keyboard-response","287","462830","0.0-14.0-0.36","5f350f459bf003464a03ea5e","650c16f0f2faf8d7a0d14c09","651c1c43a64ded2eaf7db52a","null","null","<p style=""font-size: 60px; font-family: BACS"">lYruaGrbk</p>","","","","","","","","",""
"html-keyboard-response","288","463840","0.0-14.0-0.37","5f350f459bf003464a03ea5e","650c16f0f2faf8d7a0d14c09","651c1c43a64ded2eaf7db52a","null","null","<p style=""font-size: 60px; font-family: BACS"">ODBDAOMC</p>","","","","","","","","",""
"html-keyboard-response","289","464866","0.0-14.0-0.38","5f350f459bf003464a03ea5e","650c16f0f2faf8d7a0d14c09","651c1c43a64ded2eaf7db52a","null","null","<p style=""font-size: 60px; font-family: BACS"">bcbMTbk</p>","","","","","","","","",""
"html-keyboard-response","290","465874","0.0-14.0-0.39","5f350f459bf003464a03ea5e","650c16f0f2faf8d7a0d14c09","651c1c43a64ded2eaf7db52a","null","null","<p style=""font-size: 60px; font-family: BACS"">aONdQvlZ</p>","","","","","","","","",""
"html-keyboard-response","291","466888","0.0-14.0-0.40","5f350f459bf003464a03ea5e","650c16f0f2faf8d7a0d14c09","651c1c43a64ded2eaf7db52a","null","null","<p style=""font-size: 60px; font-family: BACS"">OAmAdhBK</p>","","","","","","","","",""
"html-keyboard-response","292","467896","0.0-14.0-0.41","5f350f459bf003464a03ea5e","650c16f0f2faf8d7a0d14c09","651c1c43a64ded2eaf7db52a","null","null","<p style=""font-size: 60px; font-family: BACS"">bmbNrGl</p>","","","","","","","","",""
"html-keyboard-response","293","468908","0.0-14.0-0.42","5f350f459bf003464a03ea5e","650c16f0f2faf8d7a0d14c09","651c1c43a64ded2eaf7db52a","null","null","<p style=""font-size: 60px; font-family: BACS"">dRbDbcDR</p>","","","","","","","","",""
"html-keyboard-response","294","469922","0.0-14.0-0.43","5f350f459bf003464a03ea5e","650c16f0f2faf8d7a0d14c09","651c1c43a64ded2eaf7db52a","null","null","<p style=""font-size: 60px; font-family: BACS"">advYOGrbk</p>","","","","","","","","",""
"html-keyboard-response","295","470935","0.0-14.0-0.44","5f350f459bf003464a03ea5e","650c16f0f2faf8d7a0d14c09","651c1c43a64ded2eaf7db52a","null","null","<p style=""font-size: 60px; font-family: BACS"">vclYQvlZ</p>","","","","","","","","",""
"html-keyboard-response","296","471946","0.0-14.0-0.45","5f350f459bf003464a03ea5e","650c16f0f2faf8d7a0d14c09","651c1c43a64ded2eaf7db52a","null","null","<p style=""font-size: 60px; font-family: BACS"">rkYLGrbk</p>","","","","","","","","",""
"html-keyboard-response","297","472962","0.0-14.0-0.46","5f350f459bf003464a03ea5e","650c16f0f2faf8d7a0d14c09","651c1c43a64ded2eaf7db52a","null","null","<p style=""font-size: 60px; font-family: BACS"">bmbNQvlZ</p>","","","","","","","","",""
"html-keyboard-response","298","473970","0.0-14.0-0.47","5f350f459bf003464a03ea5e","650c16f0f2faf8d7a0d14c09","651c1c43a64ded2eaf7db52a","null","null","<p style=""font-size: 60px; font-family: BACS"">DRPkYPTl</p>","","","","","","","","",""
"html-keyboard-response","299","474981","0.0-14.0-0.48","5f350f459bf003464a03ea5e","650c16f0f2faf8d7a0d14c09","651c1c43a64ded2eaf7db52a","null","null","<p style=""font-size: 60px; font-family: BACS"">lYruarGl</p>","","","","","","","","",""
"html-keyboard-response","300","475990","0.0-14.0-0.49","5f350f459bf003464a03ea5e","650c16f0f2faf8d7a0d14c09","651c1c43a64ded2eaf7db52a","null","null","<p style=""font-size: 60px; font-family: BACS"">CDEmYcDR</p>","","","","","","","","",""
"html-keyboard-response","301","477001","0.0-14.0-0.50","5f350f459bf003464a03ea5e","650c16f0f2faf8d7a0d14c09","651c1c43a64ded2eaf7db52a","null","null","<p style=""font-size: 60px; font-family: BACS"">DRPkYOMC</p>","","","","","","","","",""
"html-keyboard-response","302","478014","0.0-14.0-0.51","5f350f459bf003464a03ea5e","650c16f0f2faf8d7a0d14c09","651c1c43a64ded2eaf7db52a","null","null","<p style=""font-size: 60px; font-family: BACS"">UaZmaQvlZ</p>","","","","","","","","",""
"html-keyboard-response","303","479020","0.0-14.0-0.52","5f350f459bf003464a03ea5e","650c16f0f2faf8d7a0d14c09","651c1c43a64ded2eaf7db52a","null","null","<p style=""font-size: 60px; font-family: BACS"">kdaAJGrbk</p>","","","","","","","","",""
"html-keyboard-response","304","480029","0.0-14.0-0.53","5f350f459bf003464a03ea5e","650c16f0f2faf8d7a0d14c09","651c1c43a64ded2eaf7db52a","null","null","<p style=""font-size: 60px; font-family: BACS"">rkYLrGl</p>","","","","","","","","",""
"html-keyboard-response","305","481039","0.0-14.0-0.54","5f350f459bf003464a03ea5e","650c16f0f2faf8d7a0d14c09","651c1c43a64ded2eaf7db52a","null","null","<p style=""font-size: 60px; font-family: BACS"">MBKREPTl</p>","","","","","","","","",""
"html-keyboard-response","306","482047","0.0-14.0-0.55","5f350f459bf003464a03ea5e","650c16f0f2faf8d7a0d14c09","651c1c43a64ded2eaf7db52a","null","null","<p style=""font-size: 60px; font-family: BACS"">rkYLlLG</p>","","","","","","","","",""
"html-keyboard-response","307","483053","0.0-14.0-0.56","5f350f459bf003464a03ea5e","650c16f0f2faf8d7a0d14c09","651c1c43a64ded2eaf7db52a","null","null","<p style=""font-size: 60px; font-family: BACS"">bvuZrGl</p>","","","","","","","","",""
"html-keyboard-response","308","484060","0.0-14.0-0.57","5f350f459bf003464a03ea5e","650c16f0f2faf8d7a0d14c09","651c1c43a64ded2eaf7db52a","null","null","<p style=""font-size: 60px; font-family: BACS"">OAmAdTbk</p>","","","","","","","","",""
"html-keyboard-response","309","485066","0.0-14.0-0.58","5f350f459bf003464a03ea5e","650c16f0f2faf8d7a0d14c09","651c1c43a64ded2eaf7db52a","null","null","<p style=""font-size: 60px; font-family: BACS"">UaZmacUN</p>","","","","","","","","",""
"html-keyboard-response","310","486094","0.0-14.0-0.59","5f350f459bf003464a03ea5e","650c16f0f2faf8d7a0d14c09","651c1c43a64ded2eaf7db52a","null","null","<p style=""font-size: 60px; font-family: BACS"">dRbDbOMC</p>","","","","","","","","",""
"html-keyboard-response","311","487105","0.0-14.0-0.60","5f350f459bf003464a03ea5e","650c16f0f2faf8d7a0d14c09","651c1c43a64ded2eaf7db52a","null","null","<p style=""font-size: 60px; font-family: BACS"">ODBDAPTl</p>","","","","","","","","",""
"html-keyboard-response","312","488112","0.0-14.0-0.61","5f350f459bf003464a03ea5e","650c16f0f2faf8d7a0d14c09","651c1c43a64ded2eaf7db52a","null","null","<p style=""font-size: 60px; font-family: BACS"">CDEmYhBK</p>","","","","","","","","",""
"html-keyboard-response","313","489120","0.0-14.0-0.62","5f350f459bf003464a03ea5e","650c16f0f2faf8d7a0d14c09","651c1c43a64ded2eaf7db52a","null","null","<p style=""font-size: 60px; font-family: BACS"">bvuZGrbk</p>","","","","","","","","",""
"html-keyboard-response","314","490129","0.0-14.0-0.63","5f350f459bf003464a03ea5e","650c16f0f2faf8d7a0d14c09","651c1c43a64ded2eaf7db52a","null","null","<p style=""font-size: 60px; font-family: BACS"">bcbMPTl</p>","","","","","","","","",""
"html-keyboard-response","315","491138","0.0-14.0-0.64","5f350f459bf003464a03ea5e","650c16f0f2faf8d7a0d14c09","651c1c43a64ded2eaf7db52a","null","null","<p style=""font-size: 60px; font-family: BACS"">UaZmaGrbk</p>","","","","","","","","",""
"html-keyboard-response","316","492148","0.0-14.0-0.65","5f350f459bf003464a03ea5e","650c16f0f2faf8d7a0d14c09","651c1c43a64ded2eaf7db52a","null","null","<p style=""font-size: 60px; font-family: BACS"">vclYcUN</p>","","","","","","","","",""
"html-keyboard-response","317","493150","0.0-14.0-0.66","5f350f459bf003464a03ea5e","650c16f0f2faf8d7a0d14c09","651c1c43a64ded2eaf7db52a","null","null","<p style=""font-size: 60px; font-family: BACS"">bcbMhBK</p>","","","","","","","","",""
"html-keyboard-response","318","494162","0.0-14.0-0.67","5f350f459bf003464a03ea5e","650c16f0f2faf8d7a0d14c09","651c1c43a64ded2eaf7db52a","null","null","<p style=""font-size: 60px; font-family: BACS"">TbKMEPTl</p>","","","","","","","","",""
"html-keyboard-response","319","495173","0.0-14.0-0.68","5f350f459bf003464a03ea5e","650c16f0f2faf8d7a0d14c09","651c1c43a64ded2eaf7db52a","null","null","<p style=""font-size: 60px; font-family: BACS"">lYruacUN</p>","","","","","","","","",""
"html-keyboard-response","320","496186","0.0-14.0-0.69","5f350f459bf003464a03ea5e","650c16f0f2faf8d7a0d14c09","651c1c43a64ded2eaf7db52a","null","null","<p style=""font-size: 60px; font-family: BACS"">cDOEBPTl</p>","","","","","","","","",""
"html-keyboard-response","321","497197","0.0-14.0-0.70","5f350f459bf003464a03ea5e","650c16f0f2faf8d7a0d14c09","651c1c43a64ded2eaf7db52a","null","null","<p style=""font-size: 60px; font-family: BACS"">ODBDAcDR</p>","","","","","","","","",""
"html-keyboard-response","322","498203","0.0-14.0-0.71","5f350f459bf003464a03ea5e","650c16f0f2faf8d7a0d14c09","651c1c43a64ded2eaf7db52a","null","null","<p style=""font-size: 60px; font-family: BACS"">BECkOMC</p>","","","","","","","","",""
"html-keyboard-response","323","499214","0.0-14.0-0.72","5f350f459bf003464a03ea5e","650c16f0f2faf8d7a0d14c09","651c1c43a64ded2eaf7db52a","null","null","<p style=""font-size: 60px; font-family: BACS"">ODBDAhBK</p>","","","","","","","","",""
"html-keyboard-response","324","500219","0.0-14.0-0.73","5f350f459bf003464a03ea5e","650c16f0f2faf8d7a0d14c09","651c1c43a64ded2eaf7db52a","null","null","<p style=""font-size: 60px; font-family: BACS"">TbKMETbk</p>","","","","","","","","",""
"html-keyboard-response","325","501229","0.0-14.0-0.74","5f350f459bf003464a03ea5e","650c16f0f2faf8d7a0d14c09","651c1c43a64ded2eaf7db52a","null","null","<p style=""font-size: 60px; font-family: BACS"">OAmAdOMC</p>","","","","","","","","",""
"html-keyboard-response","326","502245","0.0-14.0-0.75","5f350f459bf003464a03ea5e","650c16f0f2faf8d7a0d14c09","651c1c43a64ded2eaf7db52a","null","null","<p style=""font-size: 60px; font-family: BACS"">rkYLcUN</p>","","","","","","","","",""
"html-keyboard-response","327","503254","0.0-14.0-0.76","5f350f459bf003464a03ea5e","650c16f0f2faf8d7a0d14c09","651c1c43a64ded2eaf7db52a","null","null","<p style=""font-size: 60px; font-family: BACS"">CDEmYPTl</p>","","","","","","","","",""
"html-keyboard-response","328","504267","0.0-14.0-0.77","5f350f459bf003464a03ea5e","650c16f0f2faf8d7a0d14c09","651c1c43a64ded2eaf7db52a","null","null","<p style=""font-size: 60px; font-family: BACS"">DRPkYcDR</p>","","","","","","","","",""
"html-keyboard-response","329","505273","0.0-14.0-0.78","5f350f459bf003464a03ea5e","650c16f0f2faf8d7a0d14c09","651c1c43a64ded2eaf7db52a","null","null","<p style=""font-size: 60px; font-family: BACS"">bmbNcUN</p>","","","","","","","","",""
"html-keyboard-response","330","506300","0.0-14.0-0.79","5f350f459bf003464a03ea5e","650c16f0f2faf8d7a0d14c09","651c1c43a64ded2eaf7db52a","null","null","<p style=""font-size: 60px; font-family: BACS"">TbKMEcDR</p>","","","","","","","","",""
"html-keyboard-response","331","555474","0.0-15.0","5f350f459bf003464a03ea5e","650c16f0f2faf8d7a0d14c09","651c1c43a64ded2eaf7db52a","49173"," ","<p>Great, you've seen the fourth block of words. You may now take a short break.</p>
      <p>Press the spacebar when you're ready to continue.</p>","","","","","","","","",""
"html-keyboard-response","332","556476","0.0-16.0-0.0","5f350f459bf003464a03ea5e","650c16f0f2faf8d7a0d14c09","651c1c43a64ded2eaf7db52a","null","null","<p style=""font-size: 60px; font-family: BACS"">ODBDAOMC</p>","","","","","","","","",""
"html-keyboard-response","333","557484","0.0-16.0-0.1","5f350f459bf003464a03ea5e","650c16f0f2faf8d7a0d14c09","651c1c43a64ded2eaf7db52a","null","null","<p style=""font-size: 60px; font-family: BACS"">ODBDAOMC</p>","","","","","","","","",""
"html-keyboard-response","334","558493","0.0-16.0-0.2","5f350f459bf003464a03ea5e","650c16f0f2faf8d7a0d14c09","651c1c43a64ded2eaf7db52a","null","null","<p style=""font-size: 60px; font-family: BACS"">ODBDAOMC</p>","","","","","","","","",""
"html-keyboard-response","335","559501","0.0-16.0-0.3","5f350f459bf003464a03ea5e","650c16f0f2faf8d7a0d14c09","651c1c43a64ded2eaf7db52a","null","null","<p style=""font-size: 60px; font-family: BACS"">ODBDAOMC</p>","","","","","","","","",""
"html-keyboard-response","336","560508","0.0-16.0-0.4","5f350f459bf003464a03ea5e","650c16f0f2faf8d7a0d14c09","651c1c43a64ded2eaf7db52a","null","null","<p style=""font-size: 60px; font-family: BACS"">ODBDAOMC</p>","","","","","","","","",""
"html-keyboard-response","337","561519","0.0-16.0-0.5","5f350f459bf003464a03ea5e","650c16f0f2faf8d7a0d14c09","651c1c43a64ded2eaf7db52a","null","null","<p style=""font-size: 60px; font-family: BACS"">ODBDAOMC</p>","","","","","","","","",""
"html-keyboard-response","338","562526","0.0-16.0-0.6","5f350f459bf003464a03ea5e","650c16f0f2faf8d7a0d14c09","651c1c43a64ded2eaf7db52a","null","null","<p style=""font-size: 60px; font-family: BACS"">ODBDAOMC</p>","","","","","","","","",""
"html-keyboard-response","339","563534","0.0-16.0-0.7","5f350f459bf003464a03ea5e","650c16f0f2faf8d7a0d14c09","651c1c43a64ded2eaf7db52a","null","null","<p style=""font-size: 60px; font-family: BACS"">ODBDAOMC</p>","","","","","","","","",""
"html-keyboard-response","340","564546","0.0-16.0-0.8","5f350f459bf003464a03ea5e","650c16f0f2faf8d7a0d14c09","651c1c43a64ded2eaf7db52a","null","null","<p style=""font-size: 60px; font-family: BACS"">ODBDAOMC</p>","","","","","","","","",""
"html-keyboard-response","341","565559","0.0-16.0-0.9","5f350f459bf003464a03ea5e","650c16f0f2faf8d7a0d14c09","651c1c43a64ded2eaf7db52a","null","null","<p style=""font-size: 60px; font-family: BACS"">ODBDAOMC</p>","","","","","","","","",""
"html-keyboard-response","342","566569","0.0-16.0-0.10","5f350f459bf003464a03ea5e","650c16f0f2faf8d7a0d14c09","651c1c43a64ded2eaf7db52a","null","null","<p style=""font-size: 60px; font-family: BACS"">ODBDAOMC</p>","","","","","","","","",""
"html-keyboard-response","343","567576","0.0-16.0-0.11","5f350f459bf003464a03ea5e","650c16f0f2faf8d7a0d14c09","651c1c43a64ded2eaf7db52a","null","null","<p style=""font-size: 60px; font-family: BACS"">ODBDAOMC</p>","","","","","","","","",""
"html-keyboard-response","344","568586","0.0-16.0-0.12","5f350f459bf003464a03ea5e","650c16f0f2faf8d7a0d14c09","651c1c43a64ded2eaf7db52a","null","null","<p style=""font-size: 60px; font-family: BACS"">ODBDAOMC</p>","","","","","","","","",""
"html-keyboard-response","345","569599","0.0-16.0-0.13","5f350f459bf003464a03ea5e","650c16f0f2faf8d7a0d14c09","651c1c43a64ded2eaf7db52a","null","null","<p style=""font-size: 60px; font-family: BACS"">ODBDAOMC</p>","","","","","","","","",""
"html-keyboard-response","346","570610","0.0-16.0-0.14","5f350f459bf003464a03ea5e","650c16f0f2faf8d7a0d14c09","651c1c43a64ded2eaf7db52a","null","null","<p style=""font-size: 60px; font-family: BACS"">ODBDAOMC</p>","","","","","","","","",""
"html-keyboard-response","347","571624","0.0-16.0-0.15","5f350f459bf003464a03ea5e","650c16f0f2faf8d7a0d14c09","651c1c43a64ded2eaf7db52a","null","null","<p style=""font-size: 60px; font-family: BACS"">ODBDAOMC</p>","","","","","","","","",""
"html-keyboard-response","348","572637","0.0-16.0-0.16","5f350f459bf003464a03ea5e","650c16f0f2faf8d7a0d14c09","651c1c43a64ded2eaf7db52a","null","null","<p style=""font-size: 60px; font-family: BACS"">ODBDAOMC</p>","","","","","","","","",""
"html-keyboard-response","349","573649","0.0-16.0-0.17","5f350f459bf003464a03ea5e","650c16f0f2faf8d7a0d14c09","651c1c43a64ded2eaf7db52a","null","null","<p style=""font-size: 60px; font-family: BACS"">ODBDAOMC</p>","","","","","","","","",""
"html-keyboard-response","350","574657","0.0-16.0-0.18","5f350f459bf003464a03ea5e","650c16f0f2faf8d7a0d14c09","651c1c43a64ded2eaf7db52a","null","null","<p style=""font-size: 60px; font-family: BACS"">ODBDAOMC</p>","","","","","","","","",""
"html-keyboard-response","351","575664","0.0-16.0-0.19","5f350f459bf003464a03ea5e","650c16f0f2faf8d7a0d14c09","651c1c43a64ded2eaf7db52a","null","null","<p style=""font-size: 60px; font-family: BACS"">ODBDAOMC</p>","","","","","","","","",""
"html-keyboard-response","352","576673","0.0-16.0-0.20","5f350f459bf003464a03ea5e","650c16f0f2faf8d7a0d14c09","651c1c43a64ded2eaf7db52a","null","null","<p style=""font-size: 60px; font-family: BACS"">ODBDAOMC</p>","","","","","","","","",""
"html-keyboard-response","353","577677","0.0-16.0-0.21","5f350f459bf003464a03ea5e","650c16f0f2faf8d7a0d14c09","651c1c43a64ded2eaf7db52a","null","null","<p style=""font-size: 60px; font-family: BACS"">ODBDAOMC</p>","","","","","","","","",""
"html-keyboard-response","354","578684","0.0-16.0-0.22","5f350f459bf003464a03ea5e","650c16f0f2faf8d7a0d14c09","651c1c43a64ded2eaf7db52a","null","null","<p style=""font-size: 60px; font-family: BACS"">ODBDAOMC</p>","","","","","","","","",""
"html-keyboard-response","355","579695","0.0-16.0-0.23","5f350f459bf003464a03ea5e","650c16f0f2faf8d7a0d14c09","651c1c43a64ded2eaf7db52a","null","null","<p style=""font-size: 60px; font-family: BACS"">ODBDAOMC</p>","","","","","","","","",""
"html-keyboard-response","356","580708","0.0-16.0-0.24","5f350f459bf003464a03ea5e","650c16f0f2faf8d7a0d14c09","651c1c43a64ded2eaf7db52a","null","null","<p style=""font-size: 60px; font-family: BACS"">ODBDAOMC</p>","","","","","","","","",""
"html-keyboard-response","357","581723","0.0-16.0-0.25","5f350f459bf003464a03ea5e","650c16f0f2faf8d7a0d14c09","651c1c43a64ded2eaf7db52a","null","null","<p style=""font-size: 60px; font-family: BACS"">ODBDAOMC</p>","","","","","","","","",""
"html-keyboard-response","358","582733","0.0-16.0-0.26","5f350f459bf003464a03ea5e","650c16f0f2faf8d7a0d14c09","651c1c43a64ded2eaf7db52a","null","null","<p style=""font-size: 60px; font-family: BACS"">ODBDAOMC</p>","","","","","","","","",""
"html-keyboard-response","359","583741","0.0-16.0-0.27","5f350f459bf003464a03ea5e","650c16f0f2faf8d7a0d14c09","651c1c43a64ded2eaf7db52a","null","null","<p style=""font-size: 60px; font-family: BACS"">ODBDAOMC</p>","","","","","","","","",""
"html-keyboard-response","360","584753","0.0-16.0-0.28","5f350f459bf003464a03ea5e","650c16f0f2faf8d7a0d14c09","651c1c43a64ded2eaf7db52a","null","null","<p style=""font-size: 60px; font-family: BACS"">ODBDAOMC</p>","","","","","","","","",""
"html-keyboard-response","361","585766","0.0-16.0-0.29","5f350f459bf003464a03ea5e","650c16f0f2faf8d7a0d14c09","651c1c43a64ded2eaf7db52a","null","null","<p style=""font-size: 60px; font-family: BACS"">ODBDAOMC</p>","","","","","","","","",""
"html-keyboard-response","362","586775","0.0-16.0-0.30","5f350f459bf003464a03ea5e","650c16f0f2faf8d7a0d14c09","651c1c43a64ded2eaf7db52a","null","null","<p style=""font-size: 60px; font-family: BACS"">ODBDAOMC</p>","","","","","","","","",""
"html-keyboard-response","363","587777","0.0-16.0-0.31","5f350f459bf003464a03ea5e","650c16f0f2faf8d7a0d14c09","651c1c43a64ded2eaf7db52a","null","null","<p style=""font-size: 60px; font-family: BACS"">ODBDAOMC</p>","","","","","","","","",""
"html-keyboard-response","364","588792","0.0-16.0-0.32","5f350f459bf003464a03ea5e","650c16f0f2faf8d7a0d14c09","651c1c43a64ded2eaf7db52a","null","null","<p style=""font-size: 60px; font-family: BACS"">ODBDAOMC</p>","","","","","","","","",""
"html-keyboard-response","365","589806","0.0-16.0-0.33","5f350f459bf003464a03ea5e","650c16f0f2faf8d7a0d14c09","651c1c43a64ded2eaf7db52a","null","null","<p style=""font-size: 60px; font-family: BACS"">ODBDAOMC</p>","","","","","","","","",""
"html-keyboard-response","366","590819","0.0-16.0-0.34","5f350f459bf003464a03ea5e","650c16f0f2faf8d7a0d14c09","651c1c43a64ded2eaf7db52a","null","null","<p style=""font-size: 60px; font-family: BACS"">ODBDAOMC</p>","","","","","","","","",""
"html-keyboard-response","367","591831","0.0-16.0-0.35","5f350f459bf003464a03ea5e","650c16f0f2faf8d7a0d14c09","651c1c43a64ded2eaf7db52a","null","null","<p style=""font-size: 60px; font-family: BACS"">ODBDAOMC</p>","","","","","","","","",""
"html-keyboard-response","368","592838","0.0-16.0-0.36","5f350f459bf003464a03ea5e","650c16f0f2faf8d7a0d14c09","651c1c43a64ded2eaf7db52a","null","null","<p style=""font-size: 60px; font-family: BACS"">ODBDAOMC</p>","","","","","","","","",""
"html-keyboard-response","369","593850","0.0-16.0-0.37","5f350f459bf003464a03ea5e","650c16f0f2faf8d7a0d14c09","651c1c43a64ded2eaf7db52a","null","null","<p style=""font-size: 60px; font-family: BACS"">ODBDAOMC</p>","","","","","","","","",""
"html-keyboard-response","370","594856","0.0-16.0-0.38","5f350f459bf003464a03ea5e","650c16f0f2faf8d7a0d14c09","651c1c43a64ded2eaf7db52a","null","null","<p style=""font-size: 60px; font-family: BACS"">ODBDAOMC</p>","","","","","","","","",""
"html-keyboard-response","371","595867","0.0-16.0-0.39","5f350f459bf003464a03ea5e","650c16f0f2faf8d7a0d14c09","651c1c43a64ded2eaf7db52a","null","null","<p style=""font-size: 60px; font-family: BACS"">ODBDAOMC</p>","","","","","","","","",""
"html-keyboard-response","372","596870","0.0-16.0-0.40","5f350f459bf003464a03ea5e","650c16f0f2faf8d7a0d14c09","651c1c43a64ded2eaf7db52a","null","null","<p style=""font-size: 60px; font-family: BACS"">ODBDAOMC</p>","","","","","","","","",""
"html-keyboard-response","373","597880","0.0-16.0-0.41","5f350f459bf003464a03ea5e","650c16f0f2faf8d7a0d14c09","651c1c43a64ded2eaf7db52a","null","null","<p style=""font-size: 60px; font-family: BACS"">ODBDAOMC</p>","","","","","","","","",""
"html-keyboard-response","374","598888","0.0-16.0-0.42","5f350f459bf003464a03ea5e","650c16f0f2faf8d7a0d14c09","651c1c43a64ded2eaf7db52a","null","null","<p style=""font-size: 60px; font-family: BACS"">ODBDAOMC</p>","","","","","","","","",""
"html-keyboard-response","375","599895","0.0-16.0-0.43","5f350f459bf003464a03ea5e","650c16f0f2faf8d7a0d14c09","651c1c43a64ded2eaf7db52a","null","null","<p style=""font-size: 60px; font-family: BACS"">ODBDAOMC</p>","","","","","","","","",""
"html-keyboard-response","376","600900","0.0-16.0-0.44","5f350f459bf003464a03ea5e","650c16f0f2faf8d7a0d14c09","651c1c43a64ded2eaf7db52a","null","null","<p style=""font-size: 60px; font-family: BACS"">ODBDAOMC</p>","","","","","","","","",""
"html-keyboard-response","377","601912","0.0-16.0-0.45","5f350f459bf003464a03ea5e","650c16f0f2faf8d7a0d14c09","651c1c43a64ded2eaf7db52a","null","null","<p style=""font-size: 60px; font-family: BACS"">ODBDAOMC</p>","","","","","","","","",""
"html-keyboard-response","378","602925","0.0-16.0-0.46","5f350f459bf003464a03ea5e","650c16f0f2faf8d7a0d14c09","651c1c43a64ded2eaf7db52a","null","null","<p style=""font-size: 60px; font-family: BACS"">ODBDAOMC</p>","","","","","","","","",""
"html-keyboard-response","379","603936","0.0-16.0-0.47","5f350f459bf003464a03ea5e","650c16f0f2faf8d7a0d14c09","651c1c43a64ded2eaf7db52a","null","null","<p style=""font-size: 60px; font-family: BACS"">ODBDAOMC</p>","","","","","","","","",""
"html-keyboard-response","380","604947","0.0-16.0-0.48","5f350f459bf003464a03ea5e","650c16f0f2faf8d7a0d14c09","651c1c43a64ded2eaf7db52a","null","null","<p style=""font-size: 60px; font-family: BACS"">ODBDAOMC</p>","","","","","","","","",""
"html-keyboard-response","381","605958","0.0-16.0-0.49","5f350f459bf003464a03ea5e","650c16f0f2faf8d7a0d14c09","651c1c43a64ded2eaf7db52a","null","null","<p style=""font-size: 60px; font-family: BACS"">ODBDAOMC</p>","","","","","","","","",""
"html-keyboard-response","382","606969","0.0-16.0-0.50","5f350f459bf003464a03ea5e","650c16f0f2faf8d7a0d14c09","651c1c43a64ded2eaf7db52a","null","null","<p style=""font-size: 60px; font-family: BACS"">ODBDAOMC</p>","","","","","","","","",""
"html-keyboard-response","383","607972","0.0-16.0-0.51","5f350f459bf003464a03ea5e","650c16f0f2faf8d7a0d14c09","651c1c43a64ded2eaf7db52a","null","null","<p style=""font-size: 60px; font-family: BACS"">ODBDAOMC</p>","","","","","","","","",""
"html-keyboard-response","384","608981","0.0-16.0-0.52","5f350f459bf003464a03ea5e","650c16f0f2faf8d7a0d14c09","651c1c43a64ded2eaf7db52a","null","null","<p style=""font-size: 60px; font-family: BACS"">ODBDAOMC</p>","","","","","","","","",""
"html-keyboard-response","385","609986","0.0-16.0-0.53","5f350f459bf003464a03ea5e","650c16f0f2faf8d7a0d14c09","651c1c43a64ded2eaf7db52a","null","null","<p style=""font-size: 60px; font-family: BACS"">ODBDAOMC</p>","","","","","","","","",""
"html-keyboard-response","386","611000","0.0-16.0-0.54","5f350f459bf003464a03ea5e","650c16f0f2faf8d7a0d14c09","651c1c43a64ded2eaf7db52a","null","null","<p style=""font-size: 60px; font-family: BACS"">ODBDAOMC</p>","","","","","","","","",""
"html-keyboard-response","387","612006","0.0-16.0-0.55","5f350f459bf003464a03ea5e","650c16f0f2faf8d7a0d14c09","651c1c43a64ded2eaf7db52a","null","null","<p style=""font-size: 60px; font-family: BACS"">ODBDAOMC</p>","","","","","","","","",""
"html-keyboard-response","388","613016","0.0-16.0-0.56","5f350f459bf003464a03ea5e","650c16f0f2faf8d7a0d14c09","651c1c43a64ded2eaf7db52a","null","null","<p style=""font-size: 60px; font-family: BACS"">ODBDAOMC</p>","","","","","","","","",""
"html-keyboard-response","389","614027","0.0-16.0-0.57","5f350f459bf003464a03ea5e","650c16f0f2faf8d7a0d14c09","651c1c43a64ded2eaf7db52a","null","null","<p style=""font-size: 60px; font-family: BACS"">ODBDAOMC</p>","","","","","","","","",""
"html-keyboard-response","390","615034","0.0-16.0-0.58","5f350f459bf003464a03ea5e","650c16f0f2faf8d7a0d14c09","651c1c43a64ded2eaf7db52a","null","null","<p style=""font-size: 60px; font-family: BACS"">ODBDAOMC</p>","","","","","","","","",""
"html-keyboard-response","391","616041","0.0-16.0-0.59","5f350f459bf003464a03ea5e","650c16f0f2faf8d7a0d14c09","651c1c43a64ded2eaf7db52a","null","null","<p style=""font-size: 60px; font-family: BACS"">ODBDAOMC</p>","","","","","","","","",""
"html-keyboard-response","392","617051","0.0-16.0-0.60","5f350f459bf003464a03ea5e","650c16f0f2faf8d7a0d14c09","651c1c43a64ded2eaf7db52a","null","null","<p style=""font-size: 60px; font-family: BACS"">ODBDAOMC</p>","","","","","","","","",""
"html-keyboard-response","393","618054","0.0-16.0-0.61","5f350f459bf003464a03ea5e","650c16f0f2faf8d7a0d14c09","651c1c43a64ded2eaf7db52a","null","null","<p style=""font-size: 60px; font-family: BACS"">ODBDAOMC</p>","","","","","","","","",""
"html-keyboard-response","394","619060","0.0-16.0-0.62","5f350f459bf003464a03ea5e","650c16f0f2faf8d7a0d14c09","651c1c43a64ded2eaf7db52a","null","null","<p style=""font-size: 60px; font-family: BACS"">ODBDAOMC</p>","","","","","","","","",""
"html-keyboard-response","395","620071","0.0-16.0-0.63","5f350f459bf003464a03ea5e","650c16f0f2faf8d7a0d14c09","651c1c43a64ded2eaf7db52a","null","null","<p style=""font-size: 60px; font-family: BACS"">ODBDAOMC</p>","","","","","","","","",""
"html-keyboard-response","396","621074","0.0-16.0-0.64","5f350f459bf003464a03ea5e","650c16f0f2faf8d7a0d14c09","651c1c43a64ded2eaf7db52a","null","null","<p style=""font-size: 60px; font-family: BACS"">ODBDAOMC</p>","","","","","","","","",""
"html-keyboard-response","397","622086","0.0-16.0-0.65","5f350f459bf003464a03ea5e","650c16f0f2faf8d7a0d14c09","651c1c43a64ded2eaf7db52a","null","null","<p style=""font-size: 60px; font-family: BACS"">ODBDAOMC</p>","","","","","","","","",""
"html-keyboard-response","398","623096","0.0-16.0-0.66","5f350f459bf003464a03ea5e","650c16f0f2faf8d7a0d14c09","651c1c43a64ded2eaf7db52a","null","null","<p style=""font-size: 60px; font-family: BACS"">ODBDAOMC</p>","","","","","","","","",""
"html-keyboard-response","399","624104","0.0-16.0-0.67","5f350f459bf003464a03ea5e","650c16f0f2faf8d7a0d14c09","651c1c43a64ded2eaf7db52a","null","null","<p style=""font-size: 60px; font-family: BACS"">ODBDAOMC</p>","","","","","","","","",""
"html-keyboard-response","400","625115","0.0-16.0-0.68","5f350f459bf003464a03ea5e","650c16f0f2faf8d7a0d14c09","651c1c43a64ded2eaf7db52a","null","null","<p style=""font-size: 60px; font-family: BACS"">ODBDAOMC</p>","","","","","","","","",""
