"trial_type","trial_index","time_elapsed","internal_node_id","subject_id","study_id","session_id","rt","response","stimulus","success","item","task","correct_response","testing_condition","correct","target","confound","name"
"pavlovia","0","1102","0.0-0.0","605aa0bb5fb71bbcf0808892","650c16f0f2faf8d7a0d14c09","651c1e6dcef5dc96a09501b3","","","","","","","","","","","",""
"survey-html-form","1","11075","0.0-1.0","605aa0bb5fb71bbcf0808892","650c16f0f2faf8d7a0d14c09","651c1e6dcef5dc96a09501b3","9972","{""ID"":""605aa0bb5fb71bbcf0808892""}","","","","","","","","","",""
"html-keyboard-response","2","15147","0.0-2.0","605aa0bb5fb71bbcf0808892","650c16f0f2faf8d7a0d14c09","651c1e6dcef5dc96a09501b3","4071"," ","<p style=""font-size: 15px;"">Before beginning, we ask that you read the consent information and confirm your agreement to participate in the experiment.</p>
      <p style=""font-size: 15px;""> We ask that you remember that this is a research project and that your participation is entirely voluntary. You can stop your participation at any time, without needing to provide any explanation. The study we're asking you to participate in aims at examining how readers process written words. You will be engaged in a session of apprximately 20 minutes, followed by a brief questionnaire. You will have the opportunity to take a few breaks during the experiment. You will be paid £4 for your participation, corresponding to a rate of £8/hour. While this experiment looks at cognitive faculties, this experiment doesn't constitute clinical proof of eventual pathologies.</p>
      <p style=""font-size: 15px;"">All of the information collected thanks to yours and others' participation will be held in a secure password-protected server, and will not be shared with anyone not authorised to view it. Your personal information will be kept with an arbitrary participant ID. Thanks to this data anonymity process, any researcher analysing the data won't be able to track the information back to a specific participant. Therefore, this process will make identifying you impossibile, even when results from the study will be published in scientific reviews, presented at congresses, or at any other public forum. More generally, the collected data will be treated in accordance with the laws on privacy and conformity to the Legislative Degree n. 196 ""Code regarding the protection of personal data"" of the 30th of June 2003 and to the European Regulation 2016/670 (General Data Protection Regulation - GDPR). The Data Protection Officer is Avv. Valentina Carollo, who can be contacted at the following email addresses: <a href=""mailto:dpo@sissa.it"">dpo@sissa.it</a> or <a href=""mailto:rpd@sissa.it"">rpd@sissa.it</a> - PEC: <a href=""mailto:protocollo@pec.sissa.it"">protocollo@pec.sissa.it</a>.</p>
      <p style=""font-size: 15px;""> Before expressing your consent to participate, we would like to remind you again that in case you need explanations on any aspect of the experimental procedure, the researcher is at your disposition (<a href=""mailto:aliebelt@sissa.it"">aliebelt@sissa.it</a>, <a href=""mailto:davide.crepaldi@sissa.it"">davide.crepaldi@sissa.it</a>).</p>
      <p style=""font-size: 15px;"">If you would like to download the informed consent form, you can do so here: <a href=""BASL-Informed_Consent.pdf"" download>informed consent form</a>.</p>
      <p style=""font-size: 15px;"">We ask that you press the spacebar to proceed to the consent section.</p>","","","","","","","","",""
"survey-html-form","3","19291","0.0-3.0","605aa0bb5fb71bbcf0808892","650c16f0f2faf8d7a0d14c09","651c1e6dcef5dc96a09501b3","4143","{""consent1"":""YES"",""consent2"":""YES"",""consent3"":""YES"",""consent4"":""YES"",""consent5"":""YES"",""consent6"":""YES""}","","","","","","","","","",""
"fullscreen","4","24191","0.0-4.0","605aa0bb5fb71bbcf0808892","650c16f0f2faf8d7a0d14c09","651c1e6dcef5dc96a09501b3","","","","true","","","","","","","",""
"html-keyboard-response","5","29290","0.0-5.0","605aa0bb5fb71bbcf0808892","650c16f0f2faf8d7a0d14c09","651c1e6dcef5dc96a09501b3","5098"," ","<p>Welcome, and thank you very much for your time!</p>
      <p>In this experiment, you'll be a language expert who's been asked to take a look at words that Earth has received in its first communication with aliens. Your task, in this first part of the experiment, is to pay close attention to the words you'll be shown; later, world leaders will ask you questions on what you saw. The words will be shown to you quite quickly; it seems that the aliens were in a hurry :-)</p>
      <p>Press the spacebar to continue.<p>","","","","","","","","",""
"html-keyboard-response","6","29341","0.0-6.0","605aa0bb5fb71bbcf0808892","650c16f0f2faf8d7a0d14c09","651c1e6dcef5dc96a09501b3","null","null","<p style=""font-size: 120px; font-family: BACS""> </p>","","","","","","","","",""
"html-keyboard-response","7","32416","0.0-7.0","605aa0bb5fb71bbcf0808892","650c16f0f2faf8d7a0d14c09","651c1e6dcef5dc96a09501b3","3075"," ","<p>Here is an example of the words you'll see:</p>
      <img src='esempio.png' height='400px'>
      <p>When you're ready to begin, press the spacebar.</p></div>","","","","","","","","",""
"html-keyboard-response","8","33433","0.0-8.0-0.0","605aa0bb5fb71bbcf0808892","650c16f0f2faf8d7a0d14c09","651c1e6dcef5dc96a09501b3","null","null","<p style=""font-size: 60px; font-family: BACS"">CYPcBCD</p>","","","","","","","","",""
"html-keyboard-response","9","34437","0.0-8.0-0.1","605aa0bb5fb71bbcf0808892","650c16f0f2faf8d7a0d14c09","651c1e6dcef5dc96a09501b3","null","null","<p style=""font-size: 60px; font-family: BACS"">EhRmPMYm</p>","","","","","","","","",""
"html-keyboard-response","10","35442","0.0-8.0-0.2","605aa0bb5fb71bbcf0808892","650c16f0f2faf8d7a0d14c09","651c1e6dcef5dc96a09501b3","null","null","<p style=""font-size: 60px; font-family: BACS"">mdkKTRkY</p>","","","","","","","","",""
"html-keyboard-response","11","36444","0.0-8.0-0.3","605aa0bb5fb71bbcf0808892","650c16f0f2faf8d7a0d14c09","651c1e6dcef5dc96a09501b3","null","null","<p style=""font-size: 60px; font-family: BACS"">AbkaYZJO</p>","","","","","","","","",""
"html-keyboard-response","12","37448","0.0-8.0-0.4","605aa0bb5fb71bbcf0808892","650c16f0f2faf8d7a0d14c09","651c1e6dcef5dc96a09501b3","null","null","<p style=""font-size: 60px; font-family: BACS"">DcPTcdPc</p>","","","","","","","","",""
"html-keyboard-response","13","38455","0.0-8.0-0.5","605aa0bb5fb71bbcf0808892","650c16f0f2faf8d7a0d14c09","651c1e6dcef5dc96a09501b3","null","null","<p style=""font-size: 60px; font-family: BACS"">uQuZcYZJO</p>","","","","","","","","",""
"html-keyboard-response","14","39461","0.0-8.0-0.6","605aa0bb5fb71bbcf0808892","650c16f0f2faf8d7a0d14c09","651c1e6dcef5dc96a09501b3","null","null","<p style=""font-size: 60px; font-family: BACS"">khmhdPc</p>","","","","","","","","",""
"html-keyboard-response","15","40467","0.0-8.0-0.7","605aa0bb5fb71bbcf0808892","650c16f0f2faf8d7a0d14c09","651c1e6dcef5dc96a09501b3","null","null","<p style=""font-size: 60px; font-family: BACS"">bAdkBCD</p>","","","","","","","","",""
"html-keyboard-response","16","41472","0.0-8.0-0.8","605aa0bb5fb71bbcf0808892","650c16f0f2faf8d7a0d14c09","651c1e6dcef5dc96a09501b3","null","null","<p style=""font-size: 60px; font-family: BACS"">EhRmTRkY</p>","","","","","","","","",""
"html-keyboard-response","17","42473","0.0-8.0-0.9","605aa0bb5fb71bbcf0808892","650c16f0f2faf8d7a0d14c09","651c1e6dcef5dc96a09501b3","null","null","<p style=""font-size: 60px; font-family: BACS"">khmhPMYm</p>","","","","","","","","",""
"html-keyboard-response","18","43476","0.0-8.0-0.10","605aa0bb5fb71bbcf0808892","650c16f0f2faf8d7a0d14c09","651c1e6dcef5dc96a09501b3","null","null","<p style=""font-size: 60px; font-family: BACS"">DcPTcBCD</p>","","","","","","","","",""
"html-keyboard-response","19","44485","0.0-8.0-0.11","605aa0bb5fb71bbcf0808892","650c16f0f2faf8d7a0d14c09","651c1e6dcef5dc96a09501b3","null","null","<p style=""font-size: 60px; font-family: BACS"">uQuZcYbN</p>","","","","","","","","",""
"html-keyboard-response","20","45495","0.0-8.0-0.12","605aa0bb5fb71bbcf0808892","650c16f0f2faf8d7a0d14c09","651c1e6dcef5dc96a09501b3","null","null","<p style=""font-size: 60px; font-family: BACS"">mUOcObadk</p>","","","","","","","","",""
"html-keyboard-response","21","46508","0.0-8.0-0.13","605aa0bb5fb71bbcf0808892","650c16f0f2faf8d7a0d14c09","651c1e6dcef5dc96a09501b3","null","null","<p style=""font-size: 60px; font-family: BACS"">CYPcTRkY</p>","","","","","","","","",""
"html-keyboard-response","22","47511","0.0-8.0-0.14","605aa0bb5fb71bbcf0808892","650c16f0f2faf8d7a0d14c09","651c1e6dcef5dc96a09501b3","null","null","<p style=""font-size: 60px; font-family: BACS"">AlNUYZJO</p>","","","","","","","","",""
"html-keyboard-response","23","48528","0.0-8.0-0.15","605aa0bb5fb71bbcf0808892","650c16f0f2faf8d7a0d14c09","651c1e6dcef5dc96a09501b3","null","null","<p style=""font-size: 60px; font-family: BACS"">mUOcOYbN</p>","","","","","","","","",""
"html-keyboard-response","24","49543","0.0-8.0-0.16","605aa0bb5fb71bbcf0808892","650c16f0f2faf8d7a0d14c09","651c1e6dcef5dc96a09501b3","null","null","<p style=""font-size: 60px; font-family: BACS"">CYPcdPc</p>","","","","","","","","",""
"html-keyboard-response","25","50559","0.0-8.0-0.17","605aa0bb5fb71bbcf0808892","650c16f0f2faf8d7a0d14c09","651c1e6dcef5dc96a09501b3","null","null","<p style=""font-size: 60px; font-family: BACS"">AbkaGQYQ</p>","","","","","","","","",""
"html-keyboard-response","26","51561","0.0-8.0-0.18","605aa0bb5fb71bbcf0808892","650c16f0f2faf8d7a0d14c09","651c1e6dcef5dc96a09501b3","null","null","<p style=""font-size: 60px; font-family: BACS"">EhRmTbk</p>","","","","","","","","",""
"html-keyboard-response","27","52576","0.0-8.0-0.19","605aa0bb5fb71bbcf0808892","650c16f0f2faf8d7a0d14c09","651c1e6dcef5dc96a09501b3","null","null","<p style=""font-size: 60px; font-family: BACS"">vYLUYLU</p>","","","","","","","","",""
"html-keyboard-response","28","53592","0.0-8.0-0.20","605aa0bb5fb71bbcf0808892","650c16f0f2faf8d7a0d14c09","651c1e6dcef5dc96a09501b3","null","null","<p style=""font-size: 60px; font-family: BACS"">bAdkTbk</p>","","","","","","","","",""
"html-keyboard-response","29","54606","0.0-8.0-0.21","605aa0bb5fb71bbcf0808892","650c16f0f2faf8d7a0d14c09","651c1e6dcef5dc96a09501b3","null","null","<p style=""font-size: 60px; font-family: BACS"">GumLlGQYQ</p>","","","","","","","","",""
"html-keyboard-response","30","55622","0.0-8.0-0.22","605aa0bb5fb71bbcf0808892","650c16f0f2faf8d7a0d14c09","651c1e6dcef5dc96a09501b3","null","null","<p style=""font-size: 60px; font-family: BACS"">Qcladbadk</p>","","","","","","","","",""
"html-keyboard-response","31","56637","0.0-8.0-0.23","605aa0bb5fb71bbcf0808892","650c16f0f2faf8d7a0d14c09","651c1e6dcef5dc96a09501b3","null","null","<p style=""font-size: 60px; font-family: BACS"">ZNLOvGQYQ</p>","","","","","","","","",""
"html-keyboard-response","32","57640","0.0-8.0-0.24","605aa0bb5fb71bbcf0808892","650c16f0f2faf8d7a0d14c09","651c1e6dcef5dc96a09501b3","null","null","<p style=""font-size: 60px; font-family: BACS"">AbkaYbN</p>","","","","","","","","",""
"html-keyboard-response","33","58649","0.0-8.0-0.25","605aa0bb5fb71bbcf0808892","650c16f0f2faf8d7a0d14c09","651c1e6dcef5dc96a09501b3","null","null","<p style=""font-size: 60px; font-family: BACS"">NQZvGQYQ</p>","","","","","","","","",""
"html-keyboard-response","34","59652","0.0-8.0-0.26","605aa0bb5fb71bbcf0808892","650c16f0f2faf8d7a0d14c09","651c1e6dcef5dc96a09501b3","null","null","<p style=""font-size: 60px; font-family: BACS"">ZNLOvbadk</p>","","","","","","","","",""
"html-keyboard-response","35","60661","0.0-8.0-0.27","605aa0bb5fb71bbcf0808892","650c16f0f2faf8d7a0d14c09","651c1e6dcef5dc96a09501b3","null","null","<p style=""font-size: 60px; font-family: BACS"">mUOcOGQYQ</p>","","","","","","","","",""
"html-keyboard-response","36","61668","0.0-8.0-0.28","605aa0bb5fb71bbcf0808892","650c16f0f2faf8d7a0d14c09","651c1e6dcef5dc96a09501b3","null","null","<p style=""font-size: 60px; font-family: BACS"">uQuZcYLU</p>","","","","","","","","",""
"html-keyboard-response","37","62672","0.0-8.0-0.29","605aa0bb5fb71bbcf0808892","650c16f0f2faf8d7a0d14c09","651c1e6dcef5dc96a09501b3","null","null","<p style=""font-size: 60px; font-family: BACS"">ZNLOvYZJO</p>","","","","","","","","",""
"html-keyboard-response","38","63679","0.0-8.0-0.30","605aa0bb5fb71bbcf0808892","650c16f0f2faf8d7a0d14c09","651c1e6dcef5dc96a09501b3","null","null","<p style=""font-size: 60px; font-family: BACS"">mUOcOYLU</p>","","","","","","","","",""
"html-keyboard-response","39","64693","0.0-8.0-0.31","605aa0bb5fb71bbcf0808892","650c16f0f2faf8d7a0d14c09","651c1e6dcef5dc96a09501b3","null","null","<p style=""font-size: 60px; font-family: BACS"">thbOMTbk</p>","","","","","","","","",""
"html-keyboard-response","40","65696","0.0-8.0-0.32","605aa0bb5fb71bbcf0808892","650c16f0f2faf8d7a0d14c09","651c1e6dcef5dc96a09501b3","null","null","<p style=""font-size: 60px; font-family: BACS"">AlNUYbN</p>","","","","","","","","",""
"html-keyboard-response","41","66700","0.0-8.0-0.33","605aa0bb5fb71bbcf0808892","650c16f0f2faf8d7a0d14c09","651c1e6dcef5dc96a09501b3","null","null","<p style=""font-size: 60px; font-family: BACS"">ctktPMYm</p>","","","","","","","","",""
"html-keyboard-response","42","67716","0.0-8.0-0.34","605aa0bb5fb71bbcf0808892","650c16f0f2faf8d7a0d14c09","651c1e6dcef5dc96a09501b3","null","null","<p style=""font-size: 60px; font-family: BACS"">GumLlYLU</p>","","","","","","","","",""
"html-keyboard-response","43","68731","0.0-8.0-0.35","605aa0bb5fb71bbcf0808892","650c16f0f2faf8d7a0d14c09","651c1e6dcef5dc96a09501b3","null","null","<p style=""font-size: 60px; font-family: BACS"">bRABtPMYm</p>","","","","","","","","",""
"html-keyboard-response","44","69733","0.0-8.0-0.36","605aa0bb5fb71bbcf0808892","650c16f0f2faf8d7a0d14c09","651c1e6dcef5dc96a09501b3","null","null","<p style=""font-size: 60px; font-family: BACS"">vYLUbadk</p>","","","","","","","","",""
"html-keyboard-response","45","70738","0.0-8.0-0.37","605aa0bb5fb71bbcf0808892","650c16f0f2faf8d7a0d14c09","651c1e6dcef5dc96a09501b3","null","null","<p style=""font-size: 60px; font-family: BACS"">QcladYLU</p>","","","","","","","","",""
"html-keyboard-response","46","71753","0.0-8.0-0.38","605aa0bb5fb71bbcf0808892","650c16f0f2faf8d7a0d14c09","651c1e6dcef5dc96a09501b3","null","null","<p style=""font-size: 60px; font-family: BACS"">ctktBCD</p>","","","","","","","","",""
"html-keyboard-response","47","72760","0.0-8.0-0.39","605aa0bb5fb71bbcf0808892","650c16f0f2faf8d7a0d14c09","651c1e6dcef5dc96a09501b3","null","null","<p style=""font-size: 60px; font-family: BACS"">GumLlYbN</p>","","","","","","","","",""
"html-keyboard-response","48","73770","0.0-8.0-0.40","605aa0bb5fb71bbcf0808892","650c16f0f2faf8d7a0d14c09","651c1e6dcef5dc96a09501b3","null","null","<p style=""font-size: 60px; font-family: BACS"">thbOMPMYm</p>","","","","","","","","",""
"html-keyboard-response","49","74775","0.0-8.0-0.41","605aa0bb5fb71bbcf0808892","650c16f0f2faf8d7a0d14c09","651c1e6dcef5dc96a09501b3","null","null","<p style=""font-size: 60px; font-family: BACS"">NQZvYLU</p>","","","","","","","","",""
"html-keyboard-response","50","75778","0.0-8.0-0.42","605aa0bb5fb71bbcf0808892","650c16f0f2faf8d7a0d14c09","651c1e6dcef5dc96a09501b3","null","null","<p style=""font-size: 60px; font-family: BACS"">JmNkYbN</p>","","","","","","","","",""
"html-keyboard-response","51","76780","0.0-8.0-0.43","605aa0bb5fb71bbcf0808892","650c16f0f2faf8d7a0d14c09","651c1e6dcef5dc96a09501b3","null","null","<p style=""font-size: 60px; font-family: BACS"">mdkKBCD</p>","","","","","","","","",""
"html-keyboard-response","52","77795","0.0-8.0-0.44","605aa0bb5fb71bbcf0808892","650c16f0f2faf8d7a0d14c09","651c1e6dcef5dc96a09501b3","null","null","<p style=""font-size: 60px; font-family: BACS"">bRABtTRkY</p>","","","","","","","","",""
"html-keyboard-response","53","78802","0.0-8.0-0.45","605aa0bb5fb71bbcf0808892","650c16f0f2faf8d7a0d14c09","651c1e6dcef5dc96a09501b3","null","null","<p style=""font-size: 60px; font-family: BACS"">AMkCTbk</p>","","","","","","","","",""
"html-keyboard-response","54","79806","0.0-8.0-0.46","605aa0bb5fb71bbcf0808892","650c16f0f2faf8d7a0d14c09","651c1e6dcef5dc96a09501b3","null","null","<p style=""font-size: 60px; font-family: BACS"">EhRmdPc</p>","","","","","","","","",""
"html-keyboard-response","55","80821","0.0-8.0-0.47","605aa0bb5fb71bbcf0808892","650c16f0f2faf8d7a0d14c09","651c1e6dcef5dc96a09501b3","null","null","<p style=""font-size: 60px; font-family: BACS"">khmhBCD</p>","","","","","","","","",""
"html-keyboard-response","56","81823","0.0-8.0-0.48","605aa0bb5fb71bbcf0808892","650c16f0f2faf8d7a0d14c09","651c1e6dcef5dc96a09501b3","null","null","<p style=""font-size: 60px; font-family: BACS"">vYLUYbN</p>","","","","","","","","",""
"html-keyboard-response","57","82839","0.0-8.0-0.49","605aa0bb5fb71bbcf0808892","650c16f0f2faf8d7a0d14c09","651c1e6dcef5dc96a09501b3","null","null","<p style=""font-size: 60px; font-family: BACS"">NQZvbadk</p>","","","","","","","","",""
"html-keyboard-response","58","83854","0.0-8.0-0.50","605aa0bb5fb71bbcf0808892","650c16f0f2faf8d7a0d14c09","651c1e6dcef5dc96a09501b3","null","null","<p style=""font-size: 60px; font-family: BACS"">bRABtdPc</p>","","","","","","","","",""
"html-keyboard-response","59","84858","0.0-8.0-0.51","605aa0bb5fb71bbcf0808892","650c16f0f2faf8d7a0d14c09","651c1e6dcef5dc96a09501b3","null","null","<p style=""font-size: 60px; font-family: BACS"">ZNLOvYLU</p>","","","","","","","","",""
"html-keyboard-response","60","85870","0.0-8.0-0.52","605aa0bb5fb71bbcf0808892","650c16f0f2faf8d7a0d14c09","651c1e6dcef5dc96a09501b3","null","null","<p style=""font-size: 60px; font-family: BACS"">uQuZcbadk</p>","","","","","","","","",""
"html-keyboard-response","61","86880","0.0-8.0-0.53","605aa0bb5fb71bbcf0808892","650c16f0f2faf8d7a0d14c09","651c1e6dcef5dc96a09501b3","null","null","<p style=""font-size: 60px; font-family: BACS"">ctktdPc</p>","","","","","","","","",""
"html-keyboard-response","62","87889","0.0-8.0-0.54","605aa0bb5fb71bbcf0808892","650c16f0f2faf8d7a0d14c09","651c1e6dcef5dc96a09501b3","null","null","<p style=""font-size: 60px; font-family: BACS"">DcPTcTRkY</p>","","","","","","","","",""
"html-keyboard-response","63","88895","0.0-8.0-0.55","605aa0bb5fb71bbcf0808892","650c16f0f2faf8d7a0d14c09","651c1e6dcef5dc96a09501b3","null","null","<p style=""font-size: 60px; font-family: BACS"">JmNkGQYQ</p>","","","","","","","","",""
"html-keyboard-response","64","89899","0.0-8.0-0.56","605aa0bb5fb71bbcf0808892","650c16f0f2faf8d7a0d14c09","651c1e6dcef5dc96a09501b3","null","null","<p style=""font-size: 60px; font-family: BACS"">khmhTbk</p>","","","","","","","","",""
"html-keyboard-response","65","90913","0.0-8.0-0.57","605aa0bb5fb71bbcf0808892","650c16f0f2faf8d7a0d14c09","651c1e6dcef5dc96a09501b3","null","null","<p style=""font-size: 60px; font-family: BACS"">AMkCTRkY</p>","","","","","","","","",""
"html-keyboard-response","66","91915","0.0-8.0-0.58","605aa0bb5fb71bbcf0808892","650c16f0f2faf8d7a0d14c09","651c1e6dcef5dc96a09501b3","null","null","<p style=""font-size: 60px; font-family: BACS"">AlNUGQYQ</p>","","","","","","","","",""
"html-keyboard-response","67","92916","0.0-8.0-0.59","605aa0bb5fb71bbcf0808892","650c16f0f2faf8d7a0d14c09","651c1e6dcef5dc96a09501b3","null","null","<p style=""font-size: 60px; font-family: BACS"">mdkKPMYm</p>","","","","","","","","",""
"html-keyboard-response","68","93931","0.0-8.0-0.60","605aa0bb5fb71bbcf0808892","650c16f0f2faf8d7a0d14c09","651c1e6dcef5dc96a09501b3","null","null","<p style=""font-size: 60px; font-family: BACS"">vYLUYZJO</p>","","","","","","","","",""
"html-keyboard-response","69","94934","0.0-8.0-0.61","605aa0bb5fb71bbcf0808892","650c16f0f2faf8d7a0d14c09","651c1e6dcef5dc96a09501b3","null","null","<p style=""font-size: 60px; font-family: BACS"">AlNUYLU</p>","","","","","","","","",""
"html-keyboard-response","70","95949","0.0-8.0-0.62","605aa0bb5fb71bbcf0808892","650c16f0f2faf8d7a0d14c09","651c1e6dcef5dc96a09501b3","null","null","<p style=""font-size: 60px; font-family: BACS"">NQZvYbN</p>","","","","","","","","",""
"html-keyboard-response","71","96950","0.0-8.0-0.63","605aa0bb5fb71bbcf0808892","650c16f0f2faf8d7a0d14c09","651c1e6dcef5dc96a09501b3","null","null","<p style=""font-size: 60px; font-family: BACS"">bAdkdPc</p>","","","","","","","","",""
"html-keyboard-response","72","97954","0.0-8.0-0.64","605aa0bb5fb71bbcf0808892","650c16f0f2faf8d7a0d14c09","651c1e6dcef5dc96a09501b3","null","null","<p style=""font-size: 60px; font-family: BACS"">ctktTRkY</p>","","","","","","","","",""
"html-keyboard-response","73","98961","0.0-8.0-0.65","605aa0bb5fb71bbcf0808892","650c16f0f2faf8d7a0d14c09","651c1e6dcef5dc96a09501b3","null","null","<p style=""font-size: 60px; font-family: BACS"">bRABtTbk</p>","","","","","","","","",""
"html-keyboard-response","74","99968","0.0-8.0-0.66","605aa0bb5fb71bbcf0808892","650c16f0f2faf8d7a0d14c09","651c1e6dcef5dc96a09501b3","null","null","<p style=""font-size: 60px; font-family: BACS"">AMkCdPc</p>","","","","","","","","",""
"html-keyboard-response","75","100983","0.0-8.0-0.67","605aa0bb5fb71bbcf0808892","650c16f0f2faf8d7a0d14c09","651c1e6dcef5dc96a09501b3","null","null","<p style=""font-size: 60px; font-family: BACS"">DcPTcTbk</p>","","","","","","","","",""
"html-keyboard-response","76","101998","0.0-8.0-0.68","605aa0bb5fb71bbcf0808892","650c16f0f2faf8d7a0d14c09","651c1e6dcef5dc96a09501b3","null","null","<p style=""font-size: 60px; font-family: BACS"">thbOMTRkY</p>","","","","","","","","",""
"html-keyboard-response","77","103001","0.0-8.0-0.69","605aa0bb5fb71bbcf0808892","650c16f0f2faf8d7a0d14c09","651c1e6dcef5dc96a09501b3","null","null","<p style=""font-size: 60px; font-family: BACS"">JmNkYZJO</p>","","","","","","","","",""
"html-keyboard-response","78","104018","0.0-8.0-0.70","605aa0bb5fb71bbcf0808892","650c16f0f2faf8d7a0d14c09","651c1e6dcef5dc96a09501b3","null","null","<p style=""font-size: 60px; font-family: BACS"">bAdkPMYm</p>","","","","","","","","",""
"html-keyboard-response","79","105021","0.0-8.0-0.71","605aa0bb5fb71bbcf0808892","650c16f0f2faf8d7a0d14c09","651c1e6dcef5dc96a09501b3","null","null","<p style=""font-size: 60px; font-family: BACS"">QcladGQYQ</p>","","","","","","","","",""
"html-keyboard-response","80","106024","0.0-8.0-0.72","605aa0bb5fb71bbcf0808892","650c16f0f2faf8d7a0d14c09","651c1e6dcef5dc96a09501b3","null","null","<p style=""font-size: 60px; font-family: BACS"">AMkCBCD</p>","","","","","","","","",""
"html-keyboard-response","81","107030","0.0-8.0-0.73","605aa0bb5fb71bbcf0808892","650c16f0f2faf8d7a0d14c09","651c1e6dcef5dc96a09501b3","null","null","<p style=""font-size: 60px; font-family: BACS"">GumLlYZJO</p>","","","","","","","","",""
"html-keyboard-response","82","108036","0.0-8.0-0.74","605aa0bb5fb71bbcf0808892","650c16f0f2faf8d7a0d14c09","651c1e6dcef5dc96a09501b3","null","null","<p style=""font-size: 60px; font-family: BACS"">CYPcPMYm</p>","","","","","","","","",""
"html-keyboard-response","83","109050","0.0-8.0-0.75","605aa0bb5fb71bbcf0808892","650c16f0f2faf8d7a0d14c09","651c1e6dcef5dc96a09501b3","null","null","<p style=""font-size: 60px; font-family: BACS"">Abkabadk</p>","","","","","","","","",""
"html-keyboard-response","84","110054","0.0-8.0-0.76","605aa0bb5fb71bbcf0808892","650c16f0f2faf8d7a0d14c09","651c1e6dcef5dc96a09501b3","null","null","<p style=""font-size: 60px; font-family: BACS"">thbOMBCD</p>","","","","","","","","",""
"html-keyboard-response","85","111067","0.0-8.0-0.77","605aa0bb5fb71bbcf0808892","650c16f0f2faf8d7a0d14c09","651c1e6dcef5dc96a09501b3","null","null","<p style=""font-size: 60px; font-family: BACS"">mdkKTbk</p>","","","","","","","","",""
"html-keyboard-response","86","112082","0.0-8.0-0.78","605aa0bb5fb71bbcf0808892","650c16f0f2faf8d7a0d14c09","651c1e6dcef5dc96a09501b3","null","null","<p style=""font-size: 60px; font-family: BACS"">QcladYZJO</p>","","","","","","","","",""
"html-keyboard-response","87","113095","0.0-8.0-0.79","605aa0bb5fb71bbcf0808892","650c16f0f2faf8d7a0d14c09","651c1e6dcef5dc96a09501b3","null","null","<p style=""font-size: 60px; font-family: BACS"">JmNkbadk</p>","","","","","","","","",""
"html-keyboard-response","88","126313","0.0-9.0","605aa0bb5fb71bbcf0808892","650c16f0f2faf8d7a0d14c09","651c1e6dcef5dc96a09501b3","13217"," ","<p>Great, you've seen the first block of words. You may now take a short break.</p>
      <p>Press the spacebar when you're ready to continue.</p>","","","","","","","","",""
"html-keyboard-response","89","127324","0.0-10.0-0.0","605aa0bb5fb71bbcf0808892","650c16f0f2faf8d7a0d14c09","651c1e6dcef5dc96a09501b3","null","null","<p style=""font-size: 60px; font-family: BACS"">mUOcObadk</p>","","","","","","","","",""
"html-keyboard-response","90","128329","0.0-10.0-0.1","605aa0bb5fb71bbcf0808892","650c16f0f2faf8d7a0d14c09","651c1e6dcef5dc96a09501b3","null","null","<p style=""font-size: 60px; font-family: BACS"">mdkKTRkY</p>","","","","","","","","",""
"html-keyboard-response","91","129339","0.0-10.0-0.2","605aa0bb5fb71bbcf0808892","650c16f0f2faf8d7a0d14c09","651c1e6dcef5dc96a09501b3","null","null","<p style=""font-size: 60px; font-family: BACS"">NQZvbadk</p>","","","","","","","","",""
"html-keyboard-response","92","130342","0.0-10.0-0.3","605aa0bb5fb71bbcf0808892","650c16f0f2faf8d7a0d14c09","651c1e6dcef5dc96a09501b3","null","null","<p style=""font-size: 60px; font-family: BACS"">bRABtTbk</p>","","","","","","","","",""
"html-keyboard-response","93","131359","0.0-10.0-0.4","605aa0bb5fb71bbcf0808892","650c16f0f2faf8d7a0d14c09","651c1e6dcef5dc96a09501b3","null","null","<p style=""font-size: 60px; font-family: BACS"">EhRmdPc</p>","","","","","","","","",""
"html-keyboard-response","94","132366","0.0-10.0-0.5","605aa0bb5fb71bbcf0808892","650c16f0f2faf8d7a0d14c09","651c1e6dcef5dc96a09501b3","null","null","<p style=""font-size: 60px; font-family: BACS"">thbOMTbk</p>","","","","","","","","",""
"html-keyboard-response","95","133374","0.0-10.0-0.6","605aa0bb5fb71bbcf0808892","650c16f0f2faf8d7a0d14c09","651c1e6dcef5dc96a09501b3","null","null","<p style=""font-size: 60px; font-family: BACS"">ZNLOvGQYQ</p>","","","","","","","","",""
"html-keyboard-response","96","134379","0.0-10.0-0.7","605aa0bb5fb71bbcf0808892","650c16f0f2faf8d7a0d14c09","651c1e6dcef5dc96a09501b3","null","null","<p style=""font-size: 60px; font-family: BACS"">CYPcBCD</p>","","","","","","","","",""
"html-keyboard-response","97","135385","0.0-10.0-0.8","605aa0bb5fb71bbcf0808892","650c16f0f2faf8d7a0d14c09","651c1e6dcef5dc96a09501b3","null","null","<p style=""font-size: 60px; font-family: BACS"">EhRmPMYm</p>","","","","","","","","",""
"html-keyboard-response","98","136394","0.0-10.0-0.9","605aa0bb5fb71bbcf0808892","650c16f0f2faf8d7a0d14c09","651c1e6dcef5dc96a09501b3","null","null","<p style=""font-size: 60px; font-family: BACS"">DcPTcTRkY</p>","","","","","","","","",""
"html-keyboard-response","99","137400","0.0-10.0-0.10","605aa0bb5fb71bbcf0808892","650c16f0f2faf8d7a0d14c09","651c1e6dcef5dc96a09501b3","null","null","<p style=""font-size: 60px; font-family: BACS"">QcladGQYQ</p>","","","","","","","","",""
"html-keyboard-response","100","138410","0.0-10.0-0.11","605aa0bb5fb71bbcf0808892","650c16f0f2faf8d7a0d14c09","651c1e6dcef5dc96a09501b3","null","null","<p style=""font-size: 60px; font-family: BACS"">ctktBCD</p>","","","","","","","","",""
"html-keyboard-response","101","139416","0.0-10.0-0.12","605aa0bb5fb71bbcf0808892","650c16f0f2faf8d7a0d14c09","651c1e6dcef5dc96a09501b3","null","null","<p style=""font-size: 60px; font-family: BACS"">vYLUbadk</p>","","","","","","","","",""
"html-keyboard-response","102","140424","0.0-10.0-0.13","605aa0bb5fb71bbcf0808892","650c16f0f2faf8d7a0d14c09","651c1e6dcef5dc96a09501b3","null","null","<p style=""font-size: 60px; font-family: BACS"">bAdkPMYm</p>","","","","","","","","",""
"html-keyboard-response","103","141432","0.0-10.0-0.14","605aa0bb5fb71bbcf0808892","650c16f0f2faf8d7a0d14c09","651c1e6dcef5dc96a09501b3","null","null","<p style=""font-size: 60px; font-family: BACS"">mUOcOYLU</p>","","","","","","","","",""
"html-keyboard-response","104","142434","0.0-10.0-0.15","605aa0bb5fb71bbcf0808892","650c16f0f2faf8d7a0d14c09","651c1e6dcef5dc96a09501b3","null","null","<p style=""font-size: 60px; font-family: BACS"">AbkaGQYQ</p>","","","","","","","","",""
"html-keyboard-response","105","143450","0.0-10.0-0.16","605aa0bb5fb71bbcf0808892","650c16f0f2faf8d7a0d14c09","651c1e6dcef5dc96a09501b3","null","null","<p style=""font-size: 60px; font-family: BACS"">GumLlYLU</p>","","","","","","","","",""
"html-keyboard-response","106","144468","0.0-10.0-0.17","605aa0bb5fb71bbcf0808892","650c16f0f2faf8d7a0d14c09","651c1e6dcef5dc96a09501b3","null","null","<p style=""font-size: 60px; font-family: BACS"">vYLUYbN</p>","","","","","","","","",""
"html-keyboard-response","107","145485","0.0-10.0-0.18","605aa0bb5fb71bbcf0808892","650c16f0f2faf8d7a0d14c09","651c1e6dcef5dc96a09501b3","null","null","<p style=""font-size: 60px; font-family: BACS"">Qcladbadk</p>","","","","","","","","",""
"html-keyboard-response","108","146492","0.0-10.0-0.19","605aa0bb5fb71bbcf0808892","650c16f0f2faf8d7a0d14c09","651c1e6dcef5dc96a09501b3","null","null","<p style=""font-size: 60px; font-family: BACS"">GumLlGQYQ</p>","","","","","","","","",""
"html-keyboard-response","109","147502","0.0-10.0-0.20","605aa0bb5fb71bbcf0808892","650c16f0f2faf8d7a0d14c09","651c1e6dcef5dc96a09501b3","null","null","<p style=""font-size: 60px; font-family: BACS"">EhRmTRkY</p>","","","","","","","","",""
"html-keyboard-response","110","148514","0.0-10.0-0.21","605aa0bb5fb71bbcf0808892","650c16f0f2faf8d7a0d14c09","651c1e6dcef5dc96a09501b3","null","null","<p style=""font-size: 60px; font-family: BACS"">AlNUYZJO</p>","","","","","","","","",""
"html-keyboard-response","111","149517","0.0-10.0-0.22","605aa0bb5fb71bbcf0808892","650c16f0f2faf8d7a0d14c09","651c1e6dcef5dc96a09501b3","null","null","<p style=""font-size: 60px; font-family: BACS"">EhRmTbk</p>","","","","","","","","",""
"html-keyboard-response","112","150527","0.0-10.0-0.23","605aa0bb5fb71bbcf0808892","650c16f0f2faf8d7a0d14c09","651c1e6dcef5dc96a09501b3","null","null","<p style=""font-size: 60px; font-family: BACS"">uQuZcYZJO</p>","","","","","","","","",""
"html-keyboard-response","113","151537","0.0-10.0-0.24","605aa0bb5fb71bbcf0808892","650c16f0f2faf8d7a0d14c09","651c1e6dcef5dc96a09501b3","null","null","<p style=""font-size: 60px; font-family: BACS"">QcladYLU</p>","","","","","","","","",""
"html-keyboard-response","114","152546","0.0-10.0-0.25","605aa0bb5fb71bbcf0808892","650c16f0f2faf8d7a0d14c09","651c1e6dcef5dc96a09501b3","null","null","<p style=""font-size: 60px; font-family: BACS"">thbOMBCD</p>","","","","","","","","",""
"html-keyboard-response","115","153553","0.0-10.0-0.26","605aa0bb5fb71bbcf0808892","650c16f0f2faf8d7a0d14c09","651c1e6dcef5dc96a09501b3","null","null","<p style=""font-size: 60px; font-family: BACS"">GumLlYZJO</p>","","","","","","","","",""
"html-keyboard-response","116","154562","0.0-10.0-0.27","605aa0bb5fb71bbcf0808892","650c16f0f2faf8d7a0d14c09","651c1e6dcef5dc96a09501b3","null","null","<p style=""font-size: 60px; font-family: BACS"">khmhBCD</p>","","","","","","","","",""
"html-keyboard-response","117","155563","0.0-10.0-0.28","605aa0bb5fb71bbcf0808892","650c16f0f2faf8d7a0d14c09","651c1e6dcef5dc96a09501b3","null","null","<p style=""font-size: 60px; font-family: BACS"">GumLlYbN</p>","","","","","","","","",""
"html-keyboard-response","118","156566","0.0-10.0-0.29","605aa0bb5fb71bbcf0808892","650c16f0f2faf8d7a0d14c09","651c1e6dcef5dc96a09501b3","null","null","<p style=""font-size: 60px; font-family: BACS"">uQuZcbadk</p>","","","","","","","","",""
"html-keyboard-response","119","157580","0.0-10.0-0.30","605aa0bb5fb71bbcf0808892","650c16f0f2faf8d7a0d14c09","651c1e6dcef5dc96a09501b3","null","null","<p style=""font-size: 60px; font-family: BACS"">mdkKPMYm</p>","","","","","","","","",""
"html-keyboard-response","120","158595","0.0-10.0-0.31","605aa0bb5fb71bbcf0808892","650c16f0f2faf8d7a0d14c09","651c1e6dcef5dc96a09501b3","null","null","<p style=""font-size: 60px; font-family: BACS"">AbkaYZJO</p>","","","","","","","","",""
"html-keyboard-response","121","159602","0.0-10.0-0.32","605aa0bb5fb71bbcf0808892","650c16f0f2faf8d7a0d14c09","651c1e6dcef5dc96a09501b3","null","null","<p style=""font-size: 60px; font-family: BACS"">NQZvYLU</p>","","","","","","","","",""
"html-keyboard-response","122","160612","0.0-10.0-0.33","605aa0bb5fb71bbcf0808892","650c16f0f2faf8d7a0d14c09","651c1e6dcef5dc96a09501b3","null","null","<p style=""font-size: 60px; font-family: BACS"">AMkCTbk</p>","","","","","","","","",""
"html-keyboard-response","123","161624","0.0-10.0-0.34","605aa0bb5fb71bbcf0808892","650c16f0f2faf8d7a0d14c09","651c1e6dcef5dc96a09501b3","null","null","<p style=""font-size: 60px; font-family: BACS"">ZNLOvbadk</p>","","","","","","","","",""
"html-keyboard-response","124","162628","0.0-10.0-0.35","605aa0bb5fb71bbcf0808892","650c16f0f2faf8d7a0d14c09","651c1e6dcef5dc96a09501b3","null","null","<p style=""font-size: 60px; font-family: BACS"">khmhdPc</p>","","","","","","","","",""
"html-keyboard-response","125","163638","0.0-10.0-0.36","605aa0bb5fb71bbcf0808892","650c16f0f2faf8d7a0d14c09","651c1e6dcef5dc96a09501b3","null","null","<p style=""font-size: 60px; font-family: BACS"">CYPcTRkY</p>","","","","","","","","",""
"html-keyboard-response","126","164645","0.0-10.0-0.37","605aa0bb5fb71bbcf0808892","650c16f0f2faf8d7a0d14c09","651c1e6dcef5dc96a09501b3","null","null","<p style=""font-size: 60px; font-family: BACS"">AlNUGQYQ</p>","","","","","","","","",""
"html-keyboard-response","127","165657","0.0-10.0-0.38","605aa0bb5fb71bbcf0808892","650c16f0f2faf8d7a0d14c09","651c1e6dcef5dc96a09501b3","null","null","<p style=""font-size: 60px; font-family: BACS"">DcPTcdPc</p>","","","","","","","","",""
"html-keyboard-response","128","166664","0.0-10.0-0.39","605aa0bb5fb71bbcf0808892","650c16f0f2faf8d7a0d14c09","651c1e6dcef5dc96a09501b3","null","null","<p style=""font-size: 60px; font-family: BACS"">mdkKBCD</p>","","","","","","","","",""
"html-keyboard-response","129","167672","0.0-10.0-0.40","605aa0bb5fb71bbcf0808892","650c16f0f2faf8d7a0d14c09","651c1e6dcef5dc96a09501b3","null","null","<p style=""font-size: 60px; font-family: BACS"">ZNLOvYLU</p>","","","","","","","","",""
"html-keyboard-response","130","168676","0.0-10.0-0.41","605aa0bb5fb71bbcf0808892","650c16f0f2faf8d7a0d14c09","651c1e6dcef5dc96a09501b3","null","null","<p style=""font-size: 60px; font-family: BACS"">ctktdPc</p>","","","","","","","","",""
"html-keyboard-response","131","169683","0.0-10.0-0.42","605aa0bb5fb71bbcf0808892","650c16f0f2faf8d7a0d14c09","651c1e6dcef5dc96a09501b3","null","null","<p style=""font-size: 60px; font-family: BACS"">JmNkYbN</p>","","","","","","","","",""
"html-keyboard-response","132","170688","0.0-10.0-0.43","605aa0bb5fb71bbcf0808892","650c16f0f2faf8d7a0d14c09","651c1e6dcef5dc96a09501b3","null","null","<p style=""font-size: 60px; font-family: BACS"">khmhPMYm</p>","","","","","","","","",""
"html-keyboard-response","133","171696","0.0-10.0-0.44","605aa0bb5fb71bbcf0808892","650c16f0f2faf8d7a0d14c09","651c1e6dcef5dc96a09501b3","null","null","<p style=""font-size: 60px; font-family: BACS"">AbkaYbN</p>","","","","","","","","",""
"html-keyboard-response","134","172698","0.0-10.0-0.45","605aa0bb5fb71bbcf0808892","650c16f0f2faf8d7a0d14c09","651c1e6dcef5dc96a09501b3","null","null","<p style=""font-size: 60px; font-family: BACS"">CYPcPMYm</p>","","","","","","","","",""
"html-keyboard-response","135","173705","0.0-10.0-0.46","605aa0bb5fb71bbcf0808892","650c16f0f2faf8d7a0d14c09","651c1e6dcef5dc96a09501b3","null","null","<p style=""font-size: 60px; font-family: BACS"">JmNkYZJO</p>","","","","","","","","",""
"html-keyboard-response","136","174712","0.0-10.0-0.47","605aa0bb5fb71bbcf0808892","650c16f0f2faf8d7a0d14c09","651c1e6dcef5dc96a09501b3","null","null","<p style=""font-size: 60px; font-family: BACS"">AlNUYLU</p>","","","","","","","","",""
"html-keyboard-response","137","175723","0.0-10.0-0.48","605aa0bb5fb71bbcf0808892","650c16f0f2faf8d7a0d14c09","651c1e6dcef5dc96a09501b3","null","null","<p style=""font-size: 60px; font-family: BACS"">uQuZcYbN</p>","","","","","","","","",""
"html-keyboard-response","138","176736","0.0-10.0-0.49","605aa0bb5fb71bbcf0808892","650c16f0f2faf8d7a0d14c09","651c1e6dcef5dc96a09501b3","null","null","<p style=""font-size: 60px; font-family: BACS"">bRABtPMYm</p>","","","","","","","","",""
"html-keyboard-response","139","177738","0.0-10.0-0.50","605aa0bb5fb71bbcf0808892","650c16f0f2faf8d7a0d14c09","651c1e6dcef5dc96a09501b3","null","null","<p style=""font-size: 60px; font-family: BACS"">AMkCdPc</p>","","","","","","","","",""
"html-keyboard-response","140","178739","0.0-10.0-0.51","605aa0bb5fb71bbcf0808892","650c16f0f2faf8d7a0d14c09","651c1e6dcef5dc96a09501b3","null","null","<p style=""font-size: 60px; font-family: BACS"">mUOcOYbN</p>","","","","","","","","",""
"html-keyboard-response","141","179742","0.0-10.0-0.52","605aa0bb5fb71bbcf0808892","650c16f0f2faf8d7a0d14c09","651c1e6dcef5dc96a09501b3","null","null","<p style=""font-size: 60px; font-family: BACS"">uQuZcYLU</p>","","","","","","","","",""
"html-keyboard-response","142","180754","0.0-10.0-0.53","605aa0bb5fb71bbcf0808892","650c16f0f2faf8d7a0d14c09","651c1e6dcef5dc96a09501b3","null","null","<p style=""font-size: 60px; font-family: BACS"">khmhTbk</p>","","","","","","","","",""
"html-keyboard-response","143","181759","0.0-10.0-0.54","605aa0bb5fb71bbcf0808892","650c16f0f2faf8d7a0d14c09","651c1e6dcef5dc96a09501b3","null","null","<p style=""font-size: 60px; font-family: BACS"">bAdkdPc</p>","","","","","","","","",""
"html-keyboard-response","144","182769","0.0-10.0-0.55","605aa0bb5fb71bbcf0808892","650c16f0f2faf8d7a0d14c09","651c1e6dcef5dc96a09501b3","null","null","<p style=""font-size: 60px; font-family: BACS"">DcPTcBCD</p>","","","","","","","","",""
"html-keyboard-response","145","183779","0.0-10.0-0.56","605aa0bb5fb71bbcf0808892","650c16f0f2faf8d7a0d14c09","651c1e6dcef5dc96a09501b3","null","null","<p style=""font-size: 60px; font-family: BACS"">JmNkbadk</p>","","","","","","","","",""
"html-keyboard-response","146","184786","0.0-10.0-0.57","605aa0bb5fb71bbcf0808892","650c16f0f2faf8d7a0d14c09","651c1e6dcef5dc96a09501b3","null","null","<p style=""font-size: 60px; font-family: BACS"">QcladYZJO</p>","","","","","","","","",""
"html-keyboard-response","147","185794","0.0-10.0-0.58","605aa0bb5fb71bbcf0808892","650c16f0f2faf8d7a0d14c09","651c1e6dcef5dc96a09501b3","null","null","<p style=""font-size: 60px; font-family: BACS"">ctktTRkY</p>","","","","","","","","",""
"html-keyboard-response","148","186795","0.0-10.0-0.59","605aa0bb5fb71bbcf0808892","650c16f0f2faf8d7a0d14c09","651c1e6dcef5dc96a09501b3","null","null","<p style=""font-size: 60px; font-family: BACS"">thbOMPMYm</p>","","","","","","","","",""
"html-keyboard-response","149","187800","0.0-10.0-0.60","605aa0bb5fb71bbcf0808892","650c16f0f2faf8d7a0d14c09","651c1e6dcef5dc96a09501b3","null","null","<p style=""font-size: 60px; font-family: BACS"">NQZvYbN</p>","","","","","","","","",""
"html-keyboard-response","150","188812","0.0-10.0-0.61","605aa0bb5fb71bbcf0808892","650c16f0f2faf8d7a0d14c09","651c1e6dcef5dc96a09501b3","null","null","<p style=""font-size: 60px; font-family: BACS"">DcPTcTbk</p>","","","","","","","","",""
"html-keyboard-response","151","189825","0.0-10.0-0.62","605aa0bb5fb71bbcf0808892","650c16f0f2faf8d7a0d14c09","651c1e6dcef5dc96a09501b3","null","null","<p style=""font-size: 60px; font-family: BACS"">thbOMTRkY</p>","","","","","","","","",""
"html-keyboard-response","152","190839","0.0-10.0-0.63","605aa0bb5fb71bbcf0808892","650c16f0f2faf8d7a0d14c09","651c1e6dcef5dc96a09501b3","null","null","<p style=""font-size: 60px; font-family: BACS"">NQZvGQYQ</p>","","","","","","","","",""
"html-keyboard-response","153","191854","0.0-10.0-0.64","605aa0bb5fb71bbcf0808892","650c16f0f2faf8d7a0d14c09","651c1e6dcef5dc96a09501b3","null","null","<p style=""font-size: 60px; font-family: BACS"">AlNUYbN</p>","","","","","","","","",""
"html-keyboard-response","154","192865","0.0-10.0-0.65","605aa0bb5fb71bbcf0808892","650c16f0f2faf8d7a0d14c09","651c1e6dcef5dc96a09501b3","null","null","<p style=""font-size: 60px; font-family: BACS"">bAdkTbk</p>","","","","","","","","",""
"html-keyboard-response","155","193878","0.0-10.0-0.66","605aa0bb5fb71bbcf0808892","650c16f0f2faf8d7a0d14c09","651c1e6dcef5dc96a09501b3","null","null","<p style=""font-size: 60px; font-family: BACS"">CYPcdPc</p>","","","","","","","","",""
"html-keyboard-response","156","194890","0.0-10.0-0.67","605aa0bb5fb71bbcf0808892","650c16f0f2faf8d7a0d14c09","651c1e6dcef5dc96a09501b3","null","null","<p style=""font-size: 60px; font-family: BACS"">Abkabadk</p>","","","","","","","","",""
"html-keyboard-response","157","195904","0.0-10.0-0.68","605aa0bb5fb71bbcf0808892","650c16f0f2faf8d7a0d14c09","651c1e6dcef5dc96a09501b3","null","null","<p style=""font-size: 60px; font-family: BACS"">AMkCBCD</p>","","","","","","","","",""
"html-keyboard-response","158","196916","0.0-10.0-0.69","605aa0bb5fb71bbcf0808892","650c16f0f2faf8d7a0d14c09","651c1e6dcef5dc96a09501b3","null","null","<p style=""font-size: 60px; font-family: BACS"">JmNkGQYQ</p>","","","","","","","","",""
"html-keyboard-response","159","197923","0.0-10.0-0.70","605aa0bb5fb71bbcf0808892","650c16f0f2faf8d7a0d14c09","651c1e6dcef5dc96a09501b3","null","null","<p style=""font-size: 60px; font-family: BACS"">AMkCTRkY</p>","","","","","","","","",""
"html-keyboard-response","160","198929","0.0-10.0-0.71","605aa0bb5fb71bbcf0808892","650c16f0f2faf8d7a0d14c09","651c1e6dcef5dc96a09501b3","null","null","<p style=""font-size: 60px; font-family: BACS"">mdkKTbk</p>","","","","","","","","",""
"html-keyboard-response","161","199936","0.0-10.0-0.72","605aa0bb5fb71bbcf0808892","650c16f0f2faf8d7a0d14c09","651c1e6dcef5dc96a09501b3","null","null","<p style=""font-size: 60px; font-family: BACS"">bAdkBCD</p>","","","","","","","","",""
"html-keyboard-response","162","200939","0.0-10.0-0.73","605aa0bb5fb71bbcf0808892","650c16f0f2faf8d7a0d14c09","651c1e6dcef5dc96a09501b3","null","null","<p style=""font-size: 60px; font-family: BACS"">bRABtTRkY</p>","","","","","","","","",""
"html-keyboard-response","163","201950","0.0-10.0-0.74","605aa0bb5fb71bbcf0808892","650c16f0f2faf8d7a0d14c09","651c1e6dcef5dc96a09501b3","null","null","<p style=""font-size: 60px; font-family: BACS"">ctktPMYm</p>","","","","","","","","",""
"html-keyboard-response","164","202961","0.0-10.0-0.75","605aa0bb5fb71bbcf0808892","650c16f0f2faf8d7a0d14c09","651c1e6dcef5dc96a09501b3","null","null","<p style=""font-size: 60px; font-family: BACS"">vYLUYZJO</p>","","","","","","","","",""
"html-keyboard-response","165","203971","0.0-10.0-0.76","605aa0bb5fb71bbcf0808892","650c16f0f2faf8d7a0d14c09","651c1e6dcef5dc96a09501b3","null","null","<p style=""font-size: 60px; font-family: BACS"">bRABtdPc</p>","","","","","","","","",""
"html-keyboard-response","166","204982","0.0-10.0-0.77","605aa0bb5fb71bbcf0808892","650c16f0f2faf8d7a0d14c09","651c1e6dcef5dc96a09501b3","null","null","<p style=""font-size: 60px; font-family: BACS"">ZNLOvYZJO</p>","","","","","","","","",""
"html-keyboard-response","167","205983","0.0-10.0-0.78","605aa0bb5fb71bbcf0808892","650c16f0f2faf8d7a0d14c09","651c1e6dcef5dc96a09501b3","null","null","<p style=""font-size: 60px; font-family: BACS"">vYLUYLU</p>","","","","","","","","",""
"html-keyboard-response","168","206989","0.0-10.0-0.79","605aa0bb5fb71bbcf0808892","650c16f0f2faf8d7a0d14c09","651c1e6dcef5dc96a09501b3","null","null","<p style=""font-size: 60px; font-family: BACS"">mUOcOGQYQ</p>","","","","","","","","",""
"html-keyboard-response","169","251847","0.0-11.0","605aa0bb5fb71bbcf0808892","650c16f0f2faf8d7a0d14c09","651c1e6dcef5dc96a09501b3","44858"," ","<p>Great, you've seen the second block of words. You may now take a short break.</p>
      <p>Press the spacebar when you're ready to continue.</p>","","","","","","","","",""
"html-keyboard-response","170","252852","0.0-12.0-0.0","605aa0bb5fb71bbcf0808892","650c16f0f2faf8d7a0d14c09","651c1e6dcef5dc96a09501b3","null","null","<p style=""font-size: 60px; font-family: BACS"">ZNLOvGQYQ</p>","","","","","","","","",""
"html-keyboard-response","171","253856","0.0-12.0-0.1","605aa0bb5fb71bbcf0808892","650c16f0f2faf8d7a0d14c09","651c1e6dcef5dc96a09501b3","null","null","<p style=""font-size: 60px; font-family: BACS"">CYPcPMYm</p>","","","","","","","","",""
"html-keyboard-response","172","254858","0.0-12.0-0.2","605aa0bb5fb71bbcf0808892","650c16f0f2faf8d7a0d14c09","651c1e6dcef5dc96a09501b3","null","null","<p style=""font-size: 60px; font-family: BACS"">NQZvGQYQ</p>","","","","","","","","",""
"html-keyboard-response","173","255873","0.0-12.0-0.3","605aa0bb5fb71bbcf0808892","650c16f0f2faf8d7a0d14c09","651c1e6dcef5dc96a09501b3","null","null","<p style=""font-size: 60px; font-family: BACS"">vYLUYLU</p>","","","","","","","","",""
"html-keyboard-response","174","256875","0.0-12.0-0.4","605aa0bb5fb71bbcf0808892","650c16f0f2faf8d7a0d14c09","651c1e6dcef5dc96a09501b3","null","null","<p style=""font-size: 60px; font-family: BACS"">AbkaYZJO</p>","","","","","","","","",""
"html-keyboard-response","175","257879","0.0-12.0-0.5","605aa0bb5fb71bbcf0808892","650c16f0f2faf8d7a0d14c09","651c1e6dcef5dc96a09501b3","null","null","<p style=""font-size: 60px; font-family: BACS"">GumLlYbN</p>","","","","","","","","",""
"html-keyboard-response","176","258886","0.0-12.0-0.6","605aa0bb5fb71bbcf0808892","650c16f0f2faf8d7a0d14c09","651c1e6dcef5dc96a09501b3","null","null","<p style=""font-size: 60px; font-family: BACS"">bAdkBCD</p>","","","","","","","","",""
"html-keyboard-response","177","259890","0.0-12.0-0.7","605aa0bb5fb71bbcf0808892","650c16f0f2faf8d7a0d14c09","651c1e6dcef5dc96a09501b3","null","null","<p style=""font-size: 60px; font-family: BACS"">uQuZcYZJO</p>","","","","","","","","",""
"html-keyboard-response","178","260894","0.0-12.0-0.8","605aa0bb5fb71bbcf0808892","650c16f0f2faf8d7a0d14c09","651c1e6dcef5dc96a09501b3","null","null","<p style=""font-size: 60px; font-family: BACS"">DcPTcTbk</p>","","","","","","","","",""
"html-keyboard-response","179","261898","0.0-12.0-0.9","605aa0bb5fb71bbcf0808892","650c16f0f2faf8d7a0d14c09","651c1e6dcef5dc96a09501b3","null","null","<p style=""font-size: 60px; font-family: BACS"">khmhdPc</p>","","","","","","","","",""
"html-keyboard-response","180","262905","0.0-12.0-0.10","605aa0bb5fb71bbcf0808892","650c16f0f2faf8d7a0d14c09","651c1e6dcef5dc96a09501b3","null","null","<p style=""font-size: 60px; font-family: BACS"">EhRmTRkY</p>","","","","","","","","",""
"html-keyboard-response","181","263908","0.0-12.0-0.11","605aa0bb5fb71bbcf0808892","650c16f0f2faf8d7a0d14c09","651c1e6dcef5dc96a09501b3","null","null","<p style=""font-size: 60px; font-family: BACS"">AbkaYbN</p>","","","","","","","","",""
"html-keyboard-response","182","264911","0.0-12.0-0.12","605aa0bb5fb71bbcf0808892","650c16f0f2faf8d7a0d14c09","651c1e6dcef5dc96a09501b3","null","null","<p style=""font-size: 60px; font-family: BACS"">bRABtdPc</p>","","","","","","","","",""
"html-keyboard-response","183","265914","0.0-12.0-0.13","605aa0bb5fb71bbcf0808892","650c16f0f2faf8d7a0d14c09","651c1e6dcef5dc96a09501b3","null","null","<p style=""font-size: 60px; font-family: BACS"">mdkKTbk</p>","","","","","","","","",""
"html-keyboard-response","184","266922","0.0-12.0-0.14","605aa0bb5fb71bbcf0808892","650c16f0f2faf8d7a0d14c09","651c1e6dcef5dc96a09501b3","null","null","<p style=""font-size: 60px; font-family: BACS"">mUOcOYLU</p>","","","","","","","","",""
"html-keyboard-response","185","267928","0.0-12.0-0.15","605aa0bb5fb71bbcf0808892","650c16f0f2faf8d7a0d14c09","651c1e6dcef5dc96a09501b3","null","null","<p style=""font-size: 60px; font-family: BACS"">EhRmdPc</p>","","","","","","","","",""
"html-keyboard-response","186","268942","0.0-12.0-0.16","605aa0bb5fb71bbcf0808892","650c16f0f2faf8d7a0d14c09","651c1e6dcef5dc96a09501b3","null","null","<p style=""font-size: 60px; font-family: BACS"">uQuZcYLU</p>","","","","","","","","",""
"html-keyboard-response","187","269943","0.0-12.0-0.17","605aa0bb5fb71bbcf0808892","650c16f0f2faf8d7a0d14c09","651c1e6dcef5dc96a09501b3","null","null","<p style=""font-size: 60px; font-family: BACS"">thbOMTRkY</p>","","","","","","","","",""
"html-keyboard-response","188","270946","0.0-12.0-0.18","605aa0bb5fb71bbcf0808892","650c16f0f2faf8d7a0d14c09","651c1e6dcef5dc96a09501b3","null","null","<p style=""font-size: 60px; font-family: BACS"">Qcladbadk</p>","","","","","","","","",""
"html-keyboard-response","189","271947","0.0-12.0-0.19","605aa0bb5fb71bbcf0808892","650c16f0f2faf8d7a0d14c09","651c1e6dcef5dc96a09501b3","null","null","<p style=""font-size: 60px; font-family: BACS"">JmNkYZJO</p>","","","","","","","","",""
"html-keyboard-response","190","272951","0.0-12.0-0.20","605aa0bb5fb71bbcf0808892","650c16f0f2faf8d7a0d14c09","651c1e6dcef5dc96a09501b3","null","null","<p style=""font-size: 60px; font-family: BACS"">khmhTbk</p>","","","","","","","","",""
"html-keyboard-response","191","273954","0.0-12.0-0.21","605aa0bb5fb71bbcf0808892","650c16f0f2faf8d7a0d14c09","651c1e6dcef5dc96a09501b3","null","null","<p style=""font-size: 60px; font-family: BACS"">NQZvYbN</p>","","","","","","","","",""
"html-keyboard-response","192","274962","0.0-12.0-0.22","605aa0bb5fb71bbcf0808892","650c16f0f2faf8d7a0d14c09","651c1e6dcef5dc96a09501b3","null","null","<p style=""font-size: 60px; font-family: BACS"">DcPTcTRkY</p>","","","","","","","","",""
"html-keyboard-response","193","275969","0.0-12.0-0.23","605aa0bb5fb71bbcf0808892","650c16f0f2faf8d7a0d14c09","651c1e6dcef5dc96a09501b3","null","null","<p style=""font-size: 60px; font-family: BACS"">mdkKBCD</p>","","","","","","","","",""
"html-keyboard-response","194","276976","0.0-12.0-0.24","605aa0bb5fb71bbcf0808892","650c16f0f2faf8d7a0d14c09","651c1e6dcef5dc96a09501b3","null","null","<p style=""font-size: 60px; font-family: BACS"">EhRmTbk</p>","","","","","","","","",""
"html-keyboard-response","195","277991","0.0-12.0-0.25","605aa0bb5fb71bbcf0808892","650c16f0f2faf8d7a0d14c09","651c1e6dcef5dc96a09501b3","null","null","<p style=""font-size: 60px; font-family: BACS"">ZNLOvYLU</p>","","","","","","","","",""
"html-keyboard-response","196","278992","0.0-12.0-0.26","605aa0bb5fb71bbcf0808892","650c16f0f2faf8d7a0d14c09","651c1e6dcef5dc96a09501b3","null","null","<p style=""font-size: 60px; font-family: BACS"">AMkCTbk</p>","","","","","","","","",""
"html-keyboard-response","197","279999","0.0-12.0-0.27","605aa0bb5fb71bbcf0808892","650c16f0f2faf8d7a0d14c09","651c1e6dcef5dc96a09501b3","null","null","<p style=""font-size: 60px; font-family: BACS"">QcladGQYQ</p>","","","","","","","","",""
"html-keyboard-response","198","281003","0.0-12.0-0.28","605aa0bb5fb71bbcf0808892","650c16f0f2faf8d7a0d14c09","651c1e6dcef5dc96a09501b3","null","null","<p style=""font-size: 60px; font-family: BACS"">CYPcdPc</p>","","","","","","","","",""
"html-keyboard-response","199","282008","0.0-12.0-0.29","605aa0bb5fb71bbcf0808892","650c16f0f2faf8d7a0d14c09","651c1e6dcef5dc96a09501b3","null","null","<p style=""font-size: 60px; font-family: BACS"">ctktTRkY</p>","","","","","","","","",""
"html-keyboard-response","200","283023","0.0-12.0-0.30","605aa0bb5fb71bbcf0808892","650c16f0f2faf8d7a0d14c09","651c1e6dcef5dc96a09501b3","null","null","<p style=""font-size: 60px; font-family: BACS"">GumLlYLU</p>","","","","","","","","",""
"html-keyboard-response","201","284036","0.0-12.0-0.31","605aa0bb5fb71bbcf0808892","650c16f0f2faf8d7a0d14c09","651c1e6dcef5dc96a09501b3","null","null","<p style=""font-size: 60px; font-family: BACS"">JmNkYbN</p>","","","","","","","","",""
"html-keyboard-response","202","285053","0.0-12.0-0.32","605aa0bb5fb71bbcf0808892","650c16f0f2faf8d7a0d14c09","651c1e6dcef5dc96a09501b3","null","null","<p style=""font-size: 60px; font-family: BACS"">mUOcOGQYQ</p>","","","","","","","","",""
"html-keyboard-response","203","286059","0.0-12.0-0.33","605aa0bb5fb71bbcf0808892","650c16f0f2faf8d7a0d14c09","651c1e6dcef5dc96a09501b3","null","null","<p style=""font-size: 60px; font-family: BACS"">vYLUYZJO</p>","","","","","","","","",""
"html-keyboard-response","204","287075","0.0-12.0-0.34","605aa0bb5fb71bbcf0808892","650c16f0f2faf8d7a0d14c09","651c1e6dcef5dc96a09501b3","null","null","<p style=""font-size: 60px; font-family: BACS"">mUOcObadk</p>","","","","","","","","",""
"html-keyboard-response","205","288082","0.0-12.0-0.35","605aa0bb5fb71bbcf0808892","650c16f0f2faf8d7a0d14c09","651c1e6dcef5dc96a09501b3","null","null","<p style=""font-size: 60px; font-family: BACS"">GumLlGQYQ</p>","","","","","","","","",""
"html-keyboard-response","206","289085","0.0-12.0-0.36","605aa0bb5fb71bbcf0808892","650c16f0f2faf8d7a0d14c09","651c1e6dcef5dc96a09501b3","null","null","<p style=""font-size: 60px; font-family: BACS"">uQuZcYbN</p>","","","","","","","","",""
"html-keyboard-response","207","290098","0.0-12.0-0.37","605aa0bb5fb71bbcf0808892","650c16f0f2faf8d7a0d14c09","651c1e6dcef5dc96a09501b3","null","null","<p style=""font-size: 60px; font-family: BACS"">thbOMBCD</p>","","","","","","","","",""
"html-keyboard-response","208","291100","0.0-12.0-0.38","605aa0bb5fb71bbcf0808892","650c16f0f2faf8d7a0d14c09","651c1e6dcef5dc96a09501b3","null","null","<p style=""font-size: 60px; font-family: BACS"">bAdkTbk</p>","","","","","","","","",""
"html-keyboard-response","209","292116","0.0-12.0-0.39","605aa0bb5fb71bbcf0808892","650c16f0f2faf8d7a0d14c09","651c1e6dcef5dc96a09501b3","null","null","<p style=""font-size: 60px; font-family: BACS"">GumLlYZJO</p>","","","","","","","","",""
"html-keyboard-response","210","293122","0.0-12.0-0.40","605aa0bb5fb71bbcf0808892","650c16f0f2faf8d7a0d14c09","651c1e6dcef5dc96a09501b3","null","null","<p style=""font-size: 60px; font-family: BACS"">bRABtPMYm</p>","","","","","","","","",""
"html-keyboard-response","211","294132","0.0-12.0-0.41","605aa0bb5fb71bbcf0808892","650c16f0f2faf8d7a0d14c09","651c1e6dcef5dc96a09501b3","null","null","<p style=""font-size: 60px; font-family: BACS"">AMkCTRkY</p>","","","","","","","","",""
"html-keyboard-response","212","295140","0.0-12.0-0.42","605aa0bb5fb71bbcf0808892","650c16f0f2faf8d7a0d14c09","651c1e6dcef5dc96a09501b3","null","null","<p style=""font-size: 60px; font-family: BACS"">AlNUYbN</p>","","","","","","","","",""
"html-keyboard-response","213","296156","0.0-12.0-0.43","605aa0bb5fb71bbcf0808892","650c16f0f2faf8d7a0d14c09","651c1e6dcef5dc96a09501b3","null","null","<p style=""font-size: 60px; font-family: BACS"">bAdkPMYm</p>","","","","","","","","",""
"html-keyboard-response","214","297161","0.0-12.0-0.44","605aa0bb5fb71bbcf0808892","650c16f0f2faf8d7a0d14c09","651c1e6dcef5dc96a09501b3","null","null","<p style=""font-size: 60px; font-family: BACS"">bRABtTRkY</p>","","","","","","","","",""
"html-keyboard-response","215","298167","0.0-12.0-0.45","605aa0bb5fb71bbcf0808892","650c16f0f2faf8d7a0d14c09","651c1e6dcef5dc96a09501b3","null","null","<p style=""font-size: 60px; font-family: BACS"">AlNUGQYQ</p>","","","","","","","","",""
"html-keyboard-response","216","299169","0.0-12.0-0.46","605aa0bb5fb71bbcf0808892","650c16f0f2faf8d7a0d14c09","651c1e6dcef5dc96a09501b3","null","null","<p style=""font-size: 60px; font-family: BACS"">ctktdPc</p>","","","","","","","","",""
"html-keyboard-response","217","300182","0.0-12.0-0.47","605aa0bb5fb71bbcf0808892","650c16f0f2faf8d7a0d14c09","651c1e6dcef5dc96a09501b3","null","null","<p style=""font-size: 60px; font-family: BACS"">EhRmPMYm</p>","","","","","","","","",""
"html-keyboard-response","218","301186","0.0-12.0-0.48","605aa0bb5fb71bbcf0808892","650c16f0f2faf8d7a0d14c09","651c1e6dcef5dc96a09501b3","null","null","<p style=""font-size: 60px; font-family: BACS"">ctktBCD</p>","","","","","","","","",""
"html-keyboard-response","219","302192","0.0-12.0-0.49","605aa0bb5fb71bbcf0808892","650c16f0f2faf8d7a0d14c09","651c1e6dcef5dc96a09501b3","null","null","<p style=""font-size: 60px; font-family: BACS"">ZNLOvYZJO</p>","","","","","","","","",""
"html-keyboard-response","220","303195","0.0-12.0-0.50","605aa0bb5fb71bbcf0808892","650c16f0f2faf8d7a0d14c09","651c1e6dcef5dc96a09501b3","null","null","<p style=""font-size: 60px; font-family: BACS"">CYPcBCD</p>","","","","","","","","",""
"html-keyboard-response","221","304210","0.0-12.0-0.51","605aa0bb5fb71bbcf0808892","650c16f0f2faf8d7a0d14c09","651c1e6dcef5dc96a09501b3","null","null","<p style=""font-size: 60px; font-family: BACS"">mdkKPMYm</p>","","","","","","","","",""
"html-keyboard-response","222","305225","0.0-12.0-0.52","605aa0bb5fb71bbcf0808892","650c16f0f2faf8d7a0d14c09","651c1e6dcef5dc96a09501b3","null","null","<p style=""font-size: 60px; font-family: BACS"">CYPcTRkY</p>","","","","","","","","",""
"html-keyboard-response","223","306230","0.0-12.0-0.53","605aa0bb5fb71bbcf0808892","650c16f0f2faf8d7a0d14c09","651c1e6dcef5dc96a09501b3","null","null","<p style=""font-size: 60px; font-family: BACS"">uQuZcbadk</p>","","","","","","","","",""
"html-keyboard-response","224","307238","0.0-12.0-0.54","605aa0bb5fb71bbcf0808892","650c16f0f2faf8d7a0d14c09","651c1e6dcef5dc96a09501b3","null","null","<p style=""font-size: 60px; font-family: BACS"">JmNkGQYQ</p>","","","","","","","","",""
"html-keyboard-response","225","308248","0.0-12.0-0.55","605aa0bb5fb71bbcf0808892","650c16f0f2faf8d7a0d14c09","651c1e6dcef5dc96a09501b3","null","null","<p style=""font-size: 60px; font-family: BACS"">thbOMPMYm</p>","","","","","","","","",""
"html-keyboard-response","226","309256","0.0-12.0-0.56","605aa0bb5fb71bbcf0808892","650c16f0f2faf8d7a0d14c09","651c1e6dcef5dc96a09501b3","null","null","<p style=""font-size: 60px; font-family: BACS"">DcPTcdPc</p>","","","","","","","","",""
"html-keyboard-response","227","310267","0.0-12.0-0.57","605aa0bb5fb71bbcf0808892","650c16f0f2faf8d7a0d14c09","651c1e6dcef5dc96a09501b3","null","null","<p style=""font-size: 60px; font-family: BACS"">vYLUYbN</p>","","","","","","","","",""
"html-keyboard-response","228","311275","0.0-12.0-0.58","605aa0bb5fb71bbcf0808892","650c16f0f2faf8d7a0d14c09","651c1e6dcef5dc96a09501b3","null","null","<p style=""font-size: 60px; font-family: BACS"">mdkKTRkY</p>","","","","","","","","",""
"html-keyboard-response","229","312291","0.0-12.0-0.59","605aa0bb5fb71bbcf0808892","650c16f0f2faf8d7a0d14c09","651c1e6dcef5dc96a09501b3","null","null","<p style=""font-size: 60px; font-family: BACS"">vYLUbadk</p>","","","","","","","","",""
"html-keyboard-response","230","313297","0.0-12.0-0.60","605aa0bb5fb71bbcf0808892","650c16f0f2faf8d7a0d14c09","651c1e6dcef5dc96a09501b3","null","null","<p style=""font-size: 60px; font-family: BACS"">thbOMTbk</p>","","","","","","","","",""
"html-keyboard-response","231","314311","0.0-12.0-0.61","605aa0bb5fb71bbcf0808892","650c16f0f2faf8d7a0d14c09","651c1e6dcef5dc96a09501b3","null","null","<p style=""font-size: 60px; font-family: BACS"">ZNLOvbadk</p>","","","","","","","","",""
"html-keyboard-response","232","315326","0.0-12.0-0.62","605aa0bb5fb71bbcf0808892","650c16f0f2faf8d7a0d14c09","651c1e6dcef5dc96a09501b3","null","null","<p style=""font-size: 60px; font-family: BACS"">QcladYLU</p>","","","","","","","","",""
"html-keyboard-response","233","316334","0.0-12.0-0.63","605aa0bb5fb71bbcf0808892","650c16f0f2faf8d7a0d14c09","651c1e6dcef5dc96a09501b3","null","null","<p style=""font-size: 60px; font-family: BACS"">AbkaGQYQ</p>","","","","","","","","",""
"html-keyboard-response","234","317337","0.0-12.0-0.64","605aa0bb5fb71bbcf0808892","650c16f0f2faf8d7a0d14c09","651c1e6dcef5dc96a09501b3","null","null","<p style=""font-size: 60px; font-family: BACS"">QcladYZJO</p>","","","","","","","","",""
"html-keyboard-response","235","318339","0.0-12.0-0.65","605aa0bb5fb71bbcf0808892","650c16f0f2faf8d7a0d14c09","651c1e6dcef5dc96a09501b3","null","null","<p style=""font-size: 60px; font-family: BACS"">khmhBCD</p>","","","","","","","","",""
"html-keyboard-response","236","319343","0.0-12.0-0.66","605aa0bb5fb71bbcf0808892","650c16f0f2faf8d7a0d14c09","651c1e6dcef5dc96a09501b3","null","null","<p style=""font-size: 60px; font-family: BACS"">mUOcOYbN</p>","","","","","","","","",""
"html-keyboard-response","237","320349","0.0-12.0-0.67","605aa0bb5fb71bbcf0808892","650c16f0f2faf8d7a0d14c09","651c1e6dcef5dc96a09501b3","null","null","<p style=""font-size: 60px; font-family: BACS"">AMkCBCD</p>","","","","","","","","",""
"html-keyboard-response","238","321358","0.0-12.0-0.68","605aa0bb5fb71bbcf0808892","650c16f0f2faf8d7a0d14c09","651c1e6dcef5dc96a09501b3","null","null","<p style=""font-size: 60px; font-family: BACS"">khmhPMYm</p>","","","","","","","","",""
"html-keyboard-response","239","322367","0.0-12.0-0.69","605aa0bb5fb71bbcf0808892","650c16f0f2faf8d7a0d14c09","651c1e6dcef5dc96a09501b3","null","null","<p style=""font-size: 60px; font-family: BACS"">bAdkdPc</p>","","","","","","","","",""
"html-keyboard-response","240","323373","0.0-12.0-0.70","605aa0bb5fb71bbcf0808892","650c16f0f2faf8d7a0d14c09","651c1e6dcef5dc96a09501b3","null","null","<p style=""font-size: 60px; font-family: BACS"">AlNUYZJO</p>","","","","","","","","",""
"html-keyboard-response","241","324380","0.0-12.0-0.71","605aa0bb5fb71bbcf0808892","650c16f0f2faf8d7a0d14c09","651c1e6dcef5dc96a09501b3","null","null","<p style=""font-size: 60px; font-family: BACS"">ctktPMYm</p>","","","","","","","","",""
"html-keyboard-response","242","325384","0.0-12.0-0.72","605aa0bb5fb71bbcf0808892","650c16f0f2faf8d7a0d14c09","651c1e6dcef5dc96a09501b3","null","null","<p style=""font-size: 60px; font-family: BACS"">Abkabadk</p>","","","","","","","","",""
"html-keyboard-response","243","326385","0.0-12.0-0.73","605aa0bb5fb71bbcf0808892","650c16f0f2faf8d7a0d14c09","651c1e6dcef5dc96a09501b3","null","null","<p style=""font-size: 60px; font-family: BACS"">AMkCdPc</p>","","","","","","","","",""
"html-keyboard-response","244","327397","0.0-12.0-0.74","605aa0bb5fb71bbcf0808892","650c16f0f2faf8d7a0d14c09","651c1e6dcef5dc96a09501b3","null","null","<p style=""font-size: 60px; font-family: BACS"">JmNkbadk</p>","","","","","","","","",""
"html-keyboard-response","245","328400","0.0-12.0-0.75","605aa0bb5fb71bbcf0808892","650c16f0f2faf8d7a0d14c09","651c1e6dcef5dc96a09501b3","null","null","<p style=""font-size: 60px; font-family: BACS"">NQZvYLU</p>","","","","","","","","",""
"html-keyboard-response","246","329417","0.0-12.0-0.76","605aa0bb5fb71bbcf0808892","650c16f0f2faf8d7a0d14c09","651c1e6dcef5dc96a09501b3","null","null","<p style=""font-size: 60px; font-family: BACS"">bRABtTbk</p>","","","","","","","","",""
"html-keyboard-response","247","330421","0.0-12.0-0.77","605aa0bb5fb71bbcf0808892","650c16f0f2faf8d7a0d14c09","651c1e6dcef5dc96a09501b3","null","null","<p style=""font-size: 60px; font-family: BACS"">DcPTcBCD</p>","","","","","","","","",""
"html-keyboard-response","248","331437","0.0-12.0-0.78","605aa0bb5fb71bbcf0808892","650c16f0f2faf8d7a0d14c09","651c1e6dcef5dc96a09501b3","null","null","<p style=""font-size: 60px; font-family: BACS"">NQZvbadk</p>","","","","","","","","",""
"html-keyboard-response","249","332438","0.0-12.0-0.79","605aa0bb5fb71bbcf0808892","650c16f0f2faf8d7a0d14c09","651c1e6dcef5dc96a09501b3","null","null","<p style=""font-size: 60px; font-family: BACS"">AlNUYLU</p>","","","","","","","","",""
"html-keyboard-response","250","339408","0.0-13.0","605aa0bb5fb71bbcf0808892","650c16f0f2faf8d7a0d14c09","651c1e6dcef5dc96a09501b3","6970"," ","<p>Great, you've seen the third block of words. You may now take a short break.</p>
      <p>Press the spacebar when you're ready to continue.</p>","","","","","","","","",""
"html-keyboard-response","251","340421","0.0-14.0-0.0","605aa0bb5fb71bbcf0808892","650c16f0f2faf8d7a0d14c09","651c1e6dcef5dc96a09501b3","null","null","<p style=""font-size: 60px; font-family: BACS"">mdkKTRkY</p>","","","","","","","","",""
"html-keyboard-response","252","341426","0.0-14.0-0.1","605aa0bb5fb71bbcf0808892","650c16f0f2faf8d7a0d14c09","651c1e6dcef5dc96a09501b3","null","null","<p style=""font-size: 60px; font-family: BACS"">DcPTcBCD</p>","","","","","","","","",""
"html-keyboard-response","253","342429","0.0-14.0-0.2","605aa0bb5fb71bbcf0808892","650c16f0f2faf8d7a0d14c09","651c1e6dcef5dc96a09501b3","null","null","<p style=""font-size: 60px; font-family: BACS"">JmNkYbN</p>","","","","","","","","",""
"html-keyboard-response","254","343445","0.0-14.0-0.3","605aa0bb5fb71bbcf0808892","650c16f0f2faf8d7a0d14c09","651c1e6dcef5dc96a09501b3","null","null","<p style=""font-size: 60px; font-family: BACS"">DcPTcTbk</p>","","","","","","","","",""
"html-keyboard-response","255","344447","0.0-14.0-0.4","605aa0bb5fb71bbcf0808892","650c16f0f2faf8d7a0d14c09","651c1e6dcef5dc96a09501b3","null","null","<p style=""font-size: 60px; font-family: BACS"">AbkaYZJO</p>","","","","","","","","",""
"html-keyboard-response","256","345451","0.0-14.0-0.5","605aa0bb5fb71bbcf0808892","650c16f0f2faf8d7a0d14c09","651c1e6dcef5dc96a09501b3","null","null","<p style=""font-size: 60px; font-family: BACS"">mUOcOGQYQ</p>","","","","","","","","",""
"html-keyboard-response","257","346452","0.0-14.0-0.6","605aa0bb5fb71bbcf0808892","650c16f0f2faf8d7a0d14c09","651c1e6dcef5dc96a09501b3","null","null","<p style=""font-size: 60px; font-family: BACS"">AlNUYLU</p>","","","","","","","","",""
"html-keyboard-response","258","347460","0.0-14.0-0.7","605aa0bb5fb71bbcf0808892","650c16f0f2faf8d7a0d14c09","651c1e6dcef5dc96a09501b3","null","null","<p style=""font-size: 60px; font-family: BACS"">AMkCBCD</p>","","","","","","","","",""
"html-keyboard-response","259","348469","0.0-14.0-0.8","605aa0bb5fb71bbcf0808892","650c16f0f2faf8d7a0d14c09","651c1e6dcef5dc96a09501b3","null","null","<p style=""font-size: 60px; font-family: BACS"">ZNLOvbadk</p>","","","","","","","","",""
"html-keyboard-response","260","349478","0.0-14.0-0.9","605aa0bb5fb71bbcf0808892","650c16f0f2faf8d7a0d14c09","651c1e6dcef5dc96a09501b3","null","null","<p style=""font-size: 60px; font-family: BACS"">NQZvYbN</p>","","","","","","","","",""
"html-keyboard-response","261","350486","0.0-14.0-0.10","605aa0bb5fb71bbcf0808892","650c16f0f2faf8d7a0d14c09","651c1e6dcef5dc96a09501b3","null","null","<p style=""font-size: 60px; font-family: BACS"">CYPcPMYm</p>","","","","","","","","",""
"html-keyboard-response","262","351494","0.0-14.0-0.11","605aa0bb5fb71bbcf0808892","650c16f0f2faf8d7a0d14c09","651c1e6dcef5dc96a09501b3","null","null","<p style=""font-size: 60px; font-family: BACS"">mUOcOYLU</p>","","","","","","","","",""
"html-keyboard-response","263","352500","0.0-14.0-0.12","605aa0bb5fb71bbcf0808892","650c16f0f2faf8d7a0d14c09","651c1e6dcef5dc96a09501b3","null","null","<p style=""font-size: 60px; font-family: BACS"">khmhTbk</p>","","","","","","","","",""
"html-keyboard-response","264","353511","0.0-14.0-0.13","605aa0bb5fb71bbcf0808892","650c16f0f2faf8d7a0d14c09","651c1e6dcef5dc96a09501b3","null","null","<p style=""font-size: 60px; font-family: BACS"">AbkaGQYQ</p>","","","","","","","","",""
"html-keyboard-response","265","354519","0.0-14.0-0.14","605aa0bb5fb71bbcf0808892","650c16f0f2faf8d7a0d14c09","651c1e6dcef5dc96a09501b3","null","null","<p style=""font-size: 60px; font-family: BACS"">uQuZcYLU</p>","","","","","","","","",""
"html-keyboard-response","266","355523","0.0-14.0-0.15","605aa0bb5fb71bbcf0808892","650c16f0f2faf8d7a0d14c09","651c1e6dcef5dc96a09501b3","null","null","<p style=""font-size: 60px; font-family: BACS"">DcPTcdPc</p>","","","","","","","","",""
"html-keyboard-response","267","356529","0.0-14.0-0.16","605aa0bb5fb71bbcf0808892","650c16f0f2faf8d7a0d14c09","651c1e6dcef5dc96a09501b3","null","null","<p style=""font-size: 60px; font-family: BACS"">ctktPMYm</p>","","","","","","","","",""
"html-keyboard-response","268","357532","0.0-14.0-0.17","605aa0bb5fb71bbcf0808892","650c16f0f2faf8d7a0d14c09","651c1e6dcef5dc96a09501b3","null","null","<p style=""font-size: 60px; font-family: BACS"">Abkabadk</p>","","","","","","","","",""
"html-keyboard-response","269","358536","0.0-14.0-0.18","605aa0bb5fb71bbcf0808892","650c16f0f2faf8d7a0d14c09","651c1e6dcef5dc96a09501b3","null","null","<p style=""font-size: 60px; font-family: BACS"">mUOcOYbN</p>","","","","","","","","",""
"html-keyboard-response","270","359549","0.0-14.0-0.19","605aa0bb5fb71bbcf0808892","650c16f0f2faf8d7a0d14c09","651c1e6dcef5dc96a09501b3","null","null","<p style=""font-size: 60px; font-family: BACS"">CYPcBCD</p>","","","","","","","","",""
"html-keyboard-response","271","360557","0.0-14.0-0.20","605aa0bb5fb71bbcf0808892","650c16f0f2faf8d7a0d14c09","651c1e6dcef5dc96a09501b3","null","null","<p style=""font-size: 60px; font-family: BACS"">NQZvYLU</p>","","","","","","","","",""
"html-keyboard-response","272","361562","0.0-14.0-0.21","605aa0bb5fb71bbcf0808892","650c16f0f2faf8d7a0d14c09","651c1e6dcef5dc96a09501b3","null","null","<p style=""font-size: 60px; font-family: BACS"">mUOcObadk</p>","","","","","","","","",""
"html-keyboard-response","273","362573","0.0-14.0-0.22","605aa0bb5fb71bbcf0808892","650c16f0f2faf8d7a0d14c09","651c1e6dcef5dc96a09501b3","null","null","<p style=""font-size: 60px; font-family: BACS"">vYLUYZJO</p>","","","","","","","","",""
"html-keyboard-response","274","363585","0.0-14.0-0.23","605aa0bb5fb71bbcf0808892","650c16f0f2faf8d7a0d14c09","651c1e6dcef5dc96a09501b3","null","null","<p style=""font-size: 60px; font-family: BACS"">bAdkTbk</p>","","","","","","","","",""
"html-keyboard-response","275","364591","0.0-14.0-0.24","605aa0bb5fb71bbcf0808892","650c16f0f2faf8d7a0d14c09","651c1e6dcef5dc96a09501b3","null","null","<p style=""font-size: 60px; font-family: BACS"">mdkKBCD</p>","","","","","","","","",""
"html-keyboard-response","276","365599","0.0-14.0-0.25","605aa0bb5fb71bbcf0808892","650c16f0f2faf8d7a0d14c09","651c1e6dcef5dc96a09501b3","null","null","<p style=""font-size: 60px; font-family: BACS"">GumLlYbN</p>","","","","","","","","",""
"html-keyboard-response","277","366604","0.0-14.0-0.26","605aa0bb5fb71bbcf0808892","650c16f0f2faf8d7a0d14c09","651c1e6dcef5dc96a09501b3","null","null","<p style=""font-size: 60px; font-family: BACS"">khmhdPc</p>","","","","","","","","",""
"html-keyboard-response","278","367616","0.0-14.0-0.27","605aa0bb5fb71bbcf0808892","650c16f0f2faf8d7a0d14c09","651c1e6dcef5dc96a09501b3","null","null","<p style=""font-size: 60px; font-family: BACS"">ZNLOvGQYQ</p>","","","","","","","","",""
"html-keyboard-response","279","368623","0.0-14.0-0.28","605aa0bb5fb71bbcf0808892","650c16f0f2faf8d7a0d14c09","651c1e6dcef5dc96a09501b3","null","null","<p style=""font-size: 60px; font-family: BACS"">bRABtTbk</p>","","","","","","","","",""
"html-keyboard-response","280","369632","0.0-14.0-0.29","605aa0bb5fb71bbcf0808892","650c16f0f2faf8d7a0d14c09","651c1e6dcef5dc96a09501b3","null","null","<p style=""font-size: 60px; font-family: BACS"">bAdkPMYm</p>","","","","","","","","",""
"html-keyboard-response","281","370640","0.0-14.0-0.30","605aa0bb5fb71bbcf0808892","650c16f0f2faf8d7a0d14c09","651c1e6dcef5dc96a09501b3","null","null","<p style=""font-size: 60px; font-family: BACS"">NQZvGQYQ</p>","","","","","","","","",""
"html-keyboard-response","282","371645","0.0-14.0-0.31","605aa0bb5fb71bbcf0808892","650c16f0f2faf8d7a0d14c09","651c1e6dcef5dc96a09501b3","null","null","<p style=""font-size: 60px; font-family: BACS"">GumLlYZJO</p>","","","","","","","","",""
"html-keyboard-response","283","372648","0.0-14.0-0.32","605aa0bb5fb71bbcf0808892","650c16f0f2faf8d7a0d14c09","651c1e6dcef5dc96a09501b3","null","null","<p style=""font-size: 60px; font-family: BACS"">QcladGQYQ</p>","","","","","","","","",""
"html-keyboard-response","284","373656","0.0-14.0-0.33","605aa0bb5fb71bbcf0808892","650c16f0f2faf8d7a0d14c09","651c1e6dcef5dc96a09501b3","null","null","<p style=""font-size: 60px; font-family: BACS"">uQuZcbadk</p>","","","","","","","","",""
"html-keyboard-response","285","374664","0.0-14.0-0.34","605aa0bb5fb71bbcf0808892","650c16f0f2faf8d7a0d14c09","651c1e6dcef5dc96a09501b3","null","null","<p style=""font-size: 60px; font-family: BACS"">bRABtPMYm</p>","","","","","","","","",""
"html-keyboard-response","286","375676","0.0-14.0-0.35","605aa0bb5fb71bbcf0808892","650c16f0f2faf8d7a0d14c09","651c1e6dcef5dc96a09501b3","null","null","<p style=""font-size: 60px; font-family: BACS"">vYLUbadk</p>","","","","","","","","",""
"html-keyboard-response","287","376688","0.0-14.0-0.36","605aa0bb5fb71bbcf0808892","650c16f0f2faf8d7a0d14c09","651c1e6dcef5dc96a09501b3","null","null","<p style=""font-size: 60px; font-family: BACS"">mdkKPMYm</p>","","","","","","","","",""
"html-keyboard-response","288","377704","0.0-14.0-0.37","605aa0bb5fb71bbcf0808892","650c16f0f2faf8d7a0d14c09","651c1e6dcef5dc96a09501b3","null","null","<p style=""font-size: 60px; font-family: BACS"">thbOMTRkY</p>","","","","","","","","",""
"html-keyboard-response","289","378714","0.0-14.0-0.38","605aa0bb5fb71bbcf0808892","650c16f0f2faf8d7a0d14c09","651c1e6dcef5dc96a09501b3","null","null","<p style=""font-size: 60px; font-family: BACS"">AlNUYbN</p>","","","","","","","","",""
"html-keyboard-response","290","379730","0.0-14.0-0.39","605aa0bb5fb71bbcf0808892","650c16f0f2faf8d7a0d14c09","651c1e6dcef5dc96a09501b3","null","null","<p style=""font-size: 60px; font-family: BACS"">JmNkbadk</p>","","","","","","","","",""
"html-keyboard-response","291","380744","0.0-14.0-0.40","605aa0bb5fb71bbcf0808892","650c16f0f2faf8d7a0d14c09","651c1e6dcef5dc96a09501b3","null","null","<p style=""font-size: 60px; font-family: BACS"">ctktdPc</p>","","","","","","","","",""
"html-keyboard-response","292","381757","0.0-14.0-0.41","605aa0bb5fb71bbcf0808892","650c16f0f2faf8d7a0d14c09","651c1e6dcef5dc96a09501b3","null","null","<p style=""font-size: 60px; font-family: BACS"">EhRmTRkY</p>","","","","","","","","",""
"html-keyboard-response","293","382767","0.0-14.0-0.42","605aa0bb5fb71bbcf0808892","650c16f0f2faf8d7a0d14c09","651c1e6dcef5dc96a09501b3","null","null","<p style=""font-size: 60px; font-family: BACS"">CYPcdPc</p>","","","","","","","","",""
"html-keyboard-response","294","383779","0.0-14.0-0.43","605aa0bb5fb71bbcf0808892","650c16f0f2faf8d7a0d14c09","651c1e6dcef5dc96a09501b3","null","null","<p style=""font-size: 60px; font-family: BACS"">AlNUYZJO</p>","","","","","","","","",""
"html-keyboard-response","295","384786","0.0-14.0-0.44","605aa0bb5fb71bbcf0808892","650c16f0f2faf8d7a0d14c09","651c1e6dcef5dc96a09501b3","null","null","<p style=""font-size: 60px; font-family: BACS"">bAdkdPc</p>","","","","","","","","",""
"html-keyboard-response","296","385797","0.0-14.0-0.45","605aa0bb5fb71bbcf0808892","650c16f0f2faf8d7a0d14c09","651c1e6dcef5dc96a09501b3","null","null","<p style=""font-size: 60px; font-family: BACS"">khmhPMYm</p>","","","","","","","","",""
"html-keyboard-response","297","386798","0.0-14.0-0.46","605aa0bb5fb71bbcf0808892","650c16f0f2faf8d7a0d14c09","651c1e6dcef5dc96a09501b3","null","null","<p style=""font-size: 60px; font-family: BACS"">bRABtdPc</p>","","","","","","","","",""
"html-keyboard-response","298","387799","0.0-14.0-0.47","605aa0bb5fb71bbcf0808892","650c16f0f2faf8d7a0d14c09","651c1e6dcef5dc96a09501b3","null","null","<p style=""font-size: 60px; font-family: BACS"">EhRmTbk</p>","","","","","","","","",""
"html-keyboard-response","299","388802","0.0-14.0-0.48","605aa0bb5fb71bbcf0808892","650c16f0f2faf8d7a0d14c09","651c1e6dcef5dc96a09501b3","null","null","<p style=""font-size: 60px; font-family: BACS"">thbOMBCD</p>","","","","","","","","",""
"html-keyboard-response","300","389805","0.0-14.0-0.49","605aa0bb5fb71bbcf0808892","650c16f0f2faf8d7a0d14c09","651c1e6dcef5dc96a09501b3","null","null","<p style=""font-size: 60px; font-family: BACS"">mdkKTbk</p>","","","","","","","","",""
"html-keyboard-response","301","390821","0.0-14.0-0.50","605aa0bb5fb71bbcf0808892","650c16f0f2faf8d7a0d14c09","651c1e6dcef5dc96a09501b3","null","null","<p style=""font-size: 60px; font-family: BACS"">JmNkGQYQ</p>","","","","","","","","",""
"html-keyboard-response","302","391836","0.0-14.0-0.51","605aa0bb5fb71bbcf0808892","650c16f0f2faf8d7a0d14c09","651c1e6dcef5dc96a09501b3","null","null","<p style=""font-size: 60px; font-family: BACS"">CYPcTRkY</p>","","","","","","","","",""
"html-keyboard-response","303","392847","0.0-14.0-0.52","605aa0bb5fb71bbcf0808892","650c16f0f2faf8d7a0d14c09","651c1e6dcef5dc96a09501b3","null","null","<p style=""font-size: 60px; font-family: BACS"">thbOMPMYm</p>","","","","","","","","",""
"html-keyboard-response","304","393858","0.0-14.0-0.53","605aa0bb5fb71bbcf0808892","650c16f0f2faf8d7a0d14c09","651c1e6dcef5dc96a09501b3","null","null","<p style=""font-size: 60px; font-family: BACS"">khmhBCD</p>","","","","","","","","",""
"html-keyboard-response","305","394864","0.0-14.0-0.54","605aa0bb5fb71bbcf0808892","650c16f0f2faf8d7a0d14c09","651c1e6dcef5dc96a09501b3","null","null","<p style=""font-size: 60px; font-family: BACS"">vYLUYLU</p>","","","","","","","","",""
"html-keyboard-response","306","395871","0.0-14.0-0.55","605aa0bb5fb71bbcf0808892","650c16f0f2faf8d7a0d14c09","651c1e6dcef5dc96a09501b3","null","null","<p style=""font-size: 60px; font-family: BACS"">JmNkYZJO</p>","","","","","","","","",""
"html-keyboard-response","307","396880","0.0-14.0-0.56","605aa0bb5fb71bbcf0808892","650c16f0f2faf8d7a0d14c09","651c1e6dcef5dc96a09501b3","null","null","<p style=""font-size: 60px; font-family: BACS"">EhRmdPc</p>","","","","","","","","",""
"html-keyboard-response","308","397889","0.0-14.0-0.57","605aa0bb5fb71bbcf0808892","650c16f0f2faf8d7a0d14c09","651c1e6dcef5dc96a09501b3","null","null","<p style=""font-size: 60px; font-family: BACS"">Qcladbadk</p>","","","","","","","","",""
"html-keyboard-response","309","398899","0.0-14.0-0.58","605aa0bb5fb71bbcf0808892","650c16f0f2faf8d7a0d14c09","651c1e6dcef5dc96a09501b3","null","null","<p style=""font-size: 60px; font-family: BACS"">EhRmPMYm</p>","","","","","","","","",""
"html-keyboard-response","310","399907","0.0-14.0-0.59","605aa0bb5fb71bbcf0808892","650c16f0f2faf8d7a0d14c09","651c1e6dcef5dc96a09501b3","null","null","<p style=""font-size: 60px; font-family: BACS"">QcladYZJO</p>","","","","","","","","",""
"html-keyboard-response","311","400918","0.0-14.0-0.60","605aa0bb5fb71bbcf0808892","650c16f0f2faf8d7a0d14c09","651c1e6dcef5dc96a09501b3","null","null","<p style=""font-size: 60px; font-family: BACS"">AbkaYbN</p>","","","","","","","","",""
"html-keyboard-response","312","401924","0.0-14.0-0.61","605aa0bb5fb71bbcf0808892","650c16f0f2faf8d7a0d14c09","651c1e6dcef5dc96a09501b3","null","null","<p style=""font-size: 60px; font-family: BACS"">ZNLOvYZJO</p>","","","","","","","","",""
"html-keyboard-response","313","402931","0.0-14.0-0.62","605aa0bb5fb71bbcf0808892","650c16f0f2faf8d7a0d14c09","651c1e6dcef5dc96a09501b3","null","null","<p style=""font-size: 60px; font-family: BACS"">bAdkBCD</p>","","","","","","","","",""
"html-keyboard-response","314","403936","0.0-14.0-0.63","605aa0bb5fb71bbcf0808892","650c16f0f2faf8d7a0d14c09","651c1e6dcef5dc96a09501b3","null","null","<p style=""font-size: 60px; font-family: BACS"">AlNUGQYQ</p>","","","","","","","","",""
"html-keyboard-response","315","404948","0.0-14.0-0.64","605aa0bb5fb71bbcf0808892","650c16f0f2faf8d7a0d14c09","651c1e6dcef5dc96a09501b3","null","null","<p style=""font-size: 60px; font-family: BACS"">QcladYLU</p>","","","","","","","","",""
"html-keyboard-response","316","405956","0.0-14.0-0.65","605aa0bb5fb71bbcf0808892","650c16f0f2faf8d7a0d14c09","651c1e6dcef5dc96a09501b3","null","null","<p style=""font-size: 60px; font-family: BACS"">ctktTRkY</p>","","","","","","","","",""
"html-keyboard-response","317","406961","0.0-14.0-0.66","605aa0bb5fb71bbcf0808892","650c16f0f2faf8d7a0d14c09","651c1e6dcef5dc96a09501b3","null","null","<p style=""font-size: 60px; font-family: BACS"">vYLUYbN</p>","","","","","","","","",""
"html-keyboard-response","318","407971","0.0-14.0-0.67","605aa0bb5fb71bbcf0808892","650c16f0f2faf8d7a0d14c09","651c1e6dcef5dc96a09501b3","null","null","<p style=""font-size: 60px; font-family: BACS"">bRABtTRkY</p>","","","","","","","","",""
"html-keyboard-response","319","408982","0.0-14.0-0.68","605aa0bb5fb71bbcf0808892","650c16f0f2faf8d7a0d14c09","651c1e6dcef5dc96a09501b3","null","null","<p style=""font-size: 60px; font-family: BACS"">GumLlYLU</p>","","","","","","","","",""
"html-keyboard-response","320","409992","0.0-14.0-0.69","605aa0bb5fb71bbcf0808892","650c16f0f2faf8d7a0d14c09","651c1e6dcef5dc96a09501b3","null","null","<p style=""font-size: 60px; font-family: BACS"">ctktBCD</p>","","","","","","","","",""
"html-keyboard-response","321","411002","0.0-14.0-0.70","605aa0bb5fb71bbcf0808892","650c16f0f2faf8d7a0d14c09","651c1e6dcef5dc96a09501b3","null","null","<p style=""font-size: 60px; font-family: BACS"">ZNLOvYLU</p>","","","","","","","","",""
"html-keyboard-response","322","412012","0.0-14.0-0.71","605aa0bb5fb71bbcf0808892","650c16f0f2faf8d7a0d14c09","651c1e6dcef5dc96a09501b3","null","null","<p style=""font-size: 60px; font-family: BACS"">NQZvbadk</p>","","","","","","","","",""
"html-keyboard-response","323","413021","0.0-14.0-0.72","605aa0bb5fb71bbcf0808892","650c16f0f2faf8d7a0d14c09","651c1e6dcef5dc96a09501b3","null","null","<p style=""font-size: 60px; font-family: BACS"">AMkCTRkY</p>","","","","","","","","",""
"html-keyboard-response","324","414024","0.0-14.0-0.73","605aa0bb5fb71bbcf0808892","650c16f0f2faf8d7a0d14c09","651c1e6dcef5dc96a09501b3","null","null","<p style=""font-size: 60px; font-family: BACS"">uQuZcYZJO</p>","","","","","","","","",""
"html-keyboard-response","325","415030","0.0-14.0-0.74","605aa0bb5fb71bbcf0808892","650c16f0f2faf8d7a0d14c09","651c1e6dcef5dc96a09501b3","null","null","<p style=""font-size: 60px; font-family: BACS"">AMkCTbk</p>","","","","","","","","",""
"html-keyboard-response","326","416037","0.0-14.0-0.75","605aa0bb5fb71bbcf0808892","650c16f0f2faf8d7a0d14c09","651c1e6dcef5dc96a09501b3","null","null","<p style=""font-size: 60px; font-family: BACS"">DcPTcTRkY</p>","","","","","","","","",""
"html-keyboard-response","327","417049","0.0-14.0-0.76","605aa0bb5fb71bbcf0808892","650c16f0f2faf8d7a0d14c09","651c1e6dcef5dc96a09501b3","null","null","<p style=""font-size: 60px; font-family: BACS"">thbOMTbk</p>","","","","","","","","",""
"html-keyboard-response","328","418055","0.0-14.0-0.77","605aa0bb5fb71bbcf0808892","650c16f0f2faf8d7a0d14c09","651c1e6dcef5dc96a09501b3","null","null","<p style=""font-size: 60px; font-family: BACS"">GumLlGQYQ</p>","","","","","","","","",""
"html-keyboard-response","329","419068","0.0-14.0-0.78","605aa0bb5fb71bbcf0808892","650c16f0f2faf8d7a0d14c09","651c1e6dcef5dc96a09501b3","null","null","<p style=""font-size: 60px; font-family: BACS"">AMkCdPc</p>","","","","","","","","",""
"html-keyboard-response","330","420076","0.0-14.0-0.79","605aa0bb5fb71bbcf0808892","650c16f0f2faf8d7a0d14c09","651c1e6dcef5dc96a09501b3","null","null","<p style=""font-size: 60px; font-family: BACS"">uQuZcYbN</p>","","","","","","","","",""
"html-keyboard-response","331","421832","0.0-15.0","605aa0bb5fb71bbcf0808892","650c16f0f2faf8d7a0d14c09","651c1e6dcef5dc96a09501b3","1755"," ","<p>Great, you've seen the fourth block of words. You may now take a short break.</p>
      <p>Press the spacebar when you're ready to continue.</p>","","","","","","","","",""
"html-keyboard-response","332","422846","0.0-16.0-0.0","605aa0bb5fb71bbcf0808892","650c16f0f2faf8d7a0d14c09","651c1e6dcef5dc96a09501b3","null","null","<p style=""font-size: 60px; font-family: BACS"">JmNkbadk</p>","","","","","","","","",""
"html-keyboard-response","333","423861","0.0-16.0-0.1","605aa0bb5fb71bbcf0808892","650c16f0f2faf8d7a0d14c09","651c1e6dcef5dc96a09501b3","null","null","<p style=""font-size: 60px; font-family: BACS"">JmNkbadk</p>","","","","","","","","",""
"html-keyboard-response","334","424870","0.0-16.0-0.2","605aa0bb5fb71bbcf0808892","650c16f0f2faf8d7a0d14c09","651c1e6dcef5dc96a09501b3","null","null","<p style=""font-size: 60px; font-family: BACS"">JmNkbadk</p>","","","","","","","","",""
"html-keyboard-response","335","425876","0.0-16.0-0.3","605aa0bb5fb71bbcf0808892","650c16f0f2faf8d7a0d14c09","651c1e6dcef5dc96a09501b3","null","null","<p style=""font-size: 60px; font-family: BACS"">JmNkbadk</p>","","","","","","","","",""
"html-keyboard-response","336","426882","0.0-16.0-0.4","605aa0bb5fb71bbcf0808892","650c16f0f2faf8d7a0d14c09","651c1e6dcef5dc96a09501b3","null","null","<p style=""font-size: 60px; font-family: BACS"">JmNkbadk</p>","","","","","","","","",""
"html-keyboard-response","337","427896","0.0-16.0-0.5","605aa0bb5fb71bbcf0808892","650c16f0f2faf8d7a0d14c09","651c1e6dcef5dc96a09501b3","null","null","<p style=""font-size: 60px; font-family: BACS"">JmNkbadk</p>","","","","","","","","",""
"html-keyboard-response","338","428897","0.0-16.0-0.6","605aa0bb5fb71bbcf0808892","650c16f0f2faf8d7a0d14c09","651c1e6dcef5dc96a09501b3","null","null","<p style=""font-size: 60px; font-family: BACS"">JmNkbadk</p>","","","","","","","","",""
"html-keyboard-response","339","429899","0.0-16.0-0.7","605aa0bb5fb71bbcf0808892","650c16f0f2faf8d7a0d14c09","651c1e6dcef5dc96a09501b3","null","null","<p style=""font-size: 60px; font-family: BACS"">JmNkbadk</p>","","","","","","","","",""
"html-keyboard-response","340","430902","0.0-16.0-0.8","605aa0bb5fb71bbcf0808892","650c16f0f2faf8d7a0d14c09","651c1e6dcef5dc96a09501b3","null","null","<p style=""font-size: 60px; font-family: BACS"">JmNkbadk</p>","","","","","","","","",""
"html-keyboard-response","341","431912","0.0-16.0-0.9","605aa0bb5fb71bbcf0808892","650c16f0f2faf8d7a0d14c09","651c1e6dcef5dc96a09501b3","null","null","<p style=""font-size: 60px; font-family: BACS"">JmNkbadk</p>","","","","","","","","",""
"html-keyboard-response","342","432916","0.0-16.0-0.10","605aa0bb5fb71bbcf0808892","650c16f0f2faf8d7a0d14c09","651c1e6dcef5dc96a09501b3","null","null","<p style=""font-size: 60px; font-family: BACS"">JmNkbadk</p>","","","","","","","","",""
"html-keyboard-response","343","433925","0.0-16.0-0.11","605aa0bb5fb71bbcf0808892","650c16f0f2faf8d7a0d14c09","651c1e6dcef5dc96a09501b3","null","null","<p style=""font-size: 60px; font-family: BACS"">JmNkbadk</p>","","","","","","","","",""
"html-keyboard-response","344","434939","0.0-16.0-0.12","605aa0bb5fb71bbcf0808892","650c16f0f2faf8d7a0d14c09","651c1e6dcef5dc96a09501b3","null","null","<p style=""font-size: 60px; font-family: BACS"">JmNkbadk</p>","","","","","","","","",""
"html-keyboard-response","345","435947","0.0-16.0-0.13","605aa0bb5fb71bbcf0808892","650c16f0f2faf8d7a0d14c09","651c1e6dcef5dc96a09501b3","null","null","<p style=""font-size: 60px; font-family: BACS"">JmNkbadk</p>","","","","","","","","",""
"html-keyboard-response","346","436955","0.0-16.0-0.14","605aa0bb5fb71bbcf0808892","650c16f0f2faf8d7a0d14c09","651c1e6dcef5dc96a09501b3","null","null","<p style=""font-size: 60px; font-family: BACS"">JmNkbadk</p>","","","","","","","","",""
"html-keyboard-response","347","437960","0.0-16.0-0.15","605aa0bb5fb71bbcf0808892","650c16f0f2faf8d7a0d14c09","651c1e6dcef5dc96a09501b3","null","null","<p style=""font-size: 60px; font-family: BACS"">JmNkbadk</p>","","","","","","","","",""
"html-keyboard-response","348","438961","0.0-16.0-0.16","605aa0bb5fb71bbcf0808892","650c16f0f2faf8d7a0d14c09","651c1e6dcef5dc96a09501b3","null","null","<p style=""font-size: 60px; font-family: BACS"">JmNkbadk</p>","","","","","","","","",""
"html-keyboard-response","349","439964","0.0-16.0-0.17","605aa0bb5fb71bbcf0808892","650c16f0f2faf8d7a0d14c09","651c1e6dcef5dc96a09501b3","null","null","<p style=""font-size: 60px; font-family: BACS"">JmNkbadk</p>","","","","","","","","",""
"html-keyboard-response","350","440970","0.0-16.0-0.18","605aa0bb5fb71bbcf0808892","650c16f0f2faf8d7a0d14c09","651c1e6dcef5dc96a09501b3","null","null","<p style=""font-size: 60px; font-family: BACS"">JmNkbadk</p>","","","","","","","","",""
"html-keyboard-response","351","441986","0.0-16.0-0.19","605aa0bb5fb71bbcf0808892","650c16f0f2faf8d7a0d14c09","651c1e6dcef5dc96a09501b3","null","null","<p style=""font-size: 60px; font-family: BACS"">JmNkbadk</p>","","","","","","","","",""
"html-keyboard-response","352","443002","0.0-16.0-0.20","605aa0bb5fb71bbcf0808892","650c16f0f2faf8d7a0d14c09","651c1e6dcef5dc96a09501b3","null","null","<p style=""font-size: 60px; font-family: BACS"">JmNkbadk</p>","","","","","","","","",""
"html-keyboard-response","353","444018","0.0-16.0-0.21","605aa0bb5fb71bbcf0808892","650c16f0f2faf8d7a0d14c09","651c1e6dcef5dc96a09501b3","null","null","<p style=""font-size: 60px; font-family: BACS"">JmNkbadk</p>","","","","","","","","",""
"html-keyboard-response","354","445021","0.0-16.0-0.22","605aa0bb5fb71bbcf0808892","650c16f0f2faf8d7a0d14c09","651c1e6dcef5dc96a09501b3","null","null","<p style=""font-size: 60px; font-family: BACS"">JmNkbadk</p>","","","","","","","","",""
"html-keyboard-response","355","446028","0.0-16.0-0.23","605aa0bb5fb71bbcf0808892","650c16f0f2faf8d7a0d14c09","651c1e6dcef5dc96a09501b3","null","null","<p style=""font-size: 60px; font-family: BACS"">JmNkbadk</p>","","","","","","","","",""
"html-keyboard-response","356","447033","0.0-16.0-0.24","605aa0bb5fb71bbcf0808892","650c16f0f2faf8d7a0d14c09","651c1e6dcef5dc96a09501b3","null","null","<p style=""font-size: 60px; font-family: BACS"">JmNkbadk</p>","","","","","","","","",""
"html-keyboard-response","357","448040","0.0-16.0-0.25","605aa0bb5fb71bbcf0808892","650c16f0f2faf8d7a0d14c09","651c1e6dcef5dc96a09501b3","null","null","<p style=""font-size: 60px; font-family: BACS"">JmNkbadk</p>","","","","","","","","",""
"html-keyboard-response","358","449053","0.0-16.0-0.26","605aa0bb5fb71bbcf0808892","650c16f0f2faf8d7a0d14c09","651c1e6dcef5dc96a09501b3","null","null","<p style=""font-size: 60px; font-family: BACS"">JmNkbadk</p>","","","","","","","","",""
"html-keyboard-response","359","450057","0.0-16.0-0.27","605aa0bb5fb71bbcf0808892","650c16f0f2faf8d7a0d14c09","651c1e6dcef5dc96a09501b3","null","null","<p style=""font-size: 60px; font-family: BACS"">JmNkbadk</p>","","","","","","","","",""
"html-keyboard-response","360","451062","0.0-16.0-0.28","605aa0bb5fb71bbcf0808892","650c16f0f2faf8d7a0d14c09","651c1e6dcef5dc96a09501b3","null","null","<p style=""font-size: 60px; font-family: BACS"">JmNkbadk</p>","","","","","","","","",""
"html-keyboard-response","361","452067","0.0-16.0-0.29","605aa0bb5fb71bbcf0808892","650c16f0f2faf8d7a0d14c09","651c1e6dcef5dc96a09501b3","null","null","<p style=""font-size: 60px; font-family: BACS"">JmNkbadk</p>","","","","","","","","",""
"html-keyboard-response","362","453075","0.0-16.0-0.30","605aa0bb5fb71bbcf0808892","650c16f0f2faf8d7a0d14c09","651c1e6dcef5dc96a09501b3","null","null","<p style=""font-size: 60px; font-family: BACS"">JmNkbadk</p>","","","","","","","","",""
"html-keyboard-response","363","454077","0.0-16.0-0.31","605aa0bb5fb71bbcf0808892","650c16f0f2faf8d7a0d14c09","651c1e6dcef5dc96a09501b3","null","null","<p style=""font-size: 60px; font-family: BACS"">JmNkbadk</p>","","","","","","","","",""
"html-keyboard-response","364","455090","0.0-16.0-0.32","605aa0bb5fb71bbcf0808892","650c16f0f2faf8d7a0d14c09","651c1e6dcef5dc96a09501b3","null","null","<p style=""font-size: 60px; font-family: BACS"">JmNkbadk</p>","","","","","","","","",""
"html-keyboard-response","365","456101","0.0-16.0-0.33","605aa0bb5fb71bbcf0808892","650c16f0f2faf8d7a0d14c09","651c1e6dcef5dc96a09501b3","null","null","<p style=""font-size: 60px; font-family: BACS"">JmNkbadk</p>","","","","","","","","",""
"html-keyboard-response","366","457104","0.0-16.0-0.34","605aa0bb5fb71bbcf0808892","650c16f0f2faf8d7a0d14c09","651c1e6dcef5dc96a09501b3","null","null","<p style=""font-size: 60px; font-family: BACS"">JmNkbadk</p>","","","","","","","","",""
"html-keyboard-response","367","458108","0.0-16.0-0.35","605aa0bb5fb71bbcf0808892","650c16f0f2faf8d7a0d14c09","651c1e6dcef5dc96a09501b3","null","null","<p style=""font-size: 60px; font-family: BACS"">JmNkbadk</p>","","","","","","","","",""
"html-keyboard-response","368","459116","0.0-16.0-0.36","605aa0bb5fb71bbcf0808892","650c16f0f2faf8d7a0d14c09","651c1e6dcef5dc96a09501b3","null","null","<p style=""font-size: 60px; font-family: BACS"">JmNkbadk</p>","","","","","","","","",""
"html-keyboard-response","369","460120","0.0-16.0-0.37","605aa0bb5fb71bbcf0808892","650c16f0f2faf8d7a0d14c09","651c1e6dcef5dc96a09501b3","null","null","<p style=""font-size: 60px; font-family: BACS"">JmNkbadk</p>","","","","","","","","",""
"html-keyboard-response","370","461123","0.0-16.0-0.38","605aa0bb5fb71bbcf0808892","650c16f0f2faf8d7a0d14c09","651c1e6dcef5dc96a09501b3","null","null","<p style=""font-size: 60px; font-family: BACS"">JmNkbadk</p>","","","","","","","","",""
"html-keyboard-response","371","462130","0.0-16.0-0.39","605aa0bb5fb71bbcf0808892","650c16f0f2faf8d7a0d14c09","651c1e6dcef5dc96a09501b3","null","null","<p style=""font-size: 60px; font-family: BACS"">JmNkbadk</p>","","","","","","","","",""
"html-keyboard-response","372","463137","0.0-16.0-0.40","605aa0bb5fb71bbcf0808892","650c16f0f2faf8d7a0d14c09","651c1e6dcef5dc96a09501b3","null","null","<p style=""font-size: 60px; font-family: BACS"">JmNkbadk</p>","","","","","","","","",""
"html-keyboard-response","373","464142","0.0-16.0-0.41","605aa0bb5fb71bbcf0808892","650c16f0f2faf8d7a0d14c09","651c1e6dcef5dc96a09501b3","null","null","<p style=""font-size: 60px; font-family: BACS"">JmNkbadk</p>","","","","","","","","",""
"html-keyboard-response","374","465150","0.0-16.0-0.42","605aa0bb5fb71bbcf0808892","650c16f0f2faf8d7a0d14c09","651c1e6dcef5dc96a09501b3","null","null","<p style=""font-size: 60px; font-family: BACS"">JmNkbadk</p>","","","","","","","","",""
"html-keyboard-response","375","466156","0.0-16.0-0.43","605aa0bb5fb71bbcf0808892","650c16f0f2faf8d7a0d14c09","651c1e6dcef5dc96a09501b3","null","null","<p style=""font-size: 60px; font-family: BACS"">JmNkbadk</p>","","","","","","","","",""
"html-keyboard-response","376","467161","0.0-16.0-0.44","605aa0bb5fb71bbcf0808892","650c16f0f2faf8d7a0d14c09","651c1e6dcef5dc96a09501b3","null","null","<p style=""font-size: 60px; font-family: BACS"">JmNkbadk</p>","","","","","","","","",""
"html-keyboard-response","377","468176","0.0-16.0-0.45","605aa0bb5fb71bbcf0808892","650c16f0f2faf8d7a0d14c09","651c1e6dcef5dc96a09501b3","null","null","<p style=""font-size: 60px; font-family: BACS"">JmNkbadk</p>","","","","","","","","",""
"html-keyboard-response","378","469190","0.0-16.0-0.46","605aa0bb5fb71bbcf0808892","650c16f0f2faf8d7a0d14c09","651c1e6dcef5dc96a09501b3","null","null","<p style=""font-size: 60px; font-family: BACS"">JmNkbadk</p>","","","","","","","","",""
"html-keyboard-response","379","470191","0.0-16.0-0.47","605aa0bb5fb71bbcf0808892","650c16f0f2faf8d7a0d14c09","651c1e6dcef5dc96a09501b3","null","null","<p style=""font-size: 60px; font-family: BACS"">JmNkbadk</p>","","","","","","","","",""
"html-keyboard-response","380","471204","0.0-16.0-0.48","605aa0bb5fb71bbcf0808892","650c16f0f2faf8d7a0d14c09","651c1e6dcef5dc96a09501b3","null","null","<p style=""font-size: 60px; font-family: BACS"">JmNkbadk</p>","","","","","","","","",""
"html-keyboard-response","381","472213","0.0-16.0-0.49","605aa0bb5fb71bbcf0808892","650c16f0f2faf8d7a0d14c09","651c1e6dcef5dc96a09501b3","null","null","<p style=""font-size: 60px; font-family: BACS"">JmNkbadk</p>","","","","","","","","",""
"html-keyboard-response","382","473217","0.0-16.0-0.50","605aa0bb5fb71bbcf0808892","650c16f0f2faf8d7a0d14c09","651c1e6dcef5dc96a09501b3","null","null","<p style=""font-size: 60px; font-family: BACS"">JmNkbadk</p>","","","","","","","","",""
"html-keyboard-response","383","474222","0.0-16.0-0.51","605aa0bb5fb71bbcf0808892","650c16f0f2faf8d7a0d14c09","651c1e6dcef5dc96a09501b3","null","null","<p style=""font-size: 60px; font-family: BACS"">JmNkbadk</p>","","","","","","","","",""
"html-keyboard-response","384","475224","0.0-16.0-0.52","605aa0bb5fb71bbcf0808892","650c16f0f2faf8d7a0d14c09","651c1e6dcef5dc96a09501b3","null","null","<p style=""font-size: 60px; font-family: BACS"">JmNkbadk</p>","","","","","","","","",""
"html-keyboard-response","385","476237","0.0-16.0-0.53","605aa0bb5fb71bbcf0808892","650c16f0f2faf8d7a0d14c09","651c1e6dcef5dc96a09501b3","null","null","<p style=""font-size: 60px; font-family: BACS"">JmNkbadk</p>","","","","","","","","",""
"html-keyboard-response","386","477241","0.0-16.0-0.54","605aa0bb5fb71bbcf0808892","650c16f0f2faf8d7a0d14c09","651c1e6dcef5dc96a09501b3","null","null","<p style=""font-size: 60px; font-family: BACS"">JmNkbadk</p>","","","","","","","","",""
"html-keyboard-response","387","478245","0.0-16.0-0.55","605aa0bb5fb71bbcf0808892","650c16f0f2faf8d7a0d14c09","651c1e6dcef5dc96a09501b3","null","null","<p style=""font-size: 60px; font-family: BACS"">JmNkbadk</p>","","","","","","","","",""
"html-keyboard-response","388","479256","0.0-16.0-0.56","605aa0bb5fb71bbcf0808892","650c16f0f2faf8d7a0d14c09","651c1e6dcef5dc96a09501b3","null","null","<p style=""font-size: 60px; font-family: BACS"">JmNkbadk</p>","","","","","","","","",""
"html-keyboard-response","389","480271","0.0-16.0-0.57","605aa0bb5fb71bbcf0808892","650c16f0f2faf8d7a0d14c09","651c1e6dcef5dc96a09501b3","null","null","<p style=""font-size: 60px; font-family: BACS"">JmNkbadk</p>","","","","","","","","",""
"html-keyboard-response","390","481272","0.0-16.0-0.58","605aa0bb5fb71bbcf0808892","650c16f0f2faf8d7a0d14c09","651c1e6dcef5dc96a09501b3","null","null","<p style=""font-size: 60px; font-family: BACS"">JmNkbadk</p>","","","","","","","","",""
"html-keyboard-response","391","482279","0.0-16.0-0.59","605aa0bb5fb71bbcf0808892","650c16f0f2faf8d7a0d14c09","651c1e6dcef5dc96a09501b3","null","null","<p style=""font-size: 60px; font-family: BACS"">JmNkbadk</p>","","","","","","","","",""
"html-keyboard-response","392","483283","0.0-16.0-0.60","605aa0bb5fb71bbcf0808892","650c16f0f2faf8d7a0d14c09","651c1e6dcef5dc96a09501b3","null","null","<p style=""font-size: 60px; font-family: BACS"">JmNkbadk</p>","","","","","","","","",""
"html-keyboard-response","393","484285","0.0-16.0-0.61","605aa0bb5fb71bbcf0808892","650c16f0f2faf8d7a0d14c09","651c1e6dcef5dc96a09501b3","null","null","<p style=""font-size: 60px; font-family: BACS"">JmNkbadk</p>","","","","","","","","",""
"html-keyboard-response","394","485293","0.0-16.0-0.62","605aa0bb5fb71bbcf0808892","650c16f0f2faf8d7a0d14c09","651c1e6dcef5dc96a09501b3","null","null","<p style=""font-size: 60px; font-family: BACS"">JmNkbadk</p>","","","","","","","","",""
"html-keyboard-response","395","486297","0.0-16.0-0.63","605aa0bb5fb71bbcf0808892","650c16f0f2faf8d7a0d14c09","651c1e6dcef5dc96a09501b3","null","null","<p style=""font-size: 60px; font-family: BACS"">JmNkbadk</p>","","","","","","","","",""
"html-keyboard-response","396","487300","0.0-16.0-0.64","605aa0bb5fb71bbcf0808892","650c16f0f2faf8d7a0d14c09","651c1e6dcef5dc96a09501b3","null","null","<p style=""font-size: 60px; font-family: BACS"">JmNkbadk</p>","","","","","","","","",""
"html-keyboard-response","397","488309","0.0-16.0-0.65","605aa0bb5fb71bbcf0808892","650c16f0f2faf8d7a0d14c09","651c1e6dcef5dc96a09501b3","null","null","<p style=""font-size: 60px; font-family: BACS"">JmNkbadk</p>","","","","","","","","",""
"html-keyboard-response","398","489317","0.0-16.0-0.66","605aa0bb5fb71bbcf0808892","650c16f0f2faf8d7a0d14c09","651c1e6dcef5dc96a09501b3","null","null","<p style=""font-size: 60px; font-family: BACS"">JmNkbadk</p>","","","","","","","","",""
"html-keyboard-response","399","490319","0.0-16.0-0.67","605aa0bb5fb71bbcf0808892","650c16f0f2faf8d7a0d14c09","651c1e6dcef5dc96a09501b3","null","null","<p style=""font-size: 60px; font-family: BACS"">JmNkbadk</p>","","","","","","","","",""
"html-keyboard-response","400","491324","0.0-16.0-0.68","605aa0bb5fb71bbcf0808892","650c16f0f2faf8d7a0d14c09","651c1e6dcef5dc96a09501b3","null","null","<p style=""font-size: 60px; font-family: BACS"">JmNkbadk</p>","","","","","","","","",""
