"trial_type","trial_index","time_elapsed","internal_node_id","subject_id","study_id","session_id","rt","response","stimulus","success","item","task","correct_response","testing_condition","correct","target","confound","name"
"pavlovia","0","858","0.0-0.0","5fc65d9cc4575b0b47981de8","64e77d7b61f440b60e28659d","64ecab5d51aee53c7378890f","","","","","","","","","","","",""
"survey-html-form","1","7291","0.0-1.0","5fc65d9cc4575b0b47981de8","64e77d7b61f440b60e28659d","64ecab5d51aee53c7378890f","6431","{""ID"":""5fc65d9cc4575b0b47981de8""}","","","","","","","","","",""
"html-keyboard-response","2","58126","0.0-2.0","5fc65d9cc4575b0b47981de8","64e77d7b61f440b60e28659d","64ecab5d51aee53c7378890f","50834"," ","<p style=""font-size: 15px;"">Before beginning, we ask that you read the consent information and confirm your agreement to participate in the experiment.</p>
      <p style=""font-size: 15px;""> We ask that you remember that this is a research project and that your participation is entirely voluntary. You can stop your participation at any time, without needing to provide any explanation. The study we're asking you to participate in aims at examining how readers process written words. You will be engaged in a session of apprximately 20 minutes, followed by a brief questionnaire. You will have the opportunity to take a few breaks during the experiment. You will be paid £4 for your participation, corresponding to a rate of £8/hour. While this experiment looks at cognitive faculties, this experiment doesn't constitute clinical proof of eventual pathologies.</p>
      <p style=""font-size: 15px;"">All of the information collected thanks to yours and others' participation will be held in a secure password-protected server, and will not be shared with anyone not authorised to view it. Your personal information will be kept with an arbitrary participant ID. Thanks to this data anonymity process, any researcher analysing the data won't be able to track the information back to a specific participant. Therefore, this process will make identifying you impossibile, even when results from the study will be published in scientific reviews, presented at congresses, or at any other public forum. More generally, the collected data will be treated in accordance with the laws on privacy and conformity to the Legislative Degree n. 196 ""Code regarding the protection of personal data"" of the 30th of June 2003 and to the European Regulation 2016/670 (General Data Protection Regulation - GDPR). The Data Protection Officer is Avv. Valentina Carollo, who can be contacted at the following email addresses: <a href=""mailto:dpo@sissa.it"">dpo@sissa.it</a> or <a href=""mailto:rpd@sissa.it"">rpd@sissa.it</a> - PEC: <a href=""mailto:protocollo@pec.sissa.it"">protocollo@pec.sissa.it</a>.</p>
      <p style=""font-size: 15px;""> Before expressing your consent to participate, we would like to remind you again that in case you need explanations on any aspect of the experimental procedure, the researcher is at your disposition (<a href=""mailto:aliebelt@sissa.it"">aliebelt@sissa.it</a>, <a href=""mailto:davide.crepaldi@sissa.it"">davide.crepaldi@sissa.it</a>).</p>
      <p style=""font-size: 15px;"">If you would like to download the informed consent form, you can do so here: <a href=""BASL-Informed_Consent.pdf"" download>informed consent form</a>.</p>
      <p style=""font-size: 15px;"">We ask that you press the spacebar to proceed to the consent section.</p>","","","","","","","","",""
"survey-html-form","3","91533","0.0-3.0","5fc65d9cc4575b0b47981de8","64e77d7b61f440b60e28659d","64ecab5d51aee53c7378890f","33405","{""consent1"":""YES"",""consent2"":""YES"",""consent3"":""YES"",""consent4"":""YES"",""consent5"":""YES"",""consent6"":""YES""}","","","","","","","","","",""
"fullscreen","4","101740","0.0-4.0","5fc65d9cc4575b0b47981de8","64e77d7b61f440b60e28659d","64ecab5d51aee53c7378890f","","","","true","","","","","","","",""
"html-keyboard-response","5","138263","0.0-5.0","5fc65d9cc4575b0b47981de8","64e77d7b61f440b60e28659d","64ecab5d51aee53c7378890f","36522"," ","<p>Welcome, and thank you very much for your time!</p>
      <p>In this experiment, you'll be a language expert who's been asked to take a look at words that Earth has received in its first communication with aliens. Your task, in this first part of the experiment, is to pay close attention to the words you'll be shown; later, world leaders will ask you questions on what you saw. The words will be shown to you quite quickly; it seems that the aliens were in a hurry :-)</p>
      <p>Press the spacebar to continue.<p>","","","","","","","","",""
"html-keyboard-response","6","154264","0.0-6.0","5fc65d9cc4575b0b47981de8","64e77d7b61f440b60e28659d","64ecab5d51aee53c7378890f","16000"," ","<p>Here is an example of the words you'll see:</p>
      <img src='esempio.png' height='400px'>
      <p>When you're ready to begin, press the spacebar.</p></div>","","","","","","","","",""
"html-keyboard-response","7","155280","0.0-7.0-0.0","5fc65d9cc4575b0b47981de8","64e77d7b61f440b60e28659d","64ecab5d51aee53c7378890f","null","null","<p style=""font-size: 60px; font-family: BACS"">UdYUQcbm</p>","","","","","","","","",""
"html-keyboard-response","8","156284","0.0-7.0-0.1","5fc65d9cc4575b0b47981de8","64e77d7b61f440b60e28659d","64ecab5d51aee53c7378890f","null","null","<p style=""font-size: 60px; font-family: BACS"">ALOrluvJ</p>","","","","","","","","",""
"html-keyboard-response","9","157297","0.0-7.0-0.2","5fc65d9cc4575b0b47981de8","64e77d7b61f440b60e28659d","64ecab5d51aee53c7378890f","null","null","<p style=""font-size: 60px; font-family: BACS"">OmtlDKOYC</p>","","","","","","","","",""
"html-keyboard-response","10","158311","0.0-7.0-0.3","5fc65d9cc4575b0b47981de8","64e77d7b61f440b60e28659d","64ecab5d51aee53c7378890f","null","null","<p style=""font-size: 60px; font-family: BACS"">UdYUQYUYa</p>","","","","","","","","",""
"html-keyboard-response","11","159322","0.0-7.0-0.4","5fc65d9cc4575b0b47981de8","64e77d7b61f440b60e28659d","64ecab5d51aee53c7378890f","null","null","<p style=""font-size: 60px; font-family: BACS"">mhtcKOYC</p>","","","","","","","","",""
"html-keyboard-response","12","160325","0.0-7.0-0.5","5fc65d9cc4575b0b47981de8","64e77d7b61f440b60e28659d","64ecab5d51aee53c7378890f","null","null","<p style=""font-size: 60px; font-family: BACS"">NQZvYUYa</p>","","","","","","","","",""
"html-keyboard-response","13","161338","0.0-7.0-0.6","5fc65d9cc4575b0b47981de8","64e77d7b61f440b60e28659d","64ecab5d51aee53c7378890f","null","null","<p style=""font-size: 60px; font-family: BACS"">TdTDbAMO</p>","","","","","","","","",""
"html-keyboard-response","14","162348","0.0-7.0-0.7","5fc65d9cc4575b0b47981de8","64e77d7b61f440b60e28659d","64ecab5d51aee53c7378890f","null","null","<p style=""font-size: 60px; font-family: BACS"">RtRhbdtK</p>","","","","","","","","",""
"html-keyboard-response","15","163356","0.0-7.0-0.8","5fc65d9cc4575b0b47981de8","64e77d7b61f440b60e28659d","64ecab5d51aee53c7378890f","null","null","<p style=""font-size: 60px; font-family: BACS"">KdARBYhT</p>","","","","","","","","",""
"html-keyboard-response","16","164364","0.0-7.0-0.9","5fc65d9cc4575b0b47981de8","64e77d7b61f440b60e28659d","64ecab5d51aee53c7378890f","null","null","<p style=""font-size: 60px; font-family: BACS"">UaZmauvJ</p>","","","","","","","","",""
"html-keyboard-response","17","165376","0.0-7.0-0.10","5fc65d9cc4575b0b47981de8","64e77d7b61f440b60e28659d","64ecab5d51aee53c7378890f","null","null","<p style=""font-size: 60px; font-family: BACS"">TdTDBYhT</p>","","","","","","","","",""
"html-keyboard-response","18","166383","0.0-7.0-0.11","5fc65d9cc4575b0b47981de8","64e77d7b61f440b60e28659d","64ecab5d51aee53c7378890f","null","null","<p style=""font-size: 60px; font-family: BACS"">lGZvYUYa</p>","","","","","","","","",""
"html-keyboard-response","19","167399","0.0-7.0-0.12","5fc65d9cc4575b0b47981de8","64e77d7b61f440b60e28659d","64ecab5d51aee53c7378890f","null","null","<p style=""font-size: 60px; font-family: BACS"">RkmdCbAMO</p>","","","","","","","","",""
"html-keyboard-response","20","168403","0.0-7.0-0.13","5fc65d9cc4575b0b47981de8","64e77d7b61f440b60e28659d","64ecab5d51aee53c7378890f","null","null","<p style=""font-size: 60px; font-family: BACS"">UaZmakbu</p>","","","","","","","","",""
"html-keyboard-response","21","169418","0.0-7.0-0.14","5fc65d9cc4575b0b47981de8","64e77d7b61f440b60e28659d","64ecab5d51aee53c7378890f","null","null","<p style=""font-size: 60px; font-family: BACS"">dClOCbdtK</p>","","","","","","","","",""
"html-keyboard-response","22","170430","0.0-7.0-0.15","5fc65d9cc4575b0b47981de8","64e77d7b61f440b60e28659d","64ecab5d51aee53c7378890f","null","null","<p style=""font-size: 60px; font-family: BACS"">lGZvcbm</p>","","","","","","","","",""
"html-keyboard-response","23","171446","0.0-7.0-0.16","5fc65d9cc4575b0b47981de8","64e77d7b61f440b60e28659d","64ecab5d51aee53c7378890f","null","null","<p style=""font-size: 60px; font-family: BACS"">RkmdCbdtK</p>","","","","","","","","",""
"html-keyboard-response","24","172450","0.0-7.0-0.17","5fc65d9cc4575b0b47981de8","64e77d7b61f440b60e28659d","64ecab5d51aee53c7378890f","null","null","<p style=""font-size: 60px; font-family: BACS"">kabJbNYZu</p>","","","","","","","","",""
"html-keyboard-response","25","173452","0.0-7.0-0.18","5fc65d9cc4575b0b47981de8","64e77d7b61f440b60e28659d","64ecab5d51aee53c7378890f","null","null","<p style=""font-size: 60px; font-family: BACS"">RlAKcbAMO</p>","","","","","","","","",""
"html-keyboard-response","26","174458","0.0-7.0-0.19","5fc65d9cc4575b0b47981de8","64e77d7b61f440b60e28659d","64ecab5d51aee53c7378890f","null","null","<p style=""font-size: 60px; font-family: BACS"">ALOrlkbu</p>","","","","","","","","",""
"html-keyboard-response","27","175459","0.0-7.0-0.20","5fc65d9cc4575b0b47981de8","64e77d7b61f440b60e28659d","64ecab5d51aee53c7378890f","null","null","<p style=""font-size: 60px; font-family: BACS"">kabJbcbm</p>","","","","","","","","",""
"html-keyboard-response","28","176475","0.0-7.0-0.21","5fc65d9cc4575b0b47981de8","64e77d7b61f440b60e28659d","64ecab5d51aee53c7378890f","null","null","<p style=""font-size: 60px; font-family: BACS"">RtRhBYhT</p>","","","","","","","","",""
"html-keyboard-response","29","177489","0.0-7.0-0.22","5fc65d9cc4575b0b47981de8","64e77d7b61f440b60e28659d","64ecab5d51aee53c7378890f","null","null","<p style=""font-size: 60px; font-family: BACS"">kabJbuvJ</p>","","","","","","","","",""
"html-keyboard-response","30","178490","0.0-7.0-0.23","5fc65d9cc4575b0b47981de8","64e77d7b61f440b60e28659d","64ecab5d51aee53c7378890f","null","null","<p style=""font-size: 60px; font-family: BACS"">TdTDKOYC</p>","","","","","","","","",""
"html-keyboard-response","31","179492","0.0-7.0-0.24","5fc65d9cc4575b0b47981de8","64e77d7b61f440b60e28659d","64ecab5d51aee53c7378890f","null","null","<p style=""font-size: 60px; font-family: BACS"">NQZvuvJ</p>","","","","","","","","",""
"html-keyboard-response","32","180503","0.0-7.0-0.25","5fc65d9cc4575b0b47981de8","64e77d7b61f440b60e28659d","64ecab5d51aee53c7378890f","null","null","<p style=""font-size: 60px; font-family: BACS"">mhtcBYhT</p>","","","","","","","","",""
"html-keyboard-response","33","181517","0.0-7.0-0.26","5fc65d9cc4575b0b47981de8","64e77d7b61f440b60e28659d","64ecab5d51aee53c7378890f","null","null","<p style=""font-size: 60px; font-family: BACS"">vblrkbu</p>","","","","","","","","",""
"html-keyboard-response","34","182527","0.0-7.0-0.27","5fc65d9cc4575b0b47981de8","64e77d7b61f440b60e28659d","64ecab5d51aee53c7378890f","null","null","<p style=""font-size: 60px; font-family: BACS"">dClOCAPEM</p>","","","","","","","","",""
"html-keyboard-response","35","183537","0.0-7.0-0.28","5fc65d9cc4575b0b47981de8","64e77d7b61f440b60e28659d","64ecab5d51aee53c7378890f","null","null","<p style=""font-size: 60px; font-family: BACS"">kcdOtKOYC</p>","","","","","","","","",""
"html-keyboard-response","36","184539","0.0-7.0-0.29","5fc65d9cc4575b0b47981de8","64e77d7b61f440b60e28659d","64ecab5d51aee53c7378890f","null","null","<p style=""font-size: 60px; font-family: BACS"">UdYUQkbu</p>","","","","","","","","",""
"html-keyboard-response","37","185543","0.0-7.0-0.30","5fc65d9cc4575b0b47981de8","64e77d7b61f440b60e28659d","64ecab5d51aee53c7378890f","null","null","<p style=""font-size: 60px; font-family: BACS"">LvuOGNYZu</p>","","","","","","","","",""
"html-keyboard-response","38","186553","0.0-7.0-0.31","5fc65d9cc4575b0b47981de8","64e77d7b61f440b60e28659d","64ecab5d51aee53c7378890f","null","null","<p style=""font-size: 60px; font-family: BACS"">UaZmaYUYa</p>","","","","","","","","",""
"html-keyboard-response","39","187569","0.0-7.0-0.32","5fc65d9cc4575b0b47981de8","64e77d7b61f440b60e28659d","64ecab5d51aee53c7378890f","null","null","<p style=""font-size: 60px; font-family: BACS"">ALOrlNYZu</p>","","","","","","","","",""
"html-keyboard-response","40","188585","0.0-7.0-0.33","5fc65d9cc4575b0b47981de8","64e77d7b61f440b60e28659d","64ecab5d51aee53c7378890f","null","null","<p style=""font-size: 60px; font-family: BACS"">RtRhbAMO</p>","","","","","","","","",""
"html-keyboard-response","41","189597","0.0-7.0-0.34","5fc65d9cc4575b0b47981de8","64e77d7b61f440b60e28659d","64ecab5d51aee53c7378890f","null","null","<p style=""font-size: 60px; font-family: BACS"">OdlNmYUYa</p>","","","","","","","","",""
"html-keyboard-response","42","190600","0.0-7.0-0.35","5fc65d9cc4575b0b47981de8","64e77d7b61f440b60e28659d","64ecab5d51aee53c7378890f","null","null","<p style=""font-size: 60px; font-family: BACS"">RlAKcKOYC</p>","","","","","","","","",""
"html-keyboard-response","43","191616","0.0-7.0-0.36","5fc65d9cc4575b0b47981de8","64e77d7b61f440b60e28659d","64ecab5d51aee53c7378890f","null","null","<p style=""font-size: 60px; font-family: BACS"">kcdOtbAMO</p>","","","","","","","","",""
"html-keyboard-response","44","192632","0.0-7.0-0.37","5fc65d9cc4575b0b47981de8","64e77d7b61f440b60e28659d","64ecab5d51aee53c7378890f","null","null","<p style=""font-size: 60px; font-family: BACS"">RtRhAPEM</p>","","","","","","","","",""
"html-keyboard-response","45","193647","0.0-7.0-0.38","5fc65d9cc4575b0b47981de8","64e77d7b61f440b60e28659d","64ecab5d51aee53c7378890f","null","null","<p style=""font-size: 60px; font-family: BACS"">LvuOGuvJ</p>","","","","","","","","",""
"html-keyboard-response","46","194660","0.0-7.0-0.39","5fc65d9cc4575b0b47981de8","64e77d7b61f440b60e28659d","64ecab5d51aee53c7378890f","null","null","<p style=""font-size: 60px; font-family: BACS"">RlAKcbdtK</p>","","","","","","","","",""
"html-keyboard-response","47","195675","0.0-7.0-0.40","5fc65d9cc4575b0b47981de8","64e77d7b61f440b60e28659d","64ecab5d51aee53c7378890f","null","null","<p style=""font-size: 60px; font-family: BACS"">dClOCKOYC</p>","","","","","","","","",""
"html-keyboard-response","48","196681","0.0-7.0-0.41","5fc65d9cc4575b0b47981de8","64e77d7b61f440b60e28659d","64ecab5d51aee53c7378890f","null","null","<p style=""font-size: 60px; font-family: BACS"">vblruvJ</p>","","","","","","","","",""
"html-keyboard-response","49","197689","0.0-7.0-0.42","5fc65d9cc4575b0b47981de8","64e77d7b61f440b60e28659d","64ecab5d51aee53c7378890f","null","null","<p style=""font-size: 60px; font-family: BACS"">kcdOtbdtK</p>","","","","","","","","",""
"html-keyboard-response","50","198692","0.0-7.0-0.43","5fc65d9cc4575b0b47981de8","64e77d7b61f440b60e28659d","64ecab5d51aee53c7378890f","null","null","<p style=""font-size: 60px; font-family: BACS"">LvuOGYUYa</p>","","","","","","","","",""
"html-keyboard-response","51","199705","0.0-7.0-0.44","5fc65d9cc4575b0b47981de8","64e77d7b61f440b60e28659d","64ecab5d51aee53c7378890f","null","null","<p style=""font-size: 60px; font-family: BACS"">RlAKcBYhT</p>","","","","","","","","",""
"html-keyboard-response","52","200714","0.0-7.0-0.45","5fc65d9cc4575b0b47981de8","64e77d7b61f440b60e28659d","64ecab5d51aee53c7378890f","null","null","<p style=""font-size: 60px; font-family: BACS"">lGZvuvJ</p>","","","","","","","","",""
"html-keyboard-response","53","201728","0.0-7.0-0.46","5fc65d9cc4575b0b47981de8","64e77d7b61f440b60e28659d","64ecab5d51aee53c7378890f","null","null","<p style=""font-size: 60px; font-family: BACS"">RkmdCAPEM</p>","","","","","","","","",""
"html-keyboard-response","54","202743","0.0-7.0-0.47","5fc65d9cc4575b0b47981de8","64e77d7b61f440b60e28659d","64ecab5d51aee53c7378890f","null","null","<p style=""font-size: 60px; font-family: BACS"">ALOrlcbm</p>","","","","","","","","",""
"html-keyboard-response","55","203745","0.0-7.0-0.48","5fc65d9cc4575b0b47981de8","64e77d7b61f440b60e28659d","64ecab5d51aee53c7378890f","null","null","<p style=""font-size: 60px; font-family: BACS"">NQZvkbu</p>","","","","","","","","",""
"html-keyboard-response","56","204747","0.0-7.0-0.49","5fc65d9cc4575b0b47981de8","64e77d7b61f440b60e28659d","64ecab5d51aee53c7378890f","null","null","<p style=""font-size: 60px; font-family: BACS"">OmtlDbAMO</p>","","","","","","","","",""
"html-keyboard-response","57","205753","0.0-7.0-0.50","5fc65d9cc4575b0b47981de8","64e77d7b61f440b60e28659d","64ecab5d51aee53c7378890f","null","null","<p style=""font-size: 60px; font-family: BACS"">OdlNmNYZu</p>","","","","","","","","",""
"html-keyboard-response","58","206769","0.0-7.0-0.51","5fc65d9cc4575b0b47981de8","64e77d7b61f440b60e28659d","64ecab5d51aee53c7378890f","null","null","<p style=""font-size: 60px; font-family: BACS"">LvuOGcbm</p>","","","","","","","","",""
"html-keyboard-response","59","207771","0.0-7.0-0.52","5fc65d9cc4575b0b47981de8","64e77d7b61f440b60e28659d","64ecab5d51aee53c7378890f","null","null","<p style=""font-size: 60px; font-family: BACS"">PhktkbdtK</p>","","","","","","","","",""
"html-keyboard-response","60","208786","0.0-7.0-0.53","5fc65d9cc4575b0b47981de8","64e77d7b61f440b60e28659d","64ecab5d51aee53c7378890f","null","null","<p style=""font-size: 60px; font-family: BACS"">dClOCbAMO</p>","","","","","","","","",""
"html-keyboard-response","61","209799","0.0-7.0-0.54","5fc65d9cc4575b0b47981de8","64e77d7b61f440b60e28659d","64ecab5d51aee53c7378890f","null","null","<p style=""font-size: 60px; font-family: BACS"">GJGcZNYZu</p>","","","","","","","","",""
"html-keyboard-response","62","210800","0.0-7.0-0.55","5fc65d9cc4575b0b47981de8","64e77d7b61f440b60e28659d","64ecab5d51aee53c7378890f","null","null","<p style=""font-size: 60px; font-family: BACS"">KdARbdtK</p>","","","","","","","","",""
"html-keyboard-response","63","211815","0.0-7.0-0.56","5fc65d9cc4575b0b47981de8","64e77d7b61f440b60e28659d","64ecab5d51aee53c7378890f","null","null","<p style=""font-size: 60px; font-family: BACS"">GJGcZkbu</p>","","","","","","","","",""
"html-keyboard-response","64","212819","0.0-7.0-0.57","5fc65d9cc4575b0b47981de8","64e77d7b61f440b60e28659d","64ecab5d51aee53c7378890f","null","null","<p style=""font-size: 60px; font-family: BACS"">vblrNYZu</p>","","","","","","","","",""
"html-keyboard-response","65","213828","0.0-7.0-0.58","5fc65d9cc4575b0b47981de8","64e77d7b61f440b60e28659d","64ecab5d51aee53c7378890f","null","null","<p style=""font-size: 60px; font-family: BACS"">PhktkAPEM</p>","","","","","","","","",""
"html-keyboard-response","66","214839","0.0-7.0-0.59","5fc65d9cc4575b0b47981de8","64e77d7b61f440b60e28659d","64ecab5d51aee53c7378890f","null","null","<p style=""font-size: 60px; font-family: BACS"">GJGcZYUYa</p>","","","","","","","","",""
"html-keyboard-response","67","215842","0.0-7.0-0.60","5fc65d9cc4575b0b47981de8","64e77d7b61f440b60e28659d","64ecab5d51aee53c7378890f","null","null","<p style=""font-size: 60px; font-family: BACS"">kcdOtBYhT</p>","","","","","","","","",""
"html-keyboard-response","68","216844","0.0-7.0-0.61","5fc65d9cc4575b0b47981de8","64e77d7b61f440b60e28659d","64ecab5d51aee53c7378890f","null","null","<p style=""font-size: 60px; font-family: BACS"">OmtlDAPEM</p>","","","","","","","","",""
"html-keyboard-response","69","217856","0.0-7.0-0.62","5fc65d9cc4575b0b47981de8","64e77d7b61f440b60e28659d","64ecab5d51aee53c7378890f","null","null","<p style=""font-size: 60px; font-family: BACS"">RkmdCBYhT</p>","","","","","","","","",""
"html-keyboard-response","70","218865","0.0-7.0-0.63","5fc65d9cc4575b0b47981de8","64e77d7b61f440b60e28659d","64ecab5d51aee53c7378890f","null","null","<p style=""font-size: 60px; font-family: BACS"">kabJbYUYa</p>","","","","","","","","",""
"html-keyboard-response","71","219874","0.0-7.0-0.64","5fc65d9cc4575b0b47981de8","64e77d7b61f440b60e28659d","64ecab5d51aee53c7378890f","null","null","<p style=""font-size: 60px; font-family: BACS"">mhtcAPEM</p>","","","","","","","","",""
"html-keyboard-response","72","220886","0.0-7.0-0.65","5fc65d9cc4575b0b47981de8","64e77d7b61f440b60e28659d","64ecab5d51aee53c7378890f","null","null","<p style=""font-size: 60px; font-family: BACS"">KdARKOYC</p>","","","","","","","","",""
"html-keyboard-response","73","221902","0.0-7.0-0.66","5fc65d9cc4575b0b47981de8","64e77d7b61f440b60e28659d","64ecab5d51aee53c7378890f","null","null","<p style=""font-size: 60px; font-family: BACS"">OmtlDbdtK</p>","","","","","","","","",""
"html-keyboard-response","74","222905","0.0-7.0-0.67","5fc65d9cc4575b0b47981de8","64e77d7b61f440b60e28659d","64ecab5d51aee53c7378890f","null","null","<p style=""font-size: 60px; font-family: BACS"">GJGcZuvJ</p>","","","","","","","","",""
"html-keyboard-response","75","223907","0.0-7.0-0.68","5fc65d9cc4575b0b47981de8","64e77d7b61f440b60e28659d","64ecab5d51aee53c7378890f","null","null","<p style=""font-size: 60px; font-family: BACS"">TdTDAPEM</p>","","","","","","","","",""
"html-keyboard-response","76","224915","0.0-7.0-0.69","5fc65d9cc4575b0b47981de8","64e77d7b61f440b60e28659d","64ecab5d51aee53c7378890f","null","null","<p style=""font-size: 60px; font-family: BACS"">OdlNmcbm</p>","","","","","","","","",""
"html-keyboard-response","77","225931","0.0-7.0-0.70","5fc65d9cc4575b0b47981de8","64e77d7b61f440b60e28659d","64ecab5d51aee53c7378890f","null","null","<p style=""font-size: 60px; font-family: BACS"">NQZvNYZu</p>","","","","","","","","",""
"html-keyboard-response","78","226947","0.0-7.0-0.71","5fc65d9cc4575b0b47981de8","64e77d7b61f440b60e28659d","64ecab5d51aee53c7378890f","null","null","<p style=""font-size: 60px; font-family: BACS"">vblrcbm</p>","","","","","","","","",""
"html-keyboard-response","79","227962","0.0-7.0-0.72","5fc65d9cc4575b0b47981de8","64e77d7b61f440b60e28659d","64ecab5d51aee53c7378890f","null","null","<p style=""font-size: 60px; font-family: BACS"">KdARAPEM</p>","","","","","","","","",""
"html-keyboard-response","80","228973","0.0-7.0-0.73","5fc65d9cc4575b0b47981de8","64e77d7b61f440b60e28659d","64ecab5d51aee53c7378890f","null","null","<p style=""font-size: 60px; font-family: BACS"">UdYUQNYZu</p>","","","","","","","","",""
"html-keyboard-response","81","229989","0.0-7.0-0.74","5fc65d9cc4575b0b47981de8","64e77d7b61f440b60e28659d","64ecab5d51aee53c7378890f","null","null","<p style=""font-size: 60px; font-family: BACS"">lGZvkbu</p>","","","","","","","","",""
"html-keyboard-response","82","230998","0.0-7.0-0.75","5fc65d9cc4575b0b47981de8","64e77d7b61f440b60e28659d","64ecab5d51aee53c7378890f","null","null","<p style=""font-size: 60px; font-family: BACS"">mhtcbAMO</p>","","","","","","","","",""
"html-keyboard-response","83","232011","0.0-7.0-0.76","5fc65d9cc4575b0b47981de8","64e77d7b61f440b60e28659d","64ecab5d51aee53c7378890f","null","null","<p style=""font-size: 60px; font-family: BACS"">OdlNmkbu</p>","","","","","","","","",""
"html-keyboard-response","84","233028","0.0-7.0-0.77","5fc65d9cc4575b0b47981de8","64e77d7b61f440b60e28659d","64ecab5d51aee53c7378890f","null","null","<p style=""font-size: 60px; font-family: BACS"">PhktkBYhT</p>","","","","","","","","",""
"html-keyboard-response","85","234030","0.0-7.0-0.78","5fc65d9cc4575b0b47981de8","64e77d7b61f440b60e28659d","64ecab5d51aee53c7378890f","null","null","<p style=""font-size: 60px; font-family: BACS"">UaZmacbm</p>","","","","","","","","",""
"html-keyboard-response","86","235045","0.0-7.0-0.79","5fc65d9cc4575b0b47981de8","64e77d7b61f440b60e28659d","64ecab5d51aee53c7378890f","null","null","<p style=""font-size: 60px; font-family: BACS"">PhktkKOYC</p>","","","","","","","","",""
"html-keyboard-response","87","241176","0.0-8.0","5fc65d9cc4575b0b47981de8","64e77d7b61f440b60e28659d","64ecab5d51aee53c7378890f","6130"," ","<p>Great, you've seen the first block of words. You may now take a short break.</p>
      <p>Press the spacebar when you're ready to continue.</p>","","","","","","","","",""
"html-keyboard-response","88","242181","0.0-9.0-0.0","5fc65d9cc4575b0b47981de8","64e77d7b61f440b60e28659d","64ecab5d51aee53c7378890f","null","null","<p style=""font-size: 60px; font-family: BACS"">dClOCbdtK</p>","","","","","","","","",""
"html-keyboard-response","89","243185","0.0-9.0-0.1","5fc65d9cc4575b0b47981de8","64e77d7b61f440b60e28659d","64ecab5d51aee53c7378890f","null","null","<p style=""font-size: 60px; font-family: BACS"">lGZvuvJ</p>","","","","","","","","",""
"html-keyboard-response","90","244199","0.0-9.0-0.2","5fc65d9cc4575b0b47981de8","64e77d7b61f440b60e28659d","64ecab5d51aee53c7378890f","null","null","<p style=""font-size: 60px; font-family: BACS"">vblrNYZu</p>","","","","","","","","",""
"html-keyboard-response","91","245205","0.0-9.0-0.3","5fc65d9cc4575b0b47981de8","64e77d7b61f440b60e28659d","64ecab5d51aee53c7378890f","null","null","<p style=""font-size: 60px; font-family: BACS"">RkmdCbdtK</p>","","","","","","","","",""
"html-keyboard-response","92","246208","0.0-9.0-0.4","5fc65d9cc4575b0b47981de8","64e77d7b61f440b60e28659d","64ecab5d51aee53c7378890f","null","null","<p style=""font-size: 60px; font-family: BACS"">RtRhbAMO</p>","","","","","","","","",""
"html-keyboard-response","93","247214","0.0-9.0-0.5","5fc65d9cc4575b0b47981de8","64e77d7b61f440b60e28659d","64ecab5d51aee53c7378890f","null","null","<p style=""font-size: 60px; font-family: BACS"">kabJbNYZu</p>","","","","","","","","",""
"html-keyboard-response","94","248227","0.0-9.0-0.6","5fc65d9cc4575b0b47981de8","64e77d7b61f440b60e28659d","64ecab5d51aee53c7378890f","null","null","<p style=""font-size: 60px; font-family: BACS"">RlAKcbdtK</p>","","","","","","","","",""
"html-keyboard-response","95","249242","0.0-9.0-0.7","5fc65d9cc4575b0b47981de8","64e77d7b61f440b60e28659d","64ecab5d51aee53c7378890f","null","null","<p style=""font-size: 60px; font-family: BACS"">ALOrlcbm</p>","","","","","","","","",""
"html-keyboard-response","96","250243","0.0-9.0-0.8","5fc65d9cc4575b0b47981de8","64e77d7b61f440b60e28659d","64ecab5d51aee53c7378890f","null","null","<p style=""font-size: 60px; font-family: BACS"">UaZmauvJ</p>","","","","","","","","",""
"html-keyboard-response","97","251245","0.0-9.0-0.9","5fc65d9cc4575b0b47981de8","64e77d7b61f440b60e28659d","64ecab5d51aee53c7378890f","null","null","<p style=""font-size: 60px; font-family: BACS"">kcdOtBYhT</p>","","","","","","","","",""
"html-keyboard-response","98","252257","0.0-9.0-0.10","5fc65d9cc4575b0b47981de8","64e77d7b61f440b60e28659d","64ecab5d51aee53c7378890f","null","null","<p style=""font-size: 60px; font-family: BACS"">OmtlDKOYC</p>","","","","","","","","",""
"html-keyboard-response","99","253267","0.0-9.0-0.11","5fc65d9cc4575b0b47981de8","64e77d7b61f440b60e28659d","64ecab5d51aee53c7378890f","null","null","<p style=""font-size: 60px; font-family: BACS"">lGZvkbu</p>","","","","","","","","",""
"html-keyboard-response","100","254269","0.0-9.0-0.12","5fc65d9cc4575b0b47981de8","64e77d7b61f440b60e28659d","64ecab5d51aee53c7378890f","null","null","<p style=""font-size: 60px; font-family: BACS"">UdYUQNYZu</p>","","","","","","","","",""
"html-keyboard-response","101","255286","0.0-9.0-0.13","5fc65d9cc4575b0b47981de8","64e77d7b61f440b60e28659d","64ecab5d51aee53c7378890f","null","null","<p style=""font-size: 60px; font-family: BACS"">lGZvcbm</p>","","","","","","","","",""
"html-keyboard-response","102","256288","0.0-9.0-0.14","5fc65d9cc4575b0b47981de8","64e77d7b61f440b60e28659d","64ecab5d51aee53c7378890f","null","null","<p style=""font-size: 60px; font-family: BACS"">ALOrlNYZu</p>","","","","","","","","",""
"html-keyboard-response","103","257301","0.0-9.0-0.15","5fc65d9cc4575b0b47981de8","64e77d7b61f440b60e28659d","64ecab5d51aee53c7378890f","null","null","<p style=""font-size: 60px; font-family: BACS"">mhtcbAMO</p>","","","","","","","","",""
"html-keyboard-response","104","258307","0.0-9.0-0.16","5fc65d9cc4575b0b47981de8","64e77d7b61f440b60e28659d","64ecab5d51aee53c7378890f","null","null","<p style=""font-size: 60px; font-family: BACS"">RlAKcBYhT</p>","","","","","","","","",""
"html-keyboard-response","105","259319","0.0-9.0-0.17","5fc65d9cc4575b0b47981de8","64e77d7b61f440b60e28659d","64ecab5d51aee53c7378890f","null","null","<p style=""font-size: 60px; font-family: BACS"">LvuOGcbm</p>","","","","","","","","",""
"html-keyboard-response","106","260334","0.0-9.0-0.18","5fc65d9cc4575b0b47981de8","64e77d7b61f440b60e28659d","64ecab5d51aee53c7378890f","null","null","<p style=""font-size: 60px; font-family: BACS"">PhktkKOYC</p>","","","","","","","","",""
"html-keyboard-response","107","261349","0.0-9.0-0.19","5fc65d9cc4575b0b47981de8","64e77d7b61f440b60e28659d","64ecab5d51aee53c7378890f","null","null","<p style=""font-size: 60px; font-family: BACS"">NQZvkbu</p>","","","","","","","","",""
"html-keyboard-response","108","262364","0.0-9.0-0.20","5fc65d9cc4575b0b47981de8","64e77d7b61f440b60e28659d","64ecab5d51aee53c7378890f","null","null","<p style=""font-size: 60px; font-family: BACS"">kcdOtKOYC</p>","","","","","","","","",""
"html-keyboard-response","109","263367","0.0-9.0-0.21","5fc65d9cc4575b0b47981de8","64e77d7b61f440b60e28659d","64ecab5d51aee53c7378890f","null","null","<p style=""font-size: 60px; font-family: BACS"">NQZvYUYa</p>","","","","","","","","",""
"html-keyboard-response","110","264377","0.0-9.0-0.22","5fc65d9cc4575b0b47981de8","64e77d7b61f440b60e28659d","64ecab5d51aee53c7378890f","null","null","<p style=""font-size: 60px; font-family: BACS"">dClOCbAMO</p>","","","","","","","","",""
"html-keyboard-response","111","265380","0.0-9.0-0.23","5fc65d9cc4575b0b47981de8","64e77d7b61f440b60e28659d","64ecab5d51aee53c7378890f","null","null","<p style=""font-size: 60px; font-family: BACS"">GJGcZNYZu</p>","","","","","","","","",""
"html-keyboard-response","112","266396","0.0-9.0-0.24","5fc65d9cc4575b0b47981de8","64e77d7b61f440b60e28659d","64ecab5d51aee53c7378890f","null","null","<p style=""font-size: 60px; font-family: BACS"">kcdOtbdtK</p>","","","","","","","","",""
"html-keyboard-response","113","267400","0.0-9.0-0.25","5fc65d9cc4575b0b47981de8","64e77d7b61f440b60e28659d","64ecab5d51aee53c7378890f","null","null","<p style=""font-size: 60px; font-family: BACS"">dClOCKOYC</p>","","","","","","","","",""
"html-keyboard-response","114","268402","0.0-9.0-0.26","5fc65d9cc4575b0b47981de8","64e77d7b61f440b60e28659d","64ecab5d51aee53c7378890f","null","null","<p style=""font-size: 60px; font-family: BACS"">RlAKcbAMO</p>","","","","","","","","",""
"html-keyboard-response","115","269408","0.0-9.0-0.27","5fc65d9cc4575b0b47981de8","64e77d7b61f440b60e28659d","64ecab5d51aee53c7378890f","null","null","<p style=""font-size: 60px; font-family: BACS"">LvuOGYUYa</p>","","","","","","","","",""
"html-keyboard-response","116","270419","0.0-9.0-0.28","5fc65d9cc4575b0b47981de8","64e77d7b61f440b60e28659d","64ecab5d51aee53c7378890f","null","null","<p style=""font-size: 60px; font-family: BACS"">mhtcBYhT</p>","","","","","","","","",""
"html-keyboard-response","117","271427","0.0-9.0-0.29","5fc65d9cc4575b0b47981de8","64e77d7b61f440b60e28659d","64ecab5d51aee53c7378890f","null","null","<p style=""font-size: 60px; font-family: BACS"">dClOCAPEM</p>","","","","","","","","",""
"html-keyboard-response","118","272429","0.0-9.0-0.30","5fc65d9cc4575b0b47981de8","64e77d7b61f440b60e28659d","64ecab5d51aee53c7378890f","null","null","<p style=""font-size: 60px; font-family: BACS"">OdlNmcbm</p>","","","","","","","","",""
"html-keyboard-response","119","273443","0.0-9.0-0.31","5fc65d9cc4575b0b47981de8","64e77d7b61f440b60e28659d","64ecab5d51aee53c7378890f","null","null","<p style=""font-size: 60px; font-family: BACS"">vblrkbu</p>","","","","","","","","",""
"html-keyboard-response","120","274456","0.0-9.0-0.32","5fc65d9cc4575b0b47981de8","64e77d7b61f440b60e28659d","64ecab5d51aee53c7378890f","null","null","<p style=""font-size: 60px; font-family: BACS"">OmtlDbdtK</p>","","","","","","","","",""
"html-keyboard-response","121","275467","0.0-9.0-0.33","5fc65d9cc4575b0b47981de8","64e77d7b61f440b60e28659d","64ecab5d51aee53c7378890f","null","null","<p style=""font-size: 60px; font-family: BACS"">PhktkBYhT</p>","","","","","","","","",""
"html-keyboard-response","122","276475","0.0-9.0-0.34","5fc65d9cc4575b0b47981de8","64e77d7b61f440b60e28659d","64ecab5d51aee53c7378890f","null","null","<p style=""font-size: 60px; font-family: BACS"">OdlNmYUYa</p>","","","","","","","","",""
"html-keyboard-response","123","277490","0.0-9.0-0.35","5fc65d9cc4575b0b47981de8","64e77d7b61f440b60e28659d","64ecab5d51aee53c7378890f","null","null","<p style=""font-size: 60px; font-family: BACS"">UaZmakbu</p>","","","","","","","","",""
"html-keyboard-response","124","278504","0.0-9.0-0.36","5fc65d9cc4575b0b47981de8","64e77d7b61f440b60e28659d","64ecab5d51aee53c7378890f","null","null","<p style=""font-size: 60px; font-family: BACS"">RkmdCAPEM</p>","","","","","","","","",""
"html-keyboard-response","125","279513","0.0-9.0-0.37","5fc65d9cc4575b0b47981de8","64e77d7b61f440b60e28659d","64ecab5d51aee53c7378890f","null","null","<p style=""font-size: 60px; font-family: BACS"">UdYUQYUYa</p>","","","","","","","","",""
"html-keyboard-response","126","280528","0.0-9.0-0.38","5fc65d9cc4575b0b47981de8","64e77d7b61f440b60e28659d","64ecab5d51aee53c7378890f","null","null","<p style=""font-size: 60px; font-family: BACS"">vblruvJ</p>","","","","","","","","",""
"html-keyboard-response","127","281537","0.0-9.0-0.39","5fc65d9cc4575b0b47981de8","64e77d7b61f440b60e28659d","64ecab5d51aee53c7378890f","null","null","<p style=""font-size: 60px; font-family: BACS"">ALOrlkbu</p>","","","","","","","","",""
"html-keyboard-response","128","282550","0.0-9.0-0.40","5fc65d9cc4575b0b47981de8","64e77d7b61f440b60e28659d","64ecab5d51aee53c7378890f","null","null","<p style=""font-size: 60px; font-family: BACS"">RtRhBYhT</p>","","","","","","","","",""
"html-keyboard-response","129","283565","0.0-9.0-0.41","5fc65d9cc4575b0b47981de8","64e77d7b61f440b60e28659d","64ecab5d51aee53c7378890f","null","null","<p style=""font-size: 60px; font-family: BACS"">PhktkbdtK</p>","","","","","","","","",""
"html-keyboard-response","130","284580","0.0-9.0-0.42","5fc65d9cc4575b0b47981de8","64e77d7b61f440b60e28659d","64ecab5d51aee53c7378890f","null","null","<p style=""font-size: 60px; font-family: BACS"">KdARBYhT</p>","","","","","","","","",""
"html-keyboard-response","131","285583","0.0-9.0-0.43","5fc65d9cc4575b0b47981de8","64e77d7b61f440b60e28659d","64ecab5d51aee53c7378890f","null","null","<p style=""font-size: 60px; font-family: BACS"">mhtcAPEM</p>","","","","","","","","",""
"html-keyboard-response","132","286595","0.0-9.0-0.44","5fc65d9cc4575b0b47981de8","64e77d7b61f440b60e28659d","64ecab5d51aee53c7378890f","null","null","<p style=""font-size: 60px; font-family: BACS"">KdARKOYC</p>","","","","","","","","",""
"html-keyboard-response","133","287602","0.0-9.0-0.45","5fc65d9cc4575b0b47981de8","64e77d7b61f440b60e28659d","64ecab5d51aee53c7378890f","null","null","<p style=""font-size: 60px; font-family: BACS"">RtRhbdtK</p>","","","","","","","","",""
"html-keyboard-response","134","288618","0.0-9.0-0.46","5fc65d9cc4575b0b47981de8","64e77d7b61f440b60e28659d","64ecab5d51aee53c7378890f","null","null","<p style=""font-size: 60px; font-family: BACS"">vblrcbm</p>","","","","","","","","",""
"html-keyboard-response","135","289622","0.0-9.0-0.47","5fc65d9cc4575b0b47981de8","64e77d7b61f440b60e28659d","64ecab5d51aee53c7378890f","null","null","<p style=""font-size: 60px; font-family: BACS"">OdlNmkbu</p>","","","","","","","","",""
"html-keyboard-response","136","290629","0.0-9.0-0.48","5fc65d9cc4575b0b47981de8","64e77d7b61f440b60e28659d","64ecab5d51aee53c7378890f","null","null","<p style=""font-size: 60px; font-family: BACS"">GJGcZuvJ</p>","","","","","","","","",""
"html-keyboard-response","137","291643","0.0-9.0-0.49","5fc65d9cc4575b0b47981de8","64e77d7b61f440b60e28659d","64ecab5d51aee53c7378890f","null","null","<p style=""font-size: 60px; font-family: BACS"">kcdOtbAMO</p>","","","","","","","","",""
"html-keyboard-response","138","292659","0.0-9.0-0.50","5fc65d9cc4575b0b47981de8","64e77d7b61f440b60e28659d","64ecab5d51aee53c7378890f","null","null","<p style=""font-size: 60px; font-family: BACS"">KdARAPEM</p>","","","","","","","","",""
"html-keyboard-response","139","293675","0.0-9.0-0.51","5fc65d9cc4575b0b47981de8","64e77d7b61f440b60e28659d","64ecab5d51aee53c7378890f","null","null","<p style=""font-size: 60px; font-family: BACS"">RkmdCbAMO</p>","","","","","","","","",""
"html-keyboard-response","140","294681","0.0-9.0-0.52","5fc65d9cc4575b0b47981de8","64e77d7b61f440b60e28659d","64ecab5d51aee53c7378890f","null","null","<p style=""font-size: 60px; font-family: BACS"">kabJbcbm</p>","","","","","","","","",""
"html-keyboard-response","141","295684","0.0-9.0-0.53","5fc65d9cc4575b0b47981de8","64e77d7b61f440b60e28659d","64ecab5d51aee53c7378890f","null","null","<p style=""font-size: 60px; font-family: BACS"">TdTDBYhT</p>","","","","","","","","",""
"html-keyboard-response","142","296694","0.0-9.0-0.54","5fc65d9cc4575b0b47981de8","64e77d7b61f440b60e28659d","64ecab5d51aee53c7378890f","null","null","<p style=""font-size: 60px; font-family: BACS"">NQZvuvJ</p>","","","","","","","","",""
"html-keyboard-response","143","297707","0.0-9.0-0.55","5fc65d9cc4575b0b47981de8","64e77d7b61f440b60e28659d","64ecab5d51aee53c7378890f","null","null","<p style=""font-size: 60px; font-family: BACS"">GJGcZkbu</p>","","","","","","","","",""
"html-keyboard-response","144","298708","0.0-9.0-0.56","5fc65d9cc4575b0b47981de8","64e77d7b61f440b60e28659d","64ecab5d51aee53c7378890f","null","null","<p style=""font-size: 60px; font-family: BACS"">OmtlDAPEM</p>","","","","","","","","",""
"html-keyboard-response","145","299712","0.0-9.0-0.57","5fc65d9cc4575b0b47981de8","64e77d7b61f440b60e28659d","64ecab5d51aee53c7378890f","null","null","<p style=""font-size: 60px; font-family: BACS"">UaZmacbm</p>","","","","","","","","",""
"html-keyboard-response","146","300713","0.0-9.0-0.58","5fc65d9cc4575b0b47981de8","64e77d7b61f440b60e28659d","64ecab5d51aee53c7378890f","null","null","<p style=""font-size: 60px; font-family: BACS"">mhtcKOYC</p>","","","","","","","","",""
"html-keyboard-response","147","301714","0.0-9.0-0.59","5fc65d9cc4575b0b47981de8","64e77d7b61f440b60e28659d","64ecab5d51aee53c7378890f","null","null","<p style=""font-size: 60px; font-family: BACS"">TdTDAPEM</p>","","","","","","","","",""
"html-keyboard-response","148","302722","0.0-9.0-0.60","5fc65d9cc4575b0b47981de8","64e77d7b61f440b60e28659d","64ecab5d51aee53c7378890f","null","null","<p style=""font-size: 60px; font-family: BACS"">OmtlDbAMO</p>","","","","","","","","",""
"html-keyboard-response","149","303734","0.0-9.0-0.61","5fc65d9cc4575b0b47981de8","64e77d7b61f440b60e28659d","64ecab5d51aee53c7378890f","null","null","<p style=""font-size: 60px; font-family: BACS"">kabJbYUYa</p>","","","","","","","","",""
"html-keyboard-response","150","304745","0.0-9.0-0.62","5fc65d9cc4575b0b47981de8","64e77d7b61f440b60e28659d","64ecab5d51aee53c7378890f","null","null","<p style=""font-size: 60px; font-family: BACS"">RlAKcKOYC</p>","","","","","","","","",""
"html-keyboard-response","151","305755","0.0-9.0-0.63","5fc65d9cc4575b0b47981de8","64e77d7b61f440b60e28659d","64ecab5d51aee53c7378890f","null","null","<p style=""font-size: 60px; font-family: BACS"">UaZmaYUYa</p>","","","","","","","","",""
"html-keyboard-response","152","306762","0.0-9.0-0.64","5fc65d9cc4575b0b47981de8","64e77d7b61f440b60e28659d","64ecab5d51aee53c7378890f","null","null","<p style=""font-size: 60px; font-family: BACS"">KdARbdtK</p>","","","","","","","","",""
"html-keyboard-response","153","307765","0.0-9.0-0.65","5fc65d9cc4575b0b47981de8","64e77d7b61f440b60e28659d","64ecab5d51aee53c7378890f","null","null","<p style=""font-size: 60px; font-family: BACS"">LvuOGuvJ</p>","","","","","","","","",""
"html-keyboard-response","154","308778","0.0-9.0-0.66","5fc65d9cc4575b0b47981de8","64e77d7b61f440b60e28659d","64ecab5d51aee53c7378890f","null","null","<p style=""font-size: 60px; font-family: BACS"">NQZvNYZu</p>","","","","","","","","",""
"html-keyboard-response","155","309793","0.0-9.0-0.67","5fc65d9cc4575b0b47981de8","64e77d7b61f440b60e28659d","64ecab5d51aee53c7378890f","null","null","<p style=""font-size: 60px; font-family: BACS"">PhktkAPEM</p>","","","","","","","","",""
"html-keyboard-response","156","310805","0.0-9.0-0.68","5fc65d9cc4575b0b47981de8","64e77d7b61f440b60e28659d","64ecab5d51aee53c7378890f","null","null","<p style=""font-size: 60px; font-family: BACS"">ALOrluvJ</p>","","","","","","","","",""
"html-keyboard-response","157","311818","0.0-9.0-0.69","5fc65d9cc4575b0b47981de8","64e77d7b61f440b60e28659d","64ecab5d51aee53c7378890f","null","null","<p style=""font-size: 60px; font-family: BACS"">GJGcZYUYa</p>","","","","","","","","",""
"html-keyboard-response","158","312819","0.0-9.0-0.70","5fc65d9cc4575b0b47981de8","64e77d7b61f440b60e28659d","64ecab5d51aee53c7378890f","null","null","<p style=""font-size: 60px; font-family: BACS"">OdlNmNYZu</p>","","","","","","","","",""
"html-keyboard-response","159","313834","0.0-9.0-0.71","5fc65d9cc4575b0b47981de8","64e77d7b61f440b60e28659d","64ecab5d51aee53c7378890f","null","null","<p style=""font-size: 60px; font-family: BACS"">TdTDKOYC</p>","","","","","","","","",""
"html-keyboard-response","160","314843","0.0-9.0-0.72","5fc65d9cc4575b0b47981de8","64e77d7b61f440b60e28659d","64ecab5d51aee53c7378890f","null","null","<p style=""font-size: 60px; font-family: BACS"">LvuOGNYZu</p>","","","","","","","","",""
"html-keyboard-response","161","315850","0.0-9.0-0.73","5fc65d9cc4575b0b47981de8","64e77d7b61f440b60e28659d","64ecab5d51aee53c7378890f","null","null","<p style=""font-size: 60px; font-family: BACS"">UdYUQcbm</p>","","","","","","","","",""
"html-keyboard-response","162","316866","0.0-9.0-0.74","5fc65d9cc4575b0b47981de8","64e77d7b61f440b60e28659d","64ecab5d51aee53c7378890f","null","null","<p style=""font-size: 60px; font-family: BACS"">RkmdCBYhT</p>","","","","","","","","",""
"html-keyboard-response","163","317871","0.0-9.0-0.75","5fc65d9cc4575b0b47981de8","64e77d7b61f440b60e28659d","64ecab5d51aee53c7378890f","null","null","<p style=""font-size: 60px; font-family: BACS"">TdTDbAMO</p>","","","","","","","","",""
"html-keyboard-response","164","318876","0.0-9.0-0.76","5fc65d9cc4575b0b47981de8","64e77d7b61f440b60e28659d","64ecab5d51aee53c7378890f","null","null","<p style=""font-size: 60px; font-family: BACS"">lGZvYUYa</p>","","","","","","","","",""
"html-keyboard-response","165","319879","0.0-9.0-0.77","5fc65d9cc4575b0b47981de8","64e77d7b61f440b60e28659d","64ecab5d51aee53c7378890f","null","null","<p style=""font-size: 60px; font-family: BACS"">kabJbuvJ</p>","","","","","","","","",""
"html-keyboard-response","166","320881","0.0-9.0-0.78","5fc65d9cc4575b0b47981de8","64e77d7b61f440b60e28659d","64ecab5d51aee53c7378890f","null","null","<p style=""font-size: 60px; font-family: BACS"">RtRhAPEM</p>","","","","","","","","",""
"html-keyboard-response","167","321887","0.0-9.0-0.79","5fc65d9cc4575b0b47981de8","64e77d7b61f440b60e28659d","64ecab5d51aee53c7378890f","null","null","<p style=""font-size: 60px; font-family: BACS"">UdYUQkbu</p>","","","","","","","","",""
"html-keyboard-response","168","326952","0.0-10.0","5fc65d9cc4575b0b47981de8","64e77d7b61f440b60e28659d","64ecab5d51aee53c7378890f","5064"," ","<p>Great, you've seen the second block of words. You may now take a short break.</p>
      <p>Press the spacebar when you're ready to continue.</p>","","","","","","","","",""
"html-keyboard-response","169","327957","0.0-11.0-0.0","5fc65d9cc4575b0b47981de8","64e77d7b61f440b60e28659d","64ecab5d51aee53c7378890f","null","null","<p style=""font-size: 60px; font-family: BACS"">UaZmauvJ</p>","","","","","","","","",""
"html-keyboard-response","170","328967","0.0-11.0-0.1","5fc65d9cc4575b0b47981de8","64e77d7b61f440b60e28659d","64ecab5d51aee53c7378890f","null","null","<p style=""font-size: 60px; font-family: BACS"">NQZvkbu</p>","","","","","","","","",""
"html-keyboard-response","171","329980","0.0-11.0-0.2","5fc65d9cc4575b0b47981de8","64e77d7b61f440b60e28659d","64ecab5d51aee53c7378890f","null","null","<p style=""font-size: 60px; font-family: BACS"">mhtcKOYC</p>","","","","","","","","",""
"html-keyboard-response","172","330989","0.0-11.0-0.3","5fc65d9cc4575b0b47981de8","64e77d7b61f440b60e28659d","64ecab5d51aee53c7378890f","null","null","<p style=""font-size: 60px; font-family: BACS"">OdlNmYUYa</p>","","","","","","","","",""
"html-keyboard-response","173","331998","0.0-11.0-0.4","5fc65d9cc4575b0b47981de8","64e77d7b61f440b60e28659d","64ecab5d51aee53c7378890f","null","null","<p style=""font-size: 60px; font-family: BACS"">RlAKcBYhT</p>","","","","","","","","",""
"html-keyboard-response","174","333006","0.0-11.0-0.5","5fc65d9cc4575b0b47981de8","64e77d7b61f440b60e28659d","64ecab5d51aee53c7378890f","null","null","<p style=""font-size: 60px; font-family: BACS"">vblrcbm</p>","","","","","","","","",""
"html-keyboard-response","175","334007","0.0-11.0-0.6","5fc65d9cc4575b0b47981de8","64e77d7b61f440b60e28659d","64ecab5d51aee53c7378890f","null","null","<p style=""font-size: 60px; font-family: BACS"">NQZvYUYa</p>","","","","","","","","",""
"html-keyboard-response","176","335008","0.0-11.0-0.7","5fc65d9cc4575b0b47981de8","64e77d7b61f440b60e28659d","64ecab5d51aee53c7378890f","null","null","<p style=""font-size: 60px; font-family: BACS"">mhtcAPEM</p>","","","","","","","","",""
"html-keyboard-response","177","336010","0.0-11.0-0.8","5fc65d9cc4575b0b47981de8","64e77d7b61f440b60e28659d","64ecab5d51aee53c7378890f","null","null","<p style=""font-size: 60px; font-family: BACS"">GJGcZuvJ</p>","","","","","","","","",""
"html-keyboard-response","178","337023","0.0-11.0-0.9","5fc65d9cc4575b0b47981de8","64e77d7b61f440b60e28659d","64ecab5d51aee53c7378890f","null","null","<p style=""font-size: 60px; font-family: BACS"">UdYUQkbu</p>","","","","","","","","",""
"html-keyboard-response","179","338030","0.0-11.0-0.10","5fc65d9cc4575b0b47981de8","64e77d7b61f440b60e28659d","64ecab5d51aee53c7378890f","null","null","<p style=""font-size: 60px; font-family: BACS"">ALOrluvJ</p>","","","","","","","","",""
"html-keyboard-response","180","339038","0.0-11.0-0.11","5fc65d9cc4575b0b47981de8","64e77d7b61f440b60e28659d","64ecab5d51aee53c7378890f","null","null","<p style=""font-size: 60px; font-family: BACS"">OdlNmkbu</p>","","","","","","","","",""
"html-keyboard-response","181","340052","0.0-11.0-0.12","5fc65d9cc4575b0b47981de8","64e77d7b61f440b60e28659d","64ecab5d51aee53c7378890f","null","null","<p style=""font-size: 60px; font-family: BACS"">KdARBYhT</p>","","","","","","","","",""
"html-keyboard-response","182","341062","0.0-11.0-0.13","5fc65d9cc4575b0b47981de8","64e77d7b61f440b60e28659d","64ecab5d51aee53c7378890f","null","null","<p style=""font-size: 60px; font-family: BACS"">lGZvYUYa</p>","","","","","","","","",""
"html-keyboard-response","183","342063","0.0-11.0-0.14","5fc65d9cc4575b0b47981de8","64e77d7b61f440b60e28659d","64ecab5d51aee53c7378890f","null","null","<p style=""font-size: 60px; font-family: BACS"">OdlNmcbm</p>","","","","","","","","",""
"html-keyboard-response","184","343071","0.0-11.0-0.15","5fc65d9cc4575b0b47981de8","64e77d7b61f440b60e28659d","64ecab5d51aee53c7378890f","null","null","<p style=""font-size: 60px; font-family: BACS"">dClOCbAMO</p>","","","","","","","","",""
"html-keyboard-response","185","344072","0.0-11.0-0.16","5fc65d9cc4575b0b47981de8","64e77d7b61f440b60e28659d","64ecab5d51aee53c7378890f","null","null","<p style=""font-size: 60px; font-family: BACS"">RlAKcbdtK</p>","","","","","","","","",""
"html-keyboard-response","186","345085","0.0-11.0-0.17","5fc65d9cc4575b0b47981de8","64e77d7b61f440b60e28659d","64ecab5d51aee53c7378890f","null","null","<p style=""font-size: 60px; font-family: BACS"">LvuOGYUYa</p>","","","","","","","","",""
"html-keyboard-response","187","346088","0.0-11.0-0.18","5fc65d9cc4575b0b47981de8","64e77d7b61f440b60e28659d","64ecab5d51aee53c7378890f","null","null","<p style=""font-size: 60px; font-family: BACS"">UaZmacbm</p>","","","","","","","","",""
"html-keyboard-response","188","347092","0.0-11.0-0.19","5fc65d9cc4575b0b47981de8","64e77d7b61f440b60e28659d","64ecab5d51aee53c7378890f","null","null","<p style=""font-size: 60px; font-family: BACS"">RtRhBYhT</p>","","","","","","","","",""
"html-keyboard-response","189","348100","0.0-11.0-0.20","5fc65d9cc4575b0b47981de8","64e77d7b61f440b60e28659d","64ecab5d51aee53c7378890f","null","null","<p style=""font-size: 60px; font-family: BACS"">GJGcZNYZu</p>","","","","","","","","",""
"html-keyboard-response","190","349115","0.0-11.0-0.21","5fc65d9cc4575b0b47981de8","64e77d7b61f440b60e28659d","64ecab5d51aee53c7378890f","null","null","<p style=""font-size: 60px; font-family: BACS"">mhtcbAMO</p>","","","","","","","","",""
"html-keyboard-response","191","350131","0.0-11.0-0.22","5fc65d9cc4575b0b47981de8","64e77d7b61f440b60e28659d","64ecab5d51aee53c7378890f","null","null","<p style=""font-size: 60px; font-family: BACS"">RkmdCAPEM</p>","","","","","","","","",""
"html-keyboard-response","192","351140","0.0-11.0-0.23","5fc65d9cc4575b0b47981de8","64e77d7b61f440b60e28659d","64ecab5d51aee53c7378890f","null","null","<p style=""font-size: 60px; font-family: BACS"">kabJbuvJ</p>","","","","","","","","",""
"html-keyboard-response","193","352151","0.0-11.0-0.24","5fc65d9cc4575b0b47981de8","64e77d7b61f440b60e28659d","64ecab5d51aee53c7378890f","null","null","<p style=""font-size: 60px; font-family: BACS"">kcdOtbAMO</p>","","","","","","","","",""
"html-keyboard-response","194","353161","0.0-11.0-0.25","5fc65d9cc4575b0b47981de8","64e77d7b61f440b60e28659d","64ecab5d51aee53c7378890f","null","null","<p style=""font-size: 60px; font-family: BACS"">RtRhbdtK</p>","","","","","","","","",""
"html-keyboard-response","195","354164","0.0-11.0-0.26","5fc65d9cc4575b0b47981de8","64e77d7b61f440b60e28659d","64ecab5d51aee53c7378890f","null","null","<p style=""font-size: 60px; font-family: BACS"">vblruvJ</p>","","","","","","","","",""
"html-keyboard-response","196","355179","0.0-11.0-0.27","5fc65d9cc4575b0b47981de8","64e77d7b61f440b60e28659d","64ecab5d51aee53c7378890f","null","null","<p style=""font-size: 60px; font-family: BACS"">kcdOtBYhT</p>","","","","","","","","",""
"html-keyboard-response","197","356190","0.0-11.0-0.28","5fc65d9cc4575b0b47981de8","64e77d7b61f440b60e28659d","64ecab5d51aee53c7378890f","null","null","<p style=""font-size: 60px; font-family: BACS"">lGZvuvJ</p>","","","","","","","","",""
"html-keyboard-response","198","357196","0.0-11.0-0.29","5fc65d9cc4575b0b47981de8","64e77d7b61f440b60e28659d","64ecab5d51aee53c7378890f","null","null","<p style=""font-size: 60px; font-family: BACS"">KdARbdtK</p>","","","","","","","","",""
"html-keyboard-response","199","358202","0.0-11.0-0.30","5fc65d9cc4575b0b47981de8","64e77d7b61f440b60e28659d","64ecab5d51aee53c7378890f","null","null","<p style=""font-size: 60px; font-family: BACS"">dClOCKOYC</p>","","","","","","","","",""
"html-keyboard-response","200","359219","0.0-11.0-0.31","5fc65d9cc4575b0b47981de8","64e77d7b61f440b60e28659d","64ecab5d51aee53c7378890f","null","null","<p style=""font-size: 60px; font-family: BACS"">RlAKcbAMO</p>","","","","","","","","",""
"html-keyboard-response","201","360226","0.0-11.0-0.32","5fc65d9cc4575b0b47981de8","64e77d7b61f440b60e28659d","64ecab5d51aee53c7378890f","null","null","<p style=""font-size: 60px; font-family: BACS"">RtRhAPEM</p>","","","","","","","","",""
"html-keyboard-response","202","361231","0.0-11.0-0.33","5fc65d9cc4575b0b47981de8","64e77d7b61f440b60e28659d","64ecab5d51aee53c7378890f","null","null","<p style=""font-size: 60px; font-family: BACS"">LvuOGcbm</p>","","","","","","","","",""
"html-keyboard-response","203","362238","0.0-11.0-0.34","5fc65d9cc4575b0b47981de8","64e77d7b61f440b60e28659d","64ecab5d51aee53c7378890f","null","null","<p style=""font-size: 60px; font-family: BACS"">kabJbNYZu</p>","","","","","","","","",""
"html-keyboard-response","204","363253","0.0-11.0-0.35","5fc65d9cc4575b0b47981de8","64e77d7b61f440b60e28659d","64ecab5d51aee53c7378890f","null","null","<p style=""font-size: 60px; font-family: BACS"">TdTDbAMO</p>","","","","","","","","",""
"html-keyboard-response","205","364268","0.0-11.0-0.36","5fc65d9cc4575b0b47981de8","64e77d7b61f440b60e28659d","64ecab5d51aee53c7378890f","null","null","<p style=""font-size: 60px; font-family: BACS"">KdARKOYC</p>","","","","","","","","",""
"html-keyboard-response","206","365284","0.0-11.0-0.37","5fc65d9cc4575b0b47981de8","64e77d7b61f440b60e28659d","64ecab5d51aee53c7378890f","null","null","<p style=""font-size: 60px; font-family: BACS"">vblrkbu</p>","","","","","","","","",""
"html-keyboard-response","207","366287","0.0-11.0-0.38","5fc65d9cc4575b0b47981de8","64e77d7b61f440b60e28659d","64ecab5d51aee53c7378890f","null","null","<p style=""font-size: 60px; font-family: BACS"">ALOrlNYZu</p>","","","","","","","","",""
"html-keyboard-response","208","367292","0.0-11.0-0.39","5fc65d9cc4575b0b47981de8","64e77d7b61f440b60e28659d","64ecab5d51aee53c7378890f","null","null","<p style=""font-size: 60px; font-family: BACS"">RkmdCbAMO</p>","","","","","","","","",""
"html-keyboard-response","209","368302","0.0-11.0-0.40","5fc65d9cc4575b0b47981de8","64e77d7b61f440b60e28659d","64ecab5d51aee53c7378890f","null","null","<p style=""font-size: 60px; font-family: BACS"">UaZmaYUYa</p>","","","","","","","","",""
"html-keyboard-response","210","369304","0.0-11.0-0.41","5fc65d9cc4575b0b47981de8","64e77d7b61f440b60e28659d","64ecab5d51aee53c7378890f","null","null","<p style=""font-size: 60px; font-family: BACS"">RtRhbAMO</p>","","","","","","","","",""
"html-keyboard-response","211","370314","0.0-11.0-0.42","5fc65d9cc4575b0b47981de8","64e77d7b61f440b60e28659d","64ecab5d51aee53c7378890f","null","null","<p style=""font-size: 60px; font-family: BACS"">vblrNYZu</p>","","","","","","","","",""
"html-keyboard-response","212","371320","0.0-11.0-0.43","5fc65d9cc4575b0b47981de8","64e77d7b61f440b60e28659d","64ecab5d51aee53c7378890f","null","null","<p style=""font-size: 60px; font-family: BACS"">PhktkKOYC</p>","","","","","","","","",""
"html-keyboard-response","213","372330","0.0-11.0-0.44","5fc65d9cc4575b0b47981de8","64e77d7b61f440b60e28659d","64ecab5d51aee53c7378890f","null","null","<p style=""font-size: 60px; font-family: BACS"">ALOrlkbu</p>","","","","","","","","",""
"html-keyboard-response","214","373337","0.0-11.0-0.45","5fc65d9cc4575b0b47981de8","64e77d7b61f440b60e28659d","64ecab5d51aee53c7378890f","null","null","<p style=""font-size: 60px; font-family: BACS"">dClOCbdtK</p>","","","","","","","","",""
"html-keyboard-response","215","374351","0.0-11.0-0.46","5fc65d9cc4575b0b47981de8","64e77d7b61f440b60e28659d","64ecab5d51aee53c7378890f","null","null","<p style=""font-size: 60px; font-family: BACS"">PhktkBYhT</p>","","","","","","","","",""
"html-keyboard-response","216","375360","0.0-11.0-0.47","5fc65d9cc4575b0b47981de8","64e77d7b61f440b60e28659d","64ecab5d51aee53c7378890f","null","null","<p style=""font-size: 60px; font-family: BACS"">NQZvNYZu</p>","","","","","","","","",""
"html-keyboard-response","217","376361","0.0-11.0-0.48","5fc65d9cc4575b0b47981de8","64e77d7b61f440b60e28659d","64ecab5d51aee53c7378890f","null","null","<p style=""font-size: 60px; font-family: BACS"">RkmdCbdtK</p>","","","","","","","","",""
"html-keyboard-response","218","377365","0.0-11.0-0.49","5fc65d9cc4575b0b47981de8","64e77d7b61f440b60e28659d","64ecab5d51aee53c7378890f","null","null","<p style=""font-size: 60px; font-family: BACS"">UaZmakbu</p>","","","","","","","","",""
"html-keyboard-response","219","378376","0.0-11.0-0.50","5fc65d9cc4575b0b47981de8","64e77d7b61f440b60e28659d","64ecab5d51aee53c7378890f","null","null","<p style=""font-size: 60px; font-family: BACS"">ALOrlcbm</p>","","","","","","","","",""
"html-keyboard-response","220","379378","0.0-11.0-0.51","5fc65d9cc4575b0b47981de8","64e77d7b61f440b60e28659d","64ecab5d51aee53c7378890f","null","null","<p style=""font-size: 60px; font-family: BACS"">NQZvuvJ</p>","","","","","","","","",""
"html-keyboard-response","221","380379","0.0-11.0-0.52","5fc65d9cc4575b0b47981de8","64e77d7b61f440b60e28659d","64ecab5d51aee53c7378890f","null","null","<p style=""font-size: 60px; font-family: BACS"">OmtlDKOYC</p>","","","","","","","","",""
"html-keyboard-response","222","381392","0.0-11.0-0.53","5fc65d9cc4575b0b47981de8","64e77d7b61f440b60e28659d","64ecab5d51aee53c7378890f","null","null","<p style=""font-size: 60px; font-family: BACS"">GJGcZYUYa</p>","","","","","","","","",""
"html-keyboard-response","223","382405","0.0-11.0-0.54","5fc65d9cc4575b0b47981de8","64e77d7b61f440b60e28659d","64ecab5d51aee53c7378890f","null","null","<p style=""font-size: 60px; font-family: BACS"">TdTDAPEM</p>","","","","","","","","",""
"html-keyboard-response","224","383407","0.0-11.0-0.55","5fc65d9cc4575b0b47981de8","64e77d7b61f440b60e28659d","64ecab5d51aee53c7378890f","null","null","<p style=""font-size: 60px; font-family: BACS"">lGZvkbu</p>","","","","","","","","",""
"html-keyboard-response","225","384411","0.0-11.0-0.56","5fc65d9cc4575b0b47981de8","64e77d7b61f440b60e28659d","64ecab5d51aee53c7378890f","null","null","<p style=""font-size: 60px; font-family: BACS"">PhktkAPEM</p>","","","","","","","","",""
"html-keyboard-response","226","385424","0.0-11.0-0.57","5fc65d9cc4575b0b47981de8","64e77d7b61f440b60e28659d","64ecab5d51aee53c7378890f","null","null","<p style=""font-size: 60px; font-family: BACS"">LvuOGuvJ</p>","","","","","","","","",""
"html-keyboard-response","227","386425","0.0-11.0-0.58","5fc65d9cc4575b0b47981de8","64e77d7b61f440b60e28659d","64ecab5d51aee53c7378890f","null","null","<p style=""font-size: 60px; font-family: BACS"">dClOCAPEM</p>","","","","","","","","",""
"html-keyboard-response","228","387442","0.0-11.0-0.59","5fc65d9cc4575b0b47981de8","64e77d7b61f440b60e28659d","64ecab5d51aee53c7378890f","null","null","<p style=""font-size: 60px; font-family: BACS"">RkmdCBYhT</p>","","","","","","","","",""
"html-keyboard-response","229","388452","0.0-11.0-0.60","5fc65d9cc4575b0b47981de8","64e77d7b61f440b60e28659d","64ecab5d51aee53c7378890f","null","null","<p style=""font-size: 60px; font-family: BACS"">LvuOGNYZu</p>","","","","","","","","",""
"html-keyboard-response","230","389454","0.0-11.0-0.61","5fc65d9cc4575b0b47981de8","64e77d7b61f440b60e28659d","64ecab5d51aee53c7378890f","null","null","<p style=""font-size: 60px; font-family: BACS"">OmtlDAPEM</p>","","","","","","","","",""
"html-keyboard-response","231","390455","0.0-11.0-0.62","5fc65d9cc4575b0b47981de8","64e77d7b61f440b60e28659d","64ecab5d51aee53c7378890f","null","null","<p style=""font-size: 60px; font-family: BACS"">GJGcZkbu</p>","","","","","","","","",""
"html-keyboard-response","232","391469","0.0-11.0-0.63","5fc65d9cc4575b0b47981de8","64e77d7b61f440b60e28659d","64ecab5d51aee53c7378890f","null","null","<p style=""font-size: 60px; font-family: BACS"">lGZvcbm</p>","","","","","","","","",""
"html-keyboard-response","233","392470","0.0-11.0-0.64","5fc65d9cc4575b0b47981de8","64e77d7b61f440b60e28659d","64ecab5d51aee53c7378890f","null","null","<p style=""font-size: 60px; font-family: BACS"">TdTDKOYC</p>","","","","","","","","",""
"html-keyboard-response","234","393483","0.0-11.0-0.65","5fc65d9cc4575b0b47981de8","64e77d7b61f440b60e28659d","64ecab5d51aee53c7378890f","null","null","<p style=""font-size: 60px; font-family: BACS"">OdlNmNYZu</p>","","","","","","","","",""
"html-keyboard-response","235","394498","0.0-11.0-0.66","5fc65d9cc4575b0b47981de8","64e77d7b61f440b60e28659d","64ecab5d51aee53c7378890f","null","null","<p style=""font-size: 60px; font-family: BACS"">kabJbYUYa</p>","","","","","","","","",""
"html-keyboard-response","236","395499","0.0-11.0-0.67","5fc65d9cc4575b0b47981de8","64e77d7b61f440b60e28659d","64ecab5d51aee53c7378890f","null","null","<p style=""font-size: 60px; font-family: BACS"">PhktkbdtK</p>","","","","","","","","",""
"html-keyboard-response","237","396504","0.0-11.0-0.68","5fc65d9cc4575b0b47981de8","64e77d7b61f440b60e28659d","64ecab5d51aee53c7378890f","null","null","<p style=""font-size: 60px; font-family: BACS"">mhtcBYhT</p>","","","","","","","","",""
"html-keyboard-response","238","397518","0.0-11.0-0.69","5fc65d9cc4575b0b47981de8","64e77d7b61f440b60e28659d","64ecab5d51aee53c7378890f","null","null","<p style=""font-size: 60px; font-family: BACS"">KdARAPEM</p>","","","","","","","","",""
"html-keyboard-response","239","398521","0.0-11.0-0.70","5fc65d9cc4575b0b47981de8","64e77d7b61f440b60e28659d","64ecab5d51aee53c7378890f","null","null","<p style=""font-size: 60px; font-family: BACS"">OmtlDbdtK</p>","","","","","","","","",""
"html-keyboard-response","240","399529","0.0-11.0-0.71","5fc65d9cc4575b0b47981de8","64e77d7b61f440b60e28659d","64ecab5d51aee53c7378890f","null","null","<p style=""font-size: 60px; font-family: BACS"">kabJbcbm</p>","","","","","","","","",""
"html-keyboard-response","241","400544","0.0-11.0-0.72","5fc65d9cc4575b0b47981de8","64e77d7b61f440b60e28659d","64ecab5d51aee53c7378890f","null","null","<p style=""font-size: 60px; font-family: BACS"">kcdOtbdtK</p>","","","","","","","","",""
"html-keyboard-response","242","401547","0.0-11.0-0.73","5fc65d9cc4575b0b47981de8","64e77d7b61f440b60e28659d","64ecab5d51aee53c7378890f","null","null","<p style=""font-size: 60px; font-family: BACS"">OmtlDbAMO</p>","","","","","","","","",""
"html-keyboard-response","243","402562","0.0-11.0-0.74","5fc65d9cc4575b0b47981de8","64e77d7b61f440b60e28659d","64ecab5d51aee53c7378890f","null","null","<p style=""font-size: 60px; font-family: BACS"">UdYUQcbm</p>","","","","","","","","",""
"html-keyboard-response","244","403576","0.0-11.0-0.75","5fc65d9cc4575b0b47981de8","64e77d7b61f440b60e28659d","64ecab5d51aee53c7378890f","null","null","<p style=""font-size: 60px; font-family: BACS"">TdTDBYhT</p>","","","","","","","","",""
"html-keyboard-response","245","404585","0.0-11.0-0.76","5fc65d9cc4575b0b47981de8","64e77d7b61f440b60e28659d","64ecab5d51aee53c7378890f","null","null","<p style=""font-size: 60px; font-family: BACS"">RlAKcKOYC</p>","","","","","","","","",""
"html-keyboard-response","246","405596","0.0-11.0-0.77","5fc65d9cc4575b0b47981de8","64e77d7b61f440b60e28659d","64ecab5d51aee53c7378890f","null","null","<p style=""font-size: 60px; font-family: BACS"">UdYUQNYZu</p>","","","","","","","","",""
"html-keyboard-response","247","406601","0.0-11.0-0.78","5fc65d9cc4575b0b47981de8","64e77d7b61f440b60e28659d","64ecab5d51aee53c7378890f","null","null","<p style=""font-size: 60px; font-family: BACS"">kcdOtKOYC</p>","","","","","","","","",""
"html-keyboard-response","248","407611","0.0-11.0-0.79","5fc65d9cc4575b0b47981de8","64e77d7b61f440b60e28659d","64ecab5d51aee53c7378890f","null","null","<p style=""font-size: 60px; font-family: BACS"">UdYUQYUYa</p>","","","","","","","","",""
"html-keyboard-response","249","426087","0.0-12.0","5fc65d9cc4575b0b47981de8","64e77d7b61f440b60e28659d","64ecab5d51aee53c7378890f","18475"," ","<p>Great, you've seen the third block of words. You may now take a short break.</p>
      <p>Press the spacebar when you're ready to continue.</p>","","","","","","","","",""
"html-keyboard-response","250","427099","0.0-13.0-0.0","5fc65d9cc4575b0b47981de8","64e77d7b61f440b60e28659d","64ecab5d51aee53c7378890f","null","null","<p style=""font-size: 60px; font-family: BACS"">kcdOtKOYC</p>","","","","","","","","",""
"html-keyboard-response","251","428108","0.0-13.0-0.1","5fc65d9cc4575b0b47981de8","64e77d7b61f440b60e28659d","64ecab5d51aee53c7378890f","null","null","<p style=""font-size: 60px; font-family: BACS"">PhktkBYhT</p>","","","","","","","","",""
"html-keyboard-response","252","429111","0.0-13.0-0.2","5fc65d9cc4575b0b47981de8","64e77d7b61f440b60e28659d","64ecab5d51aee53c7378890f","null","null","<p style=""font-size: 60px; font-family: BACS"">LvuOGYUYa</p>","","","","","","","","",""
"html-keyboard-response","253","430113","0.0-13.0-0.3","5fc65d9cc4575b0b47981de8","64e77d7b61f440b60e28659d","64ecab5d51aee53c7378890f","null","null","<p style=""font-size: 60px; font-family: BACS"">RkmdCAPEM</p>","","","","","","","","",""
"html-keyboard-response","254","431129","0.0-13.0-0.4","5fc65d9cc4575b0b47981de8","64e77d7b61f440b60e28659d","64ecab5d51aee53c7378890f","null","null","<p style=""font-size: 60px; font-family: BACS"">PhktkKOYC</p>","","","","","","","","",""
"html-keyboard-response","255","432130","0.0-13.0-0.5","5fc65d9cc4575b0b47981de8","64e77d7b61f440b60e28659d","64ecab5d51aee53c7378890f","null","null","<p style=""font-size: 60px; font-family: BACS"">OdlNmNYZu</p>","","","","","","","","",""
"html-keyboard-response","256","433143","0.0-13.0-0.6","5fc65d9cc4575b0b47981de8","64e77d7b61f440b60e28659d","64ecab5d51aee53c7378890f","null","null","<p style=""font-size: 60px; font-family: BACS"">RkmdCbdtK</p>","","","","","","","","",""
"html-keyboard-response","257","434149","0.0-13.0-0.7","5fc65d9cc4575b0b47981de8","64e77d7b61f440b60e28659d","64ecab5d51aee53c7378890f","null","null","<p style=""font-size: 60px; font-family: BACS"">UaZmakbu</p>","","","","","","","","",""
"html-keyboard-response","258","435157","0.0-13.0-0.8","5fc65d9cc4575b0b47981de8","64e77d7b61f440b60e28659d","64ecab5d51aee53c7378890f","null","null","<p style=""font-size: 60px; font-family: BACS"">mhtcAPEM</p>","","","","","","","","",""
"html-keyboard-response","259","436162","0.0-13.0-0.9","5fc65d9cc4575b0b47981de8","64e77d7b61f440b60e28659d","64ecab5d51aee53c7378890f","null","null","<p style=""font-size: 60px; font-family: BACS"">ALOrluvJ</p>","","","","","","","","",""
"html-keyboard-response","260","437169","0.0-13.0-0.10","5fc65d9cc4575b0b47981de8","64e77d7b61f440b60e28659d","64ecab5d51aee53c7378890f","null","null","<p style=""font-size: 60px; font-family: BACS"">vblrcbm</p>","","","","","","","","",""
"html-keyboard-response","261","438185","0.0-13.0-0.11","5fc65d9cc4575b0b47981de8","64e77d7b61f440b60e28659d","64ecab5d51aee53c7378890f","null","null","<p style=""font-size: 60px; font-family: BACS"">RlAKcbdtK</p>","","","","","","","","",""
"html-keyboard-response","262","439189","0.0-13.0-0.12","5fc65d9cc4575b0b47981de8","64e77d7b61f440b60e28659d","64ecab5d51aee53c7378890f","null","null","<p style=""font-size: 60px; font-family: BACS"">RkmdCbAMO</p>","","","","","","","","",""
"html-keyboard-response","263","440205","0.0-13.0-0.13","5fc65d9cc4575b0b47981de8","64e77d7b61f440b60e28659d","64ecab5d51aee53c7378890f","null","null","<p style=""font-size: 60px; font-family: BACS"">ALOrlcbm</p>","","","","","","","","",""
"html-keyboard-response","264","441211","0.0-13.0-0.14","5fc65d9cc4575b0b47981de8","64e77d7b61f440b60e28659d","64ecab5d51aee53c7378890f","null","null","<p style=""font-size: 60px; font-family: BACS"">UdYUQYUYa</p>","","","","","","","","",""
"html-keyboard-response","265","442221","0.0-13.0-0.15","5fc65d9cc4575b0b47981de8","64e77d7b61f440b60e28659d","64ecab5d51aee53c7378890f","null","null","<p style=""font-size: 60px; font-family: BACS"">dClOCbAMO</p>","","","","","","","","",""
"html-keyboard-response","266","443222","0.0-13.0-0.16","5fc65d9cc4575b0b47981de8","64e77d7b61f440b60e28659d","64ecab5d51aee53c7378890f","null","null","<p style=""font-size: 60px; font-family: BACS"">LvuOGcbm</p>","","","","","","","","",""
"html-keyboard-response","267","444237","0.0-13.0-0.17","5fc65d9cc4575b0b47981de8","64e77d7b61f440b60e28659d","64ecab5d51aee53c7378890f","null","null","<p style=""font-size: 60px; font-family: BACS"">OmtlDKOYC</p>","","","","","","","","",""
"html-keyboard-response","268","445251","0.0-13.0-0.18","5fc65d9cc4575b0b47981de8","64e77d7b61f440b60e28659d","64ecab5d51aee53c7378890f","null","null","<p style=""font-size: 60px; font-family: BACS"">RtRhbAMO</p>","","","","","","","","",""
"html-keyboard-response","269","446268","0.0-13.0-0.19","5fc65d9cc4575b0b47981de8","64e77d7b61f440b60e28659d","64ecab5d51aee53c7378890f","null","null","<p style=""font-size: 60px; font-family: BACS"">NQZvYUYa</p>","","","","","","","","",""
"html-keyboard-response","270","447280","0.0-13.0-0.20","5fc65d9cc4575b0b47981de8","64e77d7b61f440b60e28659d","64ecab5d51aee53c7378890f","null","null","<p style=""font-size: 60px; font-family: BACS"">mhtcbAMO</p>","","","","","","","","",""
"html-keyboard-response","271","448287","0.0-13.0-0.21","5fc65d9cc4575b0b47981de8","64e77d7b61f440b60e28659d","64ecab5d51aee53c7378890f","null","null","<p style=""font-size: 60px; font-family: BACS"">KdARbdtK</p>","","","","","","","","",""
"html-keyboard-response","272","449299","0.0-13.0-0.22","5fc65d9cc4575b0b47981de8","64e77d7b61f440b60e28659d","64ecab5d51aee53c7378890f","null","null","<p style=""font-size: 60px; font-family: BACS"">mhtcKOYC</p>","","","","","","","","",""
"html-keyboard-response","273","450312","0.0-13.0-0.23","5fc65d9cc4575b0b47981de8","64e77d7b61f440b60e28659d","64ecab5d51aee53c7378890f","null","null","<p style=""font-size: 60px; font-family: BACS"">kcdOtBYhT</p>","","","","","","","","",""
"html-keyboard-response","274","451319","0.0-13.0-0.24","5fc65d9cc4575b0b47981de8","64e77d7b61f440b60e28659d","64ecab5d51aee53c7378890f","null","null","<p style=""font-size: 60px; font-family: BACS"">GJGcZkbu</p>","","","","","","","","",""
"html-keyboard-response","275","452335","0.0-13.0-0.25","5fc65d9cc4575b0b47981de8","64e77d7b61f440b60e28659d","64ecab5d51aee53c7378890f","null","null","<p style=""font-size: 60px; font-family: BACS"">UdYUQNYZu</p>","","","","","","","","",""
"html-keyboard-response","276","453351","0.0-13.0-0.26","5fc65d9cc4575b0b47981de8","64e77d7b61f440b60e28659d","64ecab5d51aee53c7378890f","null","null","<p style=""font-size: 60px; font-family: BACS"">RlAKcKOYC</p>","","","","","","","","",""
"html-keyboard-response","277","454356","0.0-13.0-0.27","5fc65d9cc4575b0b47981de8","64e77d7b61f440b60e28659d","64ecab5d51aee53c7378890f","null","null","<p style=""font-size: 60px; font-family: BACS"">dClOCAPEM</p>","","","","","","","","",""
"html-keyboard-response","278","455372","0.0-13.0-0.28","5fc65d9cc4575b0b47981de8","64e77d7b61f440b60e28659d","64ecab5d51aee53c7378890f","null","null","<p style=""font-size: 60px; font-family: BACS"">kabJbuvJ</p>","","","","","","","","",""
"html-keyboard-response","279","456381","0.0-13.0-0.29","5fc65d9cc4575b0b47981de8","64e77d7b61f440b60e28659d","64ecab5d51aee53c7378890f","null","null","<p style=""font-size: 60px; font-family: BACS"">lGZvYUYa</p>","","","","","","","","",""
"html-keyboard-response","280","457392","0.0-13.0-0.30","5fc65d9cc4575b0b47981de8","64e77d7b61f440b60e28659d","64ecab5d51aee53c7378890f","null","null","<p style=""font-size: 60px; font-family: BACS"">kcdOtbAMO</p>","","","","","","","","",""
"html-keyboard-response","281","458394","0.0-13.0-0.31","5fc65d9cc4575b0b47981de8","64e77d7b61f440b60e28659d","64ecab5d51aee53c7378890f","null","null","<p style=""font-size: 60px; font-family: BACS"">KdARBYhT</p>","","","","","","","","",""
"html-keyboard-response","282","459407","0.0-13.0-0.32","5fc65d9cc4575b0b47981de8","64e77d7b61f440b60e28659d","64ecab5d51aee53c7378890f","null","null","<p style=""font-size: 60px; font-family: BACS"">ALOrlkbu</p>","","","","","","","","",""
"html-keyboard-response","283","460418","0.0-13.0-0.33","5fc65d9cc4575b0b47981de8","64e77d7b61f440b60e28659d","64ecab5d51aee53c7378890f","null","null","<p style=""font-size: 60px; font-family: BACS"">KdARAPEM</p>","","","","","","","","",""
"html-keyboard-response","284","461429","0.0-13.0-0.34","5fc65d9cc4575b0b47981de8","64e77d7b61f440b60e28659d","64ecab5d51aee53c7378890f","null","null","<p style=""font-size: 60px; font-family: BACS"">TdTDBYhT</p>","","","","","","","","",""
"html-keyboard-response","285","462431","0.0-13.0-0.35","5fc65d9cc4575b0b47981de8","64e77d7b61f440b60e28659d","64ecab5d51aee53c7378890f","null","null","<p style=""font-size: 60px; font-family: BACS"">lGZvuvJ</p>","","","","","","","","",""
"html-keyboard-response","286","463443","0.0-13.0-0.36","5fc65d9cc4575b0b47981de8","64e77d7b61f440b60e28659d","64ecab5d51aee53c7378890f","null","null","<p style=""font-size: 60px; font-family: BACS"">kabJbcbm</p>","","","","","","","","",""
"html-keyboard-response","287","464455","0.0-13.0-0.37","5fc65d9cc4575b0b47981de8","64e77d7b61f440b60e28659d","64ecab5d51aee53c7378890f","null","null","<p style=""font-size: 60px; font-family: BACS"">RlAKcbAMO</p>","","","","","","","","",""
"html-keyboard-response","288","465457","0.0-13.0-0.38","5fc65d9cc4575b0b47981de8","64e77d7b61f440b60e28659d","64ecab5d51aee53c7378890f","null","null","<p style=""font-size: 60px; font-family: BACS"">RtRhbdtK</p>","","","","","","","","",""
"html-keyboard-response","289","466473","0.0-13.0-0.39","5fc65d9cc4575b0b47981de8","64e77d7b61f440b60e28659d","64ecab5d51aee53c7378890f","null","null","<p style=""font-size: 60px; font-family: BACS"">NQZvuvJ</p>","","","","","","","","",""
"html-keyboard-response","290","467480","0.0-13.0-0.40","5fc65d9cc4575b0b47981de8","64e77d7b61f440b60e28659d","64ecab5d51aee53c7378890f","null","null","<p style=""font-size: 60px; font-family: BACS"">TdTDKOYC</p>","","","","","","","","",""
"html-keyboard-response","291","468483","0.0-13.0-0.41","5fc65d9cc4575b0b47981de8","64e77d7b61f440b60e28659d","64ecab5d51aee53c7378890f","null","null","<p style=""font-size: 60px; font-family: BACS"">NQZvNYZu</p>","","","","","","","","",""
"html-keyboard-response","292","469488","0.0-13.0-0.42","5fc65d9cc4575b0b47981de8","64e77d7b61f440b60e28659d","64ecab5d51aee53c7378890f","null","null","<p style=""font-size: 60px; font-family: BACS"">lGZvcbm</p>","","","","","","","","",""
"html-keyboard-response","293","470498","0.0-13.0-0.43","5fc65d9cc4575b0b47981de8","64e77d7b61f440b60e28659d","64ecab5d51aee53c7378890f","null","null","<p style=""font-size: 60px; font-family: BACS"">vblrkbu</p>","","","","","","","","",""
"html-keyboard-response","294","471510","0.0-13.0-0.44","5fc65d9cc4575b0b47981de8","64e77d7b61f440b60e28659d","64ecab5d51aee53c7378890f","null","null","<p style=""font-size: 60px; font-family: BACS"">UdYUQcbm</p>","","","","","","","","",""
"html-keyboard-response","295","472516","0.0-13.0-0.45","5fc65d9cc4575b0b47981de8","64e77d7b61f440b60e28659d","64ecab5d51aee53c7378890f","null","null","<p style=""font-size: 60px; font-family: BACS"">GJGcZYUYa</p>","","","","","","","","",""
"html-keyboard-response","296","473520","0.0-13.0-0.46","5fc65d9cc4575b0b47981de8","64e77d7b61f440b60e28659d","64ecab5d51aee53c7378890f","null","null","<p style=""font-size: 60px; font-family: BACS"">PhktkbdtK</p>","","","","","","","","",""
"html-keyboard-response","297","474530","0.0-13.0-0.47","5fc65d9cc4575b0b47981de8","64e77d7b61f440b60e28659d","64ecab5d51aee53c7378890f","null","null","<p style=""font-size: 60px; font-family: BACS"">GJGcZNYZu</p>","","","","","","","","",""
"html-keyboard-response","298","475536","0.0-13.0-0.48","5fc65d9cc4575b0b47981de8","64e77d7b61f440b60e28659d","64ecab5d51aee53c7378890f","null","null","<p style=""font-size: 60px; font-family: BACS"">UdYUQkbu</p>","","","","","","","","",""
"html-keyboard-response","299","476544","0.0-13.0-0.49","5fc65d9cc4575b0b47981de8","64e77d7b61f440b60e28659d","64ecab5d51aee53c7378890f","null","null","<p style=""font-size: 60px; font-family: BACS"">KdARKOYC</p>","","","","","","","","",""
"html-keyboard-response","300","477554","0.0-13.0-0.50","5fc65d9cc4575b0b47981de8","64e77d7b61f440b60e28659d","64ecab5d51aee53c7378890f","null","null","<p style=""font-size: 60px; font-family: BACS"">OmtlDbAMO</p>","","","","","","","","",""
"html-keyboard-response","301","478564","0.0-13.0-0.51","5fc65d9cc4575b0b47981de8","64e77d7b61f440b60e28659d","64ecab5d51aee53c7378890f","null","null","<p style=""font-size: 60px; font-family: BACS"">LvuOGNYZu</p>","","","","","","","","",""
"html-keyboard-response","302","479580","0.0-13.0-0.52","5fc65d9cc4575b0b47981de8","64e77d7b61f440b60e28659d","64ecab5d51aee53c7378890f","null","null","<p style=""font-size: 60px; font-family: BACS"">NQZvkbu</p>","","","","","","","","",""
"html-keyboard-response","303","480596","0.0-13.0-0.53","5fc65d9cc4575b0b47981de8","64e77d7b61f440b60e28659d","64ecab5d51aee53c7378890f","null","null","<p style=""font-size: 60px; font-family: BACS"">RkmdCBYhT</p>","","","","","","","","",""
"html-keyboard-response","304","481604","0.0-13.0-0.54","5fc65d9cc4575b0b47981de8","64e77d7b61f440b60e28659d","64ecab5d51aee53c7378890f","null","null","<p style=""font-size: 60px; font-family: BACS"">OdlNmYUYa</p>","","","","","","","","",""
"html-keyboard-response","305","482613","0.0-13.0-0.55","5fc65d9cc4575b0b47981de8","64e77d7b61f440b60e28659d","64ecab5d51aee53c7378890f","null","null","<p style=""font-size: 60px; font-family: BACS"">UaZmauvJ</p>","","","","","","","","",""
"html-keyboard-response","306","483618","0.0-13.0-0.56","5fc65d9cc4575b0b47981de8","64e77d7b61f440b60e28659d","64ecab5d51aee53c7378890f","null","null","<p style=""font-size: 60px; font-family: BACS"">ALOrlNYZu</p>","","","","","","","","",""
"html-keyboard-response","307","484620","0.0-13.0-0.57","5fc65d9cc4575b0b47981de8","64e77d7b61f440b60e28659d","64ecab5d51aee53c7378890f","null","null","<p style=""font-size: 60px; font-family: BACS"">vblruvJ</p>","","","","","","","","",""
"html-keyboard-response","308","485633","0.0-13.0-0.58","5fc65d9cc4575b0b47981de8","64e77d7b61f440b60e28659d","64ecab5d51aee53c7378890f","null","null","<p style=""font-size: 60px; font-family: BACS"">RlAKcBYhT</p>","","","","","","","","",""
"html-keyboard-response","309","486639","0.0-13.0-0.59","5fc65d9cc4575b0b47981de8","64e77d7b61f440b60e28659d","64ecab5d51aee53c7378890f","null","null","<p style=""font-size: 60px; font-family: BACS"">OdlNmcbm</p>","","","","","","","","",""
"html-keyboard-response","310","487648","0.0-13.0-0.60","5fc65d9cc4575b0b47981de8","64e77d7b61f440b60e28659d","64ecab5d51aee53c7378890f","null","null","<p style=""font-size: 60px; font-family: BACS"">lGZvkbu</p>","","","","","","","","",""
"html-keyboard-response","311","488664","0.0-13.0-0.61","5fc65d9cc4575b0b47981de8","64e77d7b61f440b60e28659d","64ecab5d51aee53c7378890f","null","null","<p style=""font-size: 60px; font-family: BACS"">GJGcZuvJ</p>","","","","","","","","",""
"html-keyboard-response","312","489677","0.0-13.0-0.62","5fc65d9cc4575b0b47981de8","64e77d7b61f440b60e28659d","64ecab5d51aee53c7378890f","null","null","<p style=""font-size: 60px; font-family: BACS"">UaZmacbm</p>","","","","","","","","",""
"html-keyboard-response","313","490688","0.0-13.0-0.63","5fc65d9cc4575b0b47981de8","64e77d7b61f440b60e28659d","64ecab5d51aee53c7378890f","null","null","<p style=""font-size: 60px; font-family: BACS"">RtRhAPEM</p>","","","","","","","","",""
"html-keyboard-response","314","491698","0.0-13.0-0.64","5fc65d9cc4575b0b47981de8","64e77d7b61f440b60e28659d","64ecab5d51aee53c7378890f","null","null","<p style=""font-size: 60px; font-family: BACS"">LvuOGuvJ</p>","","","","","","","","",""
"html-keyboard-response","315","492712","0.0-13.0-0.65","5fc65d9cc4575b0b47981de8","64e77d7b61f440b60e28659d","64ecab5d51aee53c7378890f","null","null","<p style=""font-size: 60px; font-family: BACS"">TdTDAPEM</p>","","","","","","","","",""
"html-keyboard-response","316","493713","0.0-13.0-0.66","5fc65d9cc4575b0b47981de8","64e77d7b61f440b60e28659d","64ecab5d51aee53c7378890f","null","null","<p style=""font-size: 60px; font-family: BACS"">OmtlDbdtK</p>","","","","","","","","",""
"html-keyboard-response","317","494721","0.0-13.0-0.67","5fc65d9cc4575b0b47981de8","64e77d7b61f440b60e28659d","64ecab5d51aee53c7378890f","null","null","<p style=""font-size: 60px; font-family: BACS"">OdlNmkbu</p>","","","","","","","","",""
"html-keyboard-response","318","495723","0.0-13.0-0.68","5fc65d9cc4575b0b47981de8","64e77d7b61f440b60e28659d","64ecab5d51aee53c7378890f","null","null","<p style=""font-size: 60px; font-family: BACS"">RtRhBYhT</p>","","","","","","","","",""
"html-keyboard-response","319","496737","0.0-13.0-0.69","5fc65d9cc4575b0b47981de8","64e77d7b61f440b60e28659d","64ecab5d51aee53c7378890f","null","null","<p style=""font-size: 60px; font-family: BACS"">PhktkAPEM</p>","","","","","","","","",""
"html-keyboard-response","320","497742","0.0-13.0-0.70","5fc65d9cc4575b0b47981de8","64e77d7b61f440b60e28659d","64ecab5d51aee53c7378890f","null","null","<p style=""font-size: 60px; font-family: BACS"">vblrNYZu</p>","","","","","","","","",""
"html-keyboard-response","321","498752","0.0-13.0-0.71","5fc65d9cc4575b0b47981de8","64e77d7b61f440b60e28659d","64ecab5d51aee53c7378890f","null","null","<p style=""font-size: 60px; font-family: BACS"">TdTDbAMO</p>","","","","","","","","",""
"html-keyboard-response","322","499758","0.0-13.0-0.72","5fc65d9cc4575b0b47981de8","64e77d7b61f440b60e28659d","64ecab5d51aee53c7378890f","null","null","<p style=""font-size: 60px; font-family: BACS"">kabJbNYZu</p>","","","","","","","","",""
"html-keyboard-response","323","500774","0.0-13.0-0.73","5fc65d9cc4575b0b47981de8","64e77d7b61f440b60e28659d","64ecab5d51aee53c7378890f","null","null","<p style=""font-size: 60px; font-family: BACS"">mhtcBYhT</p>","","","","","","","","",""
"html-keyboard-response","324","501780","0.0-13.0-0.74","5fc65d9cc4575b0b47981de8","64e77d7b61f440b60e28659d","64ecab5d51aee53c7378890f","null","null","<p style=""font-size: 60px; font-family: BACS"">UaZmaYUYa</p>","","","","","","","","",""
"html-keyboard-response","325","502787","0.0-13.0-0.75","5fc65d9cc4575b0b47981de8","64e77d7b61f440b60e28659d","64ecab5d51aee53c7378890f","null","null","<p style=""font-size: 60px; font-family: BACS"">kcdOtbdtK</p>","","","","","","","","",""
"html-keyboard-response","326","503800","0.0-13.0-0.76","5fc65d9cc4575b0b47981de8","64e77d7b61f440b60e28659d","64ecab5d51aee53c7378890f","null","null","<p style=""font-size: 60px; font-family: BACS"">dClOCKOYC</p>","","","","","","","","",""
"html-keyboard-response","327","504802","0.0-13.0-0.77","5fc65d9cc4575b0b47981de8","64e77d7b61f440b60e28659d","64ecab5d51aee53c7378890f","null","null","<p style=""font-size: 60px; font-family: BACS"">kabJbYUYa</p>","","","","","","","","",""
"html-keyboard-response","328","505814","0.0-13.0-0.78","5fc65d9cc4575b0b47981de8","64e77d7b61f440b60e28659d","64ecab5d51aee53c7378890f","null","null","<p style=""font-size: 60px; font-family: BACS"">OmtlDAPEM</p>","","","","","","","","",""
"html-keyboard-response","329","506815","0.0-13.0-0.79","5fc65d9cc4575b0b47981de8","64e77d7b61f440b60e28659d","64ecab5d51aee53c7378890f","null","null","<p style=""font-size: 60px; font-family: BACS"">dClOCbdtK</p>","","","","","","","","",""
"html-keyboard-response","330","510753","0.0-14.0","5fc65d9cc4575b0b47981de8","64e77d7b61f440b60e28659d","64ecab5d51aee53c7378890f","3937"," ","<p>Great, you've seen the fourth block of words. You may now take a short break.</p>
      <p>Press the spacebar when you're ready to continue.</p>","","","","","","","","",""
"html-keyboard-response","331","511761","0.0-15.0-0.0","5fc65d9cc4575b0b47981de8","64e77d7b61f440b60e28659d","64ecab5d51aee53c7378890f","null","null","<p style=""font-size: 60px; font-family: BACS"">PhktkKOYC</p>","","","","","","","","",""
"html-keyboard-response","332","512771","0.0-15.0-0.1","5fc65d9cc4575b0b47981de8","64e77d7b61f440b60e28659d","64ecab5d51aee53c7378890f","null","null","<p style=""font-size: 60px; font-family: BACS"">PhktkKOYC</p>","","","","","","","","",""
"html-keyboard-response","333","513772","0.0-15.0-0.2","5fc65d9cc4575b0b47981de8","64e77d7b61f440b60e28659d","64ecab5d51aee53c7378890f","null","null","<p style=""font-size: 60px; font-family: BACS"">PhktkKOYC</p>","","","","","","","","",""
"html-keyboard-response","334","514787","0.0-15.0-0.3","5fc65d9cc4575b0b47981de8","64e77d7b61f440b60e28659d","64ecab5d51aee53c7378890f","null","null","<p style=""font-size: 60px; font-family: BACS"">PhktkKOYC</p>","","","","","","","","",""
"html-keyboard-response","335","515801","0.0-15.0-0.4","5fc65d9cc4575b0b47981de8","64e77d7b61f440b60e28659d","64ecab5d51aee53c7378890f","null","null","<p style=""font-size: 60px; font-family: BACS"">PhktkKOYC</p>","","","","","","","","",""
"html-keyboard-response","336","516816","0.0-15.0-0.5","5fc65d9cc4575b0b47981de8","64e77d7b61f440b60e28659d","64ecab5d51aee53c7378890f","null","null","<p style=""font-size: 60px; font-family: BACS"">PhktkKOYC</p>","","","","","","","","",""
"html-keyboard-response","337","517827","0.0-15.0-0.6","5fc65d9cc4575b0b47981de8","64e77d7b61f440b60e28659d","64ecab5d51aee53c7378890f","null","null","<p style=""font-size: 60px; font-family: BACS"">PhktkKOYC</p>","","","","","","","","",""
"html-keyboard-response","338","518835","0.0-15.0-0.7","5fc65d9cc4575b0b47981de8","64e77d7b61f440b60e28659d","64ecab5d51aee53c7378890f","null","null","<p style=""font-size: 60px; font-family: BACS"">PhktkKOYC</p>","","","","","","","","",""
"html-keyboard-response","339","519846","0.0-15.0-0.8","5fc65d9cc4575b0b47981de8","64e77d7b61f440b60e28659d","64ecab5d51aee53c7378890f","null","null","<p style=""font-size: 60px; font-family: BACS"">PhktkKOYC</p>","","","","","","","","",""
"html-keyboard-response","340","520858","0.0-15.0-0.9","5fc65d9cc4575b0b47981de8","64e77d7b61f440b60e28659d","64ecab5d51aee53c7378890f","null","null","<p style=""font-size: 60px; font-family: BACS"">PhktkKOYC</p>","","","","","","","","",""
"html-keyboard-response","341","521873","0.0-15.0-0.10","5fc65d9cc4575b0b47981de8","64e77d7b61f440b60e28659d","64ecab5d51aee53c7378890f","null","null","<p style=""font-size: 60px; font-family: BACS"">PhktkKOYC</p>","","","","","","","","",""
"html-keyboard-response","342","522885","0.0-15.0-0.11","5fc65d9cc4575b0b47981de8","64e77d7b61f440b60e28659d","64ecab5d51aee53c7378890f","null","null","<p style=""font-size: 60px; font-family: BACS"">PhktkKOYC</p>","","","","","","","","",""
"html-keyboard-response","343","523886","0.0-15.0-0.12","5fc65d9cc4575b0b47981de8","64e77d7b61f440b60e28659d","64ecab5d51aee53c7378890f","null","null","<p style=""font-size: 60px; font-family: BACS"">PhktkKOYC</p>","","","","","","","","",""
"html-keyboard-response","344","524896","0.0-15.0-0.13","5fc65d9cc4575b0b47981de8","64e77d7b61f440b60e28659d","64ecab5d51aee53c7378890f","null","null","<p style=""font-size: 60px; font-family: BACS"">PhktkKOYC</p>","","","","","","","","",""
"html-keyboard-response","345","525899","0.0-15.0-0.14","5fc65d9cc4575b0b47981de8","64e77d7b61f440b60e28659d","64ecab5d51aee53c7378890f","null","null","<p style=""font-size: 60px; font-family: BACS"">PhktkKOYC</p>","","","","","","","","",""
"html-keyboard-response","346","526911","0.0-15.0-0.15","5fc65d9cc4575b0b47981de8","64e77d7b61f440b60e28659d","64ecab5d51aee53c7378890f","null","null","<p style=""font-size: 60px; font-family: BACS"">PhktkKOYC</p>","","","","","","","","",""
"html-keyboard-response","347","527925","0.0-15.0-0.16","5fc65d9cc4575b0b47981de8","64e77d7b61f440b60e28659d","64ecab5d51aee53c7378890f","null","null","<p style=""font-size: 60px; font-family: BACS"">PhktkKOYC</p>","","","","","","","","",""
"html-keyboard-response","348","528926","0.0-15.0-0.17","5fc65d9cc4575b0b47981de8","64e77d7b61f440b60e28659d","64ecab5d51aee53c7378890f","null","null","<p style=""font-size: 60px; font-family: BACS"">PhktkKOYC</p>","","","","","","","","",""
"html-keyboard-response","349","529928","0.0-15.0-0.18","5fc65d9cc4575b0b47981de8","64e77d7b61f440b60e28659d","64ecab5d51aee53c7378890f","null","null","<p style=""font-size: 60px; font-family: BACS"">PhktkKOYC</p>","","","","","","","","",""
"html-keyboard-response","350","530940","0.0-15.0-0.19","5fc65d9cc4575b0b47981de8","64e77d7b61f440b60e28659d","64ecab5d51aee53c7378890f","null","null","<p style=""font-size: 60px; font-family: BACS"">PhktkKOYC</p>","","","","","","","","",""
"html-keyboard-response","351","531954","0.0-15.0-0.20","5fc65d9cc4575b0b47981de8","64e77d7b61f440b60e28659d","64ecab5d51aee53c7378890f","null","null","<p style=""font-size: 60px; font-family: BACS"">PhktkKOYC</p>","","","","","","","","",""
"html-keyboard-response","352","532963","0.0-15.0-0.21","5fc65d9cc4575b0b47981de8","64e77d7b61f440b60e28659d","64ecab5d51aee53c7378890f","null","null","<p style=""font-size: 60px; font-family: BACS"">PhktkKOYC</p>","","","","","","","","",""
"html-keyboard-response","353","533972","0.0-15.0-0.22","5fc65d9cc4575b0b47981de8","64e77d7b61f440b60e28659d","64ecab5d51aee53c7378890f","null","null","<p style=""font-size: 60px; font-family: BACS"">PhktkKOYC</p>","","","","","","","","",""
"html-keyboard-response","354","534974","0.0-15.0-0.23","5fc65d9cc4575b0b47981de8","64e77d7b61f440b60e28659d","64ecab5d51aee53c7378890f","null","null","<p style=""font-size: 60px; font-family: BACS"">PhktkKOYC</p>","","","","","","","","",""
"html-keyboard-response","355","535984","0.0-15.0-0.24","5fc65d9cc4575b0b47981de8","64e77d7b61f440b60e28659d","64ecab5d51aee53c7378890f","null","null","<p style=""font-size: 60px; font-family: BACS"">PhktkKOYC</p>","","","","","","","","",""
"html-keyboard-response","356","536987","0.0-15.0-0.25","5fc65d9cc4575b0b47981de8","64e77d7b61f440b60e28659d","64ecab5d51aee53c7378890f","null","null","<p style=""font-size: 60px; font-family: BACS"">PhktkKOYC</p>","","","","","","","","",""
"html-keyboard-response","357","537997","0.0-15.0-0.26","5fc65d9cc4575b0b47981de8","64e77d7b61f440b60e28659d","64ecab5d51aee53c7378890f","null","null","<p style=""font-size: 60px; font-family: BACS"">PhktkKOYC</p>","","","","","","","","",""
"html-keyboard-response","358","539011","0.0-15.0-0.27","5fc65d9cc4575b0b47981de8","64e77d7b61f440b60e28659d","64ecab5d51aee53c7378890f","null","null","<p style=""font-size: 60px; font-family: BACS"">PhktkKOYC</p>","","","","","","","","",""
"html-keyboard-response","359","540027","0.0-15.0-0.28","5fc65d9cc4575b0b47981de8","64e77d7b61f440b60e28659d","64ecab5d51aee53c7378890f","null","null","<p style=""font-size: 60px; font-family: BACS"">PhktkKOYC</p>","","","","","","","","",""
"html-keyboard-response","360","541040","0.0-15.0-0.29","5fc65d9cc4575b0b47981de8","64e77d7b61f440b60e28659d","64ecab5d51aee53c7378890f","null","null","<p style=""font-size: 60px; font-family: BACS"">PhktkKOYC</p>","","","","","","","","",""
"html-keyboard-response","361","542053","0.0-15.0-0.30","5fc65d9cc4575b0b47981de8","64e77d7b61f440b60e28659d","64ecab5d51aee53c7378890f","null","null","<p style=""font-size: 60px; font-family: BACS"">PhktkKOYC</p>","","","","","","","","",""
"html-keyboard-response","362","543066","0.0-15.0-0.31","5fc65d9cc4575b0b47981de8","64e77d7b61f440b60e28659d","64ecab5d51aee53c7378890f","null","null","<p style=""font-size: 60px; font-family: BACS"">PhktkKOYC</p>","","","","","","","","",""
"html-keyboard-response","363","544075","0.0-15.0-0.32","5fc65d9cc4575b0b47981de8","64e77d7b61f440b60e28659d","64ecab5d51aee53c7378890f","null","null","<p style=""font-size: 60px; font-family: BACS"">PhktkKOYC</p>","","","","","","","","",""
"html-keyboard-response","364","545086","0.0-15.0-0.33","5fc65d9cc4575b0b47981de8","64e77d7b61f440b60e28659d","64ecab5d51aee53c7378890f","null","null","<p style=""font-size: 60px; font-family: BACS"">PhktkKOYC</p>","","","","","","","","",""
"html-keyboard-response","365","546093","0.0-15.0-0.34","5fc65d9cc4575b0b47981de8","64e77d7b61f440b60e28659d","64ecab5d51aee53c7378890f","null","null","<p style=""font-size: 60px; font-family: BACS"">PhktkKOYC</p>","","","","","","","","",""
"html-keyboard-response","366","547107","0.0-15.0-0.35","5fc65d9cc4575b0b47981de8","64e77d7b61f440b60e28659d","64ecab5d51aee53c7378890f","null","null","<p style=""font-size: 60px; font-family: BACS"">PhktkKOYC</p>","","","","","","","","",""
"html-keyboard-response","367","548111","0.0-15.0-0.36","5fc65d9cc4575b0b47981de8","64e77d7b61f440b60e28659d","64ecab5d51aee53c7378890f","null","null","<p style=""font-size: 60px; font-family: BACS"">PhktkKOYC</p>","","","","","","","","",""
"html-keyboard-response","368","549117","0.0-15.0-0.37","5fc65d9cc4575b0b47981de8","64e77d7b61f440b60e28659d","64ecab5d51aee53c7378890f","null","null","<p style=""font-size: 60px; font-family: BACS"">PhktkKOYC</p>","","","","","","","","",""
"html-keyboard-response","369","550118","0.0-15.0-0.38","5fc65d9cc4575b0b47981de8","64e77d7b61f440b60e28659d","64ecab5d51aee53c7378890f","null","null","<p style=""font-size: 60px; font-family: BACS"">PhktkKOYC</p>","","","","","","","","",""
"html-keyboard-response","370","551128","0.0-15.0-0.39","5fc65d9cc4575b0b47981de8","64e77d7b61f440b60e28659d","64ecab5d51aee53c7378890f","null","null","<p style=""font-size: 60px; font-family: BACS"">PhktkKOYC</p>","","","","","","","","",""
"html-keyboard-response","371","552129","0.0-15.0-0.40","5fc65d9cc4575b0b47981de8","64e77d7b61f440b60e28659d","64ecab5d51aee53c7378890f","null","null","<p style=""font-size: 60px; font-family: BACS"">PhktkKOYC</p>","","","","","","","","",""
"html-keyboard-response","372","553140","0.0-15.0-0.41","5fc65d9cc4575b0b47981de8","64e77d7b61f440b60e28659d","64ecab5d51aee53c7378890f","null","null","<p style=""font-size: 60px; font-family: BACS"">PhktkKOYC</p>","","","","","","","","",""
"html-keyboard-response","373","554154","0.0-15.0-0.42","5fc65d9cc4575b0b47981de8","64e77d7b61f440b60e28659d","64ecab5d51aee53c7378890f","null","null","<p style=""font-size: 60px; font-family: BACS"">PhktkKOYC</p>","","","","","","","","",""
"html-keyboard-response","374","555161","0.0-15.0-0.43","5fc65d9cc4575b0b47981de8","64e77d7b61f440b60e28659d","64ecab5d51aee53c7378890f","null","null","<p style=""font-size: 60px; font-family: BACS"">PhktkKOYC</p>","","","","","","","","",""
"html-keyboard-response","375","556172","0.0-15.0-0.44","5fc65d9cc4575b0b47981de8","64e77d7b61f440b60e28659d","64ecab5d51aee53c7378890f","null","null","<p style=""font-size: 60px; font-family: BACS"">PhktkKOYC</p>","","","","","","","","",""
"html-keyboard-response","376","557173","0.0-15.0-0.45","5fc65d9cc4575b0b47981de8","64e77d7b61f440b60e28659d","64ecab5d51aee53c7378890f","null","null","<p style=""font-size: 60px; font-family: BACS"">PhktkKOYC</p>","","","","","","","","",""
"html-keyboard-response","377","558186","0.0-15.0-0.46","5fc65d9cc4575b0b47981de8","64e77d7b61f440b60e28659d","64ecab5d51aee53c7378890f","null","null","<p style=""font-size: 60px; font-family: BACS"">PhktkKOYC</p>","","","","","","","","",""
"html-keyboard-response","378","559202","0.0-15.0-0.47","5fc65d9cc4575b0b47981de8","64e77d7b61f440b60e28659d","64ecab5d51aee53c7378890f","null","null","<p style=""font-size: 60px; font-family: BACS"">PhktkKOYC</p>","","","","","","","","",""
"html-keyboard-response","379","560216","0.0-15.0-0.48","5fc65d9cc4575b0b47981de8","64e77d7b61f440b60e28659d","64ecab5d51aee53c7378890f","null","null","<p style=""font-size: 60px; font-family: BACS"">PhktkKOYC</p>","","","","","","","","",""
"html-keyboard-response","380","561229","0.0-15.0-0.49","5fc65d9cc4575b0b47981de8","64e77d7b61f440b60e28659d","64ecab5d51aee53c7378890f","null","null","<p style=""font-size: 60px; font-family: BACS"">PhktkKOYC</p>","","","","","","","","",""
"html-keyboard-response","381","562231","0.0-15.0-0.50","5fc65d9cc4575b0b47981de8","64e77d7b61f440b60e28659d","64ecab5d51aee53c7378890f","null","null","<p style=""font-size: 60px; font-family: BACS"">PhktkKOYC</p>","","","","","","","","",""
"html-keyboard-response","382","563232","0.0-15.0-0.51","5fc65d9cc4575b0b47981de8","64e77d7b61f440b60e28659d","64ecab5d51aee53c7378890f","null","null","<p style=""font-size: 60px; font-family: BACS"">PhktkKOYC</p>","","","","","","","","",""
"html-keyboard-response","383","564234","0.0-15.0-0.52","5fc65d9cc4575b0b47981de8","64e77d7b61f440b60e28659d","64ecab5d51aee53c7378890f","null","null","<p style=""font-size: 60px; font-family: BACS"">PhktkKOYC</p>","","","","","","","","",""
"html-keyboard-response","384","565247","0.0-15.0-0.53","5fc65d9cc4575b0b47981de8","64e77d7b61f440b60e28659d","64ecab5d51aee53c7378890f","null","null","<p style=""font-size: 60px; font-family: BACS"">PhktkKOYC</p>","","","","","","","","",""
"html-keyboard-response","385","566260","0.0-15.0-0.54","5fc65d9cc4575b0b47981de8","64e77d7b61f440b60e28659d","64ecab5d51aee53c7378890f","null","null","<p style=""font-size: 60px; font-family: BACS"">PhktkKOYC</p>","","","","","","","","",""
"html-keyboard-response","386","567263","0.0-15.0-0.55","5fc65d9cc4575b0b47981de8","64e77d7b61f440b60e28659d","64ecab5d51aee53c7378890f","null","null","<p style=""font-size: 60px; font-family: BACS"">PhktkKOYC</p>","","","","","","","","",""
"html-keyboard-response","387","568276","0.0-15.0-0.56","5fc65d9cc4575b0b47981de8","64e77d7b61f440b60e28659d","64ecab5d51aee53c7378890f","null","null","<p style=""font-size: 60px; font-family: BACS"">PhktkKOYC</p>","","","","","","","","",""
"html-keyboard-response","388","569288","0.0-15.0-0.57","5fc65d9cc4575b0b47981de8","64e77d7b61f440b60e28659d","64ecab5d51aee53c7378890f","null","null","<p style=""font-size: 60px; font-family: BACS"">PhktkKOYC</p>","","","","","","","","",""
"html-keyboard-response","389","570292","0.0-15.0-0.58","5fc65d9cc4575b0b47981de8","64e77d7b61f440b60e28659d","64ecab5d51aee53c7378890f","null","null","<p style=""font-size: 60px; font-family: BACS"">PhktkKOYC</p>","","","","","","","","",""
"html-keyboard-response","390","571306","0.0-15.0-0.59","5fc65d9cc4575b0b47981de8","64e77d7b61f440b60e28659d","64ecab5d51aee53c7378890f","null","null","<p style=""font-size: 60px; font-family: BACS"">PhktkKOYC</p>","","","","","","","","",""
"html-keyboard-response","391","572315","0.0-15.0-0.60","5fc65d9cc4575b0b47981de8","64e77d7b61f440b60e28659d","64ecab5d51aee53c7378890f","null","null","<p style=""font-size: 60px; font-family: BACS"">PhktkKOYC</p>","","","","","","","","",""
"html-keyboard-response","392","573322","0.0-15.0-0.61","5fc65d9cc4575b0b47981de8","64e77d7b61f440b60e28659d","64ecab5d51aee53c7378890f","null","null","<p style=""font-size: 60px; font-family: BACS"">PhktkKOYC</p>","","","","","","","","",""
"html-keyboard-response","393","574334","0.0-15.0-0.62","5fc65d9cc4575b0b47981de8","64e77d7b61f440b60e28659d","64ecab5d51aee53c7378890f","null","null","<p style=""font-size: 60px; font-family: BACS"">PhktkKOYC</p>","","","","","","","","",""
"html-keyboard-response","394","575345","0.0-15.0-0.63","5fc65d9cc4575b0b47981de8","64e77d7b61f440b60e28659d","64ecab5d51aee53c7378890f","null","null","<p style=""font-size: 60px; font-family: BACS"">PhktkKOYC</p>","","","","","","","","",""
"html-keyboard-response","395","576352","0.0-15.0-0.64","5fc65d9cc4575b0b47981de8","64e77d7b61f440b60e28659d","64ecab5d51aee53c7378890f","null","null","<p style=""font-size: 60px; font-family: BACS"">PhktkKOYC</p>","","","","","","","","",""
"html-keyboard-response","396","577353","0.0-15.0-0.65","5fc65d9cc4575b0b47981de8","64e77d7b61f440b60e28659d","64ecab5d51aee53c7378890f","null","null","<p style=""font-size: 60px; font-family: BACS"">PhktkKOYC</p>","","","","","","","","",""
"html-keyboard-response","397","578368","0.0-15.0-0.66","5fc65d9cc4575b0b47981de8","64e77d7b61f440b60e28659d","64ecab5d51aee53c7378890f","null","null","<p style=""font-size: 60px; font-family: BACS"">PhktkKOYC</p>","","","","","","","","",""
"html-keyboard-response","398","579376","0.0-15.0-0.67","5fc65d9cc4575b0b47981de8","64e77d7b61f440b60e28659d","64ecab5d51aee53c7378890f","null","null","<p style=""font-size: 60px; font-family: BACS"">PhktkKOYC</p>","","","","","","","","",""
"html-keyboard-response","399","580387","0.0-15.0-0.68","5fc65d9cc4575b0b47981de8","64e77d7b61f440b60e28659d","64ecab5d51aee53c7378890f","null","null","<p style=""font-size: 60px; font-family: BACS"">PhktkKOYC</p>","","","","","","","","",""
