"trial_type","trial_index","time_elapsed","internal_node_id","subject_id","study_id","session_id","rt","response","stimulus","success","item","task","correct_response","testing_condition","correct","target","confound","name"
"pavlovia","0","2487","0.0-0.0","60f6b8f8e574e14634ead43e","650c16f0f2faf8d7a0d14c09","651c1bef5d3c65ff5e59bbca","","","","","","","","","","","",""
"survey-html-form","1","9360","0.0-1.0","60f6b8f8e574e14634ead43e","650c16f0f2faf8d7a0d14c09","651c1bef5d3c65ff5e59bbca","6870","{""ID"":""60f6b8f8e574e14634ead43e""}","","","","","","","","","",""
"html-keyboard-response","2","110371","0.0-2.0","60f6b8f8e574e14634ead43e","650c16f0f2faf8d7a0d14c09","651c1bef5d3c65ff5e59bbca","101008"," ","<p style=""font-size: 15px;"">Before beginning, we ask that you read the consent information and confirm your agreement to participate in the experiment.</p>
      <p style=""font-size: 15px;""> We ask that you remember that this is a research project and that your participation is entirely voluntary. You can stop your participation at any time, without needing to provide any explanation. The study we're asking you to participate in aims at examining how readers process written words. You will be engaged in a session of apprximately 20 minutes, followed by a brief questionnaire. You will have the opportunity to take a few breaks during the experiment. You will be paid £4 for your participation, corresponding to a rate of £8/hour. While this experiment looks at cognitive faculties, this experiment doesn't constitute clinical proof of eventual pathologies.</p>
      <p style=""font-size: 15px;"">All of the information collected thanks to yours and others' participation will be held in a secure password-protected server, and will not be shared with anyone not authorised to view it. Your personal information will be kept with an arbitrary participant ID. Thanks to this data anonymity process, any researcher analysing the data won't be able to track the information back to a specific participant. Therefore, this process will make identifying you impossibile, even when results from the study will be published in scientific reviews, presented at congresses, or at any other public forum. More generally, the collected data will be treated in accordance with the laws on privacy and conformity to the Legislative Degree n. 196 ""Code regarding the protection of personal data"" of the 30th of June 2003 and to the European Regulation 2016/670 (General Data Protection Regulation - GDPR). The Data Protection Officer is Avv. Valentina Carollo, who can be contacted at the following email addresses: <a href=""mailto:dpo@sissa.it"">dpo@sissa.it</a> or <a href=""mailto:rpd@sissa.it"">rpd@sissa.it</a> - PEC: <a href=""mailto:protocollo@pec.sissa.it"">protocollo@pec.sissa.it</a>.</p>
      <p style=""font-size: 15px;""> Before expressing your consent to participate, we would like to remind you again that in case you need explanations on any aspect of the experimental procedure, the researcher is at your disposition (<a href=""mailto:aliebelt@sissa.it"">aliebelt@sissa.it</a>, <a href=""mailto:davide.crepaldi@sissa.it"">davide.crepaldi@sissa.it</a>).</p>
      <p style=""font-size: 15px;"">If you would like to download the informed consent form, you can do so here: <a href=""BASL-Informed_Consent.pdf"" download>informed consent form</a>.</p>
      <p style=""font-size: 15px;"">We ask that you press the spacebar to proceed to the consent section.</p>","","","","","","","","",""
"survey-html-form","3","142194","0.0-3.0","60f6b8f8e574e14634ead43e","650c16f0f2faf8d7a0d14c09","651c1bef5d3c65ff5e59bbca","31819","{""consent1"":""YES"",""consent2"":""YES"",""consent3"":""YES"",""consent4"":""YES"",""consent5"":""YES"",""consent6"":""YES""}","","","","","","","","","",""
"fullscreen","4","153966","0.0-4.0","60f6b8f8e574e14634ead43e","650c16f0f2faf8d7a0d14c09","651c1bef5d3c65ff5e59bbca","","","","true","","","","","","","",""
"html-keyboard-response","5","185399","0.0-5.0","60f6b8f8e574e14634ead43e","650c16f0f2faf8d7a0d14c09","651c1bef5d3c65ff5e59bbca","31434"," ","<p>Welcome, and thank you very much for your time!</p>
      <p>In this experiment, you'll be a language expert who's been asked to take a look at words that Earth has received in its first communication with aliens. Your task, in this first part of the experiment, is to pay close attention to the words you'll be shown; later, world leaders will ask you questions on what you saw. The words will be shown to you quite quickly; it seems that the aliens were in a hurry :-)</p>
      <p>Press the spacebar to continue.<p>","","","","","","","","",""
"html-keyboard-response","6","185459","0.0-6.0","60f6b8f8e574e14634ead43e","650c16f0f2faf8d7a0d14c09","651c1bef5d3c65ff5e59bbca","null","null","<p style=""font-size: 120px; font-family: BACS""> </p>","","","","","","","","",""
"html-keyboard-response","7","201288","0.0-7.0","60f6b8f8e574e14634ead43e","650c16f0f2faf8d7a0d14c09","651c1bef5d3c65ff5e59bbca","15828"," ","<p>Here is an example of the words you'll see:</p>
      <img src='esempio.png' height='400px'>
      <p>When you're ready to begin, press the spacebar.</p></div>","","","","","","","","",""
"html-keyboard-response","8","202297","0.0-8.0-0.0","60f6b8f8e574e14634ead43e","650c16f0f2faf8d7a0d14c09","651c1bef5d3c65ff5e59bbca","null","null","<p style=""font-size: 60px; font-family: BACS"">GNAcaNmAG</p>","","","","","","","","",""
"html-keyboard-response","9","203301","0.0-8.0-0.1","60f6b8f8e574e14634ead43e","650c16f0f2faf8d7a0d14c09","651c1bef5d3c65ff5e59bbca","null","null","<p style=""font-size: 60px; font-family: BACS"">YOaAbQvlZ</p>","","","","","","","","",""
"html-keyboard-response","10","204309","0.0-8.0-0.2","60f6b8f8e574e14634ead43e","650c16f0f2faf8d7a0d14c09","651c1bef5d3c65ff5e59bbca","null","null","<p style=""font-size: 60px; font-family: BACS"">KRARmCMdP</p>","","","","","","","","",""
"html-keyboard-response","11","205320","0.0-8.0-0.3","60f6b8f8e574e14634ead43e","650c16f0f2faf8d7a0d14c09","651c1bef5d3c65ff5e59bbca","null","null","<p style=""font-size: 60px; font-family: BACS"">AbKDOtM</p>","","","","","","","","",""
"html-keyboard-response","12","206336","0.0-8.0-0.4","60f6b8f8e574e14634ead43e","650c16f0f2faf8d7a0d14c09","651c1bef5d3c65ff5e59bbca","null","null","<p style=""font-size: 60px; font-family: BACS"">CYPcCMdP</p>","","","","","","","","",""
"html-keyboard-response","13","207351","0.0-8.0-0.5","60f6b8f8e574e14634ead43e","650c16f0f2faf8d7a0d14c09","651c1bef5d3c65ff5e59bbca","null","null","<p style=""font-size: 60px; font-family: BACS"">TEBKYDE</p>","","","","","","","","",""
"html-keyboard-response","14","208361","0.0-8.0-0.6","60f6b8f8e574e14634ead43e","650c16f0f2faf8d7a0d14c09","651c1bef5d3c65ff5e59bbca","null","null","<p style=""font-size: 60px; font-family: BACS"">kabJbrULv</p>","","","","","","","","",""
"html-keyboard-response","15","209371","0.0-8.0-0.7","60f6b8f8e574e14634ead43e","650c16f0f2faf8d7a0d14c09","651c1bef5d3c65ff5e59bbca","null","null","<p style=""font-size: 60px; font-family: BACS"">OcYMlMck</p>","","","","","","","","",""
"html-keyboard-response","16","210389","0.0-8.0-0.8","60f6b8f8e574e14634ead43e","650c16f0f2faf8d7a0d14c09","651c1bef5d3c65ff5e59bbca","null","null","<p style=""font-size: 60px; font-family: BACS"">CYPcAlKD</p>","","","","","","","","",""
"html-keyboard-response","17","211403","0.0-8.0-0.9","60f6b8f8e574e14634ead43e","650c16f0f2faf8d7a0d14c09","651c1bef5d3c65ff5e59bbca","null","null","<p style=""font-size: 60px; font-family: BACS"">aOLZUQvlZ</p>","","","","","","","","",""
"html-keyboard-response","18","212409","0.0-8.0-0.10","60f6b8f8e574e14634ead43e","650c16f0f2faf8d7a0d14c09","651c1bef5d3c65ff5e59bbca","null","null","<p style=""font-size: 60px; font-family: BACS"">ubALmcrdY</p>","","","","","","","","",""
"html-keyboard-response","19","213417","0.0-8.0-0.11","60f6b8f8e574e14634ead43e","650c16f0f2faf8d7a0d14c09","651c1bef5d3c65ff5e59bbca","null","null","<p style=""font-size: 60px; font-family: BACS"">mhtcAlKD</p>","","","","","","","","",""
"html-keyboard-response","20","214433","0.0-8.0-0.12","60f6b8f8e574e14634ead43e","650c16f0f2faf8d7a0d14c09","651c1bef5d3c65ff5e59bbca","null","null","<p style=""font-size: 60px; font-family: BACS"">PcBTCMdP</p>","","","","","","","","",""
"html-keyboard-response","21","215450","0.0-8.0-0.13","60f6b8f8e574e14634ead43e","650c16f0f2faf8d7a0d14c09","651c1bef5d3c65ff5e59bbca","null","null","<p style=""font-size: 60px; font-family: BACS"">mhtcOtM</p>","","","","","","","","",""
"html-keyboard-response","22","216458","0.0-8.0-0.14","60f6b8f8e574e14634ead43e","650c16f0f2faf8d7a0d14c09","651c1bef5d3c65ff5e59bbca","null","null","<p style=""font-size: 60px; font-family: BACS"">tmYhCMdP</p>","","","","","","","","",""
"html-keyboard-response","23","217474","0.0-8.0-0.15","60f6b8f8e574e14634ead43e","650c16f0f2faf8d7a0d14c09","651c1bef5d3c65ff5e59bbca","null","null","<p style=""font-size: 60px; font-family: BACS"">aOLZUcrdY</p>","","","","","","","","",""
"html-keyboard-response","24","218481","0.0-8.0-0.16","60f6b8f8e574e14634ead43e","650c16f0f2faf8d7a0d14c09","651c1bef5d3c65ff5e59bbca","null","null","<p style=""font-size: 60px; font-family: BACS"">KRARmOtM</p>","","","","","","","","",""
"html-keyboard-response","25","219496","0.0-8.0-0.17","60f6b8f8e574e14634ead43e","650c16f0f2faf8d7a0d14c09","651c1bef5d3c65ff5e59bbca","null","null","<p style=""font-size: 60px; font-family: BACS"">lbBDEAlKD</p>","","","","","","","","",""
"html-keyboard-response","26","220502","0.0-8.0-0.18","60f6b8f8e574e14634ead43e","650c16f0f2faf8d7a0d14c09","651c1bef5d3c65ff5e59bbca","null","null","<p style=""font-size: 60px; font-family: BACS"">ubALmGUa</p>","","","","","","","","",""
"html-keyboard-response","27","221515","0.0-8.0-0.19","60f6b8f8e574e14634ead43e","650c16f0f2faf8d7a0d14c09","651c1bef5d3c65ff5e59bbca","null","null","<p style=""font-size: 60px; font-family: BACS"">AlNUrULv</p>","","","","","","","","",""
"html-keyboard-response","28","222531","0.0-8.0-0.20","60f6b8f8e574e14634ead43e","650c16f0f2faf8d7a0d14c09","651c1bef5d3c65ff5e59bbca","null","null","<p style=""font-size: 60px; font-family: BACS"">GNAcaQvlZ</p>","","","","","","","","",""
"html-keyboard-response","29","223545","0.0-8.0-0.21","60f6b8f8e574e14634ead43e","650c16f0f2faf8d7a0d14c09","651c1bef5d3c65ff5e59bbca","null","null","<p style=""font-size: 60px; font-family: BACS"">UdumdrULv</p>","","","","","","","","",""
"html-keyboard-response","30","224556","0.0-8.0-0.22","60f6b8f8e574e14634ead43e","650c16f0f2faf8d7a0d14c09","651c1bef5d3c65ff5e59bbca","null","null","<p style=""font-size: 60px; font-family: BACS"">JdOAYcrdY</p>","","","","","","","","",""
"html-keyboard-response","31","225573","0.0-8.0-0.23","60f6b8f8e574e14634ead43e","650c16f0f2faf8d7a0d14c09","651c1bef5d3c65ff5e59bbca","null","null","<p style=""font-size: 60px; font-family: BACS"">mhtcCMdP</p>","","","","","","","","",""
"html-keyboard-response","32","226593","0.0-8.0-0.24","60f6b8f8e574e14634ead43e","650c16f0f2faf8d7a0d14c09","651c1bef5d3c65ff5e59bbca","null","null","<p style=""font-size: 60px; font-family: BACS"">TPCbOtM</p>","","","","","","","","",""
"html-keyboard-response","33","227596","0.0-8.0-0.25","60f6b8f8e574e14634ead43e","650c16f0f2faf8d7a0d14c09","651c1bef5d3c65ff5e59bbca","null","null","<p style=""font-size: 60px; font-family: BACS"">AlNUcrdY</p>","","","","","","","","",""
"html-keyboard-response","34","228605","0.0-8.0-0.26","60f6b8f8e574e14634ead43e","650c16f0f2faf8d7a0d14c09","651c1bef5d3c65ff5e59bbca","null","null","<p style=""font-size: 60px; font-family: BACS"">tmYhOtM</p>","","","","","","","","",""
"html-keyboard-response","35","229621","0.0-8.0-0.27","60f6b8f8e574e14634ead43e","650c16f0f2faf8d7a0d14c09","651c1bef5d3c65ff5e59bbca","null","null","<p style=""font-size: 60px; font-family: BACS"">AbKDAlKD</p>","","","","","","","","",""
"html-keyboard-response","36","230637","0.0-8.0-0.28","60f6b8f8e574e14634ead43e","650c16f0f2faf8d7a0d14c09","651c1bef5d3c65ff5e59bbca","null","null","<p style=""font-size: 60px; font-family: BACS"">PcBTlMck</p>","","","","","","","","",""
"html-keyboard-response","37","231653","0.0-8.0-0.29","60f6b8f8e574e14634ead43e","650c16f0f2faf8d7a0d14c09","651c1bef5d3c65ff5e59bbca","null","null","<p style=""font-size: 60px; font-family: BACS"">UdumdGUa</p>","","","","","","","","",""
"html-keyboard-response","38","232667","0.0-8.0-0.30","60f6b8f8e574e14634ead43e","650c16f0f2faf8d7a0d14c09","651c1bef5d3c65ff5e59bbca","null","null","<p style=""font-size: 60px; font-family: BACS"">mhtclMck</p>","","","","","","","","",""
"html-keyboard-response","39","233684","0.0-8.0-0.31","60f6b8f8e574e14634ead43e","650c16f0f2faf8d7a0d14c09","651c1bef5d3c65ff5e59bbca","null","null","<p style=""font-size: 60px; font-family: BACS"">TEBKCMdP</p>","","","","","","","","",""
"html-keyboard-response","40","234695","0.0-8.0-0.32","60f6b8f8e574e14634ead43e","650c16f0f2faf8d7a0d14c09","651c1bef5d3c65ff5e59bbca","null","null","<p style=""font-size: 60px; font-family: BACS"">uQkrdcrdY</p>","","","","","","","","",""
"html-keyboard-response","41","235709","0.0-8.0-0.33","60f6b8f8e574e14634ead43e","650c16f0f2faf8d7a0d14c09","651c1bef5d3c65ff5e59bbca","null","null","<p style=""font-size: 60px; font-family: BACS"">JmNkNmAG</p>","","","","","","","","",""
"html-keyboard-response","42","236720","0.0-8.0-0.34","60f6b8f8e574e14634ead43e","650c16f0f2faf8d7a0d14c09","651c1bef5d3c65ff5e59bbca","null","null","<p style=""font-size: 60px; font-family: BACS"">TPCblMck</p>","","","","","","","","",""
"html-keyboard-response","43","237726","0.0-8.0-0.35","60f6b8f8e574e14634ead43e","650c16f0f2faf8d7a0d14c09","651c1bef5d3c65ff5e59bbca","null","null","<p style=""font-size: 60px; font-family: BACS"">ubALmrULv</p>","","","","","","","","",""
"html-keyboard-response","44","238742","0.0-8.0-0.36","60f6b8f8e574e14634ead43e","650c16f0f2faf8d7a0d14c09","651c1bef5d3c65ff5e59bbca","null","null","<p style=""font-size: 60px; font-family: BACS"">KRARmAlKD</p>","","","","","","","","",""
"html-keyboard-response","45","239761","0.0-8.0-0.37","60f6b8f8e574e14634ead43e","650c16f0f2faf8d7a0d14c09","651c1bef5d3c65ff5e59bbca","null","null","<p style=""font-size: 60px; font-family: BACS"">JdOAYQvlZ</p>","","","","","","","","",""
"html-keyboard-response","46","240776","0.0-8.0-0.38","60f6b8f8e574e14634ead43e","650c16f0f2faf8d7a0d14c09","651c1bef5d3c65ff5e59bbca","null","null","<p style=""font-size: 60px; font-family: BACS"">AlNUNmAG</p>","","","","","","","","",""
"html-keyboard-response","47","241784","0.0-8.0-0.39","60f6b8f8e574e14634ead43e","650c16f0f2faf8d7a0d14c09","651c1bef5d3c65ff5e59bbca","null","null","<p style=""font-size: 60px; font-family: BACS"">CYPcYDE</p>","","","","","","","","",""
"html-keyboard-response","48","242793","0.0-8.0-0.40","60f6b8f8e574e14634ead43e","650c16f0f2faf8d7a0d14c09","651c1bef5d3c65ff5e59bbca","null","null","<p style=""font-size: 60px; font-family: BACS"">GNAcacrdY</p>","","","","","","","","",""
"html-keyboard-response","49","243808","0.0-8.0-0.41","60f6b8f8e574e14634ead43e","650c16f0f2faf8d7a0d14c09","651c1bef5d3c65ff5e59bbca","null","null","<p style=""font-size: 60px; font-family: BACS"">TEBKlMck</p>","","","","","","","","",""
"html-keyboard-response","50","244825","0.0-8.0-0.42","60f6b8f8e574e14634ead43e","650c16f0f2faf8d7a0d14c09","651c1bef5d3c65ff5e59bbca","null","null","<p style=""font-size: 60px; font-family: BACS"">lbBDEOtM</p>","","","","","","","","",""
"html-keyboard-response","51","245840","0.0-8.0-0.43","60f6b8f8e574e14634ead43e","650c16f0f2faf8d7a0d14c09","651c1bef5d3c65ff5e59bbca","null","null","<p style=""font-size: 60px; font-family: BACS"">kabJbQvlZ</p>","","","","","","","","",""
"html-keyboard-response","52","246856","0.0-8.0-0.44","60f6b8f8e574e14634ead43e","650c16f0f2faf8d7a0d14c09","651c1bef5d3c65ff5e59bbca","null","null","<p style=""font-size: 60px; font-family: BACS"">UdumdcrdY</p>","","","","","","","","",""
"html-keyboard-response","53","247862","0.0-8.0-0.45","60f6b8f8e574e14634ead43e","650c16f0f2faf8d7a0d14c09","651c1bef5d3c65ff5e59bbca","null","null","<p style=""font-size: 60px; font-family: BACS"">KRARmlMck</p>","","","","","","","","",""
"html-keyboard-response","54","248872","0.0-8.0-0.46","60f6b8f8e574e14634ead43e","650c16f0f2faf8d7a0d14c09","651c1bef5d3c65ff5e59bbca","null","null","<p style=""font-size: 60px; font-family: BACS"">PcBTYDE</p>","","","","","","","","",""
"html-keyboard-response","55","249880","0.0-8.0-0.47","60f6b8f8e574e14634ead43e","650c16f0f2faf8d7a0d14c09","651c1bef5d3c65ff5e59bbca","null","null","<p style=""font-size: 60px; font-family: BACS"">UdumdQvlZ</p>","","","","","","","","",""
"html-keyboard-response","56","250889","0.0-8.0-0.48","60f6b8f8e574e14634ead43e","650c16f0f2faf8d7a0d14c09","651c1bef5d3c65ff5e59bbca","null","null","<p style=""font-size: 60px; font-family: BACS"">GNAcarULv</p>","","","","","","","","",""
"html-keyboard-response","57","251905","0.0-8.0-0.49","60f6b8f8e574e14634ead43e","650c16f0f2faf8d7a0d14c09","651c1bef5d3c65ff5e59bbca","null","null","<p style=""font-size: 60px; font-family: BACS"">OcYMAlKD</p>","","","","","","","","",""
"html-keyboard-response","58","252909","0.0-8.0-0.50","60f6b8f8e574e14634ead43e","650c16f0f2faf8d7a0d14c09","651c1bef5d3c65ff5e59bbca","null","null","<p style=""font-size: 60px; font-family: BACS"">AbKDlMck</p>","","","","","","","","",""
"html-keyboard-response","59","253913","0.0-8.0-0.51","60f6b8f8e574e14634ead43e","650c16f0f2faf8d7a0d14c09","651c1bef5d3c65ff5e59bbca","null","null","<p style=""font-size: 60px; font-family: BACS"">ubALmNmAG</p>","","","","","","","","",""
"html-keyboard-response","60","254920","0.0-8.0-0.52","60f6b8f8e574e14634ead43e","650c16f0f2faf8d7a0d14c09","651c1bef5d3c65ff5e59bbca","null","null","<p style=""font-size: 60px; font-family: BACS"">OcYMYDE</p>","","","","","","","","",""
"html-keyboard-response","61","255929","0.0-8.0-0.53","60f6b8f8e574e14634ead43e","650c16f0f2faf8d7a0d14c09","651c1bef5d3c65ff5e59bbca","null","null","<p style=""font-size: 60px; font-family: BACS"">aOLZUNmAG</p>","","","","","","","","",""
"html-keyboard-response","62","256933","0.0-8.0-0.54","60f6b8f8e574e14634ead43e","650c16f0f2faf8d7a0d14c09","651c1bef5d3c65ff5e59bbca","null","null","<p style=""font-size: 60px; font-family: BACS"">PcBTOtM</p>","","","","","","","","",""
"html-keyboard-response","63","257946","0.0-8.0-0.55","60f6b8f8e574e14634ead43e","650c16f0f2faf8d7a0d14c09","651c1bef5d3c65ff5e59bbca","null","null","<p style=""font-size: 60px; font-family: BACS"">TEBKAlKD</p>","","","","","","","","",""
"html-keyboard-response","64","258961","0.0-8.0-0.56","60f6b8f8e574e14634ead43e","650c16f0f2faf8d7a0d14c09","651c1bef5d3c65ff5e59bbca","null","null","<p style=""font-size: 60px; font-family: BACS"">JdOAYNmAG</p>","","","","","","","","",""
"html-keyboard-response","65","259970","0.0-8.0-0.57","60f6b8f8e574e14634ead43e","650c16f0f2faf8d7a0d14c09","651c1bef5d3c65ff5e59bbca","null","null","<p style=""font-size: 60px; font-family: BACS"">YOaAbcrdY</p>","","","","","","","","",""
"html-keyboard-response","66","260976","0.0-8.0-0.58","60f6b8f8e574e14634ead43e","650c16f0f2faf8d7a0d14c09","651c1bef5d3c65ff5e59bbca","null","null","<p style=""font-size: 60px; font-family: BACS"">uQkrdNmAG</p>","","","","","","","","",""
"html-keyboard-response","67","261986","0.0-8.0-0.59","60f6b8f8e574e14634ead43e","650c16f0f2faf8d7a0d14c09","651c1bef5d3c65ff5e59bbca","null","null","<p style=""font-size: 60px; font-family: BACS"">TPCbCMdP</p>","","","","","","","","",""
"html-keyboard-response","68","262993","0.0-8.0-0.60","60f6b8f8e574e14634ead43e","650c16f0f2faf8d7a0d14c09","651c1bef5d3c65ff5e59bbca","null","null","<p style=""font-size: 60px; font-family: BACS"">YOaAbrULv</p>","","","","","","","","",""
"html-keyboard-response","69","264002","0.0-8.0-0.61","60f6b8f8e574e14634ead43e","650c16f0f2faf8d7a0d14c09","651c1bef5d3c65ff5e59bbca","null","null","<p style=""font-size: 60px; font-family: BACS"">lbBDEYDE</p>","","","","","","","","",""
"html-keyboard-response","70","265020","0.0-8.0-0.62","60f6b8f8e574e14634ead43e","650c16f0f2faf8d7a0d14c09","651c1bef5d3c65ff5e59bbca","null","null","<p style=""font-size: 60px; font-family: BACS"">kabJbGUa</p>","","","","","","","","",""
"html-keyboard-response","71","266025","0.0-8.0-0.63","60f6b8f8e574e14634ead43e","650c16f0f2faf8d7a0d14c09","651c1bef5d3c65ff5e59bbca","null","null","<p style=""font-size: 60px; font-family: BACS"">AbKDYDE</p>","","","","","","","","",""
"html-keyboard-response","72","267042","0.0-8.0-0.64","60f6b8f8e574e14634ead43e","650c16f0f2faf8d7a0d14c09","651c1bef5d3c65ff5e59bbca","null","null","<p style=""font-size: 60px; font-family: BACS"">JdOAYrULv</p>","","","","","","","","",""
"html-keyboard-response","73","268051","0.0-8.0-0.65","60f6b8f8e574e14634ead43e","650c16f0f2faf8d7a0d14c09","651c1bef5d3c65ff5e59bbca","null","null","<p style=""font-size: 60px; font-family: BACS"">CYPcOtM</p>","","","","","","","","",""
"html-keyboard-response","74","269067","0.0-8.0-0.66","60f6b8f8e574e14634ead43e","650c16f0f2faf8d7a0d14c09","651c1bef5d3c65ff5e59bbca","null","null","<p style=""font-size: 60px; font-family: BACS"">JmNkGUa</p>","","","","","","","","",""
"html-keyboard-response","75","270080","0.0-8.0-0.67","60f6b8f8e574e14634ead43e","650c16f0f2faf8d7a0d14c09","651c1bef5d3c65ff5e59bbca","null","null","<p style=""font-size: 60px; font-family: BACS"">tmYhAlKD</p>","","","","","","","","",""
"html-keyboard-response","76","271100","0.0-8.0-0.68","60f6b8f8e574e14634ead43e","650c16f0f2faf8d7a0d14c09","651c1bef5d3c65ff5e59bbca","null","null","<p style=""font-size: 60px; font-family: BACS"">uQkrdQvlZ</p>","","","","","","","","",""
"html-keyboard-response","77","272110","0.0-8.0-0.69","60f6b8f8e574e14634ead43e","650c16f0f2faf8d7a0d14c09","651c1bef5d3c65ff5e59bbca","null","null","<p style=""font-size: 60px; font-family: BACS"">AlNUGUa</p>","","","","","","","","",""
"html-keyboard-response","78","273124","0.0-8.0-0.70","60f6b8f8e574e14634ead43e","650c16f0f2faf8d7a0d14c09","651c1bef5d3c65ff5e59bbca","null","null","<p style=""font-size: 60px; font-family: BACS"">kabJbNmAG</p>","","","","","","","","",""
"html-keyboard-response","79","274140","0.0-8.0-0.71","60f6b8f8e574e14634ead43e","650c16f0f2faf8d7a0d14c09","651c1bef5d3c65ff5e59bbca","null","null","<p style=""font-size: 60px; font-family: BACS"">TPCbYDE</p>","","","","","","","","",""
"html-keyboard-response","80","275143","0.0-8.0-0.72","60f6b8f8e574e14634ead43e","650c16f0f2faf8d7a0d14c09","651c1bef5d3c65ff5e59bbca","null","null","<p style=""font-size: 60px; font-family: BACS"">lbBDElMck</p>","","","","","","","","",""
"html-keyboard-response","81","276150","0.0-8.0-0.73","60f6b8f8e574e14634ead43e","650c16f0f2faf8d7a0d14c09","651c1bef5d3c65ff5e59bbca","null","null","<p style=""font-size: 60px; font-family: BACS"">uQkrdGUa</p>","","","","","","","","",""
"html-keyboard-response","82","277163","0.0-8.0-0.74","60f6b8f8e574e14634ead43e","650c16f0f2faf8d7a0d14c09","651c1bef5d3c65ff5e59bbca","null","null","<p style=""font-size: 60px; font-family: BACS"">JmNkrULv</p>","","","","","","","","",""
"html-keyboard-response","83","278174","0.0-8.0-0.75","60f6b8f8e574e14634ead43e","650c16f0f2faf8d7a0d14c09","651c1bef5d3c65ff5e59bbca","null","null","<p style=""font-size: 60px; font-family: BACS"">aOLZUGUa</p>","","","","","","","","",""
"html-keyboard-response","84","279183","0.0-8.0-0.76","60f6b8f8e574e14634ead43e","650c16f0f2faf8d7a0d14c09","651c1bef5d3c65ff5e59bbca","null","null","<p style=""font-size: 60px; font-family: BACS"">JmNkQvlZ</p>","","","","","","","","",""
"html-keyboard-response","85","280199","0.0-8.0-0.77","60f6b8f8e574e14634ead43e","650c16f0f2faf8d7a0d14c09","651c1bef5d3c65ff5e59bbca","null","null","<p style=""font-size: 60px; font-family: BACS"">YOaAbGUa</p>","","","","","","","","",""
"html-keyboard-response","86","281206","0.0-8.0-0.78","60f6b8f8e574e14634ead43e","650c16f0f2faf8d7a0d14c09","651c1bef5d3c65ff5e59bbca","null","null","<p style=""font-size: 60px; font-family: BACS"">OcYMCMdP</p>","","","","","","","","",""
"html-keyboard-response","87","282215","0.0-8.0-0.79","60f6b8f8e574e14634ead43e","650c16f0f2faf8d7a0d14c09","651c1bef5d3c65ff5e59bbca","null","null","<p style=""font-size: 60px; font-family: BACS"">tmYhYDE</p>","","","","","","","","",""
"html-keyboard-response","88","307534","0.0-9.0","60f6b8f8e574e14634ead43e","650c16f0f2faf8d7a0d14c09","651c1bef5d3c65ff5e59bbca","25319"," ","<p>Great, you've seen the first block of words. You may now take a short break.</p>
      <p>Press the spacebar when you're ready to continue.</p>","","","","","","","","",""
"html-keyboard-response","89","308547","0.0-10.0-0.0","60f6b8f8e574e14634ead43e","650c16f0f2faf8d7a0d14c09","651c1bef5d3c65ff5e59bbca","null","null","<p style=""font-size: 60px; font-family: BACS"">JmNkrULv</p>","","","","","","","","",""
"html-keyboard-response","90","309564","0.0-10.0-0.1","60f6b8f8e574e14634ead43e","650c16f0f2faf8d7a0d14c09","651c1bef5d3c65ff5e59bbca","null","null","<p style=""font-size: 60px; font-family: BACS"">tmYhAlKD</p>","","","","","","","","",""
"html-keyboard-response","91","310582","0.0-10.0-0.2","60f6b8f8e574e14634ead43e","650c16f0f2faf8d7a0d14c09","651c1bef5d3c65ff5e59bbca","null","null","<p style=""font-size: 60px; font-family: BACS"">OcYMlMck</p>","","","","","","","","",""
"html-keyboard-response","92","311595","0.0-10.0-0.3","60f6b8f8e574e14634ead43e","650c16f0f2faf8d7a0d14c09","651c1bef5d3c65ff5e59bbca","null","null","<p style=""font-size: 60px; font-family: BACS"">AbKDAlKD</p>","","","","","","","","",""
"html-keyboard-response","93","312606","0.0-10.0-0.4","60f6b8f8e574e14634ead43e","650c16f0f2faf8d7a0d14c09","651c1bef5d3c65ff5e59bbca","null","null","<p style=""font-size: 60px; font-family: BACS"">kabJbGUa</p>","","","","","","","","",""
"html-keyboard-response","94","313622","0.0-10.0-0.5","60f6b8f8e574e14634ead43e","650c16f0f2faf8d7a0d14c09","651c1bef5d3c65ff5e59bbca","null","null","<p style=""font-size: 60px; font-family: BACS"">AlNUNmAG</p>","","","","","","","","",""
"html-keyboard-response","95","314639","0.0-10.0-0.6","60f6b8f8e574e14634ead43e","650c16f0f2faf8d7a0d14c09","651c1bef5d3c65ff5e59bbca","null","null","<p style=""font-size: 60px; font-family: BACS"">ubALmGUa</p>","","","","","","","","",""
"html-keyboard-response","96","315654","0.0-10.0-0.7","60f6b8f8e574e14634ead43e","650c16f0f2faf8d7a0d14c09","651c1bef5d3c65ff5e59bbca","null","null","<p style=""font-size: 60px; font-family: BACS"">JmNkNmAG</p>","","","","","","","","",""
"html-keyboard-response","97","316666","0.0-10.0-0.8","60f6b8f8e574e14634ead43e","650c16f0f2faf8d7a0d14c09","651c1bef5d3c65ff5e59bbca","null","null","<p style=""font-size: 60px; font-family: BACS"">KRARmCMdP</p>","","","","","","","","",""
"html-keyboard-response","98","317679","0.0-10.0-0.9","60f6b8f8e574e14634ead43e","650c16f0f2faf8d7a0d14c09","651c1bef5d3c65ff5e59bbca","null","null","<p style=""font-size: 60px; font-family: BACS"">kabJbrULv</p>","","","","","","","","",""
"html-keyboard-response","99","318688","0.0-10.0-0.10","60f6b8f8e574e14634ead43e","650c16f0f2faf8d7a0d14c09","651c1bef5d3c65ff5e59bbca","null","null","<p style=""font-size: 60px; font-family: BACS"">PcBTOtM</p>","","","","","","","","",""
"html-keyboard-response","100","319696","0.0-10.0-0.11","60f6b8f8e574e14634ead43e","650c16f0f2faf8d7a0d14c09","651c1bef5d3c65ff5e59bbca","null","null","<p style=""font-size: 60px; font-family: BACS"">UdumdQvlZ</p>","","","","","","","","",""
"html-keyboard-response","101","320711","0.0-10.0-0.12","60f6b8f8e574e14634ead43e","650c16f0f2faf8d7a0d14c09","651c1bef5d3c65ff5e59bbca","null","null","<p style=""font-size: 60px; font-family: BACS"">tmYhOtM</p>","","","","","","","","",""
"html-keyboard-response","102","321721","0.0-10.0-0.13","60f6b8f8e574e14634ead43e","650c16f0f2faf8d7a0d14c09","651c1bef5d3c65ff5e59bbca","null","null","<p style=""font-size: 60px; font-family: BACS"">JdOAYrULv</p>","","","","","","","","",""
"html-keyboard-response","103","322727","0.0-10.0-0.14","60f6b8f8e574e14634ead43e","650c16f0f2faf8d7a0d14c09","651c1bef5d3c65ff5e59bbca","null","null","<p style=""font-size: 60px; font-family: BACS"">uQkrdGUa</p>","","","","","","","","",""
"html-keyboard-response","104","323737","0.0-10.0-0.15","60f6b8f8e574e14634ead43e","650c16f0f2faf8d7a0d14c09","651c1bef5d3c65ff5e59bbca","null","null","<p style=""font-size: 60px; font-family: BACS"">YOaAbQvlZ</p>","","","","","","","","",""
"html-keyboard-response","105","324753","0.0-10.0-0.16","60f6b8f8e574e14634ead43e","650c16f0f2faf8d7a0d14c09","651c1bef5d3c65ff5e59bbca","null","null","<p style=""font-size: 60px; font-family: BACS"">JmNkGUa</p>","","","","","","","","",""
"html-keyboard-response","106","325757","0.0-10.0-0.17","60f6b8f8e574e14634ead43e","650c16f0f2faf8d7a0d14c09","651c1bef5d3c65ff5e59bbca","null","null","<p style=""font-size: 60px; font-family: BACS"">TEBKlMck</p>","","","","","","","","",""
"html-keyboard-response","107","326761","0.0-10.0-0.18","60f6b8f8e574e14634ead43e","650c16f0f2faf8d7a0d14c09","651c1bef5d3c65ff5e59bbca","null","null","<p style=""font-size: 60px; font-family: BACS"">aOLZUcrdY</p>","","","","","","","","",""
"html-keyboard-response","108","327775","0.0-10.0-0.19","60f6b8f8e574e14634ead43e","650c16f0f2faf8d7a0d14c09","651c1bef5d3c65ff5e59bbca","null","null","<p style=""font-size: 60px; font-family: BACS"">AbKDOtM</p>","","","","","","","","",""
"html-keyboard-response","109","328785","0.0-10.0-0.20","60f6b8f8e574e14634ead43e","650c16f0f2faf8d7a0d14c09","651c1bef5d3c65ff5e59bbca","null","null","<p style=""font-size: 60px; font-family: BACS"">AlNUcrdY</p>","","","","","","","","",""
"html-keyboard-response","110","329799","0.0-10.0-0.21","60f6b8f8e574e14634ead43e","650c16f0f2faf8d7a0d14c09","651c1bef5d3c65ff5e59bbca","null","null","<p style=""font-size: 60px; font-family: BACS"">TPCbYDE</p>","","","","","","","","",""
"html-keyboard-response","111","330817","0.0-10.0-0.22","60f6b8f8e574e14634ead43e","650c16f0f2faf8d7a0d14c09","651c1bef5d3c65ff5e59bbca","null","null","<p style=""font-size: 60px; font-family: BACS"">CYPcCMdP</p>","","","","","","","","",""
"html-keyboard-response","112","331826","0.0-10.0-0.23","60f6b8f8e574e14634ead43e","650c16f0f2faf8d7a0d14c09","651c1bef5d3c65ff5e59bbca","null","null","<p style=""font-size: 60px; font-family: BACS"">tmYhYDE</p>","","","","","","","","",""
"html-keyboard-response","113","332843","0.0-10.0-0.24","60f6b8f8e574e14634ead43e","650c16f0f2faf8d7a0d14c09","651c1bef5d3c65ff5e59bbca","null","null","<p style=""font-size: 60px; font-family: BACS"">mhtcCMdP</p>","","","","","","","","",""
"html-keyboard-response","114","333853","0.0-10.0-0.25","60f6b8f8e574e14634ead43e","650c16f0f2faf8d7a0d14c09","651c1bef5d3c65ff5e59bbca","null","null","<p style=""font-size: 60px; font-family: BACS"">uQkrdNmAG</p>","","","","","","","","",""
"html-keyboard-response","115","334869","0.0-10.0-0.26","60f6b8f8e574e14634ead43e","650c16f0f2faf8d7a0d14c09","651c1bef5d3c65ff5e59bbca","null","null","<p style=""font-size: 60px; font-family: BACS"">UdumdcrdY</p>","","","","","","","","",""
"html-keyboard-response","116","335876","0.0-10.0-0.27","60f6b8f8e574e14634ead43e","650c16f0f2faf8d7a0d14c09","651c1bef5d3c65ff5e59bbca","null","null","<p style=""font-size: 60px; font-family: BACS"">AlNUrULv</p>","","","","","","","","",""
"html-keyboard-response","117","336892","0.0-10.0-0.28","60f6b8f8e574e14634ead43e","650c16f0f2faf8d7a0d14c09","651c1bef5d3c65ff5e59bbca","null","null","<p style=""font-size: 60px; font-family: BACS"">AbKDYDE</p>","","","","","","","","",""
"html-keyboard-response","118","337908","0.0-10.0-0.29","60f6b8f8e574e14634ead43e","650c16f0f2faf8d7a0d14c09","651c1bef5d3c65ff5e59bbca","null","null","<p style=""font-size: 60px; font-family: BACS"">CYPcAlKD</p>","","","","","","","","",""
"html-keyboard-response","119","338913","0.0-10.0-0.30","60f6b8f8e574e14634ead43e","650c16f0f2faf8d7a0d14c09","651c1bef5d3c65ff5e59bbca","null","null","<p style=""font-size: 60px; font-family: BACS"">mhtclMck</p>","","","","","","","","",""
"html-keyboard-response","120","339922","0.0-10.0-0.31","60f6b8f8e574e14634ead43e","650c16f0f2faf8d7a0d14c09","651c1bef5d3c65ff5e59bbca","null","null","<p style=""font-size: 60px; font-family: BACS"">CYPcOtM</p>","","","","","","","","",""
"html-keyboard-response","121","340925","0.0-10.0-0.32","60f6b8f8e574e14634ead43e","650c16f0f2faf8d7a0d14c09","651c1bef5d3c65ff5e59bbca","null","null","<p style=""font-size: 60px; font-family: BACS"">PcBTlMck</p>","","","","","","","","",""
"html-keyboard-response","122","341940","0.0-10.0-0.33","60f6b8f8e574e14634ead43e","650c16f0f2faf8d7a0d14c09","651c1bef5d3c65ff5e59bbca","null","null","<p style=""font-size: 60px; font-family: BACS"">KRARmOtM</p>","","","","","","","","",""
"html-keyboard-response","123","342957","0.0-10.0-0.34","60f6b8f8e574e14634ead43e","650c16f0f2faf8d7a0d14c09","651c1bef5d3c65ff5e59bbca","null","null","<p style=""font-size: 60px; font-family: BACS"">GNAcaNmAG</p>","","","","","","","","",""
"html-keyboard-response","124","343966","0.0-10.0-0.35","60f6b8f8e574e14634ead43e","650c16f0f2faf8d7a0d14c09","651c1bef5d3c65ff5e59bbca","null","null","<p style=""font-size: 60px; font-family: BACS"">ubALmcrdY</p>","","","","","","","","",""
"html-keyboard-response","125","344981","0.0-10.0-0.36","60f6b8f8e574e14634ead43e","650c16f0f2faf8d7a0d14c09","651c1bef5d3c65ff5e59bbca","null","null","<p style=""font-size: 60px; font-family: BACS"">kabJbQvlZ</p>","","","","","","","","",""
"html-keyboard-response","126","345989","0.0-10.0-0.37","60f6b8f8e574e14634ead43e","650c16f0f2faf8d7a0d14c09","651c1bef5d3c65ff5e59bbca","null","null","<p style=""font-size: 60px; font-family: BACS"">KRARmAlKD</p>","","","","","","","","",""
"html-keyboard-response","127","346999","0.0-10.0-0.38","60f6b8f8e574e14634ead43e","650c16f0f2faf8d7a0d14c09","651c1bef5d3c65ff5e59bbca","null","null","<p style=""font-size: 60px; font-family: BACS"">UdumdGUa</p>","","","","","","","","",""
"html-keyboard-response","128","348014","0.0-10.0-0.39","60f6b8f8e574e14634ead43e","650c16f0f2faf8d7a0d14c09","651c1bef5d3c65ff5e59bbca","null","null","<p style=""font-size: 60px; font-family: BACS"">mhtcOtM</p>","","","","","","","","",""
"html-keyboard-response","129","349022","0.0-10.0-0.40","60f6b8f8e574e14634ead43e","650c16f0f2faf8d7a0d14c09","651c1bef5d3c65ff5e59bbca","null","null","<p style=""font-size: 60px; font-family: BACS"">YOaAbGUa</p>","","","","","","","","",""
"html-keyboard-response","130","350039","0.0-10.0-0.41","60f6b8f8e574e14634ead43e","650c16f0f2faf8d7a0d14c09","651c1bef5d3c65ff5e59bbca","null","null","<p style=""font-size: 60px; font-family: BACS"">uQkrdcrdY</p>","","","","","","","","",""
"html-keyboard-response","131","351055","0.0-10.0-0.42","60f6b8f8e574e14634ead43e","650c16f0f2faf8d7a0d14c09","651c1bef5d3c65ff5e59bbca","null","null","<p style=""font-size: 60px; font-family: BACS"">JdOAYNmAG</p>","","","","","","","","",""
"html-keyboard-response","132","352063","0.0-10.0-0.43","60f6b8f8e574e14634ead43e","650c16f0f2faf8d7a0d14c09","651c1bef5d3c65ff5e59bbca","null","null","<p style=""font-size: 60px; font-family: BACS"">lbBDEOtM</p>","","","","","","","","",""
"html-keyboard-response","133","353069","0.0-10.0-0.44","60f6b8f8e574e14634ead43e","650c16f0f2faf8d7a0d14c09","651c1bef5d3c65ff5e59bbca","null","null","<p style=""font-size: 60px; font-family: BACS"">tmYhCMdP</p>","","","","","","","","",""
"html-keyboard-response","134","354079","0.0-10.0-0.45","60f6b8f8e574e14634ead43e","650c16f0f2faf8d7a0d14c09","651c1bef5d3c65ff5e59bbca","null","null","<p style=""font-size: 60px; font-family: BACS"">UdumdrULv</p>","","","","","","","","",""
"html-keyboard-response","135","355087","0.0-10.0-0.46","60f6b8f8e574e14634ead43e","650c16f0f2faf8d7a0d14c09","651c1bef5d3c65ff5e59bbca","null","null","<p style=""font-size: 60px; font-family: BACS"">aOLZUQvlZ</p>","","","","","","","","",""
"html-keyboard-response","136","356096","0.0-10.0-0.47","60f6b8f8e574e14634ead43e","650c16f0f2faf8d7a0d14c09","651c1bef5d3c65ff5e59bbca","null","null","<p style=""font-size: 60px; font-family: BACS"">TEBKYDE</p>","","","","","","","","",""
"html-keyboard-response","137","357102","0.0-10.0-0.48","60f6b8f8e574e14634ead43e","650c16f0f2faf8d7a0d14c09","651c1bef5d3c65ff5e59bbca","null","null","<p style=""font-size: 60px; font-family: BACS"">uQkrdQvlZ</p>","","","","","","","","",""
"html-keyboard-response","138","358118","0.0-10.0-0.49","60f6b8f8e574e14634ead43e","650c16f0f2faf8d7a0d14c09","651c1bef5d3c65ff5e59bbca","null","null","<p style=""font-size: 60px; font-family: BACS"">KRARmlMck</p>","","","","","","","","",""
"html-keyboard-response","139","359125","0.0-10.0-0.50","60f6b8f8e574e14634ead43e","650c16f0f2faf8d7a0d14c09","651c1bef5d3c65ff5e59bbca","null","null","<p style=""font-size: 60px; font-family: BACS"">OcYMCMdP</p>","","","","","","","","",""
"html-keyboard-response","140","360137","0.0-10.0-0.51","60f6b8f8e574e14634ead43e","650c16f0f2faf8d7a0d14c09","651c1bef5d3c65ff5e59bbca","null","null","<p style=""font-size: 60px; font-family: BACS"">GNAcacrdY</p>","","","","","","","","",""
"html-keyboard-response","141","361153","0.0-10.0-0.52","60f6b8f8e574e14634ead43e","650c16f0f2faf8d7a0d14c09","651c1bef5d3c65ff5e59bbca","null","null","<p style=""font-size: 60px; font-family: BACS"">YOaAbrULv</p>","","","","","","","","",""
"html-keyboard-response","142","362170","0.0-10.0-0.53","60f6b8f8e574e14634ead43e","650c16f0f2faf8d7a0d14c09","651c1bef5d3c65ff5e59bbca","null","null","<p style=""font-size: 60px; font-family: BACS"">PcBTCMdP</p>","","","","","","","","",""
"html-keyboard-response","143","363178","0.0-10.0-0.54","60f6b8f8e574e14634ead43e","650c16f0f2faf8d7a0d14c09","651c1bef5d3c65ff5e59bbca","null","null","<p style=""font-size: 60px; font-family: BACS"">YOaAbcrdY</p>","","","","","","","","",""
"html-keyboard-response","144","364193","0.0-10.0-0.55","60f6b8f8e574e14634ead43e","650c16f0f2faf8d7a0d14c09","651c1bef5d3c65ff5e59bbca","null","null","<p style=""font-size: 60px; font-family: BACS"">lbBDEYDE</p>","","","","","","","","",""
"html-keyboard-response","145","365201","0.0-10.0-0.56","60f6b8f8e574e14634ead43e","650c16f0f2faf8d7a0d14c09","651c1bef5d3c65ff5e59bbca","null","null","<p style=""font-size: 60px; font-family: BACS"">aOLZUGUa</p>","","","","","","","","",""
"html-keyboard-response","146","366210","0.0-10.0-0.57","60f6b8f8e574e14634ead43e","650c16f0f2faf8d7a0d14c09","651c1bef5d3c65ff5e59bbca","null","null","<p style=""font-size: 60px; font-family: BACS"">JdOAYQvlZ</p>","","","","","","","","",""
"html-keyboard-response","147","367223","0.0-10.0-0.58","60f6b8f8e574e14634ead43e","650c16f0f2faf8d7a0d14c09","651c1bef5d3c65ff5e59bbca","null","null","<p style=""font-size: 60px; font-family: BACS"">lbBDElMck</p>","","","","","","","","",""
"html-keyboard-response","148","368236","0.0-10.0-0.59","60f6b8f8e574e14634ead43e","650c16f0f2faf8d7a0d14c09","651c1bef5d3c65ff5e59bbca","null","null","<p style=""font-size: 60px; font-family: BACS"">TEBKAlKD</p>","","","","","","","","",""
"html-keyboard-response","149","369245","0.0-10.0-0.60","60f6b8f8e574e14634ead43e","650c16f0f2faf8d7a0d14c09","651c1bef5d3c65ff5e59bbca","null","null","<p style=""font-size: 60px; font-family: BACS"">CYPcYDE</p>","","","","","","","","",""
"html-keyboard-response","150","370252","0.0-10.0-0.61","60f6b8f8e574e14634ead43e","650c16f0f2faf8d7a0d14c09","651c1bef5d3c65ff5e59bbca","null","null","<p style=""font-size: 60px; font-family: BACS"">TPCbCMdP</p>","","","","","","","","",""
"html-keyboard-response","151","371258","0.0-10.0-0.62","60f6b8f8e574e14634ead43e","650c16f0f2faf8d7a0d14c09","651c1bef5d3c65ff5e59bbca","null","null","<p style=""font-size: 60px; font-family: BACS"">aOLZUNmAG</p>","","","","","","","","",""
"html-keyboard-response","152","372269","0.0-10.0-0.63","60f6b8f8e574e14634ead43e","650c16f0f2faf8d7a0d14c09","651c1bef5d3c65ff5e59bbca","null","null","<p style=""font-size: 60px; font-family: BACS"">mhtcAlKD</p>","","","","","","","","",""
"html-keyboard-response","153","373278","0.0-10.0-0.64","60f6b8f8e574e14634ead43e","650c16f0f2faf8d7a0d14c09","651c1bef5d3c65ff5e59bbca","null","null","<p style=""font-size: 60px; font-family: BACS"">kabJbNmAG</p>","","","","","","","","",""
"html-keyboard-response","154","374285","0.0-10.0-0.65","60f6b8f8e574e14634ead43e","650c16f0f2faf8d7a0d14c09","651c1bef5d3c65ff5e59bbca","null","null","<p style=""font-size: 60px; font-family: BACS"">JmNkQvlZ</p>","","","","","","","","",""
"html-keyboard-response","155","375289","0.0-10.0-0.66","60f6b8f8e574e14634ead43e","650c16f0f2faf8d7a0d14c09","651c1bef5d3c65ff5e59bbca","null","null","<p style=""font-size: 60px; font-family: BACS"">AlNUGUa</p>","","","","","","","","",""
"html-keyboard-response","156","376293","0.0-10.0-0.67","60f6b8f8e574e14634ead43e","650c16f0f2faf8d7a0d14c09","651c1bef5d3c65ff5e59bbca","null","null","<p style=""font-size: 60px; font-family: BACS"">OcYMYDE</p>","","","","","","","","",""
"html-keyboard-response","157","377300","0.0-10.0-0.68","60f6b8f8e574e14634ead43e","650c16f0f2faf8d7a0d14c09","651c1bef5d3c65ff5e59bbca","null","null","<p style=""font-size: 60px; font-family: BACS"">TPCbOtM</p>","","","","","","","","",""
"html-keyboard-response","158","378316","0.0-10.0-0.69","60f6b8f8e574e14634ead43e","650c16f0f2faf8d7a0d14c09","651c1bef5d3c65ff5e59bbca","null","null","<p style=""font-size: 60px; font-family: BACS"">GNAcarULv</p>","","","","","","","","",""
"html-keyboard-response","159","379326","0.0-10.0-0.70","60f6b8f8e574e14634ead43e","650c16f0f2faf8d7a0d14c09","651c1bef5d3c65ff5e59bbca","null","null","<p style=""font-size: 60px; font-family: BACS"">AbKDlMck</p>","","","","","","","","",""
"html-keyboard-response","160","380339","0.0-10.0-0.71","60f6b8f8e574e14634ead43e","650c16f0f2faf8d7a0d14c09","651c1bef5d3c65ff5e59bbca","null","null","<p style=""font-size: 60px; font-family: BACS"">JdOAYcrdY</p>","","","","","","","","",""
"html-keyboard-response","161","381343","0.0-10.0-0.72","60f6b8f8e574e14634ead43e","650c16f0f2faf8d7a0d14c09","651c1bef5d3c65ff5e59bbca","null","null","<p style=""font-size: 60px; font-family: BACS"">ubALmrULv</p>","","","","","","","","",""
"html-keyboard-response","162","382358","0.0-10.0-0.73","60f6b8f8e574e14634ead43e","650c16f0f2faf8d7a0d14c09","651c1bef5d3c65ff5e59bbca","null","null","<p style=""font-size: 60px; font-family: BACS"">PcBTYDE</p>","","","","","","","","",""
"html-keyboard-response","163","383366","0.0-10.0-0.74","60f6b8f8e574e14634ead43e","650c16f0f2faf8d7a0d14c09","651c1bef5d3c65ff5e59bbca","null","null","<p style=""font-size: 60px; font-family: BACS"">OcYMAlKD</p>","","","","","","","","",""
"html-keyboard-response","164","384382","0.0-10.0-0.75","60f6b8f8e574e14634ead43e","650c16f0f2faf8d7a0d14c09","651c1bef5d3c65ff5e59bbca","null","null","<p style=""font-size: 60px; font-family: BACS"">GNAcaQvlZ</p>","","","","","","","","",""
"html-keyboard-response","165","385392","0.0-10.0-0.76","60f6b8f8e574e14634ead43e","650c16f0f2faf8d7a0d14c09","651c1bef5d3c65ff5e59bbca","null","null","<p style=""font-size: 60px; font-family: BACS"">lbBDEAlKD</p>","","","","","","","","",""
"html-keyboard-response","166","386407","0.0-10.0-0.77","60f6b8f8e574e14634ead43e","650c16f0f2faf8d7a0d14c09","651c1bef5d3c65ff5e59bbca","null","null","<p style=""font-size: 60px; font-family: BACS"">TEBKCMdP</p>","","","","","","","","",""
"html-keyboard-response","167","387423","0.0-10.0-0.78","60f6b8f8e574e14634ead43e","650c16f0f2faf8d7a0d14c09","651c1bef5d3c65ff5e59bbca","null","null","<p style=""font-size: 60px; font-family: BACS"">TPCblMck</p>","","","","","","","","",""
"html-keyboard-response","168","388432","0.0-10.0-0.79","60f6b8f8e574e14634ead43e","650c16f0f2faf8d7a0d14c09","651c1bef5d3c65ff5e59bbca","null","null","<p style=""font-size: 60px; font-family: BACS"">ubALmNmAG</p>","","","","","","","","",""
"html-keyboard-response","169","399160","0.0-11.0","60f6b8f8e574e14634ead43e","650c16f0f2faf8d7a0d14c09","651c1bef5d3c65ff5e59bbca","10725"," ","<p>Great, you've seen the second block of words. You may now take a short break.</p>
      <p>Press the spacebar when you're ready to continue.</p>","","","","","","","","",""
"html-keyboard-response","170","400163","0.0-12.0-0.0","60f6b8f8e574e14634ead43e","650c16f0f2faf8d7a0d14c09","651c1bef5d3c65ff5e59bbca","null","null","<p style=""font-size: 60px; font-family: BACS"">uQkrdNmAG</p>","","","","","","","","",""
"html-keyboard-response","171","401177","0.0-12.0-0.1","60f6b8f8e574e14634ead43e","650c16f0f2faf8d7a0d14c09","651c1bef5d3c65ff5e59bbca","null","null","<p style=""font-size: 60px; font-family: BACS"">CYPcAlKD</p>","","","","","","","","",""
"html-keyboard-response","172","402180","0.0-12.0-0.2","60f6b8f8e574e14634ead43e","650c16f0f2faf8d7a0d14c09","651c1bef5d3c65ff5e59bbca","null","null","<p style=""font-size: 60px; font-family: BACS"">OcYMlMck</p>","","","","","","","","",""
"html-keyboard-response","173","403188","0.0-12.0-0.3","60f6b8f8e574e14634ead43e","650c16f0f2faf8d7a0d14c09","651c1bef5d3c65ff5e59bbca","null","null","<p style=""font-size: 60px; font-family: BACS"">PcBTCMdP</p>","","","","","","","","",""
"html-keyboard-response","174","404198","0.0-12.0-0.4","60f6b8f8e574e14634ead43e","650c16f0f2faf8d7a0d14c09","651c1bef5d3c65ff5e59bbca","null","null","<p style=""font-size: 60px; font-family: BACS"">lbBDEAlKD</p>","","","","","","","","",""
"html-keyboard-response","175","405210","0.0-12.0-0.5","60f6b8f8e574e14634ead43e","650c16f0f2faf8d7a0d14c09","651c1bef5d3c65ff5e59bbca","null","null","<p style=""font-size: 60px; font-family: BACS"">ubALmcrdY</p>","","","","","","","","",""
"html-keyboard-response","176","406227","0.0-12.0-0.6","60f6b8f8e574e14634ead43e","650c16f0f2faf8d7a0d14c09","651c1bef5d3c65ff5e59bbca","null","null","<p style=""font-size: 60px; font-family: BACS"">YOaAbQvlZ</p>","","","","","","","","",""
"html-keyboard-response","177","407236","0.0-12.0-0.7","60f6b8f8e574e14634ead43e","650c16f0f2faf8d7a0d14c09","651c1bef5d3c65ff5e59bbca","null","null","<p style=""font-size: 60px; font-family: BACS"">GNAcarULv</p>","","","","","","","","",""
"html-keyboard-response","178","408252","0.0-12.0-0.8","60f6b8f8e574e14634ead43e","650c16f0f2faf8d7a0d14c09","651c1bef5d3c65ff5e59bbca","null","null","<p style=""font-size: 60px; font-family: BACS"">kabJbNmAG</p>","","","","","","","","",""
"html-keyboard-response","179","409261","0.0-12.0-0.9","60f6b8f8e574e14634ead43e","650c16f0f2faf8d7a0d14c09","651c1bef5d3c65ff5e59bbca","null","null","<p style=""font-size: 60px; font-family: BACS"">mhtcOtM</p>","","","","","","","","",""
"html-keyboard-response","180","410277","0.0-12.0-0.10","60f6b8f8e574e14634ead43e","650c16f0f2faf8d7a0d14c09","651c1bef5d3c65ff5e59bbca","null","null","<p style=""font-size: 60px; font-family: BACS"">JdOAYcrdY</p>","","","","","","","","",""
"html-keyboard-response","181","411292","0.0-12.0-0.11","60f6b8f8e574e14634ead43e","650c16f0f2faf8d7a0d14c09","651c1bef5d3c65ff5e59bbca","null","null","<p style=""font-size: 60px; font-family: BACS"">PcBTlMck</p>","","","","","","","","",""
"html-keyboard-response","182","412295","0.0-12.0-0.12","60f6b8f8e574e14634ead43e","650c16f0f2faf8d7a0d14c09","651c1bef5d3c65ff5e59bbca","null","null","<p style=""font-size: 60px; font-family: BACS"">tmYhAlKD</p>","","","","","","","","",""
"html-keyboard-response","183","413302","0.0-12.0-0.13","60f6b8f8e574e14634ead43e","650c16f0f2faf8d7a0d14c09","651c1bef5d3c65ff5e59bbca","null","null","<p style=""font-size: 60px; font-family: BACS"">kabJbrULv</p>","","","","","","","","",""
"html-keyboard-response","184","414310","0.0-12.0-0.14","60f6b8f8e574e14634ead43e","650c16f0f2faf8d7a0d14c09","651c1bef5d3c65ff5e59bbca","null","null","<p style=""font-size: 60px; font-family: BACS"">uQkrdQvlZ</p>","","","","","","","","",""
"html-keyboard-response","185","415318","0.0-12.0-0.15","60f6b8f8e574e14634ead43e","650c16f0f2faf8d7a0d14c09","651c1bef5d3c65ff5e59bbca","null","null","<p style=""font-size: 60px; font-family: BACS"">CYPcOtM</p>","","","","","","","","",""
"html-keyboard-response","186","416326","0.0-12.0-0.16","60f6b8f8e574e14634ead43e","650c16f0f2faf8d7a0d14c09","651c1bef5d3c65ff5e59bbca","null","null","<p style=""font-size: 60px; font-family: BACS"">YOaAbrULv</p>","","","","","","","","",""
"html-keyboard-response","187","417334","0.0-12.0-0.17","60f6b8f8e574e14634ead43e","650c16f0f2faf8d7a0d14c09","651c1bef5d3c65ff5e59bbca","null","null","<p style=""font-size: 60px; font-family: BACS"">UdumdGUa</p>","","","","","","","","",""
"html-keyboard-response","188","418350","0.0-12.0-0.18","60f6b8f8e574e14634ead43e","650c16f0f2faf8d7a0d14c09","651c1bef5d3c65ff5e59bbca","null","null","<p style=""font-size: 60px; font-family: BACS"">TEBKYDE</p>","","","","","","","","",""
"html-keyboard-response","189","419357","0.0-12.0-0.19","60f6b8f8e574e14634ead43e","650c16f0f2faf8d7a0d14c09","651c1bef5d3c65ff5e59bbca","null","null","<p style=""font-size: 60px; font-family: BACS"">aOLZUGUa</p>","","","","","","","","",""
"html-keyboard-response","190","420367","0.0-12.0-0.20","60f6b8f8e574e14634ead43e","650c16f0f2faf8d7a0d14c09","651c1bef5d3c65ff5e59bbca","null","null","<p style=""font-size: 60px; font-family: BACS"">JmNkQvlZ</p>","","","","","","","","",""
"html-keyboard-response","191","421376","0.0-12.0-0.21","60f6b8f8e574e14634ead43e","650c16f0f2faf8d7a0d14c09","651c1bef5d3c65ff5e59bbca","null","null","<p style=""font-size: 60px; font-family: BACS"">lbBDEYDE</p>","","","","","","","","",""
"html-keyboard-response","192","422390","0.0-12.0-0.22","60f6b8f8e574e14634ead43e","650c16f0f2faf8d7a0d14c09","651c1bef5d3c65ff5e59bbca","null","null","<p style=""font-size: 60px; font-family: BACS"">AlNUcrdY</p>","","","","","","","","",""
"html-keyboard-response","193","423399","0.0-12.0-0.23","60f6b8f8e574e14634ead43e","650c16f0f2faf8d7a0d14c09","651c1bef5d3c65ff5e59bbca","null","null","<p style=""font-size: 60px; font-family: BACS"">KRARmlMck</p>","","","","","","","","",""
"html-keyboard-response","194","424407","0.0-12.0-0.24","60f6b8f8e574e14634ead43e","650c16f0f2faf8d7a0d14c09","651c1bef5d3c65ff5e59bbca","null","null","<p style=""font-size: 60px; font-family: BACS"">UdumdQvlZ</p>","","","","","","","","",""
"html-keyboard-response","195","425423","0.0-12.0-0.25","60f6b8f8e574e14634ead43e","650c16f0f2faf8d7a0d14c09","651c1bef5d3c65ff5e59bbca","null","null","<p style=""font-size: 60px; font-family: BACS"">OcYMAlKD</p>","","","","","","","","",""
"html-keyboard-response","196","426440","0.0-12.0-0.26","60f6b8f8e574e14634ead43e","650c16f0f2faf8d7a0d14c09","651c1bef5d3c65ff5e59bbca","null","null","<p style=""font-size: 60px; font-family: BACS"">mhtclMck</p>","","","","","","","","",""
"html-keyboard-response","197","427448","0.0-12.0-0.27","60f6b8f8e574e14634ead43e","650c16f0f2faf8d7a0d14c09","651c1bef5d3c65ff5e59bbca","null","null","<p style=""font-size: 60px; font-family: BACS"">AbKDYDE</p>","","","","","","","","",""
"html-keyboard-response","198","428465","0.0-12.0-0.28","60f6b8f8e574e14634ead43e","650c16f0f2faf8d7a0d14c09","651c1bef5d3c65ff5e59bbca","null","null","<p style=""font-size: 60px; font-family: BACS"">CYPcCMdP</p>","","","","","","","","",""
"html-keyboard-response","199","429472","0.0-12.0-0.29","60f6b8f8e574e14634ead43e","650c16f0f2faf8d7a0d14c09","651c1bef5d3c65ff5e59bbca","null","null","<p style=""font-size: 60px; font-family: BACS"">KRARmOtM</p>","","","","","","","","",""
"html-keyboard-response","200","430490","0.0-12.0-0.30","60f6b8f8e574e14634ead43e","650c16f0f2faf8d7a0d14c09","651c1bef5d3c65ff5e59bbca","null","null","<p style=""font-size: 60px; font-family: BACS"">ubALmNmAG</p>","","","","","","","","",""
"html-keyboard-response","201","431505","0.0-12.0-0.31","60f6b8f8e574e14634ead43e","650c16f0f2faf8d7a0d14c09","651c1bef5d3c65ff5e59bbca","null","null","<p style=""font-size: 60px; font-family: BACS"">uQkrdcrdY</p>","","","","","","","","",""
"html-keyboard-response","202","432514","0.0-12.0-0.32","60f6b8f8e574e14634ead43e","650c16f0f2faf8d7a0d14c09","651c1bef5d3c65ff5e59bbca","null","null","<p style=""font-size: 60px; font-family: BACS"">KRARmCMdP</p>","","","","","","","","",""
"html-keyboard-response","203","433522","0.0-12.0-0.33","60f6b8f8e574e14634ead43e","650c16f0f2faf8d7a0d14c09","651c1bef5d3c65ff5e59bbca","null","null","<p style=""font-size: 60px; font-family: BACS"">uQkrdGUa</p>","","","","","","","","",""
"html-keyboard-response","204","434530","0.0-12.0-0.34","60f6b8f8e574e14634ead43e","650c16f0f2faf8d7a0d14c09","651c1bef5d3c65ff5e59bbca","null","null","<p style=""font-size: 60px; font-family: BACS"">lbBDElMck</p>","","","","","","","","",""
"html-keyboard-response","205","435532","0.0-12.0-0.35","60f6b8f8e574e14634ead43e","650c16f0f2faf8d7a0d14c09","651c1bef5d3c65ff5e59bbca","null","null","<p style=""font-size: 60px; font-family: BACS"">AbKDAlKD</p>","","","","","","","","",""
"html-keyboard-response","206","436538","0.0-12.0-0.36","60f6b8f8e574e14634ead43e","650c16f0f2faf8d7a0d14c09","651c1bef5d3c65ff5e59bbca","null","null","<p style=""font-size: 60px; font-family: BACS"">GNAcaQvlZ</p>","","","","","","","","",""
"html-keyboard-response","207","437546","0.0-12.0-0.37","60f6b8f8e574e14634ead43e","650c16f0f2faf8d7a0d14c09","651c1bef5d3c65ff5e59bbca","null","null","<p style=""font-size: 60px; font-family: BACS"">ubALmrULv</p>","","","","","","","","",""
"html-keyboard-response","208","438561","0.0-12.0-0.38","60f6b8f8e574e14634ead43e","650c16f0f2faf8d7a0d14c09","651c1bef5d3c65ff5e59bbca","null","null","<p style=""font-size: 60px; font-family: BACS"">TPCbYDE</p>","","","","","","","","",""
"html-keyboard-response","209","439571","0.0-12.0-0.39","60f6b8f8e574e14634ead43e","650c16f0f2faf8d7a0d14c09","651c1bef5d3c65ff5e59bbca","null","null","<p style=""font-size: 60px; font-family: BACS"">aOLZUcrdY</p>","","","","","","","","",""
"html-keyboard-response","210","440587","0.0-12.0-0.40","60f6b8f8e574e14634ead43e","650c16f0f2faf8d7a0d14c09","651c1bef5d3c65ff5e59bbca","null","null","<p style=""font-size: 60px; font-family: BACS"">kabJbQvlZ</p>","","","","","","","","",""
"html-keyboard-response","211","441591","0.0-12.0-0.41","60f6b8f8e574e14634ead43e","650c16f0f2faf8d7a0d14c09","651c1bef5d3c65ff5e59bbca","null","null","<p style=""font-size: 60px; font-family: BACS"">JmNkGUa</p>","","","","","","","","",""
"html-keyboard-response","212","442595","0.0-12.0-0.42","60f6b8f8e574e14634ead43e","650c16f0f2faf8d7a0d14c09","651c1bef5d3c65ff5e59bbca","null","null","<p style=""font-size: 60px; font-family: BACS"">AbKDlMck</p>","","","","","","","","",""
"html-keyboard-response","213","443611","0.0-12.0-0.43","60f6b8f8e574e14634ead43e","650c16f0f2faf8d7a0d14c09","651c1bef5d3c65ff5e59bbca","null","null","<p style=""font-size: 60px; font-family: BACS"">YOaAbcrdY</p>","","","","","","","","",""
"html-keyboard-response","214","444628","0.0-12.0-0.44","60f6b8f8e574e14634ead43e","650c16f0f2faf8d7a0d14c09","651c1bef5d3c65ff5e59bbca","null","null","<p style=""font-size: 60px; font-family: BACS"">OcYMCMdP</p>","","","","","","","","",""
"html-keyboard-response","215","445644","0.0-12.0-0.45","60f6b8f8e574e14634ead43e","650c16f0f2faf8d7a0d14c09","651c1bef5d3c65ff5e59bbca","null","null","<p style=""font-size: 60px; font-family: BACS"">GNAcacrdY</p>","","","","","","","","",""
"html-keyboard-response","216","446661","0.0-12.0-0.46","60f6b8f8e574e14634ead43e","650c16f0f2faf8d7a0d14c09","651c1bef5d3c65ff5e59bbca","null","null","<p style=""font-size: 60px; font-family: BACS"">TPCblMck</p>","","","","","","","","",""
"html-keyboard-response","217","447677","0.0-12.0-0.47","60f6b8f8e574e14634ead43e","650c16f0f2faf8d7a0d14c09","651c1bef5d3c65ff5e59bbca","null","null","<p style=""font-size: 60px; font-family: BACS"">JdOAYrULv</p>","","","","","","","","",""
"html-keyboard-response","218","448685","0.0-12.0-0.48","60f6b8f8e574e14634ead43e","650c16f0f2faf8d7a0d14c09","651c1bef5d3c65ff5e59bbca","null","null","<p style=""font-size: 60px; font-family: BACS"">TEBKCMdP</p>","","","","","","","","",""
"html-keyboard-response","219","449700","0.0-12.0-0.49","60f6b8f8e574e14634ead43e","650c16f0f2faf8d7a0d14c09","651c1bef5d3c65ff5e59bbca","null","null","<p style=""font-size: 60px; font-family: BACS"">OcYMYDE</p>","","","","","","","","",""
"html-keyboard-response","220","450718","0.0-12.0-0.50","60f6b8f8e574e14634ead43e","650c16f0f2faf8d7a0d14c09","651c1bef5d3c65ff5e59bbca","null","null","<p style=""font-size: 60px; font-family: BACS"">TEBKlMck</p>","","","","","","","","",""
"html-keyboard-response","221","451722","0.0-12.0-0.51","60f6b8f8e574e14634ead43e","650c16f0f2faf8d7a0d14c09","651c1bef5d3c65ff5e59bbca","null","null","<p style=""font-size: 60px; font-family: BACS"">AlNUrULv</p>","","","","","","","","",""
"html-keyboard-response","222","452734","0.0-12.0-0.52","60f6b8f8e574e14634ead43e","650c16f0f2faf8d7a0d14c09","651c1bef5d3c65ff5e59bbca","null","null","<p style=""font-size: 60px; font-family: BACS"">GNAcaNmAG</p>","","","","","","","","",""
"html-keyboard-response","223","453749","0.0-12.0-0.53","60f6b8f8e574e14634ead43e","650c16f0f2faf8d7a0d14c09","651c1bef5d3c65ff5e59bbca","null","null","<p style=""font-size: 60px; font-family: BACS"">KRARmAlKD</p>","","","","","","","","",""
"html-keyboard-response","224","454757","0.0-12.0-0.54","60f6b8f8e574e14634ead43e","650c16f0f2faf8d7a0d14c09","651c1bef5d3c65ff5e59bbca","null","null","<p style=""font-size: 60px; font-family: BACS"">lbBDEOtM</p>","","","","","","","","",""
"html-keyboard-response","225","455766","0.0-12.0-0.55","60f6b8f8e574e14634ead43e","650c16f0f2faf8d7a0d14c09","651c1bef5d3c65ff5e59bbca","null","null","<p style=""font-size: 60px; font-family: BACS"">JmNkNmAG</p>","","","","","","","","",""
"html-keyboard-response","226","456783","0.0-12.0-0.56","60f6b8f8e574e14634ead43e","650c16f0f2faf8d7a0d14c09","651c1bef5d3c65ff5e59bbca","null","null","<p style=""font-size: 60px; font-family: BACS"">kabJbGUa</p>","","","","","","","","",""
"html-keyboard-response","227","457799","0.0-12.0-0.57","60f6b8f8e574e14634ead43e","650c16f0f2faf8d7a0d14c09","651c1bef5d3c65ff5e59bbca","null","null","<p style=""font-size: 60px; font-family: BACS"">mhtcAlKD</p>","","","","","","","","",""
"html-keyboard-response","228","458816","0.0-12.0-0.58","60f6b8f8e574e14634ead43e","650c16f0f2faf8d7a0d14c09","651c1bef5d3c65ff5e59bbca","null","null","<p style=""font-size: 60px; font-family: BACS"">TPCbCMdP</p>","","","","","","","","",""
"html-keyboard-response","229","459830","0.0-12.0-0.59","60f6b8f8e574e14634ead43e","650c16f0f2faf8d7a0d14c09","651c1bef5d3c65ff5e59bbca","null","null","<p style=""font-size: 60px; font-family: BACS"">AlNUGUa</p>","","","","","","","","",""
"html-keyboard-response","230","460837","0.0-12.0-0.60","60f6b8f8e574e14634ead43e","650c16f0f2faf8d7a0d14c09","651c1bef5d3c65ff5e59bbca","null","null","<p style=""font-size: 60px; font-family: BACS"">JmNkrULv</p>","","","","","","","","",""
"html-keyboard-response","231","461851","0.0-12.0-0.61","60f6b8f8e574e14634ead43e","650c16f0f2faf8d7a0d14c09","651c1bef5d3c65ff5e59bbca","null","null","<p style=""font-size: 60px; font-family: BACS"">PcBTYDE</p>","","","","","","","","",""
"html-keyboard-response","232","462865","0.0-12.0-0.62","60f6b8f8e574e14634ead43e","650c16f0f2faf8d7a0d14c09","651c1bef5d3c65ff5e59bbca","null","null","<p style=""font-size: 60px; font-family: BACS"">AbKDOtM</p>","","","","","","","","",""
"html-keyboard-response","233","463880","0.0-12.0-0.63","60f6b8f8e574e14634ead43e","650c16f0f2faf8d7a0d14c09","651c1bef5d3c65ff5e59bbca","null","null","<p style=""font-size: 60px; font-family: BACS"">JdOAYQvlZ</p>","","","","","","","","",""
"html-keyboard-response","234","464898","0.0-12.0-0.64","60f6b8f8e574e14634ead43e","650c16f0f2faf8d7a0d14c09","651c1bef5d3c65ff5e59bbca","null","null","<p style=""font-size: 60px; font-family: BACS"">tmYhOtM</p>","","","","","","","","",""
"html-keyboard-response","235","465914","0.0-12.0-0.65","60f6b8f8e574e14634ead43e","650c16f0f2faf8d7a0d14c09","651c1bef5d3c65ff5e59bbca","null","null","<p style=""font-size: 60px; font-family: BACS"">mhtcCMdP</p>","","","","","","","","",""
"html-keyboard-response","236","466932","0.0-12.0-0.66","60f6b8f8e574e14634ead43e","650c16f0f2faf8d7a0d14c09","651c1bef5d3c65ff5e59bbca","null","null","<p style=""font-size: 60px; font-family: BACS"">UdumdrULv</p>","","","","","","","","",""
"html-keyboard-response","237","467938","0.0-12.0-0.67","60f6b8f8e574e14634ead43e","650c16f0f2faf8d7a0d14c09","651c1bef5d3c65ff5e59bbca","null","null","<p style=""font-size: 60px; font-family: BACS"">aOLZUNmAG</p>","","","","","","","","",""
"html-keyboard-response","238","468954","0.0-12.0-0.68","60f6b8f8e574e14634ead43e","650c16f0f2faf8d7a0d14c09","651c1bef5d3c65ff5e59bbca","null","null","<p style=""font-size: 60px; font-family: BACS"">UdumdcrdY</p>","","","","","","","","",""
"html-keyboard-response","239","469963","0.0-12.0-0.69","60f6b8f8e574e14634ead43e","650c16f0f2faf8d7a0d14c09","651c1bef5d3c65ff5e59bbca","null","null","<p style=""font-size: 60px; font-family: BACS"">aOLZUQvlZ</p>","","","","","","","","",""
"html-keyboard-response","240","470978","0.0-12.0-0.70","60f6b8f8e574e14634ead43e","650c16f0f2faf8d7a0d14c09","651c1bef5d3c65ff5e59bbca","null","null","<p style=""font-size: 60px; font-family: BACS"">ubALmGUa</p>","","","","","","","","",""
"html-keyboard-response","241","471995","0.0-12.0-0.71","60f6b8f8e574e14634ead43e","650c16f0f2faf8d7a0d14c09","651c1bef5d3c65ff5e59bbca","null","null","<p style=""font-size: 60px; font-family: BACS"">tmYhYDE</p>","","","","","","","","",""
"html-keyboard-response","242","473012","0.0-12.0-0.72","60f6b8f8e574e14634ead43e","650c16f0f2faf8d7a0d14c09","651c1bef5d3c65ff5e59bbca","null","null","<p style=""font-size: 60px; font-family: BACS"">JdOAYNmAG</p>","","","","","","","","",""
"html-keyboard-response","243","474028","0.0-12.0-0.73","60f6b8f8e574e14634ead43e","650c16f0f2faf8d7a0d14c09","651c1bef5d3c65ff5e59bbca","null","null","<p style=""font-size: 60px; font-family: BACS"">CYPcYDE</p>","","","","","","","","",""
"html-keyboard-response","244","475031","0.0-12.0-0.74","60f6b8f8e574e14634ead43e","650c16f0f2faf8d7a0d14c09","651c1bef5d3c65ff5e59bbca","null","null","<p style=""font-size: 60px; font-family: BACS"">YOaAbGUa</p>","","","","","","","","",""
"html-keyboard-response","245","476044","0.0-12.0-0.75","60f6b8f8e574e14634ead43e","650c16f0f2faf8d7a0d14c09","651c1bef5d3c65ff5e59bbca","null","null","<p style=""font-size: 60px; font-family: BACS"">TPCbOtM</p>","","","","","","","","",""
"html-keyboard-response","246","477053","0.0-12.0-0.76","60f6b8f8e574e14634ead43e","650c16f0f2faf8d7a0d14c09","651c1bef5d3c65ff5e59bbca","null","null","<p style=""font-size: 60px; font-family: BACS"">TEBKAlKD</p>","","","","","","","","",""
"html-keyboard-response","247","478061","0.0-12.0-0.77","60f6b8f8e574e14634ead43e","650c16f0f2faf8d7a0d14c09","651c1bef5d3c65ff5e59bbca","null","null","<p style=""font-size: 60px; font-family: BACS"">AlNUNmAG</p>","","","","","","","","",""
"html-keyboard-response","248","479078","0.0-12.0-0.78","60f6b8f8e574e14634ead43e","650c16f0f2faf8d7a0d14c09","651c1bef5d3c65ff5e59bbca","null","null","<p style=""font-size: 60px; font-family: BACS"">tmYhCMdP</p>","","","","","","","","",""
"html-keyboard-response","249","480087","0.0-12.0-0.79","60f6b8f8e574e14634ead43e","650c16f0f2faf8d7a0d14c09","651c1bef5d3c65ff5e59bbca","null","null","<p style=""font-size: 60px; font-family: BACS"">PcBTOtM</p>","","","","","","","","",""
"html-keyboard-response","250","519131","0.0-13.0","60f6b8f8e574e14634ead43e","650c16f0f2faf8d7a0d14c09","651c1bef5d3c65ff5e59bbca","39049"," ","<p>Great, you've seen the third block of words. You may now take a short break.</p>
      <p>Press the spacebar when you're ready to continue.</p>","","","","","","","","",""
"html-keyboard-response","251","520138","0.0-14.0-0.0","60f6b8f8e574e14634ead43e","650c16f0f2faf8d7a0d14c09","651c1bef5d3c65ff5e59bbca","null","null","<p style=""font-size: 60px; font-family: BACS"">mhtclMck</p>","","","","","","","","",""
"html-keyboard-response","252","521147","0.0-14.0-0.1","60f6b8f8e574e14634ead43e","650c16f0f2faf8d7a0d14c09","651c1bef5d3c65ff5e59bbca","null","null","<p style=""font-size: 60px; font-family: BACS"">ubALmNmAG</p>","","","","","","","","",""
"html-keyboard-response","253","522154","0.0-14.0-0.2","60f6b8f8e574e14634ead43e","650c16f0f2faf8d7a0d14c09","651c1bef5d3c65ff5e59bbca","null","null","<p style=""font-size: 60px; font-family: BACS"">aOLZUcrdY</p>","","","","","","","","",""
"html-keyboard-response","254","523159","0.0-14.0-0.3","60f6b8f8e574e14634ead43e","650c16f0f2faf8d7a0d14c09","651c1bef5d3c65ff5e59bbca","null","null","<p style=""font-size: 60px; font-family: BACS"">AlNUrULv</p>","","","","","","","","",""
"html-keyboard-response","255","524163","0.0-14.0-0.4","60f6b8f8e574e14634ead43e","650c16f0f2faf8d7a0d14c09","651c1bef5d3c65ff5e59bbca","null","null","<p style=""font-size: 60px; font-family: BACS"">AbKDlMck</p>","","","","","","","","",""
"html-keyboard-response","256","525177","0.0-14.0-0.5","60f6b8f8e574e14634ead43e","650c16f0f2faf8d7a0d14c09","651c1bef5d3c65ff5e59bbca","null","null","<p style=""font-size: 60px; font-family: BACS"">OcYMAlKD</p>","","","","","","","","",""
"html-keyboard-response","257","526191","0.0-14.0-0.6","60f6b8f8e574e14634ead43e","650c16f0f2faf8d7a0d14c09","651c1bef5d3c65ff5e59bbca","null","null","<p style=""font-size: 60px; font-family: BACS"">uQkrdNmAG</p>","","","","","","","","",""
"html-keyboard-response","258","527194","0.0-14.0-0.7","60f6b8f8e574e14634ead43e","650c16f0f2faf8d7a0d14c09","651c1bef5d3c65ff5e59bbca","null","null","<p style=""font-size: 60px; font-family: BACS"">JdOAYcrdY</p>","","","","","","","","",""
"html-keyboard-response","259","528196","0.0-14.0-0.8","60f6b8f8e574e14634ead43e","650c16f0f2faf8d7a0d14c09","651c1bef5d3c65ff5e59bbca","null","null","<p style=""font-size: 60px; font-family: BACS"">lbBDEAlKD</p>","","","","","","","","",""
"html-keyboard-response","260","529209","0.0-14.0-0.9","60f6b8f8e574e14634ead43e","650c16f0f2faf8d7a0d14c09","651c1bef5d3c65ff5e59bbca","null","null","<p style=""font-size: 60px; font-family: BACS"">PcBTlMck</p>","","","","","","","","",""
"html-keyboard-response","261","530224","0.0-14.0-0.10","60f6b8f8e574e14634ead43e","650c16f0f2faf8d7a0d14c09","651c1bef5d3c65ff5e59bbca","null","null","<p style=""font-size: 60px; font-family: BACS"">ubALmGUa</p>","","","","","","","","",""
"html-keyboard-response","262","531242","0.0-14.0-0.11","60f6b8f8e574e14634ead43e","650c16f0f2faf8d7a0d14c09","651c1bef5d3c65ff5e59bbca","null","null","<p style=""font-size: 60px; font-family: BACS"">JdOAYrULv</p>","","","","","","","","",""
"html-keyboard-response","263","532260","0.0-14.0-0.12","60f6b8f8e574e14634ead43e","650c16f0f2faf8d7a0d14c09","651c1bef5d3c65ff5e59bbca","null","null","<p style=""font-size: 60px; font-family: BACS"">CYPcOtM</p>","","","","","","","","",""
"html-keyboard-response","264","533268","0.0-14.0-0.13","60f6b8f8e574e14634ead43e","650c16f0f2faf8d7a0d14c09","651c1bef5d3c65ff5e59bbca","null","null","<p style=""font-size: 60px; font-family: BACS"">TEBKlMck</p>","","","","","","","","",""
"html-keyboard-response","265","534276","0.0-14.0-0.14","60f6b8f8e574e14634ead43e","650c16f0f2faf8d7a0d14c09","651c1bef5d3c65ff5e59bbca","null","null","<p style=""font-size: 60px; font-family: BACS"">GNAcacrdY</p>","","","","","","","","",""
"html-keyboard-response","266","535285","0.0-14.0-0.15","60f6b8f8e574e14634ead43e","650c16f0f2faf8d7a0d14c09","651c1bef5d3c65ff5e59bbca","null","null","<p style=""font-size: 60px; font-family: BACS"">AbKDYDE</p>","","","","","","","","",""
"html-keyboard-response","267","536301","0.0-14.0-0.16","60f6b8f8e574e14634ead43e","650c16f0f2faf8d7a0d14c09","651c1bef5d3c65ff5e59bbca","null","null","<p style=""font-size: 60px; font-family: BACS"">JdOAYQvlZ</p>","","","","","","","","",""
"html-keyboard-response","268","537306","0.0-14.0-0.17","60f6b8f8e574e14634ead43e","650c16f0f2faf8d7a0d14c09","651c1bef5d3c65ff5e59bbca","null","null","<p style=""font-size: 60px; font-family: BACS"">AlNUNmAG</p>","","","","","","","","",""
"html-keyboard-response","269","538325","0.0-14.0-0.18","60f6b8f8e574e14634ead43e","650c16f0f2faf8d7a0d14c09","651c1bef5d3c65ff5e59bbca","null","null","<p style=""font-size: 60px; font-family: BACS"">AbKDAlKD</p>","","","","","","","","",""
"html-keyboard-response","270","539333","0.0-14.0-0.19","60f6b8f8e574e14634ead43e","650c16f0f2faf8d7a0d14c09","651c1bef5d3c65ff5e59bbca","null","null","<p style=""font-size: 60px; font-family: BACS"">aOLZUNmAG</p>","","","","","","","","",""
"html-keyboard-response","271","540342","0.0-14.0-0.20","60f6b8f8e574e14634ead43e","650c16f0f2faf8d7a0d14c09","651c1bef5d3c65ff5e59bbca","null","null","<p style=""font-size: 60px; font-family: BACS"">tmYhCMdP</p>","","","","","","","","",""
"html-keyboard-response","272","541359","0.0-14.0-0.21","60f6b8f8e574e14634ead43e","650c16f0f2faf8d7a0d14c09","651c1bef5d3c65ff5e59bbca","null","null","<p style=""font-size: 60px; font-family: BACS"">GNAcaNmAG</p>","","","","","","","","",""
"html-keyboard-response","273","542374","0.0-14.0-0.22","60f6b8f8e574e14634ead43e","650c16f0f2faf8d7a0d14c09","651c1bef5d3c65ff5e59bbca","null","null","<p style=""font-size: 60px; font-family: BACS"">PcBTYDE</p>","","","","","","","","",""
"html-keyboard-response","274","543377","0.0-14.0-0.23","60f6b8f8e574e14634ead43e","650c16f0f2faf8d7a0d14c09","651c1bef5d3c65ff5e59bbca","null","null","<p style=""font-size: 60px; font-family: BACS"">JmNkGUa</p>","","","","","","","","",""
"html-keyboard-response","275","544383","0.0-14.0-0.24","60f6b8f8e574e14634ead43e","650c16f0f2faf8d7a0d14c09","651c1bef5d3c65ff5e59bbca","null","null","<p style=""font-size: 60px; font-family: BACS"">OcYMYDE</p>","","","","","","","","",""
"html-keyboard-response","276","545390","0.0-14.0-0.25","60f6b8f8e574e14634ead43e","650c16f0f2faf8d7a0d14c09","651c1bef5d3c65ff5e59bbca","null","null","<p style=""font-size: 60px; font-family: BACS"">TEBKCMdP</p>","","","","","","","","",""
"html-keyboard-response","277","546398","0.0-14.0-0.26","60f6b8f8e574e14634ead43e","650c16f0f2faf8d7a0d14c09","651c1bef5d3c65ff5e59bbca","null","null","<p style=""font-size: 60px; font-family: BACS"">YOaAbrULv</p>","","","","","","","","",""
"html-keyboard-response","278","547408","0.0-14.0-0.27","60f6b8f8e574e14634ead43e","650c16f0f2faf8d7a0d14c09","651c1bef5d3c65ff5e59bbca","null","null","<p style=""font-size: 60px; font-family: BACS"">kabJbNmAG</p>","","","","","","","","",""
"html-keyboard-response","279","548414","0.0-14.0-0.28","60f6b8f8e574e14634ead43e","650c16f0f2faf8d7a0d14c09","651c1bef5d3c65ff5e59bbca","null","null","<p style=""font-size: 60px; font-family: BACS"">KRARmAlKD</p>","","","","","","","","",""
"html-keyboard-response","280","549425","0.0-14.0-0.29","60f6b8f8e574e14634ead43e","650c16f0f2faf8d7a0d14c09","651c1bef5d3c65ff5e59bbca","null","null","<p style=""font-size: 60px; font-family: BACS"">CYPcYDE</p>","","","","","","","","",""
"html-keyboard-response","281","550440","0.0-14.0-0.30","60f6b8f8e574e14634ead43e","650c16f0f2faf8d7a0d14c09","651c1bef5d3c65ff5e59bbca","null","null","<p style=""font-size: 60px; font-family: BACS"">JmNkrULv</p>","","","","","","","","",""
"html-keyboard-response","282","551456","0.0-14.0-0.31","60f6b8f8e574e14634ead43e","650c16f0f2faf8d7a0d14c09","651c1bef5d3c65ff5e59bbca","null","null","<p style=""font-size: 60px; font-family: BACS"">lbBDElMck</p>","","","","","","","","",""
"html-keyboard-response","283","552464","0.0-14.0-0.32","60f6b8f8e574e14634ead43e","650c16f0f2faf8d7a0d14c09","651c1bef5d3c65ff5e59bbca","null","null","<p style=""font-size: 60px; font-family: BACS"">UdumdQvlZ</p>","","","","","","","","",""
"html-keyboard-response","284","553471","0.0-14.0-0.33","60f6b8f8e574e14634ead43e","650c16f0f2faf8d7a0d14c09","651c1bef5d3c65ff5e59bbca","null","null","<p style=""font-size: 60px; font-family: BACS"">mhtcCMdP</p>","","","","","","","","",""
"html-keyboard-response","285","554487","0.0-14.0-0.34","60f6b8f8e574e14634ead43e","650c16f0f2faf8d7a0d14c09","651c1bef5d3c65ff5e59bbca","null","null","<p style=""font-size: 60px; font-family: BACS"">kabJbQvlZ</p>","","","","","","","","",""
"html-keyboard-response","286","555496","0.0-14.0-0.35","60f6b8f8e574e14634ead43e","650c16f0f2faf8d7a0d14c09","651c1bef5d3c65ff5e59bbca","null","null","<p style=""font-size: 60px; font-family: BACS"">CYPcAlKD</p>","","","","","","","","",""
"html-keyboard-response","287","556504","0.0-14.0-0.36","60f6b8f8e574e14634ead43e","650c16f0f2faf8d7a0d14c09","651c1bef5d3c65ff5e59bbca","null","null","<p style=""font-size: 60px; font-family: BACS"">OcYMlMck</p>","","","","","","","","",""
"html-keyboard-response","288","557521","0.0-14.0-0.37","60f6b8f8e574e14634ead43e","650c16f0f2faf8d7a0d14c09","651c1bef5d3c65ff5e59bbca","null","null","<p style=""font-size: 60px; font-family: BACS"">GNAcaQvlZ</p>","","","","","","","","",""
"html-keyboard-response","289","558537","0.0-14.0-0.38","60f6b8f8e574e14634ead43e","650c16f0f2faf8d7a0d14c09","651c1bef5d3c65ff5e59bbca","null","null","<p style=""font-size: 60px; font-family: BACS"">tmYhYDE</p>","","","","","","","","",""
"html-keyboard-response","290","559553","0.0-14.0-0.39","60f6b8f8e574e14634ead43e","650c16f0f2faf8d7a0d14c09","651c1bef5d3c65ff5e59bbca","null","null","<p style=""font-size: 60px; font-family: BACS"">lbBDEOtM</p>","","","","","","","","",""
"html-keyboard-response","291","560562","0.0-14.0-0.40","60f6b8f8e574e14634ead43e","650c16f0f2faf8d7a0d14c09","651c1bef5d3c65ff5e59bbca","null","null","<p style=""font-size: 60px; font-family: BACS"">JmNkQvlZ</p>","","","","","","","","",""
"html-keyboard-response","292","561575","0.0-14.0-0.41","60f6b8f8e574e14634ead43e","650c16f0f2faf8d7a0d14c09","651c1bef5d3c65ff5e59bbca","null","null","<p style=""font-size: 60px; font-family: BACS"">KRARmlMck</p>","","","","","","","","",""
"html-keyboard-response","293","562591","0.0-14.0-0.42","60f6b8f8e574e14634ead43e","650c16f0f2faf8d7a0d14c09","651c1bef5d3c65ff5e59bbca","null","null","<p style=""font-size: 60px; font-family: BACS"">UdumdrULv</p>","","","","","","","","",""
"html-keyboard-response","294","563607","0.0-14.0-0.43","60f6b8f8e574e14634ead43e","650c16f0f2faf8d7a0d14c09","651c1bef5d3c65ff5e59bbca","null","null","<p style=""font-size: 60px; font-family: BACS"">OcYMCMdP</p>","","","","","","","","",""
"html-keyboard-response","295","564620","0.0-14.0-0.44","60f6b8f8e574e14634ead43e","650c16f0f2faf8d7a0d14c09","651c1bef5d3c65ff5e59bbca","null","null","<p style=""font-size: 60px; font-family: BACS"">uQkrdcrdY</p>","","","","","","","","",""
"html-keyboard-response","296","565627","0.0-14.0-0.45","60f6b8f8e574e14634ead43e","650c16f0f2faf8d7a0d14c09","651c1bef5d3c65ff5e59bbca","null","null","<p style=""font-size: 60px; font-family: BACS"">PcBTCMdP</p>","","","","","","","","",""
"html-keyboard-response","297","566633","0.0-14.0-0.46","60f6b8f8e574e14634ead43e","650c16f0f2faf8d7a0d14c09","651c1bef5d3c65ff5e59bbca","null","null","<p style=""font-size: 60px; font-family: BACS"">UdumdcrdY</p>","","","","","","","","",""
"html-keyboard-response","298","567643","0.0-14.0-0.47","60f6b8f8e574e14634ead43e","650c16f0f2faf8d7a0d14c09","651c1bef5d3c65ff5e59bbca","null","null","<p style=""font-size: 60px; font-family: BACS"">TEBKAlKD</p>","","","","","","","","",""
"html-keyboard-response","299","568650","0.0-14.0-0.48","60f6b8f8e574e14634ead43e","650c16f0f2faf8d7a0d14c09","651c1bef5d3c65ff5e59bbca","null","null","<p style=""font-size: 60px; font-family: BACS"">GNAcarULv</p>","","","","","","","","",""
"html-keyboard-response","300","569667","0.0-14.0-0.49","60f6b8f8e574e14634ead43e","650c16f0f2faf8d7a0d14c09","651c1bef5d3c65ff5e59bbca","null","null","<p style=""font-size: 60px; font-family: BACS"">mhtcAlKD</p>","","","","","","","","",""
"html-keyboard-response","301","570678","0.0-14.0-0.50","60f6b8f8e574e14634ead43e","650c16f0f2faf8d7a0d14c09","651c1bef5d3c65ff5e59bbca","null","null","<p style=""font-size: 60px; font-family: BACS"">aOLZUQvlZ</p>","","","","","","","","",""
"html-keyboard-response","302","571683","0.0-14.0-0.51","60f6b8f8e574e14634ead43e","650c16f0f2faf8d7a0d14c09","651c1bef5d3c65ff5e59bbca","null","null","<p style=""font-size: 60px; font-family: BACS"">YOaAbGUa</p>","","","","","","","","",""
"html-keyboard-response","303","572693","0.0-14.0-0.52","60f6b8f8e574e14634ead43e","650c16f0f2faf8d7a0d14c09","651c1bef5d3c65ff5e59bbca","null","null","<p style=""font-size: 60px; font-family: BACS"">uQkrdQvlZ</p>","","","","","","","","",""
"html-keyboard-response","304","573700","0.0-14.0-0.53","60f6b8f8e574e14634ead43e","650c16f0f2faf8d7a0d14c09","651c1bef5d3c65ff5e59bbca","null","null","<p style=""font-size: 60px; font-family: BACS"">lbBDEYDE</p>","","","","","","","","",""
"html-keyboard-response","305","574708","0.0-14.0-0.54","60f6b8f8e574e14634ead43e","650c16f0f2faf8d7a0d14c09","651c1bef5d3c65ff5e59bbca","null","null","<p style=""font-size: 60px; font-family: BACS"">ubALmcrdY</p>","","","","","","","","",""
"html-keyboard-response","306","575723","0.0-14.0-0.55","60f6b8f8e574e14634ead43e","650c16f0f2faf8d7a0d14c09","651c1bef5d3c65ff5e59bbca","null","null","<p style=""font-size: 60px; font-family: BACS"">YOaAbQvlZ</p>","","","","","","","","",""
"html-keyboard-response","307","576741","0.0-14.0-0.56","60f6b8f8e574e14634ead43e","650c16f0f2faf8d7a0d14c09","651c1bef5d3c65ff5e59bbca","null","null","<p style=""font-size: 60px; font-family: BACS"">JmNkNmAG</p>","","","","","","","","",""
"html-keyboard-response","308","577757","0.0-14.0-0.57","60f6b8f8e574e14634ead43e","650c16f0f2faf8d7a0d14c09","651c1bef5d3c65ff5e59bbca","null","null","<p style=""font-size: 60px; font-family: BACS"">KRARmOtM</p>","","","","","","","","",""
"html-keyboard-response","309","578770","0.0-14.0-0.58","60f6b8f8e574e14634ead43e","650c16f0f2faf8d7a0d14c09","651c1bef5d3c65ff5e59bbca","null","null","<p style=""font-size: 60px; font-family: BACS"">TEBKYDE</p>","","","","","","","","",""
"html-keyboard-response","310","579788","0.0-14.0-0.59","60f6b8f8e574e14634ead43e","650c16f0f2faf8d7a0d14c09","651c1bef5d3c65ff5e59bbca","null","null","<p style=""font-size: 60px; font-family: BACS"">PcBTOtM</p>","","","","","","","","",""
"html-keyboard-response","311","580806","0.0-14.0-0.60","60f6b8f8e574e14634ead43e","650c16f0f2faf8d7a0d14c09","651c1bef5d3c65ff5e59bbca","null","null","<p style=""font-size: 60px; font-family: BACS"">TPCblMck</p>","","","","","","","","",""
"html-keyboard-response","312","581813","0.0-14.0-0.61","60f6b8f8e574e14634ead43e","650c16f0f2faf8d7a0d14c09","651c1bef5d3c65ff5e59bbca","null","null","<p style=""font-size: 60px; font-family: BACS"">AlNUcrdY</p>","","","","","","","","",""
"html-keyboard-response","313","582828","0.0-14.0-0.62","60f6b8f8e574e14634ead43e","650c16f0f2faf8d7a0d14c09","651c1bef5d3c65ff5e59bbca","null","null","<p style=""font-size: 60px; font-family: BACS"">CYPcCMdP</p>","","","","","","","","",""
"html-keyboard-response","314","583842","0.0-14.0-0.63","60f6b8f8e574e14634ead43e","650c16f0f2faf8d7a0d14c09","651c1bef5d3c65ff5e59bbca","null","null","<p style=""font-size: 60px; font-family: BACS"">mhtcOtM</p>","","","","","","","","",""
"html-keyboard-response","315","584852","0.0-14.0-0.64","60f6b8f8e574e14634ead43e","650c16f0f2faf8d7a0d14c09","651c1bef5d3c65ff5e59bbca","null","null","<p style=""font-size: 60px; font-family: BACS"">YOaAbcrdY</p>","","","","","","","","",""
"html-keyboard-response","316","585869","0.0-14.0-0.65","60f6b8f8e574e14634ead43e","650c16f0f2faf8d7a0d14c09","651c1bef5d3c65ff5e59bbca","null","null","<p style=""font-size: 60px; font-family: BACS"">kabJbrULv</p>","","","","","","","","",""
"html-keyboard-response","317","586873","0.0-14.0-0.66","60f6b8f8e574e14634ead43e","650c16f0f2faf8d7a0d14c09","651c1bef5d3c65ff5e59bbca","null","null","<p style=""font-size: 60px; font-family: BACS"">TPCbCMdP</p>","","","","","","","","",""
"html-keyboard-response","318","587878","0.0-14.0-0.67","60f6b8f8e574e14634ead43e","650c16f0f2faf8d7a0d14c09","651c1bef5d3c65ff5e59bbca","null","null","<p style=""font-size: 60px; font-family: BACS"">JdOAYNmAG</p>","","","","","","","","",""
"html-keyboard-response","319","588889","0.0-14.0-0.68","60f6b8f8e574e14634ead43e","650c16f0f2faf8d7a0d14c09","651c1bef5d3c65ff5e59bbca","null","null","<p style=""font-size: 60px; font-family: BACS"">TPCbOtM</p>","","","","","","","","",""
"html-keyboard-response","320","589893","0.0-14.0-0.69","60f6b8f8e574e14634ead43e","650c16f0f2faf8d7a0d14c09","651c1bef5d3c65ff5e59bbca","null","null","<p style=""font-size: 60px; font-family: BACS"">aOLZUGUa</p>","","","","","","","","",""
"html-keyboard-response","321","590904","0.0-14.0-0.70","60f6b8f8e574e14634ead43e","650c16f0f2faf8d7a0d14c09","651c1bef5d3c65ff5e59bbca","null","null","<p style=""font-size: 60px; font-family: BACS"">AbKDOtM</p>","","","","","","","","",""
"html-keyboard-response","322","591911","0.0-14.0-0.71","60f6b8f8e574e14634ead43e","650c16f0f2faf8d7a0d14c09","651c1bef5d3c65ff5e59bbca","null","null","<p style=""font-size: 60px; font-family: BACS"">uQkrdGUa</p>","","","","","","","","",""
"html-keyboard-response","323","592919","0.0-14.0-0.72","60f6b8f8e574e14634ead43e","650c16f0f2faf8d7a0d14c09","651c1bef5d3c65ff5e59bbca","null","null","<p style=""font-size: 60px; font-family: BACS"">tmYhOtM</p>","","","","","","","","",""
"html-keyboard-response","324","593935","0.0-14.0-0.73","60f6b8f8e574e14634ead43e","650c16f0f2faf8d7a0d14c09","651c1bef5d3c65ff5e59bbca","null","null","<p style=""font-size: 60px; font-family: BACS"">kabJbGUa</p>","","","","","","","","",""
"html-keyboard-response","325","594950","0.0-14.0-0.74","60f6b8f8e574e14634ead43e","650c16f0f2faf8d7a0d14c09","651c1bef5d3c65ff5e59bbca","null","null","<p style=""font-size: 60px; font-family: BACS"">ubALmrULv</p>","","","","","","","","",""
"html-keyboard-response","326","595960","0.0-14.0-0.75","60f6b8f8e574e14634ead43e","650c16f0f2faf8d7a0d14c09","651c1bef5d3c65ff5e59bbca","null","null","<p style=""font-size: 60px; font-family: BACS"">AlNUGUa</p>","","","","","","","","",""
"html-keyboard-response","327","596969","0.0-14.0-0.76","60f6b8f8e574e14634ead43e","650c16f0f2faf8d7a0d14c09","651c1bef5d3c65ff5e59bbca","null","null","<p style=""font-size: 60px; font-family: BACS"">KRARmCMdP</p>","","","","","","","","",""
"html-keyboard-response","328","597976","0.0-14.0-0.77","60f6b8f8e574e14634ead43e","650c16f0f2faf8d7a0d14c09","651c1bef5d3c65ff5e59bbca","null","null","<p style=""font-size: 60px; font-family: BACS"">TPCbYDE</p>","","","","","","","","",""
"html-keyboard-response","329","598986","0.0-14.0-0.78","60f6b8f8e574e14634ead43e","650c16f0f2faf8d7a0d14c09","651c1bef5d3c65ff5e59bbca","null","null","<p style=""font-size: 60px; font-family: BACS"">UdumdGUa</p>","","","","","","","","",""
"html-keyboard-response","330","599992","0.0-14.0-0.79","60f6b8f8e574e14634ead43e","650c16f0f2faf8d7a0d14c09","651c1bef5d3c65ff5e59bbca","null","null","<p style=""font-size: 60px; font-family: BACS"">tmYhAlKD</p>","","","","","","","","",""
"html-keyboard-response","331","611342","0.0-15.0","60f6b8f8e574e14634ead43e","650c16f0f2faf8d7a0d14c09","651c1bef5d3c65ff5e59bbca","11349"," ","<p>Great, you've seen the fourth block of words. You may now take a short break.</p>
      <p>Press the spacebar when you're ready to continue.</p>","","","","","","","","",""
"html-keyboard-response","332","612348","0.0-16.0-0.0","60f6b8f8e574e14634ead43e","650c16f0f2faf8d7a0d14c09","651c1bef5d3c65ff5e59bbca","null","null","<p style=""font-size: 60px; font-family: BACS"">tmYhYDE</p>","","","","","","","","",""
"html-keyboard-response","333","613365","0.0-16.0-0.1","60f6b8f8e574e14634ead43e","650c16f0f2faf8d7a0d14c09","651c1bef5d3c65ff5e59bbca","null","null","<p style=""font-size: 60px; font-family: BACS"">tmYhYDE</p>","","","","","","","","",""
"html-keyboard-response","334","614380","0.0-16.0-0.2","60f6b8f8e574e14634ead43e","650c16f0f2faf8d7a0d14c09","651c1bef5d3c65ff5e59bbca","null","null","<p style=""font-size: 60px; font-family: BACS"">tmYhYDE</p>","","","","","","","","",""
"html-keyboard-response","335","615395","0.0-16.0-0.3","60f6b8f8e574e14634ead43e","650c16f0f2faf8d7a0d14c09","651c1bef5d3c65ff5e59bbca","null","null","<p style=""font-size: 60px; font-family: BACS"">tmYhYDE</p>","","","","","","","","",""
"html-keyboard-response","336","616405","0.0-16.0-0.4","60f6b8f8e574e14634ead43e","650c16f0f2faf8d7a0d14c09","651c1bef5d3c65ff5e59bbca","null","null","<p style=""font-size: 60px; font-family: BACS"">tmYhYDE</p>","","","","","","","","",""
"html-keyboard-response","337","617422","0.0-16.0-0.5","60f6b8f8e574e14634ead43e","650c16f0f2faf8d7a0d14c09","651c1bef5d3c65ff5e59bbca","null","null","<p style=""font-size: 60px; font-family: BACS"">tmYhYDE</p>","","","","","","","","",""
"html-keyboard-response","338","618438","0.0-16.0-0.6","60f6b8f8e574e14634ead43e","650c16f0f2faf8d7a0d14c09","651c1bef5d3c65ff5e59bbca","null","null","<p style=""font-size: 60px; font-family: BACS"">tmYhYDE</p>","","","","","","","","",""
"html-keyboard-response","339","619453","0.0-16.0-0.7","60f6b8f8e574e14634ead43e","650c16f0f2faf8d7a0d14c09","651c1bef5d3c65ff5e59bbca","null","null","<p style=""font-size: 60px; font-family: BACS"">tmYhYDE</p>","","","","","","","","",""
"html-keyboard-response","340","620461","0.0-16.0-0.8","60f6b8f8e574e14634ead43e","650c16f0f2faf8d7a0d14c09","651c1bef5d3c65ff5e59bbca","null","null","<p style=""font-size: 60px; font-family: BACS"">tmYhYDE</p>","","","","","","","","",""
"html-keyboard-response","341","621470","0.0-16.0-0.9","60f6b8f8e574e14634ead43e","650c16f0f2faf8d7a0d14c09","651c1bef5d3c65ff5e59bbca","null","null","<p style=""font-size: 60px; font-family: BACS"">tmYhYDE</p>","","","","","","","","",""
"html-keyboard-response","342","622487","0.0-16.0-0.10","60f6b8f8e574e14634ead43e","650c16f0f2faf8d7a0d14c09","651c1bef5d3c65ff5e59bbca","null","null","<p style=""font-size: 60px; font-family: BACS"">tmYhYDE</p>","","","","","","","","",""
"html-keyboard-response","343","623499","0.0-16.0-0.11","60f6b8f8e574e14634ead43e","650c16f0f2faf8d7a0d14c09","651c1bef5d3c65ff5e59bbca","null","null","<p style=""font-size: 60px; font-family: BACS"">tmYhYDE</p>","","","","","","","","",""
"html-keyboard-response","344","624519","0.0-16.0-0.12","60f6b8f8e574e14634ead43e","650c16f0f2faf8d7a0d14c09","651c1bef5d3c65ff5e59bbca","null","null","<p style=""font-size: 60px; font-family: BACS"">tmYhYDE</p>","","","","","","","","",""
"html-keyboard-response","345","625528","0.0-16.0-0.13","60f6b8f8e574e14634ead43e","650c16f0f2faf8d7a0d14c09","651c1bef5d3c65ff5e59bbca","null","null","<p style=""font-size: 60px; font-family: BACS"">tmYhYDE</p>","","","","","","","","",""
"html-keyboard-response","346","626535","0.0-16.0-0.14","60f6b8f8e574e14634ead43e","650c16f0f2faf8d7a0d14c09","651c1bef5d3c65ff5e59bbca","null","null","<p style=""font-size: 60px; font-family: BACS"">tmYhYDE</p>","","","","","","","","",""
"html-keyboard-response","347","627544","0.0-16.0-0.15","60f6b8f8e574e14634ead43e","650c16f0f2faf8d7a0d14c09","651c1bef5d3c65ff5e59bbca","null","null","<p style=""font-size: 60px; font-family: BACS"">tmYhYDE</p>","","","","","","","","",""
"html-keyboard-response","348","628559","0.0-16.0-0.16","60f6b8f8e574e14634ead43e","650c16f0f2faf8d7a0d14c09","651c1bef5d3c65ff5e59bbca","null","null","<p style=""font-size: 60px; font-family: BACS"">tmYhYDE</p>","","","","","","","","",""
"html-keyboard-response","349","629578","0.0-16.0-0.17","60f6b8f8e574e14634ead43e","650c16f0f2faf8d7a0d14c09","651c1bef5d3c65ff5e59bbca","null","null","<p style=""font-size: 60px; font-family: BACS"">tmYhYDE</p>","","","","","","","","",""
"html-keyboard-response","350","630585","0.0-16.0-0.18","60f6b8f8e574e14634ead43e","650c16f0f2faf8d7a0d14c09","651c1bef5d3c65ff5e59bbca","null","null","<p style=""font-size: 60px; font-family: BACS"">tmYhYDE</p>","","","","","","","","",""
"html-keyboard-response","351","631593","0.0-16.0-0.19","60f6b8f8e574e14634ead43e","650c16f0f2faf8d7a0d14c09","651c1bef5d3c65ff5e59bbca","null","null","<p style=""font-size: 60px; font-family: BACS"">tmYhYDE</p>","","","","","","","","",""
"html-keyboard-response","352","632601","0.0-16.0-0.20","60f6b8f8e574e14634ead43e","650c16f0f2faf8d7a0d14c09","651c1bef5d3c65ff5e59bbca","null","null","<p style=""font-size: 60px; font-family: BACS"">tmYhYDE</p>","","","","","","","","",""
"html-keyboard-response","353","633610","0.0-16.0-0.21","60f6b8f8e574e14634ead43e","650c16f0f2faf8d7a0d14c09","651c1bef5d3c65ff5e59bbca","null","null","<p style=""font-size: 60px; font-family: BACS"">tmYhYDE</p>","","","","","","","","",""
"html-keyboard-response","354","634626","0.0-16.0-0.22","60f6b8f8e574e14634ead43e","650c16f0f2faf8d7a0d14c09","651c1bef5d3c65ff5e59bbca","null","null","<p style=""font-size: 60px; font-family: BACS"">tmYhYDE</p>","","","","","","","","",""
"html-keyboard-response","355","635631","0.0-16.0-0.23","60f6b8f8e574e14634ead43e","650c16f0f2faf8d7a0d14c09","651c1bef5d3c65ff5e59bbca","null","null","<p style=""font-size: 60px; font-family: BACS"">tmYhYDE</p>","","","","","","","","",""
"html-keyboard-response","356","636647","0.0-16.0-0.24","60f6b8f8e574e14634ead43e","650c16f0f2faf8d7a0d14c09","651c1bef5d3c65ff5e59bbca","null","null","<p style=""font-size: 60px; font-family: BACS"">tmYhYDE</p>","","","","","","","","",""
"html-keyboard-response","357","637658","0.0-16.0-0.25","60f6b8f8e574e14634ead43e","650c16f0f2faf8d7a0d14c09","651c1bef5d3c65ff5e59bbca","null","null","<p style=""font-size: 60px; font-family: BACS"">tmYhYDE</p>","","","","","","","","",""
"html-keyboard-response","358","638667","0.0-16.0-0.26","60f6b8f8e574e14634ead43e","650c16f0f2faf8d7a0d14c09","651c1bef5d3c65ff5e59bbca","null","null","<p style=""font-size: 60px; font-family: BACS"">tmYhYDE</p>","","","","","","","","",""
"html-keyboard-response","359","639680","0.0-16.0-0.27","60f6b8f8e574e14634ead43e","650c16f0f2faf8d7a0d14c09","651c1bef5d3c65ff5e59bbca","null","null","<p style=""font-size: 60px; font-family: BACS"">tmYhYDE</p>","","","","","","","","",""
"html-keyboard-response","360","640691","0.0-16.0-0.28","60f6b8f8e574e14634ead43e","650c16f0f2faf8d7a0d14c09","651c1bef5d3c65ff5e59bbca","null","null","<p style=""font-size: 60px; font-family: BACS"">tmYhYDE</p>","","","","","","","","",""
"html-keyboard-response","361","641699","0.0-16.0-0.29","60f6b8f8e574e14634ead43e","650c16f0f2faf8d7a0d14c09","651c1bef5d3c65ff5e59bbca","null","null","<p style=""font-size: 60px; font-family: BACS"">tmYhYDE</p>","","","","","","","","",""
"html-keyboard-response","362","642714","0.0-16.0-0.30","60f6b8f8e574e14634ead43e","650c16f0f2faf8d7a0d14c09","651c1bef5d3c65ff5e59bbca","null","null","<p style=""font-size: 60px; font-family: BACS"">tmYhYDE</p>","","","","","","","","",""
"html-keyboard-response","363","643730","0.0-16.0-0.31","60f6b8f8e574e14634ead43e","650c16f0f2faf8d7a0d14c09","651c1bef5d3c65ff5e59bbca","null","null","<p style=""font-size: 60px; font-family: BACS"">tmYhYDE</p>","","","","","","","","",""
"html-keyboard-response","364","644741","0.0-16.0-0.32","60f6b8f8e574e14634ead43e","650c16f0f2faf8d7a0d14c09","651c1bef5d3c65ff5e59bbca","null","null","<p style=""font-size: 60px; font-family: BACS"">tmYhYDE</p>","","","","","","","","",""
"html-keyboard-response","365","645747","0.0-16.0-0.33","60f6b8f8e574e14634ead43e","650c16f0f2faf8d7a0d14c09","651c1bef5d3c65ff5e59bbca","null","null","<p style=""font-size: 60px; font-family: BACS"">tmYhYDE</p>","","","","","","","","",""
"html-keyboard-response","366","646754","0.0-16.0-0.34","60f6b8f8e574e14634ead43e","650c16f0f2faf8d7a0d14c09","651c1bef5d3c65ff5e59bbca","null","null","<p style=""font-size: 60px; font-family: BACS"">tmYhYDE</p>","","","","","","","","",""
"html-keyboard-response","367","647770","0.0-16.0-0.35","60f6b8f8e574e14634ead43e","650c16f0f2faf8d7a0d14c09","651c1bef5d3c65ff5e59bbca","null","null","<p style=""font-size: 60px; font-family: BACS"">tmYhYDE</p>","","","","","","","","",""
"html-keyboard-response","368","648780","0.0-16.0-0.36","60f6b8f8e574e14634ead43e","650c16f0f2faf8d7a0d14c09","651c1bef5d3c65ff5e59bbca","null","null","<p style=""font-size: 60px; font-family: BACS"">tmYhYDE</p>","","","","","","","","",""
"html-keyboard-response","369","649786","0.0-16.0-0.37","60f6b8f8e574e14634ead43e","650c16f0f2faf8d7a0d14c09","651c1bef5d3c65ff5e59bbca","null","null","<p style=""font-size: 60px; font-family: BACS"">tmYhYDE</p>","","","","","","","","",""
"html-keyboard-response","370","650794","0.0-16.0-0.38","60f6b8f8e574e14634ead43e","650c16f0f2faf8d7a0d14c09","651c1bef5d3c65ff5e59bbca","null","null","<p style=""font-size: 60px; font-family: BACS"">tmYhYDE</p>","","","","","","","","",""
"html-keyboard-response","371","651803","0.0-16.0-0.39","60f6b8f8e574e14634ead43e","650c16f0f2faf8d7a0d14c09","651c1bef5d3c65ff5e59bbca","null","null","<p style=""font-size: 60px; font-family: BACS"">tmYhYDE</p>","","","","","","","","",""
"html-keyboard-response","372","652806","0.0-16.0-0.40","60f6b8f8e574e14634ead43e","650c16f0f2faf8d7a0d14c09","651c1bef5d3c65ff5e59bbca","null","null","<p style=""font-size: 60px; font-family: BACS"">tmYhYDE</p>","","","","","","","","",""
"html-keyboard-response","373","653821","0.0-16.0-0.41","60f6b8f8e574e14634ead43e","650c16f0f2faf8d7a0d14c09","651c1bef5d3c65ff5e59bbca","null","null","<p style=""font-size: 60px; font-family: BACS"">tmYhYDE</p>","","","","","","","","",""
"html-keyboard-response","374","654828","0.0-16.0-0.42","60f6b8f8e574e14634ead43e","650c16f0f2faf8d7a0d14c09","651c1bef5d3c65ff5e59bbca","null","null","<p style=""font-size: 60px; font-family: BACS"">tmYhYDE</p>","","","","","","","","",""
"html-keyboard-response","375","655836","0.0-16.0-0.43","60f6b8f8e574e14634ead43e","650c16f0f2faf8d7a0d14c09","651c1bef5d3c65ff5e59bbca","null","null","<p style=""font-size: 60px; font-family: BACS"">tmYhYDE</p>","","","","","","","","",""
"html-keyboard-response","376","656845","0.0-16.0-0.44","60f6b8f8e574e14634ead43e","650c16f0f2faf8d7a0d14c09","651c1bef5d3c65ff5e59bbca","null","null","<p style=""font-size: 60px; font-family: BACS"">tmYhYDE</p>","","","","","","","","",""
"html-keyboard-response","377","657853","0.0-16.0-0.45","60f6b8f8e574e14634ead43e","650c16f0f2faf8d7a0d14c09","651c1bef5d3c65ff5e59bbca","null","null","<p style=""font-size: 60px; font-family: BACS"">tmYhYDE</p>","","","","","","","","",""
"html-keyboard-response","378","658870","0.0-16.0-0.46","60f6b8f8e574e14634ead43e","650c16f0f2faf8d7a0d14c09","651c1bef5d3c65ff5e59bbca","null","null","<p style=""font-size: 60px; font-family: BACS"">tmYhYDE</p>","","","","","","","","",""
"html-keyboard-response","379","659878","0.0-16.0-0.47","60f6b8f8e574e14634ead43e","650c16f0f2faf8d7a0d14c09","651c1bef5d3c65ff5e59bbca","null","null","<p style=""font-size: 60px; font-family: BACS"">tmYhYDE</p>","","","","","","","","",""
"html-keyboard-response","380","660887","0.0-16.0-0.48","60f6b8f8e574e14634ead43e","650c16f0f2faf8d7a0d14c09","651c1bef5d3c65ff5e59bbca","null","null","<p style=""font-size: 60px; font-family: BACS"">tmYhYDE</p>","","","","","","","","",""
"html-keyboard-response","381","661900","0.0-16.0-0.49","60f6b8f8e574e14634ead43e","650c16f0f2faf8d7a0d14c09","651c1bef5d3c65ff5e59bbca","null","null","<p style=""font-size: 60px; font-family: BACS"">tmYhYDE</p>","","","","","","","","",""
"html-keyboard-response","382","662917","0.0-16.0-0.50","60f6b8f8e574e14634ead43e","650c16f0f2faf8d7a0d14c09","651c1bef5d3c65ff5e59bbca","null","null","<p style=""font-size: 60px; font-family: BACS"">tmYhYDE</p>","","","","","","","","",""
"html-keyboard-response","383","663934","0.0-16.0-0.51","60f6b8f8e574e14634ead43e","650c16f0f2faf8d7a0d14c09","651c1bef5d3c65ff5e59bbca","null","null","<p style=""font-size: 60px; font-family: BACS"">tmYhYDE</p>","","","","","","","","",""
"html-keyboard-response","384","664949","0.0-16.0-0.52","60f6b8f8e574e14634ead43e","650c16f0f2faf8d7a0d14c09","651c1bef5d3c65ff5e59bbca","null","null","<p style=""font-size: 60px; font-family: BACS"">tmYhYDE</p>","","","","","","","","",""
"html-keyboard-response","385","665952","0.0-16.0-0.53","60f6b8f8e574e14634ead43e","650c16f0f2faf8d7a0d14c09","651c1bef5d3c65ff5e59bbca","null","null","<p style=""font-size: 60px; font-family: BACS"">tmYhYDE</p>","","","","","","","","",""
"html-keyboard-response","386","666967","0.0-16.0-0.54","60f6b8f8e574e14634ead43e","650c16f0f2faf8d7a0d14c09","651c1bef5d3c65ff5e59bbca","null","null","<p style=""font-size: 60px; font-family: BACS"">tmYhYDE</p>","","","","","","","","",""
"html-keyboard-response","387","667981","0.0-16.0-0.55","60f6b8f8e574e14634ead43e","650c16f0f2faf8d7a0d14c09","651c1bef5d3c65ff5e59bbca","null","null","<p style=""font-size: 60px; font-family: BACS"">tmYhYDE</p>","","","","","","","","",""
"html-keyboard-response","388","668984","0.0-16.0-0.56","60f6b8f8e574e14634ead43e","650c16f0f2faf8d7a0d14c09","651c1bef5d3c65ff5e59bbca","null","null","<p style=""font-size: 60px; font-family: BACS"">tmYhYDE</p>","","","","","","","","",""
"html-keyboard-response","389","670000","0.0-16.0-0.57","60f6b8f8e574e14634ead43e","650c16f0f2faf8d7a0d14c09","651c1bef5d3c65ff5e59bbca","null","null","<p style=""font-size: 60px; font-family: BACS"">tmYhYDE</p>","","","","","","","","",""
"html-keyboard-response","390","671017","0.0-16.0-0.58","60f6b8f8e574e14634ead43e","650c16f0f2faf8d7a0d14c09","651c1bef5d3c65ff5e59bbca","null","null","<p style=""font-size: 60px; font-family: BACS"">tmYhYDE</p>","","","","","","","","",""
"html-keyboard-response","391","672033","0.0-16.0-0.59","60f6b8f8e574e14634ead43e","650c16f0f2faf8d7a0d14c09","651c1bef5d3c65ff5e59bbca","null","null","<p style=""font-size: 60px; font-family: BACS"">tmYhYDE</p>","","","","","","","","",""
"html-keyboard-response","392","673048","0.0-16.0-0.60","60f6b8f8e574e14634ead43e","650c16f0f2faf8d7a0d14c09","651c1bef5d3c65ff5e59bbca","null","null","<p style=""font-size: 60px; font-family: BACS"">tmYhYDE</p>","","","","","","","","",""
"html-keyboard-response","393","674065","0.0-16.0-0.61","60f6b8f8e574e14634ead43e","650c16f0f2faf8d7a0d14c09","651c1bef5d3c65ff5e59bbca","null","null","<p style=""font-size: 60px; font-family: BACS"">tmYhYDE</p>","","","","","","","","",""
"html-keyboard-response","394","675076","0.0-16.0-0.62","60f6b8f8e574e14634ead43e","650c16f0f2faf8d7a0d14c09","651c1bef5d3c65ff5e59bbca","null","null","<p style=""font-size: 60px; font-family: BACS"">tmYhYDE</p>","","","","","","","","",""
"html-keyboard-response","395","676086","0.0-16.0-0.63","60f6b8f8e574e14634ead43e","650c16f0f2faf8d7a0d14c09","651c1bef5d3c65ff5e59bbca","null","null","<p style=""font-size: 60px; font-family: BACS"">tmYhYDE</p>","","","","","","","","",""
"html-keyboard-response","396","677100","0.0-16.0-0.64","60f6b8f8e574e14634ead43e","650c16f0f2faf8d7a0d14c09","651c1bef5d3c65ff5e59bbca","null","null","<p style=""font-size: 60px; font-family: BACS"">tmYhYDE</p>","","","","","","","","",""
"html-keyboard-response","397","678113","0.0-16.0-0.65","60f6b8f8e574e14634ead43e","650c16f0f2faf8d7a0d14c09","651c1bef5d3c65ff5e59bbca","null","null","<p style=""font-size: 60px; font-family: BACS"">tmYhYDE</p>","","","","","","","","",""
"html-keyboard-response","398","679123","0.0-16.0-0.66","60f6b8f8e574e14634ead43e","650c16f0f2faf8d7a0d14c09","651c1bef5d3c65ff5e59bbca","null","null","<p style=""font-size: 60px; font-family: BACS"">tmYhYDE</p>","","","","","","","","",""
"html-keyboard-response","399","680132","0.0-16.0-0.67","60f6b8f8e574e14634ead43e","650c16f0f2faf8d7a0d14c09","651c1bef5d3c65ff5e59bbca","null","null","<p style=""font-size: 60px; font-family: BACS"">tmYhYDE</p>","","","","","","","","",""
