"trial_type","trial_index","time_elapsed","internal_node_id","subject_id","study_id","session_id","rt","response","stimulus","success","item","task","correct_response","testing_condition","correct","target","confound","name"
"pavlovia","0","758","0.0-0.0","60b7b8126c0c4524e913236e","650c16f0f2faf8d7a0d14c09","651c1c16a5f67c0d69075afd","","","","","","","","","","","",""
"survey-html-form","1","7449","0.0-1.0","60b7b8126c0c4524e913236e","650c16f0f2faf8d7a0d14c09","651c1c16a5f67c0d69075afd","6688","{""ID"":""60b7b8126c0c4524e913236e""}","","","","","","","","","",""
"html-keyboard-response","2","12180","0.0-2.0","60b7b8126c0c4524e913236e","650c16f0f2faf8d7a0d14c09","651c1c16a5f67c0d69075afd","4730"," ","<p style=""font-size: 15px;"">Before beginning, we ask that you read the consent information and confirm your agreement to participate in the experiment.</p>
      <p style=""font-size: 15px;""> We ask that you remember that this is a research project and that your participation is entirely voluntary. You can stop your participation at any time, without needing to provide any explanation. The study we're asking you to participate in aims at examining how readers process written words. You will be engaged in a session of apprximately 20 minutes, followed by a brief questionnaire. You will have the opportunity to take a few breaks during the experiment. You will be paid £4 for your participation, corresponding to a rate of £8/hour. While this experiment looks at cognitive faculties, this experiment doesn't constitute clinical proof of eventual pathologies.</p>
      <p style=""font-size: 15px;"">All of the information collected thanks to yours and others' participation will be held in a secure password-protected server, and will not be shared with anyone not authorised to view it. Your personal information will be kept with an arbitrary participant ID. Thanks to this data anonymity process, any researcher analysing the data won't be able to track the information back to a specific participant. Therefore, this process will make identifying you impossibile, even when results from the study will be published in scientific reviews, presented at congresses, or at any other public forum. More generally, the collected data will be treated in accordance with the laws on privacy and conformity to the Legislative Degree n. 196 ""Code regarding the protection of personal data"" of the 30th of June 2003 and to the European Regulation 2016/670 (General Data Protection Regulation - GDPR). The Data Protection Officer is Avv. Valentina Carollo, who can be contacted at the following email addresses: <a href=""mailto:dpo@sissa.it"">dpo@sissa.it</a> or <a href=""mailto:rpd@sissa.it"">rpd@sissa.it</a> - PEC: <a href=""mailto:protocollo@pec.sissa.it"">protocollo@pec.sissa.it</a>.</p>
      <p style=""font-size: 15px;""> Before expressing your consent to participate, we would like to remind you again that in case you need explanations on any aspect of the experimental procedure, the researcher is at your disposition (<a href=""mailto:aliebelt@sissa.it"">aliebelt@sissa.it</a>, <a href=""mailto:davide.crepaldi@sissa.it"">davide.crepaldi@sissa.it</a>).</p>
      <p style=""font-size: 15px;"">If you would like to download the informed consent form, you can do so here: <a href=""BASL-Informed_Consent.pdf"" download>informed consent form</a>.</p>
      <p style=""font-size: 15px;"">We ask that you press the spacebar to proceed to the consent section.</p>","","","","","","","","",""
"survey-html-form","3","29081","0.0-3.0","60b7b8126c0c4524e913236e","650c16f0f2faf8d7a0d14c09","651c1c16a5f67c0d69075afd","16899","{""consent1"":""YES"",""consent2"":""YES"",""consent3"":""YES"",""consent4"":""YES"",""consent5"":""YES"",""consent6"":""YES""}","","","","","","","","","",""
"fullscreen","4","35274","0.0-4.0","60b7b8126c0c4524e913236e","650c16f0f2faf8d7a0d14c09","651c1c16a5f67c0d69075afd","","","","true","","","","","","","",""
"html-keyboard-response","5","48387","0.0-5.0","60b7b8126c0c4524e913236e","650c16f0f2faf8d7a0d14c09","651c1c16a5f67c0d69075afd","13110"," ","<p>Welcome, and thank you very much for your time!</p>
      <p>In this experiment, you'll be a language expert who's been asked to take a look at words that Earth has received in its first communication with aliens. Your task, in this first part of the experiment, is to pay close attention to the words you'll be shown; later, world leaders will ask you questions on what you saw. The words will be shown to you quite quickly; it seems that the aliens were in a hurry :-)</p>
      <p>Press the spacebar to continue.<p>","","","","","","","","",""
"html-keyboard-response","6","48438","0.0-6.0","60b7b8126c0c4524e913236e","650c16f0f2faf8d7a0d14c09","651c1c16a5f67c0d69075afd","null","null","<p style=""font-size: 120px; font-family: BACS""> </p>","","","","","","","","",""
"html-keyboard-response","7","53755","0.0-7.0","60b7b8126c0c4524e913236e","650c16f0f2faf8d7a0d14c09","651c1c16a5f67c0d69075afd","5316"," ","<p>Here is an example of the words you'll see:</p>
      <img src='esempio.png' height='400px'>
      <p>When you're ready to begin, press the spacebar.</p></div>","","","","","","","","",""
"html-keyboard-response","8","54771","0.0-8.0-0.0","60b7b8126c0c4524e913236e","650c16f0f2faf8d7a0d14c09","651c1c16a5f67c0d69075afd","null","null","<p style=""font-size: 60px; font-family: BACS"">dkLlQru</p>","","","","","","","","",""
"html-keyboard-response","9","55785","0.0-8.0-0.1","60b7b8126c0c4524e913236e","650c16f0f2faf8d7a0d14c09","651c1c16a5f67c0d69075afd","null","null","<p style=""font-size: 60px; font-family: BACS"">UvOGAZbl</p>","","","","","","","","",""
"html-keyboard-response","10","56790","0.0-8.0-0.2","60b7b8126c0c4524e913236e","650c16f0f2faf8d7a0d14c09","651c1c16a5f67c0d69075afd","null","null","<p style=""font-size: 60px; font-family: BACS"">kPOtTmc</p>","","","","","","","","",""
"html-keyboard-response","11","57798","0.0-8.0-0.3","60b7b8126c0c4524e913236e","650c16f0f2faf8d7a0d14c09","651c1c16a5f67c0d69075afd","null","null","<p style=""font-size: 60px; font-family: BACS"">LvuOGQru</p>","","","","","","","","",""
"html-keyboard-response","12","58800","0.0-8.0-0.4","60b7b8126c0c4524e913236e","650c16f0f2faf8d7a0d14c09","651c1c16a5f67c0d69075afd","null","null","<p style=""font-size: 60px; font-family: BACS"">ABPRBCKOb</p>","","","","","","","","",""
"html-keyboard-response","13","59811","0.0-8.0-0.5","60b7b8126c0c4524e913236e","650c16f0f2faf8d7a0d14c09","651c1c16a5f67c0d69075afd","null","null","<p style=""font-size: 60px; font-family: BACS"">UYZlZaQr</p>","","","","","","","","",""
"html-keyboard-response","14","60813","0.0-8.0-0.6","60b7b8126c0c4524e913236e","650c16f0f2faf8d7a0d14c09","651c1c16a5f67c0d69075afd","null","null","<p style=""font-size: 60px; font-family: BACS"">DdckTmc</p>","","","","","","","","",""
"html-keyboard-response","15","61827","0.0-8.0-0.7","60b7b8126c0c4524e913236e","650c16f0f2faf8d7a0d14c09","651c1c16a5f67c0d69075afd","null","null","<p style=""font-size: 60px; font-family: BACS"">LQurLaA</p>","","","","","","","","",""
"html-keyboard-response","16","62832","0.0-8.0-0.8","60b7b8126c0c4524e913236e","650c16f0f2faf8d7a0d14c09","651c1c16a5f67c0d69075afd","null","null","<p style=""font-size: 60px; font-family: BACS"">YmBdCKOb</p>","","","","","","","","",""
"html-keyboard-response","17","63839","0.0-8.0-0.9","60b7b8126c0c4524e913236e","650c16f0f2faf8d7a0d14c09","651c1c16a5f67c0d69075afd","null","null","<p style=""font-size: 60px; font-family: BACS"">LQurAZbl</p>","","","","","","","","",""
"html-keyboard-response","18","64840","0.0-8.0-0.10","60b7b8126c0c4524e913236e","650c16f0f2faf8d7a0d14c09","651c1c16a5f67c0d69075afd","null","null","<p style=""font-size: 60px; font-family: BACS"">DmAMETmc</p>","","","","","","","","",""
"html-keyboard-response","19","65844","0.0-8.0-0.11","60b7b8126c0c4524e913236e","650c16f0f2faf8d7a0d14c09","651c1c16a5f67c0d69075afd","null","null","<p style=""font-size: 60px; font-family: BACS"">kGlUYaOk</p>","","","","","","","","",""
"html-keyboard-response","20","66847","0.0-8.0-0.12","60b7b8126c0c4524e913236e","650c16f0f2faf8d7a0d14c09","651c1c16a5f67c0d69075afd","null","null","<p style=""font-size: 60px; font-family: BACS"">kcCRtTmc</p>","","","","","","","","",""
"html-keyboard-response","21","67855","0.0-8.0-0.13","60b7b8126c0c4524e913236e","650c16f0f2faf8d7a0d14c09","651c1c16a5f67c0d69075afd","null","null","<p style=""font-size: 60px; font-family: BACS"">JAdLmaQr</p>","","","","","","","","",""
"html-keyboard-response","22","68871","0.0-8.0-0.14","60b7b8126c0c4524e913236e","650c16f0f2faf8d7a0d14c09","651c1c16a5f67c0d69075afd","null","null","<p style=""font-size: 60px; font-family: BACS"">kcCRtCKOb</p>","","","","","","","","",""
"html-keyboard-response","23","69878","0.0-8.0-0.15","60b7b8126c0c4524e913236e","650c16f0f2faf8d7a0d14c09","651c1c16a5f67c0d69075afd","null","null","<p style=""font-size: 60px; font-family: BACS"">KTDTBPTl</p>","","","","","","","","",""
"html-keyboard-response","24","70886","0.0-8.0-0.16","60b7b8126c0c4524e913236e","650c16f0f2faf8d7a0d14c09","651c1c16a5f67c0d69075afd","null","null","<p style=""font-size: 60px; font-family: BACS"">DmAMECMdP</p>","","","","","","","","",""
"html-keyboard-response","25","71896","0.0-8.0-0.17","60b7b8126c0c4524e913236e","650c16f0f2faf8d7a0d14c09","651c1c16a5f67c0d69075afd","null","null","<p style=""font-size: 60px; font-family: BACS"">JAdLmQru</p>","","","","","","","","",""
"html-keyboard-response","26","72906","0.0-8.0-0.18","60b7b8126c0c4524e913236e","650c16f0f2faf8d7a0d14c09","651c1c16a5f67c0d69075afd","null","null","<p style=""font-size: 60px; font-family: BACS"">OAblcYaOk</p>","","","","","","","","",""
"html-keyboard-response","27","73908","0.0-8.0-0.19","60b7b8126c0c4524e913236e","650c16f0f2faf8d7a0d14c09","651c1c16a5f67c0d69075afd","null","null","<p style=""font-size: 60px; font-family: BACS"">kGlUAZbl</p>","","","","","","","","",""
"html-keyboard-response","28","74914","0.0-8.0-0.20","60b7b8126c0c4524e913236e","650c16f0f2faf8d7a0d14c09","651c1c16a5f67c0d69075afd","null","null","<p style=""font-size: 60px; font-family: BACS"">bmbNYaOk</p>","","","","","","","","",""
"html-keyboard-response","29","75920","0.0-8.0-0.21","60b7b8126c0c4524e913236e","650c16f0f2faf8d7a0d14c09","651c1c16a5f67c0d69075afd","null","null","<p style=""font-size: 60px; font-family: BACS"">OAblcAZbl</p>","","","","","","","","",""
"html-keyboard-response","30","76923","0.0-8.0-0.22","60b7b8126c0c4524e913236e","650c16f0f2faf8d7a0d14c09","651c1c16a5f67c0d69075afd","null","null","<p style=""font-size: 60px; font-family: BACS"">kGlULaA</p>","","","","","","","","",""
"html-keyboard-response","31","77924","0.0-8.0-0.23","60b7b8126c0c4524e913236e","650c16f0f2faf8d7a0d14c09","651c1c16a5f67c0d69075afd","null","null","<p style=""font-size: 60px; font-family: BACS"">kcCRtTPOM</p>","","","","","","","","",""
"html-keyboard-response","32","78927","0.0-8.0-0.24","60b7b8126c0c4524e913236e","650c16f0f2faf8d7a0d14c09","651c1c16a5f67c0d69075afd","null","null","<p style=""font-size: 60px; font-family: BACS"">DCmhCKOb</p>","","","","","","","","",""
"html-keyboard-response","33","79943","0.0-8.0-0.25","60b7b8126c0c4524e913236e","650c16f0f2faf8d7a0d14c09","651c1c16a5f67c0d69075afd","null","null","<p style=""font-size: 60px; font-family: BACS"">ObOQlaQr</p>","","","","","","","","",""
"html-keyboard-response","34","80956","0.0-8.0-0.26","60b7b8126c0c4524e913236e","650c16f0f2faf8d7a0d14c09","651c1c16a5f67c0d69075afd","null","null","<p style=""font-size: 60px; font-family: BACS"">UYZlZQru</p>","","","","","","","","",""
"html-keyboard-response","35","81959","0.0-8.0-0.27","60b7b8126c0c4524e913236e","650c16f0f2faf8d7a0d14c09","651c1c16a5f67c0d69075afd","null","null","<p style=""font-size: 60px; font-family: BACS"">KTDTBCMdP</p>","","","","","","","","",""
"html-keyboard-response","36","82971","0.0-8.0-0.28","60b7b8126c0c4524e913236e","650c16f0f2faf8d7a0d14c09","651c1c16a5f67c0d69075afd","null","null","<p style=""font-size: 60px; font-family: BACS"">YmBdTPOM</p>","","","","","","","","",""
"html-keyboard-response","37","83984","0.0-8.0-0.29","60b7b8126c0c4524e913236e","650c16f0f2faf8d7a0d14c09","651c1c16a5f67c0d69075afd","null","null","<p style=""font-size: 60px; font-family: BACS"">kcCRtCMdP</p>","","","","","","","","",""
"html-keyboard-response","38","84990","0.0-8.0-0.30","60b7b8126c0c4524e913236e","650c16f0f2faf8d7a0d14c09","651c1c16a5f67c0d69075afd","null","null","<p style=""font-size: 60px; font-family: BACS"">kGlUaQr</p>","","","","","","","","",""
"html-keyboard-response","39","86001","0.0-8.0-0.31","60b7b8126c0c4524e913236e","650c16f0f2faf8d7a0d14c09","651c1c16a5f67c0d69075afd","null","null","<p style=""font-size: 60px; font-family: BACS"">DdckTPOM</p>","","","","","","","","",""
"html-keyboard-response","40","87015","0.0-8.0-0.32","60b7b8126c0c4524e913236e","650c16f0f2faf8d7a0d14c09","651c1c16a5f67c0d69075afd","null","null","<p style=""font-size: 60px; font-family: BACS"">JAdLmLaA</p>","","","","","","","","",""
"html-keyboard-response","41","88017","0.0-8.0-0.33","60b7b8126c0c4524e913236e","650c16f0f2faf8d7a0d14c09","651c1c16a5f67c0d69075afd","null","null","<p style=""font-size: 60px; font-family: BACS"">ABPRBCMdP</p>","","","","","","","","",""
"html-keyboard-response","42","89029","0.0-8.0-0.34","60b7b8126c0c4524e913236e","650c16f0f2faf8d7a0d14c09","651c1c16a5f67c0d69075afd","null","null","<p style=""font-size: 60px; font-family: BACS"">mARMTPOM</p>","","","","","","","","",""
"html-keyboard-response","43","90043","0.0-8.0-0.35","60b7b8126c0c4524e913236e","650c16f0f2faf8d7a0d14c09","651c1c16a5f67c0d69075afd","null","null","<p style=""font-size: 60px; font-family: BACS"">DCmhTmc</p>","","","","","","","","",""
"html-keyboard-response","44","91048","0.0-8.0-0.36","60b7b8126c0c4524e913236e","650c16f0f2faf8d7a0d14c09","651c1c16a5f67c0d69075afd","null","null","<p style=""font-size: 60px; font-family: BACS"">LvuOGLaA</p>","","","","","","","","",""
"html-keyboard-response","45","92051","0.0-8.0-0.37","60b7b8126c0c4524e913236e","650c16f0f2faf8d7a0d14c09","651c1c16a5f67c0d69075afd","null","null","<p style=""font-size: 60px; font-family: BACS"">DdckPTl</p>","","","","","","","","",""
"html-keyboard-response","46","93063","0.0-8.0-0.38","60b7b8126c0c4524e913236e","650c16f0f2faf8d7a0d14c09","651c1c16a5f67c0d69075afd","null","null","<p style=""font-size: 60px; font-family: BACS"">KTDTBCKOb</p>","","","","","","","","",""
"html-keyboard-response","47","94066","0.0-8.0-0.39","60b7b8126c0c4524e913236e","650c16f0f2faf8d7a0d14c09","651c1c16a5f67c0d69075afd","null","null","<p style=""font-size: 60px; font-family: BACS"">DCmhCMdP</p>","","","","","","","","",""
"html-keyboard-response","48","95068","0.0-8.0-0.40","60b7b8126c0c4524e913236e","650c16f0f2faf8d7a0d14c09","651c1c16a5f67c0d69075afd","null","null","<p style=""font-size: 60px; font-family: BACS"">bmbNQru</p>","","","","","","","","",""
"html-keyboard-response","49","96079","0.0-8.0-0.41","60b7b8126c0c4524e913236e","650c16f0f2faf8d7a0d14c09","651c1c16a5f67c0d69075afd","null","null","<p style=""font-size: 60px; font-family: BACS"">RCcETPOM</p>","","","","","","","","",""
"html-keyboard-response","50","97081","0.0-8.0-0.42","60b7b8126c0c4524e913236e","650c16f0f2faf8d7a0d14c09","651c1c16a5f67c0d69075afd","null","null","<p style=""font-size: 60px; font-family: BACS"">LQurYaOk</p>","","","","","","","","",""
"html-keyboard-response","51","98087","0.0-8.0-0.43","60b7b8126c0c4524e913236e","650c16f0f2faf8d7a0d14c09","651c1c16a5f67c0d69075afd","null","null","<p style=""font-size: 60px; font-family: BACS"">RCcETmc</p>","","","","","","","","",""
"html-keyboard-response","52","99096","0.0-8.0-0.44","60b7b8126c0c4524e913236e","650c16f0f2faf8d7a0d14c09","651c1c16a5f67c0d69075afd","null","null","<p style=""font-size: 60px; font-family: BACS"">ObOQlAZbl</p>","","","","","","","","",""
"html-keyboard-response","53","100101","0.0-8.0-0.45","60b7b8126c0c4524e913236e","650c16f0f2faf8d7a0d14c09","651c1c16a5f67c0d69075afd","null","null","<p style=""font-size: 60px; font-family: BACS"">UYZlZLaA</p>","","","","","","","","",""
"html-keyboard-response","54","101113","0.0-8.0-0.46","60b7b8126c0c4524e913236e","650c16f0f2faf8d7a0d14c09","651c1c16a5f67c0d69075afd","null","null","<p style=""font-size: 60px; font-family: BACS"">mARMCMdP</p>","","","","","","","","",""
"html-keyboard-response","55","102129","0.0-8.0-0.47","60b7b8126c0c4524e913236e","650c16f0f2faf8d7a0d14c09","651c1c16a5f67c0d69075afd","null","null","<p style=""font-size: 60px; font-family: BACS"">dkLlYaOk</p>","","","","","","","","",""
"html-keyboard-response","56","103132","0.0-8.0-0.48","60b7b8126c0c4524e913236e","650c16f0f2faf8d7a0d14c09","651c1c16a5f67c0d69075afd","null","null","<p style=""font-size: 60px; font-family: BACS"">LQurQru</p>","","","","","","","","",""
"html-keyboard-response","57","104144","0.0-8.0-0.49","60b7b8126c0c4524e913236e","650c16f0f2faf8d7a0d14c09","651c1c16a5f67c0d69075afd","null","null","<p style=""font-size: 60px; font-family: BACS"">RCcEPTl</p>","","","","","","","","",""
"html-keyboard-response","58","105158","0.0-8.0-0.50","60b7b8126c0c4524e913236e","650c16f0f2faf8d7a0d14c09","651c1c16a5f67c0d69075afd","null","null","<p style=""font-size: 60px; font-family: BACS"">UYZlZYaOk</p>","","","","","","","","",""
"html-keyboard-response","59","106173","0.0-8.0-0.51","60b7b8126c0c4524e913236e","650c16f0f2faf8d7a0d14c09","651c1c16a5f67c0d69075afd","null","null","<p style=""font-size: 60px; font-family: BACS"">DmAMETPOM</p>","","","","","","","","",""
"html-keyboard-response","60","107188","0.0-8.0-0.52","60b7b8126c0c4524e913236e","650c16f0f2faf8d7a0d14c09","651c1c16a5f67c0d69075afd","null","null","<p style=""font-size: 60px; font-family: BACS"">YmBdTmc</p>","","","","","","","","",""
"html-keyboard-response","61","108197","0.0-8.0-0.53","60b7b8126c0c4524e913236e","650c16f0f2faf8d7a0d14c09","651c1c16a5f67c0d69075afd","null","null","<p style=""font-size: 60px; font-family: BACS"">kPOtCMdP</p>","","","","","","","","",""
"html-keyboard-response","62","109206","0.0-8.0-0.54","60b7b8126c0c4524e913236e","650c16f0f2faf8d7a0d14c09","651c1c16a5f67c0d69075afd","null","null","<p style=""font-size: 60px; font-family: BACS"">dkLlaQr</p>","","","","","","","","",""
"html-keyboard-response","63","110208","0.0-8.0-0.55","60b7b8126c0c4524e913236e","650c16f0f2faf8d7a0d14c09","651c1c16a5f67c0d69075afd","null","null","<p style=""font-size: 60px; font-family: BACS"">DmAMEPTl</p>","","","","","","","","",""
"html-keyboard-response","64","111222","0.0-8.0-0.56","60b7b8126c0c4524e913236e","650c16f0f2faf8d7a0d14c09","651c1c16a5f67c0d69075afd","null","null","<p style=""font-size: 60px; font-family: BACS"">UvOGLaA</p>","","","","","","","","",""
"html-keyboard-response","65","112232","0.0-8.0-0.57","60b7b8126c0c4524e913236e","650c16f0f2faf8d7a0d14c09","651c1c16a5f67c0d69075afd","null","null","<p style=""font-size: 60px; font-family: BACS"">mARMCKOb</p>","","","","","","","","",""
"html-keyboard-response","66","113246","0.0-8.0-0.58","60b7b8126c0c4524e913236e","650c16f0f2faf8d7a0d14c09","651c1c16a5f67c0d69075afd","null","null","<p style=""font-size: 60px; font-family: BACS"">bmbNaQr</p>","","","","","","","","",""
"html-keyboard-response","67","114252","0.0-8.0-0.59","60b7b8126c0c4524e913236e","650c16f0f2faf8d7a0d14c09","651c1c16a5f67c0d69075afd","null","null","<p style=""font-size: 60px; font-family: BACS"">DCmhPTl</p>","","","","","","","","",""
"html-keyboard-response","68","115262","0.0-8.0-0.60","60b7b8126c0c4524e913236e","650c16f0f2faf8d7a0d14c09","651c1c16a5f67c0d69075afd","null","null","<p style=""font-size: 60px; font-family: BACS"">kPOtTPOM</p>","","","","","","","","",""
"html-keyboard-response","69","116266","0.0-8.0-0.61","60b7b8126c0c4524e913236e","650c16f0f2faf8d7a0d14c09","651c1c16a5f67c0d69075afd","null","null","<p style=""font-size: 60px; font-family: BACS"">LvuOGaQr</p>","","","","","","","","",""
"html-keyboard-response","70","117270","0.0-8.0-0.62","60b7b8126c0c4524e913236e","650c16f0f2faf8d7a0d14c09","651c1c16a5f67c0d69075afd","null","null","<p style=""font-size: 60px; font-family: BACS"">ObOQlQru</p>","","","","","","","","",""
"html-keyboard-response","71","118286","0.0-8.0-0.63","60b7b8126c0c4524e913236e","650c16f0f2faf8d7a0d14c09","651c1c16a5f67c0d69075afd","null","null","<p style=""font-size: 60px; font-family: BACS"">OAblcLaA</p>","","","","","","","","",""
"html-keyboard-response","72","119298","0.0-8.0-0.64","60b7b8126c0c4524e913236e","650c16f0f2faf8d7a0d14c09","651c1c16a5f67c0d69075afd","null","null","<p style=""font-size: 60px; font-family: BACS"">UvOGaQr</p>","","","","","","","","",""
"html-keyboard-response","73","120300","0.0-8.0-0.65","60b7b8126c0c4524e913236e","650c16f0f2faf8d7a0d14c09","651c1c16a5f67c0d69075afd","null","null","<p style=""font-size: 60px; font-family: BACS"">YmBdPTl</p>","","","","","","","","",""
"html-keyboard-response","74","121307","0.0-8.0-0.66","60b7b8126c0c4524e913236e","650c16f0f2faf8d7a0d14c09","651c1c16a5f67c0d69075afd","null","null","<p style=""font-size: 60px; font-family: BACS"">OAblcQru</p>","","","","","","","","",""
"html-keyboard-response","75","122309","0.0-8.0-0.67","60b7b8126c0c4524e913236e","650c16f0f2faf8d7a0d14c09","651c1c16a5f67c0d69075afd","null","null","<p style=""font-size: 60px; font-family: BACS"">ABPRBPTl</p>","","","","","","","","",""
"html-keyboard-response","76","123317","0.0-8.0-0.68","60b7b8126c0c4524e913236e","650c16f0f2faf8d7a0d14c09","651c1c16a5f67c0d69075afd","null","null","<p style=""font-size: 60px; font-family: BACS"">DdckCMdP</p>","","","","","","","","",""
"html-keyboard-response","77","124331","0.0-8.0-0.69","60b7b8126c0c4524e913236e","650c16f0f2faf8d7a0d14c09","651c1c16a5f67c0d69075afd","null","null","<p style=""font-size: 60px; font-family: BACS"">UvOGYaOk</p>","","","","","","","","",""
"html-keyboard-response","78","125346","0.0-8.0-0.70","60b7b8126c0c4524e913236e","650c16f0f2faf8d7a0d14c09","651c1c16a5f67c0d69075afd","null","null","<p style=""font-size: 60px; font-family: BACS"">LvuOGAZbl</p>","","","","","","","","",""
"html-keyboard-response","79","126362","0.0-8.0-0.71","60b7b8126c0c4524e913236e","650c16f0f2faf8d7a0d14c09","651c1c16a5f67c0d69075afd","null","null","<p style=""font-size: 60px; font-family: BACS"">KTDTBTPOM</p>","","","","","","","","",""
"html-keyboard-response","80","127376","0.0-8.0-0.72","60b7b8126c0c4524e913236e","650c16f0f2faf8d7a0d14c09","651c1c16a5f67c0d69075afd","null","null","<p style=""font-size: 60px; font-family: BACS"">RCcECKOb</p>","","","","","","","","",""
"html-keyboard-response","81","128389","0.0-8.0-0.73","60b7b8126c0c4524e913236e","650c16f0f2faf8d7a0d14c09","651c1c16a5f67c0d69075afd","null","null","<p style=""font-size: 60px; font-family: BACS"">JAdLmYaOk</p>","","","","","","","","",""
"html-keyboard-response","82","129393","0.0-8.0-0.74","60b7b8126c0c4524e913236e","650c16f0f2faf8d7a0d14c09","651c1c16a5f67c0d69075afd","null","null","<p style=""font-size: 60px; font-family: BACS"">mARMPTl</p>","","","","","","","","",""
"html-keyboard-response","83","130400","0.0-8.0-0.75","60b7b8126c0c4524e913236e","650c16f0f2faf8d7a0d14c09","651c1c16a5f67c0d69075afd","null","null","<p style=""font-size: 60px; font-family: BACS"">ObOQlLaA</p>","","","","","","","","",""
"html-keyboard-response","84","131402","0.0-8.0-0.76","60b7b8126c0c4524e913236e","650c16f0f2faf8d7a0d14c09","651c1c16a5f67c0d69075afd","null","null","<p style=""font-size: 60px; font-family: BACS"">dkLlAZbl</p>","","","","","","","","",""
"html-keyboard-response","85","132408","0.0-8.0-0.77","60b7b8126c0c4524e913236e","650c16f0f2faf8d7a0d14c09","651c1c16a5f67c0d69075afd","null","null","<p style=""font-size: 60px; font-family: BACS"">ABPRBTmc</p>","","","","","","","","",""
"html-keyboard-response","86","133410","0.0-8.0-0.78","60b7b8126c0c4524e913236e","650c16f0f2faf8d7a0d14c09","651c1c16a5f67c0d69075afd","null","null","<p style=""font-size: 60px; font-family: BACS"">kPOtCKOb</p>","","","","","","","","",""
"html-keyboard-response","87","134418","0.0-8.0-0.79","60b7b8126c0c4524e913236e","650c16f0f2faf8d7a0d14c09","651c1c16a5f67c0d69075afd","null","null","<p style=""font-size: 60px; font-family: BACS"">bmbNAZbl</p>","","","","","","","","",""
"html-keyboard-response","88","401196","0.0-9.0","60b7b8126c0c4524e913236e","650c16f0f2faf8d7a0d14c09","651c1c16a5f67c0d69075afd","266776"," ","<p>Great, you've seen the first block of words. You may now take a short break.</p>
      <p>Press the spacebar when you're ready to continue.</p>","","","","","","","","",""
"html-keyboard-response","89","402200","0.0-10.0-0.0","60b7b8126c0c4524e913236e","650c16f0f2faf8d7a0d14c09","651c1c16a5f67c0d69075afd","null","null","<p style=""font-size: 60px; font-family: BACS"">UvOGAZbl</p>","","","","","","","","",""
"html-keyboard-response","90","403216","0.0-10.0-0.1","60b7b8126c0c4524e913236e","650c16f0f2faf8d7a0d14c09","651c1c16a5f67c0d69075afd","null","null","<p style=""font-size: 60px; font-family: BACS"">OAblcLaA</p>","","","","","","","","",""
"html-keyboard-response","91","404222","0.0-10.0-0.2","60b7b8126c0c4524e913236e","650c16f0f2faf8d7a0d14c09","651c1c16a5f67c0d69075afd","null","null","<p style=""font-size: 60px; font-family: BACS"">UYZlZaQr</p>","","","","","","","","",""
"html-keyboard-response","92","405237","0.0-10.0-0.3","60b7b8126c0c4524e913236e","650c16f0f2faf8d7a0d14c09","651c1c16a5f67c0d69075afd","null","null","<p style=""font-size: 60px; font-family: BACS"">ABPRBTmc</p>","","","","","","","","",""
"html-keyboard-response","93","406253","0.0-10.0-0.4","60b7b8126c0c4524e913236e","650c16f0f2faf8d7a0d14c09","651c1c16a5f67c0d69075afd","null","null","<p style=""font-size: 60px; font-family: BACS"">LQurQru</p>","","","","","","","","",""
"html-keyboard-response","94","407267","0.0-10.0-0.5","60b7b8126c0c4524e913236e","650c16f0f2faf8d7a0d14c09","651c1c16a5f67c0d69075afd","null","null","<p style=""font-size: 60px; font-family: BACS"">DCmhTmc</p>","","","","","","","","",""
"html-keyboard-response","95","408282","0.0-10.0-0.6","60b7b8126c0c4524e913236e","650c16f0f2faf8d7a0d14c09","651c1c16a5f67c0d69075afd","null","null","<p style=""font-size: 60px; font-family: BACS"">KTDTBCKOb</p>","","","","","","","","",""
"html-keyboard-response","96","409294","0.0-10.0-0.7","60b7b8126c0c4524e913236e","650c16f0f2faf8d7a0d14c09","651c1c16a5f67c0d69075afd","null","null","<p style=""font-size: 60px; font-family: BACS"">DmAMETPOM</p>","","","","","","","","",""
"html-keyboard-response","97","410306","0.0-10.0-0.8","60b7b8126c0c4524e913236e","650c16f0f2faf8d7a0d14c09","651c1c16a5f67c0d69075afd","null","null","<p style=""font-size: 60px; font-family: BACS"">dkLlaQr</p>","","","","","","","","",""
"html-keyboard-response","98","411316","0.0-10.0-0.9","60b7b8126c0c4524e913236e","650c16f0f2faf8d7a0d14c09","651c1c16a5f67c0d69075afd","null","null","<p style=""font-size: 60px; font-family: BACS"">JAdLmQru</p>","","","","","","","","",""
"html-keyboard-response","99","412330","0.0-10.0-0.10","60b7b8126c0c4524e913236e","650c16f0f2faf8d7a0d14c09","651c1c16a5f67c0d69075afd","null","null","<p style=""font-size: 60px; font-family: BACS"">KTDTBTPOM</p>","","","","","","","","",""
"html-keyboard-response","100","413333","0.0-10.0-0.11","60b7b8126c0c4524e913236e","650c16f0f2faf8d7a0d14c09","651c1c16a5f67c0d69075afd","null","null","<p style=""font-size: 60px; font-family: BACS"">YmBdTmc</p>","","","","","","","","",""
"html-keyboard-response","101","414344","0.0-10.0-0.12","60b7b8126c0c4524e913236e","650c16f0f2faf8d7a0d14c09","651c1c16a5f67c0d69075afd","null","null","<p style=""font-size: 60px; font-family: BACS"">ABPRBCKOb</p>","","","","","","","","",""
"html-keyboard-response","102","415349","0.0-10.0-0.13","60b7b8126c0c4524e913236e","650c16f0f2faf8d7a0d14c09","651c1c16a5f67c0d69075afd","null","null","<p style=""font-size: 60px; font-family: BACS"">YmBdPTl</p>","","","","","","","","",""
"html-keyboard-response","103","416354","0.0-10.0-0.14","60b7b8126c0c4524e913236e","650c16f0f2faf8d7a0d14c09","651c1c16a5f67c0d69075afd","null","null","<p style=""font-size: 60px; font-family: BACS"">LQurLaA</p>","","","","","","","","",""
"html-keyboard-response","104","417355","0.0-10.0-0.15","60b7b8126c0c4524e913236e","650c16f0f2faf8d7a0d14c09","651c1c16a5f67c0d69075afd","null","null","<p style=""font-size: 60px; font-family: BACS"">ObOQlaQr</p>","","","","","","","","",""
"html-keyboard-response","105","418361","0.0-10.0-0.16","60b7b8126c0c4524e913236e","650c16f0f2faf8d7a0d14c09","651c1c16a5f67c0d69075afd","null","null","<p style=""font-size: 60px; font-family: BACS"">kPOtCKOb</p>","","","","","","","","",""
"html-keyboard-response","106","419362","0.0-10.0-0.17","60b7b8126c0c4524e913236e","650c16f0f2faf8d7a0d14c09","651c1c16a5f67c0d69075afd","null","null","<p style=""font-size: 60px; font-family: BACS"">kcCRtCMdP</p>","","","","","","","","",""
"html-keyboard-response","107","420364","0.0-10.0-0.18","60b7b8126c0c4524e913236e","650c16f0f2faf8d7a0d14c09","651c1c16a5f67c0d69075afd","null","null","<p style=""font-size: 60px; font-family: BACS"">OAblcAZbl</p>","","","","","","","","",""
"html-keyboard-response","108","421381","0.0-10.0-0.19","60b7b8126c0c4524e913236e","650c16f0f2faf8d7a0d14c09","651c1c16a5f67c0d69075afd","null","null","<p style=""font-size: 60px; font-family: BACS"">kPOtCMdP</p>","","","","","","","","",""
"html-keyboard-response","109","422393","0.0-10.0-0.20","60b7b8126c0c4524e913236e","650c16f0f2faf8d7a0d14c09","651c1c16a5f67c0d69075afd","null","null","<p style=""font-size: 60px; font-family: BACS"">RCcECKOb</p>","","","","","","","","",""
"html-keyboard-response","110","423404","0.0-10.0-0.21","60b7b8126c0c4524e913236e","650c16f0f2faf8d7a0d14c09","651c1c16a5f67c0d69075afd","null","null","<p style=""font-size: 60px; font-family: BACS"">ObOQlAZbl</p>","","","","","","","","",""
"html-keyboard-response","111","424411","0.0-10.0-0.22","60b7b8126c0c4524e913236e","650c16f0f2faf8d7a0d14c09","651c1c16a5f67c0d69075afd","null","null","<p style=""font-size: 60px; font-family: BACS"">kcCRtTmc</p>","","","","","","","","",""
"html-keyboard-response","112","425422","0.0-10.0-0.23","60b7b8126c0c4524e913236e","650c16f0f2faf8d7a0d14c09","651c1c16a5f67c0d69075afd","null","null","<p style=""font-size: 60px; font-family: BACS"">OAblcQru</p>","","","","","","","","",""
"html-keyboard-response","113","426438","0.0-10.0-0.24","60b7b8126c0c4524e913236e","650c16f0f2faf8d7a0d14c09","651c1c16a5f67c0d69075afd","null","null","<p style=""font-size: 60px; font-family: BACS"">LQurAZbl</p>","","","","","","","","",""
"html-keyboard-response","114","427448","0.0-10.0-0.25","60b7b8126c0c4524e913236e","650c16f0f2faf8d7a0d14c09","651c1c16a5f67c0d69075afd","null","null","<p style=""font-size: 60px; font-family: BACS"">mARMCKOb</p>","","","","","","","","",""
"html-keyboard-response","115","428462","0.0-10.0-0.26","60b7b8126c0c4524e913236e","650c16f0f2faf8d7a0d14c09","651c1c16a5f67c0d69075afd","null","null","<p style=""font-size: 60px; font-family: BACS"">UvOGLaA</p>","","","","","","","","",""
"html-keyboard-response","116","429472","0.0-10.0-0.27","60b7b8126c0c4524e913236e","650c16f0f2faf8d7a0d14c09","651c1c16a5f67c0d69075afd","null","null","<p style=""font-size: 60px; font-family: BACS"">LQurYaOk</p>","","","","","","","","",""
"html-keyboard-response","117","430486","0.0-10.0-0.28","60b7b8126c0c4524e913236e","650c16f0f2faf8d7a0d14c09","651c1c16a5f67c0d69075afd","null","null","<p style=""font-size: 60px; font-family: BACS"">mARMTPOM</p>","","","","","","","","",""
"html-keyboard-response","118","431498","0.0-10.0-0.29","60b7b8126c0c4524e913236e","650c16f0f2faf8d7a0d14c09","651c1c16a5f67c0d69075afd","null","null","<p style=""font-size: 60px; font-family: BACS"">DCmhCKOb</p>","","","","","","","","",""
"html-keyboard-response","119","432504","0.0-10.0-0.30","60b7b8126c0c4524e913236e","650c16f0f2faf8d7a0d14c09","651c1c16a5f67c0d69075afd","null","null","<p style=""font-size: 60px; font-family: BACS"">dkLlYaOk</p>","","","","","","","","",""
"html-keyboard-response","120","433510","0.0-10.0-0.31","60b7b8126c0c4524e913236e","650c16f0f2faf8d7a0d14c09","651c1c16a5f67c0d69075afd","null","null","<p style=""font-size: 60px; font-family: BACS"">ABPRBCMdP</p>","","","","","","","","",""
"html-keyboard-response","121","434517","0.0-10.0-0.32","60b7b8126c0c4524e913236e","650c16f0f2faf8d7a0d14c09","651c1c16a5f67c0d69075afd","null","null","<p style=""font-size: 60px; font-family: BACS"">DmAMETmc</p>","","","","","","","","",""
"html-keyboard-response","122","435531","0.0-10.0-0.33","60b7b8126c0c4524e913236e","650c16f0f2faf8d7a0d14c09","651c1c16a5f67c0d69075afd","null","null","<p style=""font-size: 60px; font-family: BACS"">LvuOGQru</p>","","","","","","","","",""
"html-keyboard-response","123","436542","0.0-10.0-0.34","60b7b8126c0c4524e913236e","650c16f0f2faf8d7a0d14c09","651c1c16a5f67c0d69075afd","null","null","<p style=""font-size: 60px; font-family: BACS"">OAblcYaOk</p>","","","","","","","","",""
"html-keyboard-response","124","437544","0.0-10.0-0.35","60b7b8126c0c4524e913236e","650c16f0f2faf8d7a0d14c09","651c1c16a5f67c0d69075afd","null","null","<p style=""font-size: 60px; font-family: BACS"">kPOtTmc</p>","","","","","","","","",""
"html-keyboard-response","125","438549","0.0-10.0-0.36","60b7b8126c0c4524e913236e","650c16f0f2faf8d7a0d14c09","651c1c16a5f67c0d69075afd","null","null","<p style=""font-size: 60px; font-family: BACS"">DdckCMdP</p>","","","","","","","","",""
"html-keyboard-response","126","439554","0.0-10.0-0.37","60b7b8126c0c4524e913236e","650c16f0f2faf8d7a0d14c09","651c1c16a5f67c0d69075afd","null","null","<p style=""font-size: 60px; font-family: BACS"">kcCRtTPOM</p>","","","","","","","","",""
"html-keyboard-response","127","440562","0.0-10.0-0.38","60b7b8126c0c4524e913236e","650c16f0f2faf8d7a0d14c09","651c1c16a5f67c0d69075afd","null","null","<p style=""font-size: 60px; font-family: BACS"">ObOQlQru</p>","","","","","","","","",""
"html-keyboard-response","128","441578","0.0-10.0-0.39","60b7b8126c0c4524e913236e","650c16f0f2faf8d7a0d14c09","651c1c16a5f67c0d69075afd","null","null","<p style=""font-size: 60px; font-family: BACS"">LvuOGAZbl</p>","","","","","","","","",""
"html-keyboard-response","129","442581","0.0-10.0-0.40","60b7b8126c0c4524e913236e","650c16f0f2faf8d7a0d14c09","651c1c16a5f67c0d69075afd","null","null","<p style=""font-size: 60px; font-family: BACS"">KTDTBPTl</p>","","","","","","","","",""
"html-keyboard-response","130","443587","0.0-10.0-0.41","60b7b8126c0c4524e913236e","650c16f0f2faf8d7a0d14c09","651c1c16a5f67c0d69075afd","null","null","<p style=""font-size: 60px; font-family: BACS"">LvuOGLaA</p>","","","","","","","","",""
"html-keyboard-response","131","444589","0.0-10.0-0.42","60b7b8126c0c4524e913236e","650c16f0f2faf8d7a0d14c09","651c1c16a5f67c0d69075afd","null","null","<p style=""font-size: 60px; font-family: BACS"">dkLlAZbl</p>","","","","","","","","",""
"html-keyboard-response","132","445605","0.0-10.0-0.43","60b7b8126c0c4524e913236e","650c16f0f2faf8d7a0d14c09","651c1c16a5f67c0d69075afd","null","null","<p style=""font-size: 60px; font-family: BACS"">bmbNYaOk</p>","","","","","","","","",""
"html-keyboard-response","133","446612","0.0-10.0-0.44","60b7b8126c0c4524e913236e","650c16f0f2faf8d7a0d14c09","651c1c16a5f67c0d69075afd","null","null","<p style=""font-size: 60px; font-family: BACS"">kGlUaQr</p>","","","","","","","","",""
"html-keyboard-response","134","447613","0.0-10.0-0.45","60b7b8126c0c4524e913236e","650c16f0f2faf8d7a0d14c09","651c1c16a5f67c0d69075afd","null","null","<p style=""font-size: 60px; font-family: BACS"">YmBdTPOM</p>","","","","","","","","",""
"html-keyboard-response","135","448629","0.0-10.0-0.46","60b7b8126c0c4524e913236e","650c16f0f2faf8d7a0d14c09","651c1c16a5f67c0d69075afd","null","null","<p style=""font-size: 60px; font-family: BACS"">dkLlQru</p>","","","","","","","","",""
"html-keyboard-response","136","449640","0.0-10.0-0.47","60b7b8126c0c4524e913236e","650c16f0f2faf8d7a0d14c09","651c1c16a5f67c0d69075afd","null","null","<p style=""font-size: 60px; font-family: BACS"">kGlUYaOk</p>","","","","","","","","",""
"html-keyboard-response","137","450642","0.0-10.0-0.48","60b7b8126c0c4524e913236e","650c16f0f2faf8d7a0d14c09","651c1c16a5f67c0d69075afd","null","null","<p style=""font-size: 60px; font-family: BACS"">RCcETPOM</p>","","","","","","","","",""
"html-keyboard-response","138","451655","0.0-10.0-0.49","60b7b8126c0c4524e913236e","650c16f0f2faf8d7a0d14c09","651c1c16a5f67c0d69075afd","null","null","<p style=""font-size: 60px; font-family: BACS"">ObOQlLaA</p>","","","","","","","","",""
"html-keyboard-response","139","452663","0.0-10.0-0.50","60b7b8126c0c4524e913236e","650c16f0f2faf8d7a0d14c09","651c1c16a5f67c0d69075afd","null","null","<p style=""font-size: 60px; font-family: BACS"">bmbNaQr</p>","","","","","","","","",""
"html-keyboard-response","140","453669","0.0-10.0-0.51","60b7b8126c0c4524e913236e","650c16f0f2faf8d7a0d14c09","651c1c16a5f67c0d69075afd","null","null","<p style=""font-size: 60px; font-family: BACS"">ABPRBPTl</p>","","","","","","","","",""
"html-keyboard-response","141","454673","0.0-10.0-0.52","60b7b8126c0c4524e913236e","650c16f0f2faf8d7a0d14c09","651c1c16a5f67c0d69075afd","null","null","<p style=""font-size: 60px; font-family: BACS"">kGlUAZbl</p>","","","","","","","","",""
"html-keyboard-response","142","455689","0.0-10.0-0.53","60b7b8126c0c4524e913236e","650c16f0f2faf8d7a0d14c09","651c1c16a5f67c0d69075afd","null","null","<p style=""font-size: 60px; font-family: BACS"">DdckTmc</p>","","","","","","","","",""
"html-keyboard-response","143","456704","0.0-10.0-0.54","60b7b8126c0c4524e913236e","650c16f0f2faf8d7a0d14c09","651c1c16a5f67c0d69075afd","null","null","<p style=""font-size: 60px; font-family: BACS"">LvuOGaQr</p>","","","","","","","","",""
"html-keyboard-response","144","457716","0.0-10.0-0.55","60b7b8126c0c4524e913236e","650c16f0f2faf8d7a0d14c09","651c1c16a5f67c0d69075afd","null","null","<p style=""font-size: 60px; font-family: BACS"">RCcETmc</p>","","","","","","","","",""
"html-keyboard-response","145","458728","0.0-10.0-0.56","60b7b8126c0c4524e913236e","650c16f0f2faf8d7a0d14c09","651c1c16a5f67c0d69075afd","null","null","<p style=""font-size: 60px; font-family: BACS"">KTDTBCMdP</p>","","","","","","","","",""
"html-keyboard-response","146","459738","0.0-10.0-0.57","60b7b8126c0c4524e913236e","650c16f0f2faf8d7a0d14c09","651c1c16a5f67c0d69075afd","null","null","<p style=""font-size: 60px; font-family: BACS"">JAdLmaQr</p>","","","","","","","","",""
"html-keyboard-response","147","460749","0.0-10.0-0.58","60b7b8126c0c4524e913236e","650c16f0f2faf8d7a0d14c09","651c1c16a5f67c0d69075afd","null","null","<p style=""font-size: 60px; font-family: BACS"">DmAMEPTl</p>","","","","","","","","",""
"html-keyboard-response","148","461752","0.0-10.0-0.59","60b7b8126c0c4524e913236e","650c16f0f2faf8d7a0d14c09","651c1c16a5f67c0d69075afd","null","null","<p style=""font-size: 60px; font-family: BACS"">JAdLmLaA</p>","","","","","","","","",""
"html-keyboard-response","149","462754","0.0-10.0-0.60","60b7b8126c0c4524e913236e","650c16f0f2faf8d7a0d14c09","651c1c16a5f67c0d69075afd","null","null","<p style=""font-size: 60px; font-family: BACS"">DdckPTl</p>","","","","","","","","",""
"html-keyboard-response","150","463755","0.0-10.0-0.61","60b7b8126c0c4524e913236e","650c16f0f2faf8d7a0d14c09","651c1c16a5f67c0d69075afd","null","null","<p style=""font-size: 60px; font-family: BACS"">DCmhCMdP</p>","","","","","","","","",""
"html-keyboard-response","151","464764","0.0-10.0-0.62","60b7b8126c0c4524e913236e","650c16f0f2faf8d7a0d14c09","651c1c16a5f67c0d69075afd","null","null","<p style=""font-size: 60px; font-family: BACS"">UYZlZQru</p>","","","","","","","","",""
"html-keyboard-response","152","465768","0.0-10.0-0.63","60b7b8126c0c4524e913236e","650c16f0f2faf8d7a0d14c09","651c1c16a5f67c0d69075afd","null","null","<p style=""font-size: 60px; font-family: BACS"">kcCRtCKOb</p>","","","","","","","","",""
"html-keyboard-response","153","466780","0.0-10.0-0.64","60b7b8126c0c4524e913236e","650c16f0f2faf8d7a0d14c09","651c1c16a5f67c0d69075afd","null","null","<p style=""font-size: 60px; font-family: BACS"">DCmhPTl</p>","","","","","","","","",""
"html-keyboard-response","154","467783","0.0-10.0-0.65","60b7b8126c0c4524e913236e","650c16f0f2faf8d7a0d14c09","651c1c16a5f67c0d69075afd","null","null","<p style=""font-size: 60px; font-family: BACS"">bmbNAZbl</p>","","","","","","","","",""
"html-keyboard-response","155","468789","0.0-10.0-0.66","60b7b8126c0c4524e913236e","650c16f0f2faf8d7a0d14c09","651c1c16a5f67c0d69075afd","null","null","<p style=""font-size: 60px; font-family: BACS"">YmBdCKOb</p>","","","","","","","","",""
"html-keyboard-response","156","469805","0.0-10.0-0.67","60b7b8126c0c4524e913236e","650c16f0f2faf8d7a0d14c09","651c1c16a5f67c0d69075afd","null","null","<p style=""font-size: 60px; font-family: BACS"">bmbNQru</p>","","","","","","","","",""
"html-keyboard-response","157","470808","0.0-10.0-0.68","60b7b8126c0c4524e913236e","650c16f0f2faf8d7a0d14c09","651c1c16a5f67c0d69075afd","null","null","<p style=""font-size: 60px; font-family: BACS"">UYZlZYaOk</p>","","","","","","","","",""
"html-keyboard-response","158","471810","0.0-10.0-0.69","60b7b8126c0c4524e913236e","650c16f0f2faf8d7a0d14c09","651c1c16a5f67c0d69075afd","null","null","<p style=""font-size: 60px; font-family: BACS"">RCcEPTl</p>","","","","","","","","",""
"html-keyboard-response","159","472822","0.0-10.0-0.70","60b7b8126c0c4524e913236e","650c16f0f2faf8d7a0d14c09","651c1c16a5f67c0d69075afd","null","null","<p style=""font-size: 60px; font-family: BACS"">DmAMECMdP</p>","","","","","","","","",""
"html-keyboard-response","160","473834","0.0-10.0-0.71","60b7b8126c0c4524e913236e","650c16f0f2faf8d7a0d14c09","651c1c16a5f67c0d69075afd","null","null","<p style=""font-size: 60px; font-family: BACS"">JAdLmYaOk</p>","","","","","","","","",""
"html-keyboard-response","161","474848","0.0-10.0-0.72","60b7b8126c0c4524e913236e","650c16f0f2faf8d7a0d14c09","651c1c16a5f67c0d69075afd","null","null","<p style=""font-size: 60px; font-family: BACS"">mARMPTl</p>","","","","","","","","",""
"html-keyboard-response","162","475860","0.0-10.0-0.73","60b7b8126c0c4524e913236e","650c16f0f2faf8d7a0d14c09","651c1c16a5f67c0d69075afd","null","null","<p style=""font-size: 60px; font-family: BACS"">kPOtTPOM</p>","","","","","","","","",""
"html-keyboard-response","163","476873","0.0-10.0-0.74","60b7b8126c0c4524e913236e","650c16f0f2faf8d7a0d14c09","651c1c16a5f67c0d69075afd","null","null","<p style=""font-size: 60px; font-family: BACS"">UvOGaQr</p>","","","","","","","","",""
"html-keyboard-response","164","477879","0.0-10.0-0.75","60b7b8126c0c4524e913236e","650c16f0f2faf8d7a0d14c09","651c1c16a5f67c0d69075afd","null","null","<p style=""font-size: 60px; font-family: BACS"">DdckTPOM</p>","","","","","","","","",""
"html-keyboard-response","165","478885","0.0-10.0-0.76","60b7b8126c0c4524e913236e","650c16f0f2faf8d7a0d14c09","651c1c16a5f67c0d69075afd","null","null","<p style=""font-size: 60px; font-family: BACS"">UYZlZLaA</p>","","","","","","","","",""
"html-keyboard-response","166","479891","0.0-10.0-0.77","60b7b8126c0c4524e913236e","650c16f0f2faf8d7a0d14c09","651c1c16a5f67c0d69075afd","null","null","<p style=""font-size: 60px; font-family: BACS"">UvOGYaOk</p>","","","","","","","","",""
"html-keyboard-response","167","480892","0.0-10.0-0.78","60b7b8126c0c4524e913236e","650c16f0f2faf8d7a0d14c09","651c1c16a5f67c0d69075afd","null","null","<p style=""font-size: 60px; font-family: BACS"">kGlULaA</p>","","","","","","","","",""
"html-keyboard-response","168","481895","0.0-10.0-0.79","60b7b8126c0c4524e913236e","650c16f0f2faf8d7a0d14c09","651c1c16a5f67c0d69075afd","null","null","<p style=""font-size: 60px; font-family: BACS"">mARMCMdP</p>","","","","","","","","",""
"html-keyboard-response","169","484331","0.0-11.0","60b7b8126c0c4524e913236e","650c16f0f2faf8d7a0d14c09","651c1c16a5f67c0d69075afd","2435"," ","<p>Great, you've seen the second block of words. You may now take a short break.</p>
      <p>Press the spacebar when you're ready to continue.</p>","","","","","","","","",""
"html-keyboard-response","170","485332","0.0-12.0-0.0","60b7b8126c0c4524e913236e","650c16f0f2faf8d7a0d14c09","651c1c16a5f67c0d69075afd","null","null","<p style=""font-size: 60px; font-family: BACS"">ObOQlLaA</p>","","","","","","","","",""
"html-keyboard-response","171","486346","0.0-12.0-0.1","60b7b8126c0c4524e913236e","650c16f0f2faf8d7a0d14c09","651c1c16a5f67c0d69075afd","null","null","<p style=""font-size: 60px; font-family: BACS"">LvuOGQru</p>","","","","","","","","",""
"html-keyboard-response","172","487352","0.0-12.0-0.2","60b7b8126c0c4524e913236e","650c16f0f2faf8d7a0d14c09","651c1c16a5f67c0d69075afd","null","null","<p style=""font-size: 60px; font-family: BACS"">DdckTPOM</p>","","","","","","","","",""
"html-keyboard-response","173","488358","0.0-12.0-0.3","60b7b8126c0c4524e913236e","650c16f0f2faf8d7a0d14c09","651c1c16a5f67c0d69075afd","null","null","<p style=""font-size: 60px; font-family: BACS"">bmbNAZbl</p>","","","","","","","","",""
"html-keyboard-response","174","489372","0.0-12.0-0.4","60b7b8126c0c4524e913236e","650c16f0f2faf8d7a0d14c09","651c1c16a5f67c0d69075afd","null","null","<p style=""font-size: 60px; font-family: BACS"">UYZlZQru</p>","","","","","","","","",""
"html-keyboard-response","175","490379","0.0-12.0-0.5","60b7b8126c0c4524e913236e","650c16f0f2faf8d7a0d14c09","651c1c16a5f67c0d69075afd","null","null","<p style=""font-size: 60px; font-family: BACS"">kPOtCMdP</p>","","","","","","","","",""
"html-keyboard-response","176","491392","0.0-12.0-0.6","60b7b8126c0c4524e913236e","650c16f0f2faf8d7a0d14c09","651c1c16a5f67c0d69075afd","null","null","<p style=""font-size: 60px; font-family: BACS"">YmBdCKOb</p>","","","","","","","","",""
"html-keyboard-response","177","492399","0.0-12.0-0.7","60b7b8126c0c4524e913236e","650c16f0f2faf8d7a0d14c09","651c1c16a5f67c0d69075afd","null","null","<p style=""font-size: 60px; font-family: BACS"">UvOGYaOk</p>","","","","","","","","",""
"html-keyboard-response","178","493408","0.0-12.0-0.8","60b7b8126c0c4524e913236e","650c16f0f2faf8d7a0d14c09","651c1c16a5f67c0d69075afd","null","null","<p style=""font-size: 60px; font-family: BACS"">LQurAZbl</p>","","","","","","","","",""
"html-keyboard-response","179","494423","0.0-12.0-0.9","60b7b8126c0c4524e913236e","650c16f0f2faf8d7a0d14c09","651c1c16a5f67c0d69075afd","null","null","<p style=""font-size: 60px; font-family: BACS"">DCmhPTl</p>","","","","","","","","",""
"html-keyboard-response","180","495426","0.0-12.0-0.10","60b7b8126c0c4524e913236e","650c16f0f2faf8d7a0d14c09","651c1c16a5f67c0d69075afd","null","null","<p style=""font-size: 60px; font-family: BACS"">LQurLaA</p>","","","","","","","","",""
"html-keyboard-response","181","496439","0.0-12.0-0.11","60b7b8126c0c4524e913236e","650c16f0f2faf8d7a0d14c09","651c1c16a5f67c0d69075afd","null","null","<p style=""font-size: 60px; font-family: BACS"">YmBdTPOM</p>","","","","","","","","",""
"html-keyboard-response","182","497455","0.0-12.0-0.12","60b7b8126c0c4524e913236e","650c16f0f2faf8d7a0d14c09","651c1c16a5f67c0d69075afd","null","null","<p style=""font-size: 60px; font-family: BACS"">bmbNYaOk</p>","","","","","","","","",""
"html-keyboard-response","183","498457","0.0-12.0-0.13","60b7b8126c0c4524e913236e","650c16f0f2faf8d7a0d14c09","651c1c16a5f67c0d69075afd","null","null","<p style=""font-size: 60px; font-family: BACS"">JAdLmQru</p>","","","","","","","","",""
"html-keyboard-response","184","499471","0.0-12.0-0.14","60b7b8126c0c4524e913236e","650c16f0f2faf8d7a0d14c09","651c1c16a5f67c0d69075afd","null","null","<p style=""font-size: 60px; font-family: BACS"">UYZlZLaA</p>","","","","","","","","",""
"html-keyboard-response","185","500487","0.0-12.0-0.15","60b7b8126c0c4524e913236e","650c16f0f2faf8d7a0d14c09","651c1c16a5f67c0d69075afd","null","null","<p style=""font-size: 60px; font-family: BACS"">DCmhCMdP</p>","","","","","","","","",""
"html-keyboard-response","186","501498","0.0-12.0-0.16","60b7b8126c0c4524e913236e","650c16f0f2faf8d7a0d14c09","651c1c16a5f67c0d69075afd","null","null","<p style=""font-size: 60px; font-family: BACS"">JAdLmLaA</p>","","","","","","","","",""
"html-keyboard-response","187","502502","0.0-12.0-0.17","60b7b8126c0c4524e913236e","650c16f0f2faf8d7a0d14c09","651c1c16a5f67c0d69075afd","null","null","<p style=""font-size: 60px; font-family: BACS"">kPOtCKOb</p>","","","","","","","","",""
"html-keyboard-response","188","503506","0.0-12.0-0.18","60b7b8126c0c4524e913236e","650c16f0f2faf8d7a0d14c09","651c1c16a5f67c0d69075afd","null","null","<p style=""font-size: 60px; font-family: BACS"">kGlUYaOk</p>","","","","","","","","",""
"html-keyboard-response","189","504512","0.0-12.0-0.19","60b7b8126c0c4524e913236e","650c16f0f2faf8d7a0d14c09","651c1c16a5f67c0d69075afd","null","null","<p style=""font-size: 60px; font-family: BACS"">YmBdTmc</p>","","","","","","","","",""
"html-keyboard-response","190","505518","0.0-12.0-0.20","60b7b8126c0c4524e913236e","650c16f0f2faf8d7a0d14c09","651c1c16a5f67c0d69075afd","null","null","<p style=""font-size: 60px; font-family: BACS"">UvOGLaA</p>","","","","","","","","",""
"html-keyboard-response","191","506520","0.0-12.0-0.21","60b7b8126c0c4524e913236e","650c16f0f2faf8d7a0d14c09","651c1c16a5f67c0d69075afd","null","null","<p style=""font-size: 60px; font-family: BACS"">kGlUaQr</p>","","","","","","","","",""
"html-keyboard-response","192","507522","0.0-12.0-0.22","60b7b8126c0c4524e913236e","650c16f0f2faf8d7a0d14c09","651c1c16a5f67c0d69075afd","null","null","<p style=""font-size: 60px; font-family: BACS"">ObOQlAZbl</p>","","","","","","","","",""
"html-keyboard-response","193","508530","0.0-12.0-0.23","60b7b8126c0c4524e913236e","650c16f0f2faf8d7a0d14c09","651c1c16a5f67c0d69075afd","null","null","<p style=""font-size: 60px; font-family: BACS"">ABPRBPTl</p>","","","","","","","","",""
"html-keyboard-response","194","509535","0.0-12.0-0.24","60b7b8126c0c4524e913236e","650c16f0f2faf8d7a0d14c09","651c1c16a5f67c0d69075afd","null","null","<p style=""font-size: 60px; font-family: BACS"">kcCRtTmc</p>","","","","","","","","",""
"html-keyboard-response","195","510543","0.0-12.0-0.25","60b7b8126c0c4524e913236e","650c16f0f2faf8d7a0d14c09","651c1c16a5f67c0d69075afd","null","null","<p style=""font-size: 60px; font-family: BACS"">UYZlZYaOk</p>","","","","","","","","",""
"html-keyboard-response","196","511552","0.0-12.0-0.26","60b7b8126c0c4524e913236e","650c16f0f2faf8d7a0d14c09","651c1c16a5f67c0d69075afd","null","null","<p style=""font-size: 60px; font-family: BACS"">ObOQlQru</p>","","","","","","","","",""
"html-keyboard-response","197","512562","0.0-12.0-0.27","60b7b8126c0c4524e913236e","650c16f0f2faf8d7a0d14c09","651c1c16a5f67c0d69075afd","null","null","<p style=""font-size: 60px; font-family: BACS"">LvuOGAZbl</p>","","","","","","","","",""
"html-keyboard-response","198","513564","0.0-12.0-0.28","60b7b8126c0c4524e913236e","650c16f0f2faf8d7a0d14c09","651c1c16a5f67c0d69075afd","null","null","<p style=""font-size: 60px; font-family: BACS"">LQurQru</p>","","","","","","","","",""
"html-keyboard-response","199","514568","0.0-12.0-0.29","60b7b8126c0c4524e913236e","650c16f0f2faf8d7a0d14c09","651c1c16a5f67c0d69075afd","null","null","<p style=""font-size: 60px; font-family: BACS"">DdckPTl</p>","","","","","","","","",""
"html-keyboard-response","200","515582","0.0-12.0-0.30","60b7b8126c0c4524e913236e","650c16f0f2faf8d7a0d14c09","651c1c16a5f67c0d69075afd","null","null","<p style=""font-size: 60px; font-family: BACS"">kPOtTPOM</p>","","","","","","","","",""
"html-keyboard-response","201","516594","0.0-12.0-0.31","60b7b8126c0c4524e913236e","650c16f0f2faf8d7a0d14c09","651c1c16a5f67c0d69075afd","null","null","<p style=""font-size: 60px; font-family: BACS"">JAdLmaQr</p>","","","","","","","","",""
"html-keyboard-response","202","517598","0.0-12.0-0.32","60b7b8126c0c4524e913236e","650c16f0f2faf8d7a0d14c09","651c1c16a5f67c0d69075afd","null","null","<p style=""font-size: 60px; font-family: BACS"">KTDTBCMdP</p>","","","","","","","","",""
"html-keyboard-response","203","518600","0.0-12.0-0.33","60b7b8126c0c4524e913236e","650c16f0f2faf8d7a0d14c09","651c1c16a5f67c0d69075afd","null","null","<p style=""font-size: 60px; font-family: BACS"">OAblcLaA</p>","","","","","","","","",""
"html-keyboard-response","204","519611","0.0-12.0-0.34","60b7b8126c0c4524e913236e","650c16f0f2faf8d7a0d14c09","651c1c16a5f67c0d69075afd","null","null","<p style=""font-size: 60px; font-family: BACS"">ABPRBCKOb</p>","","","","","","","","",""
"html-keyboard-response","205","520619","0.0-12.0-0.35","60b7b8126c0c4524e913236e","650c16f0f2faf8d7a0d14c09","651c1c16a5f67c0d69075afd","null","null","<p style=""font-size: 60px; font-family: BACS"">LQurYaOk</p>","","","","","","","","",""
"html-keyboard-response","206","521636","0.0-12.0-0.36","60b7b8126c0c4524e913236e","650c16f0f2faf8d7a0d14c09","651c1c16a5f67c0d69075afd","null","null","<p style=""font-size: 60px; font-family: BACS"">YmBdPTl</p>","","","","","","","","",""
"html-keyboard-response","207","522651","0.0-12.0-0.37","60b7b8126c0c4524e913236e","650c16f0f2faf8d7a0d14c09","651c1c16a5f67c0d69075afd","null","null","<p style=""font-size: 60px; font-family: BACS"">KTDTBCKOb</p>","","","","","","","","",""
"html-keyboard-response","208","523653","0.0-12.0-0.38","60b7b8126c0c4524e913236e","650c16f0f2faf8d7a0d14c09","651c1c16a5f67c0d69075afd","null","null","<p style=""font-size: 60px; font-family: BACS"">DmAMECMdP</p>","","","","","","","","",""
"html-keyboard-response","209","524660","0.0-12.0-0.39","60b7b8126c0c4524e913236e","650c16f0f2faf8d7a0d14c09","651c1c16a5f67c0d69075afd","null","null","<p style=""font-size: 60px; font-family: BACS"">dkLlYaOk</p>","","","","","","","","",""
"html-keyboard-response","210","525672","0.0-12.0-0.40","60b7b8126c0c4524e913236e","650c16f0f2faf8d7a0d14c09","651c1c16a5f67c0d69075afd","null","null","<p style=""font-size: 60px; font-family: BACS"">OAblcQru</p>","","","","","","","","",""
"html-keyboard-response","211","526674","0.0-12.0-0.41","60b7b8126c0c4524e913236e","650c16f0f2faf8d7a0d14c09","651c1c16a5f67c0d69075afd","null","null","<p style=""font-size: 60px; font-family: BACS"">mARMPTl</p>","","","","","","","","",""
"html-keyboard-response","212","527690","0.0-12.0-0.42","60b7b8126c0c4524e913236e","650c16f0f2faf8d7a0d14c09","651c1c16a5f67c0d69075afd","null","null","<p style=""font-size: 60px; font-family: BACS"">kcCRtCMdP</p>","","","","","","","","",""
"html-keyboard-response","213","528703","0.0-12.0-0.43","60b7b8126c0c4524e913236e","650c16f0f2faf8d7a0d14c09","651c1c16a5f67c0d69075afd","null","null","<p style=""font-size: 60px; font-family: BACS"">KTDTBTPOM</p>","","","","","","","","",""
"html-keyboard-response","214","529713","0.0-12.0-0.44","60b7b8126c0c4524e913236e","650c16f0f2faf8d7a0d14c09","651c1c16a5f67c0d69075afd","null","null","<p style=""font-size: 60px; font-family: BACS"">kGlUAZbl</p>","","","","","","","","",""
"html-keyboard-response","215","530717","0.0-12.0-0.45","60b7b8126c0c4524e913236e","650c16f0f2faf8d7a0d14c09","651c1c16a5f67c0d69075afd","null","null","<p style=""font-size: 60px; font-family: BACS"">mARMTPOM</p>","","","","","","","","",""
"html-keyboard-response","216","531723","0.0-12.0-0.46","60b7b8126c0c4524e913236e","650c16f0f2faf8d7a0d14c09","651c1c16a5f67c0d69075afd","null","null","<p style=""font-size: 60px; font-family: BACS"">OAblcAZbl</p>","","","","","","","","",""
"html-keyboard-response","217","532727","0.0-12.0-0.47","60b7b8126c0c4524e913236e","650c16f0f2faf8d7a0d14c09","651c1c16a5f67c0d69075afd","null","null","<p style=""font-size: 60px; font-family: BACS"">kGlULaA</p>","","","","","","","","",""
"html-keyboard-response","218","533733","0.0-12.0-0.48","60b7b8126c0c4524e913236e","650c16f0f2faf8d7a0d14c09","651c1c16a5f67c0d69075afd","null","null","<p style=""font-size: 60px; font-family: BACS"">ABPRBTmc</p>","","","","","","","","",""
"html-keyboard-response","219","534737","0.0-12.0-0.49","60b7b8126c0c4524e913236e","650c16f0f2faf8d7a0d14c09","651c1c16a5f67c0d69075afd","null","null","<p style=""font-size: 60px; font-family: BACS"">LvuOGaQr</p>","","","","","","","","",""
"html-keyboard-response","220","535742","0.0-12.0-0.50","60b7b8126c0c4524e913236e","650c16f0f2faf8d7a0d14c09","651c1c16a5f67c0d69075afd","null","null","<p style=""font-size: 60px; font-family: BACS"">DCmhCKOb</p>","","","","","","","","",""
"html-keyboard-response","221","536754","0.0-12.0-0.51","60b7b8126c0c4524e913236e","650c16f0f2faf8d7a0d14c09","651c1c16a5f67c0d69075afd","null","null","<p style=""font-size: 60px; font-family: BACS"">RCcETPOM</p>","","","","","","","","",""
"html-keyboard-response","222","537770","0.0-12.0-0.52","60b7b8126c0c4524e913236e","650c16f0f2faf8d7a0d14c09","651c1c16a5f67c0d69075afd","null","null","<p style=""font-size: 60px; font-family: BACS"">ObOQlaQr</p>","","","","","","","","",""
"html-keyboard-response","223","538780","0.0-12.0-0.53","60b7b8126c0c4524e913236e","650c16f0f2faf8d7a0d14c09","651c1c16a5f67c0d69075afd","null","null","<p style=""font-size: 60px; font-family: BACS"">DdckCMdP</p>","","","","","","","","",""
"html-keyboard-response","224","539784","0.0-12.0-0.54","60b7b8126c0c4524e913236e","650c16f0f2faf8d7a0d14c09","651c1c16a5f67c0d69075afd","null","null","<p style=""font-size: 60px; font-family: BACS"">JAdLmYaOk</p>","","","","","","","","",""
"html-keyboard-response","225","540801","0.0-12.0-0.55","60b7b8126c0c4524e913236e","650c16f0f2faf8d7a0d14c09","651c1c16a5f67c0d69075afd","null","null","<p style=""font-size: 60px; font-family: BACS"">LvuOGLaA</p>","","","","","","","","",""
"html-keyboard-response","226","541816","0.0-12.0-0.56","60b7b8126c0c4524e913236e","650c16f0f2faf8d7a0d14c09","651c1c16a5f67c0d69075afd","null","null","<p style=""font-size: 60px; font-family: BACS"">DmAMEPTl</p>","","","","","","","","",""
"html-keyboard-response","227","542828","0.0-12.0-0.57","60b7b8126c0c4524e913236e","650c16f0f2faf8d7a0d14c09","651c1c16a5f67c0d69075afd","null","null","<p style=""font-size: 60px; font-family: BACS"">RCcECKOb</p>","","","","","","","","",""
"html-keyboard-response","228","543840","0.0-12.0-0.58","60b7b8126c0c4524e913236e","650c16f0f2faf8d7a0d14c09","651c1c16a5f67c0d69075afd","null","null","<p style=""font-size: 60px; font-family: BACS"">DdckTmc</p>","","","","","","","","",""
"html-keyboard-response","229","544846","0.0-12.0-0.59","60b7b8126c0c4524e913236e","650c16f0f2faf8d7a0d14c09","651c1c16a5f67c0d69075afd","null","null","<p style=""font-size: 60px; font-family: BACS"">dkLlAZbl</p>","","","","","","","","",""
"html-keyboard-response","230","545851","0.0-12.0-0.60","60b7b8126c0c4524e913236e","650c16f0f2faf8d7a0d14c09","651c1c16a5f67c0d69075afd","null","null","<p style=""font-size: 60px; font-family: BACS"">kcCRtCKOb</p>","","","","","","","","",""
"html-keyboard-response","231","546863","0.0-12.0-0.61","60b7b8126c0c4524e913236e","650c16f0f2faf8d7a0d14c09","651c1c16a5f67c0d69075afd","null","null","<p style=""font-size: 60px; font-family: BACS"">dkLlQru</p>","","","","","","","","",""
"html-keyboard-response","232","547875","0.0-12.0-0.62","60b7b8126c0c4524e913236e","650c16f0f2faf8d7a0d14c09","651c1c16a5f67c0d69075afd","null","null","<p style=""font-size: 60px; font-family: BACS"">mARMCMdP</p>","","","","","","","","",""
"html-keyboard-response","233","548887","0.0-12.0-0.63","60b7b8126c0c4524e913236e","650c16f0f2faf8d7a0d14c09","651c1c16a5f67c0d69075afd","null","null","<p style=""font-size: 60px; font-family: BACS"">RCcEPTl</p>","","","","","","","","",""
"html-keyboard-response","234","549899","0.0-12.0-0.64","60b7b8126c0c4524e913236e","650c16f0f2faf8d7a0d14c09","651c1c16a5f67c0d69075afd","null","null","<p style=""font-size: 60px; font-family: BACS"">UYZlZaQr</p>","","","","","","","","",""
"html-keyboard-response","235","550904","0.0-12.0-0.65","60b7b8126c0c4524e913236e","650c16f0f2faf8d7a0d14c09","651c1c16a5f67c0d69075afd","null","null","<p style=""font-size: 60px; font-family: BACS"">OAblcYaOk</p>","","","","","","","","",""
"html-keyboard-response","236","551909","0.0-12.0-0.66","60b7b8126c0c4524e913236e","650c16f0f2faf8d7a0d14c09","651c1c16a5f67c0d69075afd","null","null","<p style=""font-size: 60px; font-family: BACS"">ABPRBCMdP</p>","","","","","","","","",""
"html-keyboard-response","237","552925","0.0-12.0-0.67","60b7b8126c0c4524e913236e","650c16f0f2faf8d7a0d14c09","651c1c16a5f67c0d69075afd","null","null","<p style=""font-size: 60px; font-family: BACS"">mARMCKOb</p>","","","","","","","","",""
"html-keyboard-response","238","553927","0.0-12.0-0.68","60b7b8126c0c4524e913236e","650c16f0f2faf8d7a0d14c09","651c1c16a5f67c0d69075afd","null","null","<p style=""font-size: 60px; font-family: BACS"">UvOGaQr</p>","","","","","","","","",""
"html-keyboard-response","239","554929","0.0-12.0-0.69","60b7b8126c0c4524e913236e","650c16f0f2faf8d7a0d14c09","651c1c16a5f67c0d69075afd","null","null","<p style=""font-size: 60px; font-family: BACS"">DmAMETmc</p>","","","","","","","","",""
"html-keyboard-response","240","555936","0.0-12.0-0.70","60b7b8126c0c4524e913236e","650c16f0f2faf8d7a0d14c09","651c1c16a5f67c0d69075afd","null","null","<p style=""font-size: 60px; font-family: BACS"">KTDTBPTl</p>","","","","","","","","",""
"html-keyboard-response","241","556952","0.0-12.0-0.71","60b7b8126c0c4524e913236e","650c16f0f2faf8d7a0d14c09","651c1c16a5f67c0d69075afd","null","null","<p style=""font-size: 60px; font-family: BACS"">bmbNQru</p>","","","","","","","","",""
"html-keyboard-response","242","557958","0.0-12.0-0.72","60b7b8126c0c4524e913236e","650c16f0f2faf8d7a0d14c09","651c1c16a5f67c0d69075afd","null","null","<p style=""font-size: 60px; font-family: BACS"">DCmhTmc</p>","","","","","","","","",""
"html-keyboard-response","243","558970","0.0-12.0-0.73","60b7b8126c0c4524e913236e","650c16f0f2faf8d7a0d14c09","651c1c16a5f67c0d69075afd","null","null","<p style=""font-size: 60px; font-family: BACS"">dkLlaQr</p>","","","","","","","","",""
"html-keyboard-response","244","559973","0.0-12.0-0.74","60b7b8126c0c4524e913236e","650c16f0f2faf8d7a0d14c09","651c1c16a5f67c0d69075afd","null","null","<p style=""font-size: 60px; font-family: BACS"">kPOtTmc</p>","","","","","","","","",""
"html-keyboard-response","245","560982","0.0-12.0-0.75","60b7b8126c0c4524e913236e","650c16f0f2faf8d7a0d14c09","651c1c16a5f67c0d69075afd","null","null","<p style=""font-size: 60px; font-family: BACS"">bmbNaQr</p>","","","","","","","","",""
"html-keyboard-response","246","561988","0.0-12.0-0.76","60b7b8126c0c4524e913236e","650c16f0f2faf8d7a0d14c09","651c1c16a5f67c0d69075afd","null","null","<p style=""font-size: 60px; font-family: BACS"">UvOGAZbl</p>","","","","","","","","",""
"html-keyboard-response","247","563004","0.0-12.0-0.77","60b7b8126c0c4524e913236e","650c16f0f2faf8d7a0d14c09","651c1c16a5f67c0d69075afd","null","null","<p style=""font-size: 60px; font-family: BACS"">kcCRtTPOM</p>","","","","","","","","",""
"html-keyboard-response","248","564016","0.0-12.0-0.78","60b7b8126c0c4524e913236e","650c16f0f2faf8d7a0d14c09","651c1c16a5f67c0d69075afd","null","null","<p style=""font-size: 60px; font-family: BACS"">RCcETmc</p>","","","","","","","","",""
"html-keyboard-response","249","565020","0.0-12.0-0.79","60b7b8126c0c4524e913236e","650c16f0f2faf8d7a0d14c09","651c1c16a5f67c0d69075afd","null","null","<p style=""font-size: 60px; font-family: BACS"">DmAMETPOM</p>","","","","","","","","",""
"html-keyboard-response","250","567619","0.0-13.0","60b7b8126c0c4524e913236e","650c16f0f2faf8d7a0d14c09","651c1c16a5f67c0d69075afd","2598"," ","<p>Great, you've seen the third block of words. You may now take a short break.</p>
      <p>Press the spacebar when you're ready to continue.</p>","","","","","","","","",""
"html-keyboard-response","251","568633","0.0-14.0-0.0","60b7b8126c0c4524e913236e","650c16f0f2faf8d7a0d14c09","651c1c16a5f67c0d69075afd","null","null","<p style=""font-size: 60px; font-family: BACS"">RCcEPTl</p>","","","","","","","","",""
"html-keyboard-response","252","569641","0.0-14.0-0.1","60b7b8126c0c4524e913236e","650c16f0f2faf8d7a0d14c09","651c1c16a5f67c0d69075afd","null","null","<p style=""font-size: 60px; font-family: BACS"">kGlUYaOk</p>","","","","","","","","",""
"html-keyboard-response","253","570646","0.0-14.0-0.2","60b7b8126c0c4524e913236e","650c16f0f2faf8d7a0d14c09","651c1c16a5f67c0d69075afd","null","null","<p style=""font-size: 60px; font-family: BACS"">DCmhTmc</p>","","","","","","","","",""
"html-keyboard-response","254","571660","0.0-14.0-0.3","60b7b8126c0c4524e913236e","650c16f0f2faf8d7a0d14c09","651c1c16a5f67c0d69075afd","null","null","<p style=""font-size: 60px; font-family: BACS"">LQurYaOk</p>","","","","","","","","",""
"html-keyboard-response","255","572674","0.0-14.0-0.4","60b7b8126c0c4524e913236e","650c16f0f2faf8d7a0d14c09","651c1c16a5f67c0d69075afd","null","null","<p style=""font-size: 60px; font-family: BACS"">kGlUaQr</p>","","","","","","","","",""
"html-keyboard-response","256","573690","0.0-14.0-0.5","60b7b8126c0c4524e913236e","650c16f0f2faf8d7a0d14c09","651c1c16a5f67c0d69075afd","null","null","<p style=""font-size: 60px; font-family: BACS"">YmBdTPOM</p>","","","","","","","","",""
"html-keyboard-response","257","574705","0.0-14.0-0.6","60b7b8126c0c4524e913236e","650c16f0f2faf8d7a0d14c09","651c1c16a5f67c0d69075afd","null","null","<p style=""font-size: 60px; font-family: BACS"">dkLlQru</p>","","","","","","","","",""
"html-keyboard-response","258","575721","0.0-14.0-0.7","60b7b8126c0c4524e913236e","650c16f0f2faf8d7a0d14c09","651c1c16a5f67c0d69075afd","null","null","<p style=""font-size: 60px; font-family: BACS"">DdckTPOM</p>","","","","","","","","",""
"html-keyboard-response","259","576732","0.0-14.0-0.8","60b7b8126c0c4524e913236e","650c16f0f2faf8d7a0d14c09","651c1c16a5f67c0d69075afd","null","null","<p style=""font-size: 60px; font-family: BACS"">YmBdPTl</p>","","","","","","","","",""
"html-keyboard-response","260","577739","0.0-14.0-0.9","60b7b8126c0c4524e913236e","650c16f0f2faf8d7a0d14c09","651c1c16a5f67c0d69075afd","null","null","<p style=""font-size: 60px; font-family: BACS"">OAblcAZbl</p>","","","","","","","","",""
"html-keyboard-response","261","578741","0.0-14.0-0.10","60b7b8126c0c4524e913236e","650c16f0f2faf8d7a0d14c09","651c1c16a5f67c0d69075afd","null","null","<p style=""font-size: 60px; font-family: BACS"">UYZlZYaOk</p>","","","","","","","","",""
"html-keyboard-response","262","579751","0.0-14.0-0.11","60b7b8126c0c4524e913236e","650c16f0f2faf8d7a0d14c09","651c1c16a5f67c0d69075afd","null","null","<p style=""font-size: 60px; font-family: BACS"">DdckCMdP</p>","","","","","","","","",""
"html-keyboard-response","263","580760","0.0-14.0-0.12","60b7b8126c0c4524e913236e","650c16f0f2faf8d7a0d14c09","651c1c16a5f67c0d69075afd","null","null","<p style=""font-size: 60px; font-family: BACS"">LvuOGAZbl</p>","","","","","","","","",""
"html-keyboard-response","264","581776","0.0-14.0-0.13","60b7b8126c0c4524e913236e","650c16f0f2faf8d7a0d14c09","651c1c16a5f67c0d69075afd","null","null","<p style=""font-size: 60px; font-family: BACS"">JAdLmaQr</p>","","","","","","","","",""
"html-keyboard-response","265","582789","0.0-14.0-0.14","60b7b8126c0c4524e913236e","650c16f0f2faf8d7a0d14c09","651c1c16a5f67c0d69075afd","null","null","<p style=""font-size: 60px; font-family: BACS"">RCcETmc</p>","","","","","","","","",""
"html-keyboard-response","266","583806","0.0-14.0-0.15","60b7b8126c0c4524e913236e","650c16f0f2faf8d7a0d14c09","651c1c16a5f67c0d69075afd","null","null","<p style=""font-size: 60px; font-family: BACS"">DCmhPTl</p>","","","","","","","","",""
"html-keyboard-response","267","584810","0.0-14.0-0.16","60b7b8126c0c4524e913236e","650c16f0f2faf8d7a0d14c09","651c1c16a5f67c0d69075afd","null","null","<p style=""font-size: 60px; font-family: BACS"">UvOGLaA</p>","","","","","","","","",""
"html-keyboard-response","268","585825","0.0-14.0-0.17","60b7b8126c0c4524e913236e","650c16f0f2faf8d7a0d14c09","651c1c16a5f67c0d69075afd","null","null","<p style=""font-size: 60px; font-family: BACS"">ABPRBTmc</p>","","","","","","","","",""
"html-keyboard-response","269","586832","0.0-14.0-0.18","60b7b8126c0c4524e913236e","650c16f0f2faf8d7a0d14c09","651c1c16a5f67c0d69075afd","null","null","<p style=""font-size: 60px; font-family: BACS"">kGlUAZbl</p>","","","","","","","","",""
"html-keyboard-response","270","587842","0.0-14.0-0.19","60b7b8126c0c4524e913236e","650c16f0f2faf8d7a0d14c09","651c1c16a5f67c0d69075afd","null","null","<p style=""font-size: 60px; font-family: BACS"">KTDTBPTl</p>","","","","","","","","",""
"html-keyboard-response","271","588846","0.0-14.0-0.20","60b7b8126c0c4524e913236e","650c16f0f2faf8d7a0d14c09","651c1c16a5f67c0d69075afd","null","null","<p style=""font-size: 60px; font-family: BACS"">mARMCMdP</p>","","","","","","","","",""
"html-keyboard-response","272","589855","0.0-14.0-0.21","60b7b8126c0c4524e913236e","650c16f0f2faf8d7a0d14c09","651c1c16a5f67c0d69075afd","null","null","<p style=""font-size: 60px; font-family: BACS"">JAdLmQru</p>","","","","","","","","",""
"html-keyboard-response","273","590859","0.0-14.0-0.22","60b7b8126c0c4524e913236e","650c16f0f2faf8d7a0d14c09","651c1c16a5f67c0d69075afd","null","null","<p style=""font-size: 60px; font-family: BACS"">dkLlAZbl</p>","","","","","","","","",""
"html-keyboard-response","274","591861","0.0-14.0-0.23","60b7b8126c0c4524e913236e","650c16f0f2faf8d7a0d14c09","651c1c16a5f67c0d69075afd","null","null","<p style=""font-size: 60px; font-family: BACS"">KTDTBCKOb</p>","","","","","","","","",""
"html-keyboard-response","275","592872","0.0-14.0-0.24","60b7b8126c0c4524e913236e","650c16f0f2faf8d7a0d14c09","651c1c16a5f67c0d69075afd","null","null","<p style=""font-size: 60px; font-family: BACS"">DdckTmc</p>","","","","","","","","",""
"html-keyboard-response","276","593874","0.0-14.0-0.25","60b7b8126c0c4524e913236e","650c16f0f2faf8d7a0d14c09","651c1c16a5f67c0d69075afd","null","null","<p style=""font-size: 60px; font-family: BACS"">RCcETPOM</p>","","","","","","","","",""
"html-keyboard-response","277","594875","0.0-14.0-0.26","60b7b8126c0c4524e913236e","650c16f0f2faf8d7a0d14c09","651c1c16a5f67c0d69075afd","null","null","<p style=""font-size: 60px; font-family: BACS"">kcCRtCKOb</p>","","","","","","","","",""
"html-keyboard-response","278","595888","0.0-14.0-0.27","60b7b8126c0c4524e913236e","650c16f0f2faf8d7a0d14c09","651c1c16a5f67c0d69075afd","null","null","<p style=""font-size: 60px; font-family: BACS"">DmAMETPOM</p>","","","","","","","","",""
"html-keyboard-response","279","596900","0.0-14.0-0.28","60b7b8126c0c4524e913236e","650c16f0f2faf8d7a0d14c09","651c1c16a5f67c0d69075afd","null","null","<p style=""font-size: 60px; font-family: BACS"">ABPRBCKOb</p>","","","","","","","","",""
"html-keyboard-response","280","597907","0.0-14.0-0.29","60b7b8126c0c4524e913236e","650c16f0f2faf8d7a0d14c09","651c1c16a5f67c0d69075afd","null","null","<p style=""font-size: 60px; font-family: BACS"">mARMTPOM</p>","","","","","","","","",""
"html-keyboard-response","281","598923","0.0-14.0-0.30","60b7b8126c0c4524e913236e","650c16f0f2faf8d7a0d14c09","651c1c16a5f67c0d69075afd","null","null","<p style=""font-size: 60px; font-family: BACS"">RCcECKOb</p>","","","","","","","","",""
"html-keyboard-response","282","599935","0.0-14.0-0.31","60b7b8126c0c4524e913236e","650c16f0f2faf8d7a0d14c09","651c1c16a5f67c0d69075afd","null","null","<p style=""font-size: 60px; font-family: BACS"">ObOQlLaA</p>","","","","","","","","",""
"html-keyboard-response","283","600941","0.0-14.0-0.32","60b7b8126c0c4524e913236e","650c16f0f2faf8d7a0d14c09","651c1c16a5f67c0d69075afd","null","null","<p style=""font-size: 60px; font-family: BACS"">JAdLmYaOk</p>","","","","","","","","",""
"html-keyboard-response","284","601953","0.0-14.0-0.33","60b7b8126c0c4524e913236e","650c16f0f2faf8d7a0d14c09","651c1c16a5f67c0d69075afd","null","null","<p style=""font-size: 60px; font-family: BACS"">LvuOGQru</p>","","","","","","","","",""
"html-keyboard-response","285","602966","0.0-14.0-0.34","60b7b8126c0c4524e913236e","650c16f0f2faf8d7a0d14c09","651c1c16a5f67c0d69075afd","null","null","<p style=""font-size: 60px; font-family: BACS"">LQurAZbl</p>","","","","","","","","",""
"html-keyboard-response","286","603975","0.0-14.0-0.35","60b7b8126c0c4524e913236e","650c16f0f2faf8d7a0d14c09","651c1c16a5f67c0d69075afd","null","null","<p style=""font-size: 60px; font-family: BACS"">LvuOGLaA</p>","","","","","","","","",""
"html-keyboard-response","287","604976","0.0-14.0-0.36","60b7b8126c0c4524e913236e","650c16f0f2faf8d7a0d14c09","651c1c16a5f67c0d69075afd","null","null","<p style=""font-size: 60px; font-family: BACS"">OAblcYaOk</p>","","","","","","","","",""
"html-keyboard-response","288","605986","0.0-14.0-0.37","60b7b8126c0c4524e913236e","650c16f0f2faf8d7a0d14c09","651c1c16a5f67c0d69075afd","null","null","<p style=""font-size: 60px; font-family: BACS"">JAdLmLaA</p>","","","","","","","","",""
"html-keyboard-response","289","607002","0.0-14.0-0.38","60b7b8126c0c4524e913236e","650c16f0f2faf8d7a0d14c09","651c1c16a5f67c0d69075afd","null","null","<p style=""font-size: 60px; font-family: BACS"">DmAMEPTl</p>","","","","","","","","",""
"html-keyboard-response","290","608009","0.0-14.0-0.39","60b7b8126c0c4524e913236e","650c16f0f2faf8d7a0d14c09","651c1c16a5f67c0d69075afd","null","null","<p style=""font-size: 60px; font-family: BACS"">DCmhCKOb</p>","","","","","","","","",""
"html-keyboard-response","291","609016","0.0-14.0-0.40","60b7b8126c0c4524e913236e","650c16f0f2faf8d7a0d14c09","651c1c16a5f67c0d69075afd","null","null","<p style=""font-size: 60px; font-family: BACS"">KTDTBTPOM</p>","","","","","","","","",""
"html-keyboard-response","292","610032","0.0-14.0-0.41","60b7b8126c0c4524e913236e","650c16f0f2faf8d7a0d14c09","651c1c16a5f67c0d69075afd","null","null","<p style=""font-size: 60px; font-family: BACS"">kPOtCKOb</p>","","","","","","","","",""
"html-keyboard-response","293","611036","0.0-14.0-0.42","60b7b8126c0c4524e913236e","650c16f0f2faf8d7a0d14c09","651c1c16a5f67c0d69075afd","null","null","<p style=""font-size: 60px; font-family: BACS"">bmbNYaOk</p>","","","","","","","","",""
"html-keyboard-response","294","612038","0.0-14.0-0.43","60b7b8126c0c4524e913236e","650c16f0f2faf8d7a0d14c09","651c1c16a5f67c0d69075afd","null","null","<p style=""font-size: 60px; font-family: BACS"">OAblcLaA</p>","","","","","","","","",""
"html-keyboard-response","295","613050","0.0-14.0-0.44","60b7b8126c0c4524e913236e","650c16f0f2faf8d7a0d14c09","651c1c16a5f67c0d69075afd","null","null","<p style=""font-size: 60px; font-family: BACS"">kcCRtTPOM</p>","","","","","","","","",""
"html-keyboard-response","296","614051","0.0-14.0-0.45","60b7b8126c0c4524e913236e","650c16f0f2faf8d7a0d14c09","651c1c16a5f67c0d69075afd","null","null","<p style=""font-size: 60px; font-family: BACS"">mARMCKOb</p>","","","","","","","","",""
"html-keyboard-response","297","615062","0.0-14.0-0.46","60b7b8126c0c4524e913236e","650c16f0f2faf8d7a0d14c09","651c1c16a5f67c0d69075afd","null","null","<p style=""font-size: 60px; font-family: BACS"">UvOGaQr</p>","","","","","","","","",""
"html-keyboard-response","298","616072","0.0-14.0-0.47","60b7b8126c0c4524e913236e","650c16f0f2faf8d7a0d14c09","651c1c16a5f67c0d69075afd","null","null","<p style=""font-size: 60px; font-family: BACS"">DmAMETmc</p>","","","","","","","","",""
"html-keyboard-response","299","617077","0.0-14.0-0.48","60b7b8126c0c4524e913236e","650c16f0f2faf8d7a0d14c09","651c1c16a5f67c0d69075afd","null","null","<p style=""font-size: 60px; font-family: BACS"">OAblcQru</p>","","","","","","","","",""
"html-keyboard-response","300","618082","0.0-14.0-0.49","60b7b8126c0c4524e913236e","650c16f0f2faf8d7a0d14c09","651c1c16a5f67c0d69075afd","null","null","<p style=""font-size: 60px; font-family: BACS"">YmBdTmc</p>","","","","","","","","",""
"html-keyboard-response","301","619093","0.0-14.0-0.50","60b7b8126c0c4524e913236e","650c16f0f2faf8d7a0d14c09","651c1c16a5f67c0d69075afd","null","null","<p style=""font-size: 60px; font-family: BACS"">UvOGAZbl</p>","","","","","","","","",""
"html-keyboard-response","302","620099","0.0-14.0-0.51","60b7b8126c0c4524e913236e","650c16f0f2faf8d7a0d14c09","651c1c16a5f67c0d69075afd","null","null","<p style=""font-size: 60px; font-family: BACS"">kcCRtCMdP</p>","","","","","","","","",""
"html-keyboard-response","303","621108","0.0-14.0-0.52","60b7b8126c0c4524e913236e","650c16f0f2faf8d7a0d14c09","651c1c16a5f67c0d69075afd","null","null","<p style=""font-size: 60px; font-family: BACS"">bmbNQru</p>","","","","","","","","",""
"html-keyboard-response","304","622123","0.0-14.0-0.53","60b7b8126c0c4524e913236e","650c16f0f2faf8d7a0d14c09","651c1c16a5f67c0d69075afd","null","null","<p style=""font-size: 60px; font-family: BACS"">kGlULaA</p>","","","","","","","","",""
"html-keyboard-response","305","623129","0.0-14.0-0.54","60b7b8126c0c4524e913236e","650c16f0f2faf8d7a0d14c09","651c1c16a5f67c0d69075afd","null","null","<p style=""font-size: 60px; font-family: BACS"">ObOQlQru</p>","","","","","","","","",""
"html-keyboard-response","306","624134","0.0-14.0-0.55","60b7b8126c0c4524e913236e","650c16f0f2faf8d7a0d14c09","651c1c16a5f67c0d69075afd","null","null","<p style=""font-size: 60px; font-family: BACS"">DdckPTl</p>","","","","","","","","",""
"html-keyboard-response","307","625142","0.0-14.0-0.56","60b7b8126c0c4524e913236e","650c16f0f2faf8d7a0d14c09","651c1c16a5f67c0d69075afd","null","null","<p style=""font-size: 60px; font-family: BACS"">dkLlaQr</p>","","","","","","","","",""
"html-keyboard-response","308","626144","0.0-14.0-0.57","60b7b8126c0c4524e913236e","650c16f0f2faf8d7a0d14c09","651c1c16a5f67c0d69075afd","null","null","<p style=""font-size: 60px; font-family: BACS"">YmBdCKOb</p>","","","","","","","","",""
"html-keyboard-response","309","627152","0.0-14.0-0.58","60b7b8126c0c4524e913236e","650c16f0f2faf8d7a0d14c09","651c1c16a5f67c0d69075afd","null","null","<p style=""font-size: 60px; font-family: BACS"">mARMPTl</p>","","","","","","","","",""
"html-keyboard-response","310","628158","0.0-14.0-0.59","60b7b8126c0c4524e913236e","650c16f0f2faf8d7a0d14c09","651c1c16a5f67c0d69075afd","null","null","<p style=""font-size: 60px; font-family: BACS"">DCmhCMdP</p>","","","","","","","","",""
"html-keyboard-response","311","629170","0.0-14.0-0.60","60b7b8126c0c4524e913236e","650c16f0f2faf8d7a0d14c09","651c1c16a5f67c0d69075afd","null","null","<p style=""font-size: 60px; font-family: BACS"">UvOGYaOk</p>","","","","","","","","",""
"html-keyboard-response","312","630183","0.0-14.0-0.61","60b7b8126c0c4524e913236e","650c16f0f2faf8d7a0d14c09","651c1c16a5f67c0d69075afd","null","null","<p style=""font-size: 60px; font-family: BACS"">ABPRBPTl</p>","","","","","","","","",""
"html-keyboard-response","313","631192","0.0-14.0-0.62","60b7b8126c0c4524e913236e","650c16f0f2faf8d7a0d14c09","651c1c16a5f67c0d69075afd","null","null","<p style=""font-size: 60px; font-family: BACS"">kPOtTmc</p>","","","","","","","","",""
"html-keyboard-response","314","632194","0.0-14.0-0.63","60b7b8126c0c4524e913236e","650c16f0f2faf8d7a0d14c09","651c1c16a5f67c0d69075afd","null","null","<p style=""font-size: 60px; font-family: BACS"">dkLlYaOk</p>","","","","","","","","",""
"html-keyboard-response","315","633207","0.0-14.0-0.64","60b7b8126c0c4524e913236e","650c16f0f2faf8d7a0d14c09","651c1c16a5f67c0d69075afd","null","null","<p style=""font-size: 60px; font-family: BACS"">kPOtTPOM</p>","","","","","","","","",""
"html-keyboard-response","316","634213","0.0-14.0-0.65","60b7b8126c0c4524e913236e","650c16f0f2faf8d7a0d14c09","651c1c16a5f67c0d69075afd","null","null","<p style=""font-size: 60px; font-family: BACS"">kcCRtTmc</p>","","","","","","","","",""
"html-keyboard-response","317","635221","0.0-14.0-0.66","60b7b8126c0c4524e913236e","650c16f0f2faf8d7a0d14c09","651c1c16a5f67c0d69075afd","null","null","<p style=""font-size: 60px; font-family: BACS"">bmbNAZbl</p>","","","","","","","","",""
"html-keyboard-response","318","636223","0.0-14.0-0.67","60b7b8126c0c4524e913236e","650c16f0f2faf8d7a0d14c09","651c1c16a5f67c0d69075afd","null","null","<p style=""font-size: 60px; font-family: BACS"">DmAMECMdP</p>","","","","","","","","",""
"html-keyboard-response","319","637237","0.0-14.0-0.68","60b7b8126c0c4524e913236e","650c16f0f2faf8d7a0d14c09","651c1c16a5f67c0d69075afd","null","null","<p style=""font-size: 60px; font-family: BACS"">bmbNaQr</p>","","","","","","","","",""
"html-keyboard-response","320","638252","0.0-14.0-0.69","60b7b8126c0c4524e913236e","650c16f0f2faf8d7a0d14c09","651c1c16a5f67c0d69075afd","null","null","<p style=""font-size: 60px; font-family: BACS"">KTDTBCMdP</p>","","","","","","","","",""
"html-keyboard-response","321","639263","0.0-14.0-0.70","60b7b8126c0c4524e913236e","650c16f0f2faf8d7a0d14c09","651c1c16a5f67c0d69075afd","null","null","<p style=""font-size: 60px; font-family: BACS"">LvuOGaQr</p>","","","","","","","","",""
"html-keyboard-response","322","640269","0.0-14.0-0.71","60b7b8126c0c4524e913236e","650c16f0f2faf8d7a0d14c09","651c1c16a5f67c0d69075afd","null","null","<p style=""font-size: 60px; font-family: BACS"">LQurQru</p>","","","","","","","","",""
"html-keyboard-response","323","641280","0.0-14.0-0.72","60b7b8126c0c4524e913236e","650c16f0f2faf8d7a0d14c09","651c1c16a5f67c0d69075afd","null","null","<p style=""font-size: 60px; font-family: BACS"">ABPRBCMdP</p>","","","","","","","","",""
"html-keyboard-response","324","642288","0.0-14.0-0.73","60b7b8126c0c4524e913236e","650c16f0f2faf8d7a0d14c09","651c1c16a5f67c0d69075afd","null","null","<p style=""font-size: 60px; font-family: BACS"">UYZlZQru</p>","","","","","","","","",""
"html-keyboard-response","325","643292","0.0-14.0-0.74","60b7b8126c0c4524e913236e","650c16f0f2faf8d7a0d14c09","651c1c16a5f67c0d69075afd","null","null","<p style=""font-size: 60px; font-family: BACS"">ObOQlaQr</p>","","","","","","","","",""
"html-keyboard-response","326","644299","0.0-14.0-0.75","60b7b8126c0c4524e913236e","650c16f0f2faf8d7a0d14c09","651c1c16a5f67c0d69075afd","null","null","<p style=""font-size: 60px; font-family: BACS"">LQurLaA</p>","","","","","","","","",""
"html-keyboard-response","327","645302","0.0-14.0-0.76","60b7b8126c0c4524e913236e","650c16f0f2faf8d7a0d14c09","651c1c16a5f67c0d69075afd","null","null","<p style=""font-size: 60px; font-family: BACS"">ObOQlAZbl</p>","","","","","","","","",""
"html-keyboard-response","328","646304","0.0-14.0-0.77","60b7b8126c0c4524e913236e","650c16f0f2faf8d7a0d14c09","651c1c16a5f67c0d69075afd","null","null","<p style=""font-size: 60px; font-family: BACS"">UYZlZaQr</p>","","","","","","","","",""
"html-keyboard-response","329","647306","0.0-14.0-0.78","60b7b8126c0c4524e913236e","650c16f0f2faf8d7a0d14c09","651c1c16a5f67c0d69075afd","null","null","<p style=""font-size: 60px; font-family: BACS"">kPOtCMdP</p>","","","","","","","","",""
"html-keyboard-response","330","648314","0.0-14.0-0.79","60b7b8126c0c4524e913236e","650c16f0f2faf8d7a0d14c09","651c1c16a5f67c0d69075afd","null","null","<p style=""font-size: 60px; font-family: BACS"">UYZlZLaA</p>","","","","","","","","",""
"html-keyboard-response","331","886345","0.0-15.0","60b7b8126c0c4524e913236e","650c16f0f2faf8d7a0d14c09","651c1c16a5f67c0d69075afd","238030"," ","<p>Great, you've seen the fourth block of words. You may now take a short break.</p>
      <p>Press the spacebar when you're ready to continue.</p>","","","","","","","","",""
"html-keyboard-response","332","887349","0.0-16.0-0.0","60b7b8126c0c4524e913236e","650c16f0f2faf8d7a0d14c09","651c1c16a5f67c0d69075afd","null","null","<p style=""font-size: 60px; font-family: BACS"">bmbNAZbl</p>","","","","","","","","",""
"html-keyboard-response","333","888361","0.0-16.0-0.1","60b7b8126c0c4524e913236e","650c16f0f2faf8d7a0d14c09","651c1c16a5f67c0d69075afd","null","null","<p style=""font-size: 60px; font-family: BACS"">bmbNAZbl</p>","","","","","","","","",""
"html-keyboard-response","334","889366","0.0-16.0-0.2","60b7b8126c0c4524e913236e","650c16f0f2faf8d7a0d14c09","651c1c16a5f67c0d69075afd","null","null","<p style=""font-size: 60px; font-family: BACS"">bmbNAZbl</p>","","","","","","","","",""
"html-keyboard-response","335","890379","0.0-16.0-0.3","60b7b8126c0c4524e913236e","650c16f0f2faf8d7a0d14c09","651c1c16a5f67c0d69075afd","null","null","<p style=""font-size: 60px; font-family: BACS"">bmbNAZbl</p>","","","","","","","","",""
"html-keyboard-response","336","891393","0.0-16.0-0.4","60b7b8126c0c4524e913236e","650c16f0f2faf8d7a0d14c09","651c1c16a5f67c0d69075afd","null","null","<p style=""font-size: 60px; font-family: BACS"">bmbNAZbl</p>","","","","","","","","",""
"html-keyboard-response","337","892408","0.0-16.0-0.5","60b7b8126c0c4524e913236e","650c16f0f2faf8d7a0d14c09","651c1c16a5f67c0d69075afd","null","null","<p style=""font-size: 60px; font-family: BACS"">bmbNAZbl</p>","","","","","","","","",""
"html-keyboard-response","338","893421","0.0-16.0-0.6","60b7b8126c0c4524e913236e","650c16f0f2faf8d7a0d14c09","651c1c16a5f67c0d69075afd","null","null","<p style=""font-size: 60px; font-family: BACS"">bmbNAZbl</p>","","","","","","","","",""
"html-keyboard-response","339","894431","0.0-16.0-0.7","60b7b8126c0c4524e913236e","650c16f0f2faf8d7a0d14c09","651c1c16a5f67c0d69075afd","null","null","<p style=""font-size: 60px; font-family: BACS"">bmbNAZbl</p>","","","","","","","","",""
"html-keyboard-response","340","895432","0.0-16.0-0.8","60b7b8126c0c4524e913236e","650c16f0f2faf8d7a0d14c09","651c1c16a5f67c0d69075afd","null","null","<p style=""font-size: 60px; font-family: BACS"">bmbNAZbl</p>","","","","","","","","",""
"html-keyboard-response","341","896442","0.0-16.0-0.9","60b7b8126c0c4524e913236e","650c16f0f2faf8d7a0d14c09","651c1c16a5f67c0d69075afd","null","null","<p style=""font-size: 60px; font-family: BACS"">bmbNAZbl</p>","","","","","","","","",""
"html-keyboard-response","342","897444","0.0-16.0-0.10","60b7b8126c0c4524e913236e","650c16f0f2faf8d7a0d14c09","651c1c16a5f67c0d69075afd","null","null","<p style=""font-size: 60px; font-family: BACS"">bmbNAZbl</p>","","","","","","","","",""
"html-keyboard-response","343","898457","0.0-16.0-0.11","60b7b8126c0c4524e913236e","650c16f0f2faf8d7a0d14c09","651c1c16a5f67c0d69075afd","null","null","<p style=""font-size: 60px; font-family: BACS"">bmbNAZbl</p>","","","","","","","","",""
"html-keyboard-response","344","899469","0.0-16.0-0.12","60b7b8126c0c4524e913236e","650c16f0f2faf8d7a0d14c09","651c1c16a5f67c0d69075afd","null","null","<p style=""font-size: 60px; font-family: BACS"">bmbNAZbl</p>","","","","","","","","",""
"html-keyboard-response","345","900471","0.0-16.0-0.13","60b7b8126c0c4524e913236e","650c16f0f2faf8d7a0d14c09","651c1c16a5f67c0d69075afd","null","null","<p style=""font-size: 60px; font-family: BACS"">bmbNAZbl</p>","","","","","","","","",""
"html-keyboard-response","346","901482","0.0-16.0-0.14","60b7b8126c0c4524e913236e","650c16f0f2faf8d7a0d14c09","651c1c16a5f67c0d69075afd","null","null","<p style=""font-size: 60px; font-family: BACS"">bmbNAZbl</p>","","","","","","","","",""
"html-keyboard-response","347","902498","0.0-16.0-0.15","60b7b8126c0c4524e913236e","650c16f0f2faf8d7a0d14c09","651c1c16a5f67c0d69075afd","null","null","<p style=""font-size: 60px; font-family: BACS"">bmbNAZbl</p>","","","","","","","","",""
"html-keyboard-response","348","903510","0.0-16.0-0.16","60b7b8126c0c4524e913236e","650c16f0f2faf8d7a0d14c09","651c1c16a5f67c0d69075afd","null","null","<p style=""font-size: 60px; font-family: BACS"">bmbNAZbl</p>","","","","","","","","",""
"html-keyboard-response","349","904521","0.0-16.0-0.17","60b7b8126c0c4524e913236e","650c16f0f2faf8d7a0d14c09","651c1c16a5f67c0d69075afd","null","null","<p style=""font-size: 60px; font-family: BACS"">bmbNAZbl</p>","","","","","","","","",""
"html-keyboard-response","350","905533","0.0-16.0-0.18","60b7b8126c0c4524e913236e","650c16f0f2faf8d7a0d14c09","651c1c16a5f67c0d69075afd","null","null","<p style=""font-size: 60px; font-family: BACS"">bmbNAZbl</p>","","","","","","","","",""
"html-keyboard-response","351","906547","0.0-16.0-0.19","60b7b8126c0c4524e913236e","650c16f0f2faf8d7a0d14c09","651c1c16a5f67c0d69075afd","null","null","<p style=""font-size: 60px; font-family: BACS"">bmbNAZbl</p>","","","","","","","","",""
"html-keyboard-response","352","907562","0.0-16.0-0.20","60b7b8126c0c4524e913236e","650c16f0f2faf8d7a0d14c09","651c1c16a5f67c0d69075afd","null","null","<p style=""font-size: 60px; font-family: BACS"">bmbNAZbl</p>","","","","","","","","",""
"html-keyboard-response","353","908575","0.0-16.0-0.21","60b7b8126c0c4524e913236e","650c16f0f2faf8d7a0d14c09","651c1c16a5f67c0d69075afd","null","null","<p style=""font-size: 60px; font-family: BACS"">bmbNAZbl</p>","","","","","","","","",""
"html-keyboard-response","354","909578","0.0-16.0-0.22","60b7b8126c0c4524e913236e","650c16f0f2faf8d7a0d14c09","651c1c16a5f67c0d69075afd","null","null","<p style=""font-size: 60px; font-family: BACS"">bmbNAZbl</p>","","","","","","","","",""
"html-keyboard-response","355","910593","0.0-16.0-0.23","60b7b8126c0c4524e913236e","650c16f0f2faf8d7a0d14c09","651c1c16a5f67c0d69075afd","null","null","<p style=""font-size: 60px; font-family: BACS"">bmbNAZbl</p>","","","","","","","","",""
"html-keyboard-response","356","911596","0.0-16.0-0.24","60b7b8126c0c4524e913236e","650c16f0f2faf8d7a0d14c09","651c1c16a5f67c0d69075afd","null","null","<p style=""font-size: 60px; font-family: BACS"">bmbNAZbl</p>","","","","","","","","",""
"html-keyboard-response","357","912599","0.0-16.0-0.25","60b7b8126c0c4524e913236e","650c16f0f2faf8d7a0d14c09","651c1c16a5f67c0d69075afd","null","null","<p style=""font-size: 60px; font-family: BACS"">bmbNAZbl</p>","","","","","","","","",""
"html-keyboard-response","358","913609","0.0-16.0-0.26","60b7b8126c0c4524e913236e","650c16f0f2faf8d7a0d14c09","651c1c16a5f67c0d69075afd","null","null","<p style=""font-size: 60px; font-family: BACS"">bmbNAZbl</p>","","","","","","","","",""
"html-keyboard-response","359","914611","0.0-16.0-0.27","60b7b8126c0c4524e913236e","650c16f0f2faf8d7a0d14c09","651c1c16a5f67c0d69075afd","null","null","<p style=""font-size: 60px; font-family: BACS"">bmbNAZbl</p>","","","","","","","","",""
"html-keyboard-response","360","915614","0.0-16.0-0.28","60b7b8126c0c4524e913236e","650c16f0f2faf8d7a0d14c09","651c1c16a5f67c0d69075afd","null","null","<p style=""font-size: 60px; font-family: BACS"">bmbNAZbl</p>","","","","","","","","",""
"html-keyboard-response","361","916615","0.0-16.0-0.29","60b7b8126c0c4524e913236e","650c16f0f2faf8d7a0d14c09","651c1c16a5f67c0d69075afd","null","null","<p style=""font-size: 60px; font-family: BACS"">bmbNAZbl</p>","","","","","","","","",""
"html-keyboard-response","362","917618","0.0-16.0-0.30","60b7b8126c0c4524e913236e","650c16f0f2faf8d7a0d14c09","651c1c16a5f67c0d69075afd","null","null","<p style=""font-size: 60px; font-family: BACS"">bmbNAZbl</p>","","","","","","","","",""
"html-keyboard-response","363","918632","0.0-16.0-0.31","60b7b8126c0c4524e913236e","650c16f0f2faf8d7a0d14c09","651c1c16a5f67c0d69075afd","null","null","<p style=""font-size: 60px; font-family: BACS"">bmbNAZbl</p>","","","","","","","","",""
"html-keyboard-response","364","919633","0.0-16.0-0.32","60b7b8126c0c4524e913236e","650c16f0f2faf8d7a0d14c09","651c1c16a5f67c0d69075afd","null","null","<p style=""font-size: 60px; font-family: BACS"">bmbNAZbl</p>","","","","","","","","",""
"html-keyboard-response","365","920646","0.0-16.0-0.33","60b7b8126c0c4524e913236e","650c16f0f2faf8d7a0d14c09","651c1c16a5f67c0d69075afd","null","null","<p style=""font-size: 60px; font-family: BACS"">bmbNAZbl</p>","","","","","","","","",""
"html-keyboard-response","366","921652","0.0-16.0-0.34","60b7b8126c0c4524e913236e","650c16f0f2faf8d7a0d14c09","651c1c16a5f67c0d69075afd","null","null","<p style=""font-size: 60px; font-family: BACS"">bmbNAZbl</p>","","","","","","","","",""
"html-keyboard-response","367","922662","0.0-16.0-0.35","60b7b8126c0c4524e913236e","650c16f0f2faf8d7a0d14c09","651c1c16a5f67c0d69075afd","null","null","<p style=""font-size: 60px; font-family: BACS"">bmbNAZbl</p>","","","","","","","","",""
"html-keyboard-response","368","923665","0.0-16.0-0.36","60b7b8126c0c4524e913236e","650c16f0f2faf8d7a0d14c09","651c1c16a5f67c0d69075afd","null","null","<p style=""font-size: 60px; font-family: BACS"">bmbNAZbl</p>","","","","","","","","",""
"html-keyboard-response","369","924674","0.0-16.0-0.37","60b7b8126c0c4524e913236e","650c16f0f2faf8d7a0d14c09","651c1c16a5f67c0d69075afd","null","null","<p style=""font-size: 60px; font-family: BACS"">bmbNAZbl</p>","","","","","","","","",""
"html-keyboard-response","370","925677","0.0-16.0-0.38","60b7b8126c0c4524e913236e","650c16f0f2faf8d7a0d14c09","651c1c16a5f67c0d69075afd","null","null","<p style=""font-size: 60px; font-family: BACS"">bmbNAZbl</p>","","","","","","","","",""
"html-keyboard-response","371","926691","0.0-16.0-0.39","60b7b8126c0c4524e913236e","650c16f0f2faf8d7a0d14c09","651c1c16a5f67c0d69075afd","null","null","<p style=""font-size: 60px; font-family: BACS"">bmbNAZbl</p>","","","","","","","","",""
"html-keyboard-response","372","927703","0.0-16.0-0.40","60b7b8126c0c4524e913236e","650c16f0f2faf8d7a0d14c09","651c1c16a5f67c0d69075afd","null","null","<p style=""font-size: 60px; font-family: BACS"">bmbNAZbl</p>","","","","","","","","",""
"html-keyboard-response","373","928716","0.0-16.0-0.41","60b7b8126c0c4524e913236e","650c16f0f2faf8d7a0d14c09","651c1c16a5f67c0d69075afd","null","null","<p style=""font-size: 60px; font-family: BACS"">bmbNAZbl</p>","","","","","","","","",""
"html-keyboard-response","374","929721","0.0-16.0-0.42","60b7b8126c0c4524e913236e","650c16f0f2faf8d7a0d14c09","651c1c16a5f67c0d69075afd","null","null","<p style=""font-size: 60px; font-family: BACS"">bmbNAZbl</p>","","","","","","","","",""
"html-keyboard-response","375","930730","0.0-16.0-0.43","60b7b8126c0c4524e913236e","650c16f0f2faf8d7a0d14c09","651c1c16a5f67c0d69075afd","null","null","<p style=""font-size: 60px; font-family: BACS"">bmbNAZbl</p>","","","","","","","","",""
"html-keyboard-response","376","931739","0.0-16.0-0.44","60b7b8126c0c4524e913236e","650c16f0f2faf8d7a0d14c09","651c1c16a5f67c0d69075afd","null","null","<p style=""font-size: 60px; font-family: BACS"">bmbNAZbl</p>","","","","","","","","",""
"html-keyboard-response","377","932753","0.0-16.0-0.45","60b7b8126c0c4524e913236e","650c16f0f2faf8d7a0d14c09","651c1c16a5f67c0d69075afd","null","null","<p style=""font-size: 60px; font-family: BACS"">bmbNAZbl</p>","","","","","","","","",""
"html-keyboard-response","378","933769","0.0-16.0-0.46","60b7b8126c0c4524e913236e","650c16f0f2faf8d7a0d14c09","651c1c16a5f67c0d69075afd","null","null","<p style=""font-size: 60px; font-family: BACS"">bmbNAZbl</p>","","","","","","","","",""
"html-keyboard-response","379","934779","0.0-16.0-0.47","60b7b8126c0c4524e913236e","650c16f0f2faf8d7a0d14c09","651c1c16a5f67c0d69075afd","null","null","<p style=""font-size: 60px; font-family: BACS"">bmbNAZbl</p>","","","","","","","","",""
"html-keyboard-response","380","935795","0.0-16.0-0.48","60b7b8126c0c4524e913236e","650c16f0f2faf8d7a0d14c09","651c1c16a5f67c0d69075afd","null","null","<p style=""font-size: 60px; font-family: BACS"">bmbNAZbl</p>","","","","","","","","",""
"html-keyboard-response","381","936798","0.0-16.0-0.49","60b7b8126c0c4524e913236e","650c16f0f2faf8d7a0d14c09","651c1c16a5f67c0d69075afd","null","null","<p style=""font-size: 60px; font-family: BACS"">bmbNAZbl</p>","","","","","","","","",""
"html-keyboard-response","382","937813","0.0-16.0-0.50","60b7b8126c0c4524e913236e","650c16f0f2faf8d7a0d14c09","651c1c16a5f67c0d69075afd","null","null","<p style=""font-size: 60px; font-family: BACS"">bmbNAZbl</p>","","","","","","","","",""
"html-keyboard-response","383","938821","0.0-16.0-0.51","60b7b8126c0c4524e913236e","650c16f0f2faf8d7a0d14c09","651c1c16a5f67c0d69075afd","null","null","<p style=""font-size: 60px; font-family: BACS"">bmbNAZbl</p>","","","","","","","","",""
"html-keyboard-response","384","939823","0.0-16.0-0.52","60b7b8126c0c4524e913236e","650c16f0f2faf8d7a0d14c09","651c1c16a5f67c0d69075afd","null","null","<p style=""font-size: 60px; font-family: BACS"">bmbNAZbl</p>","","","","","","","","",""
"html-keyboard-response","385","940825","0.0-16.0-0.53","60b7b8126c0c4524e913236e","650c16f0f2faf8d7a0d14c09","651c1c16a5f67c0d69075afd","null","null","<p style=""font-size: 60px; font-family: BACS"">bmbNAZbl</p>","","","","","","","","",""
"html-keyboard-response","386","941833","0.0-16.0-0.54","60b7b8126c0c4524e913236e","650c16f0f2faf8d7a0d14c09","651c1c16a5f67c0d69075afd","null","null","<p style=""font-size: 60px; font-family: BACS"">bmbNAZbl</p>","","","","","","","","",""
"html-keyboard-response","387","942849","0.0-16.0-0.55","60b7b8126c0c4524e913236e","650c16f0f2faf8d7a0d14c09","651c1c16a5f67c0d69075afd","null","null","<p style=""font-size: 60px; font-family: BACS"">bmbNAZbl</p>","","","","","","","","",""
"html-keyboard-response","388","943855","0.0-16.0-0.56","60b7b8126c0c4524e913236e","650c16f0f2faf8d7a0d14c09","651c1c16a5f67c0d69075afd","null","null","<p style=""font-size: 60px; font-family: BACS"">bmbNAZbl</p>","","","","","","","","",""
"html-keyboard-response","389","944864","0.0-16.0-0.57","60b7b8126c0c4524e913236e","650c16f0f2faf8d7a0d14c09","651c1c16a5f67c0d69075afd","null","null","<p style=""font-size: 60px; font-family: BACS"">bmbNAZbl</p>","","","","","","","","",""
"html-keyboard-response","390","945879","0.0-16.0-0.58","60b7b8126c0c4524e913236e","650c16f0f2faf8d7a0d14c09","651c1c16a5f67c0d69075afd","null","null","<p style=""font-size: 60px; font-family: BACS"">bmbNAZbl</p>","","","","","","","","",""
"html-keyboard-response","391","946890","0.0-16.0-0.59","60b7b8126c0c4524e913236e","650c16f0f2faf8d7a0d14c09","651c1c16a5f67c0d69075afd","null","null","<p style=""font-size: 60px; font-family: BACS"">bmbNAZbl</p>","","","","","","","","",""
"html-keyboard-response","392","947904","0.0-16.0-0.60","60b7b8126c0c4524e913236e","650c16f0f2faf8d7a0d14c09","651c1c16a5f67c0d69075afd","null","null","<p style=""font-size: 60px; font-family: BACS"">bmbNAZbl</p>","","","","","","","","",""
"html-keyboard-response","393","948915","0.0-16.0-0.61","60b7b8126c0c4524e913236e","650c16f0f2faf8d7a0d14c09","651c1c16a5f67c0d69075afd","null","null","<p style=""font-size: 60px; font-family: BACS"">bmbNAZbl</p>","","","","","","","","",""
"html-keyboard-response","394","949926","0.0-16.0-0.62","60b7b8126c0c4524e913236e","650c16f0f2faf8d7a0d14c09","651c1c16a5f67c0d69075afd","null","null","<p style=""font-size: 60px; font-family: BACS"">bmbNAZbl</p>","","","","","","","","",""
"html-keyboard-response","395","950929","0.0-16.0-0.63","60b7b8126c0c4524e913236e","650c16f0f2faf8d7a0d14c09","651c1c16a5f67c0d69075afd","null","null","<p style=""font-size: 60px; font-family: BACS"">bmbNAZbl</p>","","","","","","","","",""
"html-keyboard-response","396","951945","0.0-16.0-0.64","60b7b8126c0c4524e913236e","650c16f0f2faf8d7a0d14c09","651c1c16a5f67c0d69075afd","null","null","<p style=""font-size: 60px; font-family: BACS"">bmbNAZbl</p>","","","","","","","","",""
"html-keyboard-response","397","952959","0.0-16.0-0.65","60b7b8126c0c4524e913236e","650c16f0f2faf8d7a0d14c09","651c1c16a5f67c0d69075afd","null","null","<p style=""font-size: 60px; font-family: BACS"">bmbNAZbl</p>","","","","","","","","",""
"html-keyboard-response","398","953969","0.0-16.0-0.66","60b7b8126c0c4524e913236e","650c16f0f2faf8d7a0d14c09","651c1c16a5f67c0d69075afd","null","null","<p style=""font-size: 60px; font-family: BACS"">bmbNAZbl</p>","","","","","","","","",""
"html-keyboard-response","399","954971","0.0-16.0-0.67","60b7b8126c0c4524e913236e","650c16f0f2faf8d7a0d14c09","651c1c16a5f67c0d69075afd","null","null","<p style=""font-size: 60px; font-family: BACS"">bmbNAZbl</p>","","","","","","","","",""
"html-keyboard-response","400","955985","0.0-16.0-0.68","60b7b8126c0c4524e913236e","650c16f0f2faf8d7a0d14c09","651c1c16a5f67c0d69075afd","null","null","<p style=""font-size: 60px; font-family: BACS"">bmbNAZbl</p>","","","","","","","","",""
