trial_type,trial_index,time_elapsed,internal_node_id,subject_id,study_id,session_id,rt,response,stimulus,success,item,task,correct_response,testing_condition,correct,target,confound,name,view_history
pavlovia,0,1299,0.0-0.0,611eafa6011b0423f7d7230f,650c16f0f2faf8d7a0d14c09,651c1e805011b2c4f87a8457,,,,,,,,,,,,,
survey-html-form,1,10287,0.0-1.0,611eafa6011b0423f7d7230f,650c16f0f2faf8d7a0d14c09,651c1e805011b2c4f87a8457,8986,"{""ID"":""611eafa6011b0423f7d7230f""}",,,,,,,,,,,
html-keyboard-response,2,31393,0.0-2.0,611eafa6011b0423f7d7230f,650c16f0f2faf8d7a0d14c09,651c1e805011b2c4f87a8457,21105, ,"<p style=""font-size: 15px;"">Before beginning, we ask that you read the consent information and confirm your agreement to participate in the experiment.</p>
      <p style=""font-size: 15px;""> We ask that you remember that this is a research project and that your participation is entirely voluntary. You can stop your participation at any time, without needing to provide any explanation. The study we're asking you to participate in aims at examining how readers process written words. You will be engaged in a session of apprximately 20 minutes, followed by a brief questionnaire. You will have the opportunity to take a few breaks during the experiment. You will be paid £4 for your participation, corresponding to a rate of £8/hour. While this experiment looks at cognitive faculties, this experiment doesn't constitute clinical proof of eventual pathologies.</p>
      <p style=""font-size: 15px;"">All of the information collected thanks to yours and others' participation will be held in a secure password-protected server, and will not be shared with anyone not authorised to view it. Your personal information will be kept with an arbitrary participant ID. Thanks to this data anonymity process, any researcher analysing the data won't be able to track the information back to a specific participant. Therefore, this process will make identifying you impossibile, even when results from the study will be published in scientific reviews, presented at congresses, or at any other public forum. More generally, the collected data will be treated in accordance with the laws on privacy and conformity to the Legislative Degree n. 196 ""Code regarding the protection of personal data"" of the 30th of June 2003 and to the European Regulation 2016/670 (General Data Protection Regulation - GDPR). The Data Protection Officer is Avv. Valentina Carollo, who can be contacted at the following email addresses: <a href=""mailto:dpo@sissa.it"">dpo@sissa.it</a> or <a href=""mailto:rpd@sissa.it"">rpd@sissa.it</a> - PEC: <a href=""mailto:protocollo@pec.sissa.it"">protocollo@pec.sissa.it</a>.</p>
      <p style=""font-size: 15px;""> Before expressing your consent to participate, we would like to remind you again that in case you need explanations on any aspect of the experimental procedure, the researcher is at your disposition (<a href=""mailto:aliebelt@sissa.it"">aliebelt@sissa.it</a>, <a href=""mailto:davide.crepaldi@sissa.it"">davide.crepaldi@sissa.it</a>).</p>
      <p style=""font-size: 15px;"">If you would like to download the informed consent form, you can do so here: <a href=""BASL-Informed_Consent.pdf"" download>informed consent form</a>.</p>
      <p style=""font-size: 15px;"">We ask that you press the spacebar to proceed to the consent section.</p>",,,,,,,,,,
survey-html-form,3,72211,0.0-3.0,611eafa6011b0423f7d7230f,650c16f0f2faf8d7a0d14c09,651c1e805011b2c4f87a8457,40816,"{""consent1"":""YES"",""consent2"":""YES"",""consent3"":""YES"",""consent4"":""YES"",""consent5"":""YES"",""consent6"":""YES""}",,,,,,,,,,,
fullscreen,4,103798,0.0-4.0,611eafa6011b0423f7d7230f,650c16f0f2faf8d7a0d14c09,651c1e805011b2c4f87a8457,,,,TRUE,,,,,,,,,
html-keyboard-response,5,107599,0.0-5.0,611eafa6011b0423f7d7230f,650c16f0f2faf8d7a0d14c09,651c1e805011b2c4f87a8457,3800, ,"<p>Welcome, and thank you very much for your time!</p>
      <p>In this experiment, you'll be a language expert who's been asked to take a look at words that Earth has received in its first communication with aliens. Your task, in this first part of the experiment, is to pay close attention to the words you'll be shown; later, world leaders will ask you questions on what you saw. The words will be shown to you quite quickly; it seems that the aliens were in a hurry :-)</p>
      <p>Press the spacebar to continue.<p>",,,,,,,,,,
html-keyboard-response,6,107651,0.0-6.0,611eafa6011b0423f7d7230f,650c16f0f2faf8d7a0d14c09,651c1e805011b2c4f87a8457,null,null,"<p style=""font-size: 120px; font-family: BACS""> </p>",,,,,,,,,,
html-keyboard-response,7,113704,0.0-7.0,611eafa6011b0423f7d7230f,650c16f0f2faf8d7a0d14c09,651c1e805011b2c4f87a8457,6052, ,"<p>Here is an example of the words you'll see:</p>
      <img src='esempio.png' height='400px'>
      <p>When you're ready to begin, press the spacebar.</p></div>",,,,,,,,,,
html-keyboard-response,8,114722,0.0-8.0-0.0,611eafa6011b0423f7d7230f,650c16f0f2faf8d7a0d14c09,651c1e805011b2c4f87a8457,null,null,"<p style=""font-size: 60px; font-family: BACS"">YlYcPMYm</p>",,,,,,,,,,
html-keyboard-response,9,115732,0.0-8.0-0.1,611eafa6011b0423f7d7230f,650c16f0f2faf8d7a0d14c09,651c1e805011b2c4f87a8457,null,null,"<p style=""font-size: 60px; font-family: BACS"">ArQuvJQ</p>",,,,,,,,,,
html-keyboard-response,10,116738,0.0-8.0-0.2,611eafa6011b0423f7d7230f,650c16f0f2faf8d7a0d14c09,651c1e805011b2c4f87a8457,null,null,"<p style=""font-size: 60px; font-family: BACS"">dKDthmKcD</p>",,,,,,,,,,
html-keyboard-response,11,117739,0.0-8.0-0.3,611eafa6011b0423f7d7230f,650c16f0f2faf8d7a0d14c09,651c1e805011b2c4f87a8457,null,null,"<p style=""font-size: 60px; font-family: BACS"">kcOYbTE</p>",,,,,,,,,,
html-keyboard-response,12,118753,0.0-8.0-0.4,611eafa6011b0423f7d7230f,650c16f0f2faf8d7a0d14c09,651c1e805011b2c4f87a8457,null,null,"<p style=""font-size: 60px; font-family: BACS"">LckGNYkZ</p>",,,,,,,,,,
html-keyboard-response,13,119761,0.0-8.0-0.5,611eafa6011b0423f7d7230f,650c16f0f2faf8d7a0d14c09,651c1e805011b2c4f87a8457,null,null,"<p style=""font-size: 60px; font-family: BACS"">ZcGdNkYL</p>",,,,,,,,,,
html-keyboard-response,14,120762,0.0-8.0-0.6,611eafa6011b0423f7d7230f,650c16f0f2faf8d7a0d14c09,651c1e805011b2c4f87a8457,null,null,"<p style=""font-size: 60px; font-family: BACS"">tmAKPMYm</p>",,,,,,,,,,
html-keyboard-response,15,121771,0.0-8.0-0.7,611eafa6011b0423f7d7230f,650c16f0f2faf8d7a0d14c09,651c1e805011b2c4f87a8457,null,null,"<p style=""font-size: 60px; font-family: BACS"">ZcGdNYkZ</p>",,,,,,,,,,
html-keyboard-response,16,122774,0.0-8.0-0.8,611eafa6011b0423f7d7230f,650c16f0f2faf8d7a0d14c09,651c1e805011b2c4f87a8457,null,null,"<p style=""font-size: 60px; font-family: BACS"">dKDthPMYm</p>",,,,,,,,,,
html-keyboard-response,17,123776,0.0-8.0-0.9,611eafa6011b0423f7d7230f,650c16f0f2faf8d7a0d14c09,651c1e805011b2c4f87a8457,null,null,"<p style=""font-size: 60px; font-family: BACS"">tmAKRYlD</p>",,,,,,,,,,
html-keyboard-response,18,124792,0.0-8.0-0.10,611eafa6011b0423f7d7230f,650c16f0f2faf8d7a0d14c09,651c1e805011b2c4f87a8457,null,null,"<p style=""font-size: 60px; font-family: BACS"">DRPkYdTAh</p>",,,,,,,,,,
html-keyboard-response,19,125798,0.0-8.0-0.11,611eafa6011b0423f7d7230f,650c16f0f2faf8d7a0d14c09,651c1e805011b2c4f87a8457,null,null,"<p style=""font-size: 60px; font-family: BACS"">OCmkRYlD</p>",,,,,,,,,,
html-keyboard-response,20,126801,0.0-8.0-0.12,611eafa6011b0423f7d7230f,650c16f0f2faf8d7a0d14c09,651c1e805011b2c4f87a8457,null,null,"<p style=""font-size: 60px; font-family: BACS"">vYLUkYL</p>",,,,,,,,,,
html-keyboard-response,21,127804,0.0-8.0-0.13,611eafa6011b0423f7d7230f,650c16f0f2faf8d7a0d14c09,651c1e805011b2c4f87a8457,null,null,"<p style=""font-size: 60px; font-family: BACS"">OAblcZvkL</p>",,,,,,,,,,
html-keyboard-response,22,128812,0.0-8.0-0.14,611eafa6011b0423f7d7230f,650c16f0f2faf8d7a0d14c09,651c1e805011b2c4f87a8457,null,null,"<p style=""font-size: 60px; font-family: BACS"">DRPkYPMYm</p>",,,,,,,,,,
html-keyboard-response,23,129815,0.0-8.0-0.15,611eafa6011b0423f7d7230f,650c16f0f2faf8d7a0d14c09,651c1e805011b2c4f87a8457,null,null,"<p style=""font-size: 60px; font-family: BACS"">bNdmGLaA</p>",,,,,,,,,,
html-keyboard-response,24,130827,0.0-8.0-0.16,611eafa6011b0423f7d7230f,650c16f0f2faf8d7a0d14c09,651c1e805011b2c4f87a8457,null,null,"<p style=""font-size: 60px; font-family: BACS"">bmbNYkZ</p>",,,,,,,,,,
html-keyboard-response,25,131832,0.0-8.0-0.17,611eafa6011b0423f7d7230f,650c16f0f2faf8d7a0d14c09,651c1e805011b2c4f87a8457,null,null,"<p style=""font-size: 60px; font-family: BACS"">KDPARYlD</p>",,,,,,,,,,
html-keyboard-response,26,132845,0.0-8.0-0.18,611eafa6011b0423f7d7230f,650c16f0f2faf8d7a0d14c09,651c1e805011b2c4f87a8457,null,null,"<p style=""font-size: 60px; font-family: BACS"">EltMBPMYm</p>",,,,,,,,,,
html-keyboard-response,27,133848,0.0-8.0-0.19,611eafa6011b0423f7d7230f,650c16f0f2faf8d7a0d14c09,651c1e805011b2c4f87a8457,null,null,"<p style=""font-size: 60px; font-family: BACS"">bNdmGvJQ</p>",,,,,,,,,,
html-keyboard-response,28,134850,0.0-8.0-0.20,611eafa6011b0423f7d7230f,650c16f0f2faf8d7a0d14c09,651c1e805011b2c4f87a8457,null,null,"<p style=""font-size: 60px; font-family: BACS"">AlNUZvkL</p>",,,,,,,,,,
html-keyboard-response,29,135854,0.0-8.0-0.21,611eafa6011b0423f7d7230f,650c16f0f2faf8d7a0d14c09,651c1e805011b2c4f87a8457,null,null,"<p style=""font-size: 60px; font-family: BACS"">OAblcvJQ</p>",,,,,,,,,,
html-keyboard-response,30,136856,0.0-8.0-0.22,611eafa6011b0423f7d7230f,650c16f0f2faf8d7a0d14c09,651c1e805011b2c4f87a8457,null,null,"<p style=""font-size: 60px; font-family: BACS"">tmtEMRYlD</p>",,,,,,,,,,
html-keyboard-response,31,137858,0.0-8.0-0.23,611eafa6011b0423f7d7230f,650c16f0f2faf8d7a0d14c09,651c1e805011b2c4f87a8457,null,null,"<p style=""font-size: 60px; font-family: BACS"">YlYcbTE</p>",,,,,,,,,,
html-keyboard-response,32,138865,0.0-8.0-0.24,611eafa6011b0423f7d7230f,650c16f0f2faf8d7a0d14c09,651c1e805011b2c4f87a8457,null,null,"<p style=""font-size: 60px; font-family: BACS"">OCmkdTAh</p>",,,,,,,,,,
html-keyboard-response,33,139867,0.0-8.0-0.25,611eafa6011b0423f7d7230f,650c16f0f2faf8d7a0d14c09,651c1e805011b2c4f87a8457,null,null,"<p style=""font-size: 60px; font-family: BACS"">bmbNLaA</p>",,,,,,,,,,
html-keyboard-response,34,140875,0.0-8.0-0.26,611eafa6011b0423f7d7230f,650c16f0f2faf8d7a0d14c09,651c1e805011b2c4f87a8457,null,null,"<p style=""font-size: 60px; font-family: BACS"">tmtEMmKcD</p>",,,,,,,,,,
html-keyboard-response,35,141877,0.0-8.0-0.27,611eafa6011b0423f7d7230f,650c16f0f2faf8d7a0d14c09,651c1e805011b2c4f87a8457,null,null,"<p style=""font-size: 60px; font-family: BACS"">mUOcOYkZ</p>",,,,,,,,,,
html-keyboard-response,36,142884,0.0-8.0-0.28,611eafa6011b0423f7d7230f,650c16f0f2faf8d7a0d14c09,651c1e805011b2c4f87a8457,null,null,"<p style=""font-size: 60px; font-family: BACS"">AlNULaA</p>",,,,,,,,,,
html-keyboard-response,37,143894,0.0-8.0-0.29,611eafa6011b0423f7d7230f,650c16f0f2faf8d7a0d14c09,651c1e805011b2c4f87a8457,null,null,"<p style=""font-size: 60px; font-family: BACS"">KDPAbTE</p>",,,,,,,,,,
html-keyboard-response,38,144896,0.0-8.0-0.30,611eafa6011b0423f7d7230f,650c16f0f2faf8d7a0d14c09,651c1e805011b2c4f87a8457,null,null,"<p style=""font-size: 60px; font-family: BACS"">lRCBdTAh</p>",,,,,,,,,,
html-keyboard-response,39,145913,0.0-8.0-0.31,611eafa6011b0423f7d7230f,650c16f0f2faf8d7a0d14c09,651c1e805011b2c4f87a8457,null,null,"<p style=""font-size: 60px; font-family: BACS"">ArQuYkZ</p>",,,,,,,,,,
html-keyboard-response,40,146915,0.0-8.0-0.32,611eafa6011b0423f7d7230f,650c16f0f2faf8d7a0d14c09,651c1e805011b2c4f87a8457,null,null,"<p style=""font-size: 60px; font-family: BACS"">KDPAdTAh</p>",,,,,,,,,,
html-keyboard-response,41,147927,0.0-8.0-0.33,611eafa6011b0423f7d7230f,650c16f0f2faf8d7a0d14c09,651c1e805011b2c4f87a8457,null,null,"<p style=""font-size: 60px; font-family: BACS"">YlYcRYlD</p>",,,,,,,,,,
html-keyboard-response,42,148928,0.0-8.0-0.34,611eafa6011b0423f7d7230f,650c16f0f2faf8d7a0d14c09,651c1e805011b2c4f87a8457,null,null,"<p style=""font-size: 60px; font-family: BACS"">tmAKbTE</p>",,,,,,,,,,
html-keyboard-response,43,149937,0.0-8.0-0.35,611eafa6011b0423f7d7230f,650c16f0f2faf8d7a0d14c09,651c1e805011b2c4f87a8457,null,null,"<p style=""font-size: 60px; font-family: BACS"">YlYcmKcD</p>",,,,,,,,,,
html-keyboard-response,44,151463,0.0-8.0-0.36,611eafa6011b0423f7d7230f,650c16f0f2faf8d7a0d14c09,651c1e805011b2c4f87a8457,null,null,"<p style=""font-size: 60px; font-family: BACS"">AJLrvJQ</p>",,,,,,,,,,
html-keyboard-response,45,152477,0.0-8.0-0.37,611eafa6011b0423f7d7230f,650c16f0f2faf8d7a0d14c09,651c1e805011b2c4f87a8457,null,null,"<p style=""font-size: 60px; font-family: BACS"">kcOYRYlD</p>",,,,,,,,,,
html-keyboard-response,46,154456,0.0-8.0-0.38,611eafa6011b0423f7d7230f,650c16f0f2faf8d7a0d14c09,651c1e805011b2c4f87a8457,null,null,"<p style=""font-size: 60px; font-family: BACS"">AJLrLaA</p>",,,,,,,,,,
html-keyboard-response,47,155457,0.0-8.0-0.39,611eafa6011b0423f7d7230f,650c16f0f2faf8d7a0d14c09,651c1e805011b2c4f87a8457,null,null,"<p style=""font-size: 60px; font-family: BACS"">kcOYdTAh</p>",,,,,,,,,,
html-keyboard-response,48,156468,0.0-8.0-0.40,611eafa6011b0423f7d7230f,650c16f0f2faf8d7a0d14c09,651c1e805011b2c4f87a8457,null,null,"<p style=""font-size: 60px; font-family: BACS"">EltMBbTE</p>",,,,,,,,,,
html-keyboard-response,49,158457,0.0-8.0-0.41,611eafa6011b0423f7d7230f,650c16f0f2faf8d7a0d14c09,651c1e805011b2c4f87a8457,null,null,"<p style=""font-size: 60px; font-family: BACS"">KDPAPMYm</p>",,,,,,,,,,
html-keyboard-response,50,159467,0.0-8.0-0.42,611eafa6011b0423f7d7230f,650c16f0f2faf8d7a0d14c09,651c1e805011b2c4f87a8457,null,null,"<p style=""font-size: 60px; font-family: BACS"">LckGNkYL</p>",,,,,,,,,,
html-keyboard-response,51,160468,0.0-8.0-0.43,611eafa6011b0423f7d7230f,650c16f0f2faf8d7a0d14c09,651c1e805011b2c4f87a8457,null,null,"<p style=""font-size: 60px; font-family: BACS"">ZcGdNLaA</p>",,,,,,,,,,
html-keyboard-response,52,161472,0.0-8.0-0.44,611eafa6011b0423f7d7230f,650c16f0f2faf8d7a0d14c09,651c1e805011b2c4f87a8457,null,null,"<p style=""font-size: 60px; font-family: BACS"">tmtEMbTE</p>",,,,,,,,,,
html-keyboard-response,53,162488,0.0-8.0-0.45,611eafa6011b0423f7d7230f,650c16f0f2faf8d7a0d14c09,651c1e805011b2c4f87a8457,null,null,"<p style=""font-size: 60px; font-family: BACS"">EltMBdTAh</p>",,,,,,,,,,
html-keyboard-response,54,163498,0.0-8.0-0.46,611eafa6011b0423f7d7230f,650c16f0f2faf8d7a0d14c09,651c1e805011b2c4f87a8457,null,null,"<p style=""font-size: 60px; font-family: BACS"">AlNUkYL</p>",,,,,,,,,,
html-keyboard-response,55,164499,0.0-8.0-0.47,611eafa6011b0423f7d7230f,650c16f0f2faf8d7a0d14c09,651c1e805011b2c4f87a8457,null,null,"<p style=""font-size: 60px; font-family: BACS"">OCmkPMYm</p>",,,,,,,,,,
html-keyboard-response,56,165501,0.0-8.0-0.48,611eafa6011b0423f7d7230f,650c16f0f2faf8d7a0d14c09,651c1e805011b2c4f87a8457,null,null,"<p style=""font-size: 60px; font-family: BACS"">DRPkYmKcD</p>",,,,,,,,,,
html-keyboard-response,57,166502,0.0-8.0-0.49,611eafa6011b0423f7d7230f,650c16f0f2faf8d7a0d14c09,651c1e805011b2c4f87a8457,null,null,"<p style=""font-size: 60px; font-family: BACS"">EltMBRYlD</p>",,,,,,,,,,
html-keyboard-response,58,167504,0.0-8.0-0.50,611eafa6011b0423f7d7230f,650c16f0f2faf8d7a0d14c09,651c1e805011b2c4f87a8457,null,null,"<p style=""font-size: 60px; font-family: BACS"">ArQuLaA</p>",,,,,,,,,,
html-keyboard-response,59,168518,0.0-8.0-0.51,611eafa6011b0423f7d7230f,650c16f0f2faf8d7a0d14c09,651c1e805011b2c4f87a8457,null,null,"<p style=""font-size: 60px; font-family: BACS"">lRCBmKcD</p>",,,,,,,,,,
html-keyboard-response,60,169521,0.0-8.0-0.52,611eafa6011b0423f7d7230f,650c16f0f2faf8d7a0d14c09,651c1e805011b2c4f87a8457,null,null,"<p style=""font-size: 60px; font-family: BACS"">bmbNvJQ</p>",,,,,,,,,,
html-keyboard-response,61,170537,0.0-8.0-0.53,611eafa6011b0423f7d7230f,650c16f0f2faf8d7a0d14c09,651c1e805011b2c4f87a8457,null,null,"<p style=""font-size: 60px; font-family: BACS"">AJLrZvkL</p>",,,,,,,,,,
html-keyboard-response,62,171540,0.0-8.0-0.54,611eafa6011b0423f7d7230f,650c16f0f2faf8d7a0d14c09,651c1e805011b2c4f87a8457,null,null,"<p style=""font-size: 60px; font-family: BACS"">OCmkmKcD</p>",,,,,,,,,,
html-keyboard-response,63,172557,0.0-8.0-0.55,611eafa6011b0423f7d7230f,650c16f0f2faf8d7a0d14c09,651c1e805011b2c4f87a8457,null,null,"<p style=""font-size: 60px; font-family: BACS"">tmtEMdTAh</p>",,,,,,,,,,
html-keyboard-response,64,173560,0.0-8.0-0.56,611eafa6011b0423f7d7230f,650c16f0f2faf8d7a0d14c09,651c1e805011b2c4f87a8457,null,null,"<p style=""font-size: 60px; font-family: BACS"">mUOcOZvkL</p>",,,,,,,,,,
html-keyboard-response,65,174575,0.0-8.0-0.57,611eafa6011b0423f7d7230f,650c16f0f2faf8d7a0d14c09,651c1e805011b2c4f87a8457,null,null,"<p style=""font-size: 60px; font-family: BACS"">dKDthbTE</p>",,,,,,,,,,
html-keyboard-response,66,175592,0.0-8.0-0.58,611eafa6011b0423f7d7230f,650c16f0f2faf8d7a0d14c09,651c1e805011b2c4f87a8457,null,null,"<p style=""font-size: 60px; font-family: BACS"">lRCBRYlD</p>",,,,,,,,,,
html-keyboard-response,67,176595,0.0-8.0-0.59,611eafa6011b0423f7d7230f,650c16f0f2faf8d7a0d14c09,651c1e805011b2c4f87a8457,null,null,"<p style=""font-size: 60px; font-family: BACS"">vYLUYkZ</p>",,,,,,,,,,
html-keyboard-response,68,177611,0.0-8.0-0.60,611eafa6011b0423f7d7230f,650c16f0f2faf8d7a0d14c09,651c1e805011b2c4f87a8457,null,null,"<p style=""font-size: 60px; font-family: BACS"">dKDthdTAh</p>",,,,,,,,,,
html-keyboard-response,69,178613,0.0-8.0-0.61,611eafa6011b0423f7d7230f,650c16f0f2faf8d7a0d14c09,651c1e805011b2c4f87a8457,null,null,"<p style=""font-size: 60px; font-family: BACS"">bNdmGkYL</p>",,,,,,,,,,
html-keyboard-response,70,179615,0.0-8.0-0.62,611eafa6011b0423f7d7230f,650c16f0f2faf8d7a0d14c09,651c1e805011b2c4f87a8457,null,null,"<p style=""font-size: 60px; font-family: BACS"">ZcGdNvJQ</p>",,,,,,,,,,
html-keyboard-response,71,180629,0.0-8.0-0.63,611eafa6011b0423f7d7230f,650c16f0f2faf8d7a0d14c09,651c1e805011b2c4f87a8457,null,null,"<p style=""font-size: 60px; font-family: BACS"">lRCBPMYm</p>",,,,,,,,,,
html-keyboard-response,72,181632,0.0-8.0-0.64,611eafa6011b0423f7d7230f,650c16f0f2faf8d7a0d14c09,651c1e805011b2c4f87a8457,null,null,"<p style=""font-size: 60px; font-family: BACS"">DRPkYbTE</p>",,,,,,,,,,
html-keyboard-response,73,182634,0.0-8.0-0.65,611eafa6011b0423f7d7230f,650c16f0f2faf8d7a0d14c09,651c1e805011b2c4f87a8457,null,null,"<p style=""font-size: 60px; font-family: BACS"">AlNUYkZ</p>",,,,,,,,,,
html-keyboard-response,74,183650,0.0-8.0-0.66,611eafa6011b0423f7d7230f,650c16f0f2faf8d7a0d14c09,651c1e805011b2c4f87a8457,null,null,"<p style=""font-size: 60px; font-family: BACS"">ArQukYL</p>",,,,,,,,,,
html-keyboard-response,75,184652,0.0-8.0-0.67,611eafa6011b0423f7d7230f,650c16f0f2faf8d7a0d14c09,651c1e805011b2c4f87a8457,null,null,"<p style=""font-size: 60px; font-family: BACS"">bNdmGZvkL</p>",,,,,,,,,,
html-keyboard-response,76,185654,0.0-8.0-0.68,611eafa6011b0423f7d7230f,650c16f0f2faf8d7a0d14c09,651c1e805011b2c4f87a8457,null,null,"<p style=""font-size: 60px; font-family: BACS"">mUOcOkYL</p>",,,,,,,,,,
html-keyboard-response,77,186671,0.0-8.0-0.69,611eafa6011b0423f7d7230f,650c16f0f2faf8d7a0d14c09,651c1e805011b2c4f87a8457,null,null,"<p style=""font-size: 60px; font-family: BACS"">OAblcLaA</p>",,,,,,,,,,
html-keyboard-response,78,187687,0.0-8.0-0.70,611eafa6011b0423f7d7230f,650c16f0f2faf8d7a0d14c09,651c1e805011b2c4f87a8457,null,null,"<p style=""font-size: 60px; font-family: BACS"">vYLUZvkL</p>",,,,,,,,,,
html-keyboard-response,79,188704,0.0-8.0-0.71,611eafa6011b0423f7d7230f,650c16f0f2faf8d7a0d14c09,651c1e805011b2c4f87a8457,null,null,"<p style=""font-size: 60px; font-family: BACS"">LckGNvJQ</p>",,,,,,,,,,
html-keyboard-response,80,189715,0.0-8.0-0.72,611eafa6011b0423f7d7230f,650c16f0f2faf8d7a0d14c09,651c1e805011b2c4f87a8457,null,null,"<p style=""font-size: 60px; font-family: BACS"">tmAKmKcD</p>",,,,,,,,,,
html-keyboard-response,81,190724,0.0-8.0-0.73,611eafa6011b0423f7d7230f,650c16f0f2faf8d7a0d14c09,651c1e805011b2c4f87a8457,null,null,"<p style=""font-size: 60px; font-family: BACS"">LckGNZvkL</p>",,,,,,,,,,
html-keyboard-response,82,191741,0.0-8.0-0.74,611eafa6011b0423f7d7230f,650c16f0f2faf8d7a0d14c09,651c1e805011b2c4f87a8457,null,null,"<p style=""font-size: 60px; font-family: BACS"">AJLrYkZ</p>",,,,,,,,,,
html-keyboard-response,83,192743,0.0-8.0-0.75,611eafa6011b0423f7d7230f,650c16f0f2faf8d7a0d14c09,651c1e805011b2c4f87a8457,null,null,"<p style=""font-size: 60px; font-family: BACS"">bmbNZvkL</p>",,,,,,,,,,
html-keyboard-response,84,193745,0.0-8.0-0.76,611eafa6011b0423f7d7230f,650c16f0f2faf8d7a0d14c09,651c1e805011b2c4f87a8457,null,null,"<p style=""font-size: 60px; font-family: BACS"">vYLULaA</p>",,,,,,,,,,
html-keyboard-response,85,194747,0.0-8.0-0.77,611eafa6011b0423f7d7230f,650c16f0f2faf8d7a0d14c09,651c1e805011b2c4f87a8457,null,null,"<p style=""font-size: 60px; font-family: BACS"">kcOYmKcD</p>",,,,,,,,,,
html-keyboard-response,86,195763,0.0-8.0-0.78,611eafa6011b0423f7d7230f,650c16f0f2faf8d7a0d14c09,651c1e805011b2c4f87a8457,null,null,"<p style=""font-size: 60px; font-family: BACS"">mUOcOvJQ</p>",,,,,,,,,,
html-keyboard-response,87,196764,0.0-8.0-0.79,611eafa6011b0423f7d7230f,650c16f0f2faf8d7a0d14c09,651c1e805011b2c4f87a8457,null,null,"<p style=""font-size: 60px; font-family: BACS"">OAblckYL</p>",,,,,,,,,,
html-keyboard-response,88,210376,0.0-9.0,611eafa6011b0423f7d7230f,650c16f0f2faf8d7a0d14c09,651c1e805011b2c4f87a8457,13612, ,"<p>Great, you've seen the first block of words. You may now take a short break.</p>
      <p>Press the spacebar when you're ready to continue.</p>",,,,,,,,,,
html-keyboard-response,89,211379,0.0-10.0-0.0,611eafa6011b0423f7d7230f,650c16f0f2faf8d7a0d14c09,651c1e805011b2c4f87a8457,null,null,"<p style=""font-size: 60px; font-family: BACS"">tmAKmKcD</p>",,,,,,,,,,
html-keyboard-response,90,212382,0.0-10.0-0.1,611eafa6011b0423f7d7230f,650c16f0f2faf8d7a0d14c09,651c1e805011b2c4f87a8457,null,null,"<p style=""font-size: 60px; font-family: BACS"">LckGNZvkL</p>",,,,,,,,,,
html-keyboard-response,91,213397,0.0-10.0-0.2,611eafa6011b0423f7d7230f,650c16f0f2faf8d7a0d14c09,651c1e805011b2c4f87a8457,null,null,"<p style=""font-size: 60px; font-family: BACS"">YlYcmKcD</p>",,,,,,,,,,
html-keyboard-response,92,214400,0.0-10.0-0.3,611eafa6011b0423f7d7230f,650c16f0f2faf8d7a0d14c09,651c1e805011b2c4f87a8457,null,null,"<p style=""font-size: 60px; font-family: BACS"">ArQuLaA</p>",,,,,,,,,,
html-keyboard-response,93,215416,0.0-10.0-0.4,611eafa6011b0423f7d7230f,650c16f0f2faf8d7a0d14c09,651c1e805011b2c4f87a8457,null,null,"<p style=""font-size: 60px; font-family: BACS"">kcOYdTAh</p>",,,,,,,,,,
html-keyboard-response,94,216432,0.0-10.0-0.5,611eafa6011b0423f7d7230f,650c16f0f2faf8d7a0d14c09,651c1e805011b2c4f87a8457,null,null,"<p style=""font-size: 60px; font-family: BACS"">lRCBRYlD</p>",,,,,,,,,,
html-keyboard-response,95,217437,0.0-10.0-0.6,611eafa6011b0423f7d7230f,650c16f0f2faf8d7a0d14c09,651c1e805011b2c4f87a8457,null,null,"<p style=""font-size: 60px; font-family: BACS"">bmbNLaA</p>",,,,,,,,,,
html-keyboard-response,96,218449,0.0-10.0-0.7,611eafa6011b0423f7d7230f,650c16f0f2faf8d7a0d14c09,651c1e805011b2c4f87a8457,null,null,"<p style=""font-size: 60px; font-family: BACS"">OCmkdTAh</p>",,,,,,,,,,
html-keyboard-response,97,219453,0.0-10.0-0.8,611eafa6011b0423f7d7230f,650c16f0f2faf8d7a0d14c09,651c1e805011b2c4f87a8457,null,null,"<p style=""font-size: 60px; font-family: BACS"">DRPkYPMYm</p>",,,,,,,,,,
html-keyboard-response,98,220470,0.0-10.0-0.9,611eafa6011b0423f7d7230f,650c16f0f2faf8d7a0d14c09,651c1e805011b2c4f87a8457,null,null,"<p style=""font-size: 60px; font-family: BACS"">mUOcOYkZ</p>",,,,,,,,,,
html-keyboard-response,99,221486,0.0-10.0-0.10,611eafa6011b0423f7d7230f,650c16f0f2faf8d7a0d14c09,651c1e805011b2c4f87a8457,null,null,"<p style=""font-size: 60px; font-family: BACS"">AlNUkYL</p>",,,,,,,,,,
html-keyboard-response,100,222491,0.0-10.0-0.11,611eafa6011b0423f7d7230f,650c16f0f2faf8d7a0d14c09,651c1e805011b2c4f87a8457,null,null,"<p style=""font-size: 60px; font-family: BACS"">tmtEMRYlD</p>",,,,,,,,,,
html-keyboard-response,101,223507,0.0-10.0-0.12,611eafa6011b0423f7d7230f,650c16f0f2faf8d7a0d14c09,651c1e805011b2c4f87a8457,null,null,"<p style=""font-size: 60px; font-family: BACS"">mUOcOZvkL</p>",,,,,,,,,,
html-keyboard-response,102,224510,0.0-10.0-0.13,611eafa6011b0423f7d7230f,650c16f0f2faf8d7a0d14c09,651c1e805011b2c4f87a8457,null,null,"<p style=""font-size: 60px; font-family: BACS"">OCmkmKcD</p>",,,,,,,,,,
html-keyboard-response,103,225525,0.0-10.0-0.14,611eafa6011b0423f7d7230f,650c16f0f2faf8d7a0d14c09,651c1e805011b2c4f87a8457,null,null,"<p style=""font-size: 60px; font-family: BACS"">KDPARYlD</p>",,,,,,,,,,
html-keyboard-response,104,226528,0.0-10.0-0.15,611eafa6011b0423f7d7230f,650c16f0f2faf8d7a0d14c09,651c1e805011b2c4f87a8457,null,null,"<p style=""font-size: 60px; font-family: BACS"">lRCBdTAh</p>",,,,,,,,,,
html-keyboard-response,105,227544,0.0-10.0-0.16,611eafa6011b0423f7d7230f,650c16f0f2faf8d7a0d14c09,651c1e805011b2c4f87a8457,null,null,"<p style=""font-size: 60px; font-family: BACS"">bmbNYkZ</p>",,,,,,,,,,
html-keyboard-response,106,228547,0.0-10.0-0.17,611eafa6011b0423f7d7230f,650c16f0f2faf8d7a0d14c09,651c1e805011b2c4f87a8457,null,null,"<p style=""font-size: 60px; font-family: BACS"">bNdmGZvkL</p>",,,,,,,,,,
html-keyboard-response,107,229564,0.0-10.0-0.18,611eafa6011b0423f7d7230f,650c16f0f2faf8d7a0d14c09,651c1e805011b2c4f87a8457,null,null,"<p style=""font-size: 60px; font-family: BACS"">lRCBmKcD</p>",,,,,,,,,,
html-keyboard-response,108,230570,0.0-10.0-0.19,611eafa6011b0423f7d7230f,650c16f0f2faf8d7a0d14c09,651c1e805011b2c4f87a8457,null,null,"<p style=""font-size: 60px; font-family: BACS"">DRPkYdTAh</p>",,,,,,,,,,
html-keyboard-response,109,231587,0.0-10.0-0.20,611eafa6011b0423f7d7230f,650c16f0f2faf8d7a0d14c09,651c1e805011b2c4f87a8457,null,null,"<p style=""font-size: 60px; font-family: BACS"">YlYcPMYm</p>",,,,,,,,,,
html-keyboard-response,110,232602,0.0-10.0-0.21,611eafa6011b0423f7d7230f,650c16f0f2faf8d7a0d14c09,651c1e805011b2c4f87a8457,null,null,"<p style=""font-size: 60px; font-family: BACS"">dKDthdTAh</p>",,,,,,,,,,
html-keyboard-response,111,233609,0.0-10.0-0.22,611eafa6011b0423f7d7230f,650c16f0f2faf8d7a0d14c09,651c1e805011b2c4f87a8457,null,null,"<p style=""font-size: 60px; font-family: BACS"">AJLrLaA</p>",,,,,,,,,,
html-keyboard-response,112,234619,0.0-10.0-0.23,611eafa6011b0423f7d7230f,650c16f0f2faf8d7a0d14c09,651c1e805011b2c4f87a8457,null,null,"<p style=""font-size: 60px; font-family: BACS"">ArQuYkZ</p>",,,,,,,,,,
html-keyboard-response,113,235620,0.0-10.0-0.24,611eafa6011b0423f7d7230f,650c16f0f2faf8d7a0d14c09,651c1e805011b2c4f87a8457,null,null,"<p style=""font-size: 60px; font-family: BACS"">bNdmGLaA</p>",,,,,,,,,,
html-keyboard-response,114,236621,0.0-10.0-0.25,611eafa6011b0423f7d7230f,650c16f0f2faf8d7a0d14c09,651c1e805011b2c4f87a8457,null,null,"<p style=""font-size: 60px; font-family: BACS"">OAblcvJQ</p>",,,,,,,,,,
html-keyboard-response,115,237622,0.0-10.0-0.26,611eafa6011b0423f7d7230f,650c16f0f2faf8d7a0d14c09,651c1e805011b2c4f87a8457,null,null,"<p style=""font-size: 60px; font-family: BACS"">YlYcbTE</p>",,,,,,,,,,
html-keyboard-response,116,238639,0.0-10.0-0.27,611eafa6011b0423f7d7230f,650c16f0f2faf8d7a0d14c09,651c1e805011b2c4f87a8457,null,null,"<p style=""font-size: 60px; font-family: BACS"">KDPAPMYm</p>",,,,,,,,,,
html-keyboard-response,117,239640,0.0-10.0-0.28,611eafa6011b0423f7d7230f,650c16f0f2faf8d7a0d14c09,651c1e805011b2c4f87a8457,null,null,"<p style=""font-size: 60px; font-family: BACS"">ZcGdNLaA</p>",,,,,,,,,,
html-keyboard-response,118,240642,0.0-10.0-0.29,611eafa6011b0423f7d7230f,650c16f0f2faf8d7a0d14c09,651c1e805011b2c4f87a8457,null,null,"<p style=""font-size: 60px; font-family: BACS"">tmAKRYlD</p>",,,,,,,,,,
html-keyboard-response,119,241643,0.0-10.0-0.30,611eafa6011b0423f7d7230f,650c16f0f2faf8d7a0d14c09,651c1e805011b2c4f87a8457,null,null,"<p style=""font-size: 60px; font-family: BACS"">OAblcZvkL</p>",,,,,,,,,,
html-keyboard-response,120,242657,0.0-10.0-0.31,611eafa6011b0423f7d7230f,650c16f0f2faf8d7a0d14c09,651c1e805011b2c4f87a8457,null,null,"<p style=""font-size: 60px; font-family: BACS"">bNdmGvJQ</p>",,,,,,,,,,
html-keyboard-response,121,243661,0.0-10.0-0.32,611eafa6011b0423f7d7230f,650c16f0f2faf8d7a0d14c09,651c1e805011b2c4f87a8457,null,null,"<p style=""font-size: 60px; font-family: BACS"">OCmkPMYm</p>",,,,,,,,,,
html-keyboard-response,122,244678,0.0-10.0-0.33,611eafa6011b0423f7d7230f,650c16f0f2faf8d7a0d14c09,651c1e805011b2c4f87a8457,null,null,"<p style=""font-size: 60px; font-family: BACS"">tmtEMbTE</p>",,,,,,,,,,
html-keyboard-response,123,245680,0.0-10.0-0.34,611eafa6011b0423f7d7230f,650c16f0f2faf8d7a0d14c09,651c1e805011b2c4f87a8457,null,null,"<p style=""font-size: 60px; font-family: BACS"">kcOYRYlD</p>",,,,,,,,,,
html-keyboard-response,124,246682,0.0-10.0-0.35,611eafa6011b0423f7d7230f,650c16f0f2faf8d7a0d14c09,651c1e805011b2c4f87a8457,null,null,"<p style=""font-size: 60px; font-family: BACS"">vYLUYkZ</p>",,,,,,,,,,
html-keyboard-response,125,247697,0.0-10.0-0.36,611eafa6011b0423f7d7230f,650c16f0f2faf8d7a0d14c09,651c1e805011b2c4f87a8457,null,null,"<p style=""font-size: 60px; font-family: BACS"">AlNULaA</p>",,,,,,,,,,
html-keyboard-response,126,248699,0.0-10.0-0.37,611eafa6011b0423f7d7230f,650c16f0f2faf8d7a0d14c09,651c1e805011b2c4f87a8457,null,null,"<p style=""font-size: 60px; font-family: BACS"">OCmkRYlD</p>",,,,,,,,,,
html-keyboard-response,127,249700,0.0-10.0-0.38,611eafa6011b0423f7d7230f,650c16f0f2faf8d7a0d14c09,651c1e805011b2c4f87a8457,null,null,"<p style=""font-size: 60px; font-family: BACS"">vYLUkYL</p>",,,,,,,,,,
html-keyboard-response,128,250717,0.0-10.0-0.39,611eafa6011b0423f7d7230f,650c16f0f2faf8d7a0d14c09,651c1e805011b2c4f87a8457,null,null,"<p style=""font-size: 60px; font-family: BACS"">OAblcLaA</p>",,,,,,,,,,
html-keyboard-response,129,251720,0.0-10.0-0.40,611eafa6011b0423f7d7230f,650c16f0f2faf8d7a0d14c09,651c1e805011b2c4f87a8457,null,null,"<p style=""font-size: 60px; font-family: BACS"">AJLrvJQ</p>",,,,,,,,,,
html-keyboard-response,130,252736,0.0-10.0-0.41,611eafa6011b0423f7d7230f,650c16f0f2faf8d7a0d14c09,651c1e805011b2c4f87a8457,null,null,"<p style=""font-size: 60px; font-family: BACS"">mUOcOkYL</p>",,,,,,,,,,
html-keyboard-response,131,253738,0.0-10.0-0.42,611eafa6011b0423f7d7230f,650c16f0f2faf8d7a0d14c09,651c1e805011b2c4f87a8457,null,null,"<p style=""font-size: 60px; font-family: BACS"">tmtEMmKcD</p>",,,,,,,,,,
html-keyboard-response,132,254740,0.0-10.0-0.43,611eafa6011b0423f7d7230f,650c16f0f2faf8d7a0d14c09,651c1e805011b2c4f87a8457,null,null,"<p style=""font-size: 60px; font-family: BACS"">dKDthbTE</p>",,,,,,,,,,
html-keyboard-response,133,255756,0.0-10.0-0.44,611eafa6011b0423f7d7230f,650c16f0f2faf8d7a0d14c09,651c1e805011b2c4f87a8457,null,null,"<p style=""font-size: 60px; font-family: BACS"">kcOYmKcD</p>",,,,,,,,,,
html-keyboard-response,134,256772,0.0-10.0-0.45,611eafa6011b0423f7d7230f,650c16f0f2faf8d7a0d14c09,651c1e805011b2c4f87a8457,null,null,"<p style=""font-size: 60px; font-family: BACS"">bNdmGkYL</p>",,,,,,,,,,
html-keyboard-response,135,257776,0.0-10.0-0.46,611eafa6011b0423f7d7230f,650c16f0f2faf8d7a0d14c09,651c1e805011b2c4f87a8457,null,null,"<p style=""font-size: 60px; font-family: BACS"">AlNUZvkL</p>",,,,,,,,,,
html-keyboard-response,136,258782,0.0-10.0-0.47,611eafa6011b0423f7d7230f,650c16f0f2faf8d7a0d14c09,651c1e805011b2c4f87a8457,null,null,"<p style=""font-size: 60px; font-family: BACS"">LckGNvJQ</p>",,,,,,,,,,
html-keyboard-response,137,259794,0.0-10.0-0.48,611eafa6011b0423f7d7230f,650c16f0f2faf8d7a0d14c09,651c1e805011b2c4f87a8457,null,null,"<p style=""font-size: 60px; font-family: BACS"">DRPkYmKcD</p>",,,,,,,,,,
html-keyboard-response,138,260795,0.0-10.0-0.49,611eafa6011b0423f7d7230f,650c16f0f2faf8d7a0d14c09,651c1e805011b2c4f87a8457,null,null,"<p style=""font-size: 60px; font-family: BACS"">EltMBRYlD</p>",,,,,,,,,,
html-keyboard-response,139,261811,0.0-10.0-0.50,611eafa6011b0423f7d7230f,650c16f0f2faf8d7a0d14c09,651c1e805011b2c4f87a8457,null,null,"<p style=""font-size: 60px; font-family: BACS"">OAblckYL</p>",,,,,,,,,,
html-keyboard-response,140,262815,0.0-10.0-0.51,611eafa6011b0423f7d7230f,650c16f0f2faf8d7a0d14c09,651c1e805011b2c4f87a8457,null,null,"<p style=""font-size: 60px; font-family: BACS"">AJLrYkZ</p>",,,,,,,,,,
html-keyboard-response,141,263831,0.0-10.0-0.52,611eafa6011b0423f7d7230f,650c16f0f2faf8d7a0d14c09,651c1e805011b2c4f87a8457,null,null,"<p style=""font-size: 60px; font-family: BACS"">EltMBdTAh</p>",,,,,,,,,,
html-keyboard-response,142,264833,0.0-10.0-0.53,611eafa6011b0423f7d7230f,650c16f0f2faf8d7a0d14c09,651c1e805011b2c4f87a8457,null,null,"<p style=""font-size: 60px; font-family: BACS"">AJLrZvkL</p>",,,,,,,,,,
html-keyboard-response,143,265835,0.0-10.0-0.54,611eafa6011b0423f7d7230f,650c16f0f2faf8d7a0d14c09,651c1e805011b2c4f87a8457,null,null,"<p style=""font-size: 60px; font-family: BACS"">ArQukYL</p>",,,,,,,,,,
html-keyboard-response,144,266851,0.0-10.0-0.55,611eafa6011b0423f7d7230f,650c16f0f2faf8d7a0d14c09,651c1e805011b2c4f87a8457,null,null,"<p style=""font-size: 60px; font-family: BACS"">dKDthPMYm</p>",,,,,,,,,,
html-keyboard-response,145,267853,0.0-10.0-0.56,611eafa6011b0423f7d7230f,650c16f0f2faf8d7a0d14c09,651c1e805011b2c4f87a8457,null,null,"<p style=""font-size: 60px; font-family: BACS"">ZcGdNvJQ</p>",,,,,,,,,,
html-keyboard-response,146,268854,0.0-10.0-0.57,611eafa6011b0423f7d7230f,650c16f0f2faf8d7a0d14c09,651c1e805011b2c4f87a8457,null,null,"<p style=""font-size: 60px; font-family: BACS"">tmAKbTE</p>",,,,,,,,,,
html-keyboard-response,147,269869,0.0-10.0-0.58,611eafa6011b0423f7d7230f,650c16f0f2faf8d7a0d14c09,651c1e805011b2c4f87a8457,null,null,"<p style=""font-size: 60px; font-family: BACS"">ZcGdNYkZ</p>",,,,,,,,,,
html-keyboard-response,148,270873,0.0-10.0-0.59,611eafa6011b0423f7d7230f,650c16f0f2faf8d7a0d14c09,651c1e805011b2c4f87a8457,null,null,"<p style=""font-size: 60px; font-family: BACS"">EltMBPMYm</p>",,,,,,,,,,
html-keyboard-response,149,271874,0.0-10.0-0.60,611eafa6011b0423f7d7230f,650c16f0f2faf8d7a0d14c09,651c1e805011b2c4f87a8457,null,null,"<p style=""font-size: 60px; font-family: BACS"">DRPkYbTE</p>",,,,,,,,,,
html-keyboard-response,150,272889,0.0-10.0-0.61,611eafa6011b0423f7d7230f,650c16f0f2faf8d7a0d14c09,651c1e805011b2c4f87a8457,null,null,"<p style=""font-size: 60px; font-family: BACS"">bmbNZvkL</p>",,,,,,,,,,
html-keyboard-response,151,273891,0.0-10.0-0.62,611eafa6011b0423f7d7230f,650c16f0f2faf8d7a0d14c09,651c1e805011b2c4f87a8457,null,null,"<p style=""font-size: 60px; font-family: BACS"">ArQuvJQ</p>",,,,,,,,,,
html-keyboard-response,152,274894,0.0-10.0-0.63,611eafa6011b0423f7d7230f,650c16f0f2faf8d7a0d14c09,651c1e805011b2c4f87a8457,null,null,"<p style=""font-size: 60px; font-family: BACS"">AlNUYkZ</p>",,,,,,,,,,
html-keyboard-response,153,275909,0.0-10.0-0.64,611eafa6011b0423f7d7230f,650c16f0f2faf8d7a0d14c09,651c1e805011b2c4f87a8457,null,null,"<p style=""font-size: 60px; font-family: BACS"">vYLUZvkL</p>",,,,,,,,,,
html-keyboard-response,154,276926,0.0-10.0-0.65,611eafa6011b0423f7d7230f,650c16f0f2faf8d7a0d14c09,651c1e805011b2c4f87a8457,null,null,"<p style=""font-size: 60px; font-family: BACS"">tmAKPMYm</p>",,,,,,,,,,
html-keyboard-response,155,277927,0.0-10.0-0.66,611eafa6011b0423f7d7230f,650c16f0f2faf8d7a0d14c09,651c1e805011b2c4f87a8457,null,null,"<p style=""font-size: 60px; font-family: BACS"">YlYcRYlD</p>",,,,,,,,,,
html-keyboard-response,156,278932,0.0-10.0-0.67,611eafa6011b0423f7d7230f,650c16f0f2faf8d7a0d14c09,651c1e805011b2c4f87a8457,null,null,"<p style=""font-size: 60px; font-family: BACS"">KDPAdTAh</p>",,,,,,,,,,
html-keyboard-response,157,279933,0.0-10.0-0.68,611eafa6011b0423f7d7230f,650c16f0f2faf8d7a0d14c09,651c1e805011b2c4f87a8457,null,null,"<p style=""font-size: 60px; font-family: BACS"">LckGNkYL</p>",,,,,,,,,,
html-keyboard-response,158,280948,0.0-10.0-0.69,611eafa6011b0423f7d7230f,650c16f0f2faf8d7a0d14c09,651c1e805011b2c4f87a8457,null,null,"<p style=""font-size: 60px; font-family: BACS"">KDPAbTE</p>",,,,,,,,,,
html-keyboard-response,159,281950,0.0-10.0-0.70,611eafa6011b0423f7d7230f,650c16f0f2faf8d7a0d14c09,651c1e805011b2c4f87a8457,null,null,"<p style=""font-size: 60px; font-family: BACS"">vYLULaA</p>",,,,,,,,,,
html-keyboard-response,160,282967,0.0-10.0-0.71,611eafa6011b0423f7d7230f,650c16f0f2faf8d7a0d14c09,651c1e805011b2c4f87a8457,null,null,"<p style=""font-size: 60px; font-family: BACS"">tmtEMdTAh</p>",,,,,,,,,,
html-keyboard-response,161,283969,0.0-10.0-0.72,611eafa6011b0423f7d7230f,650c16f0f2faf8d7a0d14c09,651c1e805011b2c4f87a8457,null,null,"<p style=""font-size: 60px; font-family: BACS"">EltMBbTE</p>",,,,,,,,,,
html-keyboard-response,162,284970,0.0-10.0-0.73,611eafa6011b0423f7d7230f,650c16f0f2faf8d7a0d14c09,651c1e805011b2c4f87a8457,null,null,"<p style=""font-size: 60px; font-family: BACS"">mUOcOvJQ</p>",,,,,,,,,,
html-keyboard-response,163,285985,0.0-10.0-0.74,611eafa6011b0423f7d7230f,650c16f0f2faf8d7a0d14c09,651c1e805011b2c4f87a8457,null,null,"<p style=""font-size: 60px; font-family: BACS"">ZcGdNkYL</p>",,,,,,,,,,
html-keyboard-response,164,286987,0.0-10.0-0.75,611eafa6011b0423f7d7230f,650c16f0f2faf8d7a0d14c09,651c1e805011b2c4f87a8457,null,null,"<p style=""font-size: 60px; font-family: BACS"">lRCBPMYm</p>",,,,,,,,,,
html-keyboard-response,165,287991,0.0-10.0-0.76,611eafa6011b0423f7d7230f,650c16f0f2faf8d7a0d14c09,651c1e805011b2c4f87a8457,null,null,"<p style=""font-size: 60px; font-family: BACS"">LckGNYkZ</p>",,,,,,,,,,
html-keyboard-response,166,289006,0.0-10.0-0.77,611eafa6011b0423f7d7230f,650c16f0f2faf8d7a0d14c09,651c1e805011b2c4f87a8457,null,null,"<p style=""font-size: 60px; font-family: BACS"">kcOYbTE</p>",,,,,,,,,,
html-keyboard-response,167,290007,0.0-10.0-0.78,611eafa6011b0423f7d7230f,650c16f0f2faf8d7a0d14c09,651c1e805011b2c4f87a8457,null,null,"<p style=""font-size: 60px; font-family: BACS"">bmbNvJQ</p>",,,,,,,,,,
html-keyboard-response,168,291024,0.0-10.0-0.79,611eafa6011b0423f7d7230f,650c16f0f2faf8d7a0d14c09,651c1e805011b2c4f87a8457,null,null,"<p style=""font-size: 60px; font-family: BACS"">dKDthmKcD</p>",,,,,,,,,,
html-keyboard-response,169,295649,0.0-11.0,611eafa6011b0423f7d7230f,650c16f0f2faf8d7a0d14c09,651c1e805011b2c4f87a8457,4624, ,"<p>Great, you've seen the second block of words. You may now take a short break.</p>
      <p>Press the spacebar when you're ready to continue.</p>",,,,,,,,,,
html-keyboard-response,170,296664,0.0-12.0-0.0,611eafa6011b0423f7d7230f,650c16f0f2faf8d7a0d14c09,651c1e805011b2c4f87a8457,null,null,"<p style=""font-size: 60px; font-family: BACS"">bmbNYkZ</p>",,,,,,,,,,
html-keyboard-response,171,297673,0.0-12.0-0.1,611eafa6011b0423f7d7230f,650c16f0f2faf8d7a0d14c09,651c1e805011b2c4f87a8457,null,null,"<p style=""font-size: 60px; font-family: BACS"">bNdmGkYL</p>",,,,,,,,,,
html-keyboard-response,172,298684,0.0-12.0-0.2,611eafa6011b0423f7d7230f,650c16f0f2faf8d7a0d14c09,651c1e805011b2c4f87a8457,null,null,"<p style=""font-size: 60px; font-family: BACS"">KDPAbTE</p>",,,,,,,,,,
html-keyboard-response,173,299685,0.0-12.0-0.3,611eafa6011b0423f7d7230f,650c16f0f2faf8d7a0d14c09,651c1e805011b2c4f87a8457,null,null,"<p style=""font-size: 60px; font-family: BACS"">ArQukYL</p>",,,,,,,,,,
html-keyboard-response,174,300686,0.0-12.0-0.4,611eafa6011b0423f7d7230f,650c16f0f2faf8d7a0d14c09,651c1e805011b2c4f87a8457,null,null,"<p style=""font-size: 60px; font-family: BACS"">tmAKbTE</p>",,,,,,,,,,
html-keyboard-response,175,301702,0.0-12.0-0.5,611eafa6011b0423f7d7230f,650c16f0f2faf8d7a0d14c09,651c1e805011b2c4f87a8457,null,null,"<p style=""font-size: 60px; font-family: BACS"">AJLrLaA</p>",,,,,,,,,,
html-keyboard-response,176,302716,0.0-12.0-0.6,611eafa6011b0423f7d7230f,650c16f0f2faf8d7a0d14c09,651c1e805011b2c4f87a8457,null,null,"<p style=""font-size: 60px; font-family: BACS"">kcOYmKcD</p>",,,,,,,,,,
html-keyboard-response,177,303726,0.0-12.0-0.7,611eafa6011b0423f7d7230f,650c16f0f2faf8d7a0d14c09,651c1e805011b2c4f87a8457,null,null,"<p style=""font-size: 60px; font-family: BACS"">AJLrYkZ</p>",,,,,,,,,,
html-keyboard-response,178,304739,0.0-12.0-0.8,611eafa6011b0423f7d7230f,650c16f0f2faf8d7a0d14c09,651c1e805011b2c4f87a8457,null,null,"<p style=""font-size: 60px; font-family: BACS"">lRCBmKcD</p>",,,,,,,,,,
html-keyboard-response,179,305741,0.0-12.0-0.9,611eafa6011b0423f7d7230f,650c16f0f2faf8d7a0d14c09,651c1e805011b2c4f87a8457,null,null,"<p style=""font-size: 60px; font-family: BACS"">AlNULaA</p>",,,,,,,,,,
html-keyboard-response,180,306745,0.0-12.0-0.10,611eafa6011b0423f7d7230f,650c16f0f2faf8d7a0d14c09,651c1e805011b2c4f87a8457,null,null,"<p style=""font-size: 60px; font-family: BACS"">DRPkYPMYm</p>",,,,,,,,,,
html-keyboard-response,181,307758,0.0-12.0-0.11,611eafa6011b0423f7d7230f,650c16f0f2faf8d7a0d14c09,651c1e805011b2c4f87a8457,null,null,"<p style=""font-size: 60px; font-family: BACS"">bmbNLaA</p>",,,,,,,,,,
html-keyboard-response,182,308774,0.0-12.0-0.12,611eafa6011b0423f7d7230f,650c16f0f2faf8d7a0d14c09,651c1e805011b2c4f87a8457,null,null,"<p style=""font-size: 60px; font-family: BACS"">tmAKPMYm</p>",,,,,,,,,,
html-keyboard-response,183,309776,0.0-12.0-0.13,611eafa6011b0423f7d7230f,650c16f0f2faf8d7a0d14c09,651c1e805011b2c4f87a8457,null,null,"<p style=""font-size: 60px; font-family: BACS"">ZcGdNLaA</p>",,,,,,,,,,
html-keyboard-response,184,310777,0.0-12.0-0.14,611eafa6011b0423f7d7230f,650c16f0f2faf8d7a0d14c09,651c1e805011b2c4f87a8457,null,null,"<p style=""font-size: 60px; font-family: BACS"">kcOYdTAh</p>",,,,,,,,,,
html-keyboard-response,185,311780,0.0-12.0-0.15,611eafa6011b0423f7d7230f,650c16f0f2faf8d7a0d14c09,651c1e805011b2c4f87a8457,null,null,"<p style=""font-size: 60px; font-family: BACS"">AlNUZvkL</p>",,,,,,,,,,
html-keyboard-response,186,312797,0.0-12.0-0.16,611eafa6011b0423f7d7230f,650c16f0f2faf8d7a0d14c09,651c1e805011b2c4f87a8457,null,null,"<p style=""font-size: 60px; font-family: BACS"">ZcGdNvJQ</p>",,,,,,,,,,
html-keyboard-response,187,313799,0.0-12.0-0.17,611eafa6011b0423f7d7230f,650c16f0f2faf8d7a0d14c09,651c1e805011b2c4f87a8457,null,null,"<p style=""font-size: 60px; font-family: BACS"">YlYcPMYm</p>",,,,,,,,,,
html-keyboard-response,188,314815,0.0-12.0-0.18,611eafa6011b0423f7d7230f,650c16f0f2faf8d7a0d14c09,651c1e805011b2c4f87a8457,null,null,"<p style=""font-size: 60px; font-family: BACS"">EltMBRYlD</p>",,,,,,,,,,
html-keyboard-response,189,315817,0.0-12.0-0.19,611eafa6011b0423f7d7230f,650c16f0f2faf8d7a0d14c09,651c1e805011b2c4f87a8457,null,null,"<p style=""font-size: 60px; font-family: BACS"">kcOYbTE</p>",,,,,,,,,,
html-keyboard-response,190,316829,0.0-12.0-0.20,611eafa6011b0423f7d7230f,650c16f0f2faf8d7a0d14c09,651c1e805011b2c4f87a8457,null,null,"<p style=""font-size: 60px; font-family: BACS"">vYLUkYL</p>",,,,,,,,,,
html-keyboard-response,191,317835,0.0-12.0-0.21,611eafa6011b0423f7d7230f,650c16f0f2faf8d7a0d14c09,651c1e805011b2c4f87a8457,null,null,"<p style=""font-size: 60px; font-family: BACS"">tmtEMbTE</p>",,,,,,,,,,
html-keyboard-response,192,318838,0.0-12.0-0.22,611eafa6011b0423f7d7230f,650c16f0f2faf8d7a0d14c09,651c1e805011b2c4f87a8457,null,null,"<p style=""font-size: 60px; font-family: BACS"">ZcGdNkYL</p>",,,,,,,,,,
html-keyboard-response,193,319839,0.0-12.0-0.23,611eafa6011b0423f7d7230f,650c16f0f2faf8d7a0d14c09,651c1e805011b2c4f87a8457,null,null,"<p style=""font-size: 60px; font-family: BACS"">bNdmGvJQ</p>",,,,,,,,,,
html-keyboard-response,194,320854,0.0-12.0-0.24,611eafa6011b0423f7d7230f,650c16f0f2faf8d7a0d14c09,651c1e805011b2c4f87a8457,null,null,"<p style=""font-size: 60px; font-family: BACS"">mUOcOkYL</p>",,,,,,,,,,
html-keyboard-response,195,321857,0.0-12.0-0.25,611eafa6011b0423f7d7230f,650c16f0f2faf8d7a0d14c09,651c1e805011b2c4f87a8457,null,null,"<p style=""font-size: 60px; font-family: BACS"">KDPAdTAh</p>",,,,,,,,,,
html-keyboard-response,196,322874,0.0-12.0-0.26,611eafa6011b0423f7d7230f,650c16f0f2faf8d7a0d14c09,651c1e805011b2c4f87a8457,null,null,"<p style=""font-size: 60px; font-family: BACS"">YlYcmKcD</p>",,,,,,,,,,
html-keyboard-response,197,323890,0.0-12.0-0.27,611eafa6011b0423f7d7230f,650c16f0f2faf8d7a0d14c09,651c1e805011b2c4f87a8457,null,null,"<p style=""font-size: 60px; font-family: BACS"">mUOcOZvkL</p>",,,,,,,,,,
html-keyboard-response,198,324893,0.0-12.0-0.28,611eafa6011b0423f7d7230f,650c16f0f2faf8d7a0d14c09,651c1e805011b2c4f87a8457,null,null,"<p style=""font-size: 60px; font-family: BACS"">dKDthmKcD</p>",,,,,,,,,,
html-keyboard-response,199,325909,0.0-12.0-0.29,611eafa6011b0423f7d7230f,650c16f0f2faf8d7a0d14c09,651c1e805011b2c4f87a8457,null,null,"<p style=""font-size: 60px; font-family: BACS"">OCmkdTAh</p>",,,,,,,,,,
html-keyboard-response,200,326911,0.0-12.0-0.30,611eafa6011b0423f7d7230f,650c16f0f2faf8d7a0d14c09,651c1e805011b2c4f87a8457,null,null,"<p style=""font-size: 60px; font-family: BACS"">DRPkYbTE</p>",,,,,,,,,,
html-keyboard-response,201,327912,0.0-12.0-0.31,611eafa6011b0423f7d7230f,650c16f0f2faf8d7a0d14c09,651c1e805011b2c4f87a8457,null,null,"<p style=""font-size: 60px; font-family: BACS"">ArQuYkZ</p>",,,,,,,,,,
html-keyboard-response,202,328929,0.0-12.0-0.32,611eafa6011b0423f7d7230f,650c16f0f2faf8d7a0d14c09,651c1e805011b2c4f87a8457,null,null,"<p style=""font-size: 60px; font-family: BACS"">EltMBPMYm</p>",,,,,,,,,,
html-keyboard-response,203,329932,0.0-12.0-0.33,611eafa6011b0423f7d7230f,650c16f0f2faf8d7a0d14c09,651c1e805011b2c4f87a8457,null,null,"<p style=""font-size: 60px; font-family: BACS"">bNdmGLaA</p>",,,,,,,,,,
html-keyboard-response,204,330933,0.0-12.0-0.34,611eafa6011b0423f7d7230f,650c16f0f2faf8d7a0d14c09,651c1e805011b2c4f87a8457,null,null,"<p style=""font-size: 60px; font-family: BACS"">EltMBdTAh</p>",,,,,,,,,,
html-keyboard-response,205,331934,0.0-12.0-0.35,611eafa6011b0423f7d7230f,650c16f0f2faf8d7a0d14c09,651c1e805011b2c4f87a8457,null,null,"<p style=""font-size: 60px; font-family: BACS"">vYLULaA</p>",,,,,,,,,,
html-keyboard-response,206,332935,0.0-12.0-0.36,611eafa6011b0423f7d7230f,650c16f0f2faf8d7a0d14c09,651c1e805011b2c4f87a8457,null,null,"<p style=""font-size: 60px; font-family: BACS"">OAblckYL</p>",,,,,,,,,,
html-keyboard-response,207,333936,0.0-12.0-0.37,611eafa6011b0423f7d7230f,650c16f0f2faf8d7a0d14c09,651c1e805011b2c4f87a8457,null,null,"<p style=""font-size: 60px; font-family: BACS"">lRCBPMYm</p>",,,,,,,,,,
html-keyboard-response,208,334953,0.0-12.0-0.38,611eafa6011b0423f7d7230f,650c16f0f2faf8d7a0d14c09,651c1e805011b2c4f87a8457,null,null,"<p style=""font-size: 60px; font-family: BACS"">LckGNkYL</p>",,,,,,,,,,
html-keyboard-response,209,335970,0.0-12.0-0.39,611eafa6011b0423f7d7230f,650c16f0f2faf8d7a0d14c09,651c1e805011b2c4f87a8457,null,null,"<p style=""font-size: 60px; font-family: BACS"">lRCBdTAh</p>",,,,,,,,,,
html-keyboard-response,210,336974,0.0-12.0-0.40,611eafa6011b0423f7d7230f,650c16f0f2faf8d7a0d14c09,651c1e805011b2c4f87a8457,null,null,"<p style=""font-size: 60px; font-family: BACS"">KDPAPMYm</p>",,,,,,,,,,
html-keyboard-response,211,337988,0.0-12.0-0.41,611eafa6011b0423f7d7230f,650c16f0f2faf8d7a0d14c09,651c1e805011b2c4f87a8457,null,null,"<p style=""font-size: 60px; font-family: BACS"">tmAKmKcD</p>",,,,,,,,,,
html-keyboard-response,212,339005,0.0-12.0-0.42,611eafa6011b0423f7d7230f,650c16f0f2faf8d7a0d14c09,651c1e805011b2c4f87a8457,null,null,"<p style=""font-size: 60px; font-family: BACS"">mUOcOYkZ</p>",,,,,,,,,,
html-keyboard-response,213,340007,0.0-12.0-0.43,611eafa6011b0423f7d7230f,650c16f0f2faf8d7a0d14c09,651c1e805011b2c4f87a8457,null,null,"<p style=""font-size: 60px; font-family: BACS"">OAblcLaA</p>",,,,,,,,,,
html-keyboard-response,214,341007,0.0-12.0-0.44,611eafa6011b0423f7d7230f,650c16f0f2faf8d7a0d14c09,651c1e805011b2c4f87a8457,null,null,"<p style=""font-size: 60px; font-family: BACS"">tmtEMmKcD</p>",,,,,,,,,,
html-keyboard-response,215,342009,0.0-12.0-0.45,611eafa6011b0423f7d7230f,650c16f0f2faf8d7a0d14c09,651c1e805011b2c4f87a8457,null,null,"<p style=""font-size: 60px; font-family: BACS"">YlYcbTE</p>",,,,,,,,,,
html-keyboard-response,216,343010,0.0-12.0-0.46,611eafa6011b0423f7d7230f,650c16f0f2faf8d7a0d14c09,651c1e805011b2c4f87a8457,null,null,"<p style=""font-size: 60px; font-family: BACS"">OCmkmKcD</p>",,,,,,,,,,
html-keyboard-response,217,344012,0.0-12.0-0.47,611eafa6011b0423f7d7230f,650c16f0f2faf8d7a0d14c09,651c1e805011b2c4f87a8457,null,null,"<p style=""font-size: 60px; font-family: BACS"">AlNUYkZ</p>",,,,,,,,,,
html-keyboard-response,218,345014,0.0-12.0-0.48,611eafa6011b0423f7d7230f,650c16f0f2faf8d7a0d14c09,651c1e805011b2c4f87a8457,null,null,"<p style=""font-size: 60px; font-family: BACS"">dKDthPMYm</p>",,,,,,,,,,
html-keyboard-response,219,346029,0.0-12.0-0.49,611eafa6011b0423f7d7230f,650c16f0f2faf8d7a0d14c09,651c1e805011b2c4f87a8457,null,null,"<p style=""font-size: 60px; font-family: BACS"">DRPkYdTAh</p>",,,,,,,,,,
html-keyboard-response,220,347030,0.0-12.0-0.50,611eafa6011b0423f7d7230f,650c16f0f2faf8d7a0d14c09,651c1e805011b2c4f87a8457,null,null,"<p style=""font-size: 60px; font-family: BACS"">LckGNvJQ</p>",,,,,,,,,,
html-keyboard-response,221,348036,0.0-12.0-0.51,611eafa6011b0423f7d7230f,650c16f0f2faf8d7a0d14c09,651c1e805011b2c4f87a8457,null,null,"<p style=""font-size: 60px; font-family: BACS"">kcOYRYlD</p>",,,,,,,,,,
html-keyboard-response,222,349049,0.0-12.0-0.52,611eafa6011b0423f7d7230f,650c16f0f2faf8d7a0d14c09,651c1e805011b2c4f87a8457,null,null,"<p style=""font-size: 60px; font-family: BACS"">bNdmGZvkL</p>",,,,,,,,,,
html-keyboard-response,223,350051,0.0-12.0-0.53,611eafa6011b0423f7d7230f,650c16f0f2faf8d7a0d14c09,651c1e805011b2c4f87a8457,null,null,"<p style=""font-size: 60px; font-family: BACS"">tmtEMdTAh</p>",,,,,,,,,,
html-keyboard-response,224,351053,0.0-12.0-0.54,611eafa6011b0423f7d7230f,650c16f0f2faf8d7a0d14c09,651c1e805011b2c4f87a8457,null,null,"<p style=""font-size: 60px; font-family: BACS"">LckGNYkZ</p>",,,,,,,,,,
html-keyboard-response,225,352054,0.0-12.0-0.55,611eafa6011b0423f7d7230f,650c16f0f2faf8d7a0d14c09,651c1e805011b2c4f87a8457,null,null,"<p style=""font-size: 60px; font-family: BACS"">YlYcRYlD</p>",,,,,,,,,,
html-keyboard-response,226,353069,0.0-12.0-0.56,611eafa6011b0423f7d7230f,650c16f0f2faf8d7a0d14c09,651c1e805011b2c4f87a8457,null,null,"<p style=""font-size: 60px; font-family: BACS"">bmbNvJQ</p>",,,,,,,,,,
html-keyboard-response,227,354072,0.0-12.0-0.57,611eafa6011b0423f7d7230f,650c16f0f2faf8d7a0d14c09,651c1e805011b2c4f87a8457,null,null,"<p style=""font-size: 60px; font-family: BACS"">ArQuLaA</p>",,,,,,,,,,
html-keyboard-response,228,355076,0.0-12.0-0.58,611eafa6011b0423f7d7230f,650c16f0f2faf8d7a0d14c09,651c1e805011b2c4f87a8457,null,null,"<p style=""font-size: 60px; font-family: BACS"">OCmkPMYm</p>",,,,,,,,,,
html-keyboard-response,229,356090,0.0-12.0-0.59,611eafa6011b0423f7d7230f,650c16f0f2faf8d7a0d14c09,651c1e805011b2c4f87a8457,null,null,"<p style=""font-size: 60px; font-family: BACS"">vYLUZvkL</p>",,,,,,,,,,
html-keyboard-response,230,357093,0.0-12.0-0.60,611eafa6011b0423f7d7230f,650c16f0f2faf8d7a0d14c09,651c1e805011b2c4f87a8457,null,null,"<p style=""font-size: 60px; font-family: BACS"">EltMBbTE</p>",,,,,,,,,,
html-keyboard-response,231,358109,0.0-12.0-0.61,611eafa6011b0423f7d7230f,650c16f0f2faf8d7a0d14c09,651c1e805011b2c4f87a8457,null,null,"<p style=""font-size: 60px; font-family: BACS"">OAblcvJQ</p>",,,,,,,,,,
html-keyboard-response,232,359111,0.0-12.0-0.62,611eafa6011b0423f7d7230f,650c16f0f2faf8d7a0d14c09,651c1e805011b2c4f87a8457,null,null,"<p style=""font-size: 60px; font-family: BACS"">KDPARYlD</p>",,,,,,,,,,
html-keyboard-response,233,360112,0.0-12.0-0.63,611eafa6011b0423f7d7230f,650c16f0f2faf8d7a0d14c09,651c1e805011b2c4f87a8457,null,null,"<p style=""font-size: 60px; font-family: BACS"">AlNUkYL</p>",,,,,,,,,,
html-keyboard-response,234,361114,0.0-12.0-0.64,611eafa6011b0423f7d7230f,650c16f0f2faf8d7a0d14c09,651c1e805011b2c4f87a8457,null,null,"<p style=""font-size: 60px; font-family: BACS"">tmAKRYlD</p>",,,,,,,,,,
html-keyboard-response,235,362128,0.0-12.0-0.65,611eafa6011b0423f7d7230f,650c16f0f2faf8d7a0d14c09,651c1e805011b2c4f87a8457,null,null,"<p style=""font-size: 60px; font-family: BACS"">mUOcOvJQ</p>",,,,,,,,,,
html-keyboard-response,236,363130,0.0-12.0-0.66,611eafa6011b0423f7d7230f,650c16f0f2faf8d7a0d14c09,651c1e805011b2c4f87a8457,null,null,"<p style=""font-size: 60px; font-family: BACS"">tmtEMRYlD</p>",,,,,,,,,,
html-keyboard-response,237,364147,0.0-12.0-0.67,611eafa6011b0423f7d7230f,650c16f0f2faf8d7a0d14c09,651c1e805011b2c4f87a8457,null,null,"<p style=""font-size: 60px; font-family: BACS"">ArQuvJQ</p>",,,,,,,,,,
html-keyboard-response,238,365151,0.0-12.0-0.68,611eafa6011b0423f7d7230f,650c16f0f2faf8d7a0d14c09,651c1e805011b2c4f87a8457,null,null,"<p style=""font-size: 60px; font-family: BACS"">OAblcZvkL</p>",,,,,,,,,,
html-keyboard-response,239,366152,0.0-12.0-0.69,611eafa6011b0423f7d7230f,650c16f0f2faf8d7a0d14c09,651c1e805011b2c4f87a8457,null,null,"<p style=""font-size: 60px; font-family: BACS"">dKDthdTAh</p>",,,,,,,,,,
html-keyboard-response,240,367168,0.0-12.0-0.70,611eafa6011b0423f7d7230f,650c16f0f2faf8d7a0d14c09,651c1e805011b2c4f87a8457,null,null,"<p style=""font-size: 60px; font-family: BACS"">OCmkRYlD</p>",,,,,,,,,,
html-keyboard-response,241,368169,0.0-12.0-0.71,611eafa6011b0423f7d7230f,650c16f0f2faf8d7a0d14c09,651c1e805011b2c4f87a8457,null,null,"<p style=""font-size: 60px; font-family: BACS"">LckGNZvkL</p>",,,,,,,,,,
html-keyboard-response,242,369171,0.0-12.0-0.72,611eafa6011b0423f7d7230f,650c16f0f2faf8d7a0d14c09,651c1e805011b2c4f87a8457,null,null,"<p style=""font-size: 60px; font-family: BACS"">vYLUYkZ</p>",,,,,,,,,,
html-keyboard-response,243,370173,0.0-12.0-0.73,611eafa6011b0423f7d7230f,650c16f0f2faf8d7a0d14c09,651c1e805011b2c4f87a8457,null,null,"<p style=""font-size: 60px; font-family: BACS"">bmbNZvkL</p>",,,,,,,,,,
html-keyboard-response,244,371189,0.0-12.0-0.74,611eafa6011b0423f7d7230f,650c16f0f2faf8d7a0d14c09,651c1e805011b2c4f87a8457,null,null,"<p style=""font-size: 60px; font-family: BACS"">ZcGdNYkZ</p>",,,,,,,,,,
html-keyboard-response,245,372191,0.0-12.0-0.75,611eafa6011b0423f7d7230f,650c16f0f2faf8d7a0d14c09,651c1e805011b2c4f87a8457,null,null,"<p style=""font-size: 60px; font-family: BACS"">lRCBRYlD</p>",,,,,,,,,,
html-keyboard-response,246,373207,0.0-12.0-0.76,611eafa6011b0423f7d7230f,650c16f0f2faf8d7a0d14c09,651c1e805011b2c4f87a8457,null,null,"<p style=""font-size: 60px; font-family: BACS"">AJLrZvkL</p>",,,,,,,,,,
html-keyboard-response,247,374209,0.0-12.0-0.77,611eafa6011b0423f7d7230f,650c16f0f2faf8d7a0d14c09,651c1e805011b2c4f87a8457,null,null,"<p style=""font-size: 60px; font-family: BACS"">dKDthbTE</p>",,,,,,,,,,
html-keyboard-response,248,375210,0.0-12.0-0.78,611eafa6011b0423f7d7230f,650c16f0f2faf8d7a0d14c09,651c1e805011b2c4f87a8457,null,null,"<p style=""font-size: 60px; font-family: BACS"">DRPkYmKcD</p>",,,,,,,,,,
html-keyboard-response,249,376212,0.0-12.0-0.79,611eafa6011b0423f7d7230f,650c16f0f2faf8d7a0d14c09,651c1e805011b2c4f87a8457,null,null,"<p style=""font-size: 60px; font-family: BACS"">AJLrvJQ</p>",,,,,,,,,,
html-keyboard-response,250,392441,0.0-13.0,611eafa6011b0423f7d7230f,650c16f0f2faf8d7a0d14c09,651c1e805011b2c4f87a8457,16228, ,"<p>Great, you've seen the third block of words. You may now take a short break.</p>
      <p>Press the spacebar when you're ready to continue.</p>",,,,,,,,,,
html-keyboard-response,251,393445,0.0-14.0-0.0,611eafa6011b0423f7d7230f,650c16f0f2faf8d7a0d14c09,651c1e805011b2c4f87a8457,null,null,"<p style=""font-size: 60px; font-family: BACS"">bmbNvJQ</p>",,,,,,,,,,
html-keyboard-response,252,394462,0.0-14.0-0.1,611eafa6011b0423f7d7230f,650c16f0f2faf8d7a0d14c09,651c1e805011b2c4f87a8457,null,null,"<p style=""font-size: 60px; font-family: BACS"">ZcGdNYkZ</p>",,,,,,,,,,
html-keyboard-response,253,395465,0.0-14.0-0.2,611eafa6011b0423f7d7230f,650c16f0f2faf8d7a0d14c09,651c1e805011b2c4f87a8457,null,null,"<p style=""font-size: 60px; font-family: BACS"">mUOcOkYL</p>",,,,,,,,,,
html-keyboard-response,254,396479,0.0-14.0-0.3,611eafa6011b0423f7d7230f,650c16f0f2faf8d7a0d14c09,651c1e805011b2c4f87a8457,null,null,"<p style=""font-size: 60px; font-family: BACS"">lRCBdTAh</p>",,,,,,,,,,
html-keyboard-response,255,397482,0.0-14.0-0.4,611eafa6011b0423f7d7230f,650c16f0f2faf8d7a0d14c09,651c1e805011b2c4f87a8457,null,null,"<p style=""font-size: 60px; font-family: BACS"">DRPkYmKcD</p>",,,,,,,,,,
html-keyboard-response,256,398483,0.0-14.0-0.5,611eafa6011b0423f7d7230f,650c16f0f2faf8d7a0d14c09,651c1e805011b2c4f87a8457,null,null,"<p style=""font-size: 60px; font-family: BACS"">AlNUkYL</p>",,,,,,,,,,
html-keyboard-response,257,399499,0.0-14.0-0.6,611eafa6011b0423f7d7230f,650c16f0f2faf8d7a0d14c09,651c1e805011b2c4f87a8457,null,null,"<p style=""font-size: 60px; font-family: BACS"">YlYcRYlD</p>",,,,,,,,,,
html-keyboard-response,258,400501,0.0-14.0-0.7,611eafa6011b0423f7d7230f,650c16f0f2faf8d7a0d14c09,651c1e805011b2c4f87a8457,null,null,"<p style=""font-size: 60px; font-family: BACS"">KDPAbTE</p>",,,,,,,,,,
html-keyboard-response,259,401518,0.0-14.0-0.8,611eafa6011b0423f7d7230f,650c16f0f2faf8d7a0d14c09,651c1e805011b2c4f87a8457,null,null,"<p style=""font-size: 60px; font-family: BACS"">LckGNkYL</p>",,,,,,,,,,
html-keyboard-response,260,402519,0.0-14.0-0.9,611eafa6011b0423f7d7230f,650c16f0f2faf8d7a0d14c09,651c1e805011b2c4f87a8457,null,null,"<p style=""font-size: 60px; font-family: BACS"">dKDthbTE</p>",,,,,,,,,,
html-keyboard-response,261,403520,0.0-14.0-0.10,611eafa6011b0423f7d7230f,650c16f0f2faf8d7a0d14c09,651c1e805011b2c4f87a8457,null,null,"<p style=""font-size: 60px; font-family: BACS"">tmAKmKcD</p>",,,,,,,,,,
html-keyboard-response,262,404521,0.0-14.0-0.11,611eafa6011b0423f7d7230f,650c16f0f2faf8d7a0d14c09,651c1e805011b2c4f87a8457,null,null,"<p style=""font-size: 60px; font-family: BACS"">OAblcZvkL</p>",,,,,,,,,,
html-keyboard-response,263,405523,0.0-14.0-0.12,611eafa6011b0423f7d7230f,650c16f0f2faf8d7a0d14c09,651c1e805011b2c4f87a8457,null,null,"<p style=""font-size: 60px; font-family: BACS"">OCmkdTAh</p>",,,,,,,,,,
html-keyboard-response,264,407460,0.0-14.0-0.13,611eafa6011b0423f7d7230f,650c16f0f2faf8d7a0d14c09,651c1e805011b2c4f87a8457,null,null,"<p style=""font-size: 60px; font-family: BACS"">tmAKPMYm</p>",,,,,,,,,,
html-keyboard-response,265,408926,0.0-14.0-0.14,611eafa6011b0423f7d7230f,650c16f0f2faf8d7a0d14c09,651c1e805011b2c4f87a8457,null,null,"<p style=""font-size: 60px; font-family: BACS"">bNdmGkYL</p>",,,,,,,,,,
html-keyboard-response,266,409927,0.0-14.0-0.15,611eafa6011b0423f7d7230f,650c16f0f2faf8d7a0d14c09,651c1e805011b2c4f87a8457,null,null,"<p style=""font-size: 60px; font-family: BACS"">dKDthdTAh</p>",,,,,,,,,,
html-keyboard-response,267,410943,0.0-14.0-0.16,611eafa6011b0423f7d7230f,650c16f0f2faf8d7a0d14c09,651c1e805011b2c4f87a8457,null,null,"<p style=""font-size: 60px; font-family: BACS"">AlNUYkZ</p>",,,,,,,,,,
html-keyboard-response,268,411946,0.0-14.0-0.17,611eafa6011b0423f7d7230f,650c16f0f2faf8d7a0d14c09,651c1e805011b2c4f87a8457,null,null,"<p style=""font-size: 60px; font-family: BACS"">OCmkRYlD</p>",,,,,,,,,,
html-keyboard-response,269,412962,0.0-14.0-0.18,611eafa6011b0423f7d7230f,650c16f0f2faf8d7a0d14c09,651c1e805011b2c4f87a8457,null,null,"<p style=""font-size: 60px; font-family: BACS"">bNdmGvJQ</p>",,,,,,,,,,
html-keyboard-response,270,413964,0.0-14.0-0.19,611eafa6011b0423f7d7230f,650c16f0f2faf8d7a0d14c09,651c1e805011b2c4f87a8457,null,null,"<p style=""font-size: 60px; font-family: BACS"">EltMBRYlD</p>",,,,,,,,,,
html-keyboard-response,271,414967,0.0-14.0-0.20,611eafa6011b0423f7d7230f,650c16f0f2faf8d7a0d14c09,651c1e805011b2c4f87a8457,null,null,"<p style=""font-size: 60px; font-family: BACS"">lRCBPMYm</p>",,,,,,,,,,
html-keyboard-response,272,415969,0.0-14.0-0.21,611eafa6011b0423f7d7230f,650c16f0f2faf8d7a0d14c09,651c1e805011b2c4f87a8457,null,null,"<p style=""font-size: 60px; font-family: BACS"">ZcGdNvJQ</p>",,,,,,,,,,
html-keyboard-response,273,416983,0.0-14.0-0.22,611eafa6011b0423f7d7230f,650c16f0f2faf8d7a0d14c09,651c1e805011b2c4f87a8457,null,null,"<p style=""font-size: 60px; font-family: BACS"">AJLrLaA</p>",,,,,,,,,,
html-keyboard-response,274,418000,0.0-14.0-0.23,611eafa6011b0423f7d7230f,650c16f0f2faf8d7a0d14c09,651c1e805011b2c4f87a8457,null,null,"<p style=""font-size: 60px; font-family: BACS"">bmbNZvkL</p>",,,,,,,,,,
html-keyboard-response,275,419003,0.0-14.0-0.24,611eafa6011b0423f7d7230f,650c16f0f2faf8d7a0d14c09,651c1e805011b2c4f87a8457,null,null,"<p style=""font-size: 60px; font-family: BACS"">kcOYbTE</p>",,,,,,,,,,
html-keyboard-response,276,420005,0.0-14.0-0.25,611eafa6011b0423f7d7230f,650c16f0f2faf8d7a0d14c09,651c1e805011b2c4f87a8457,null,null,"<p style=""font-size: 60px; font-family: BACS"">tmtEMdTAh</p>",,,,,,,,,,
html-keyboard-response,277,421021,0.0-14.0-0.26,611eafa6011b0423f7d7230f,650c16f0f2faf8d7a0d14c09,651c1e805011b2c4f87a8457,null,null,"<p style=""font-size: 60px; font-family: BACS"">bNdmGZvkL</p>",,,,,,,,,,
html-keyboard-response,278,422024,0.0-14.0-0.27,611eafa6011b0423f7d7230f,650c16f0f2faf8d7a0d14c09,651c1e805011b2c4f87a8457,null,null,"<p style=""font-size: 60px; font-family: BACS"">dKDthmKcD</p>",,,,,,,,,,
html-keyboard-response,279,423026,0.0-14.0-0.28,611eafa6011b0423f7d7230f,650c16f0f2faf8d7a0d14c09,651c1e805011b2c4f87a8457,null,null,"<p style=""font-size: 60px; font-family: BACS"">mUOcOZvkL</p>",,,,,,,,,,
html-keyboard-response,280,424034,0.0-14.0-0.29,611eafa6011b0423f7d7230f,650c16f0f2faf8d7a0d14c09,651c1e805011b2c4f87a8457,null,null,"<p style=""font-size: 60px; font-family: BACS"">kcOYmKcD</p>",,,,,,,,,,
html-keyboard-response,281,425036,0.0-14.0-0.30,611eafa6011b0423f7d7230f,650c16f0f2faf8d7a0d14c09,651c1e805011b2c4f87a8457,null,null,"<p style=""font-size: 60px; font-family: BACS"">EltMBbTE</p>",,,,,,,,,,
html-keyboard-response,282,426046,0.0-14.0-0.31,611eafa6011b0423f7d7230f,650c16f0f2faf8d7a0d14c09,651c1e805011b2c4f87a8457,null,null,"<p style=""font-size: 60px; font-family: BACS"">vYLUkYL</p>",,,,,,,,,,
html-keyboard-response,283,427051,0.0-14.0-0.32,611eafa6011b0423f7d7230f,650c16f0f2faf8d7a0d14c09,651c1e805011b2c4f87a8457,null,null,"<p style=""font-size: 60px; font-family: BACS"">bmbNLaA</p>",,,,,,,,,,
html-keyboard-response,284,428058,0.0-14.0-0.33,611eafa6011b0423f7d7230f,650c16f0f2faf8d7a0d14c09,651c1e805011b2c4f87a8457,null,null,"<p style=""font-size: 60px; font-family: BACS"">DRPkYbTE</p>",,,,,,,,,,
html-keyboard-response,285,429063,0.0-14.0-0.34,611eafa6011b0423f7d7230f,650c16f0f2faf8d7a0d14c09,651c1e805011b2c4f87a8457,null,null,"<p style=""font-size: 60px; font-family: BACS"">OAblckYL</p>",,,,,,,,,,
html-keyboard-response,286,430077,0.0-14.0-0.35,611eafa6011b0423f7d7230f,650c16f0f2faf8d7a0d14c09,651c1e805011b2c4f87a8457,null,null,"<p style=""font-size: 60px; font-family: BACS"">ZcGdNLaA</p>",,,,,,,,,,
html-keyboard-response,287,431086,0.0-14.0-0.36,611eafa6011b0423f7d7230f,650c16f0f2faf8d7a0d14c09,651c1e805011b2c4f87a8457,null,null,"<p style=""font-size: 60px; font-family: BACS"">tmAKRYlD</p>",,,,,,,,,,
html-keyboard-response,288,432099,0.0-14.0-0.37,611eafa6011b0423f7d7230f,650c16f0f2faf8d7a0d14c09,651c1e805011b2c4f87a8457,null,null,"<p style=""font-size: 60px; font-family: BACS"">YlYcbTE</p>",,,,,,,,,,
html-keyboard-response,289,433100,0.0-14.0-0.38,611eafa6011b0423f7d7230f,650c16f0f2faf8d7a0d14c09,651c1e805011b2c4f87a8457,null,null,"<p style=""font-size: 60px; font-family: BACS"">lRCBRYlD</p>",,,,,,,,,,
html-keyboard-response,290,434103,0.0-14.0-0.39,611eafa6011b0423f7d7230f,650c16f0f2faf8d7a0d14c09,651c1e805011b2c4f87a8457,null,null,"<p style=""font-size: 60px; font-family: BACS"">mUOcOYkZ</p>",,,,,,,,,,
html-keyboard-response,291,435465,0.0-14.0-0.40,611eafa6011b0423f7d7230f,650c16f0f2faf8d7a0d14c09,651c1e805011b2c4f87a8457,null,null,"<p style=""font-size: 60px; font-family: BACS"">ArQuLaA</p>",,,,,,,,,,
html-keyboard-response,292,437462,0.0-14.0-0.41,611eafa6011b0423f7d7230f,650c16f0f2faf8d7a0d14c09,651c1e805011b2c4f87a8457,null,null,"<p style=""font-size: 60px; font-family: BACS"">AJLrZvkL</p>",,,,,,,,,,
html-keyboard-response,293,438469,0.0-14.0-0.42,611eafa6011b0423f7d7230f,650c16f0f2faf8d7a0d14c09,651c1e805011b2c4f87a8457,null,null,"<p style=""font-size: 60px; font-family: BACS"">vYLUYkZ</p>",,,,,,,,,,
html-keyboard-response,294,440466,0.0-14.0-0.43,611eafa6011b0423f7d7230f,650c16f0f2faf8d7a0d14c09,651c1e805011b2c4f87a8457,null,null,"<p style=""font-size: 60px; font-family: BACS"">bNdmGLaA</p>",,,,,,,,,,
html-keyboard-response,295,442466,0.0-14.0-0.44,611eafa6011b0423f7d7230f,650c16f0f2faf8d7a0d14c09,651c1e805011b2c4f87a8457,null,null,"<p style=""font-size: 60px; font-family: BACS"">kcOYRYlD</p>",,,,,,,,,,
html-keyboard-response,296,443467,0.0-14.0-0.45,611eafa6011b0423f7d7230f,650c16f0f2faf8d7a0d14c09,651c1e805011b2c4f87a8457,null,null,"<p style=""font-size: 60px; font-family: BACS"">DRPkYPMYm</p>",,,,,,,,,,
html-keyboard-response,297,445467,0.0-14.0-0.46,611eafa6011b0423f7d7230f,650c16f0f2faf8d7a0d14c09,651c1e805011b2c4f87a8457,null,null,"<p style=""font-size: 60px; font-family: BACS"">KDPARYlD</p>",,,,,,,,,,
html-keyboard-response,298,446469,0.0-14.0-0.47,611eafa6011b0423f7d7230f,650c16f0f2faf8d7a0d14c09,651c1e805011b2c4f87a8457,null,null,"<p style=""font-size: 60px; font-family: BACS"">YlYcPMYm</p>",,,,,,,,,,
html-keyboard-response,299,448456,0.0-14.0-0.48,611eafa6011b0423f7d7230f,650c16f0f2faf8d7a0d14c09,651c1e805011b2c4f87a8457,null,null,"<p style=""font-size: 60px; font-family: BACS"">LckGNYkZ</p>",,,,,,,,,,
html-keyboard-response,300,449458,0.0-14.0-0.49,611eafa6011b0423f7d7230f,650c16f0f2faf8d7a0d14c09,651c1e805011b2c4f87a8457,null,null,"<p style=""font-size: 60px; font-family: BACS"">AJLrvJQ</p>",,,,,,,,,,
html-keyboard-response,301,450460,0.0-14.0-0.50,611eafa6011b0423f7d7230f,650c16f0f2faf8d7a0d14c09,651c1e805011b2c4f87a8457,null,null,"<p style=""font-size: 60px; font-family: BACS"">dKDthPMYm</p>",,,,,,,,,,
html-keyboard-response,302,451478,0.0-14.0-0.51,611eafa6011b0423f7d7230f,650c16f0f2faf8d7a0d14c09,651c1e805011b2c4f87a8457,null,null,"<p style=""font-size: 60px; font-family: BACS"">tmtEMRYlD</p>",,,,,,,,,,
html-keyboard-response,303,453467,0.0-14.0-0.52,611eafa6011b0423f7d7230f,650c16f0f2faf8d7a0d14c09,651c1e805011b2c4f87a8457,null,null,"<p style=""font-size: 60px; font-family: BACS"">OAblcvJQ</p>",,,,,,,,,,
html-keyboard-response,304,454482,0.0-14.0-0.53,611eafa6011b0423f7d7230f,650c16f0f2faf8d7a0d14c09,651c1e805011b2c4f87a8457,null,null,"<p style=""font-size: 60px; font-family: BACS"">AlNUZvkL</p>",,,,,,,,,,
html-keyboard-response,305,456459,0.0-14.0-0.54,611eafa6011b0423f7d7230f,650c16f0f2faf8d7a0d14c09,651c1e805011b2c4f87a8457,null,null,"<p style=""font-size: 60px; font-family: BACS"">YlYcmKcD</p>",,,,,,,,,,
html-keyboard-response,306,458466,0.0-14.0-0.55,611eafa6011b0423f7d7230f,650c16f0f2faf8d7a0d14c09,651c1e805011b2c4f87a8457,null,null,"<p style=""font-size: 60px; font-family: BACS"">tmAKbTE</p>",,,,,,,,,,
html-keyboard-response,307,460463,0.0-14.0-0.56,611eafa6011b0423f7d7230f,650c16f0f2faf8d7a0d14c09,651c1e805011b2c4f87a8457,null,null,"<p style=""font-size: 60px; font-family: BACS"">mUOcOvJQ</p>",,,,,,,,,,
html-keyboard-response,308,461479,0.0-14.0-0.57,611eafa6011b0423f7d7230f,650c16f0f2faf8d7a0d14c09,651c1e805011b2c4f87a8457,null,null,"<p style=""font-size: 60px; font-family: BACS"">AJLrYkZ</p>",,,,,,,,,,
html-keyboard-response,309,463468,0.0-14.0-0.58,611eafa6011b0423f7d7230f,650c16f0f2faf8d7a0d14c09,651c1e805011b2c4f87a8457,null,null,"<p style=""font-size: 60px; font-family: BACS"">tmtEMbTE</p>",,,,,,,,,,
html-keyboard-response,310,464470,0.0-14.0-0.59,611eafa6011b0423f7d7230f,650c16f0f2faf8d7a0d14c09,651c1e805011b2c4f87a8457,null,null,"<p style=""font-size: 60px; font-family: BACS"">EltMBPMYm</p>",,,,,,,,,,
html-keyboard-response,311,466465,0.0-14.0-0.60,611eafa6011b0423f7d7230f,650c16f0f2faf8d7a0d14c09,651c1e805011b2c4f87a8457,null,null,"<p style=""font-size: 60px; font-family: BACS"">vYLULaA</p>",,,,,,,,,,
html-keyboard-response,312,468455,0.0-14.0-0.61,611eafa6011b0423f7d7230f,650c16f0f2faf8d7a0d14c09,651c1e805011b2c4f87a8457,null,null,"<p style=""font-size: 60px; font-family: BACS"">KDPAPMYm</p>",,,,,,,,,,
html-keyboard-response,313,469462,0.0-14.0-0.62,611eafa6011b0423f7d7230f,650c16f0f2faf8d7a0d14c09,651c1e805011b2c4f87a8457,null,null,"<p style=""font-size: 60px; font-family: BACS"">kcOYdTAh</p>",,,,,,,,,,
html-keyboard-response,314,471458,0.0-14.0-0.63,611eafa6011b0423f7d7230f,650c16f0f2faf8d7a0d14c09,651c1e805011b2c4f87a8457,null,null,"<p style=""font-size: 60px; font-family: BACS"">ArQukYL</p>",,,,,,,,,,
html-keyboard-response,315,472469,0.0-14.0-0.64,611eafa6011b0423f7d7230f,650c16f0f2faf8d7a0d14c09,651c1e805011b2c4f87a8457,null,null,"<p style=""font-size: 60px; font-family: BACS"">KDPAdTAh</p>",,,,,,,,,,
html-keyboard-response,316,474467,0.0-14.0-0.65,611eafa6011b0423f7d7230f,650c16f0f2faf8d7a0d14c09,651c1e805011b2c4f87a8457,null,null,"<p style=""font-size: 60px; font-family: BACS"">OAblcLaA</p>",,,,,,,,,,
html-keyboard-response,317,475481,0.0-14.0-0.66,611eafa6011b0423f7d7230f,650c16f0f2faf8d7a0d14c09,651c1e805011b2c4f87a8457,null,null,"<p style=""font-size: 60px; font-family: BACS"">ArQuYkZ</p>",,,,,,,,,,
html-keyboard-response,318,477462,0.0-14.0-0.67,611eafa6011b0423f7d7230f,650c16f0f2faf8d7a0d14c09,651c1e805011b2c4f87a8457,null,null,"<p style=""font-size: 60px; font-family: BACS"">tmtEMmKcD</p>",,,,,,,,,,
html-keyboard-response,319,478470,0.0-14.0-0.68,611eafa6011b0423f7d7230f,650c16f0f2faf8d7a0d14c09,651c1e805011b2c4f87a8457,null,null,"<p style=""font-size: 60px; font-family: BACS"">bmbNYkZ</p>",,,,,,,,,,
html-keyboard-response,320,480458,0.0-14.0-0.69,611eafa6011b0423f7d7230f,650c16f0f2faf8d7a0d14c09,651c1e805011b2c4f87a8457,null,null,"<p style=""font-size: 60px; font-family: BACS"">vYLUZvkL</p>",,,,,,,,,,
html-keyboard-response,321,481469,0.0-14.0-0.70,611eafa6011b0423f7d7230f,650c16f0f2faf8d7a0d14c09,651c1e805011b2c4f87a8457,null,null,"<p style=""font-size: 60px; font-family: BACS"">AlNULaA</p>",,,,,,,,,,
html-keyboard-response,322,482476,0.0-14.0-0.71,611eafa6011b0423f7d7230f,650c16f0f2faf8d7a0d14c09,651c1e805011b2c4f87a8457,null,null,"<p style=""font-size: 60px; font-family: BACS"">ArQuvJQ</p>",,,,,,,,,,
html-keyboard-response,323,484461,0.0-14.0-0.72,611eafa6011b0423f7d7230f,650c16f0f2faf8d7a0d14c09,651c1e805011b2c4f87a8457,null,null,"<p style=""font-size: 60px; font-family: BACS"">lRCBmKcD</p>",,,,,,,,,,
html-keyboard-response,324,485477,0.0-14.0-0.73,611eafa6011b0423f7d7230f,650c16f0f2faf8d7a0d14c09,651c1e805011b2c4f87a8457,null,null,"<p style=""font-size: 60px; font-family: BACS"">ZcGdNkYL</p>",,,,,,,,,,
html-keyboard-response,325,487468,0.0-14.0-0.74,611eafa6011b0423f7d7230f,650c16f0f2faf8d7a0d14c09,651c1e805011b2c4f87a8457,null,null,"<p style=""font-size: 60px; font-family: BACS"">LckGNZvkL</p>",,,,,,,,,,
html-keyboard-response,326,489469,0.0-14.0-0.75,611eafa6011b0423f7d7230f,650c16f0f2faf8d7a0d14c09,651c1e805011b2c4f87a8457,null,null,"<p style=""font-size: 60px; font-family: BACS"">DRPkYdTAh</p>",,,,,,,,,,
html-keyboard-response,327,490470,0.0-14.0-0.76,611eafa6011b0423f7d7230f,650c16f0f2faf8d7a0d14c09,651c1e805011b2c4f87a8457,null,null,"<p style=""font-size: 60px; font-family: BACS"">OCmkmKcD</p>",,,,,,,,,,
html-keyboard-response,328,492461,0.0-14.0-0.77,611eafa6011b0423f7d7230f,650c16f0f2faf8d7a0d14c09,651c1e805011b2c4f87a8457,null,null,"<p style=""font-size: 60px; font-family: BACS"">EltMBdTAh</p>",,,,,,,,,,
html-keyboard-response,329,494456,0.0-14.0-0.78,611eafa6011b0423f7d7230f,650c16f0f2faf8d7a0d14c09,651c1e805011b2c4f87a8457,null,null,"<p style=""font-size: 60px; font-family: BACS"">LckGNvJQ</p>",,,,,,,,,,
html-keyboard-response,330,538464,0.0-14.0-0.79,611eafa6011b0423f7d7230f,650c16f0f2faf8d7a0d14c09,651c1e805011b2c4f87a8457,null,null,"<p style=""font-size: 60px; font-family: BACS"">OCmkPMYm</p>",,,,,,,,,,
html-keyboard-response,331,680281,0.0-15.0,611eafa6011b0423f7d7230f,650c16f0f2faf8d7a0d14c09,651c1e805011b2c4f87a8457,141816, ,"<p>Great, you've seen the fourth block of words. You may now take a short break.</p>
      <p>Press the spacebar when you're ready to continue.</p>",,,,,,,,,,
html-keyboard-response,332,681285,0.0-16.0-0.0,611eafa6011b0423f7d7230f,650c16f0f2faf8d7a0d14c09,651c1e805011b2c4f87a8457,null,null,"<p style=""font-size: 60px; font-family: BACS"">OAblckYL</p>",,,,,,,,,,
html-keyboard-response,333,682287,0.0-16.0-0.1,611eafa6011b0423f7d7230f,650c16f0f2faf8d7a0d14c09,651c1e805011b2c4f87a8457,null,null,"<p style=""font-size: 60px; font-family: BACS"">OAblckYL</p>",,,,,,,,,,
html-keyboard-response,334,683294,0.0-16.0-0.2,611eafa6011b0423f7d7230f,650c16f0f2faf8d7a0d14c09,651c1e805011b2c4f87a8457,null,null,"<p style=""font-size: 60px; font-family: BACS"">OAblckYL</p>",,,,,,,,,,
html-keyboard-response,335,684458,0.0-16.0-0.3,611eafa6011b0423f7d7230f,650c16f0f2faf8d7a0d14c09,651c1e805011b2c4f87a8457,null,null,"<p style=""font-size: 60px; font-family: BACS"">OAblckYL</p>",,,,,,,,,,
html-keyboard-response,336,685462,0.0-16.0-0.4,611eafa6011b0423f7d7230f,650c16f0f2faf8d7a0d14c09,651c1e805011b2c4f87a8457,null,null,"<p style=""font-size: 60px; font-family: BACS"">OAblckYL</p>",,,,,,,,,,
html-keyboard-response,337,686463,0.0-16.0-0.5,611eafa6011b0423f7d7230f,650c16f0f2faf8d7a0d14c09,651c1e805011b2c4f87a8457,null,null,"<p style=""font-size: 60px; font-family: BACS"">OAblckYL</p>",,,,,,,,,,
html-keyboard-response,338,687477,0.0-16.0-0.6,611eafa6011b0423f7d7230f,650c16f0f2faf8d7a0d14c09,651c1e805011b2c4f87a8457,null,null,"<p style=""font-size: 60px; font-family: BACS"">OAblckYL</p>",,,,,,,,,,
html-keyboard-response,339,688493,0.0-16.0-0.7,611eafa6011b0423f7d7230f,650c16f0f2faf8d7a0d14c09,651c1e805011b2c4f87a8457,null,null,"<p style=""font-size: 60px; font-family: BACS"">OAblckYL</p>",,,,,,,,,,
html-keyboard-response,340,689507,0.0-16.0-0.8,611eafa6011b0423f7d7230f,650c16f0f2faf8d7a0d14c09,651c1e805011b2c4f87a8457,null,null,"<p style=""font-size: 60px; font-family: BACS"">OAblckYL</p>",,,,,,,,,,
html-keyboard-response,341,690509,0.0-16.0-0.9,611eafa6011b0423f7d7230f,650c16f0f2faf8d7a0d14c09,651c1e805011b2c4f87a8457,null,null,"<p style=""font-size: 60px; font-family: BACS"">OAblckYL</p>",,,,,,,,,,
html-keyboard-response,342,691520,0.0-16.0-0.10,611eafa6011b0423f7d7230f,650c16f0f2faf8d7a0d14c09,651c1e805011b2c4f87a8457,null,null,"<p style=""font-size: 60px; font-family: BACS"">OAblckYL</p>",,,,,,,,,,
html-keyboard-response,343,692527,0.0-16.0-0.11,611eafa6011b0423f7d7230f,650c16f0f2faf8d7a0d14c09,651c1e805011b2c4f87a8457,null,null,"<p style=""font-size: 60px; font-family: BACS"">OAblckYL</p>",,,,,,,,,,
html-keyboard-response,344,694458,0.0-16.0-0.12,611eafa6011b0423f7d7230f,650c16f0f2faf8d7a0d14c09,651c1e805011b2c4f87a8457,null,null,"<p style=""font-size: 60px; font-family: BACS"">OAblckYL</p>",,,,,,,,,,
html-keyboard-response,345,695477,0.0-16.0-0.13,611eafa6011b0423f7d7230f,650c16f0f2faf8d7a0d14c09,651c1e805011b2c4f87a8457,null,null,"<p style=""font-size: 60px; font-family: BACS"">OAblckYL</p>",,,,,,,,,,
html-keyboard-response,346,697467,0.0-16.0-0.14,611eafa6011b0423f7d7230f,650c16f0f2faf8d7a0d14c09,651c1e805011b2c4f87a8457,null,null,"<p style=""font-size: 60px; font-family: BACS"">OAblckYL</p>",,,,,,,,,,
html-keyboard-response,347,698487,0.0-16.0-0.15,611eafa6011b0423f7d7230f,650c16f0f2faf8d7a0d14c09,651c1e805011b2c4f87a8457,null,null,"<p style=""font-size: 60px; font-family: BACS"">OAblckYL</p>",,,,,,,,,,
html-keyboard-response,348,700469,0.0-16.0-0.16,611eafa6011b0423f7d7230f,650c16f0f2faf8d7a0d14c09,651c1e805011b2c4f87a8457,null,null,"<p style=""font-size: 60px; font-family: BACS"">OAblckYL</p>",,,,,,,,,,
html-keyboard-response,349,702461,0.0-16.0-0.17,611eafa6011b0423f7d7230f,650c16f0f2faf8d7a0d14c09,651c1e805011b2c4f87a8457,null,null,"<p style=""font-size: 60px; font-family: BACS"">OAblckYL</p>",,,,,,,,,,
html-keyboard-response,350,703469,0.0-16.0-0.18,611eafa6011b0423f7d7230f,650c16f0f2faf8d7a0d14c09,651c1e805011b2c4f87a8457,null,null,"<p style=""font-size: 60px; font-family: BACS"">OAblckYL</p>",,,,,,,,,,
html-keyboard-response,351,705456,0.0-16.0-0.19,611eafa6011b0423f7d7230f,650c16f0f2faf8d7a0d14c09,651c1e805011b2c4f87a8457,null,null,"<p style=""font-size: 60px; font-family: BACS"">OAblckYL</p>",,,,,,,,,,
html-keyboard-response,352,706457,0.0-16.0-0.20,611eafa6011b0423f7d7230f,650c16f0f2faf8d7a0d14c09,651c1e805011b2c4f87a8457,null,null,"<p style=""font-size: 60px; font-family: BACS"">OAblckYL</p>",,,,,,,,,,
html-keyboard-response,353,708467,0.0-16.0-0.21,611eafa6011b0423f7d7230f,650c16f0f2faf8d7a0d14c09,651c1e805011b2c4f87a8457,null,null,"<p style=""font-size: 60px; font-family: BACS"">OAblckYL</p>",,,,,,,,,,
html-keyboard-response,354,710471,0.0-16.0-0.22,611eafa6011b0423f7d7230f,650c16f0f2faf8d7a0d14c09,651c1e805011b2c4f87a8457,null,null,"<p style=""font-size: 60px; font-family: BACS"">OAblckYL</p>",,,,,,,,,,
html-keyboard-response,355,711473,0.0-16.0-0.23,611eafa6011b0423f7d7230f,650c16f0f2faf8d7a0d14c09,651c1e805011b2c4f87a8457,null,null,"<p style=""font-size: 60px; font-family: BACS"">OAblckYL</p>",,,,,,,,,,
html-keyboard-response,356,712475,0.0-16.0-0.24,611eafa6011b0423f7d7230f,650c16f0f2faf8d7a0d14c09,651c1e805011b2c4f87a8457,null,null,"<p style=""font-size: 60px; font-family: BACS"">OAblckYL</p>",,,,,,,,,,
html-keyboard-response,357,714469,0.0-16.0-0.25,611eafa6011b0423f7d7230f,650c16f0f2faf8d7a0d14c09,651c1e805011b2c4f87a8457,null,null,"<p style=""font-size: 60px; font-family: BACS"">OAblckYL</p>",,,,,,,,,,
html-keyboard-response,358,715484,0.0-16.0-0.26,611eafa6011b0423f7d7230f,650c16f0f2faf8d7a0d14c09,651c1e805011b2c4f87a8457,null,null,"<p style=""font-size: 60px; font-family: BACS"">OAblckYL</p>",,,,,,,,,,
html-keyboard-response,359,717455,0.0-16.0-0.27,611eafa6011b0423f7d7230f,650c16f0f2faf8d7a0d14c09,651c1e805011b2c4f87a8457,null,null,"<p style=""font-size: 60px; font-family: BACS"">OAblckYL</p>",,,,,,,,,,
html-keyboard-response,360,718462,0.0-16.0-0.28,611eafa6011b0423f7d7230f,650c16f0f2faf8d7a0d14c09,651c1e805011b2c4f87a8457,null,null,"<p style=""font-size: 60px; font-family: BACS"">OAblckYL</p>",,,,,,,,,,
html-keyboard-response,361,719472,0.0-16.0-0.29,611eafa6011b0423f7d7230f,650c16f0f2faf8d7a0d14c09,651c1e805011b2c4f87a8457,null,null,"<p style=""font-size: 60px; font-family: BACS"">OAblckYL</p>",,,,,,,,,,
html-keyboard-response,362,721472,0.0-16.0-0.30,611eafa6011b0423f7d7230f,650c16f0f2faf8d7a0d14c09,651c1e805011b2c4f87a8457,null,null,"<p style=""font-size: 60px; font-family: BACS"">OAblckYL</p>",,,,,,,,,,
html-keyboard-response,363,723472,0.0-16.0-0.31,611eafa6011b0423f7d7230f,650c16f0f2faf8d7a0d14c09,651c1e805011b2c4f87a8457,null,null,"<p style=""font-size: 60px; font-family: BACS"">OAblckYL</p>",,,,,,,,,,
html-keyboard-response,364,725471,0.0-16.0-0.32,611eafa6011b0423f7d7230f,650c16f0f2faf8d7a0d14c09,651c1e805011b2c4f87a8457,null,null,"<p style=""font-size: 60px; font-family: BACS"">OAblckYL</p>",,,,,,,,,,
html-keyboard-response,365,727472,0.0-16.0-0.33,611eafa6011b0423f7d7230f,650c16f0f2faf8d7a0d14c09,651c1e805011b2c4f87a8457,null,null,"<p style=""font-size: 60px; font-family: BACS"">OAblckYL</p>",,,,,,,,,,
html-keyboard-response,366,729456,0.0-16.0-0.34,611eafa6011b0423f7d7230f,650c16f0f2faf8d7a0d14c09,651c1e805011b2c4f87a8457,null,null,"<p style=""font-size: 60px; font-family: BACS"">OAblckYL</p>",,,,,,,,,,
html-keyboard-response,367,730460,0.0-16.0-0.35,611eafa6011b0423f7d7230f,650c16f0f2faf8d7a0d14c09,651c1e805011b2c4f87a8457,null,null,"<p style=""font-size: 60px; font-family: BACS"">OAblckYL</p>",,,,,,,,,,
html-keyboard-response,368,731472,0.0-16.0-0.36,611eafa6011b0423f7d7230f,650c16f0f2faf8d7a0d14c09,651c1e805011b2c4f87a8457,null,null,"<p style=""font-size: 60px; font-family: BACS"">OAblckYL</p>",,,,,,,,,,
html-keyboard-response,369,733459,0.0-16.0-0.37,611eafa6011b0423f7d7230f,650c16f0f2faf8d7a0d14c09,651c1e805011b2c4f87a8457,null,null,"<p style=""font-size: 60px; font-family: BACS"">OAblckYL</p>",,,,,,,,,,
html-keyboard-response,370,734466,0.0-16.0-0.38,611eafa6011b0423f7d7230f,650c16f0f2faf8d7a0d14c09,651c1e805011b2c4f87a8457,null,null,"<p style=""font-size: 60px; font-family: BACS"">OAblckYL</p>",,,,,,,,,,
html-keyboard-response,371,736460,0.0-16.0-0.39,611eafa6011b0423f7d7230f,650c16f0f2faf8d7a0d14c09,651c1e805011b2c4f87a8457,null,null,"<p style=""font-size: 60px; font-family: BACS"">OAblckYL</p>",,,,,,,,,,
html-keyboard-response,372,737462,0.0-16.0-0.40,611eafa6011b0423f7d7230f,650c16f0f2faf8d7a0d14c09,651c1e805011b2c4f87a8457,null,null,"<p style=""font-size: 60px; font-family: BACS"">OAblckYL</p>",,,,,,,,,,
html-keyboard-response,373,738471,0.0-16.0-0.41,611eafa6011b0423f7d7230f,650c16f0f2faf8d7a0d14c09,651c1e805011b2c4f87a8457,null,null,"<p style=""font-size: 60px; font-family: BACS"">OAblckYL</p>",,,,,,,,,,
html-keyboard-response,374,739487,0.0-16.0-0.42,611eafa6011b0423f7d7230f,650c16f0f2faf8d7a0d14c09,651c1e805011b2c4f87a8457,null,null,"<p style=""font-size: 60px; font-family: BACS"">OAblckYL</p>",,,,,,,,,,
html-keyboard-response,375,741466,0.0-16.0-0.43,611eafa6011b0423f7d7230f,650c16f0f2faf8d7a0d14c09,651c1e805011b2c4f87a8457,null,null,"<p style=""font-size: 60px; font-family: BACS"">OAblckYL</p>",,,,,,,,,,
html-keyboard-response,376,742467,0.0-16.0-0.44,611eafa6011b0423f7d7230f,650c16f0f2faf8d7a0d14c09,651c1e805011b2c4f87a8457,null,null,"<p style=""font-size: 60px; font-family: BACS"">OAblckYL</p>",,,,,,,,,,
html-keyboard-response,377,743472,0.0-16.0-0.45,611eafa6011b0423f7d7230f,650c16f0f2faf8d7a0d14c09,651c1e805011b2c4f87a8457,null,null,"<p style=""font-size: 60px; font-family: BACS"">OAblckYL</p>",,,,,,,,,,
html-keyboard-response,378,745469,0.0-16.0-0.46,611eafa6011b0423f7d7230f,650c16f0f2faf8d7a0d14c09,651c1e805011b2c4f87a8457,null,null,"<p style=""font-size: 60px; font-family: BACS"">OAblckYL</p>",,,,,,,,,,
html-keyboard-response,379,746483,0.0-16.0-0.47,611eafa6011b0423f7d7230f,650c16f0f2faf8d7a0d14c09,651c1e805011b2c4f87a8457,null,null,"<p style=""font-size: 60px; font-family: BACS"">OAblckYL</p>",,,,,,,,,,
html-keyboard-response,380,748460,0.0-16.0-0.48,611eafa6011b0423f7d7230f,650c16f0f2faf8d7a0d14c09,651c1e805011b2c4f87a8457,null,null,"<p style=""font-size: 60px; font-family: BACS"">OAblckYL</p>",,,,,,,,,,
html-keyboard-response,381,749472,0.0-16.0-0.49,611eafa6011b0423f7d7230f,650c16f0f2faf8d7a0d14c09,651c1e805011b2c4f87a8457,null,null,"<p style=""font-size: 60px; font-family: BACS"">OAblckYL</p>",,,,,,,,,,
html-keyboard-response,382,751460,0.0-16.0-0.50,611eafa6011b0423f7d7230f,650c16f0f2faf8d7a0d14c09,651c1e805011b2c4f87a8457,null,null,"<p style=""font-size: 60px; font-family: BACS"">OAblckYL</p>",,,,,,,,,,
html-keyboard-response,383,752461,0.0-16.0-0.51,611eafa6011b0423f7d7230f,650c16f0f2faf8d7a0d14c09,651c1e805011b2c4f87a8457,null,null,"<p style=""font-size: 60px; font-family: BACS"">OAblckYL</p>",,,,,,,,,,
html-keyboard-response,384,753472,0.0-16.0-0.52,611eafa6011b0423f7d7230f,650c16f0f2faf8d7a0d14c09,651c1e805011b2c4f87a8457,null,null,"<p style=""font-size: 60px; font-family: BACS"">OAblckYL</p>",,,,,,,,,,
html-keyboard-response,385,755471,0.0-16.0-0.53,611eafa6011b0423f7d7230f,650c16f0f2faf8d7a0d14c09,651c1e805011b2c4f87a8457,null,null,"<p style=""font-size: 60px; font-family: BACS"">OAblckYL</p>",,,,,,,,,,
html-keyboard-response,386,757459,0.0-16.0-0.54,611eafa6011b0423f7d7230f,650c16f0f2faf8d7a0d14c09,651c1e805011b2c4f87a8457,null,null,"<p style=""font-size: 60px; font-family: BACS"">OAblckYL</p>",,,,,,,,,,
html-keyboard-response,387,758469,0.0-16.0-0.55,611eafa6011b0423f7d7230f,650c16f0f2faf8d7a0d14c09,651c1e805011b2c4f87a8457,null,null,"<p style=""font-size: 60px; font-family: BACS"">OAblckYL</p>",,,,,,,,,,
html-keyboard-response,388,760461,0.0-16.0-0.56,611eafa6011b0423f7d7230f,650c16f0f2faf8d7a0d14c09,651c1e805011b2c4f87a8457,null,null,"<p style=""font-size: 60px; font-family: BACS"">OAblckYL</p>",,,,,,,,,,
html-keyboard-response,389,761462,0.0-16.0-0.57,611eafa6011b0423f7d7230f,650c16f0f2faf8d7a0d14c09,651c1e805011b2c4f87a8457,null,null,"<p style=""font-size: 60px; font-family: BACS"">OAblckYL</p>",,,,,,,,,,
html-keyboard-response,390,762467,0.0-16.0-0.58,611eafa6011b0423f7d7230f,650c16f0f2faf8d7a0d14c09,651c1e805011b2c4f87a8457,null,null,"<p style=""font-size: 60px; font-family: BACS"">OAblckYL</p>",,,,,,,,,,
html-keyboard-response,391,763477,0.0-16.0-0.59,611eafa6011b0423f7d7230f,650c16f0f2faf8d7a0d14c09,651c1e805011b2c4f87a8457,null,null,"<p style=""font-size: 60px; font-family: BACS"">OAblckYL</p>",,,,,,,,,,
html-keyboard-response,392,765459,0.0-16.0-0.60,611eafa6011b0423f7d7230f,650c16f0f2faf8d7a0d14c09,651c1e805011b2c4f87a8457,null,null,"<p style=""font-size: 60px; font-family: BACS"">OAblckYL</p>",,,,,,,,,,
html-keyboard-response,393,778460,0.0-16.0-0.61,611eafa6011b0423f7d7230f,650c16f0f2faf8d7a0d14c09,651c1e805011b2c4f87a8457,null,null,"<p style=""font-size: 60px; font-family: BACS"">OAblckYL</p>",,,,,,,,,,
html-keyboard-response,394,838459,0.0-16.0-0.62,611eafa6011b0423f7d7230f,650c16f0f2faf8d7a0d14c09,651c1e805011b2c4f87a8457,null,null,"<p style=""font-size: 60px; font-family: BACS"">OAblckYL</p>",,,,,,,,,,
html-keyboard-response,395,898460,0.0-16.0-0.63,611eafa6011b0423f7d7230f,650c16f0f2faf8d7a0d14c09,651c1e805011b2c4f87a8457,null,null,"<p style=""font-size: 60px; font-family: BACS"">OAblckYL</p>",,,,,,,,,,
html-keyboard-response,396,958473,0.0-16.0-0.64,611eafa6011b0423f7d7230f,650c16f0f2faf8d7a0d14c09,651c1e805011b2c4f87a8457,null,null,"<p style=""font-size: 60px; font-family: BACS"">OAblckYL</p>",,,,,,,,,,
html-keyboard-response,397,1018457,0.0-16.0-0.65,611eafa6011b0423f7d7230f,650c16f0f2faf8d7a0d14c09,651c1e805011b2c4f87a8457,null,null,"<p style=""font-size: 60px; font-family: BACS"">OAblckYL</p>",,,,,,,,,,
html-keyboard-response,398,1078469,0.0-16.0-0.66,611eafa6011b0423f7d7230f,650c16f0f2faf8d7a0d14c09,651c1e805011b2c4f87a8457,null,null,"<p style=""font-size: 60px; font-family: BACS"">OAblckYL</p>",,,,,,,,,,
html-keyboard-response,399,1138464,0.0-16.0-0.67,611eafa6011b0423f7d7230f,650c16f0f2faf8d7a0d14c09,651c1e805011b2c4f87a8457,null,null,"<p style=""font-size: 60px; font-family: BACS"">OAblckYL</p>",,,,,,,,,,
html-keyboard-response,400,1198469,0.0-16.0-0.68,611eafa6011b0423f7d7230f,650c16f0f2faf8d7a0d14c09,651c1e805011b2c4f87a8457,null,null,"<p style=""font-size: 60px; font-family: BACS"">OAblckYL</p>",,,,,,,,,,
html-keyboard-response,401,1258457,0.0-16.0-0.69,611eafa6011b0423f7d7230f,650c16f0f2faf8d7a0d14c09,651c1e805011b2c4f87a8457,null,null,"<p style=""font-size: 60px; font-family: BACS"">OAblckYL</p>",,,,,,,,,,
html-keyboard-response,402,1318464,0.0-16.0-0.70,611eafa6011b0423f7d7230f,650c16f0f2faf8d7a0d14c09,651c1e805011b2c4f87a8457,null,null,"<p style=""font-size: 60px; font-family: BACS"">OAblckYL</p>",,,,,,,,,,
html-keyboard-response,403,1378457,0.0-16.0-0.71,611eafa6011b0423f7d7230f,650c16f0f2faf8d7a0d14c09,651c1e805011b2c4f87a8457,null,null,"<p style=""font-size: 60px; font-family: BACS"">OAblckYL</p>",,,,,,,,,,
html-keyboard-response,404,1438459,0.0-16.0-0.72,611eafa6011b0423f7d7230f,650c16f0f2faf8d7a0d14c09,651c1e805011b2c4f87a8457,null,null,"<p style=""font-size: 60px; font-family: BACS"">OAblckYL</p>",,,,,,,,,,
html-keyboard-response,405,1498457,0.0-16.0-0.73,611eafa6011b0423f7d7230f,650c16f0f2faf8d7a0d14c09,651c1e805011b2c4f87a8457,null,null,"<p style=""font-size: 60px; font-family: BACS"">OAblckYL</p>",,,,,,,,,,
html-keyboard-response,406,1558470,0.0-16.0-0.74,611eafa6011b0423f7d7230f,650c16f0f2faf8d7a0d14c09,651c1e805011b2c4f87a8457,null,null,"<p style=""font-size: 60px; font-family: BACS"">OAblckYL</p>",,,,,,,,,,
html-keyboard-response,407,1618469,0.0-16.0-0.75,611eafa6011b0423f7d7230f,650c16f0f2faf8d7a0d14c09,651c1e805011b2c4f87a8457,null,null,"<p style=""font-size: 60px; font-family: BACS"">OAblckYL</p>",,,,,,,,,,
html-keyboard-response,408,1678470,0.0-16.0-0.76,611eafa6011b0423f7d7230f,650c16f0f2faf8d7a0d14c09,651c1e805011b2c4f87a8457,null,null,"<p style=""font-size: 60px; font-family: BACS"">OAblckYL</p>",,,,,,,,,,
html-keyboard-response,409,1738470,0.0-16.0-0.77,611eafa6011b0423f7d7230f,650c16f0f2faf8d7a0d14c09,651c1e805011b2c4f87a8457,null,null,"<p style=""font-size: 60px; font-family: BACS"">OAblckYL</p>",,,,,,,,,,
html-keyboard-response,410,1798466,0.0-16.0-0.78,611eafa6011b0423f7d7230f,650c16f0f2faf8d7a0d14c09,651c1e805011b2c4f87a8457,null,null,"<p style=""font-size: 60px; font-family: BACS"">OAblckYL</p>",,,,,,,,,,
html-keyboard-response,411,1858468,0.0-16.0-0.79,611eafa6011b0423f7d7230f,650c16f0f2faf8d7a0d14c09,651c1e805011b2c4f87a8457,null,null,"<p style=""font-size: 60px; font-family: BACS"">OAblckYL</p>",,,,,,,,,,
html-keyboard-response,412,2395612,0.0-17.0,611eafa6011b0423f7d7230f,650c16f0f2faf8d7a0d14c09,651c1e805011b2c4f87a8457,537143, ,"<p>Great, you've seen the fifth block of words. You may now take a short break.</p>
      <p>Press the spacebar when you're ready to continue.</p>",,,,,,,,,,
html-keyboard-response,413,2396616,0.0-18.0-0.0,611eafa6011b0423f7d7230f,650c16f0f2faf8d7a0d14c09,651c1e805011b2c4f87a8457,null,null,"<p style=""font-size: 60px; font-family: BACS"">dKDthdTAh</p>",,,,,,,,,,
html-keyboard-response,414,2397632,0.0-18.0-0.1,611eafa6011b0423f7d7230f,650c16f0f2faf8d7a0d14c09,651c1e805011b2c4f87a8457,null,null,"<p style=""font-size: 60px; font-family: BACS"">bmbNYkZ</p>",,,,,,,,,,
html-keyboard-response,415,2398635,0.0-18.0-0.2,611eafa6011b0423f7d7230f,650c16f0f2faf8d7a0d14c09,651c1e805011b2c4f87a8457,null,null,"<p style=""font-size: 60px; font-family: BACS"">DRPkYbTE</p>",,,,,,,,,,
html-keyboard-response,416,2399636,0.0-18.0-0.3,611eafa6011b0423f7d7230f,650c16f0f2faf8d7a0d14c09,651c1e805011b2c4f87a8457,null,null,"<p style=""font-size: 60px; font-family: BACS"">kcOYmKcD</p>",,,,,,,,,,
html-keyboard-response,417,2400652,0.0-18.0-0.4,611eafa6011b0423f7d7230f,650c16f0f2faf8d7a0d14c09,651c1e805011b2c4f87a8457,null,null,"<p style=""font-size: 60px; font-family: BACS"">OCmkRYlD</p>",,,,,,,,,,
html-keyboard-response,418,2401655,0.0-18.0-0.5,611eafa6011b0423f7d7230f,650c16f0f2faf8d7a0d14c09,651c1e805011b2c4f87a8457,null,null,"<p style=""font-size: 60px; font-family: BACS"">ZcGdNvJQ</p>",,,,,,,,,,
html-keyboard-response,419,2402670,0.0-18.0-0.6,611eafa6011b0423f7d7230f,650c16f0f2faf8d7a0d14c09,651c1e805011b2c4f87a8457,null,null,"<p style=""font-size: 60px; font-family: BACS"">AJLrZvkL</p>",,,,,,,,,,
html-keyboard-response,420,2403673,0.0-18.0-0.7,611eafa6011b0423f7d7230f,650c16f0f2faf8d7a0d14c09,651c1e805011b2c4f87a8457,null,null,"<p style=""font-size: 60px; font-family: BACS"">OCmkmKcD</p>",,,,,,,,,,
html-keyboard-response,421,2404690,0.0-18.0-0.8,611eafa6011b0423f7d7230f,650c16f0f2faf8d7a0d14c09,651c1e805011b2c4f87a8457,null,null,"<p style=""font-size: 60px; font-family: BACS"">DRPkYPMYm</p>",,,,,,,,,,
html-keyboard-response,422,2405693,0.0-18.0-0.9,611eafa6011b0423f7d7230f,650c16f0f2faf8d7a0d14c09,651c1e805011b2c4f87a8457,null,null,"<p style=""font-size: 60px; font-family: BACS"">ArQuYkZ</p>",,,,,,,,,,
html-keyboard-response,423,2406693,0.0-18.0-0.10,611eafa6011b0423f7d7230f,650c16f0f2faf8d7a0d14c09,651c1e805011b2c4f87a8457,null,null,"<p style=""font-size: 60px; font-family: BACS"">OAblcLaA</p>",,,,,,,,,,
html-keyboard-response,424,2407710,0.0-18.0-0.11,611eafa6011b0423f7d7230f,650c16f0f2faf8d7a0d14c09,651c1e805011b2c4f87a8457,null,null,"<p style=""font-size: 60px; font-family: BACS"">LckGNkYL</p>",,,,,,,,,,
html-keyboard-response,425,2408712,0.0-18.0-0.12,611eafa6011b0423f7d7230f,650c16f0f2faf8d7a0d14c09,651c1e805011b2c4f87a8457,null,null,"<p style=""font-size: 60px; font-family: BACS"">kcOYbTE</p>",,,,,,,,,,
html-keyboard-response,426,2409728,0.0-18.0-0.13,611eafa6011b0423f7d7230f,650c16f0f2faf8d7a0d14c09,651c1e805011b2c4f87a8457,null,null,"<p style=""font-size: 60px; font-family: BACS"">YlYcPMYm</p>",,,,,,,,,,
html-keyboard-response,427,2410729,0.0-18.0-0.14,611eafa6011b0423f7d7230f,650c16f0f2faf8d7a0d14c09,651c1e805011b2c4f87a8457,null,null,"<p style=""font-size: 60px; font-family: BACS"">kcOYdTAh</p>",,,,,,,,,,
html-keyboard-response,428,2411731,0.0-18.0-0.15,611eafa6011b0423f7d7230f,650c16f0f2faf8d7a0d14c09,651c1e805011b2c4f87a8457,null,null,"<p style=""font-size: 60px; font-family: BACS"">lRCBmKcD</p>",,,,,,,,,,
html-keyboard-response,429,2412748,0.0-18.0-0.16,611eafa6011b0423f7d7230f,650c16f0f2faf8d7a0d14c09,651c1e805011b2c4f87a8457,null,null,"<p style=""font-size: 60px; font-family: BACS"">kcOYRYlD</p>",,,,,,,,,,
html-keyboard-response,430,2413750,0.0-18.0-0.17,611eafa6011b0423f7d7230f,650c16f0f2faf8d7a0d14c09,651c1e805011b2c4f87a8457,null,null,"<p style=""font-size: 60px; font-family: BACS"">mUOcOvJQ</p>",,,,,,,,,,
html-keyboard-response,431,2414766,0.0-18.0-0.18,611eafa6011b0423f7d7230f,650c16f0f2faf8d7a0d14c09,651c1e805011b2c4f87a8457,null,null,"<p style=""font-size: 60px; font-family: BACS"">tmAKbTE</p>",,,,,,,,,,
html-keyboard-response,432,2415783,0.0-18.0-0.19,611eafa6011b0423f7d7230f,650c16f0f2faf8d7a0d14c09,651c1e805011b2c4f87a8457,null,null,"<p style=""font-size: 60px; font-family: BACS"">EltMBRYlD</p>",,,,,,,,,,
html-keyboard-response,433,2416785,0.0-18.0-0.20,611eafa6011b0423f7d7230f,650c16f0f2faf8d7a0d14c09,651c1e805011b2c4f87a8457,null,null,"<p style=""font-size: 60px; font-family: BACS"">bmbNLaA</p>",,,,,,,,,,
html-keyboard-response,434,2417787,0.0-18.0-0.21,611eafa6011b0423f7d7230f,650c16f0f2faf8d7a0d14c09,651c1e805011b2c4f87a8457,null,null,"<p style=""font-size: 60px; font-family: BACS"">AJLrvJQ</p>",,,,,,,,,,
html-keyboard-response,435,2418804,0.0-18.0-0.22,611eafa6011b0423f7d7230f,650c16f0f2faf8d7a0d14c09,651c1e805011b2c4f87a8457,null,null,"<p style=""font-size: 60px; font-family: BACS"">ZcGdNLaA</p>",,,,,,,,,,
html-keyboard-response,436,2419805,0.0-18.0-0.23,611eafa6011b0423f7d7230f,650c16f0f2faf8d7a0d14c09,651c1e805011b2c4f87a8457,null,null,"<p style=""font-size: 60px; font-family: BACS"">tmtEMbTE</p>",,,,,,,,,,
html-keyboard-response,437,2420807,0.0-18.0-0.24,611eafa6011b0423f7d7230f,650c16f0f2faf8d7a0d14c09,651c1e805011b2c4f87a8457,null,null,"<p style=""font-size: 60px; font-family: BACS"">ArQuvJQ</p>",,,,,,,,,,
html-keyboard-response,438,2421824,0.0-18.0-0.25,611eafa6011b0423f7d7230f,650c16f0f2faf8d7a0d14c09,651c1e805011b2c4f87a8457,null,null,"<p style=""font-size: 60px; font-family: BACS"">EltMBPMYm</p>",,,,,,,,,,
html-keyboard-response,439,2422825,0.0-18.0-0.26,611eafa6011b0423f7d7230f,650c16f0f2faf8d7a0d14c09,651c1e805011b2c4f87a8457,null,null,"<p style=""font-size: 60px; font-family: BACS"">bNdmGkYL</p>",,,,,,,,,,
html-keyboard-response,440,2423827,0.0-18.0-0.27,611eafa6011b0423f7d7230f,650c16f0f2faf8d7a0d14c09,651c1e805011b2c4f87a8457,null,null,"<p style=""font-size: 60px; font-family: BACS"">YlYcbTE</p>",,,,,,,,,,
html-keyboard-response,441,2424843,0.0-18.0-0.28,611eafa6011b0423f7d7230f,650c16f0f2faf8d7a0d14c09,651c1e805011b2c4f87a8457,null,null,"<p style=""font-size: 60px; font-family: BACS"">KDPARYlD</p>",,,,,,,,,,
html-keyboard-response,442,2425846,0.0-18.0-0.29,611eafa6011b0423f7d7230f,650c16f0f2faf8d7a0d14c09,651c1e805011b2c4f87a8457,null,null,"<p style=""font-size: 60px; font-family: BACS"">vYLULaA</p>",,,,,,,,,,
html-keyboard-response,443,2426859,0.0-18.0-0.30,611eafa6011b0423f7d7230f,650c16f0f2faf8d7a0d14c09,651c1e805011b2c4f87a8457,null,null,"<p style=""font-size: 60px; font-family: BACS"">OCmkdTAh</p>",,,,,,,,,,
html-keyboard-response,444,2427860,0.0-18.0-0.31,611eafa6011b0423f7d7230f,650c16f0f2faf8d7a0d14c09,651c1e805011b2c4f87a8457,null,null,"<p style=""font-size: 60px; font-family: BACS"">bmbNZvkL</p>",,,,,,,,,,
html-keyboard-response,445,2428864,0.0-18.0-0.32,611eafa6011b0423f7d7230f,650c16f0f2faf8d7a0d14c09,651c1e805011b2c4f87a8457,null,null,"<p style=""font-size: 60px; font-family: BACS"">AlNULaA</p>",,,,,,,,,,
html-keyboard-response,446,2429865,0.0-18.0-0.33,611eafa6011b0423f7d7230f,650c16f0f2faf8d7a0d14c09,651c1e805011b2c4f87a8457,null,null,"<p style=""font-size: 60px; font-family: BACS"">bNdmGvJQ</p>",,,,,,,,,,
html-keyboard-response,447,2430867,0.0-18.0-0.34,611eafa6011b0423f7d7230f,650c16f0f2faf8d7a0d14c09,651c1e805011b2c4f87a8457,null,null,"<p style=""font-size: 60px; font-family: BACS"">DRPkYdTAh</p>",,,,,,,,,,
html-keyboard-response,448,2431868,0.0-18.0-0.35,611eafa6011b0423f7d7230f,650c16f0f2faf8d7a0d14c09,651c1e805011b2c4f87a8457,null,null,"<p style=""font-size: 60px; font-family: BACS"">OAblckYL</p>",,,,,,,,,,
html-keyboard-response,449,2432885,0.0-18.0-0.36,611eafa6011b0423f7d7230f,650c16f0f2faf8d7a0d14c09,651c1e805011b2c4f87a8457,null,null,"<p style=""font-size: 60px; font-family: BACS"">tmAKPMYm</p>",,,,,,,,,,
html-keyboard-response,450,2433901,0.0-18.0-0.37,611eafa6011b0423f7d7230f,650c16f0f2faf8d7a0d14c09,651c1e805011b2c4f87a8457,null,null,"<p style=""font-size: 60px; font-family: BACS"">LckGNYkZ</p>",,,,,,,,,,
html-keyboard-response,451,2434905,0.0-18.0-0.38,611eafa6011b0423f7d7230f,650c16f0f2faf8d7a0d14c09,651c1e805011b2c4f87a8457,null,null,"<p style=""font-size: 60px; font-family: BACS"">ArQukYL</p>",,,,,,,,,,
html-keyboard-response,452,2435906,0.0-18.0-0.39,611eafa6011b0423f7d7230f,650c16f0f2faf8d7a0d14c09,651c1e805011b2c4f87a8457,null,null,"<p style=""font-size: 60px; font-family: BACS"">OAblcvJQ</p>",,,,,,,,,,
html-keyboard-response,453,2436923,0.0-18.0-0.40,611eafa6011b0423f7d7230f,650c16f0f2faf8d7a0d14c09,651c1e805011b2c4f87a8457,null,null,"<p style=""font-size: 60px; font-family: BACS"">lRCBRYlD</p>",,,,,,,,,,
html-keyboard-response,454,2437924,0.0-18.0-0.41,611eafa6011b0423f7d7230f,650c16f0f2faf8d7a0d14c09,651c1e805011b2c4f87a8457,null,null,"<p style=""font-size: 60px; font-family: BACS"">tmtEMdTAh</p>",,,,,,,,,,
html-keyboard-response,455,2438932,0.0-18.0-0.42,611eafa6011b0423f7d7230f,650c16f0f2faf8d7a0d14c09,651c1e805011b2c4f87a8457,null,null,"<p style=""font-size: 60px; font-family: BACS"">ZcGdNkYL</p>",,,,,,,,,,
html-keyboard-response,456,2439939,0.0-18.0-0.43,611eafa6011b0423f7d7230f,650c16f0f2faf8d7a0d14c09,651c1e805011b2c4f87a8457,null,null,"<p style=""font-size: 60px; font-family: BACS"">OCmkPMYm</p>",,,,,,,,,,
html-keyboard-response,457,2440940,0.0-18.0-0.44,611eafa6011b0423f7d7230f,650c16f0f2faf8d7a0d14c09,651c1e805011b2c4f87a8457,null,null,"<p style=""font-size: 60px; font-family: BACS"">tmtEMRYlD</p>",,,,,,,,,,
html-keyboard-response,458,2441947,0.0-18.0-0.45,611eafa6011b0423f7d7230f,650c16f0f2faf8d7a0d14c09,651c1e805011b2c4f87a8457,null,null,"<p style=""font-size: 60px; font-family: BACS"">LckGNZvkL</p>",,,,,,,,,,
html-keyboard-response,459,2442962,0.0-18.0-0.46,611eafa6011b0423f7d7230f,650c16f0f2faf8d7a0d14c09,651c1e805011b2c4f87a8457,null,null,"<p style=""font-size: 60px; font-family: BACS"">mUOcOYkZ</p>",,,,,,,,,,
html-keyboard-response,460,2443978,0.0-18.0-0.47,611eafa6011b0423f7d7230f,650c16f0f2faf8d7a0d14c09,651c1e805011b2c4f87a8457,null,null,"<p style=""font-size: 60px; font-family: BACS"">LckGNvJQ</p>",,,,,,,,,,
html-keyboard-response,461,2444994,0.0-18.0-0.48,611eafa6011b0423f7d7230f,650c16f0f2faf8d7a0d14c09,651c1e805011b2c4f87a8457,null,null,"<p style=""font-size: 60px; font-family: BACS"">ArQuLaA</p>",,,,,,,,,,
html-keyboard-response,462,2445996,0.0-18.0-0.49,611eafa6011b0423f7d7230f,650c16f0f2faf8d7a0d14c09,651c1e805011b2c4f87a8457,null,null,"<p style=""font-size: 60px; font-family: BACS"">vYLUZvkL</p>",,,,,,,,,,
html-keyboard-response,463,2447000,0.0-18.0-0.50,611eafa6011b0423f7d7230f,650c16f0f2faf8d7a0d14c09,651c1e805011b2c4f87a8457,null,null,"<p style=""font-size: 60px; font-family: BACS"">lRCBdTAh</p>",,,,,,,,,,
html-keyboard-response,464,2448002,0.0-18.0-0.51,611eafa6011b0423f7d7230f,650c16f0f2faf8d7a0d14c09,651c1e805011b2c4f87a8457,null,null,"<p style=""font-size: 60px; font-family: BACS"">vYLUYkZ</p>",,,,,,,,,,
html-keyboard-response,465,2449017,0.0-18.0-0.52,611eafa6011b0423f7d7230f,650c16f0f2faf8d7a0d14c09,651c1e805011b2c4f87a8457,null,null,"<p style=""font-size: 60px; font-family: BACS"">OAblcZvkL</p>",,,,,,,,,,
html-keyboard-response,466,2450019,0.0-18.0-0.53,611eafa6011b0423f7d7230f,650c16f0f2faf8d7a0d14c09,651c1e805011b2c4f87a8457,null,null,"<p style=""font-size: 60px; font-family: BACS"">dKDthPMYm</p>",,,,,,,,,,
html-keyboard-response,467,2451035,0.0-18.0-0.54,611eafa6011b0423f7d7230f,650c16f0f2faf8d7a0d14c09,651c1e805011b2c4f87a8457,null,null,"<p style=""font-size: 60px; font-family: BACS"">bNdmGZvkL</p>",,,,,,,,,,
