"trial_type","trial_index","time_elapsed","internal_node_id","subject_id","study_id","session_id","rt","response","stimulus","success","item","task","correct_response","correct","target","confound","name"
"pavlovia","0","3822","0.0-0.0","5ed54d02957bee0c0de36cac","64afc2c9a8732ea92db0087d","64aff82e2d61c8c70a078e4d","","","","","","","","","","",""
"survey-html-form","1","23411","0.0-1.0","5ed54d02957bee0c0de36cac","64afc2c9a8732ea92db0087d","64aff82e2d61c8c70a078e4d","19588","{""ID"":""5ed54d02957bee0c0de36cac""}","","","","","","","","",""
"html-keyboard-response","2","36513","0.0-2.0","5ed54d02957bee0c0de36cac","64afc2c9a8732ea92db0087d","64aff82e2d61c8c70a078e4d","13102"," ","<p style=""font-size: 15px;"">Prima di cominciare, le chiediamo di leggere il modulo di consenso informato e confermare la sua volontà di partecipare all'esperimento.</p>
      <p style=""font-size: 15px;""> La preghiamo di ricordare che questo è un progetto di ricerca e che la sua partecipazione è completamente volontaria. Lei si potra' ritirare in qualunque momento, senza necessariamente dover dare alcuna spiegazione. Lo studio al quale Le si chiede di partecipare ha lo scopo di esaminare come i lettori elaborano le parole scritte. La somministrazione delle prove è individuale. Lei sarà impegnato in una sessione di lavoro della durata media di 10 minuti, e un questionario di 10 minuti. L’ordine delle prove ed il loro svolgimento sono stabiliti in modo tale da evitare un eventuale affaticamento. Tutte le prove saranno precedute da un breve addestramento in modo tale che abbia la possibilità di familiarizzare con il compito. Sono previste alcune pause nel corso dello svolgimento dell’esperimento. Una ricompensa di £4 (£8 per ora) Le verrà consegnata al termine della sessione di testing. Nonostante il testing preveda delle prove cognitive, il presente esperimento non costituisce una prova clinica che permetta la diagnosi di eventuali patologie.</p>
      <p style=""font-size: 15px;"">Tutti i dati raccolti grazie alla partecipazione Sua e di altre persone volontarie saranno custoditi in server sicuri e protetti da password, e non sarà consentito ad alcuna persona non autorizzata di accedervi. Le Sue informazioni personali saranno conservate separatamente dai risultati della presente ricerca, cui saranno associati soltanto attraverso un ID arbitrario. Grazie a questo processo di anonimizzazione dei dati, a nessun ricercatore sarà possibile analizzare i risultati sapendo da quale specifico partecipante essi provengono. Inoltre, questa procedura renderà impossibile la Sua identificazione anche nel momento in cui i risultati della ricerca fossero pubblicati su riviste scientifiche, o presentati a congressi o in qualsiasi altro pubblico consesso. Più in generale, i dati raccolti saranno trattati in accordo con le leggi sulla privacy e in conformità al Decreto Legislativo 30 giugno 2003 n. 196 “Codice in materia di protezione dei dati personali” e al Regolamento Europeo 2016/679 (General Data Protection Regulation - GDPR). Il Responsabile della protezione dei dati (RPD) è l’Avv. Valentina Carollo che può essere contattato ai seguenti indirizzi email: <a href=""mailto:dpo@sissa.it"">dpo@sissa.it</a> oppure <a href=""mailto:rpd@sissa.it"">rpd@sissa.it</a> - PEC: <a href=""mailto:protocollo@pec.sissa.it"">protocollo@pec.sissa.it</a>.</p>
      <p style=""font-size: 15px;""> Prima di esprimere il suo consenso alla partecipazione, Le ricordiamo ancora che in caso Lei abbia bisogno di delucidazioni su qualunque aspetto della procedura sperimentale, il ricercatore è a Sua completa disposizione (<a href=""mailto:aliebelt@sissa.it"">aliebelt@sissa.it</a>, <a href=""mailto:davide.crepaldi@sissa.it"">davide.crepaldi@sissa.it</a>).</p>
      <p style=""font-size: 15px;"">Se vuole scaricare il modulo di consenso informato, clicca qui: <a href=""BASL_modulo_consenso.pdf"" download>modulo di consenso</a>.</p>
      <p style=""font-size: 15px;""> Le chiediamo di premere la barra per continuare al consenso.</p>","","","","","","","",""
"survey-html-form","3","60748","0.0-3.0","5ed54d02957bee0c0de36cac","64afc2c9a8732ea92db0087d","64aff82e2d61c8c70a078e4d","24234","{""consent1"":""YES"",""consent2"":""YES"",""consent3"":""YES"",""consent4"":""YES"",""consent5"":""YES"",""consent6"":""YES""}","","","","","","","","",""
"fullscreen","4","65928","0.0-4.0","5ed54d02957bee0c0de36cac","64afc2c9a8732ea92db0087d","64aff82e2d61c8c70a078e4d","","","","true","","","","","","",""
"html-keyboard-response","5","98246","0.0-5.0","5ed54d02957bee0c0de36cac","64afc2c9a8732ea92db0087d","64aff82e2d61c8c70a078e4d","32317"," ","<p>Benvenuta/o, e grazie mille del tuo tempo!</p>
      <p>In questo esperimento sarai un esperto/un'esperta di linguaggio cui è stato chiesto di dare un'occhiata ad alcuni messaggi che la Terra ha ricevuto dallo spazio. Il tuo compito, in questa prima parte dell'esperimento, sarà di fare molta attenzione alle parole che ti verranno mostrate; più tardi, i leader del mondo ti chiederanno qualche informazione su quello che hai visto. Le parole si susseguiranno abbastanza velocemente; sembra che questi alieni abbiano una certa fretta :-) </p>
      <p>Per favore, chiama lo sperimentatore se ha qualche domanda.</p><p>Premi la barra per continuare.</p>","","","","","","","",""
"html-keyboard-response","6","106428","0.0-6.0","5ed54d02957bee0c0de36cac","64afc2c9a8732ea92db0087d","64aff82e2d61c8c70a078e4d","8181"," ","<p>Ecco un esempio delle parole che vedrai:</p>
      <img src='esempio.png' height='400px'>
      <p>Quando sei pronti per iniziare, premi la barra.</p></div>","","","","","","","",""
"html-keyboard-response","7","107437","0.0-7.0-0.0","5ed54d02957bee0c0de36cac","64afc2c9a8732ea92db0087d","64aff82e2d61c8c70a078e4d","null","null","<p style=""font-size: 60px; font-family: BACS"">GZJYvUdm</p>","","","","","","","",""
"html-keyboard-response","8","108438","0.0-7.0-0.1","5ed54d02957bee0c0de36cac","64afc2c9a8732ea92db0087d","64aff82e2d61c8c70a078e4d","null","null","<p style=""font-size: 60px; font-family: BACS"">bGuOuvJ</p>","","","","","","","",""
"html-keyboard-response","9","109443","0.0-7.0-0.2","5ed54d02957bee0c0de36cac","64afc2c9a8732ea92db0087d","64aff82e2d61c8c70a078e4d","null","null","<p style=""font-size: 60px; font-family: BACS"">ZJLmruZc</p>","","","","","","","",""
"html-keyboard-response","10","110445","0.0-7.0-0.3","5ed54d02957bee0c0de36cac","64afc2c9a8732ea92db0087d","64aff82e2d61c8c70a078e4d","null","null","<p style=""font-size: 60px; font-family: BACS"">OYuvbuvJ</p>","","","","","","","",""
"html-keyboard-response","11","111454","0.0-7.0-0.4","5ed54d02957bee0c0de36cac","64afc2c9a8732ea92db0087d","64aff82e2d61c8c70a078e4d","null","null","<p style=""font-size: 60px; font-family: BACS"">htmhCAPT</p>","","","","","","","",""
"html-keyboard-response","12","112457","0.0-7.0-0.5","5ed54d02957bee0c0de36cac","64afc2c9a8732ea92db0087d","64aff82e2d61c8c70a078e4d","null","null","<p style=""font-size: 60px; font-family: BACS"">krUQuZc</p>","","","","","","","",""
"html-keyboard-response","13","113466","0.0-7.0-0.6","5ed54d02957bee0c0de36cac","64afc2c9a8732ea92db0087d","64aff82e2d61c8c70a078e4d","null","null","<p style=""font-size: 60px; font-family: BACS"">kKRCAPT</p>","","","","","","","",""
"html-keyboard-response","14","114474","0.0-7.0-0.7","5ed54d02957bee0c0de36cac","64afc2c9a8732ea92db0087d","64aff82e2d61c8c70a078e4d","null","null","<p style=""font-size: 60px; font-family: BACS"">krUQark</p>","","","","","","","",""
"html-keyboard-response","15","115484","0.0-7.0-0.8","5ed54d02957bee0c0de36cac","64afc2c9a8732ea92db0087d","64aff82e2d61c8c70a078e4d","null","null","<p style=""font-size: 60px; font-family: BACS"">ObOQlukbY</p>","","","","","","","",""
"html-keyboard-response","16","116495","0.0-7.0-0.9","5ed54d02957bee0c0de36cac","64afc2c9a8732ea92db0087d","64aff82e2d61c8c70a078e4d","null","null","<p style=""font-size: 60px; font-family: BACS"">bvkruvJ</p>","","","","","","","",""
"html-keyboard-response","17","117496","0.0-7.0-0.10","5ed54d02957bee0c0de36cac","64afc2c9a8732ea92db0087d","64aff82e2d61c8c70a078e4d","null","null","<p style=""font-size: 60px; font-family: BACS"">Udbdark</p>","","","","","","","",""
"html-keyboard-response","18","118497","0.0-7.0-0.11","5ed54d02957bee0c0de36cac","64afc2c9a8732ea92db0087d","64aff82e2d61c8c70a078e4d","null","null","<p style=""font-size: 60px; font-family: BACS"">KRARmKlkD</p>","","","","","","","",""
"html-keyboard-response","19","119502","0.0-7.0-0.12","5ed54d02957bee0c0de36cac","64afc2c9a8732ea92db0087d","64aff82e2d61c8c70a078e4d","null","null","<p style=""font-size: 60px; font-family: BACS"">BECkcDR</p>","","","","","","","",""
"html-keyboard-response","20","120516","0.0-7.0-0.13","5ed54d02957bee0c0de36cac","64afc2c9a8732ea92db0087d","64aff82e2d61c8c70a078e4d","null","null","<p style=""font-size: 60px; font-family: BACS"">KRARmTmTm</p>","","","","","","","",""
"html-keyboard-response","21","121523","0.0-7.0-0.14","5ed54d02957bee0c0de36cac","64afc2c9a8732ea92db0087d","64aff82e2d61c8c70a078e4d","null","null","<p style=""font-size: 60px; font-family: BACS"">PYkCbAMO</p>","","","","","","","",""
"html-keyboard-response","22","122531","0.0-7.0-0.15","5ed54d02957bee0c0de36cac","64afc2c9a8732ea92db0087d","64aff82e2d61c8c70a078e4d","null","null","<p style=""font-size: 60px; font-family: BACS"">BECkTmTm</p>","","","","","","","",""
"html-keyboard-response","23","123538","0.0-7.0-0.16","5ed54d02957bee0c0de36cac","64afc2c9a8732ea92db0087d","64aff82e2d61c8c70a078e4d","null","null","<p style=""font-size: 60px; font-family: BACS"">hTDdAPT</p>","","","","","","","",""
"html-keyboard-response","24","124552","0.0-7.0-0.17","5ed54d02957bee0c0de36cac","64afc2c9a8732ea92db0087d","64aff82e2d61c8c70a078e4d","null","null","<p style=""font-size: 60px; font-family: BACS"">ZdNmUuvJ</p>","","","","","","","",""
"html-keyboard-response","25","125553","0.0-7.0-0.18","5ed54d02957bee0c0de36cac","64afc2c9a8732ea92db0087d","64aff82e2d61c8c70a078e4d","null","null","<p style=""font-size: 60px; font-family: BACS"">ECtbDKlkD</p>","","","","","","","",""
"html-keyboard-response","26","126565","0.0-7.0-0.19","5ed54d02957bee0c0de36cac","64afc2c9a8732ea92db0087d","64aff82e2d61c8c70a078e4d","null","null","<p style=""font-size: 60px; font-family: BACS"">PYkCTmTm</p>","","","","","","","",""
"html-keyboard-response","27","127570","0.0-7.0-0.20","5ed54d02957bee0c0de36cac","64afc2c9a8732ea92db0087d","64aff82e2d61c8c70a078e4d","null","null","<p style=""font-size: 60px; font-family: BACS"">krUQvUdm</p>","","","","","","","",""
"html-keyboard-response","28","128577","0.0-7.0-0.21","5ed54d02957bee0c0de36cac","64afc2c9a8732ea92db0087d","64aff82e2d61c8c70a078e4d","null","null","<p style=""font-size: 60px; font-family: BACS"">YQbcark</p>","","","","","","","",""
"html-keyboard-response","29","129578","0.0-7.0-0.22","5ed54d02957bee0c0de36cac","64afc2c9a8732ea92db0087d","64aff82e2d61c8c70a078e4d","null","null","<p style=""font-size: 60px; font-family: BACS"">PEtEbAMO</p>","","","","","","","",""
"html-keyboard-response","30","130579","0.0-7.0-0.23","5ed54d02957bee0c0de36cac","64afc2c9a8732ea92db0087d","64aff82e2d61c8c70a078e4d","null","null","<p style=""font-size: 60px; font-family: BACS"">ObOQluvJ</p>","","","","","","","",""
"html-keyboard-response","31","131592","0.0-7.0-0.24","5ed54d02957bee0c0de36cac","64afc2c9a8732ea92db0087d","64aff82e2d61c8c70a078e4d","null","null","<p style=""font-size: 60px; font-family: BACS"">PEtETmTm</p>","","","","","","","",""
"html-keyboard-response","32","132605","0.0-7.0-0.25","5ed54d02957bee0c0de36cac","64afc2c9a8732ea92db0087d","64aff82e2d61c8c70a078e4d","null","null","<p style=""font-size: 60px; font-family: BACS"">UdbduvJ</p>","","","","","","","",""
"html-keyboard-response","33","133608","0.0-7.0-0.26","5ed54d02957bee0c0de36cac","64afc2c9a8732ea92db0087d","64aff82e2d61c8c70a078e4d","null","null","<p style=""font-size: 60px; font-family: BACS"">YQbcukbY</p>","","","","","","","",""
"html-keyboard-response","34","134610","0.0-7.0-0.27","5ed54d02957bee0c0de36cac","64afc2c9a8732ea92db0087d","64aff82e2d61c8c70a078e4d","null","null","<p style=""font-size: 60px; font-family: BACS"">bAdkAPT</p>","","","","","","","",""
"html-keyboard-response","35","135619","0.0-7.0-0.28","5ed54d02957bee0c0de36cac","64afc2c9a8732ea92db0087d","64aff82e2d61c8c70a078e4d","null","null","<p style=""font-size: 60px; font-family: BACS"">PEtEcDR</p>","","","","","","","",""
"html-keyboard-response","36","136629","0.0-7.0-0.29","5ed54d02957bee0c0de36cac","64afc2c9a8732ea92db0087d","64aff82e2d61c8c70a078e4d","null","null","<p style=""font-size: 60px; font-family: BACS"">htmhCKlkD</p>","","","","","","","",""
"html-keyboard-response","37","137630","0.0-7.0-0.30","5ed54d02957bee0c0de36cac","64afc2c9a8732ea92db0087d","64aff82e2d61c8c70a078e4d","null","null","<p style=""font-size: 60px; font-family: BACS"">GZJYark</p>","","","","","","","",""
"html-keyboard-response","38","138631","0.0-7.0-0.31","5ed54d02957bee0c0de36cac","64afc2c9a8732ea92db0087d","64aff82e2d61c8c70a078e4d","null","null","<p style=""font-size: 60px; font-family: BACS"">bAdkbAMO</p>","","","","","","","",""
"html-keyboard-response","39","139632","0.0-7.0-0.32","5ed54d02957bee0c0de36cac","64afc2c9a8732ea92db0087d","64aff82e2d61c8c70a078e4d","null","null","<p style=""font-size: 60px; font-family: BACS"">hTDdTmTm</p>","","","","","","","",""
"html-keyboard-response","40","140638","0.0-7.0-0.33","5ed54d02957bee0c0de36cac","64afc2c9a8732ea92db0087d","64aff82e2d61c8c70a078e4d","null","null","<p style=""font-size: 60px; font-family: BACS"">UdbduZc</p>","","","","","","","",""
"html-keyboard-response","41","141649","0.0-7.0-0.34","5ed54d02957bee0c0de36cac","64afc2c9a8732ea92db0087d","64aff82e2d61c8c70a078e4d","null","null","<p style=""font-size: 60px; font-family: BACS"">OAmAdKlkD</p>","","","","","","","",""
"html-keyboard-response","42","142663","0.0-7.0-0.35","5ed54d02957bee0c0de36cac","64afc2c9a8732ea92db0087d","64aff82e2d61c8c70a078e4d","null","null","<p style=""font-size: 60px; font-family: BACS"">UdbdvUdm</p>","","","","","","","",""
"html-keyboard-response","43","143670","0.0-7.0-0.36","5ed54d02957bee0c0de36cac","64afc2c9a8732ea92db0087d","64aff82e2d61c8c70a078e4d","null","null","<p style=""font-size: 60px; font-family: BACS"">kKRCKlkD</p>","","","","","","","",""
"html-keyboard-response","44","144677","0.0-7.0-0.37","5ed54d02957bee0c0de36cac","64afc2c9a8732ea92db0087d","64aff82e2d61c8c70a078e4d","null","null","<p style=""font-size: 60px; font-family: BACS"">YQbcvUdm</p>","","","","","","","",""
"html-keyboard-response","45","145679","0.0-7.0-0.38","5ed54d02957bee0c0de36cac","64afc2c9a8732ea92db0087d","64aff82e2d61c8c70a078e4d","null","null","<p style=""font-size: 60px; font-family: BACS"">ZdNmUuZc</p>","","","","","","","",""
"html-keyboard-response","46","146684","0.0-7.0-0.39","5ed54d02957bee0c0de36cac","64afc2c9a8732ea92db0087d","64aff82e2d61c8c70a078e4d","null","null","<p style=""font-size: 60px; font-family: BACS"">KRARmbAMO</p>","","","","","","","",""
"html-keyboard-response","47","147685","0.0-7.0-0.40","5ed54d02957bee0c0de36cac","64afc2c9a8732ea92db0087d","64aff82e2d61c8c70a078e4d","null","null","<p style=""font-size: 60px; font-family: BACS"">BECkAPT</p>","","","","","","","",""
"html-keyboard-response","48","148689","0.0-7.0-0.41","5ed54d02957bee0c0de36cac","64afc2c9a8732ea92db0087d","64aff82e2d61c8c70a078e4d","null","null","<p style=""font-size: 60px; font-family: BACS"">OAmAdcDR</p>","","","","","","","",""
"html-keyboard-response","49","149699","0.0-7.0-0.42","5ed54d02957bee0c0de36cac","64afc2c9a8732ea92db0087d","64aff82e2d61c8c70a078e4d","null","null","<p style=""font-size: 60px; font-family: BACS"">ZdNmUvUdm</p>","","","","","","","",""
"html-keyboard-response","50","150700","0.0-7.0-0.43","5ed54d02957bee0c0de36cac","64afc2c9a8732ea92db0087d","64aff82e2d61c8c70a078e4d","null","null","<p style=""font-size: 60px; font-family: BACS"">ZJLmrukbY</p>","","","","","","","",""
"html-keyboard-response","51","151715","0.0-7.0-0.44","5ed54d02957bee0c0de36cac","64afc2c9a8732ea92db0087d","64aff82e2d61c8c70a078e4d","null","null","<p style=""font-size: 60px; font-family: BACS"">ObOQlvUdm</p>","","","","","","","",""
"html-keyboard-response","52","152728","0.0-7.0-0.45","5ed54d02957bee0c0de36cac","64afc2c9a8732ea92db0087d","64aff82e2d61c8c70a078e4d","null","null","<p style=""font-size: 60px; font-family: BACS"">GZJYukbY</p>","","","","","","","",""
"html-keyboard-response","53","153737","0.0-7.0-0.46","5ed54d02957bee0c0de36cac","64afc2c9a8732ea92db0087d","64aff82e2d61c8c70a078e4d","null","null","<p style=""font-size: 60px; font-family: BACS"">kKRCcDR</p>","","","","","","","",""
"html-keyboard-response","54","154740","0.0-7.0-0.47","5ed54d02957bee0c0de36cac","64afc2c9a8732ea92db0087d","64aff82e2d61c8c70a078e4d","null","null","<p style=""font-size: 60px; font-family: BACS"">OAmAdAPT</p>","","","","","","","",""
"html-keyboard-response","55","155750","0.0-7.0-0.48","5ed54d02957bee0c0de36cac","64afc2c9a8732ea92db0087d","64aff82e2d61c8c70a078e4d","null","null","<p style=""font-size: 60px; font-family: BACS"">ECtbDcDR</p>","","","","","","","",""
"html-keyboard-response","56","156750","0.0-7.0-0.49","5ed54d02957bee0c0de36cac","64afc2c9a8732ea92db0087d","64aff82e2d61c8c70a078e4d","null","null","<p style=""font-size: 60px; font-family: BACS"">kKRCbAMO</p>","","","","","","","",""
"html-keyboard-response","57","157756","0.0-7.0-0.50","5ed54d02957bee0c0de36cac","64afc2c9a8732ea92db0087d","64aff82e2d61c8c70a078e4d","null","null","<p style=""font-size: 60px; font-family: BACS"">OYuvbvUdm</p>","","","","","","","",""
"html-keyboard-response","58","158766","0.0-7.0-0.51","5ed54d02957bee0c0de36cac","64afc2c9a8732ea92db0087d","64aff82e2d61c8c70a078e4d","null","null","<p style=""font-size: 60px; font-family: BACS"">bGuOark</p>","","","","","","","",""
"html-keyboard-response","59","159768","0.0-7.0-0.52","5ed54d02957bee0c0de36cac","64afc2c9a8732ea92db0087d","64aff82e2d61c8c70a078e4d","null","null","<p style=""font-size: 60px; font-family: BACS"">bvkruZc</p>","","","","","","","",""
"html-keyboard-response","60","160769","0.0-7.0-0.53","5ed54d02957bee0c0de36cac","64afc2c9a8732ea92db0087d","64aff82e2d61c8c70a078e4d","null","null","<p style=""font-size: 60px; font-family: BACS"">OYuvbukbY</p>","","","","","","","",""
"html-keyboard-response","61","161774","0.0-7.0-0.54","5ed54d02957bee0c0de36cac","64afc2c9a8732ea92db0087d","64aff82e2d61c8c70a078e4d","null","null","<p style=""font-size: 60px; font-family: BACS"">PYkCAPT</p>","","","","","","","",""
"html-keyboard-response","62","162783","0.0-7.0-0.55","5ed54d02957bee0c0de36cac","64afc2c9a8732ea92db0087d","64aff82e2d61c8c70a078e4d","null","null","<p style=""font-size: 60px; font-family: BACS"">ZJLmrark</p>","","","","","","","",""
"html-keyboard-response","63","163798","0.0-7.0-0.56","5ed54d02957bee0c0de36cac","64afc2c9a8732ea92db0087d","64aff82e2d61c8c70a078e4d","null","null","<p style=""font-size: 60px; font-family: BACS"">hTDdKlkD</p>","","","","","","","",""
"html-keyboard-response","64","164811","0.0-7.0-0.57","5ed54d02957bee0c0de36cac","64afc2c9a8732ea92db0087d","64aff82e2d61c8c70a078e4d","null","null","<p style=""font-size: 60px; font-family: BACS"">bAdkTmTm</p>","","","","","","","",""
"html-keyboard-response","65","165823","0.0-7.0-0.58","5ed54d02957bee0c0de36cac","64afc2c9a8732ea92db0087d","64aff82e2d61c8c70a078e4d","null","null","<p style=""font-size: 60px; font-family: BACS"">bGuOvUdm</p>","","","","","","","",""
"html-keyboard-response","66","166832","0.0-7.0-0.59","5ed54d02957bee0c0de36cac","64afc2c9a8732ea92db0087d","64aff82e2d61c8c70a078e4d","null","null","<p style=""font-size: 60px; font-family: BACS"">ObOQlark</p>","","","","","","","",""
"html-keyboard-response","67","167837","0.0-7.0-0.60","5ed54d02957bee0c0de36cac","64afc2c9a8732ea92db0087d","64aff82e2d61c8c70a078e4d","null","null","<p style=""font-size: 60px; font-family: BACS"">ECtbDbAMO</p>","","","","","","","",""
"html-keyboard-response","68","168851","0.0-7.0-0.61","5ed54d02957bee0c0de36cac","64afc2c9a8732ea92db0087d","64aff82e2d61c8c70a078e4d","null","null","<p style=""font-size: 60px; font-family: BACS"">bvkrukbY</p>","","","","","","","",""
"html-keyboard-response","69","169854","0.0-7.0-0.62","5ed54d02957bee0c0de36cac","64afc2c9a8732ea92db0087d","64aff82e2d61c8c70a078e4d","null","null","<p style=""font-size: 60px; font-family: BACS"">hTDdcDR</p>","","","","","","","",""
"html-keyboard-response","70","170857","0.0-7.0-0.63","5ed54d02957bee0c0de36cac","64afc2c9a8732ea92db0087d","64aff82e2d61c8c70a078e4d","null","null","<p style=""font-size: 60px; font-family: BACS"">bGuOukbY</p>","","","","","","","",""
"html-keyboard-response","71","171868","0.0-7.0-0.64","5ed54d02957bee0c0de36cac","64afc2c9a8732ea92db0087d","64aff82e2d61c8c70a078e4d","null","null","<p style=""font-size: 60px; font-family: BACS"">KRARmAPT</p>","","","","","","","",""
"html-keyboard-response","72","172880","0.0-7.0-0.65","5ed54d02957bee0c0de36cac","64afc2c9a8732ea92db0087d","64aff82e2d61c8c70a078e4d","null","null","<p style=""font-size: 60px; font-family: BACS"">BECkbAMO</p>","","","","","","","",""
"html-keyboard-response","73","173885","0.0-7.0-0.66","5ed54d02957bee0c0de36cac","64afc2c9a8732ea92db0087d","64aff82e2d61c8c70a078e4d","null","null","<p style=""font-size: 60px; font-family: BACS"">PYkCKlkD</p>","","","","","","","",""
"html-keyboard-response","74","174898","0.0-7.0-0.67","5ed54d02957bee0c0de36cac","64afc2c9a8732ea92db0087d","64aff82e2d61c8c70a078e4d","null","null","<p style=""font-size: 60px; font-family: BACS"">ZJLmruvJ</p>","","","","","","","",""
"html-keyboard-response","75","175908","0.0-7.0-0.68","5ed54d02957bee0c0de36cac","64afc2c9a8732ea92db0087d","64aff82e2d61c8c70a078e4d","null","null","<p style=""font-size: 60px; font-family: BACS"">PEtEKlkD</p>","","","","","","","",""
"html-keyboard-response","76","176923","0.0-7.0-0.69","5ed54d02957bee0c0de36cac","64afc2c9a8732ea92db0087d","64aff82e2d61c8c70a078e4d","null","null","<p style=""font-size: 60px; font-family: BACS"">YQbcuZc</p>","","","","","","","",""
"html-keyboard-response","77","177936","0.0-7.0-0.70","5ed54d02957bee0c0de36cac","64afc2c9a8732ea92db0087d","64aff82e2d61c8c70a078e4d","null","null","<p style=""font-size: 60px; font-family: BACS"">bAdkcDR</p>","","","","","","","",""
"html-keyboard-response","78","178937","0.0-7.0-0.71","5ed54d02957bee0c0de36cac","64afc2c9a8732ea92db0087d","64aff82e2d61c8c70a078e4d","null","null","<p style=""font-size: 60px; font-family: BACS"">krUQuvJ</p>","","","","","","","",""
"html-keyboard-response","79","179944","0.0-7.0-0.72","5ed54d02957bee0c0de36cac","64afc2c9a8732ea92db0087d","64aff82e2d61c8c70a078e4d","null","null","<p style=""font-size: 60px; font-family: BACS"">bvkrark</p>","","","","","","","",""
"html-keyboard-response","80","180951","0.0-7.0-0.73","5ed54d02957bee0c0de36cac","64afc2c9a8732ea92db0087d","64aff82e2d61c8c70a078e4d","null","null","<p style=""font-size: 60px; font-family: BACS"">ECtbDTmTm</p>","","","","","","","",""
"html-keyboard-response","81","181961","0.0-7.0-0.74","5ed54d02957bee0c0de36cac","64afc2c9a8732ea92db0087d","64aff82e2d61c8c70a078e4d","null","null","<p style=""font-size: 60px; font-family: BACS"">htmhCcDR</p>","","","","","","","",""
"html-keyboard-response","82","182964","0.0-7.0-0.75","5ed54d02957bee0c0de36cac","64afc2c9a8732ea92db0087d","64aff82e2d61c8c70a078e4d","null","null","<p style=""font-size: 60px; font-family: BACS"">GZJYuZc</p>","","","","","","","",""
"html-keyboard-response","83","183965","0.0-7.0-0.76","5ed54d02957bee0c0de36cac","64afc2c9a8732ea92db0087d","64aff82e2d61c8c70a078e4d","null","null","<p style=""font-size: 60px; font-family: BACS"">htmhCTmTm</p>","","","","","","","",""
"html-keyboard-response","84","184972","0.0-7.0-0.77","5ed54d02957bee0c0de36cac","64afc2c9a8732ea92db0087d","64aff82e2d61c8c70a078e4d","null","null","<p style=""font-size: 60px; font-family: BACS"">OYuvbuZc</p>","","","","","","","",""
"html-keyboard-response","85","185982","0.0-7.0-0.78","5ed54d02957bee0c0de36cac","64afc2c9a8732ea92db0087d","64aff82e2d61c8c70a078e4d","null","null","<p style=""font-size: 60px; font-family: BACS"">ZdNmUukbY</p>","","","","","","","",""
"html-keyboard-response","86","186998","0.0-7.0-0.79","5ed54d02957bee0c0de36cac","64afc2c9a8732ea92db0087d","64aff82e2d61c8c70a078e4d","null","null","<p style=""font-size: 60px; font-family: BACS"">OAmAdbAMO</p>","","","","","","","",""
"html-keyboard-response","87","196482","0.0-8.0","5ed54d02957bee0c0de36cac","64afc2c9a8732ea92db0087d","64aff82e2d61c8c70a078e4d","9484"," ","<p>Ottimo, hai visto il primo blocco di parole. Ora puoi prenderti una piccola pausa.</p>
      <p>Premi la barra quando sei pronta/o per riprendere.</p>","","","","","","","",""
"html-keyboard-response","88","197489","0.0-9.0-0.0","5ed54d02957bee0c0de36cac","64afc2c9a8732ea92db0087d","64aff82e2d61c8c70a078e4d","null","null","<p style=""font-size: 60px; font-family: BACS"">PEtEcDR</p>","","","","","","","",""
"html-keyboard-response","89","198501","0.0-9.0-0.1","5ed54d02957bee0c0de36cac","64afc2c9a8732ea92db0087d","64aff82e2d61c8c70a078e4d","null","null","<p style=""font-size: 60px; font-family: BACS"">OAmAdKlkD</p>","","","","","","","",""
"html-keyboard-response","90","199514","0.0-9.0-0.2","5ed54d02957bee0c0de36cac","64afc2c9a8732ea92db0087d","64aff82e2d61c8c70a078e4d","null","null","<p style=""font-size: 60px; font-family: BACS"">ZJLmrark</p>","","","","","","","",""
"html-keyboard-response","91","200529","0.0-9.0-0.3","5ed54d02957bee0c0de36cac","64afc2c9a8732ea92db0087d","64aff82e2d61c8c70a078e4d","null","null","<p style=""font-size: 60px; font-family: BACS"">ECtbDcDR</p>","","","","","","","",""
"html-keyboard-response","92","201534","0.0-9.0-0.4","5ed54d02957bee0c0de36cac","64afc2c9a8732ea92db0087d","64aff82e2d61c8c70a078e4d","null","null","<p style=""font-size: 60px; font-family: BACS"">KRARmKlkD</p>","","","","","","","",""
"html-keyboard-response","93","202544","0.0-9.0-0.5","5ed54d02957bee0c0de36cac","64afc2c9a8732ea92db0087d","64aff82e2d61c8c70a078e4d","null","null","<p style=""font-size: 60px; font-family: BACS"">ObOQlvUdm</p>","","","","","","","",""
"html-keyboard-response","94","203545","0.0-9.0-0.6","5ed54d02957bee0c0de36cac","64afc2c9a8732ea92db0087d","64aff82e2d61c8c70a078e4d","null","null","<p style=""font-size: 60px; font-family: BACS"">bvkruZc</p>","","","","","","","",""
"html-keyboard-response","95","204549","0.0-9.0-0.7","5ed54d02957bee0c0de36cac","64afc2c9a8732ea92db0087d","64aff82e2d61c8c70a078e4d","null","null","<p style=""font-size: 60px; font-family: BACS"">ObOQluvJ</p>","","","","","","","",""
"html-keyboard-response","96","205550","0.0-9.0-0.8","5ed54d02957bee0c0de36cac","64afc2c9a8732ea92db0087d","64aff82e2d61c8c70a078e4d","null","null","<p style=""font-size: 60px; font-family: BACS"">ZJLmrukbY</p>","","","","","","","",""
"html-keyboard-response","97","206567","0.0-9.0-0.9","5ed54d02957bee0c0de36cac","64afc2c9a8732ea92db0087d","64aff82e2d61c8c70a078e4d","null","null","<p style=""font-size: 60px; font-family: BACS"">YQbcvUdm</p>","","","","","","","",""
"html-keyboard-response","98","207576","0.0-9.0-0.10","5ed54d02957bee0c0de36cac","64afc2c9a8732ea92db0087d","64aff82e2d61c8c70a078e4d","null","null","<p style=""font-size: 60px; font-family: BACS"">bGuOuvJ</p>","","","","","","","",""
"html-keyboard-response","99","208586","0.0-9.0-0.11","5ed54d02957bee0c0de36cac","64afc2c9a8732ea92db0087d","64aff82e2d61c8c70a078e4d","null","null","<p style=""font-size: 60px; font-family: BACS"">UdbdvUdm</p>","","","","","","","",""
"html-keyboard-response","100","209599","0.0-9.0-0.12","5ed54d02957bee0c0de36cac","64afc2c9a8732ea92db0087d","64aff82e2d61c8c70a078e4d","null","null","<p style=""font-size: 60px; font-family: BACS"">KRARmbAMO</p>","","","","","","","",""
"html-keyboard-response","101","210599","0.0-9.0-0.13","5ed54d02957bee0c0de36cac","64afc2c9a8732ea92db0087d","64aff82e2d61c8c70a078e4d","null","null","<p style=""font-size: 60px; font-family: BACS"">PEtETmTm</p>","","","","","","","",""
"html-keyboard-response","102","211602","0.0-9.0-0.14","5ed54d02957bee0c0de36cac","64afc2c9a8732ea92db0087d","64aff82e2d61c8c70a078e4d","null","null","<p style=""font-size: 60px; font-family: BACS"">PYkCbAMO</p>","","","","","","","",""
"html-keyboard-response","103","212615","0.0-9.0-0.15","5ed54d02957bee0c0de36cac","64afc2c9a8732ea92db0087d","64aff82e2d61c8c70a078e4d","null","null","<p style=""font-size: 60px; font-family: BACS"">YQbcuZc</p>","","","","","","","",""
"html-keyboard-response","104","213627","0.0-9.0-0.16","5ed54d02957bee0c0de36cac","64afc2c9a8732ea92db0087d","64aff82e2d61c8c70a078e4d","null","null","<p style=""font-size: 60px; font-family: BACS"">BECkAPT</p>","","","","","","","",""
"html-keyboard-response","105","214631","0.0-9.0-0.17","5ed54d02957bee0c0de36cac","64afc2c9a8732ea92db0087d","64aff82e2d61c8c70a078e4d","null","null","<p style=""font-size: 60px; font-family: BACS"">OYuvbukbY</p>","","","","","","","",""
"html-keyboard-response","106","215643","0.0-9.0-0.18","5ed54d02957bee0c0de36cac","64afc2c9a8732ea92db0087d","64aff82e2d61c8c70a078e4d","null","null","<p style=""font-size: 60px; font-family: BACS"">bGuOark</p>","","","","","","","",""
"html-keyboard-response","107","216646","0.0-9.0-0.19","5ed54d02957bee0c0de36cac","64afc2c9a8732ea92db0087d","64aff82e2d61c8c70a078e4d","null","null","<p style=""font-size: 60px; font-family: BACS"">htmhCTmTm</p>","","","","","","","",""
"html-keyboard-response","108","217647","0.0-9.0-0.20","5ed54d02957bee0c0de36cac","64afc2c9a8732ea92db0087d","64aff82e2d61c8c70a078e4d","null","null","<p style=""font-size: 60px; font-family: BACS"">hTDdKlkD</p>","","","","","","","",""
"html-keyboard-response","109","218649","0.0-9.0-0.21","5ed54d02957bee0c0de36cac","64afc2c9a8732ea92db0087d","64aff82e2d61c8c70a078e4d","null","null","<p style=""font-size: 60px; font-family: BACS"">htmhCcDR</p>","","","","","","","",""
"html-keyboard-response","110","219659","0.0-9.0-0.22","5ed54d02957bee0c0de36cac","64afc2c9a8732ea92db0087d","64aff82e2d61c8c70a078e4d","null","null","<p style=""font-size: 60px; font-family: BACS"">UdbduZc</p>","","","","","","","",""
"html-keyboard-response","111","220667","0.0-9.0-0.23","5ed54d02957bee0c0de36cac","64afc2c9a8732ea92db0087d","64aff82e2d61c8c70a078e4d","null","null","<p style=""font-size: 60px; font-family: BACS"">YQbcukbY</p>","","","","","","","",""
"html-keyboard-response","112","221676","0.0-9.0-0.24","5ed54d02957bee0c0de36cac","64afc2c9a8732ea92db0087d","64aff82e2d61c8c70a078e4d","null","null","<p style=""font-size: 60px; font-family: BACS"">BECkTmTm</p>","","","","","","","",""
"html-keyboard-response","113","222677","0.0-9.0-0.25","5ed54d02957bee0c0de36cac","64afc2c9a8732ea92db0087d","64aff82e2d61c8c70a078e4d","null","null","<p style=""font-size: 60px; font-family: BACS"">krUQuvJ</p>","","","","","","","",""
"html-keyboard-response","114","223678","0.0-9.0-0.26","5ed54d02957bee0c0de36cac","64afc2c9a8732ea92db0087d","64aff82e2d61c8c70a078e4d","null","null","<p style=""font-size: 60px; font-family: BACS"">htmhCAPT</p>","","","","","","","",""
"html-keyboard-response","115","224683","0.0-9.0-0.27","5ed54d02957bee0c0de36cac","64afc2c9a8732ea92db0087d","64aff82e2d61c8c70a078e4d","null","null","<p style=""font-size: 60px; font-family: BACS"">UdbduvJ</p>","","","","","","","",""
"html-keyboard-response","116","225695","0.0-9.0-0.28","5ed54d02957bee0c0de36cac","64afc2c9a8732ea92db0087d","64aff82e2d61c8c70a078e4d","null","null","<p style=""font-size: 60px; font-family: BACS"">ObOQlark</p>","","","","","","","",""
"html-keyboard-response","117","226701","0.0-9.0-0.29","5ed54d02957bee0c0de36cac","64afc2c9a8732ea92db0087d","64aff82e2d61c8c70a078e4d","null","null","<p style=""font-size: 60px; font-family: BACS"">ZdNmUukbY</p>","","","","","","","",""
"html-keyboard-response","118","227708","0.0-9.0-0.30","5ed54d02957bee0c0de36cac","64afc2c9a8732ea92db0087d","64aff82e2d61c8c70a078e4d","null","null","<p style=""font-size: 60px; font-family: BACS"">OAmAdAPT</p>","","","","","","","",""
"html-keyboard-response","119","228709","0.0-9.0-0.31","5ed54d02957bee0c0de36cac","64afc2c9a8732ea92db0087d","64aff82e2d61c8c70a078e4d","null","null","<p style=""font-size: 60px; font-family: BACS"">PYkCTmTm</p>","","","","","","","",""
"html-keyboard-response","120","229723","0.0-9.0-0.32","5ed54d02957bee0c0de36cac","64afc2c9a8732ea92db0087d","64aff82e2d61c8c70a078e4d","null","null","<p style=""font-size: 60px; font-family: BACS"">GZJYvUdm</p>","","","","","","","",""
"html-keyboard-response","121","230726","0.0-9.0-0.33","5ed54d02957bee0c0de36cac","64afc2c9a8732ea92db0087d","64aff82e2d61c8c70a078e4d","null","null","<p style=""font-size: 60px; font-family: BACS"">kKRCAPT</p>","","","","","","","",""
"html-keyboard-response","122","231736","0.0-9.0-0.34","5ed54d02957bee0c0de36cac","64afc2c9a8732ea92db0087d","64aff82e2d61c8c70a078e4d","null","null","<p style=""font-size: 60px; font-family: BACS"">YQbcark</p>","","","","","","","",""
"html-keyboard-response","123","232743","0.0-9.0-0.35","5ed54d02957bee0c0de36cac","64afc2c9a8732ea92db0087d","64aff82e2d61c8c70a078e4d","null","null","<p style=""font-size: 60px; font-family: BACS"">krUQuZc</p>","","","","","","","",""
"html-keyboard-response","124","233750","0.0-9.0-0.36","5ed54d02957bee0c0de36cac","64afc2c9a8732ea92db0087d","64aff82e2d61c8c70a078e4d","null","null","<p style=""font-size: 60px; font-family: BACS"">bvkruvJ</p>","","","","","","","",""
"html-keyboard-response","125","234766","0.0-9.0-0.37","5ed54d02957bee0c0de36cac","64afc2c9a8732ea92db0087d","64aff82e2d61c8c70a078e4d","null","null","<p style=""font-size: 60px; font-family: BACS"">PYkCAPT</p>","","","","","","","",""
"html-keyboard-response","126","235769","0.0-9.0-0.38","5ed54d02957bee0c0de36cac","64afc2c9a8732ea92db0087d","64aff82e2d61c8c70a078e4d","null","null","<p style=""font-size: 60px; font-family: BACS"">KRARmTmTm</p>","","","","","","","",""
"html-keyboard-response","127","236779","0.0-9.0-0.39","5ed54d02957bee0c0de36cac","64afc2c9a8732ea92db0087d","64aff82e2d61c8c70a078e4d","null","null","<p style=""font-size: 60px; font-family: BACS"">bvkrark</p>","","","","","","","",""
"html-keyboard-response","128","237788","0.0-9.0-0.40","5ed54d02957bee0c0de36cac","64afc2c9a8732ea92db0087d","64aff82e2d61c8c70a078e4d","null","null","<p style=""font-size: 60px; font-family: BACS"">bAdkbAMO</p>","","","","","","","",""
"html-keyboard-response","129","238801","0.0-9.0-0.41","5ed54d02957bee0c0de36cac","64afc2c9a8732ea92db0087d","64aff82e2d61c8c70a078e4d","null","null","<p style=""font-size: 60px; font-family: BACS"">bGuOvUdm</p>","","","","","","","",""
"html-keyboard-response","130","239812","0.0-9.0-0.42","5ed54d02957bee0c0de36cac","64afc2c9a8732ea92db0087d","64aff82e2d61c8c70a078e4d","null","null","<p style=""font-size: 60px; font-family: BACS"">OYuvbuZc</p>","","","","","","","",""
"html-keyboard-response","131","240819","0.0-9.0-0.43","5ed54d02957bee0c0de36cac","64afc2c9a8732ea92db0087d","64aff82e2d61c8c70a078e4d","null","null","<p style=""font-size: 60px; font-family: BACS"">bGuOukbY</p>","","","","","","","",""
"html-keyboard-response","132","241833","0.0-9.0-0.44","5ed54d02957bee0c0de36cac","64afc2c9a8732ea92db0087d","64aff82e2d61c8c70a078e4d","null","null","<p style=""font-size: 60px; font-family: BACS"">kKRCbAMO</p>","","","","","","","",""
"html-keyboard-response","133","242843","0.0-9.0-0.45","5ed54d02957bee0c0de36cac","64afc2c9a8732ea92db0087d","64aff82e2d61c8c70a078e4d","null","null","<p style=""font-size: 60px; font-family: BACS"">Udbdark</p>","","","","","","","",""
"html-keyboard-response","134","243849","0.0-9.0-0.46","5ed54d02957bee0c0de36cac","64afc2c9a8732ea92db0087d","64aff82e2d61c8c70a078e4d","null","null","<p style=""font-size: 60px; font-family: BACS"">PEtEbAMO</p>","","","","","","","",""
"html-keyboard-response","135","244849","0.0-9.0-0.47","5ed54d02957bee0c0de36cac","64afc2c9a8732ea92db0087d","64aff82e2d61c8c70a078e4d","null","null","<p style=""font-size: 60px; font-family: BACS"">bAdkcDR</p>","","","","","","","",""
"html-keyboard-response","136","245860","0.0-9.0-0.48","5ed54d02957bee0c0de36cac","64afc2c9a8732ea92db0087d","64aff82e2d61c8c70a078e4d","null","null","<p style=""font-size: 60px; font-family: BACS"">KRARmAPT</p>","","","","","","","",""
"html-keyboard-response","137","246868","0.0-9.0-0.49","5ed54d02957bee0c0de36cac","64afc2c9a8732ea92db0087d","64aff82e2d61c8c70a078e4d","null","null","<p style=""font-size: 60px; font-family: BACS"">ZdNmUuvJ</p>","","","","","","","",""
"html-keyboard-response","138","247880","0.0-9.0-0.50","5ed54d02957bee0c0de36cac","64afc2c9a8732ea92db0087d","64aff82e2d61c8c70a078e4d","null","null","<p style=""font-size: 60px; font-family: BACS"">bAdkAPT</p>","","","","","","","",""
"html-keyboard-response","139","248888","0.0-9.0-0.51","5ed54d02957bee0c0de36cac","64afc2c9a8732ea92db0087d","64aff82e2d61c8c70a078e4d","null","null","<p style=""font-size: 60px; font-family: BACS"">ZdNmUvUdm</p>","","","","","","","",""
"html-keyboard-response","140","249894","0.0-9.0-0.52","5ed54d02957bee0c0de36cac","64afc2c9a8732ea92db0087d","64aff82e2d61c8c70a078e4d","null","null","<p style=""font-size: 60px; font-family: BACS"">bvkrukbY</p>","","","","","","","",""
"html-keyboard-response","141","250904","0.0-9.0-0.53","5ed54d02957bee0c0de36cac","64afc2c9a8732ea92db0087d","64aff82e2d61c8c70a078e4d","null","null","<p style=""font-size: 60px; font-family: BACS"">PYkCKlkD</p>","","","","","","","",""
"html-keyboard-response","142","251909","0.0-9.0-0.54","5ed54d02957bee0c0de36cac","64afc2c9a8732ea92db0087d","64aff82e2d61c8c70a078e4d","null","null","<p style=""font-size: 60px; font-family: BACS"">OAmAdbAMO</p>","","","","","","","",""
"html-keyboard-response","143","252921","0.0-9.0-0.55","5ed54d02957bee0c0de36cac","64afc2c9a8732ea92db0087d","64aff82e2d61c8c70a078e4d","null","null","<p style=""font-size: 60px; font-family: BACS"">GZJYuZc</p>","","","","","","","",""
"html-keyboard-response","144","253933","0.0-9.0-0.56","5ed54d02957bee0c0de36cac","64afc2c9a8732ea92db0087d","64aff82e2d61c8c70a078e4d","null","null","<p style=""font-size: 60px; font-family: BACS"">OAmAdcDR</p>","","","","","","","",""
"html-keyboard-response","145","254943","0.0-9.0-0.57","5ed54d02957bee0c0de36cac","64afc2c9a8732ea92db0087d","64aff82e2d61c8c70a078e4d","null","null","<p style=""font-size: 60px; font-family: BACS"">ZJLmruZc</p>","","","","","","","",""
"html-keyboard-response","146","255957","0.0-9.0-0.58","5ed54d02957bee0c0de36cac","64afc2c9a8732ea92db0087d","64aff82e2d61c8c70a078e4d","null","null","<p style=""font-size: 60px; font-family: BACS"">krUQvUdm</p>","","","","","","","",""
"html-keyboard-response","147","256962","0.0-9.0-0.59","5ed54d02957bee0c0de36cac","64afc2c9a8732ea92db0087d","64aff82e2d61c8c70a078e4d","null","null","<p style=""font-size: 60px; font-family: BACS"">PEtEKlkD</p>","","","","","","","",""
"html-keyboard-response","148","257963","0.0-9.0-0.60","5ed54d02957bee0c0de36cac","64afc2c9a8732ea92db0087d","64aff82e2d61c8c70a078e4d","null","null","<p style=""font-size: 60px; font-family: BACS"">BECkcDR</p>","","","","","","","",""
"html-keyboard-response","149","258963","0.0-9.0-0.61","5ed54d02957bee0c0de36cac","64afc2c9a8732ea92db0087d","64aff82e2d61c8c70a078e4d","null","null","<p style=""font-size: 60px; font-family: BACS"">ObOQlukbY</p>","","","","","","","",""
"html-keyboard-response","150","259971","0.0-9.0-0.62","5ed54d02957bee0c0de36cac","64afc2c9a8732ea92db0087d","64aff82e2d61c8c70a078e4d","null","null","<p style=""font-size: 60px; font-family: BACS"">ECtbDbAMO</p>","","","","","","","",""
"html-keyboard-response","151","260980","0.0-9.0-0.63","5ed54d02957bee0c0de36cac","64afc2c9a8732ea92db0087d","64aff82e2d61c8c70a078e4d","null","null","<p style=""font-size: 60px; font-family: BACS"">bAdkTmTm</p>","","","","","","","",""
"html-keyboard-response","152","261991","0.0-9.0-0.64","5ed54d02957bee0c0de36cac","64afc2c9a8732ea92db0087d","64aff82e2d61c8c70a078e4d","null","null","<p style=""font-size: 60px; font-family: BACS"">GZJYark</p>","","","","","","","",""
"html-keyboard-response","153","263000","0.0-9.0-0.65","5ed54d02957bee0c0de36cac","64afc2c9a8732ea92db0087d","64aff82e2d61c8c70a078e4d","null","null","<p style=""font-size: 60px; font-family: BACS"">OYuvbvUdm</p>","","","","","","","",""
"html-keyboard-response","154","264001","0.0-9.0-0.66","5ed54d02957bee0c0de36cac","64afc2c9a8732ea92db0087d","64aff82e2d61c8c70a078e4d","null","null","<p style=""font-size: 60px; font-family: BACS"">hTDdTmTm</p>","","","","","","","",""
"html-keyboard-response","155","265007","0.0-9.0-0.67","5ed54d02957bee0c0de36cac","64afc2c9a8732ea92db0087d","64aff82e2d61c8c70a078e4d","null","null","<p style=""font-size: 60px; font-family: BACS"">OYuvbuvJ</p>","","","","","","","",""
"html-keyboard-response","156","266019","0.0-9.0-0.68","5ed54d02957bee0c0de36cac","64afc2c9a8732ea92db0087d","64aff82e2d61c8c70a078e4d","null","null","<p style=""font-size: 60px; font-family: BACS"">htmhCKlkD</p>","","","","","","","",""
"html-keyboard-response","157","267028","0.0-9.0-0.69","5ed54d02957bee0c0de36cac","64afc2c9a8732ea92db0087d","64aff82e2d61c8c70a078e4d","null","null","<p style=""font-size: 60px; font-family: BACS"">kKRCcDR</p>","","","","","","","",""
"html-keyboard-response","158","268031","0.0-9.0-0.70","5ed54d02957bee0c0de36cac","64afc2c9a8732ea92db0087d","64aff82e2d61c8c70a078e4d","null","null","<p style=""font-size: 60px; font-family: BACS"">krUQark</p>","","","","","","","",""
"html-keyboard-response","159","269044","0.0-9.0-0.71","5ed54d02957bee0c0de36cac","64afc2c9a8732ea92db0087d","64aff82e2d61c8c70a078e4d","null","null","<p style=""font-size: 60px; font-family: BACS"">ECtbDKlkD</p>","","","","","","","",""
"html-keyboard-response","160","270053","0.0-9.0-0.72","5ed54d02957bee0c0de36cac","64afc2c9a8732ea92db0087d","64aff82e2d61c8c70a078e4d","null","null","<p style=""font-size: 60px; font-family: BACS"">BECkbAMO</p>","","","","","","","",""
"html-keyboard-response","161","271065","0.0-9.0-0.73","5ed54d02957bee0c0de36cac","64afc2c9a8732ea92db0087d","64aff82e2d61c8c70a078e4d","null","null","<p style=""font-size: 60px; font-family: BACS"">kKRCKlkD</p>","","","","","","","",""
"html-keyboard-response","162","272074","0.0-9.0-0.74","5ed54d02957bee0c0de36cac","64afc2c9a8732ea92db0087d","64aff82e2d61c8c70a078e4d","null","null","<p style=""font-size: 60px; font-family: BACS"">hTDdAPT</p>","","","","","","","",""
"html-keyboard-response","163","273080","0.0-9.0-0.75","5ed54d02957bee0c0de36cac","64afc2c9a8732ea92db0087d","64aff82e2d61c8c70a078e4d","null","null","<p style=""font-size: 60px; font-family: BACS"">ECtbDTmTm</p>","","","","","","","",""
"html-keyboard-response","164","274089","0.0-9.0-0.76","5ed54d02957bee0c0de36cac","64afc2c9a8732ea92db0087d","64aff82e2d61c8c70a078e4d","null","null","<p style=""font-size: 60px; font-family: BACS"">GZJYukbY</p>","","","","","","","",""
"html-keyboard-response","165","275104","0.0-9.0-0.77","5ed54d02957bee0c0de36cac","64afc2c9a8732ea92db0087d","64aff82e2d61c8c70a078e4d","null","null","<p style=""font-size: 60px; font-family: BACS"">hTDdcDR</p>","","","","","","","",""
"html-keyboard-response","166","276114","0.0-9.0-0.78","5ed54d02957bee0c0de36cac","64afc2c9a8732ea92db0087d","64aff82e2d61c8c70a078e4d","null","null","<p style=""font-size: 60px; font-family: BACS"">ZdNmUuZc</p>","","","","","","","",""
"html-keyboard-response","167","277122","0.0-9.0-0.79","5ed54d02957bee0c0de36cac","64afc2c9a8732ea92db0087d","64aff82e2d61c8c70a078e4d","null","null","<p style=""font-size: 60px; font-family: BACS"">ZJLmruvJ</p>","","","","","","","",""
"html-keyboard-response","168","283791","0.0-10.0","5ed54d02957bee0c0de36cac","64afc2c9a8732ea92db0087d","64aff82e2d61c8c70a078e4d","6669"," ","<p>Ottimo, hai visto il secondo blocco di parole. Ora puoi prenderti una piccola pausa.</p>
      <p>Premi la barra quando sei pronta/o per riprendere.</p>","","","","","","","",""
"html-keyboard-response","169","284793","0.0-11.0-0.0","5ed54d02957bee0c0de36cac","64afc2c9a8732ea92db0087d","64aff82e2d61c8c70a078e4d","null","null","<p style=""font-size: 60px; font-family: BACS"">PEtEKlkD</p>","","","","","","","",""
"html-keyboard-response","170","285805","0.0-11.0-0.1","5ed54d02957bee0c0de36cac","64afc2c9a8732ea92db0087d","64aff82e2d61c8c70a078e4d","null","null","<p style=""font-size: 60px; font-family: BACS"">bvkrukbY</p>","","","","","","","",""
"html-keyboard-response","171","286806","0.0-11.0-0.2","5ed54d02957bee0c0de36cac","64afc2c9a8732ea92db0087d","64aff82e2d61c8c70a078e4d","null","null","<p style=""font-size: 60px; font-family: BACS"">bGuOvUdm</p>","","","","","","","",""
"html-keyboard-response","172","287808","0.0-11.0-0.3","5ed54d02957bee0c0de36cac","64afc2c9a8732ea92db0087d","64aff82e2d61c8c70a078e4d","null","null","<p style=""font-size: 60px; font-family: BACS"">bAdkcDR</p>","","","","","","","",""
"html-keyboard-response","173","288822","0.0-11.0-0.4","5ed54d02957bee0c0de36cac","64afc2c9a8732ea92db0087d","64aff82e2d61c8c70a078e4d","null","null","<p style=""font-size: 60px; font-family: BACS"">ZdNmUuvJ</p>","","","","","","","",""
"html-keyboard-response","174","289828","0.0-11.0-0.5","5ed54d02957bee0c0de36cac","64afc2c9a8732ea92db0087d","64aff82e2d61c8c70a078e4d","null","null","<p style=""font-size: 60px; font-family: BACS"">bGuOark</p>","","","","","","","",""
"html-keyboard-response","175","290829","0.0-11.0-0.6","5ed54d02957bee0c0de36cac","64afc2c9a8732ea92db0087d","64aff82e2d61c8c70a078e4d","null","null","<p style=""font-size: 60px; font-family: BACS"">kKRCbAMO</p>","","","","","","","",""
"html-keyboard-response","176","291830","0.0-11.0-0.7","5ed54d02957bee0c0de36cac","64afc2c9a8732ea92db0087d","64aff82e2d61c8c70a078e4d","null","null","<p style=""font-size: 60px; font-family: BACS"">ECtbDKlkD</p>","","","","","","","",""
"html-keyboard-response","177","292838","0.0-11.0-0.8","5ed54d02957bee0c0de36cac","64afc2c9a8732ea92db0087d","64aff82e2d61c8c70a078e4d","null","null","<p style=""font-size: 60px; font-family: BACS"">ObOQlukbY</p>","","","","","","","",""
"html-keyboard-response","178","293849","0.0-11.0-0.9","5ed54d02957bee0c0de36cac","64afc2c9a8732ea92db0087d","64aff82e2d61c8c70a078e4d","null","null","<p style=""font-size: 60px; font-family: BACS"">kKRCAPT</p>","","","","","","","",""
"html-keyboard-response","179","294856","0.0-11.0-0.10","5ed54d02957bee0c0de36cac","64afc2c9a8732ea92db0087d","64aff82e2d61c8c70a078e4d","null","null","<p style=""font-size: 60px; font-family: BACS"">ECtbDcDR</p>","","","","","","","",""
"html-keyboard-response","180","295864","0.0-11.0-0.11","5ed54d02957bee0c0de36cac","64afc2c9a8732ea92db0087d","64aff82e2d61c8c70a078e4d","null","null","<p style=""font-size: 60px; font-family: BACS"">ObOQlvUdm</p>","","","","","","","",""
"html-keyboard-response","181","296871","0.0-11.0-0.12","5ed54d02957bee0c0de36cac","64afc2c9a8732ea92db0087d","64aff82e2d61c8c70a078e4d","null","null","<p style=""font-size: 60px; font-family: BACS"">OYuvbuvJ</p>","","","","","","","",""
"html-keyboard-response","182","297884","0.0-11.0-0.13","5ed54d02957bee0c0de36cac","64afc2c9a8732ea92db0087d","64aff82e2d61c8c70a078e4d","null","null","<p style=""font-size: 60px; font-family: BACS"">PYkCbAMO</p>","","","","","","","",""
"html-keyboard-response","183","298889","0.0-11.0-0.14","5ed54d02957bee0c0de36cac","64afc2c9a8732ea92db0087d","64aff82e2d61c8c70a078e4d","null","null","<p style=""font-size: 60px; font-family: BACS"">ZdNmUvUdm</p>","","","","","","","",""
"html-keyboard-response","184","299892","0.0-11.0-0.15","5ed54d02957bee0c0de36cac","64afc2c9a8732ea92db0087d","64aff82e2d61c8c70a078e4d","null","null","<p style=""font-size: 60px; font-family: BACS"">bAdkbAMO</p>","","","","","","","",""
"html-keyboard-response","185","300899","0.0-11.0-0.16","5ed54d02957bee0c0de36cac","64afc2c9a8732ea92db0087d","64aff82e2d61c8c70a078e4d","null","null","<p style=""font-size: 60px; font-family: BACS"">ZdNmUuZc</p>","","","","","","","",""
"html-keyboard-response","186","301900","0.0-11.0-0.17","5ed54d02957bee0c0de36cac","64afc2c9a8732ea92db0087d","64aff82e2d61c8c70a078e4d","null","null","<p style=""font-size: 60px; font-family: BACS"">GZJYukbY</p>","","","","","","","",""
"html-keyboard-response","187","302902","0.0-11.0-0.18","5ed54d02957bee0c0de36cac","64afc2c9a8732ea92db0087d","64aff82e2d61c8c70a078e4d","null","null","<p style=""font-size: 60px; font-family: BACS"">UdbdvUdm</p>","","","","","","","",""
"html-keyboard-response","188","303918","0.0-11.0-0.19","5ed54d02957bee0c0de36cac","64afc2c9a8732ea92db0087d","64aff82e2d61c8c70a078e4d","null","null","<p style=""font-size: 60px; font-family: BACS"">OYuvbukbY</p>","","","","","","","",""
"html-keyboard-response","189","304919","0.0-11.0-0.20","5ed54d02957bee0c0de36cac","64afc2c9a8732ea92db0087d","64aff82e2d61c8c70a078e4d","null","null","<p style=""font-size: 60px; font-family: BACS"">bAdkTmTm</p>","","","","","","","",""
"html-keyboard-response","190","305930","0.0-11.0-0.21","5ed54d02957bee0c0de36cac","64afc2c9a8732ea92db0087d","64aff82e2d61c8c70a078e4d","null","null","<p style=""font-size: 60px; font-family: BACS"">htmhCKlkD</p>","","","","","","","",""
"html-keyboard-response","191","306934","0.0-11.0-0.22","5ed54d02957bee0c0de36cac","64afc2c9a8732ea92db0087d","64aff82e2d61c8c70a078e4d","null","null","<p style=""font-size: 60px; font-family: BACS"">PEtEbAMO</p>","","","","","","","",""
"html-keyboard-response","192","307939","0.0-11.0-0.23","5ed54d02957bee0c0de36cac","64afc2c9a8732ea92db0087d","64aff82e2d61c8c70a078e4d","null","null","<p style=""font-size: 60px; font-family: BACS"">OYuvbvUdm</p>","","","","","","","",""
"html-keyboard-response","193","308940","0.0-11.0-0.24","5ed54d02957bee0c0de36cac","64afc2c9a8732ea92db0087d","64aff82e2d61c8c70a078e4d","null","null","<p style=""font-size: 60px; font-family: BACS"">krUQuvJ</p>","","","","","","","",""
"html-keyboard-response","194","309952","0.0-11.0-0.25","5ed54d02957bee0c0de36cac","64afc2c9a8732ea92db0087d","64aff82e2d61c8c70a078e4d","null","null","<p style=""font-size: 60px; font-family: BACS"">BECkTmTm</p>","","","","","","","",""
"html-keyboard-response","195","310962","0.0-11.0-0.26","5ed54d02957bee0c0de36cac","64afc2c9a8732ea92db0087d","64aff82e2d61c8c70a078e4d","null","null","<p style=""font-size: 60px; font-family: BACS"">GZJYuZc</p>","","","","","","","",""
"html-keyboard-response","196","311974","0.0-11.0-0.27","5ed54d02957bee0c0de36cac","64afc2c9a8732ea92db0087d","64aff82e2d61c8c70a078e4d","null","null","<p style=""font-size: 60px; font-family: BACS"">PEtETmTm</p>","","","","","","","",""
"html-keyboard-response","197","312977","0.0-11.0-0.28","5ed54d02957bee0c0de36cac","64afc2c9a8732ea92db0087d","64aff82e2d61c8c70a078e4d","null","null","<p style=""font-size: 60px; font-family: BACS"">ZJLmruvJ</p>","","","","","","","",""
"html-keyboard-response","198","313988","0.0-11.0-0.29","5ed54d02957bee0c0de36cac","64afc2c9a8732ea92db0087d","64aff82e2d61c8c70a078e4d","null","null","<p style=""font-size: 60px; font-family: BACS"">YQbcark</p>","","","","","","","",""
"html-keyboard-response","199","314993","0.0-11.0-0.30","5ed54d02957bee0c0de36cac","64afc2c9a8732ea92db0087d","64aff82e2d61c8c70a078e4d","null","null","<p style=""font-size: 60px; font-family: BACS"">ZJLmruZc</p>","","","","","","","",""
"html-keyboard-response","200","315999","0.0-11.0-0.31","5ed54d02957bee0c0de36cac","64afc2c9a8732ea92db0087d","64aff82e2d61c8c70a078e4d","null","null","<p style=""font-size: 60px; font-family: BACS"">KRARmAPT</p>","","","","","","","",""
"html-keyboard-response","201","317003","0.0-11.0-0.32","5ed54d02957bee0c0de36cac","64afc2c9a8732ea92db0087d","64aff82e2d61c8c70a078e4d","null","null","<p style=""font-size: 60px; font-family: BACS"">bGuOuvJ</p>","","","","","","","",""
"html-keyboard-response","202","318012","0.0-11.0-0.33","5ed54d02957bee0c0de36cac","64afc2c9a8732ea92db0087d","64aff82e2d61c8c70a078e4d","null","null","<p style=""font-size: 60px; font-family: BACS"">ZJLmrukbY</p>","","","","","","","",""
"html-keyboard-response","203","319015","0.0-11.0-0.34","5ed54d02957bee0c0de36cac","64afc2c9a8732ea92db0087d","64aff82e2d61c8c70a078e4d","null","null","<p style=""font-size: 60px; font-family: BACS"">hTDdTmTm</p>","","","","","","","",""
"html-keyboard-response","204","320027","0.0-11.0-0.35","5ed54d02957bee0c0de36cac","64afc2c9a8732ea92db0087d","64aff82e2d61c8c70a078e4d","null","null","<p style=""font-size: 60px; font-family: BACS"">OAmAdbAMO</p>","","","","","","","",""
"html-keyboard-response","205","321035","0.0-11.0-0.36","5ed54d02957bee0c0de36cac","64afc2c9a8732ea92db0087d","64aff82e2d61c8c70a078e4d","null","null","<p style=""font-size: 60px; font-family: BACS"">ECtbDTmTm</p>","","","","","","","",""
"html-keyboard-response","206","322037","0.0-11.0-0.37","5ed54d02957bee0c0de36cac","64afc2c9a8732ea92db0087d","64aff82e2d61c8c70a078e4d","null","null","<p style=""font-size: 60px; font-family: BACS"">OAmAdKlkD</p>","","","","","","","",""
"html-keyboard-response","207","323040","0.0-11.0-0.38","5ed54d02957bee0c0de36cac","64afc2c9a8732ea92db0087d","64aff82e2d61c8c70a078e4d","null","null","<p style=""font-size: 60px; font-family: BACS"">GZJYark</p>","","","","","","","",""
"html-keyboard-response","208","324044","0.0-11.0-0.39","5ed54d02957bee0c0de36cac","64afc2c9a8732ea92db0087d","64aff82e2d61c8c70a078e4d","null","null","<p style=""font-size: 60px; font-family: BACS"">UdbduZc</p>","","","","","","","",""
"html-keyboard-response","209","325051","0.0-11.0-0.40","5ed54d02957bee0c0de36cac","64afc2c9a8732ea92db0087d","64aff82e2d61c8c70a078e4d","null","null","<p style=""font-size: 60px; font-family: BACS"">KRARmTmTm</p>","","","","","","","",""
"html-keyboard-response","210","326051","0.0-11.0-0.41","5ed54d02957bee0c0de36cac","64afc2c9a8732ea92db0087d","64aff82e2d61c8c70a078e4d","null","null","<p style=""font-size: 60px; font-family: BACS"">bvkruZc</p>","","","","","","","",""
"html-keyboard-response","211","327063","0.0-11.0-0.42","5ed54d02957bee0c0de36cac","64afc2c9a8732ea92db0087d","64aff82e2d61c8c70a078e4d","null","null","<p style=""font-size: 60px; font-family: BACS"">YQbcvUdm</p>","","","","","","","",""
"html-keyboard-response","212","328072","0.0-11.0-0.43","5ed54d02957bee0c0de36cac","64afc2c9a8732ea92db0087d","64aff82e2d61c8c70a078e4d","null","null","<p style=""font-size: 60px; font-family: BACS"">UdbduvJ</p>","","","","","","","",""
"html-keyboard-response","213","329081","0.0-11.0-0.44","5ed54d02957bee0c0de36cac","64afc2c9a8732ea92db0087d","64aff82e2d61c8c70a078e4d","null","null","<p style=""font-size: 60px; font-family: BACS"">krUQvUdm</p>","","","","","","","",""
"html-keyboard-response","214","330096","0.0-11.0-0.45","5ed54d02957bee0c0de36cac","64afc2c9a8732ea92db0087d","64aff82e2d61c8c70a078e4d","null","null","<p style=""font-size: 60px; font-family: BACS"">kKRCKlkD</p>","","","","","","","",""
"html-keyboard-response","215","331102","0.0-11.0-0.46","5ed54d02957bee0c0de36cac","64afc2c9a8732ea92db0087d","64aff82e2d61c8c70a078e4d","null","null","<p style=""font-size: 60px; font-family: BACS"">KRARmbAMO</p>","","","","","","","",""
"html-keyboard-response","216","332105","0.0-11.0-0.47","5ed54d02957bee0c0de36cac","64afc2c9a8732ea92db0087d","64aff82e2d61c8c70a078e4d","null","null","<p style=""font-size: 60px; font-family: BACS"">bGuOukbY</p>","","","","","","","",""
"html-keyboard-response","217","333112","0.0-11.0-0.48","5ed54d02957bee0c0de36cac","64afc2c9a8732ea92db0087d","64aff82e2d61c8c70a078e4d","null","null","<p style=""font-size: 60px; font-family: BACS"">PYkCKlkD</p>","","","","","","","",""
"html-keyboard-response","218","334119","0.0-11.0-0.49","5ed54d02957bee0c0de36cac","64afc2c9a8732ea92db0087d","64aff82e2d61c8c70a078e4d","null","null","<p style=""font-size: 60px; font-family: BACS"">YQbcukbY</p>","","","","","","","",""
"html-keyboard-response","219","335136","0.0-11.0-0.50","5ed54d02957bee0c0de36cac","64afc2c9a8732ea92db0087d","64aff82e2d61c8c70a078e4d","null","null","<p style=""font-size: 60px; font-family: BACS"">ObOQlark</p>","","","","","","","",""
"html-keyboard-response","220","336152","0.0-11.0-0.51","5ed54d02957bee0c0de36cac","64afc2c9a8732ea92db0087d","64aff82e2d61c8c70a078e4d","null","null","<p style=""font-size: 60px; font-family: BACS"">ECtbDbAMO</p>","","","","","","","",""
"html-keyboard-response","221","337165","0.0-11.0-0.52","5ed54d02957bee0c0de36cac","64afc2c9a8732ea92db0087d","64aff82e2d61c8c70a078e4d","null","null","<p style=""font-size: 60px; font-family: BACS"">krUQark</p>","","","","","","","",""
"html-keyboard-response","222","338180","0.0-11.0-0.53","5ed54d02957bee0c0de36cac","64afc2c9a8732ea92db0087d","64aff82e2d61c8c70a078e4d","null","null","<p style=""font-size: 60px; font-family: BACS"">OAmAdAPT</p>","","","","","","","",""
"html-keyboard-response","223","339181","0.0-11.0-0.54","5ed54d02957bee0c0de36cac","64afc2c9a8732ea92db0087d","64aff82e2d61c8c70a078e4d","null","null","<p style=""font-size: 60px; font-family: BACS"">htmhCcDR</p>","","","","","","","",""
"html-keyboard-response","224","340183","0.0-11.0-0.55","5ed54d02957bee0c0de36cac","64afc2c9a8732ea92db0087d","64aff82e2d61c8c70a078e4d","null","null","<p style=""font-size: 60px; font-family: BACS"">GZJYvUdm</p>","","","","","","","",""
"html-keyboard-response","225","341183","0.0-11.0-0.56","5ed54d02957bee0c0de36cac","64afc2c9a8732ea92db0087d","64aff82e2d61c8c70a078e4d","null","null","<p style=""font-size: 60px; font-family: BACS"">PYkCAPT</p>","","","","","","","",""
"html-keyboard-response","226","342199","0.0-11.0-0.57","5ed54d02957bee0c0de36cac","64afc2c9a8732ea92db0087d","64aff82e2d61c8c70a078e4d","null","null","<p style=""font-size: 60px; font-family: BACS"">ZdNmUukbY</p>","","","","","","","",""
"html-keyboard-response","227","343207","0.0-11.0-0.58","5ed54d02957bee0c0de36cac","64afc2c9a8732ea92db0087d","64aff82e2d61c8c70a078e4d","null","null","<p style=""font-size: 60px; font-family: BACS"">bvkrark</p>","","","","","","","",""
"html-keyboard-response","228","344208","0.0-11.0-0.59","5ed54d02957bee0c0de36cac","64afc2c9a8732ea92db0087d","64aff82e2d61c8c70a078e4d","null","null","<p style=""font-size: 60px; font-family: BACS"">ObOQluvJ</p>","","","","","","","",""
"html-keyboard-response","229","345210","0.0-11.0-0.60","5ed54d02957bee0c0de36cac","64afc2c9a8732ea92db0087d","64aff82e2d61c8c70a078e4d","null","null","<p style=""font-size: 60px; font-family: BACS"">YQbcuZc</p>","","","","","","","",""
"html-keyboard-response","230","346221","0.0-11.0-0.61","5ed54d02957bee0c0de36cac","64afc2c9a8732ea92db0087d","64aff82e2d61c8c70a078e4d","null","null","<p style=""font-size: 60px; font-family: BACS"">bAdkAPT</p>","","","","","","","",""
"html-keyboard-response","231","347229","0.0-11.0-0.62","5ed54d02957bee0c0de36cac","64afc2c9a8732ea92db0087d","64aff82e2d61c8c70a078e4d","null","null","<p style=""font-size: 60px; font-family: BACS"">OAmAdcDR</p>","","","","","","","",""
"html-keyboard-response","232","348235","0.0-11.0-0.63","5ed54d02957bee0c0de36cac","64afc2c9a8732ea92db0087d","64aff82e2d61c8c70a078e4d","null","null","<p style=""font-size: 60px; font-family: BACS"">htmhCAPT</p>","","","","","","","",""
"html-keyboard-response","233","349237","0.0-11.0-0.64","5ed54d02957bee0c0de36cac","64afc2c9a8732ea92db0087d","64aff82e2d61c8c70a078e4d","null","null","<p style=""font-size: 60px; font-family: BACS"">bvkruvJ</p>","","","","","","","",""
"html-keyboard-response","234","350252","0.0-11.0-0.65","5ed54d02957bee0c0de36cac","64afc2c9a8732ea92db0087d","64aff82e2d61c8c70a078e4d","null","null","<p style=""font-size: 60px; font-family: BACS"">Udbdark</p>","","","","","","","",""
"html-keyboard-response","235","351260","0.0-11.0-0.66","5ed54d02957bee0c0de36cac","64afc2c9a8732ea92db0087d","64aff82e2d61c8c70a078e4d","null","null","<p style=""font-size: 60px; font-family: BACS"">OYuvbuZc</p>","","","","","","","",""
"html-keyboard-response","236","352271","0.0-11.0-0.67","5ed54d02957bee0c0de36cac","64afc2c9a8732ea92db0087d","64aff82e2d61c8c70a078e4d","null","null","<p style=""font-size: 60px; font-family: BACS"">PEtEcDR</p>","","","","","","","",""
"html-keyboard-response","237","353282","0.0-11.0-0.68","5ed54d02957bee0c0de36cac","64afc2c9a8732ea92db0087d","64aff82e2d61c8c70a078e4d","null","null","<p style=""font-size: 60px; font-family: BACS"">KRARmKlkD</p>","","","","","","","",""
"html-keyboard-response","238","354286","0.0-11.0-0.69","5ed54d02957bee0c0de36cac","64afc2c9a8732ea92db0087d","64aff82e2d61c8c70a078e4d","null","null","<p style=""font-size: 60px; font-family: BACS"">hTDdcDR</p>","","","","","","","",""
"html-keyboard-response","239","355296","0.0-11.0-0.70","5ed54d02957bee0c0de36cac","64afc2c9a8732ea92db0087d","64aff82e2d61c8c70a078e4d","null","null","<p style=""font-size: 60px; font-family: BACS"">krUQuZc</p>","","","","","","","",""
"html-keyboard-response","240","356308","0.0-11.0-0.71","5ed54d02957bee0c0de36cac","64afc2c9a8732ea92db0087d","64aff82e2d61c8c70a078e4d","null","null","<p style=""font-size: 60px; font-family: BACS"">htmhCTmTm</p>","","","","","","","",""
"html-keyboard-response","241","357320","0.0-11.0-0.72","5ed54d02957bee0c0de36cac","64afc2c9a8732ea92db0087d","64aff82e2d61c8c70a078e4d","null","null","<p style=""font-size: 60px; font-family: BACS"">BECkbAMO</p>","","","","","","","",""
"html-keyboard-response","242","358328","0.0-11.0-0.73","5ed54d02957bee0c0de36cac","64afc2c9a8732ea92db0087d","64aff82e2d61c8c70a078e4d","null","null","<p style=""font-size: 60px; font-family: BACS"">ZJLmrark</p>","","","","","","","",""
"html-keyboard-response","243","359335","0.0-11.0-0.74","5ed54d02957bee0c0de36cac","64afc2c9a8732ea92db0087d","64aff82e2d61c8c70a078e4d","null","null","<p style=""font-size: 60px; font-family: BACS"">hTDdKlkD</p>","","","","","","","",""
"html-keyboard-response","244","360346","0.0-11.0-0.75","5ed54d02957bee0c0de36cac","64afc2c9a8732ea92db0087d","64aff82e2d61c8c70a078e4d","null","null","<p style=""font-size: 60px; font-family: BACS"">BECkAPT</p>","","","","","","","",""
"html-keyboard-response","245","361359","0.0-11.0-0.76","5ed54d02957bee0c0de36cac","64afc2c9a8732ea92db0087d","64aff82e2d61c8c70a078e4d","null","null","<p style=""font-size: 60px; font-family: BACS"">kKRCcDR</p>","","","","","","","",""
"html-keyboard-response","246","362361","0.0-11.0-0.77","5ed54d02957bee0c0de36cac","64afc2c9a8732ea92db0087d","64aff82e2d61c8c70a078e4d","null","null","<p style=""font-size: 60px; font-family: BACS"">PYkCTmTm</p>","","","","","","","",""
"html-keyboard-response","247","363362","0.0-11.0-0.78","5ed54d02957bee0c0de36cac","64afc2c9a8732ea92db0087d","64aff82e2d61c8c70a078e4d","null","null","<p style=""font-size: 60px; font-family: BACS"">BECkcDR</p>","","","","","","","",""
"html-keyboard-response","248","364364","0.0-11.0-0.79","5ed54d02957bee0c0de36cac","64afc2c9a8732ea92db0087d","64aff82e2d61c8c70a078e4d","null","null","<p style=""font-size: 60px; font-family: BACS"">hTDdAPT</p>","","","","","","","",""
"html-keyboard-response","249","451316","0.0-12.0","5ed54d02957bee0c0de36cac","64afc2c9a8732ea92db0087d","64aff82e2d61c8c70a078e4d","86953"," ","<p>Ottimo, hai visto il terzo blocco di parole. Ora puoi prenderti una piccola pausa.</p>
      <p>Premi la barra quando sei pronta/o per riprendere.</p>","","","","","","","",""
"html-keyboard-response","250","452325","0.0-13.0-0.0","5ed54d02957bee0c0de36cac","64afc2c9a8732ea92db0087d","64aff82e2d61c8c70a078e4d","null","null","<p style=""font-size: 60px; font-family: BACS"">bvkruZc</p>","","","","","","","",""
"html-keyboard-response","251","453326","0.0-13.0-0.1","5ed54d02957bee0c0de36cac","64afc2c9a8732ea92db0087d","64aff82e2d61c8c70a078e4d","null","null","<p style=""font-size: 60px; font-family: BACS"">ECtbDTmTm</p>","","","","","","","",""
"html-keyboard-response","252","454334","0.0-13.0-0.2","5ed54d02957bee0c0de36cac","64afc2c9a8732ea92db0087d","64aff82e2d61c8c70a078e4d","null","null","<p style=""font-size: 60px; font-family: BACS"">OYuvbuZc</p>","","","","","","","",""
"html-keyboard-response","253","455337","0.0-13.0-0.3","5ed54d02957bee0c0de36cac","64afc2c9a8732ea92db0087d","64aff82e2d61c8c70a078e4d","null","null","<p style=""font-size: 60px; font-family: BACS"">BECkAPT</p>","","","","","","","",""
"html-keyboard-response","254","456345","0.0-13.0-0.4","5ed54d02957bee0c0de36cac","64afc2c9a8732ea92db0087d","64aff82e2d61c8c70a078e4d","null","null","<p style=""font-size: 60px; font-family: BACS"">ObOQlark</p>","","","","","","","",""
"html-keyboard-response","255","457346","0.0-13.0-0.5","5ed54d02957bee0c0de36cac","64afc2c9a8732ea92db0087d","64aff82e2d61c8c70a078e4d","null","null","<p style=""font-size: 60px; font-family: BACS"">ZdNmUuZc</p>","","","","","","","",""
"html-keyboard-response","256","458358","0.0-13.0-0.6","5ed54d02957bee0c0de36cac","64afc2c9a8732ea92db0087d","64aff82e2d61c8c70a078e4d","null","null","<p style=""font-size: 60px; font-family: BACS"">kKRCKlkD</p>","","","","","","","",""
"html-keyboard-response","257","459359","0.0-13.0-0.7","5ed54d02957bee0c0de36cac","64afc2c9a8732ea92db0087d","64aff82e2d61c8c70a078e4d","null","null","<p style=""font-size: 60px; font-family: BACS"">UdbdvUdm</p>","","","","","","","",""
"html-keyboard-response","258","460369","0.0-13.0-0.8","5ed54d02957bee0c0de36cac","64afc2c9a8732ea92db0087d","64aff82e2d61c8c70a078e4d","null","null","<p style=""font-size: 60px; font-family: BACS"">krUQuZc</p>","","","","","","","",""
"html-keyboard-response","259","461375","0.0-13.0-0.9","5ed54d02957bee0c0de36cac","64afc2c9a8732ea92db0087d","64aff82e2d61c8c70a078e4d","null","null","<p style=""font-size: 60px; font-family: BACS"">bvkrark</p>","","","","","","","",""
"html-keyboard-response","260","462382","0.0-13.0-0.10","5ed54d02957bee0c0de36cac","64afc2c9a8732ea92db0087d","64aff82e2d61c8c70a078e4d","null","null","<p style=""font-size: 60px; font-family: BACS"">ZJLmruZc</p>","","","","","","","",""
"html-keyboard-response","261","463385","0.0-13.0-0.11","5ed54d02957bee0c0de36cac","64afc2c9a8732ea92db0087d","64aff82e2d61c8c70a078e4d","null","null","<p style=""font-size: 60px; font-family: BACS"">GZJYukbY</p>","","","","","","","",""
"html-keyboard-response","262","464396","0.0-13.0-0.12","5ed54d02957bee0c0de36cac","64afc2c9a8732ea92db0087d","64aff82e2d61c8c70a078e4d","null","null","<p style=""font-size: 60px; font-family: BACS"">ECtbDcDR</p>","","","","","","","",""
"html-keyboard-response","263","465396","0.0-13.0-0.13","5ed54d02957bee0c0de36cac","64afc2c9a8732ea92db0087d","64aff82e2d61c8c70a078e4d","null","null","<p style=""font-size: 60px; font-family: BACS"">OAmAdAPT</p>","","","","","","","",""
"html-keyboard-response","264","466409","0.0-13.0-0.14","5ed54d02957bee0c0de36cac","64afc2c9a8732ea92db0087d","64aff82e2d61c8c70a078e4d","null","null","<p style=""font-size: 60px; font-family: BACS"">krUQark</p>","","","","","","","",""
"html-keyboard-response","265","467417","0.0-13.0-0.15","5ed54d02957bee0c0de36cac","64afc2c9a8732ea92db0087d","64aff82e2d61c8c70a078e4d","null","null","<p style=""font-size: 60px; font-family: BACS"">ZJLmrukbY</p>","","","","","","","",""
"html-keyboard-response","266","468427","0.0-13.0-0.16","5ed54d02957bee0c0de36cac","64afc2c9a8732ea92db0087d","64aff82e2d61c8c70a078e4d","null","null","<p style=""font-size: 60px; font-family: BACS"">ZdNmUuvJ</p>","","","","","","","",""
"html-keyboard-response","267","469433","0.0-13.0-0.17","5ed54d02957bee0c0de36cac","64afc2c9a8732ea92db0087d","64aff82e2d61c8c70a078e4d","null","null","<p style=""font-size: 60px; font-family: BACS"">KRARmbAMO</p>","","","","","","","",""
"html-keyboard-response","268","470438","0.0-13.0-0.18","5ed54d02957bee0c0de36cac","64afc2c9a8732ea92db0087d","64aff82e2d61c8c70a078e4d","null","null","<p style=""font-size: 60px; font-family: BACS"">PEtETmTm</p>","","","","","","","",""
"html-keyboard-response","269","471446","0.0-13.0-0.19","5ed54d02957bee0c0de36cac","64afc2c9a8732ea92db0087d","64aff82e2d61c8c70a078e4d","null","null","<p style=""font-size: 60px; font-family: BACS"">Udbdark</p>","","","","","","","",""
"html-keyboard-response","270","472462","0.0-13.0-0.20","5ed54d02957bee0c0de36cac","64afc2c9a8732ea92db0087d","64aff82e2d61c8c70a078e4d","null","null","<p style=""font-size: 60px; font-family: BACS"">htmhCKlkD</p>","","","","","","","",""
"html-keyboard-response","271","473472","0.0-13.0-0.21","5ed54d02957bee0c0de36cac","64afc2c9a8732ea92db0087d","64aff82e2d61c8c70a078e4d","null","null","<p style=""font-size: 60px; font-family: BACS"">KRARmAPT</p>","","","","","","","",""
"html-keyboard-response","272","474481","0.0-13.0-0.22","5ed54d02957bee0c0de36cac","64afc2c9a8732ea92db0087d","64aff82e2d61c8c70a078e4d","null","null","<p style=""font-size: 60px; font-family: BACS"">ZdNmUvUdm</p>","","","","","","","",""
"html-keyboard-response","273","475482","0.0-13.0-0.23","5ed54d02957bee0c0de36cac","64afc2c9a8732ea92db0087d","64aff82e2d61c8c70a078e4d","null","null","<p style=""font-size: 60px; font-family: BACS"">UdbduvJ</p>","","","","","","","",""
"html-keyboard-response","274","476483","0.0-13.0-0.24","5ed54d02957bee0c0de36cac","64afc2c9a8732ea92db0087d","64aff82e2d61c8c70a078e4d","null","null","<p style=""font-size: 60px; font-family: BACS"">OYuvbvUdm</p>","","","","","","","",""
"html-keyboard-response","275","477484","0.0-13.0-0.25","5ed54d02957bee0c0de36cac","64afc2c9a8732ea92db0087d","64aff82e2d61c8c70a078e4d","null","null","<p style=""font-size: 60px; font-family: BACS"">htmhCcDR</p>","","","","","","","",""
"html-keyboard-response","276","478487","0.0-13.0-0.26","5ed54d02957bee0c0de36cac","64afc2c9a8732ea92db0087d","64aff82e2d61c8c70a078e4d","null","null","<p style=""font-size: 60px; font-family: BACS"">UdbduZc</p>","","","","","","","",""
"html-keyboard-response","277","479489","0.0-13.0-0.27","5ed54d02957bee0c0de36cac","64afc2c9a8732ea92db0087d","64aff82e2d61c8c70a078e4d","null","null","<p style=""font-size: 60px; font-family: BACS"">BECkTmTm</p>","","","","","","","",""
"html-keyboard-response","278","480504","0.0-13.0-0.28","5ed54d02957bee0c0de36cac","64afc2c9a8732ea92db0087d","64aff82e2d61c8c70a078e4d","null","null","<p style=""font-size: 60px; font-family: BACS"">PYkCbAMO</p>","","","","","","","",""
"html-keyboard-response","279","481514","0.0-13.0-0.29","5ed54d02957bee0c0de36cac","64afc2c9a8732ea92db0087d","64aff82e2d61c8c70a078e4d","null","null","<p style=""font-size: 60px; font-family: BACS"">OYuvbukbY</p>","","","","","","","",""
"html-keyboard-response","280","482526","0.0-13.0-0.30","5ed54d02957bee0c0de36cac","64afc2c9a8732ea92db0087d","64aff82e2d61c8c70a078e4d","null","null","<p style=""font-size: 60px; font-family: BACS"">KRARmTmTm</p>","","","","","","","",""
"html-keyboard-response","281","483536","0.0-13.0-0.31","5ed54d02957bee0c0de36cac","64afc2c9a8732ea92db0087d","64aff82e2d61c8c70a078e4d","null","null","<p style=""font-size: 60px; font-family: BACS"">krUQvUdm</p>","","","","","","","",""
"html-keyboard-response","282","484537","0.0-13.0-0.32","5ed54d02957bee0c0de36cac","64afc2c9a8732ea92db0087d","64aff82e2d61c8c70a078e4d","null","null","<p style=""font-size: 60px; font-family: BACS"">BECkbAMO</p>","","","","","","","",""
"html-keyboard-response","283","485542","0.0-13.0-0.33","5ed54d02957bee0c0de36cac","64afc2c9a8732ea92db0087d","64aff82e2d61c8c70a078e4d","null","null","<p style=""font-size: 60px; font-family: BACS"">YQbcvUdm</p>","","","","","","","",""
"html-keyboard-response","284","486549","0.0-13.0-0.34","5ed54d02957bee0c0de36cac","64afc2c9a8732ea92db0087d","64aff82e2d61c8c70a078e4d","null","null","<p style=""font-size: 60px; font-family: BACS"">OAmAdcDR</p>","","","","","","","",""
"html-keyboard-response","285","487550","0.0-13.0-0.35","5ed54d02957bee0c0de36cac","64afc2c9a8732ea92db0087d","64aff82e2d61c8c70a078e4d","null","null","<p style=""font-size: 60px; font-family: BACS"">GZJYark</p>","","","","","","","",""
"html-keyboard-response","286","488551","0.0-13.0-0.36","5ed54d02957bee0c0de36cac","64afc2c9a8732ea92db0087d","64aff82e2d61c8c70a078e4d","null","null","<p style=""font-size: 60px; font-family: BACS"">ZdNmUukbY</p>","","","","","","","",""
"html-keyboard-response","287","489553","0.0-13.0-0.37","5ed54d02957bee0c0de36cac","64afc2c9a8732ea92db0087d","64aff82e2d61c8c70a078e4d","null","null","<p style=""font-size: 60px; font-family: BACS"">ZJLmrark</p>","","","","","","","",""
"html-keyboard-response","288","490562","0.0-13.0-0.38","5ed54d02957bee0c0de36cac","64afc2c9a8732ea92db0087d","64aff82e2d61c8c70a078e4d","null","null","<p style=""font-size: 60px; font-family: BACS"">hTDdcDR</p>","","","","","","","",""
"html-keyboard-response","289","491575","0.0-13.0-0.39","5ed54d02957bee0c0de36cac","64afc2c9a8732ea92db0087d","64aff82e2d61c8c70a078e4d","null","null","<p style=""font-size: 60px; font-family: BACS"">bGuOuvJ</p>","","","","","","","",""
"html-keyboard-response","290","492583","0.0-13.0-0.40","5ed54d02957bee0c0de36cac","64afc2c9a8732ea92db0087d","64aff82e2d61c8c70a078e4d","null","null","<p style=""font-size: 60px; font-family: BACS"">bAdkAPT</p>","","","","","","","",""
"html-keyboard-response","291","493585","0.0-13.0-0.41","5ed54d02957bee0c0de36cac","64afc2c9a8732ea92db0087d","64aff82e2d61c8c70a078e4d","null","null","<p style=""font-size: 60px; font-family: BACS"">hTDdKlkD</p>","","","","","","","",""
"html-keyboard-response","292","494590","0.0-13.0-0.42","5ed54d02957bee0c0de36cac","64afc2c9a8732ea92db0087d","64aff82e2d61c8c70a078e4d","null","null","<p style=""font-size: 60px; font-family: BACS"">bAdkcDR</p>","","","","","","","",""
"html-keyboard-response","293","495603","0.0-13.0-0.43","5ed54d02957bee0c0de36cac","64afc2c9a8732ea92db0087d","64aff82e2d61c8c70a078e4d","null","null","<p style=""font-size: 60px; font-family: BACS"">bGuOark</p>","","","","","","","",""
"html-keyboard-response","294","496617","0.0-13.0-0.44","5ed54d02957bee0c0de36cac","64afc2c9a8732ea92db0087d","64aff82e2d61c8c70a078e4d","null","null","<p style=""font-size: 60px; font-family: BACS"">OAmAdbAMO</p>","","","","","","","",""
"html-keyboard-response","295","497632","0.0-13.0-0.45","5ed54d02957bee0c0de36cac","64afc2c9a8732ea92db0087d","64aff82e2d61c8c70a078e4d","null","null","<p style=""font-size: 60px; font-family: BACS"">KRARmKlkD</p>","","","","","","","",""
"html-keyboard-response","296","498641","0.0-13.0-0.46","5ed54d02957bee0c0de36cac","64afc2c9a8732ea92db0087d","64aff82e2d61c8c70a078e4d","null","null","<p style=""font-size: 60px; font-family: BACS"">kKRCcDR</p>","","","","","","","",""
"html-keyboard-response","297","499649","0.0-13.0-0.47","5ed54d02957bee0c0de36cac","64afc2c9a8732ea92db0087d","64aff82e2d61c8c70a078e4d","null","null","<p style=""font-size: 60px; font-family: BACS"">hTDdTmTm</p>","","","","","","","",""
"html-keyboard-response","298","500662","0.0-13.0-0.48","5ed54d02957bee0c0de36cac","64afc2c9a8732ea92db0087d","64aff82e2d61c8c70a078e4d","null","null","<p style=""font-size: 60px; font-family: BACS"">YQbcark</p>","","","","","","","",""
"html-keyboard-response","299","501668","0.0-13.0-0.49","5ed54d02957bee0c0de36cac","64afc2c9a8732ea92db0087d","64aff82e2d61c8c70a078e4d","null","null","<p style=""font-size: 60px; font-family: BACS"">htmhCAPT</p>","","","","","","","",""
"html-keyboard-response","300","502673","0.0-13.0-0.50","5ed54d02957bee0c0de36cac","64afc2c9a8732ea92db0087d","64aff82e2d61c8c70a078e4d","null","null","<p style=""font-size: 60px; font-family: BACS"">PEtEcDR</p>","","","","","","","",""
"html-keyboard-response","301","503683","0.0-13.0-0.51","5ed54d02957bee0c0de36cac","64afc2c9a8732ea92db0087d","64aff82e2d61c8c70a078e4d","null","null","<p style=""font-size: 60px; font-family: BACS"">GZJYvUdm</p>","","","","","","","",""
"html-keyboard-response","302","504684","0.0-13.0-0.52","5ed54d02957bee0c0de36cac","64afc2c9a8732ea92db0087d","64aff82e2d61c8c70a078e4d","null","null","<p style=""font-size: 60px; font-family: BACS"">BECkcDR</p>","","","","","","","",""
"html-keyboard-response","303","505698","0.0-13.0-0.53","5ed54d02957bee0c0de36cac","64afc2c9a8732ea92db0087d","64aff82e2d61c8c70a078e4d","null","null","<p style=""font-size: 60px; font-family: BACS"">YQbcuZc</p>","","","","","","","",""
"html-keyboard-response","304","506699","0.0-13.0-0.54","5ed54d02957bee0c0de36cac","64afc2c9a8732ea92db0087d","64aff82e2d61c8c70a078e4d","null","null","<p style=""font-size: 60px; font-family: BACS"">PYkCAPT</p>","","","","","","","",""
"html-keyboard-response","305","507704","0.0-13.0-0.55","5ed54d02957bee0c0de36cac","64afc2c9a8732ea92db0087d","64aff82e2d61c8c70a078e4d","null","null","<p style=""font-size: 60px; font-family: BACS"">PEtEbAMO</p>","","","","","","","",""
"html-keyboard-response","306","508714","0.0-13.0-0.56","5ed54d02957bee0c0de36cac","64afc2c9a8732ea92db0087d","64aff82e2d61c8c70a078e4d","null","null","<p style=""font-size: 60px; font-family: BACS"">hTDdAPT</p>","","","","","","","",""
"html-keyboard-response","307","509730","0.0-13.0-0.57","5ed54d02957bee0c0de36cac","64afc2c9a8732ea92db0087d","64aff82e2d61c8c70a078e4d","null","null","<p style=""font-size: 60px; font-family: BACS"">ObOQluvJ</p>","","","","","","","",""
"html-keyboard-response","308","510742","0.0-13.0-0.58","5ed54d02957bee0c0de36cac","64afc2c9a8732ea92db0087d","64aff82e2d61c8c70a078e4d","null","null","<p style=""font-size: 60px; font-family: BACS"">htmhCTmTm</p>","","","","","","","",""
"html-keyboard-response","309","511756","0.0-13.0-0.59","5ed54d02957bee0c0de36cac","64afc2c9a8732ea92db0087d","64aff82e2d61c8c70a078e4d","null","null","<p style=""font-size: 60px; font-family: BACS"">bGuOukbY</p>","","","","","","","",""
"html-keyboard-response","310","512761","0.0-13.0-0.60","5ed54d02957bee0c0de36cac","64afc2c9a8732ea92db0087d","64aff82e2d61c8c70a078e4d","null","null","<p style=""font-size: 60px; font-family: BACS"">PYkCTmTm</p>","","","","","","","",""
"html-keyboard-response","311","513768","0.0-13.0-0.61","5ed54d02957bee0c0de36cac","64afc2c9a8732ea92db0087d","64aff82e2d61c8c70a078e4d","null","null","<p style=""font-size: 60px; font-family: BACS"">PEtEKlkD</p>","","","","","","","",""
"html-keyboard-response","312","514769","0.0-13.0-0.62","5ed54d02957bee0c0de36cac","64afc2c9a8732ea92db0087d","64aff82e2d61c8c70a078e4d","null","null","<p style=""font-size: 60px; font-family: BACS"">bAdkbAMO</p>","","","","","","","",""
"html-keyboard-response","313","515772","0.0-13.0-0.63","5ed54d02957bee0c0de36cac","64afc2c9a8732ea92db0087d","64aff82e2d61c8c70a078e4d","null","null","<p style=""font-size: 60px; font-family: BACS"">OYuvbuvJ</p>","","","","","","","",""
"html-keyboard-response","314","516779","0.0-13.0-0.64","5ed54d02957bee0c0de36cac","64afc2c9a8732ea92db0087d","64aff82e2d61c8c70a078e4d","null","null","<p style=""font-size: 60px; font-family: BACS"">kKRCAPT</p>","","","","","","","",""
"html-keyboard-response","315","517785","0.0-13.0-0.65","5ed54d02957bee0c0de36cac","64afc2c9a8732ea92db0087d","64aff82e2d61c8c70a078e4d","null","null","<p style=""font-size: 60px; font-family: BACS"">ECtbDbAMO</p>","","","","","","","",""
"html-keyboard-response","316","518794","0.0-13.0-0.66","5ed54d02957bee0c0de36cac","64afc2c9a8732ea92db0087d","64aff82e2d61c8c70a078e4d","null","null","<p style=""font-size: 60px; font-family: BACS"">GZJYuZc</p>","","","","","","","",""
"html-keyboard-response","317","519799","0.0-13.0-0.67","5ed54d02957bee0c0de36cac","64afc2c9a8732ea92db0087d","64aff82e2d61c8c70a078e4d","null","null","<p style=""font-size: 60px; font-family: BACS"">kKRCbAMO</p>","","","","","","","",""
"html-keyboard-response","318","520809","0.0-13.0-0.68","5ed54d02957bee0c0de36cac","64afc2c9a8732ea92db0087d","64aff82e2d61c8c70a078e4d","null","null","<p style=""font-size: 60px; font-family: BACS"">ObOQlvUdm</p>","","","","","","","",""
"html-keyboard-response","319","521816","0.0-13.0-0.69","5ed54d02957bee0c0de36cac","64afc2c9a8732ea92db0087d","64aff82e2d61c8c70a078e4d","null","null","<p style=""font-size: 60px; font-family: BACS"">YQbcukbY</p>","","","","","","","",""
"html-keyboard-response","320","522829","0.0-13.0-0.70","5ed54d02957bee0c0de36cac","64afc2c9a8732ea92db0087d","64aff82e2d61c8c70a078e4d","null","null","<p style=""font-size: 60px; font-family: BACS"">bGuOvUdm</p>","","","","","","","",""
"html-keyboard-response","321","523831","0.0-13.0-0.71","5ed54d02957bee0c0de36cac","64afc2c9a8732ea92db0087d","64aff82e2d61c8c70a078e4d","null","null","<p style=""font-size: 60px; font-family: BACS"">PYkCKlkD</p>","","","","","","","",""
"html-keyboard-response","322","524837","0.0-13.0-0.72","5ed54d02957bee0c0de36cac","64afc2c9a8732ea92db0087d","64aff82e2d61c8c70a078e4d","null","null","<p style=""font-size: 60px; font-family: BACS"">krUQuvJ</p>","","","","","","","",""
"html-keyboard-response","323","525849","0.0-13.0-0.73","5ed54d02957bee0c0de36cac","64afc2c9a8732ea92db0087d","64aff82e2d61c8c70a078e4d","null","null","<p style=""font-size: 60px; font-family: BACS"">ECtbDKlkD</p>","","","","","","","",""
"html-keyboard-response","324","526852","0.0-13.0-0.74","5ed54d02957bee0c0de36cac","64afc2c9a8732ea92db0087d","64aff82e2d61c8c70a078e4d","null","null","<p style=""font-size: 60px; font-family: BACS"">bvkrukbY</p>","","","","","","","",""
"html-keyboard-response","325","527865","0.0-13.0-0.75","5ed54d02957bee0c0de36cac","64afc2c9a8732ea92db0087d","64aff82e2d61c8c70a078e4d","null","null","<p style=""font-size: 60px; font-family: BACS"">ZJLmruvJ</p>","","","","","","","",""
"html-keyboard-response","326","528882","0.0-13.0-0.76","5ed54d02957bee0c0de36cac","64afc2c9a8732ea92db0087d","64aff82e2d61c8c70a078e4d","null","null","<p style=""font-size: 60px; font-family: BACS"">OAmAdKlkD</p>","","","","","","","",""
"html-keyboard-response","327","529887","0.0-13.0-0.77","5ed54d02957bee0c0de36cac","64afc2c9a8732ea92db0087d","64aff82e2d61c8c70a078e4d","null","null","<p style=""font-size: 60px; font-family: BACS"">bAdkTmTm</p>","","","","","","","",""
"html-keyboard-response","328","530900","0.0-13.0-0.78","5ed54d02957bee0c0de36cac","64afc2c9a8732ea92db0087d","64aff82e2d61c8c70a078e4d","null","null","<p style=""font-size: 60px; font-family: BACS"">bvkruvJ</p>","","","","","","","",""
"html-keyboard-response","329","531900","0.0-13.0-0.79","5ed54d02957bee0c0de36cac","64afc2c9a8732ea92db0087d","64aff82e2d61c8c70a078e4d","null","null","<p style=""font-size: 60px; font-family: BACS"">ObOQlukbY</p>","","","","","","","",""
"html-keyboard-response","330","574760","0.0-14.0","5ed54d02957bee0c0de36cac","64afc2c9a8732ea92db0087d","64aff82e2d61c8c70a078e4d","42860"," ","<p>Ottimo! Hai visto tutte le parole che abbiamo ricevuto dallo spazio.</p>
      <p>Premi la barra quando sei pronta/o per continuare.</p>","","","","","","","",""
"html-keyboard-response","331","608787","0.0-15.0","5ed54d02957bee0c0de36cac","64afc2c9a8732ea92db0087d","64aff82e2d61c8c70a078e4d","34027"," ","<p>In questa seconda parte, vedrai delle nuove parole che abbiamo ricevuto dallo stesso gruppo di alieni, e altre che invece provengono da un'altra comunicazione, con un altro gruppo di alieni. Purtroppo le due comunicazioni non arrivano a noi separatamente, per cui le parole sono mescolate tra loro. Il tuo compito sarà quello di individuare le parole che provengono dal gruppo che hai studiato nella prima parte dell'esperimento.</p>
      <p>Questo compito non è per nulla facile; le due comunicazioni infatti usano gli stessi caratteri. Il tuo meeting con i leader mondiali inizia tra poco, per cui non avrai molto tempo per prendere la tua decisione; dovrai essere veloce. Cerca di fare del tuo meglio usando la tua intuizione; non hai tempo di stare a pensare a lungo su ogni singola parola.</p>
      <p>Premi <strong>k</strong> quando pensi che la parola che stai vedendo sia degli stessi alieni che hai studiato prima, e <strong>d</strong> quando invece pensi che la parola che stai vedendo venga dall'altra comunicazione, con il nuovo gruppo di alieni.</p><p>Premi la barra quando sei pronta/o per iniziare.</p>","","","","","","","",""
"html-keyboard-response","332","614927","0.0-16.0-0.0","5ed54d02957bee0c0de36cac","64afc2c9a8732ea92db0087d","64aff82e2d61c8c70a078e4d","6139","k","<p style=""font-size: 30px;"">La parola viene del gruppo di alieni che hai studiato prima?</p><br><p style=""font-size: 60px; font-family: BACS"">bAdkKlkD<p style=""font-size: 15px"">Premi <strong>k</strong> per sì, <strong>d</strong> per no.</p>","","bAdkKlkD","testing","k","true","","",""
"html-keyboard-response","333","617426","0.0-16.0-1.0-0.0","5ed54d02957bee0c0de36cac","64afc2c9a8732ea92db0087d","64aff82e2d61c8c70a078e4d","2498"," ","<p style=""font-size: 30px; color: red"">Attenzione! Sei stato troppo lento con questa parola.</p>
      <p style=""font-size: 30px; color: red"">Cerca di essere più veloce.</p><p></p><p>Premi la barra per continuare.</p>","","","","","","","",""
"html-keyboard-response","334","618980","0.0-16.0-0.1","5ed54d02957bee0c0de36cac","64afc2c9a8732ea92db0087d","64aff82e2d61c8c70a078e4d","1554","k","<p style=""font-size: 30px;"">La parola viene del gruppo di alieni che hai studiato prima?</p><br><p style=""font-size: 60px; font-family: BACS"">krUQukbY<p style=""font-size: 15px"">Premi <strong>k</strong> per sì, <strong>d</strong> per no.</p>","","krUQukbY","testing","k","true","","",""
"html-keyboard-response","335","620192","0.0-16.0-0.2","5ed54d02957bee0c0de36cac","64afc2c9a8732ea92db0087d","64aff82e2d61c8c70a078e4d","1211","d","<p style=""font-size: 30px;"">La parola viene del gruppo di alieni che hai studiato prima?</p><br><p style=""font-size: 60px; font-family: BACS"">bvkrKlkD<p style=""font-size: 15px"">Premi <strong>k</strong> per sì, <strong>d</strong> per no.</p>","","bvkrKlkD","testing","d","true","","",""
"html-keyboard-response","336","621804","0.0-16.0-0.3","5ed54d02957bee0c0de36cac","64afc2c9a8732ea92db0087d","64aff82e2d61c8c70a078e4d","1611","k","<p style=""font-size: 30px"">&emsp;</p><br><p style=""font-size: 60px; font-family: BACS"">bGuOuZc<p style=""font-size: 15px"">Premi <strong>k</strong> per sì, <strong>d</strong> per no.</p>","","bGuOuZc","testing","k","true","","",""
"html-keyboard-response","337","623612","0.0-16.0-0.4","5ed54d02957bee0c0de36cac","64afc2c9a8732ea92db0087d","64aff82e2d61c8c70a078e4d","1807","d","<p style=""font-size: 30px"">&emsp;</p><br><p style=""font-size: 60px; font-family: BACS"">YQbcbAMO<p style=""font-size: 15px"">Premi <strong>k</strong> per sì, <strong>d</strong> per no.</p>","","YQbcbAMO","testing","d","true","","",""
"html-keyboard-response","338","625014","0.0-16.0-0.5","5ed54d02957bee0c0de36cac","64afc2c9a8732ea92db0087d","64aff82e2d61c8c70a078e4d","1402","d","<p style=""font-size: 30px"">&emsp;</p><br><p style=""font-size: 60px; font-family: BACS"">ZJLmrKlkD<p style=""font-size: 15px"">Premi <strong>k</strong> per sì, <strong>d</strong> per no.</p>","","ZJLmrKlkD","testing","d","true","","",""
"html-keyboard-response","339","627066","0.0-16.0-0.6","5ed54d02957bee0c0de36cac","64afc2c9a8732ea92db0087d","64aff82e2d61c8c70a078e4d","2052","k","<p style=""font-size: 30px"">&emsp;</p><br><p style=""font-size: 60px; font-family: BACS"">bGuOcDR<p style=""font-size: 15px"">Premi <strong>k</strong> per sì, <strong>d</strong> per no.</p>","","bGuOcDR","testing","d","false","","",""
"html-keyboard-response","340","628493","0.0-16.0-1.6-0.6","5ed54d02957bee0c0de36cac","64afc2c9a8732ea92db0087d","64aff82e2d61c8c70a078e4d","1427"," ","<p style=""font-size: 30px; color: red"">Attenzione! Sei stato troppo lento con questa parola.</p>
      <p style=""font-size: 30px; color: red"">Cerca di essere più veloce.</p><p></p><p>Premi la barra per continuare.</p>","","","","","","","",""
"html-keyboard-response","341","629226","0.0-16.0-0.7","5ed54d02957bee0c0de36cac","64afc2c9a8732ea92db0087d","64aff82e2d61c8c70a078e4d","733","k","<p style=""font-size: 30px"">&emsp;</p><br><p style=""font-size: 60px; font-family: BACS"">ECtbDark<p style=""font-size: 15px"">Premi <strong>k</strong> per sì, <strong>d</strong> per no.</p>","","ECtbDark","testing","d","false","","",""
"html-keyboard-response","342","630384","0.0-16.0-0.8","5ed54d02957bee0c0de36cac","64afc2c9a8732ea92db0087d","64aff82e2d61c8c70a078e4d","1157","d","<p style=""font-size: 30px"">&emsp;</p><br><p style=""font-size: 60px; font-family: BACS"">OAmAdTmTm<p style=""font-size: 15px"">Premi <strong>k</strong> per sì, <strong>d</strong> per no.</p>","","OAmAdTmTm","testing","k","false","","",""
"html-keyboard-response","343","631860","0.0-16.0-0.9","5ed54d02957bee0c0de36cac","64afc2c9a8732ea92db0087d","64aff82e2d61c8c70a078e4d","1476","k","<p style=""font-size: 30px"">&emsp;</p><br><p style=""font-size: 60px; font-family: BACS"">BECkvUdm<p style=""font-size: 15px"">Premi <strong>k</strong> per sì, <strong>d</strong> per no.</p>","","BECkvUdm","testing","d","false","","",""
"html-keyboard-response","344","632921","0.0-16.0-0.10","5ed54d02957bee0c0de36cac","64afc2c9a8732ea92db0087d","64aff82e2d61c8c70a078e4d","1060","d","<p style=""font-size: 30px"">&emsp;</p><br><p style=""font-size: 60px; font-family: BACS"">GZJYbAMO<p style=""font-size: 15px"">Premi <strong>k</strong> per sì, <strong>d</strong> per no.</p>","","GZJYbAMO","testing","d","true","","",""
"html-keyboard-response","345","634373","0.0-16.0-0.11","5ed54d02957bee0c0de36cac","64afc2c9a8732ea92db0087d","64aff82e2d61c8c70a078e4d","1452","k","<p style=""font-size: 30px"">&emsp;</p><br><p style=""font-size: 60px; font-family: BACS"">PEtEAPT<p style=""font-size: 15px"">Premi <strong>k</strong> per sì, <strong>d</strong> per no.</p>","","PEtEAPT","testing","k","true","","",""
"html-keyboard-response","346","635479","0.0-16.0-0.12","5ed54d02957bee0c0de36cac","64afc2c9a8732ea92db0087d","64aff82e2d61c8c70a078e4d","1106","d","<p style=""font-size: 30px"">&emsp;</p><br><p style=""font-size: 60px; font-family: BACS"">OAmAdukbY<p style=""font-size: 15px"">Premi <strong>k</strong> per sì, <strong>d</strong> per no.</p>","","OAmAdukbY","testing","d","true","","",""
"html-keyboard-response","347","636615","0.0-16.0-0.13","5ed54d02957bee0c0de36cac","64afc2c9a8732ea92db0087d","64aff82e2d61c8c70a078e4d","1136","d","<p style=""font-size: 30px"">&emsp;</p><br><p style=""font-size: 60px; font-family: BACS"">PEtEark<p style=""font-size: 15px"">Premi <strong>k</strong> per sì, <strong>d</strong> per no.</p>","","PEtEark","testing","d","true","","",""
"html-keyboard-response","348","637639","0.0-16.0-0.14","5ed54d02957bee0c0de36cac","64afc2c9a8732ea92db0087d","64aff82e2d61c8c70a078e4d","1023","k","<p style=""font-size: 30px"">&emsp;</p><br><p style=""font-size: 60px; font-family: BACS"">ObOQluZc<p style=""font-size: 15px"">Premi <strong>k</strong> per sì, <strong>d</strong> per no.</p>","","ObOQluZc","testing","k","true","","",""
"html-keyboard-response","349","639021","0.0-16.0-0.15","5ed54d02957bee0c0de36cac","64afc2c9a8732ea92db0087d","64aff82e2d61c8c70a078e4d","1382","k","<p style=""font-size: 30px"">&emsp;</p><br><p style=""font-size: 60px; font-family: BACS"">hTDduvJ<p style=""font-size: 15px"">Premi <strong>k</strong> per sì, <strong>d</strong> per no.</p>","","hTDduvJ","testing","d","false","","",""
"html-keyboard-response","350","640245","0.0-16.0-0.16","5ed54d02957bee0c0de36cac","64afc2c9a8732ea92db0087d","64aff82e2d61c8c70a078e4d","1224","d","<p style=""font-size: 30px"">&emsp;</p><br><p style=""font-size: 60px; font-family: BACS"">kKRCukbY<p style=""font-size: 15px"">Premi <strong>k</strong> per sì, <strong>d</strong> per no.</p>","","kKRCukbY","testing","d","true","","",""
"html-keyboard-response","351","641554","0.0-16.0-0.17","5ed54d02957bee0c0de36cac","64afc2c9a8732ea92db0087d","64aff82e2d61c8c70a078e4d","1308","k","<p style=""font-size: 30px"">&emsp;</p><br><p style=""font-size: 60px; font-family: BACS"">krUQTmTm<p style=""font-size: 15px"">Premi <strong>k</strong> per sì, <strong>d</strong> per no.</p>","","krUQTmTm","testing","d","false","","",""
"html-keyboard-response","352","644129","0.0-16.0-0.18","5ed54d02957bee0c0de36cac","64afc2c9a8732ea92db0087d","64aff82e2d61c8c70a078e4d","2575","k","<p style=""font-size: 30px"">&emsp;</p><br><p style=""font-size: 60px; font-family: BACS"">BECkKlkD<p style=""font-size: 15px"">Premi <strong>k</strong> per sì, <strong>d</strong> per no.</p>","","BECkKlkD","testing","k","true","","",""
"html-keyboard-response","353","645559","0.0-16.0-1.18-0.18","5ed54d02957bee0c0de36cac","64afc2c9a8732ea92db0087d","64aff82e2d61c8c70a078e4d","1430"," ","<p style=""font-size: 30px; color: red"">Attenzione! Sei stato troppo lento con questa parola.</p>
      <p style=""font-size: 30px; color: red"">Cerca di essere più veloce.</p><p></p><p>Premi la barra per continuare.</p>","","","","","","","",""
"html-keyboard-response","354","646193","0.0-16.0-0.19","5ed54d02957bee0c0de36cac","64afc2c9a8732ea92db0087d","64aff82e2d61c8c70a078e4d","633","k","<p style=""font-size: 30px"">&emsp;</p><br><p style=""font-size: 60px; font-family: BACS"">ECtbDAPT<p style=""font-size: 15px"">Premi <strong>k</strong> per sì, <strong>d</strong> per no.</p>","","ECtbDAPT","testing","k","true","","",""
"html-keyboard-response","355","646793","0.0-16.0-0.20","5ed54d02957bee0c0de36cac","64afc2c9a8732ea92db0087d","64aff82e2d61c8c70a078e4d","599","d","<p style=""font-size: 30px"">&emsp;</p><br><p style=""font-size: 60px; font-family: BACS"">UdbdukbY<p style=""font-size: 15px"">Premi <strong>k</strong> per sì, <strong>d</strong> per no.</p>","","UdbdukbY","testing","k","false","","",""
"html-keyboard-response","356","648489","0.0-16.0-0.21","5ed54d02957bee0c0de36cac","64afc2c9a8732ea92db0087d","64aff82e2d61c8c70a078e4d","1695","d","<p style=""font-size: 30px"">&emsp;</p><br><p style=""font-size: 60px; font-family: BACS"">ZJLmrvUdm<p style=""font-size: 15px"">Premi <strong>k</strong> per sì, <strong>d</strong> per no.</p>","","ZJLmrvUdm","testing","k","false","","",""
"html-keyboard-response","357","649642","0.0-16.0-0.22","5ed54d02957bee0c0de36cac","64afc2c9a8732ea92db0087d","64aff82e2d61c8c70a078e4d","1153","k","<p style=""font-size: 30px"">&emsp;</p><br><p style=""font-size: 60px; font-family: BACS"">KRARmcDR<p style=""font-size: 15px"">Premi <strong>k</strong> per sì, <strong>d</strong> per no.</p>","","KRARmcDR","testing","k","true","","",""
"html-keyboard-response","358","651590","0.0-16.0-0.23","5ed54d02957bee0c0de36cac","64afc2c9a8732ea92db0087d","64aff82e2d61c8c70a078e4d","1948","d","<p style=""font-size: 30px"">&emsp;</p><br><p style=""font-size: 60px; font-family: BACS"">GZJYuvJ<p style=""font-size: 15px"">Premi <strong>k</strong> per sì, <strong>d</strong> per no.</p>","","GZJYuvJ","testing","k","false","","",""
"html-keyboard-response","359","653047","0.0-16.0-0.24","5ed54d02957bee0c0de36cac","64afc2c9a8732ea92db0087d","64aff82e2d61c8c70a078e4d","1456","k","<p style=""font-size: 30px"">&emsp;</p><br><p style=""font-size: 60px; font-family: BACS"">KRARmuZc<p style=""font-size: 15px"">Premi <strong>k</strong> per sì, <strong>d</strong> per no.</p>","","KRARmuZc","testing","d","false","","",""
"html-keyboard-response","360","654464","0.0-16.0-0.25","5ed54d02957bee0c0de36cac","64afc2c9a8732ea92db0087d","64aff82e2d61c8c70a078e4d","1417","k","<p style=""font-size: 30px"">&emsp;</p><br><p style=""font-size: 60px; font-family: BACS"">kKRCTmTm<p style=""font-size: 15px"">Premi <strong>k</strong> per sì, <strong>d</strong> per no.</p>","","kKRCTmTm","testing","k","true","","",""
"html-keyboard-response","361","655949","0.0-16.0-0.26","5ed54d02957bee0c0de36cac","64afc2c9a8732ea92db0087d","64aff82e2d61c8c70a078e4d","1484","k","<p style=""font-size: 30px"">&emsp;</p><br><p style=""font-size: 60px; font-family: BACS"">ZdNmUAPT<p style=""font-size: 15px"">Premi <strong>k</strong> per sì, <strong>d</strong> per no.</p>","","ZdNmUAPT","testing","d","false","","",""
"html-keyboard-response","362","657424","0.0-16.0-0.27","5ed54d02957bee0c0de36cac","64afc2c9a8732ea92db0087d","64aff82e2d61c8c70a078e4d","1475","d","<p style=""font-size: 30px"">&emsp;</p><br><p style=""font-size: 60px; font-family: BACS"">bvkrvUdm<p style=""font-size: 15px"">Premi <strong>k</strong> per sì, <strong>d</strong> per no.</p>","","bvkrvUdm","testing","k","false","","",""
"html-keyboard-response","363","658705","0.0-16.0-0.28","5ed54d02957bee0c0de36cac","64afc2c9a8732ea92db0087d","64aff82e2d61c8c70a078e4d","1280","d","<p style=""font-size: 30px"">&emsp;</p><br><p style=""font-size: 60px; font-family: BACS"">ObOQlcDR<p style=""font-size: 15px"">Premi <strong>k</strong> per sì, <strong>d</strong> per no.</p>","","ObOQlcDR","testing","d","true","","",""
"html-keyboard-response","364","660269","0.0-16.0-0.29","5ed54d02957bee0c0de36cac","64afc2c9a8732ea92db0087d","64aff82e2d61c8c70a078e4d","1564","d","<p style=""font-size: 30px"">&emsp;</p><br><p style=""font-size: 60px; font-family: BACS"">htmhCuvJ<p style=""font-size: 15px"">Premi <strong>k</strong> per sì, <strong>d</strong> per no.</p>","","htmhCuvJ","testing","d","true","","",""
"html-keyboard-response","365","661661","0.0-16.0-0.30","5ed54d02957bee0c0de36cac","64afc2c9a8732ea92db0087d","64aff82e2d61c8c70a078e4d","1391","k","<p style=""font-size: 30px"">&emsp;</p><br><p style=""font-size: 60px; font-family: BACS"">UdbdTmTm<p style=""font-size: 15px"">Premi <strong>k</strong> per sì, <strong>d</strong> per no.</p>","","UdbdTmTm","testing","d","false","","",""
"html-keyboard-response","366","663528","0.0-16.0-0.31","5ed54d02957bee0c0de36cac","64afc2c9a8732ea92db0087d","64aff82e2d61c8c70a078e4d","1867","k","<p style=""font-size: 30px"">&emsp;</p><br><p style=""font-size: 60px; font-family: BACS"">PYkCcDR<p style=""font-size: 15px"">Premi <strong>k</strong> per sì, <strong>d</strong> per no.</p>","","PYkCcDR","testing","k","true","","",""
"html-keyboard-response","367","664701","0.0-16.0-0.32","5ed54d02957bee0c0de36cac","64afc2c9a8732ea92db0087d","64aff82e2d61c8c70a078e4d","1172","d","<p style=""font-size: 30px"">&emsp;</p><br><p style=""font-size: 60px; font-family: BACS"">bAdkvUdm<p style=""font-size: 15px"">Premi <strong>k</strong> per sì, <strong>d</strong> per no.</p>","","bAdkvUdm","testing","d","true","","",""
"html-keyboard-response","368","666182","0.0-16.0-0.33","5ed54d02957bee0c0de36cac","64afc2c9a8732ea92db0087d","64aff82e2d61c8c70a078e4d","1481","d","<p style=""font-size: 30px"">&emsp;</p><br><p style=""font-size: 60px; font-family: BACS"">OYuvbAPT<p style=""font-size: 15px"">Premi <strong>k</strong> per sì, <strong>d</strong> per no.</p>","","OYuvbAPT","testing","d","true","","",""
"html-keyboard-response","369","667456","0.0-16.0-0.34","5ed54d02957bee0c0de36cac","64afc2c9a8732ea92db0087d","64aff82e2d61c8c70a078e4d","1274","k","<p style=""font-size: 30px"">&emsp;</p><br><p style=""font-size: 60px; font-family: BACS"">PYkCuZc<p style=""font-size: 15px"">Premi <strong>k</strong> per sì, <strong>d</strong> per no.</p>","","PYkCuZc","testing","d","false","","",""
"html-keyboard-response","370","669498","0.0-16.0-0.35","5ed54d02957bee0c0de36cac","64afc2c9a8732ea92db0087d","64aff82e2d61c8c70a078e4d","2041","k","<p style=""font-size: 30px"">&emsp;</p><br><p style=""font-size: 60px; font-family: BACS"">YQbcuvJ<p style=""font-size: 15px"">Premi <strong>k</strong> per sì, <strong>d</strong> per no.</p>","","YQbcuvJ","testing","k","true","","",""
"html-keyboard-response","371","670309","0.0-16.0-1.35-0.35","5ed54d02957bee0c0de36cac","64afc2c9a8732ea92db0087d","64aff82e2d61c8c70a078e4d","811"," ","<p style=""font-size: 30px; color: red"">Attenzione! Sei stato troppo lento con questa parola.</p>
      <p style=""font-size: 30px; color: red"">Cerca di essere più veloce.</p><p></p><p>Premi la barra per continuare.</p>","","","","","","","",""
