"trial_type","trial_index","time_elapsed","internal_node_id","subject_id","study_id","session_id","rt","response","stimulus","success","item","task","correct_response","testing_condition","correct","target","confound","name"
"pavlovia","0","1042","0.0-0.0","616631efeeac0979c1ba85a9","650c16f0f2faf8d7a0d14c09","651c1d9acc2be51dd84eb2b5","","","","","","","","","","","",""
"survey-html-form","1","116621","0.0-1.0","616631efeeac0979c1ba85a9","650c16f0f2faf8d7a0d14c09","651c1d9acc2be51dd84eb2b5","115576","{""ID"":""616631efeeac0979c1ba85a9""}","","","","","","","","","",""
"html-keyboard-response","2","132633","0.0-2.0","616631efeeac0979c1ba85a9","650c16f0f2faf8d7a0d14c09","651c1d9acc2be51dd84eb2b5","16010"," ","<p style=""font-size: 15px;"">Before beginning, we ask that you read the consent information and confirm your agreement to participate in the experiment.</p>
      <p style=""font-size: 15px;""> We ask that you remember that this is a research project and that your participation is entirely voluntary. You can stop your participation at any time, without needing to provide any explanation. The study we're asking you to participate in aims at examining how readers process written words. You will be engaged in a session of apprximately 20 minutes, followed by a brief questionnaire. You will have the opportunity to take a few breaks during the experiment. You will be paid £4 for your participation, corresponding to a rate of £8/hour. While this experiment looks at cognitive faculties, this experiment doesn't constitute clinical proof of eventual pathologies.</p>
      <p style=""font-size: 15px;"">All of the information collected thanks to yours and others' participation will be held in a secure password-protected server, and will not be shared with anyone not authorised to view it. Your personal information will be kept with an arbitrary participant ID. Thanks to this data anonymity process, any researcher analysing the data won't be able to track the information back to a specific participant. Therefore, this process will make identifying you impossibile, even when results from the study will be published in scientific reviews, presented at congresses, or at any other public forum. More generally, the collected data will be treated in accordance with the laws on privacy and conformity to the Legislative Degree n. 196 ""Code regarding the protection of personal data"" of the 30th of June 2003 and to the European Regulation 2016/670 (General Data Protection Regulation - GDPR). The Data Protection Officer is Avv. Valentina Carollo, who can be contacted at the following email addresses: <a href=""mailto:dpo@sissa.it"">dpo@sissa.it</a> or <a href=""mailto:rpd@sissa.it"">rpd@sissa.it</a> - PEC: <a href=""mailto:protocollo@pec.sissa.it"">protocollo@pec.sissa.it</a>.</p>
      <p style=""font-size: 15px;""> Before expressing your consent to participate, we would like to remind you again that in case you need explanations on any aspect of the experimental procedure, the researcher is at your disposition (<a href=""mailto:aliebelt@sissa.it"">aliebelt@sissa.it</a>, <a href=""mailto:davide.crepaldi@sissa.it"">davide.crepaldi@sissa.it</a>).</p>
      <p style=""font-size: 15px;"">If you would like to download the informed consent form, you can do so here: <a href=""BASL-Informed_Consent.pdf"" download>informed consent form</a>.</p>
      <p style=""font-size: 15px;"">We ask that you press the spacebar to proceed to the consent section.</p>","","","","","","","","",""
"survey-html-form","3","140028","0.0-3.0","616631efeeac0979c1ba85a9","650c16f0f2faf8d7a0d14c09","651c1d9acc2be51dd84eb2b5","7394","{""consent1"":""YES"",""consent2"":""YES"",""consent3"":""YES"",""consent4"":""YES"",""consent5"":""YES"",""consent6"":""YES""}","","","","","","","","","",""
"fullscreen","4","143457","0.0-4.0","616631efeeac0979c1ba85a9","650c16f0f2faf8d7a0d14c09","651c1d9acc2be51dd84eb2b5","","","","true","","","","","","","",""
"html-keyboard-response","5","175889","0.0-5.0","616631efeeac0979c1ba85a9","650c16f0f2faf8d7a0d14c09","651c1d9acc2be51dd84eb2b5","32431"," ","<p>Welcome, and thank you very much for your time!</p>
      <p>In this experiment, you'll be a language expert who's been asked to take a look at words that Earth has received in its first communication with aliens. Your task, in this first part of the experiment, is to pay close attention to the words you'll be shown; later, world leaders will ask you questions on what you saw. The words will be shown to you quite quickly; it seems that the aliens were in a hurry :-)</p>
      <p>Press the spacebar to continue.<p>","","","","","","","","",""
"html-keyboard-response","6","175940","0.0-6.0","616631efeeac0979c1ba85a9","650c16f0f2faf8d7a0d14c09","651c1d9acc2be51dd84eb2b5","null","null","<p style=""font-size: 120px; font-family: BACS""> </p>","","","","","","","","",""
"html-keyboard-response","7","180000","0.0-7.0","616631efeeac0979c1ba85a9","650c16f0f2faf8d7a0d14c09","651c1d9acc2be51dd84eb2b5","4059"," ","<p>Here is an example of the words you'll see:</p>
      <img src='esempio.png' height='400px'>
      <p>When you're ready to begin, press the spacebar.</p></div>","","","","","","","","",""
"html-keyboard-response","8","181008","0.0-8.0-0.0","616631efeeac0979c1ba85a9","650c16f0f2faf8d7a0d14c09","651c1d9acc2be51dd84eb2b5","null","null","<p style=""font-size: 60px; font-family: BACS"">OkGYAld</p>","","","","","","","","",""
"html-keyboard-response","9","182012","0.0-8.0-0.1","616631efeeac0979c1ba85a9","650c16f0f2faf8d7a0d14c09","651c1d9acc2be51dd84eb2b5","null","null","<p style=""font-size: 60px; font-family: BACS"">OmtlDdTAh</p>","","","","","","","","",""
"html-keyboard-response","10","183015","0.0-8.0-0.2","616631efeeac0979c1ba85a9","650c16f0f2faf8d7a0d14c09","651c1d9acc2be51dd84eb2b5","null","null","<p style=""font-size: 60px; font-family: BACS"">tRPDmKcD</p>","","","","","","","","",""
"html-keyboard-response","11","184020","0.0-8.0-0.3","616631efeeac0979c1ba85a9","650c16f0f2faf8d7a0d14c09","651c1d9acc2be51dd84eb2b5","null","null","<p style=""font-size: 60px; font-family: BACS"">ctktbdtK</p>","","","","","","","","",""
"html-keyboard-response","12","185023","0.0-8.0-0.4","616631efeeac0979c1ba85a9","650c16f0f2faf8d7a0d14c09","651c1d9acc2be51dd84eb2b5","null","null","<p style=""font-size: 60px; font-family: BACS"">OkGYkGua</p>","","","","","","","","",""
"html-keyboard-response","13","186028","0.0-8.0-0.5","616631efeeac0979c1ba85a9","650c16f0f2faf8d7a0d14c09","651c1d9acc2be51dd84eb2b5","null","null","<p style=""font-size: 60px; font-family: BACS"">ctktmKcD</p>","","","","","","","","",""
"html-keyboard-response","14","187032","0.0-8.0-0.6","616631efeeac0979c1ba85a9","650c16f0f2faf8d7a0d14c09","651c1d9acc2be51dd84eb2b5","null","null","<p style=""font-size: 60px; font-family: BACS"">PMPtkbdtK</p>","","","","","","","","",""
"html-keyboard-response","15","188040","0.0-8.0-0.7","616631efeeac0979c1ba85a9","650c16f0f2faf8d7a0d14c09","651c1d9acc2be51dd84eb2b5","null","null","<p style=""font-size: 60px; font-family: BACS"">KElBbTE</p>","","","","","","","","",""
"html-keyboard-response","16","189053","0.0-8.0-0.8","616631efeeac0979c1ba85a9","650c16f0f2faf8d7a0d14c09","651c1d9acc2be51dd84eb2b5","null","null","<p style=""font-size: 60px; font-family: BACS"">PMPtkmKcD</p>","","","","","","","","",""
"html-keyboard-response","17","190058","0.0-8.0-0.9","616631efeeac0979c1ba85a9","650c16f0f2faf8d7a0d14c09","651c1d9acc2be51dd84eb2b5","null","null","<p style=""font-size: 60px; font-family: BACS"">OmtlDmCd</p>","","","","","","","","",""
"html-keyboard-response","18","191060","0.0-8.0-0.10","616631efeeac0979c1ba85a9","650c16f0f2faf8d7a0d14c09","651c1d9acc2be51dd84eb2b5","null","null","<p style=""font-size: 60px; font-family: BACS"">kdEdYbTE</p>","","","","","","","","",""
"html-keyboard-response","19","192077","0.0-8.0-0.11","616631efeeac0979c1ba85a9","650c16f0f2faf8d7a0d14c09","651c1d9acc2be51dd84eb2b5","null","null","<p style=""font-size: 60px; font-family: BACS"">vkYGlNac</p>","","","","","","","","",""
"html-keyboard-response","20","193091","0.0-8.0-0.12","616631efeeac0979c1ba85a9","650c16f0f2faf8d7a0d14c09","651c1d9acc2be51dd84eb2b5","null","null","<p style=""font-size: 60px; font-family: BACS"">KElBdTAh</p>","","","","","","","","",""
"html-keyboard-response","21","194108","0.0-8.0-0.13","616631efeeac0979c1ba85a9","650c16f0f2faf8d7a0d14c09","651c1d9acc2be51dd84eb2b5","null","null","<p style=""font-size: 60px; font-family: BACS"">NJZlkGua</p>","","","","","","","","",""
"html-keyboard-response","22","195112","0.0-8.0-0.14","616631efeeac0979c1ba85a9","650c16f0f2faf8d7a0d14c09","651c1d9acc2be51dd84eb2b5","null","null","<p style=""font-size: 60px; font-family: BACS"">ukYZNac</p>","","","","","","","","",""
"html-keyboard-response","23","196113","0.0-8.0-0.15","616631efeeac0979c1ba85a9","650c16f0f2faf8d7a0d14c09","651c1d9acc2be51dd84eb2b5","null","null","<p style=""font-size: 60px; font-family: BACS"">NJZlAld</p>","","","","","","","","",""
"html-keyboard-response","24","197117","0.0-8.0-0.16","616631efeeac0979c1ba85a9","650c16f0f2faf8d7a0d14c09","651c1d9acc2be51dd84eb2b5","null","null","<p style=""font-size: 60px; font-family: BACS"">tRPDbTE</p>","","","","","","","","",""
"html-keyboard-response","25","198132","0.0-8.0-0.17","616631efeeac0979c1ba85a9","650c16f0f2faf8d7a0d14c09","651c1d9acc2be51dd84eb2b5","null","null","<p style=""font-size: 60px; font-family: BACS"">dCtMAbdtK</p>","","","","","","","","",""
"html-keyboard-response","26","199148","0.0-8.0-0.18","616631efeeac0979c1ba85a9","650c16f0f2faf8d7a0d14c09","651c1d9acc2be51dd84eb2b5","null","null","<p style=""font-size: 60px; font-family: BACS"">JNkaAZbl</p>","","","","","","","","",""
"html-keyboard-response","27","200151","0.0-8.0-0.19","616631efeeac0979c1ba85a9","650c16f0f2faf8d7a0d14c09","651c1d9acc2be51dd84eb2b5","null","null","<p style=""font-size: 60px; font-family: BACS"">kdEdYbdtK</p>","","","","","","","","",""
"html-keyboard-response","28","201154","0.0-8.0-0.20","616631efeeac0979c1ba85a9","650c16f0f2faf8d7a0d14c09","651c1d9acc2be51dd84eb2b5","null","null","<p style=""font-size: 60px; font-family: BACS"">JauQAZbl</p>","","","","","","","","",""
"html-keyboard-response","29","202157","0.0-8.0-0.21","616631efeeac0979c1ba85a9","650c16f0f2faf8d7a0d14c09","651c1d9acc2be51dd84eb2b5","null","null","<p style=""font-size: 60px; font-family: BACS"">ukYZAld</p>","","","","","","","","",""
"html-keyboard-response","30","203159","0.0-8.0-0.22","616631efeeac0979c1ba85a9","650c16f0f2faf8d7a0d14c09","651c1d9acc2be51dd84eb2b5","null","null","<p style=""font-size: 60px; font-family: BACS"">OmtlDmKcD</p>","","","","","","","","",""
"html-keyboard-response","31","204165","0.0-8.0-0.23","616631efeeac0979c1ba85a9","650c16f0f2faf8d7a0d14c09","651c1d9acc2be51dd84eb2b5","null","null","<p style=""font-size: 60px; font-family: BACS"">UdYUQNac</p>","","","","","","","","",""
"html-keyboard-response","32","205168","0.0-8.0-0.24","616631efeeac0979c1ba85a9","650c16f0f2faf8d7a0d14c09","651c1d9acc2be51dd84eb2b5","null","null","<p style=""font-size: 60px; font-family: BACS"">dCtMAmCd</p>","","","","","","","","",""
"html-keyboard-response","33","206169","0.0-8.0-0.25","616631efeeac0979c1ba85a9","650c16f0f2faf8d7a0d14c09","651c1d9acc2be51dd84eb2b5","null","null","<p style=""font-size: 60px; font-family: BACS"">dKRDbTE</p>","","","","","","","","",""
"html-keyboard-response","34","207174","0.0-8.0-0.26","616631efeeac0979c1ba85a9","650c16f0f2faf8d7a0d14c09","651c1d9acc2be51dd84eb2b5","null","null","<p style=""font-size: 60px; font-family: BACS"">TdmAbdtK</p>","","","","","","","","",""
"html-keyboard-response","35","208177","0.0-8.0-0.27","616631efeeac0979c1ba85a9","650c16f0f2faf8d7a0d14c09","651c1d9acc2be51dd84eb2b5","null","null","<p style=""font-size: 60px; font-family: BACS"">UdYUQrNlZ</p>","","","","","","","","",""
"html-keyboard-response","36","209181","0.0-8.0-0.28","616631efeeac0979c1ba85a9","650c16f0f2faf8d7a0d14c09","651c1d9acc2be51dd84eb2b5","null","null","<p style=""font-size: 60px; font-family: BACS"">dKRDdTAh</p>","","","","","","","","",""
"html-keyboard-response","37","210185","0.0-8.0-0.29","616631efeeac0979c1ba85a9","650c16f0f2faf8d7a0d14c09","651c1d9acc2be51dd84eb2b5","null","null","<p style=""font-size: 60px; font-family: BACS"">UdYUQkGua</p>","","","","","","","","",""
"html-keyboard-response","38","211185","0.0-8.0-0.30","616631efeeac0979c1ba85a9","650c16f0f2faf8d7a0d14c09","651c1d9acc2be51dd84eb2b5","null","null","<p style=""font-size: 60px; font-family: BACS"">JNkaNac</p>","","","","","","","","",""
"html-keyboard-response","39","212188","0.0-8.0-0.31","616631efeeac0979c1ba85a9","650c16f0f2faf8d7a0d14c09","651c1d9acc2be51dd84eb2b5","null","null","<p style=""font-size: 60px; font-family: BACS"">kdEdYmKcD</p>","","","","","","","","",""
"html-keyboard-response","40","213203","0.0-8.0-0.32","616631efeeac0979c1ba85a9","650c16f0f2faf8d7a0d14c09","651c1d9acc2be51dd84eb2b5","null","null","<p style=""font-size: 60px; font-family: BACS"">vkYGlAZbl</p>","","","","","","","","",""
"html-keyboard-response","41","214206","0.0-8.0-0.33","616631efeeac0979c1ba85a9","650c16f0f2faf8d7a0d14c09","651c1d9acc2be51dd84eb2b5","null","null","<p style=""font-size: 60px; font-family: BACS"">KElBmKcD</p>","","","","","","","","",""
"html-keyboard-response","42","215210","0.0-8.0-0.34","616631efeeac0979c1ba85a9","650c16f0f2faf8d7a0d14c09","651c1d9acc2be51dd84eb2b5","null","null","<p style=""font-size: 60px; font-family: BACS"">dCtMAdTAh</p>","","","","","","","","",""
"html-keyboard-response","43","216216","0.0-8.0-0.35","616631efeeac0979c1ba85a9","650c16f0f2faf8d7a0d14c09","651c1d9acc2be51dd84eb2b5","null","null","<p style=""font-size: 60px; font-family: BACS"">DBPhcmCd</p>","","","","","","","","",""
"html-keyboard-response","44","217217","0.0-8.0-0.36","616631efeeac0979c1ba85a9","650c16f0f2faf8d7a0d14c09","651c1d9acc2be51dd84eb2b5","null","null","<p style=""font-size: 60px; font-family: BACS"">vkYGlAld</p>","","","","","","","","",""
"html-keyboard-response","45","218234","0.0-8.0-0.37","616631efeeac0979c1ba85a9","650c16f0f2faf8d7a0d14c09","651c1d9acc2be51dd84eb2b5","null","null","<p style=""font-size: 60px; font-family: BACS"">NJZlAZbl</p>","","","","","","","","",""
"html-keyboard-response","46","219249","0.0-8.0-0.38","616631efeeac0979c1ba85a9","650c16f0f2faf8d7a0d14c09","651c1d9acc2be51dd84eb2b5","null","null","<p style=""font-size: 60px; font-family: BACS"">vkYGlrNlZ</p>","","","","","","","","",""
"html-keyboard-response","47","220250","0.0-8.0-0.39","616631efeeac0979c1ba85a9","650c16f0f2faf8d7a0d14c09","651c1d9acc2be51dd84eb2b5","null","null","<p style=""font-size: 60px; font-family: BACS"">JauQkGua</p>","","","","","","","","",""
"html-keyboard-response","48","221253","0.0-8.0-0.40","616631efeeac0979c1ba85a9","650c16f0f2faf8d7a0d14c09","651c1d9acc2be51dd84eb2b5","null","null","<p style=""font-size: 60px; font-family: BACS"">NbmQUNac</p>","","","","","","","","",""
"html-keyboard-response","49","222257","0.0-8.0-0.41","616631efeeac0979c1ba85a9","650c16f0f2faf8d7a0d14c09","651c1d9acc2be51dd84eb2b5","null","null","<p style=""font-size: 60px; font-family: BACS"">PMPtkdTAh</p>","","","","","","","","",""
"html-keyboard-response","50","223259","0.0-8.0-0.42","616631efeeac0979c1ba85a9","650c16f0f2faf8d7a0d14c09","651c1d9acc2be51dd84eb2b5","null","null","<p style=""font-size: 60px; font-family: BACS"">JauQAld</p>","","","","","","","","",""
"html-keyboard-response","51","224261","0.0-8.0-0.43","616631efeeac0979c1ba85a9","650c16f0f2faf8d7a0d14c09","651c1d9acc2be51dd84eb2b5","null","null","<p style=""font-size: 60px; font-family: BACS"">ukYZrNlZ</p>","","","","","","","","",""
"html-keyboard-response","52","225264","0.0-8.0-0.44","616631efeeac0979c1ba85a9","650c16f0f2faf8d7a0d14c09","651c1d9acc2be51dd84eb2b5","null","null","<p style=""font-size: 60px; font-family: BACS"">TdmAbTE</p>","","","","","","","","",""
"html-keyboard-response","53","226266","0.0-8.0-0.45","616631efeeac0979c1ba85a9","650c16f0f2faf8d7a0d14c09","651c1d9acc2be51dd84eb2b5","null","null","<p style=""font-size: 60px; font-family: BACS"">PMPtkmCd</p>","","","","","","","","",""
"html-keyboard-response","54","227271","0.0-8.0-0.46","616631efeeac0979c1ba85a9","650c16f0f2faf8d7a0d14c09","651c1d9acc2be51dd84eb2b5","null","null","<p style=""font-size: 60px; font-family: BACS"">OkGYAZbl</p>","","","","","","","","",""
"html-keyboard-response","55","228286","0.0-8.0-0.47","616631efeeac0979c1ba85a9","650c16f0f2faf8d7a0d14c09","651c1d9acc2be51dd84eb2b5","null","null","<p style=""font-size: 60px; font-family: BACS"">NbmQUAld</p>","","","","","","","","",""
"html-keyboard-response","56","229302","0.0-8.0-0.48","616631efeeac0979c1ba85a9","650c16f0f2faf8d7a0d14c09","651c1d9acc2be51dd84eb2b5","null","null","<p style=""font-size: 60px; font-family: BACS"">OAblckGua</p>","","","","","","","","",""
"html-keyboard-response","57","230316","0.0-8.0-0.49","616631efeeac0979c1ba85a9","650c16f0f2faf8d7a0d14c09","651c1d9acc2be51dd84eb2b5","null","null","<p style=""font-size: 60px; font-family: BACS"">OkGYrNlZ</p>","","","","","","","","",""
"html-keyboard-response","58","231332","0.0-8.0-0.50","616631efeeac0979c1ba85a9","650c16f0f2faf8d7a0d14c09","651c1d9acc2be51dd84eb2b5","null","null","<p style=""font-size: 60px; font-family: BACS"">OAblcNac</p>","","","","","","","","",""
"html-keyboard-response","59","232334","0.0-8.0-0.51","616631efeeac0979c1ba85a9","650c16f0f2faf8d7a0d14c09","651c1d9acc2be51dd84eb2b5","null","null","<p style=""font-size: 60px; font-family: BACS"">KElBbdtK</p>","","","","","","","","",""
"html-keyboard-response","60","233338","0.0-8.0-0.52","616631efeeac0979c1ba85a9","650c16f0f2faf8d7a0d14c09","651c1d9acc2be51dd84eb2b5","null","null","<p style=""font-size: 60px; font-family: BACS"">dCtMAbTE</p>","","","","","","","","",""
"html-keyboard-response","61","234343","0.0-8.0-0.53","616631efeeac0979c1ba85a9","650c16f0f2faf8d7a0d14c09","651c1d9acc2be51dd84eb2b5","null","null","<p style=""font-size: 60px; font-family: BACS"">alJYNac</p>","","","","","","","","",""
"html-keyboard-response","62","235358","0.0-8.0-0.54","616631efeeac0979c1ba85a9","650c16f0f2faf8d7a0d14c09","651c1d9acc2be51dd84eb2b5","null","null","<p style=""font-size: 60px; font-family: BACS"">dKRDmCd</p>","","","","","","","","",""
"html-keyboard-response","63","236374","0.0-8.0-0.55","616631efeeac0979c1ba85a9","650c16f0f2faf8d7a0d14c09","651c1d9acc2be51dd84eb2b5","null","null","<p style=""font-size: 60px; font-family: BACS"">ctktbTE</p>","","","","","","","","",""
"html-keyboard-response","64","237379","0.0-8.0-0.56","616631efeeac0979c1ba85a9","650c16f0f2faf8d7a0d14c09","651c1d9acc2be51dd84eb2b5","null","null","<p style=""font-size: 60px; font-family: BACS"">TdmAmKcD</p>","","","","","","","","",""
"html-keyboard-response","65","238396","0.0-8.0-0.57","616631efeeac0979c1ba85a9","650c16f0f2faf8d7a0d14c09","651c1d9acc2be51dd84eb2b5","null","null","<p style=""font-size: 60px; font-family: BACS"">UdYUQAZbl</p>","","","","","","","","",""
"html-keyboard-response","66","239401","0.0-8.0-0.58","616631efeeac0979c1ba85a9","650c16f0f2faf8d7a0d14c09","651c1d9acc2be51dd84eb2b5","null","null","<p style=""font-size: 60px; font-family: BACS"">NbmQUkGua</p>","","","","","","","","",""
"html-keyboard-response","67","240402","0.0-8.0-0.59","616631efeeac0979c1ba85a9","650c16f0f2faf8d7a0d14c09","651c1d9acc2be51dd84eb2b5","null","null","<p style=""font-size: 60px; font-family: BACS"">DBPhcmKcD</p>","","","","","","","","",""
"html-keyboard-response","68","241416","0.0-8.0-0.60","616631efeeac0979c1ba85a9","650c16f0f2faf8d7a0d14c09","651c1d9acc2be51dd84eb2b5","null","null","<p style=""font-size: 60px; font-family: BACS"">alJYkGua</p>","","","","","","","","",""
"html-keyboard-response","69","242431","0.0-8.0-0.61","616631efeeac0979c1ba85a9","650c16f0f2faf8d7a0d14c09","651c1d9acc2be51dd84eb2b5","null","null","<p style=""font-size: 60px; font-family: BACS"">OmtlDbTE</p>","","","","","","","","",""
"html-keyboard-response","70","243438","0.0-8.0-0.62","616631efeeac0979c1ba85a9","650c16f0f2faf8d7a0d14c09","651c1d9acc2be51dd84eb2b5","null","null","<p style=""font-size: 60px; font-family: BACS"">dKRDbdtK</p>","","","","","","","","",""
"html-keyboard-response","71","244454","0.0-8.0-0.63","616631efeeac0979c1ba85a9","650c16f0f2faf8d7a0d14c09","651c1d9acc2be51dd84eb2b5","null","null","<p style=""font-size: 60px; font-family: BACS"">kdEdYmCd</p>","","","","","","","","",""
"html-keyboard-response","72","245458","0.0-8.0-0.64","616631efeeac0979c1ba85a9","650c16f0f2faf8d7a0d14c09","651c1d9acc2be51dd84eb2b5","null","null","<p style=""font-size: 60px; font-family: BACS"">NbmQUrNlZ</p>","","","","","","","","",""
"html-keyboard-response","73","246461","0.0-8.0-0.65","616631efeeac0979c1ba85a9","650c16f0f2faf8d7a0d14c09","651c1d9acc2be51dd84eb2b5","null","null","<p style=""font-size: 60px; font-family: BACS"">alJYAZbl</p>","","","","","","","","",""
"html-keyboard-response","74","247473","0.0-8.0-0.66","616631efeeac0979c1ba85a9","650c16f0f2faf8d7a0d14c09","651c1d9acc2be51dd84eb2b5","null","null","<p style=""font-size: 60px; font-family: BACS"">TdmAmCd</p>","","","","","","","","",""
"html-keyboard-response","75","248489","0.0-8.0-0.67","616631efeeac0979c1ba85a9","650c16f0f2faf8d7a0d14c09","651c1d9acc2be51dd84eb2b5","null","null","<p style=""font-size: 60px; font-family: BACS"">ctktdTAh</p>","","","","","","","","",""
"html-keyboard-response","76","249491","0.0-8.0-0.68","616631efeeac0979c1ba85a9","650c16f0f2faf8d7a0d14c09","651c1d9acc2be51dd84eb2b5","null","null","<p style=""font-size: 60px; font-family: BACS"">tRPDmCd</p>","","","","","","","","",""
"html-keyboard-response","77","250495","0.0-8.0-0.69","616631efeeac0979c1ba85a9","650c16f0f2faf8d7a0d14c09","651c1d9acc2be51dd84eb2b5","null","null","<p style=""font-size: 60px; font-family: BACS"">JNkaAld</p>","","","","","","","","",""
"html-keyboard-response","78","251499","0.0-8.0-0.70","616631efeeac0979c1ba85a9","650c16f0f2faf8d7a0d14c09","651c1d9acc2be51dd84eb2b5","null","null","<p style=""font-size: 60px; font-family: BACS"">DBPhcdTAh</p>","","","","","","","","",""
"html-keyboard-response","79","252515","0.0-8.0-0.71","616631efeeac0979c1ba85a9","650c16f0f2faf8d7a0d14c09","651c1d9acc2be51dd84eb2b5","null","null","<p style=""font-size: 60px; font-family: BACS"">JauQNac</p>","","","","","","","","",""
"html-keyboard-response","80","253516","0.0-8.0-0.72","616631efeeac0979c1ba85a9","650c16f0f2faf8d7a0d14c09","651c1d9acc2be51dd84eb2b5","null","null","<p style=""font-size: 60px; font-family: BACS"">OAblcAld</p>","","","","","","","","",""
"html-keyboard-response","81","254530","0.0-8.0-0.73","616631efeeac0979c1ba85a9","650c16f0f2faf8d7a0d14c09","651c1d9acc2be51dd84eb2b5","null","null","<p style=""font-size: 60px; font-family: BACS"">alJYrNlZ</p>","","","","","","","","",""
"html-keyboard-response","82","255543","0.0-8.0-0.74","616631efeeac0979c1ba85a9","650c16f0f2faf8d7a0d14c09","651c1d9acc2be51dd84eb2b5","null","null","<p style=""font-size: 60px; font-family: BACS"">ukYZkGua</p>","","","","","","","","",""
"html-keyboard-response","83","256545","0.0-8.0-0.75","616631efeeac0979c1ba85a9","650c16f0f2faf8d7a0d14c09","651c1d9acc2be51dd84eb2b5","null","null","<p style=""font-size: 60px; font-family: BACS"">NJZlrNlZ</p>","","","","","","","","",""
"html-keyboard-response","84","257558","0.0-8.0-0.76","616631efeeac0979c1ba85a9","650c16f0f2faf8d7a0d14c09","651c1d9acc2be51dd84eb2b5","null","null","<p style=""font-size: 60px; font-family: BACS"">DBPhcbdtK</p>","","","","","","","","",""
"html-keyboard-response","85","258560","0.0-8.0-0.77","616631efeeac0979c1ba85a9","650c16f0f2faf8d7a0d14c09","651c1d9acc2be51dd84eb2b5","null","null","<p style=""font-size: 60px; font-family: BACS"">OAblcAZbl</p>","","","","","","","","",""
"html-keyboard-response","86","259573","0.0-8.0-0.78","616631efeeac0979c1ba85a9","650c16f0f2faf8d7a0d14c09","651c1d9acc2be51dd84eb2b5","null","null","<p style=""font-size: 60px; font-family: BACS"">JNkarNlZ</p>","","","","","","","","",""
"html-keyboard-response","87","260576","0.0-8.0-0.79","616631efeeac0979c1ba85a9","650c16f0f2faf8d7a0d14c09","651c1d9acc2be51dd84eb2b5","null","null","<p style=""font-size: 60px; font-family: BACS"">tRPDdTAh</p>","","","","","","","","",""
"html-keyboard-response","88","631238","0.0-9.0","616631efeeac0979c1ba85a9","650c16f0f2faf8d7a0d14c09","651c1d9acc2be51dd84eb2b5","370661"," ","<p>Great, you've seen the first block of words. You may now take a short break.</p>
      <p>Press the spacebar when you're ready to continue.</p>","","","","","","","","",""
"html-keyboard-response","89","632252","0.0-10.0-0.0","616631efeeac0979c1ba85a9","650c16f0f2faf8d7a0d14c09","651c1d9acc2be51dd84eb2b5","null","null","<p style=""font-size: 60px; font-family: BACS"">dKRDmCd</p>","","","","","","","","",""
"html-keyboard-response","90","633256","0.0-10.0-0.1","616631efeeac0979c1ba85a9","650c16f0f2faf8d7a0d14c09","651c1d9acc2be51dd84eb2b5","null","null","<p style=""font-size: 60px; font-family: BACS"">OmtlDmKcD</p>","","","","","","","","",""
"html-keyboard-response","91","634272","0.0-10.0-0.2","616631efeeac0979c1ba85a9","650c16f0f2faf8d7a0d14c09","651c1d9acc2be51dd84eb2b5","null","null","<p style=""font-size: 60px; font-family: BACS"">OkGYkGua</p>","","","","","","","","",""
"html-keyboard-response","92","635274","0.0-10.0-0.3","616631efeeac0979c1ba85a9","650c16f0f2faf8d7a0d14c09","651c1d9acc2be51dd84eb2b5","null","null","<p style=""font-size: 60px; font-family: BACS"">KElBbTE</p>","","","","","","","","",""
"html-keyboard-response","93","636290","0.0-10.0-0.4","616631efeeac0979c1ba85a9","650c16f0f2faf8d7a0d14c09","651c1d9acc2be51dd84eb2b5","null","null","<p style=""font-size: 60px; font-family: BACS"">dCtMAdTAh</p>","","","","","","","","",""
"html-keyboard-response","94","637293","0.0-10.0-0.5","616631efeeac0979c1ba85a9","650c16f0f2faf8d7a0d14c09","651c1d9acc2be51dd84eb2b5","null","null","<p style=""font-size: 60px; font-family: BACS"">OkGYAZbl</p>","","","","","","","","",""
"html-keyboard-response","95","638309","0.0-10.0-0.6","616631efeeac0979c1ba85a9","650c16f0f2faf8d7a0d14c09","651c1d9acc2be51dd84eb2b5","null","null","<p style=""font-size: 60px; font-family: BACS"">dKRDdTAh</p>","","","","","","","","",""
"html-keyboard-response","96","639312","0.0-10.0-0.7","616631efeeac0979c1ba85a9","650c16f0f2faf8d7a0d14c09","651c1d9acc2be51dd84eb2b5","null","null","<p style=""font-size: 60px; font-family: BACS"">OAblckGua</p>","","","","","","","","",""
"html-keyboard-response","97","640319","0.0-10.0-0.8","616631efeeac0979c1ba85a9","650c16f0f2faf8d7a0d14c09","651c1d9acc2be51dd84eb2b5","null","null","<p style=""font-size: 60px; font-family: BACS"">DBPhcdTAh</p>","","","","","","","","",""
"html-keyboard-response","98","641321","0.0-10.0-0.9","616631efeeac0979c1ba85a9","650c16f0f2faf8d7a0d14c09","651c1d9acc2be51dd84eb2b5","null","null","<p style=""font-size: 60px; font-family: BACS"">JNkaAZbl</p>","","","","","","","","",""
"html-keyboard-response","99","642325","0.0-10.0-0.10","616631efeeac0979c1ba85a9","650c16f0f2faf8d7a0d14c09","651c1d9acc2be51dd84eb2b5","null","null","<p style=""font-size: 60px; font-family: BACS"">ukYZNac</p>","","","","","","","","",""
"html-keyboard-response","100","643329","0.0-10.0-0.11","616631efeeac0979c1ba85a9","650c16f0f2faf8d7a0d14c09","651c1d9acc2be51dd84eb2b5","null","null","<p style=""font-size: 60px; font-family: BACS"">tRPDdTAh</p>","","","","","","","","",""
"html-keyboard-response","101","644345","0.0-10.0-0.12","616631efeeac0979c1ba85a9","650c16f0f2faf8d7a0d14c09","651c1d9acc2be51dd84eb2b5","null","null","<p style=""font-size: 60px; font-family: BACS"">OAblcAZbl</p>","","","","","","","","",""
"html-keyboard-response","102","645362","0.0-10.0-0.13","616631efeeac0979c1ba85a9","650c16f0f2faf8d7a0d14c09","651c1d9acc2be51dd84eb2b5","null","null","<p style=""font-size: 60px; font-family: BACS"">dCtMAmCd</p>","","","","","","","","",""
"html-keyboard-response","103","646377","0.0-10.0-0.14","616631efeeac0979c1ba85a9","650c16f0f2faf8d7a0d14c09","651c1d9acc2be51dd84eb2b5","null","null","<p style=""font-size: 60px; font-family: BACS"">ctktbTE</p>","","","","","","","","",""
"html-keyboard-response","104","647378","0.0-10.0-0.15","616631efeeac0979c1ba85a9","650c16f0f2faf8d7a0d14c09","651c1d9acc2be51dd84eb2b5","null","null","<p style=""font-size: 60px; font-family: BACS"">dKRDbdtK</p>","","","","","","","","",""
"html-keyboard-response","105","648382","0.0-10.0-0.16","616631efeeac0979c1ba85a9","650c16f0f2faf8d7a0d14c09","651c1d9acc2be51dd84eb2b5","null","null","<p style=""font-size: 60px; font-family: BACS"">alJYkGua</p>","","","","","","","","",""
"html-keyboard-response","106","649386","0.0-10.0-0.17","616631efeeac0979c1ba85a9","650c16f0f2faf8d7a0d14c09","651c1d9acc2be51dd84eb2b5","null","null","<p style=""font-size: 60px; font-family: BACS"">TdmAmCd</p>","","","","","","","","",""
"html-keyboard-response","107","650402","0.0-10.0-0.18","616631efeeac0979c1ba85a9","650c16f0f2faf8d7a0d14c09","651c1d9acc2be51dd84eb2b5","null","null","<p style=""font-size: 60px; font-family: BACS"">JNkaAld</p>","","","","","","","","",""
"html-keyboard-response","108","651407","0.0-10.0-0.19","616631efeeac0979c1ba85a9","650c16f0f2faf8d7a0d14c09","651c1d9acc2be51dd84eb2b5","null","null","<p style=""font-size: 60px; font-family: BACS"">NJZlAZbl</p>","","","","","","","","",""
"html-keyboard-response","109","652420","0.0-10.0-0.20","616631efeeac0979c1ba85a9","650c16f0f2faf8d7a0d14c09","651c1d9acc2be51dd84eb2b5","null","null","<p style=""font-size: 60px; font-family: BACS"">tRPDbTE</p>","","","","","","","","",""
"html-keyboard-response","110","653437","0.0-10.0-0.21","616631efeeac0979c1ba85a9","650c16f0f2faf8d7a0d14c09","651c1d9acc2be51dd84eb2b5","null","null","<p style=""font-size: 60px; font-family: BACS"">DBPhcbdtK</p>","","","","","","","","",""
"html-keyboard-response","111","654440","0.0-10.0-0.22","616631efeeac0979c1ba85a9","650c16f0f2faf8d7a0d14c09","651c1d9acc2be51dd84eb2b5","null","null","<p style=""font-size: 60px; font-family: BACS"">alJYNac</p>","","","","","","","","",""
"html-keyboard-response","112","655457","0.0-10.0-0.23","616631efeeac0979c1ba85a9","650c16f0f2faf8d7a0d14c09","651c1d9acc2be51dd84eb2b5","null","null","<p style=""font-size: 60px; font-family: BACS"">dCtMAbdtK</p>","","","","","","","","",""
"html-keyboard-response","113","656459","0.0-10.0-0.24","616631efeeac0979c1ba85a9","650c16f0f2faf8d7a0d14c09","651c1d9acc2be51dd84eb2b5","null","null","<p style=""font-size: 60px; font-family: BACS"">ukYZAld</p>","","","","","","","","",""
"html-keyboard-response","114","657461","0.0-10.0-0.25","616631efeeac0979c1ba85a9","650c16f0f2faf8d7a0d14c09","651c1d9acc2be51dd84eb2b5","null","null","<p style=""font-size: 60px; font-family: BACS"">JNkarNlZ</p>","","","","","","","","",""
"html-keyboard-response","115","658468","0.0-10.0-0.26","616631efeeac0979c1ba85a9","650c16f0f2faf8d7a0d14c09","651c1d9acc2be51dd84eb2b5","null","null","<p style=""font-size: 60px; font-family: BACS"">dCtMAbTE</p>","","","","","","","","",""
"html-keyboard-response","116","659483","0.0-10.0-0.27","616631efeeac0979c1ba85a9","650c16f0f2faf8d7a0d14c09","651c1d9acc2be51dd84eb2b5","null","null","<p style=""font-size: 60px; font-family: BACS"">UdYUQNac</p>","","","","","","","","",""
"html-keyboard-response","117","660499","0.0-10.0-0.28","616631efeeac0979c1ba85a9","650c16f0f2faf8d7a0d14c09","651c1d9acc2be51dd84eb2b5","null","null","<p style=""font-size: 60px; font-family: BACS"">vkYGlAld</p>","","","","","","","","",""
"html-keyboard-response","118","661515","0.0-10.0-0.29","616631efeeac0979c1ba85a9","650c16f0f2faf8d7a0d14c09","651c1d9acc2be51dd84eb2b5","null","null","<p style=""font-size: 60px; font-family: BACS"">OmtlDmCd</p>","","","","","","","","",""
"html-keyboard-response","119","662519","0.0-10.0-0.30","616631efeeac0979c1ba85a9","650c16f0f2faf8d7a0d14c09","651c1d9acc2be51dd84eb2b5","null","null","<p style=""font-size: 60px; font-family: BACS"">OkGYAld</p>","","","","","","","","",""
"html-keyboard-response","120","663523","0.0-10.0-0.31","616631efeeac0979c1ba85a9","650c16f0f2faf8d7a0d14c09","651c1d9acc2be51dd84eb2b5","null","null","<p style=""font-size: 60px; font-family: BACS"">DBPhcmCd</p>","","","","","","","","",""
"html-keyboard-response","121","664529","0.0-10.0-0.32","616631efeeac0979c1ba85a9","650c16f0f2faf8d7a0d14c09","651c1d9acc2be51dd84eb2b5","null","null","<p style=""font-size: 60px; font-family: BACS"">NbmQUrNlZ</p>","","","","","","","","",""
"html-keyboard-response","122","665532","0.0-10.0-0.33","616631efeeac0979c1ba85a9","650c16f0f2faf8d7a0d14c09","651c1d9acc2be51dd84eb2b5","null","null","<p style=""font-size: 60px; font-family: BACS"">TdmAmKcD</p>","","","","","","","","",""
"html-keyboard-response","123","666536","0.0-10.0-0.34","616631efeeac0979c1ba85a9","650c16f0f2faf8d7a0d14c09","651c1d9acc2be51dd84eb2b5","null","null","<p style=""font-size: 60px; font-family: BACS"">ctktbdtK</p>","","","","","","","","",""
"html-keyboard-response","124","667537","0.0-10.0-0.35","616631efeeac0979c1ba85a9","650c16f0f2faf8d7a0d14c09","651c1d9acc2be51dd84eb2b5","null","null","<p style=""font-size: 60px; font-family: BACS"">PMPtkdTAh</p>","","","","","","","","",""
"html-keyboard-response","125","668545","0.0-10.0-0.36","616631efeeac0979c1ba85a9","650c16f0f2faf8d7a0d14c09","651c1d9acc2be51dd84eb2b5","null","null","<p style=""font-size: 60px; font-family: BACS"">JNkaNac</p>","","","","","","","","",""
"html-keyboard-response","126","669561","0.0-10.0-0.37","616631efeeac0979c1ba85a9","650c16f0f2faf8d7a0d14c09","651c1d9acc2be51dd84eb2b5","null","null","<p style=""font-size: 60px; font-family: BACS"">PMPtkmKcD</p>","","","","","","","","",""
"html-keyboard-response","127","670576","0.0-10.0-0.38","616631efeeac0979c1ba85a9","650c16f0f2faf8d7a0d14c09","651c1d9acc2be51dd84eb2b5","null","null","<p style=""font-size: 60px; font-family: BACS"">kdEdYbdtK</p>","","","","","","","","",""
"html-keyboard-response","128","671591","0.0-10.0-0.39","616631efeeac0979c1ba85a9","650c16f0f2faf8d7a0d14c09","651c1d9acc2be51dd84eb2b5","null","null","<p style=""font-size: 60px; font-family: BACS"">dKRDbTE</p>","","","","","","","","",""
"html-keyboard-response","129","672607","0.0-10.0-0.40","616631efeeac0979c1ba85a9","650c16f0f2faf8d7a0d14c09","651c1d9acc2be51dd84eb2b5","null","null","<p style=""font-size: 60px; font-family: BACS"">JauQAld</p>","","","","","","","","",""
"html-keyboard-response","130","673612","0.0-10.0-0.41","616631efeeac0979c1ba85a9","650c16f0f2faf8d7a0d14c09","651c1d9acc2be51dd84eb2b5","null","null","<p style=""font-size: 60px; font-family: BACS"">NJZlrNlZ</p>","","","","","","","","",""
"html-keyboard-response","131","674613","0.0-10.0-0.42","616631efeeac0979c1ba85a9","650c16f0f2faf8d7a0d14c09","651c1d9acc2be51dd84eb2b5","null","null","<p style=""font-size: 60px; font-family: BACS"">kdEdYbTE</p>","","","","","","","","",""
"html-keyboard-response","132","675628","0.0-10.0-0.43","616631efeeac0979c1ba85a9","650c16f0f2faf8d7a0d14c09","651c1d9acc2be51dd84eb2b5","null","null","<p style=""font-size: 60px; font-family: BACS"">OAblcNac</p>","","","","","","","","",""
"html-keyboard-response","133","676630","0.0-10.0-0.44","616631efeeac0979c1ba85a9","650c16f0f2faf8d7a0d14c09","651c1d9acc2be51dd84eb2b5","null","null","<p style=""font-size: 60px; font-family: BACS"">kdEdYmKcD</p>","","","","","","","","",""
"html-keyboard-response","134","677645","0.0-10.0-0.45","616631efeeac0979c1ba85a9","650c16f0f2faf8d7a0d14c09","651c1d9acc2be51dd84eb2b5","null","null","<p style=""font-size: 60px; font-family: BACS"">TdmAbTE</p>","","","","","","","","",""
"html-keyboard-response","135","678661","0.0-10.0-0.46","616631efeeac0979c1ba85a9","650c16f0f2faf8d7a0d14c09","651c1d9acc2be51dd84eb2b5","null","null","<p style=""font-size: 60px; font-family: BACS"">vkYGlNac</p>","","","","","","","","",""
"html-keyboard-response","136","679662","0.0-10.0-0.47","616631efeeac0979c1ba85a9","650c16f0f2faf8d7a0d14c09","651c1d9acc2be51dd84eb2b5","null","null","<p style=""font-size: 60px; font-family: BACS"">NJZlAld</p>","","","","","","","","",""
"html-keyboard-response","137","680665","0.0-10.0-0.48","616631efeeac0979c1ba85a9","650c16f0f2faf8d7a0d14c09","651c1d9acc2be51dd84eb2b5","null","null","<p style=""font-size: 60px; font-family: BACS"">tRPDmCd</p>","","","","","","","","",""
"html-keyboard-response","138","681669","0.0-10.0-0.49","616631efeeac0979c1ba85a9","650c16f0f2faf8d7a0d14c09","651c1d9acc2be51dd84eb2b5","null","null","<p style=""font-size: 60px; font-family: BACS"">KElBmKcD</p>","","","","","","","","",""
"html-keyboard-response","139","682672","0.0-10.0-0.50","616631efeeac0979c1ba85a9","650c16f0f2faf8d7a0d14c09","651c1d9acc2be51dd84eb2b5","null","null","<p style=""font-size: 60px; font-family: BACS"">OmtlDdTAh</p>","","","","","","","","",""
"html-keyboard-response","140","683688","0.0-10.0-0.51","616631efeeac0979c1ba85a9","650c16f0f2faf8d7a0d14c09","651c1d9acc2be51dd84eb2b5","null","null","<p style=""font-size: 60px; font-family: BACS"">KElBbdtK</p>","","","","","","","","",""
"html-keyboard-response","141","684691","0.0-10.0-0.52","616631efeeac0979c1ba85a9","650c16f0f2faf8d7a0d14c09","651c1d9acc2be51dd84eb2b5","null","null","<p style=""font-size: 60px; font-family: BACS"">JauQAZbl</p>","","","","","","","","",""
"html-keyboard-response","142","685693","0.0-10.0-0.53","616631efeeac0979c1ba85a9","650c16f0f2faf8d7a0d14c09","651c1d9acc2be51dd84eb2b5","null","null","<p style=""font-size: 60px; font-family: BACS"">PMPtkmCd</p>","","","","","","","","",""
"html-keyboard-response","143","686698","0.0-10.0-0.54","616631efeeac0979c1ba85a9","650c16f0f2faf8d7a0d14c09","651c1d9acc2be51dd84eb2b5","null","null","<p style=""font-size: 60px; font-family: BACS"">OkGYrNlZ</p>","","","","","","","","",""
"html-keyboard-response","144","687703","0.0-10.0-0.55","616631efeeac0979c1ba85a9","650c16f0f2faf8d7a0d14c09","651c1d9acc2be51dd84eb2b5","null","null","<p style=""font-size: 60px; font-family: BACS"">JauQNac</p>","","","","","","","","",""
"html-keyboard-response","145","688717","0.0-10.0-0.56","616631efeeac0979c1ba85a9","650c16f0f2faf8d7a0d14c09","651c1d9acc2be51dd84eb2b5","null","null","<p style=""font-size: 60px; font-family: BACS"">OAblcAld</p>","","","","","","","","",""
"html-keyboard-response","146","689719","0.0-10.0-0.57","616631efeeac0979c1ba85a9","650c16f0f2faf8d7a0d14c09","651c1d9acc2be51dd84eb2b5","null","null","<p style=""font-size: 60px; font-family: BACS"">DBPhcmKcD</p>","","","","","","","","",""
"html-keyboard-response","147","690733","0.0-10.0-0.58","616631efeeac0979c1ba85a9","650c16f0f2faf8d7a0d14c09","651c1d9acc2be51dd84eb2b5","null","null","<p style=""font-size: 60px; font-family: BACS"">UdYUQrNlZ</p>","","","","","","","","",""
"html-keyboard-response","148","691735","0.0-10.0-0.59","616631efeeac0979c1ba85a9","650c16f0f2faf8d7a0d14c09","651c1d9acc2be51dd84eb2b5","null","null","<p style=""font-size: 60px; font-family: BACS"">TdmAbdtK</p>","","","","","","","","",""
"html-keyboard-response","149","692748","0.0-10.0-0.60","616631efeeac0979c1ba85a9","650c16f0f2faf8d7a0d14c09","651c1d9acc2be51dd84eb2b5","null","null","<p style=""font-size: 60px; font-family: BACS"">JauQkGua</p>","","","","","","","","",""
"html-keyboard-response","150","693751","0.0-10.0-0.61","616631efeeac0979c1ba85a9","650c16f0f2faf8d7a0d14c09","651c1d9acc2be51dd84eb2b5","null","null","<p style=""font-size: 60px; font-family: BACS"">NbmQUAld</p>","","","","","","","","",""
"html-keyboard-response","151","694752","0.0-10.0-0.62","616631efeeac0979c1ba85a9","650c16f0f2faf8d7a0d14c09","651c1d9acc2be51dd84eb2b5","null","null","<p style=""font-size: 60px; font-family: BACS"">UdYUQAZbl</p>","","","","","","","","",""
"html-keyboard-response","152","695766","0.0-10.0-0.63","616631efeeac0979c1ba85a9","650c16f0f2faf8d7a0d14c09","651c1d9acc2be51dd84eb2b5","null","null","<p style=""font-size: 60px; font-family: BACS"">ctktdTAh</p>","","","","","","","","",""
"html-keyboard-response","153","696782","0.0-10.0-0.64","616631efeeac0979c1ba85a9","650c16f0f2faf8d7a0d14c09","651c1d9acc2be51dd84eb2b5","null","null","<p style=""font-size: 60px; font-family: BACS"">alJYAZbl</p>","","","","","","","","",""
"html-keyboard-response","154","697786","0.0-10.0-0.65","616631efeeac0979c1ba85a9","650c16f0f2faf8d7a0d14c09","651c1d9acc2be51dd84eb2b5","null","null","<p style=""font-size: 60px; font-family: BACS"">PMPtkbdtK</p>","","","","","","","","",""
"html-keyboard-response","155","698791","0.0-10.0-0.66","616631efeeac0979c1ba85a9","650c16f0f2faf8d7a0d14c09","651c1d9acc2be51dd84eb2b5","null","null","<p style=""font-size: 60px; font-family: BACS"">OmtlDbTE</p>","","","","","","","","",""
"html-keyboard-response","156","699793","0.0-10.0-0.67","616631efeeac0979c1ba85a9","650c16f0f2faf8d7a0d14c09","651c1d9acc2be51dd84eb2b5","null","null","<p style=""font-size: 60px; font-family: BACS"">tRPDmKcD</p>","","","","","","","","",""
"html-keyboard-response","157","700799","0.0-10.0-0.68","616631efeeac0979c1ba85a9","650c16f0f2faf8d7a0d14c09","651c1d9acc2be51dd84eb2b5","null","null","<p style=""font-size: 60px; font-family: BACS"">kdEdYmCd</p>","","","","","","","","",""
"html-keyboard-response","158","701813","0.0-10.0-0.69","616631efeeac0979c1ba85a9","650c16f0f2faf8d7a0d14c09","651c1d9acc2be51dd84eb2b5","null","null","<p style=""font-size: 60px; font-family: BACS"">NbmQUNac</p>","","","","","","","","",""
"html-keyboard-response","159","702814","0.0-10.0-0.70","616631efeeac0979c1ba85a9","650c16f0f2faf8d7a0d14c09","651c1d9acc2be51dd84eb2b5","null","null","<p style=""font-size: 60px; font-family: BACS"">NJZlkGua</p>","","","","","","","","",""
"html-keyboard-response","160","703818","0.0-10.0-0.71","616631efeeac0979c1ba85a9","650c16f0f2faf8d7a0d14c09","651c1d9acc2be51dd84eb2b5","null","null","<p style=""font-size: 60px; font-family: BACS"">ctktmKcD</p>","","","","","","","","",""
"html-keyboard-response","161","704834","0.0-10.0-0.72","616631efeeac0979c1ba85a9","650c16f0f2faf8d7a0d14c09","651c1d9acc2be51dd84eb2b5","null","null","<p style=""font-size: 60px; font-family: BACS"">ukYZrNlZ</p>","","","","","","","","",""
"html-keyboard-response","162","705836","0.0-10.0-0.73","616631efeeac0979c1ba85a9","650c16f0f2faf8d7a0d14c09","651c1d9acc2be51dd84eb2b5","null","null","<p style=""font-size: 60px; font-family: BACS"">NbmQUkGua</p>","","","","","","","","",""
"html-keyboard-response","163","706837","0.0-10.0-0.74","616631efeeac0979c1ba85a9","650c16f0f2faf8d7a0d14c09","651c1d9acc2be51dd84eb2b5","null","null","<p style=""font-size: 60px; font-family: BACS"">vkYGlAZbl</p>","","","","","","","","",""
"html-keyboard-response","164","707843","0.0-10.0-0.75","616631efeeac0979c1ba85a9","650c16f0f2faf8d7a0d14c09","651c1d9acc2be51dd84eb2b5","null","null","<p style=""font-size: 60px; font-family: BACS"">UdYUQkGua</p>","","","","","","","","",""
"html-keyboard-response","165","708845","0.0-10.0-0.76","616631efeeac0979c1ba85a9","650c16f0f2faf8d7a0d14c09","651c1d9acc2be51dd84eb2b5","null","null","<p style=""font-size: 60px; font-family: BACS"">vkYGlrNlZ</p>","","","","","","","","",""
"html-keyboard-response","166","709860","0.0-10.0-0.77","616631efeeac0979c1ba85a9","650c16f0f2faf8d7a0d14c09","651c1d9acc2be51dd84eb2b5","null","null","<p style=""font-size: 60px; font-family: BACS"">ukYZkGua</p>","","","","","","","","",""
"html-keyboard-response","167","710862","0.0-10.0-0.78","616631efeeac0979c1ba85a9","650c16f0f2faf8d7a0d14c09","651c1d9acc2be51dd84eb2b5","null","null","<p style=""font-size: 60px; font-family: BACS"">KElBdTAh</p>","","","","","","","","",""
"html-keyboard-response","168","711878","0.0-10.0-0.79","616631efeeac0979c1ba85a9","650c16f0f2faf8d7a0d14c09","651c1d9acc2be51dd84eb2b5","null","null","<p style=""font-size: 60px; font-family: BACS"">alJYrNlZ</p>","","","","","","","","",""
"html-keyboard-response","169","734437","0.0-11.0","616631efeeac0979c1ba85a9","650c16f0f2faf8d7a0d14c09","651c1d9acc2be51dd84eb2b5","22558"," ","<p>Great, you've seen the second block of words. You may now take a short break.</p>
      <p>Press the spacebar when you're ready to continue.</p>","","","","","","","","",""
"html-keyboard-response","170","735442","0.0-12.0-0.0","616631efeeac0979c1ba85a9","650c16f0f2faf8d7a0d14c09","651c1d9acc2be51dd84eb2b5","null","null","<p style=""font-size: 60px; font-family: BACS"">alJYkGua</p>","","","","","","","","",""
"html-keyboard-response","171","736458","0.0-12.0-0.1","616631efeeac0979c1ba85a9","650c16f0f2faf8d7a0d14c09","651c1d9acc2be51dd84eb2b5","null","null","<p style=""font-size: 60px; font-family: BACS"">DBPhcmCd</p>","","","","","","","","",""
"html-keyboard-response","172","737471","0.0-12.0-0.2","616631efeeac0979c1ba85a9","650c16f0f2faf8d7a0d14c09","651c1d9acc2be51dd84eb2b5","null","null","<p style=""font-size: 60px; font-family: BACS"">TdmAbdtK</p>","","","","","","","","",""
"html-keyboard-response","173","738479","0.0-12.0-0.3","616631efeeac0979c1ba85a9","650c16f0f2faf8d7a0d14c09","651c1d9acc2be51dd84eb2b5","null","null","<p style=""font-size: 60px; font-family: BACS"">OkGYkGua</p>","","","","","","","","",""
"html-keyboard-response","174","739496","0.0-12.0-0.4","616631efeeac0979c1ba85a9","650c16f0f2faf8d7a0d14c09","651c1d9acc2be51dd84eb2b5","null","null","<p style=""font-size: 60px; font-family: BACS"">tRPDbTE</p>","","","","","","","","",""
"html-keyboard-response","175","740512","0.0-12.0-0.5","616631efeeac0979c1ba85a9","650c16f0f2faf8d7a0d14c09","651c1d9acc2be51dd84eb2b5","null","null","<p style=""font-size: 60px; font-family: BACS"">OAblcNac</p>","","","","","","","","",""
"html-keyboard-response","176","741517","0.0-12.0-0.6","616631efeeac0979c1ba85a9","650c16f0f2faf8d7a0d14c09","651c1d9acc2be51dd84eb2b5","null","null","<p style=""font-size: 60px; font-family: BACS"">JauQkGua</p>","","","","","","","","",""
"html-keyboard-response","177","742519","0.0-12.0-0.7","616631efeeac0979c1ba85a9","650c16f0f2faf8d7a0d14c09","651c1d9acc2be51dd84eb2b5","null","null","<p style=""font-size: 60px; font-family: BACS"">PMPtkmCd</p>","","","","","","","","",""
"html-keyboard-response","178","743533","0.0-12.0-0.8","616631efeeac0979c1ba85a9","650c16f0f2faf8d7a0d14c09","651c1d9acc2be51dd84eb2b5","null","null","<p style=""font-size: 60px; font-family: BACS"">dKRDbTE</p>","","","","","","","","",""
"html-keyboard-response","179","744538","0.0-12.0-0.9","616631efeeac0979c1ba85a9","650c16f0f2faf8d7a0d14c09","651c1d9acc2be51dd84eb2b5","null","null","<p style=""font-size: 60px; font-family: BACS"">ukYZrNlZ</p>","","","","","","","","",""
"html-keyboard-response","180","745553","0.0-12.0-0.10","616631efeeac0979c1ba85a9","650c16f0f2faf8d7a0d14c09","651c1d9acc2be51dd84eb2b5","null","null","<p style=""font-size: 60px; font-family: BACS"">dKRDbdtK</p>","","","","","","","","",""
"html-keyboard-response","181","746557","0.0-12.0-0.11","616631efeeac0979c1ba85a9","650c16f0f2faf8d7a0d14c09","651c1d9acc2be51dd84eb2b5","null","null","<p style=""font-size: 60px; font-family: BACS"">ukYZkGua</p>","","","","","","","","",""
"html-keyboard-response","182","747572","0.0-12.0-0.12","616631efeeac0979c1ba85a9","650c16f0f2faf8d7a0d14c09","651c1d9acc2be51dd84eb2b5","null","null","<p style=""font-size: 60px; font-family: BACS"">PMPtkbdtK</p>","","","","","","","","",""
"html-keyboard-response","183","748587","0.0-12.0-0.13","616631efeeac0979c1ba85a9","650c16f0f2faf8d7a0d14c09","651c1d9acc2be51dd84eb2b5","null","null","<p style=""font-size: 60px; font-family: BACS"">kdEdYmCd</p>","","","","","","","","",""
"html-keyboard-response","184","749591","0.0-12.0-0.14","616631efeeac0979c1ba85a9","650c16f0f2faf8d7a0d14c09","651c1d9acc2be51dd84eb2b5","null","null","<p style=""font-size: 60px; font-family: BACS"">ctktbTE</p>","","","","","","","","",""
"html-keyboard-response","185","750608","0.0-12.0-0.15","616631efeeac0979c1ba85a9","650c16f0f2faf8d7a0d14c09","651c1d9acc2be51dd84eb2b5","null","null","<p style=""font-size: 60px; font-family: BACS"">vkYGlrNlZ</p>","","","","","","","","",""
"html-keyboard-response","186","751622","0.0-12.0-0.16","616631efeeac0979c1ba85a9","650c16f0f2faf8d7a0d14c09","651c1d9acc2be51dd84eb2b5","null","null","<p style=""font-size: 60px; font-family: BACS"">OmtlDmKcD</p>","","","","","","","","",""
"html-keyboard-response","187","752623","0.0-12.0-0.17","616631efeeac0979c1ba85a9","650c16f0f2faf8d7a0d14c09","651c1d9acc2be51dd84eb2b5","null","null","<p style=""font-size: 60px; font-family: BACS"">NJZlkGua</p>","","","","","","","","",""
"html-keyboard-response","188","753627","0.0-12.0-0.18","616631efeeac0979c1ba85a9","650c16f0f2faf8d7a0d14c09","651c1d9acc2be51dd84eb2b5","null","null","<p style=""font-size: 60px; font-family: BACS"">PMPtkdTAh</p>","","","","","","","","",""
"html-keyboard-response","189","754631","0.0-12.0-0.19","616631efeeac0979c1ba85a9","650c16f0f2faf8d7a0d14c09","651c1d9acc2be51dd84eb2b5","null","null","<p style=""font-size: 60px; font-family: BACS"">ukYZNac</p>","","","","","","","","",""
"html-keyboard-response","190","755635","0.0-12.0-0.20","616631efeeac0979c1ba85a9","650c16f0f2faf8d7a0d14c09","651c1d9acc2be51dd84eb2b5","null","null","<p style=""font-size: 60px; font-family: BACS"">TdmAbTE</p>","","","","","","","","",""
"html-keyboard-response","191","756639","0.0-12.0-0.21","616631efeeac0979c1ba85a9","650c16f0f2faf8d7a0d14c09","651c1d9acc2be51dd84eb2b5","null","null","<p style=""font-size: 60px; font-family: BACS"">UdYUQAZbl</p>","","","","","","","","",""
"html-keyboard-response","192","757654","0.0-12.0-0.22","616631efeeac0979c1ba85a9","650c16f0f2faf8d7a0d14c09","651c1d9acc2be51dd84eb2b5","null","null","<p style=""font-size: 60px; font-family: BACS"">NbmQUrNlZ</p>","","","","","","","","",""
"html-keyboard-response","193","758671","0.0-12.0-0.23","616631efeeac0979c1ba85a9","650c16f0f2faf8d7a0d14c09","651c1d9acc2be51dd84eb2b5","null","null","<p style=""font-size: 60px; font-family: BACS"">tRPDmCd</p>","","","","","","","","",""
"html-keyboard-response","194","759687","0.0-12.0-0.24","616631efeeac0979c1ba85a9","650c16f0f2faf8d7a0d14c09","651c1d9acc2be51dd84eb2b5","null","null","<p style=""font-size: 60px; font-family: BACS"">NbmQUNac</p>","","","","","","","","",""
"html-keyboard-response","195","760690","0.0-12.0-0.25","616631efeeac0979c1ba85a9","650c16f0f2faf8d7a0d14c09","651c1d9acc2be51dd84eb2b5","null","null","<p style=""font-size: 60px; font-family: BACS"">vkYGlAld</p>","","","","","","","","",""
"html-keyboard-response","196","761694","0.0-12.0-0.26","616631efeeac0979c1ba85a9","650c16f0f2faf8d7a0d14c09","651c1d9acc2be51dd84eb2b5","null","null","<p style=""font-size: 60px; font-family: BACS"">dCtMAbTE</p>","","","","","","","","",""
"html-keyboard-response","197","762697","0.0-12.0-0.27","616631efeeac0979c1ba85a9","650c16f0f2faf8d7a0d14c09","651c1d9acc2be51dd84eb2b5","null","null","<p style=""font-size: 60px; font-family: BACS"">NbmQUkGua</p>","","","","","","","","",""
"html-keyboard-response","198","763711","0.0-12.0-0.28","616631efeeac0979c1ba85a9","650c16f0f2faf8d7a0d14c09","651c1d9acc2be51dd84eb2b5","null","null","<p style=""font-size: 60px; font-family: BACS"">KElBdTAh</p>","","","","","","","","",""
"html-keyboard-response","199","764728","0.0-12.0-0.29","616631efeeac0979c1ba85a9","650c16f0f2faf8d7a0d14c09","651c1d9acc2be51dd84eb2b5","null","null","<p style=""font-size: 60px; font-family: BACS"">ukYZAld</p>","","","","","","","","",""
"html-keyboard-response","200","765741","0.0-12.0-0.30","616631efeeac0979c1ba85a9","650c16f0f2faf8d7a0d14c09","651c1d9acc2be51dd84eb2b5","null","null","<p style=""font-size: 60px; font-family: BACS"">kdEdYbdtK</p>","","","","","","","","",""
"html-keyboard-response","201","766745","0.0-12.0-0.31","616631efeeac0979c1ba85a9","650c16f0f2faf8d7a0d14c09","651c1d9acc2be51dd84eb2b5","null","null","<p style=""font-size: 60px; font-family: BACS"">KElBbTE</p>","","","","","","","","",""
"html-keyboard-response","202","767748","0.0-12.0-0.32","616631efeeac0979c1ba85a9","650c16f0f2faf8d7a0d14c09","651c1d9acc2be51dd84eb2b5","null","null","<p style=""font-size: 60px; font-family: BACS"">JauQAZbl</p>","","","","","","","","",""
"html-keyboard-response","203","768763","0.0-12.0-0.33","616631efeeac0979c1ba85a9","650c16f0f2faf8d7a0d14c09","651c1d9acc2be51dd84eb2b5","null","null","<p style=""font-size: 60px; font-family: BACS"">NbmQUAld</p>","","","","","","","","",""
"html-keyboard-response","204","769779","0.0-12.0-0.34","616631efeeac0979c1ba85a9","650c16f0f2faf8d7a0d14c09","651c1d9acc2be51dd84eb2b5","null","null","<p style=""font-size: 60px; font-family: BACS"">OAblckGua</p>","","","","","","","","",""
"html-keyboard-response","205","770789","0.0-12.0-0.35","616631efeeac0979c1ba85a9","650c16f0f2faf8d7a0d14c09","651c1d9acc2be51dd84eb2b5","null","null","<p style=""font-size: 60px; font-family: BACS"">ctktmKcD</p>","","","","","","","","",""
"html-keyboard-response","206","771804","0.0-12.0-0.36","616631efeeac0979c1ba85a9","650c16f0f2faf8d7a0d14c09","651c1d9acc2be51dd84eb2b5","null","null","<p style=""font-size: 60px; font-family: BACS"">JNkaAZbl</p>","","","","","","","","",""
"html-keyboard-response","207","772807","0.0-12.0-0.37","616631efeeac0979c1ba85a9","650c16f0f2faf8d7a0d14c09","651c1d9acc2be51dd84eb2b5","null","null","<p style=""font-size: 60px; font-family: BACS"">UdYUQkGua</p>","","","","","","","","",""
"html-keyboard-response","208","773811","0.0-12.0-0.38","616631efeeac0979c1ba85a9","650c16f0f2faf8d7a0d14c09","651c1d9acc2be51dd84eb2b5","null","null","<p style=""font-size: 60px; font-family: BACS"">DBPhcmKcD</p>","","","","","","","","",""
"html-keyboard-response","209","774827","0.0-12.0-0.39","616631efeeac0979c1ba85a9","650c16f0f2faf8d7a0d14c09","651c1d9acc2be51dd84eb2b5","null","null","<p style=""font-size: 60px; font-family: BACS"">alJYNac</p>","","","","","","","","",""
"html-keyboard-response","210","775832","0.0-12.0-0.40","616631efeeac0979c1ba85a9","650c16f0f2faf8d7a0d14c09","651c1d9acc2be51dd84eb2b5","null","null","<p style=""font-size: 60px; font-family: BACS"">KElBbdtK</p>","","","","","","","","",""
"html-keyboard-response","211","776846","0.0-12.0-0.41","616631efeeac0979c1ba85a9","650c16f0f2faf8d7a0d14c09","651c1d9acc2be51dd84eb2b5","null","null","<p style=""font-size: 60px; font-family: BACS"">OkGYAld</p>","","","","","","","","",""
"html-keyboard-response","212","777847","0.0-12.0-0.42","616631efeeac0979c1ba85a9","650c16f0f2faf8d7a0d14c09","651c1d9acc2be51dd84eb2b5","null","null","<p style=""font-size: 60px; font-family: BACS"">NJZlrNlZ</p>","","","","","","","","",""
"html-keyboard-response","213","778852","0.0-12.0-0.43","616631efeeac0979c1ba85a9","650c16f0f2faf8d7a0d14c09","651c1d9acc2be51dd84eb2b5","null","null","<p style=""font-size: 60px; font-family: BACS"">ctktdTAh</p>","","","","","","","","",""
"html-keyboard-response","214","779868","0.0-12.0-0.44","616631efeeac0979c1ba85a9","650c16f0f2faf8d7a0d14c09","651c1d9acc2be51dd84eb2b5","null","null","<p style=""font-size: 60px; font-family: BACS"">vkYGlNac</p>","","","","","","","","",""
"html-keyboard-response","215","780885","0.0-12.0-0.45","616631efeeac0979c1ba85a9","650c16f0f2faf8d7a0d14c09","651c1d9acc2be51dd84eb2b5","null","null","<p style=""font-size: 60px; font-family: BACS"">dKRDmCd</p>","","","","","","","","",""
"html-keyboard-response","216","781897","0.0-12.0-0.46","616631efeeac0979c1ba85a9","650c16f0f2faf8d7a0d14c09","651c1d9acc2be51dd84eb2b5","null","null","<p style=""font-size: 60px; font-family: BACS"">DBPhcbdtK</p>","","","","","","","","",""
"html-keyboard-response","217","782901","0.0-12.0-0.47","616631efeeac0979c1ba85a9","650c16f0f2faf8d7a0d14c09","651c1d9acc2be51dd84eb2b5","null","null","<p style=""font-size: 60px; font-family: BACS"">OkGYrNlZ</p>","","","","","","","","",""
"html-keyboard-response","218","783917","0.0-12.0-0.48","616631efeeac0979c1ba85a9","650c16f0f2faf8d7a0d14c09","651c1d9acc2be51dd84eb2b5","null","null","<p style=""font-size: 60px; font-family: BACS"">dCtMAdTAh</p>","","","","","","","","",""
"html-keyboard-response","219","784920","0.0-12.0-0.49","616631efeeac0979c1ba85a9","650c16f0f2faf8d7a0d14c09","651c1d9acc2be51dd84eb2b5","null","null","<p style=""font-size: 60px; font-family: BACS"">JauQNac</p>","","","","","","","","",""
"html-keyboard-response","220","785924","0.0-12.0-0.50","616631efeeac0979c1ba85a9","650c16f0f2faf8d7a0d14c09","651c1d9acc2be51dd84eb2b5","null","null","<p style=""font-size: 60px; font-family: BACS"">OmtlDmCd</p>","","","","","","","","",""
"html-keyboard-response","221","786928","0.0-12.0-0.51","616631efeeac0979c1ba85a9","650c16f0f2faf8d7a0d14c09","651c1d9acc2be51dd84eb2b5","null","null","<p style=""font-size: 60px; font-family: BACS"">OAblcAld</p>","","","","","","","","",""
"html-keyboard-response","222","787943","0.0-12.0-0.52","616631efeeac0979c1ba85a9","650c16f0f2faf8d7a0d14c09","651c1d9acc2be51dd84eb2b5","null","null","<p style=""font-size: 60px; font-family: BACS"">alJYAZbl</p>","","","","","","","","",""
"html-keyboard-response","223","788951","0.0-12.0-0.53","616631efeeac0979c1ba85a9","650c16f0f2faf8d7a0d14c09","651c1d9acc2be51dd84eb2b5","null","null","<p style=""font-size: 60px; font-family: BACS"">KElBmKcD</p>","","","","","","","","",""
"html-keyboard-response","224","789967","0.0-12.0-0.54","616631efeeac0979c1ba85a9","650c16f0f2faf8d7a0d14c09","651c1d9acc2be51dd84eb2b5","null","null","<p style=""font-size: 60px; font-family: BACS"">dCtMAbdtK</p>","","","","","","","","",""
"html-keyboard-response","225","790971","0.0-12.0-0.55","616631efeeac0979c1ba85a9","650c16f0f2faf8d7a0d14c09","651c1d9acc2be51dd84eb2b5","null","null","<p style=""font-size: 60px; font-family: BACS"">JNkaNac</p>","","","","","","","","",""
"html-keyboard-response","226","791974","0.0-12.0-0.56","616631efeeac0979c1ba85a9","650c16f0f2faf8d7a0d14c09","651c1d9acc2be51dd84eb2b5","null","null","<p style=""font-size: 60px; font-family: BACS"">PMPtkmKcD</p>","","","","","","","","",""
"html-keyboard-response","227","792977","0.0-12.0-0.57","616631efeeac0979c1ba85a9","650c16f0f2faf8d7a0d14c09","651c1d9acc2be51dd84eb2b5","null","null","<p style=""font-size: 60px; font-family: BACS"">NJZlAld</p>","","","","","","","","",""
"html-keyboard-response","228","793979","0.0-12.0-0.58","616631efeeac0979c1ba85a9","650c16f0f2faf8d7a0d14c09","651c1d9acc2be51dd84eb2b5","null","null","<p style=""font-size: 60px; font-family: BACS"">kdEdYbTE</p>","","","","","","","","",""
"html-keyboard-response","229","794993","0.0-12.0-0.59","616631efeeac0979c1ba85a9","650c16f0f2faf8d7a0d14c09","651c1d9acc2be51dd84eb2b5","null","null","<p style=""font-size: 60px; font-family: BACS"">OmtlDdTAh</p>","","","","","","","","",""
"html-keyboard-response","230","796006","0.0-12.0-0.60","616631efeeac0979c1ba85a9","650c16f0f2faf8d7a0d14c09","651c1d9acc2be51dd84eb2b5","null","null","<p style=""font-size: 60px; font-family: BACS"">JNkarNlZ</p>","","","","","","","","",""
"html-keyboard-response","231","797008","0.0-12.0-0.61","616631efeeac0979c1ba85a9","650c16f0f2faf8d7a0d14c09","651c1d9acc2be51dd84eb2b5","null","null","<p style=""font-size: 60px; font-family: BACS"">ctktbdtK</p>","","","","","","","","",""
"html-keyboard-response","232","798023","0.0-12.0-0.62","616631efeeac0979c1ba85a9","650c16f0f2faf8d7a0d14c09","651c1d9acc2be51dd84eb2b5","null","null","<p style=""font-size: 60px; font-family: BACS"">UdYUQNac</p>","","","","","","","","",""
"html-keyboard-response","233","799025","0.0-12.0-0.63","616631efeeac0979c1ba85a9","650c16f0f2faf8d7a0d14c09","651c1d9acc2be51dd84eb2b5","null","null","<p style=""font-size: 60px; font-family: BACS"">kdEdYmKcD</p>","","","","","","","","",""
"html-keyboard-response","234","800029","0.0-12.0-0.64","616631efeeac0979c1ba85a9","650c16f0f2faf8d7a0d14c09","651c1d9acc2be51dd84eb2b5","null","null","<p style=""font-size: 60px; font-family: BACS"">alJYrNlZ</p>","","","","","","","","",""
"html-keyboard-response","235","801033","0.0-12.0-0.65","616631efeeac0979c1ba85a9","650c16f0f2faf8d7a0d14c09","651c1d9acc2be51dd84eb2b5","null","null","<p style=""font-size: 60px; font-family: BACS"">TdmAmCd</p>","","","","","","","","",""
"html-keyboard-response","236","802035","0.0-12.0-0.66","616631efeeac0979c1ba85a9","650c16f0f2faf8d7a0d14c09","651c1d9acc2be51dd84eb2b5","null","null","<p style=""font-size: 60px; font-family: BACS"">DBPhcdTAh</p>","","","","","","","","",""
"html-keyboard-response","237","803039","0.0-12.0-0.67","616631efeeac0979c1ba85a9","650c16f0f2faf8d7a0d14c09","651c1d9acc2be51dd84eb2b5","null","null","<p style=""font-size: 60px; font-family: BACS"">NJZlAZbl</p>","","","","","","","","",""
"html-keyboard-response","238","804041","0.0-12.0-0.68","616631efeeac0979c1ba85a9","650c16f0f2faf8d7a0d14c09","651c1d9acc2be51dd84eb2b5","null","null","<p style=""font-size: 60px; font-family: BACS"">tRPDmKcD</p>","","","","","","","","",""
"html-keyboard-response","239","805057","0.0-12.0-0.69","616631efeeac0979c1ba85a9","650c16f0f2faf8d7a0d14c09","651c1d9acc2be51dd84eb2b5","null","null","<p style=""font-size: 60px; font-family: BACS"">OAblcAZbl</p>","","","","","","","","",""
"html-keyboard-response","240","806072","0.0-12.0-0.70","616631efeeac0979c1ba85a9","650c16f0f2faf8d7a0d14c09","651c1d9acc2be51dd84eb2b5","null","null","<p style=""font-size: 60px; font-family: BACS"">JNkaAld</p>","","","","","","","","",""
"html-keyboard-response","241","807088","0.0-12.0-0.71","616631efeeac0979c1ba85a9","650c16f0f2faf8d7a0d14c09","651c1d9acc2be51dd84eb2b5","null","null","<p style=""font-size: 60px; font-family: BACS"">OkGYAZbl</p>","","","","","","","","",""
"html-keyboard-response","242","808104","0.0-12.0-0.72","616631efeeac0979c1ba85a9","650c16f0f2faf8d7a0d14c09","651c1d9acc2be51dd84eb2b5","null","null","<p style=""font-size: 60px; font-family: BACS"">OmtlDbTE</p>","","","","","","","","",""
"html-keyboard-response","243","809118","0.0-12.0-0.73","616631efeeac0979c1ba85a9","650c16f0f2faf8d7a0d14c09","651c1d9acc2be51dd84eb2b5","null","null","<p style=""font-size: 60px; font-family: BACS"">tRPDdTAh</p>","","","","","","","","",""
"html-keyboard-response","244","810134","0.0-12.0-0.74","616631efeeac0979c1ba85a9","650c16f0f2faf8d7a0d14c09","651c1d9acc2be51dd84eb2b5","null","null","<p style=""font-size: 60px; font-family: BACS"">UdYUQrNlZ</p>","","","","","","","","",""
"html-keyboard-response","245","811134","0.0-12.0-0.75","616631efeeac0979c1ba85a9","650c16f0f2faf8d7a0d14c09","651c1d9acc2be51dd84eb2b5","null","null","<p style=""font-size: 60px; font-family: BACS"">vkYGlAZbl</p>","","","","","","","","",""
"html-keyboard-response","246","812146","0.0-12.0-0.76","616631efeeac0979c1ba85a9","650c16f0f2faf8d7a0d14c09","651c1d9acc2be51dd84eb2b5","null","null","<p style=""font-size: 60px; font-family: BACS"">dKRDdTAh</p>","","","","","","","","",""
"html-keyboard-response","247","813162","0.0-12.0-0.77","616631efeeac0979c1ba85a9","650c16f0f2faf8d7a0d14c09","651c1d9acc2be51dd84eb2b5","null","null","<p style=""font-size: 60px; font-family: BACS"">JauQAld</p>","","","","","","","","",""
"html-keyboard-response","248","814164","0.0-12.0-0.78","616631efeeac0979c1ba85a9","650c16f0f2faf8d7a0d14c09","651c1d9acc2be51dd84eb2b5","null","null","<p style=""font-size: 60px; font-family: BACS"">dCtMAmCd</p>","","","","","","","","",""
"html-keyboard-response","249","815166","0.0-12.0-0.79","616631efeeac0979c1ba85a9","650c16f0f2faf8d7a0d14c09","651c1d9acc2be51dd84eb2b5","null","null","<p style=""font-size: 60px; font-family: BACS"">TdmAmKcD</p>","","","","","","","","",""
"html-keyboard-response","250","1014333","0.0-13.0","616631efeeac0979c1ba85a9","650c16f0f2faf8d7a0d14c09","651c1d9acc2be51dd84eb2b5","199167"," ","<p>Great, you've seen the third block of words. You may now take a short break.</p>
      <p>Press the spacebar when you're ready to continue.</p>","","","","","","","","",""
"html-keyboard-response","251","1015343","0.0-14.0-0.0","616631efeeac0979c1ba85a9","650c16f0f2faf8d7a0d14c09","651c1d9acc2be51dd84eb2b5","null","null","<p style=""font-size: 60px; font-family: BACS"">NbmQUAld</p>","","","","","","","","",""
"html-keyboard-response","252","1016349","0.0-14.0-0.1","616631efeeac0979c1ba85a9","650c16f0f2faf8d7a0d14c09","651c1d9acc2be51dd84eb2b5","null","null","<p style=""font-size: 60px; font-family: BACS"">dKRDdTAh</p>","","","","","","","","",""
"html-keyboard-response","253","1017362","0.0-14.0-0.2","616631efeeac0979c1ba85a9","650c16f0f2faf8d7a0d14c09","651c1d9acc2be51dd84eb2b5","null","null","<p style=""font-size: 60px; font-family: BACS"">KElBbdtK</p>","","","","","","","","",""
"html-keyboard-response","254","1018364","0.0-14.0-0.3","616631efeeac0979c1ba85a9","650c16f0f2faf8d7a0d14c09","651c1d9acc2be51dd84eb2b5","null","null","<p style=""font-size: 60px; font-family: BACS"">DBPhcmKcD</p>","","","","","","","","",""
"html-keyboard-response","255","1019365","0.0-14.0-0.4","616631efeeac0979c1ba85a9","650c16f0f2faf8d7a0d14c09","651c1d9acc2be51dd84eb2b5","null","null","<p style=""font-size: 60px; font-family: BACS"">ukYZrNlZ</p>","","","","","","","","",""
"html-keyboard-response","256","1020371","0.0-14.0-0.5","616631efeeac0979c1ba85a9","650c16f0f2faf8d7a0d14c09","651c1d9acc2be51dd84eb2b5","null","null","<p style=""font-size: 60px; font-family: BACS"">OmtlDdTAh</p>","","","","","","","","",""
"html-keyboard-response","257","1021377","0.0-14.0-0.6","616631efeeac0979c1ba85a9","650c16f0f2faf8d7a0d14c09","651c1d9acc2be51dd84eb2b5","null","null","<p style=""font-size: 60px; font-family: BACS"">ctktbTE</p>","","","","","","","","",""
"html-keyboard-response","258","1022393","0.0-14.0-0.7","616631efeeac0979c1ba85a9","650c16f0f2faf8d7a0d14c09","651c1d9acc2be51dd84eb2b5","null","null","<p style=""font-size: 60px; font-family: BACS"">PMPtkmKcD</p>","","","","","","","","",""
"html-keyboard-response","259","1023407","0.0-14.0-0.8","616631efeeac0979c1ba85a9","650c16f0f2faf8d7a0d14c09","651c1d9acc2be51dd84eb2b5","null","null","<p style=""font-size: 60px; font-family: BACS"">vkYGlrNlZ</p>","","","","","","","","",""
"html-keyboard-response","260","1024410","0.0-14.0-0.9","616631efeeac0979c1ba85a9","650c16f0f2faf8d7a0d14c09","651c1d9acc2be51dd84eb2b5","null","null","<p style=""font-size: 60px; font-family: BACS"">KElBbTE</p>","","","","","","","","",""
"html-keyboard-response","261","1025413","0.0-14.0-0.10","616631efeeac0979c1ba85a9","650c16f0f2faf8d7a0d14c09","651c1d9acc2be51dd84eb2b5","null","null","<p style=""font-size: 60px; font-family: BACS"">ukYZNac</p>","","","","","","","","",""
"html-keyboard-response","262","1026415","0.0-14.0-0.11","616631efeeac0979c1ba85a9","650c16f0f2faf8d7a0d14c09","651c1d9acc2be51dd84eb2b5","null","null","<p style=""font-size: 60px; font-family: BACS"">OkGYkGua</p>","","","","","","","","",""
"html-keyboard-response","263","1027421","0.0-14.0-0.12","616631efeeac0979c1ba85a9","650c16f0f2faf8d7a0d14c09","651c1d9acc2be51dd84eb2b5","null","null","<p style=""font-size: 60px; font-family: BACS"">UdYUQAZbl</p>","","","","","","","","",""
"html-keyboard-response","264","1028423","0.0-14.0-0.13","616631efeeac0979c1ba85a9","650c16f0f2faf8d7a0d14c09","651c1d9acc2be51dd84eb2b5","null","null","<p style=""font-size: 60px; font-family: BACS"">alJYNac</p>","","","","","","","","",""
"html-keyboard-response","265","1029428","0.0-14.0-0.14","616631efeeac0979c1ba85a9","650c16f0f2faf8d7a0d14c09","651c1d9acc2be51dd84eb2b5","null","null","<p style=""font-size: 60px; font-family: BACS"">JauQAld</p>","","","","","","","","",""
"html-keyboard-response","266","1030429","0.0-14.0-0.15","616631efeeac0979c1ba85a9","650c16f0f2faf8d7a0d14c09","651c1d9acc2be51dd84eb2b5","null","null","<p style=""font-size: 60px; font-family: BACS"">OkGYAZbl</p>","","","","","","","","",""
"html-keyboard-response","267","1031435","0.0-14.0-0.16","616631efeeac0979c1ba85a9","650c16f0f2faf8d7a0d14c09","651c1d9acc2be51dd84eb2b5","null","null","<p style=""font-size: 60px; font-family: BACS"">OAblcNac</p>","","","","","","","","",""
"html-keyboard-response","268","1032449","0.0-14.0-0.17","616631efeeac0979c1ba85a9","650c16f0f2faf8d7a0d14c09","651c1d9acc2be51dd84eb2b5","null","null","<p style=""font-size: 60px; font-family: BACS"">vkYGlAld</p>","","","","","","","","",""
"html-keyboard-response","269","1033465","0.0-14.0-0.18","616631efeeac0979c1ba85a9","650c16f0f2faf8d7a0d14c09","651c1d9acc2be51dd84eb2b5","null","null","<p style=""font-size: 60px; font-family: BACS"">alJYAZbl</p>","","","","","","","","",""
"html-keyboard-response","270","1034478","0.0-14.0-0.19","616631efeeac0979c1ba85a9","650c16f0f2faf8d7a0d14c09","651c1d9acc2be51dd84eb2b5","null","null","<p style=""font-size: 60px; font-family: BACS"">DBPhcbdtK</p>","","","","","","","","",""
"html-keyboard-response","271","1035479","0.0-14.0-0.20","616631efeeac0979c1ba85a9","650c16f0f2faf8d7a0d14c09","651c1d9acc2be51dd84eb2b5","null","null","<p style=""font-size: 60px; font-family: BACS"">dCtMAmCd</p>","","","","","","","","",""
"html-keyboard-response","272","1036494","0.0-14.0-0.21","616631efeeac0979c1ba85a9","650c16f0f2faf8d7a0d14c09","651c1d9acc2be51dd84eb2b5","null","null","<p style=""font-size: 60px; font-family: BACS"">ctktbdtK</p>","","","","","","","","",""
"html-keyboard-response","273","1037499","0.0-14.0-0.22","616631efeeac0979c1ba85a9","650c16f0f2faf8d7a0d14c09","651c1d9acc2be51dd84eb2b5","null","null","<p style=""font-size: 60px; font-family: BACS"">JNkaAZbl</p>","","","","","","","","",""
"html-keyboard-response","274","1038503","0.0-14.0-0.23","616631efeeac0979c1ba85a9","650c16f0f2faf8d7a0d14c09","651c1d9acc2be51dd84eb2b5","null","null","<p style=""font-size: 60px; font-family: BACS"">UdYUQNac</p>","","","","","","","","",""
"html-keyboard-response","275","1039506","0.0-14.0-0.24","616631efeeac0979c1ba85a9","650c16f0f2faf8d7a0d14c09","651c1d9acc2be51dd84eb2b5","null","null","<p style=""font-size: 60px; font-family: BACS"">OmtlDbTE</p>","","","","","","","","",""
"html-keyboard-response","276","1040508","0.0-14.0-0.25","616631efeeac0979c1ba85a9","650c16f0f2faf8d7a0d14c09","651c1d9acc2be51dd84eb2b5","null","null","<p style=""font-size: 60px; font-family: BACS"">kdEdYmCd</p>","","","","","","","","",""
"html-keyboard-response","277","1041511","0.0-14.0-0.26","616631efeeac0979c1ba85a9","650c16f0f2faf8d7a0d14c09","651c1d9acc2be51dd84eb2b5","null","null","<p style=""font-size: 60px; font-family: BACS"">OAblcAld</p>","","","","","","","","",""
"html-keyboard-response","278","1042526","0.0-14.0-0.27","616631efeeac0979c1ba85a9","650c16f0f2faf8d7a0d14c09","651c1d9acc2be51dd84eb2b5","null","null","<p style=""font-size: 60px; font-family: BACS"">UdYUQkGua</p>","","","","","","","","",""
"html-keyboard-response","279","1043531","0.0-14.0-0.28","616631efeeac0979c1ba85a9","650c16f0f2faf8d7a0d14c09","651c1d9acc2be51dd84eb2b5","null","null","<p style=""font-size: 60px; font-family: BACS"">DBPhcdTAh</p>","","","","","","","","",""
"html-keyboard-response","280","1044546","0.0-14.0-0.29","616631efeeac0979c1ba85a9","650c16f0f2faf8d7a0d14c09","651c1d9acc2be51dd84eb2b5","null","null","<p style=""font-size: 60px; font-family: BACS"">ukYZAld</p>","","","","","","","","",""
"html-keyboard-response","281","1045549","0.0-14.0-0.30","616631efeeac0979c1ba85a9","650c16f0f2faf8d7a0d14c09","651c1d9acc2be51dd84eb2b5","null","null","<p style=""font-size: 60px; font-family: BACS"">NbmQUNac</p>","","","","","","","","",""
"html-keyboard-response","282","1046552","0.0-14.0-0.31","616631efeeac0979c1ba85a9","650c16f0f2faf8d7a0d14c09","651c1d9acc2be51dd84eb2b5","null","null","<p style=""font-size: 60px; font-family: BACS"">OAblckGua</p>","","","","","","","","",""
"html-keyboard-response","283","1047554","0.0-14.0-0.32","616631efeeac0979c1ba85a9","650c16f0f2faf8d7a0d14c09","651c1d9acc2be51dd84eb2b5","null","null","<p style=""font-size: 60px; font-family: BACS"">JauQNac</p>","","","","","","","","",""
"html-keyboard-response","284","1048568","0.0-14.0-0.33","616631efeeac0979c1ba85a9","650c16f0f2faf8d7a0d14c09","651c1d9acc2be51dd84eb2b5","null","null","<p style=""font-size: 60px; font-family: BACS"">JNkaAld</p>","","","","","","","","",""
"html-keyboard-response","285","1049570","0.0-14.0-0.34","616631efeeac0979c1ba85a9","650c16f0f2faf8d7a0d14c09","651c1d9acc2be51dd84eb2b5","null","null","<p style=""font-size: 60px; font-family: BACS"">JauQkGua</p>","","","","","","","","",""
"html-keyboard-response","286","1050573","0.0-14.0-0.35","616631efeeac0979c1ba85a9","650c16f0f2faf8d7a0d14c09","651c1d9acc2be51dd84eb2b5","null","null","<p style=""font-size: 60px; font-family: BACS"">dCtMAbTE</p>","","","","","","","","",""
"html-keyboard-response","287","1051589","0.0-14.0-0.36","616631efeeac0979c1ba85a9","650c16f0f2faf8d7a0d14c09","651c1d9acc2be51dd84eb2b5","null","null","<p style=""font-size: 60px; font-family: BACS"">PMPtkbdtK</p>","","","","","","","","",""
"html-keyboard-response","288","1052593","0.0-14.0-0.37","616631efeeac0979c1ba85a9","650c16f0f2faf8d7a0d14c09","651c1d9acc2be51dd84eb2b5","null","null","<p style=""font-size: 60px; font-family: BACS"">alJYrNlZ</p>","","","","","","","","",""
"html-keyboard-response","289","1053607","0.0-14.0-0.38","616631efeeac0979c1ba85a9","650c16f0f2faf8d7a0d14c09","651c1d9acc2be51dd84eb2b5","null","null","<p style=""font-size: 60px; font-family: BACS"">JNkaNac</p>","","","","","","","","",""
"html-keyboard-response","290","1054621","0.0-14.0-0.39","616631efeeac0979c1ba85a9","650c16f0f2faf8d7a0d14c09","651c1d9acc2be51dd84eb2b5","null","null","<p style=""font-size: 60px; font-family: BACS"">TdmAbdtK</p>","","","","","","","","",""
"html-keyboard-response","291","1055624","0.0-14.0-0.40","616631efeeac0979c1ba85a9","650c16f0f2faf8d7a0d14c09","651c1d9acc2be51dd84eb2b5","null","null","<p style=""font-size: 60px; font-family: BACS"">dKRDbTE</p>","","","","","","","","",""
"html-keyboard-response","292","1056628","0.0-14.0-0.41","616631efeeac0979c1ba85a9","650c16f0f2faf8d7a0d14c09","651c1d9acc2be51dd84eb2b5","null","null","<p style=""font-size: 60px; font-family: BACS"">OkGYrNlZ</p>","","","","","","","","",""
"html-keyboard-response","293","1057633","0.0-14.0-0.42","616631efeeac0979c1ba85a9","650c16f0f2faf8d7a0d14c09","651c1d9acc2be51dd84eb2b5","null","null","<p style=""font-size: 60px; font-family: BACS"">JauQAZbl</p>","","","","","","","","",""
"html-keyboard-response","294","1058648","0.0-14.0-0.43","616631efeeac0979c1ba85a9","650c16f0f2faf8d7a0d14c09","651c1d9acc2be51dd84eb2b5","null","null","<p style=""font-size: 60px; font-family: BACS"">ukYZkGua</p>","","","","","","","","",""
"html-keyboard-response","295","1059650","0.0-14.0-0.44","616631efeeac0979c1ba85a9","650c16f0f2faf8d7a0d14c09","651c1d9acc2be51dd84eb2b5","null","null","<p style=""font-size: 60px; font-family: BACS"">ctktdTAh</p>","","","","","","","","",""
"html-keyboard-response","296","1060666","0.0-14.0-0.45","616631efeeac0979c1ba85a9","650c16f0f2faf8d7a0d14c09","651c1d9acc2be51dd84eb2b5","null","null","<p style=""font-size: 60px; font-family: BACS"">kdEdYmKcD</p>","","","","","","","","",""
"html-keyboard-response","297","1061671","0.0-14.0-0.46","616631efeeac0979c1ba85a9","650c16f0f2faf8d7a0d14c09","651c1d9acc2be51dd84eb2b5","null","null","<p style=""font-size: 60px; font-family: BACS"">NbmQUkGua</p>","","","","","","","","",""
"html-keyboard-response","298","1062676","0.0-14.0-0.47","616631efeeac0979c1ba85a9","650c16f0f2faf8d7a0d14c09","651c1d9acc2be51dd84eb2b5","null","null","<p style=""font-size: 60px; font-family: BACS"">KElBmKcD</p>","","","","","","","","",""
"html-keyboard-response","299","1063676","0.0-14.0-0.48","616631efeeac0979c1ba85a9","650c16f0f2faf8d7a0d14c09","651c1d9acc2be51dd84eb2b5","null","null","<p style=""font-size: 60px; font-family: BACS"">PMPtkdTAh</p>","","","","","","","","",""
"html-keyboard-response","300","1064682","0.0-14.0-0.49","616631efeeac0979c1ba85a9","650c16f0f2faf8d7a0d14c09","651c1d9acc2be51dd84eb2b5","null","null","<p style=""font-size: 60px; font-family: BACS"">OmtlDmKcD</p>","","","","","","","","",""
"html-keyboard-response","301","1065683","0.0-14.0-0.50","616631efeeac0979c1ba85a9","650c16f0f2faf8d7a0d14c09","651c1d9acc2be51dd84eb2b5","null","null","<p style=""font-size: 60px; font-family: BACS"">dCtMAdTAh</p>","","","","","","","","",""
"html-keyboard-response","302","1066697","0.0-14.0-0.51","616631efeeac0979c1ba85a9","650c16f0f2faf8d7a0d14c09","651c1d9acc2be51dd84eb2b5","null","null","<p style=""font-size: 60px; font-family: BACS"">TdmAbTE</p>","","","","","","","","",""
"html-keyboard-response","303","1067698","0.0-14.0-0.52","616631efeeac0979c1ba85a9","650c16f0f2faf8d7a0d14c09","651c1d9acc2be51dd84eb2b5","null","null","<p style=""font-size: 60px; font-family: BACS"">NbmQUrNlZ</p>","","","","","","","","",""
"html-keyboard-response","304","1068715","0.0-14.0-0.53","616631efeeac0979c1ba85a9","650c16f0f2faf8d7a0d14c09","651c1d9acc2be51dd84eb2b5","null","null","<p style=""font-size: 60px; font-family: BACS"">TdmAmKcD</p>","","","","","","","","",""
"html-keyboard-response","305","1069718","0.0-14.0-0.54","616631efeeac0979c1ba85a9","650c16f0f2faf8d7a0d14c09","651c1d9acc2be51dd84eb2b5","null","null","<p style=""font-size: 60px; font-family: BACS"">NJZlkGua</p>","","","","","","","","",""
"html-keyboard-response","306","1070722","0.0-14.0-0.55","616631efeeac0979c1ba85a9","650c16f0f2faf8d7a0d14c09","651c1d9acc2be51dd84eb2b5","null","null","<p style=""font-size: 60px; font-family: BACS"">vkYGlNac</p>","","","","","","","","",""
"html-keyboard-response","307","1071737","0.0-14.0-0.56","616631efeeac0979c1ba85a9","650c16f0f2faf8d7a0d14c09","651c1d9acc2be51dd84eb2b5","null","null","<p style=""font-size: 60px; font-family: BACS"">NJZlAld</p>","","","","","","","","",""
"html-keyboard-response","308","1072740","0.0-14.0-0.57","616631efeeac0979c1ba85a9","650c16f0f2faf8d7a0d14c09","651c1d9acc2be51dd84eb2b5","null","null","<p style=""font-size: 60px; font-family: BACS"">PMPtkmCd</p>","","","","","","","","",""
"html-keyboard-response","309","1073743","0.0-14.0-0.58","616631efeeac0979c1ba85a9","650c16f0f2faf8d7a0d14c09","651c1d9acc2be51dd84eb2b5","null","null","<p style=""font-size: 60px; font-family: BACS"">JNkarNlZ</p>","","","","","","","","",""
"html-keyboard-response","310","1074744","0.0-14.0-0.59","616631efeeac0979c1ba85a9","650c16f0f2faf8d7a0d14c09","651c1d9acc2be51dd84eb2b5","null","null","<p style=""font-size: 60px; font-family: BACS"">dKRDbdtK</p>","","","","","","","","",""
"html-keyboard-response","311","1075750","0.0-14.0-0.60","616631efeeac0979c1ba85a9","650c16f0f2faf8d7a0d14c09","651c1d9acc2be51dd84eb2b5","null","null","<p style=""font-size: 60px; font-family: BACS"">KElBdTAh</p>","","","","","","","","",""
"html-keyboard-response","312","1076766","0.0-14.0-0.61","616631efeeac0979c1ba85a9","650c16f0f2faf8d7a0d14c09","651c1d9acc2be51dd84eb2b5","null","null","<p style=""font-size: 60px; font-family: BACS"">DBPhcmCd</p>","","","","","","","","",""
"html-keyboard-response","313","1077782","0.0-14.0-0.62","616631efeeac0979c1ba85a9","650c16f0f2faf8d7a0d14c09","651c1d9acc2be51dd84eb2b5","null","null","<p style=""font-size: 60px; font-family: BACS"">vkYGlAZbl</p>","","","","","","","","",""
"html-keyboard-response","314","1078796","0.0-14.0-0.63","616631efeeac0979c1ba85a9","650c16f0f2faf8d7a0d14c09","651c1d9acc2be51dd84eb2b5","null","null","<p style=""font-size: 60px; font-family: BACS"">NJZlrNlZ</p>","","","","","","","","",""
"html-keyboard-response","315","1079811","0.0-14.0-0.64","616631efeeac0979c1ba85a9","650c16f0f2faf8d7a0d14c09","651c1d9acc2be51dd84eb2b5","null","null","<p style=""font-size: 60px; font-family: BACS"">alJYkGua</p>","","","","","","","","",""
"html-keyboard-response","316","1080827","0.0-14.0-0.65","616631efeeac0979c1ba85a9","650c16f0f2faf8d7a0d14c09","651c1d9acc2be51dd84eb2b5","null","null","<p style=""font-size: 60px; font-family: BACS"">tRPDdTAh</p>","","","","","","","","",""
"html-keyboard-response","317","1081831","0.0-14.0-0.66","616631efeeac0979c1ba85a9","650c16f0f2faf8d7a0d14c09","651c1d9acc2be51dd84eb2b5","null","null","<p style=""font-size: 60px; font-family: BACS"">kdEdYbdtK</p>","","","","","","","","",""
"html-keyboard-response","318","1082833","0.0-14.0-0.67","616631efeeac0979c1ba85a9","650c16f0f2faf8d7a0d14c09","651c1d9acc2be51dd84eb2b5","null","null","<p style=""font-size: 60px; font-family: BACS"">NJZlAZbl</p>","","","","","","","","",""
"html-keyboard-response","319","1083836","0.0-14.0-0.68","616631efeeac0979c1ba85a9","650c16f0f2faf8d7a0d14c09","651c1d9acc2be51dd84eb2b5","null","null","<p style=""font-size: 60px; font-family: BACS"">OkGYAld</p>","","","","","","","","",""
"html-keyboard-response","320","1084840","0.0-14.0-0.69","616631efeeac0979c1ba85a9","650c16f0f2faf8d7a0d14c09","651c1d9acc2be51dd84eb2b5","null","null","<p style=""font-size: 60px; font-family: BACS"">TdmAmCd</p>","","","","","","","","",""
"html-keyboard-response","321","1085841","0.0-14.0-0.70","616631efeeac0979c1ba85a9","650c16f0f2faf8d7a0d14c09","651c1d9acc2be51dd84eb2b5","null","null","<p style=""font-size: 60px; font-family: BACS"">ctktmKcD</p>","","","","","","","","",""
"html-keyboard-response","322","1086857","0.0-14.0-0.71","616631efeeac0979c1ba85a9","650c16f0f2faf8d7a0d14c09","651c1d9acc2be51dd84eb2b5","null","null","<p style=""font-size: 60px; font-family: BACS"">OmtlDmCd</p>","","","","","","","","",""
"html-keyboard-response","323","1087872","0.0-14.0-0.72","616631efeeac0979c1ba85a9","650c16f0f2faf8d7a0d14c09","651c1d9acc2be51dd84eb2b5","null","null","<p style=""font-size: 60px; font-family: BACS"">kdEdYbTE</p>","","","","","","","","",""
"html-keyboard-response","324","1088889","0.0-14.0-0.73","616631efeeac0979c1ba85a9","650c16f0f2faf8d7a0d14c09","651c1d9acc2be51dd84eb2b5","null","null","<p style=""font-size: 60px; font-family: BACS"">tRPDmCd</p>","","","","","","","","",""
"html-keyboard-response","325","1089904","0.0-14.0-0.74","616631efeeac0979c1ba85a9","650c16f0f2faf8d7a0d14c09","651c1d9acc2be51dd84eb2b5","null","null","<p style=""font-size: 60px; font-family: BACS"">OAblcAZbl</p>","","","","","","","","",""
"html-keyboard-response","326","1090906","0.0-14.0-0.75","616631efeeac0979c1ba85a9","650c16f0f2faf8d7a0d14c09","651c1d9acc2be51dd84eb2b5","null","null","<p style=""font-size: 60px; font-family: BACS"">dKRDmCd</p>","","","","","","","","",""
"html-keyboard-response","327","1091907","0.0-14.0-0.76","616631efeeac0979c1ba85a9","650c16f0f2faf8d7a0d14c09","651c1d9acc2be51dd84eb2b5","null","null","<p style=""font-size: 60px; font-family: BACS"">dCtMAbdtK</p>","","","","","","","","",""
"html-keyboard-response","328","1092922","0.0-14.0-0.77","616631efeeac0979c1ba85a9","650c16f0f2faf8d7a0d14c09","651c1d9acc2be51dd84eb2b5","null","null","<p style=""font-size: 60px; font-family: BACS"">tRPDbTE</p>","","","","","","","","",""
"html-keyboard-response","329","1093924","0.0-14.0-0.78","616631efeeac0979c1ba85a9","650c16f0f2faf8d7a0d14c09","651c1d9acc2be51dd84eb2b5","null","null","<p style=""font-size: 60px; font-family: BACS"">UdYUQrNlZ</p>","","","","","","","","",""
"html-keyboard-response","330","1094939","0.0-14.0-0.79","616631efeeac0979c1ba85a9","650c16f0f2faf8d7a0d14c09","651c1d9acc2be51dd84eb2b5","null","null","<p style=""font-size: 60px; font-family: BACS"">tRPDmKcD</p>","","","","","","","","",""
"html-keyboard-response","331","1195032","0.0-15.0","616631efeeac0979c1ba85a9","650c16f0f2faf8d7a0d14c09","651c1d9acc2be51dd84eb2b5","100093"," ","<p>Great, you've seen the fourth block of words. You may now take a short break.</p>
      <p>Press the spacebar when you're ready to continue.</p>","","","","","","","","",""
"html-keyboard-response","332","1196042","0.0-16.0-0.0","616631efeeac0979c1ba85a9","650c16f0f2faf8d7a0d14c09","651c1d9acc2be51dd84eb2b5","null","null","<p style=""font-size: 60px; font-family: BACS"">tRPDdTAh</p>","","","","","","","","",""
"html-keyboard-response","333","1197055","0.0-16.0-0.1","616631efeeac0979c1ba85a9","650c16f0f2faf8d7a0d14c09","651c1d9acc2be51dd84eb2b5","null","null","<p style=""font-size: 60px; font-family: BACS"">tRPDdTAh</p>","","","","","","","","",""
"html-keyboard-response","334","1198058","0.0-16.0-0.2","616631efeeac0979c1ba85a9","650c16f0f2faf8d7a0d14c09","651c1d9acc2be51dd84eb2b5","null","null","<p style=""font-size: 60px; font-family: BACS"">tRPDdTAh</p>","","","","","","","","",""
"html-keyboard-response","335","1199063","0.0-16.0-0.3","616631efeeac0979c1ba85a9","650c16f0f2faf8d7a0d14c09","651c1d9acc2be51dd84eb2b5","null","null","<p style=""font-size: 60px; font-family: BACS"">tRPDdTAh</p>","","","","","","","","",""
"html-keyboard-response","336","1200065","0.0-16.0-0.4","616631efeeac0979c1ba85a9","650c16f0f2faf8d7a0d14c09","651c1d9acc2be51dd84eb2b5","null","null","<p style=""font-size: 60px; font-family: BACS"">tRPDdTAh</p>","","","","","","","","",""
"html-keyboard-response","337","1201080","0.0-16.0-0.5","616631efeeac0979c1ba85a9","650c16f0f2faf8d7a0d14c09","651c1d9acc2be51dd84eb2b5","null","null","<p style=""font-size: 60px; font-family: BACS"">tRPDdTAh</p>","","","","","","","","",""
"html-keyboard-response","338","1202095","0.0-16.0-0.6","616631efeeac0979c1ba85a9","650c16f0f2faf8d7a0d14c09","651c1d9acc2be51dd84eb2b5","null","null","<p style=""font-size: 60px; font-family: BACS"">tRPDdTAh</p>","","","","","","","","",""
"html-keyboard-response","339","1203098","0.0-16.0-0.7","616631efeeac0979c1ba85a9","650c16f0f2faf8d7a0d14c09","651c1d9acc2be51dd84eb2b5","null","null","<p style=""font-size: 60px; font-family: BACS"">tRPDdTAh</p>","","","","","","","","",""
"html-keyboard-response","340","1204102","0.0-16.0-0.8","616631efeeac0979c1ba85a9","650c16f0f2faf8d7a0d14c09","651c1d9acc2be51dd84eb2b5","null","null","<p style=""font-size: 60px; font-family: BACS"">tRPDdTAh</p>","","","","","","","","",""
"html-keyboard-response","341","1205103","0.0-16.0-0.9","616631efeeac0979c1ba85a9","650c16f0f2faf8d7a0d14c09","651c1d9acc2be51dd84eb2b5","null","null","<p style=""font-size: 60px; font-family: BACS"">tRPDdTAh</p>","","","","","","","","",""
"html-keyboard-response","342","1206107","0.0-16.0-0.10","616631efeeac0979c1ba85a9","650c16f0f2faf8d7a0d14c09","651c1d9acc2be51dd84eb2b5","null","null","<p style=""font-size: 60px; font-family: BACS"">tRPDdTAh</p>","","","","","","","","",""
"html-keyboard-response","343","1207117","0.0-16.0-0.11","616631efeeac0979c1ba85a9","650c16f0f2faf8d7a0d14c09","651c1d9acc2be51dd84eb2b5","null","null","<p style=""font-size: 60px; font-family: BACS"">tRPDdTAh</p>","","","","","","","","",""
"html-keyboard-response","344","1208118","0.0-16.0-0.12","616631efeeac0979c1ba85a9","650c16f0f2faf8d7a0d14c09","651c1d9acc2be51dd84eb2b5","null","null","<p style=""font-size: 60px; font-family: BACS"">tRPDdTAh</p>","","","","","","","","",""
"html-keyboard-response","345","1209123","0.0-16.0-0.13","616631efeeac0979c1ba85a9","650c16f0f2faf8d7a0d14c09","651c1d9acc2be51dd84eb2b5","null","null","<p style=""font-size: 60px; font-family: BACS"">tRPDdTAh</p>","","","","","","","","",""
"html-keyboard-response","346","1210133","0.0-16.0-0.14","616631efeeac0979c1ba85a9","650c16f0f2faf8d7a0d14c09","651c1d9acc2be51dd84eb2b5","null","null","<p style=""font-size: 60px; font-family: BACS"">tRPDdTAh</p>","","","","","","","","",""
"html-keyboard-response","347","1211144","0.0-16.0-0.15","616631efeeac0979c1ba85a9","650c16f0f2faf8d7a0d14c09","651c1d9acc2be51dd84eb2b5","null","null","<p style=""font-size: 60px; font-family: BACS"">tRPDdTAh</p>","","","","","","","","",""
"html-keyboard-response","348","1212157","0.0-16.0-0.16","616631efeeac0979c1ba85a9","650c16f0f2faf8d7a0d14c09","651c1d9acc2be51dd84eb2b5","null","null","<p style=""font-size: 60px; font-family: BACS"">tRPDdTAh</p>","","","","","","","","",""
"html-keyboard-response","349","1213165","0.0-16.0-0.17","616631efeeac0979c1ba85a9","650c16f0f2faf8d7a0d14c09","651c1d9acc2be51dd84eb2b5","null","null","<p style=""font-size: 60px; font-family: BACS"">tRPDdTAh</p>","","","","","","","","",""
"html-keyboard-response","350","1214176","0.0-16.0-0.18","616631efeeac0979c1ba85a9","650c16f0f2faf8d7a0d14c09","651c1d9acc2be51dd84eb2b5","null","null","<p style=""font-size: 60px; font-family: BACS"">tRPDdTAh</p>","","","","","","","","",""
"html-keyboard-response","351","1215179","0.0-16.0-0.19","616631efeeac0979c1ba85a9","650c16f0f2faf8d7a0d14c09","651c1d9acc2be51dd84eb2b5","null","null","<p style=""font-size: 60px; font-family: BACS"">tRPDdTAh</p>","","","","","","","","",""
"html-keyboard-response","352","1216180","0.0-16.0-0.20","616631efeeac0979c1ba85a9","650c16f0f2faf8d7a0d14c09","651c1d9acc2be51dd84eb2b5","null","null","<p style=""font-size: 60px; font-family: BACS"">tRPDdTAh</p>","","","","","","","","",""
"html-keyboard-response","353","1217181","0.0-16.0-0.21","616631efeeac0979c1ba85a9","650c16f0f2faf8d7a0d14c09","651c1d9acc2be51dd84eb2b5","null","null","<p style=""font-size: 60px; font-family: BACS"">tRPDdTAh</p>","","","","","","","","",""
"html-keyboard-response","354","1218197","0.0-16.0-0.22","616631efeeac0979c1ba85a9","650c16f0f2faf8d7a0d14c09","651c1d9acc2be51dd84eb2b5","null","null","<p style=""font-size: 60px; font-family: BACS"">tRPDdTAh</p>","","","","","","","","",""
"html-keyboard-response","355","1219201","0.0-16.0-0.23","616631efeeac0979c1ba85a9","650c16f0f2faf8d7a0d14c09","651c1d9acc2be51dd84eb2b5","null","null","<p style=""font-size: 60px; font-family: BACS"">tRPDdTAh</p>","","","","","","","","",""
"html-keyboard-response","356","1220217","0.0-16.0-0.24","616631efeeac0979c1ba85a9","650c16f0f2faf8d7a0d14c09","651c1d9acc2be51dd84eb2b5","null","null","<p style=""font-size: 60px; font-family: BACS"">tRPDdTAh</p>","","","","","","","","",""
"html-keyboard-response","357","1221225","0.0-16.0-0.25","616631efeeac0979c1ba85a9","650c16f0f2faf8d7a0d14c09","651c1d9acc2be51dd84eb2b5","null","null","<p style=""font-size: 60px; font-family: BACS"">tRPDdTAh</p>","","","","","","","","",""
"html-keyboard-response","358","1222228","0.0-16.0-0.26","616631efeeac0979c1ba85a9","650c16f0f2faf8d7a0d14c09","651c1d9acc2be51dd84eb2b5","null","null","<p style=""font-size: 60px; font-family: BACS"">tRPDdTAh</p>","","","","","","","","",""
"html-keyboard-response","359","1223230","0.0-16.0-0.27","616631efeeac0979c1ba85a9","650c16f0f2faf8d7a0d14c09","651c1d9acc2be51dd84eb2b5","null","null","<p style=""font-size: 60px; font-family: BACS"">tRPDdTAh</p>","","","","","","","","",""
"html-keyboard-response","360","1224232","0.0-16.0-0.28","616631efeeac0979c1ba85a9","650c16f0f2faf8d7a0d14c09","651c1d9acc2be51dd84eb2b5","null","null","<p style=""font-size: 60px; font-family: BACS"">tRPDdTAh</p>","","","","","","","","",""
"html-keyboard-response","361","1225247","0.0-16.0-0.29","616631efeeac0979c1ba85a9","650c16f0f2faf8d7a0d14c09","651c1d9acc2be51dd84eb2b5","null","null","<p style=""font-size: 60px; font-family: BACS"">tRPDdTAh</p>","","","","","","","","",""
"html-keyboard-response","362","1226251","0.0-16.0-0.30","616631efeeac0979c1ba85a9","650c16f0f2faf8d7a0d14c09","651c1d9acc2be51dd84eb2b5","null","null","<p style=""font-size: 60px; font-family: BACS"">tRPDdTAh</p>","","","","","","","","",""
"html-keyboard-response","363","1227258","0.0-16.0-0.31","616631efeeac0979c1ba85a9","650c16f0f2faf8d7a0d14c09","651c1d9acc2be51dd84eb2b5","null","null","<p style=""font-size: 60px; font-family: BACS"">tRPDdTAh</p>","","","","","","","","",""
"html-keyboard-response","364","1228265","0.0-16.0-0.32","616631efeeac0979c1ba85a9","650c16f0f2faf8d7a0d14c09","651c1d9acc2be51dd84eb2b5","null","null","<p style=""font-size: 60px; font-family: BACS"">tRPDdTAh</p>","","","","","","","","",""
"html-keyboard-response","365","1229272","0.0-16.0-0.33","616631efeeac0979c1ba85a9","650c16f0f2faf8d7a0d14c09","651c1d9acc2be51dd84eb2b5","null","null","<p style=""font-size: 60px; font-family: BACS"">tRPDdTAh</p>","","","","","","","","",""
"html-keyboard-response","366","1230280","0.0-16.0-0.34","616631efeeac0979c1ba85a9","650c16f0f2faf8d7a0d14c09","651c1d9acc2be51dd84eb2b5","null","null","<p style=""font-size: 60px; font-family: BACS"">tRPDdTAh</p>","","","","","","","","",""
"html-keyboard-response","367","1231292","0.0-16.0-0.35","616631efeeac0979c1ba85a9","650c16f0f2faf8d7a0d14c09","651c1d9acc2be51dd84eb2b5","null","null","<p style=""font-size: 60px; font-family: BACS"">tRPDdTAh</p>","","","","","","","","",""
"html-keyboard-response","368","1232293","0.0-16.0-0.36","616631efeeac0979c1ba85a9","650c16f0f2faf8d7a0d14c09","651c1d9acc2be51dd84eb2b5","null","null","<p style=""font-size: 60px; font-family: BACS"">tRPDdTAh</p>","","","","","","","","",""
"html-keyboard-response","369","1233305","0.0-16.0-0.37","616631efeeac0979c1ba85a9","650c16f0f2faf8d7a0d14c09","651c1d9acc2be51dd84eb2b5","null","null","<p style=""font-size: 60px; font-family: BACS"">tRPDdTAh</p>","","","","","","","","",""
"html-keyboard-response","370","1234313","0.0-16.0-0.38","616631efeeac0979c1ba85a9","650c16f0f2faf8d7a0d14c09","651c1d9acc2be51dd84eb2b5","null","null","<p style=""font-size: 60px; font-family: BACS"">tRPDdTAh</p>","","","","","","","","",""
"html-keyboard-response","371","1235316","0.0-16.0-0.39","616631efeeac0979c1ba85a9","650c16f0f2faf8d7a0d14c09","651c1d9acc2be51dd84eb2b5","null","null","<p style=""font-size: 60px; font-family: BACS"">tRPDdTAh</p>","","","","","","","","",""
"html-keyboard-response","372","1236321","0.0-16.0-0.40","616631efeeac0979c1ba85a9","650c16f0f2faf8d7a0d14c09","651c1d9acc2be51dd84eb2b5","null","null","<p style=""font-size: 60px; font-family: BACS"">tRPDdTAh</p>","","","","","","","","",""
"html-keyboard-response","373","1237337","0.0-16.0-0.41","616631efeeac0979c1ba85a9","650c16f0f2faf8d7a0d14c09","651c1d9acc2be51dd84eb2b5","null","null","<p style=""font-size: 60px; font-family: BACS"">tRPDdTAh</p>","","","","","","","","",""
"html-keyboard-response","374","1238351","0.0-16.0-0.42","616631efeeac0979c1ba85a9","650c16f0f2faf8d7a0d14c09","651c1d9acc2be51dd84eb2b5","null","null","<p style=""font-size: 60px; font-family: BACS"">tRPDdTAh</p>","","","","","","","","",""
"html-keyboard-response","375","1239353","0.0-16.0-0.43","616631efeeac0979c1ba85a9","650c16f0f2faf8d7a0d14c09","651c1d9acc2be51dd84eb2b5","null","null","<p style=""font-size: 60px; font-family: BACS"">tRPDdTAh</p>","","","","","","","","",""
"html-keyboard-response","376","1240358","0.0-16.0-0.44","616631efeeac0979c1ba85a9","650c16f0f2faf8d7a0d14c09","651c1d9acc2be51dd84eb2b5","null","null","<p style=""font-size: 60px; font-family: BACS"">tRPDdTAh</p>","","","","","","","","",""
"html-keyboard-response","377","1241362","0.0-16.0-0.45","616631efeeac0979c1ba85a9","650c16f0f2faf8d7a0d14c09","651c1d9acc2be51dd84eb2b5","null","null","<p style=""font-size: 60px; font-family: BACS"">tRPDdTAh</p>","","","","","","","","",""
"html-keyboard-response","378","1242370","0.0-16.0-0.46","616631efeeac0979c1ba85a9","650c16f0f2faf8d7a0d14c09","651c1d9acc2be51dd84eb2b5","null","null","<p style=""font-size: 60px; font-family: BACS"">tRPDdTAh</p>","","","","","","","","",""
"html-keyboard-response","379","1243373","0.0-16.0-0.47","616631efeeac0979c1ba85a9","650c16f0f2faf8d7a0d14c09","651c1d9acc2be51dd84eb2b5","null","null","<p style=""font-size: 60px; font-family: BACS"">tRPDdTAh</p>","","","","","","","","",""
"html-keyboard-response","380","1244378","0.0-16.0-0.48","616631efeeac0979c1ba85a9","650c16f0f2faf8d7a0d14c09","651c1d9acc2be51dd84eb2b5","null","null","<p style=""font-size: 60px; font-family: BACS"">tRPDdTAh</p>","","","","","","","","",""
"html-keyboard-response","381","1245392","0.0-16.0-0.49","616631efeeac0979c1ba85a9","650c16f0f2faf8d7a0d14c09","651c1d9acc2be51dd84eb2b5","null","null","<p style=""font-size: 60px; font-family: BACS"">tRPDdTAh</p>","","","","","","","","",""
"html-keyboard-response","382","1246395","0.0-16.0-0.50","616631efeeac0979c1ba85a9","650c16f0f2faf8d7a0d14c09","651c1d9acc2be51dd84eb2b5","null","null","<p style=""font-size: 60px; font-family: BACS"">tRPDdTAh</p>","","","","","","","","",""
"html-keyboard-response","383","1247398","0.0-16.0-0.51","616631efeeac0979c1ba85a9","650c16f0f2faf8d7a0d14c09","651c1d9acc2be51dd84eb2b5","null","null","<p style=""font-size: 60px; font-family: BACS"">tRPDdTAh</p>","","","","","","","","",""
"html-keyboard-response","384","1248400","0.0-16.0-0.52","616631efeeac0979c1ba85a9","650c16f0f2faf8d7a0d14c09","651c1d9acc2be51dd84eb2b5","null","null","<p style=""font-size: 60px; font-family: BACS"">tRPDdTAh</p>","","","","","","","","",""
"html-keyboard-response","385","1249401","0.0-16.0-0.53","616631efeeac0979c1ba85a9","650c16f0f2faf8d7a0d14c09","651c1d9acc2be51dd84eb2b5","null","null","<p style=""font-size: 60px; font-family: BACS"">tRPDdTAh</p>","","","","","","","","",""
"html-keyboard-response","386","1250406","0.0-16.0-0.54","616631efeeac0979c1ba85a9","650c16f0f2faf8d7a0d14c09","651c1d9acc2be51dd84eb2b5","null","null","<p style=""font-size: 60px; font-family: BACS"">tRPDdTAh</p>","","","","","","","","",""
"html-keyboard-response","387","1251422","0.0-16.0-0.55","616631efeeac0979c1ba85a9","650c16f0f2faf8d7a0d14c09","651c1d9acc2be51dd84eb2b5","null","null","<p style=""font-size: 60px; font-family: BACS"">tRPDdTAh</p>","","","","","","","","",""
"html-keyboard-response","388","1252430","0.0-16.0-0.56","616631efeeac0979c1ba85a9","650c16f0f2faf8d7a0d14c09","651c1d9acc2be51dd84eb2b5","null","null","<p style=""font-size: 60px; font-family: BACS"">tRPDdTAh</p>","","","","","","","","",""
"html-keyboard-response","389","1253438","0.0-16.0-0.57","616631efeeac0979c1ba85a9","650c16f0f2faf8d7a0d14c09","651c1d9acc2be51dd84eb2b5","null","null","<p style=""font-size: 60px; font-family: BACS"">tRPDdTAh</p>","","","","","","","","",""
"html-keyboard-response","390","1254446","0.0-16.0-0.58","616631efeeac0979c1ba85a9","650c16f0f2faf8d7a0d14c09","651c1d9acc2be51dd84eb2b5","null","null","<p style=""font-size: 60px; font-family: BACS"">tRPDdTAh</p>","","","","","","","","",""
"html-keyboard-response","391","1255450","0.0-16.0-0.59","616631efeeac0979c1ba85a9","650c16f0f2faf8d7a0d14c09","651c1d9acc2be51dd84eb2b5","null","null","<p style=""font-size: 60px; font-family: BACS"">tRPDdTAh</p>","","","","","","","","",""
"html-keyboard-response","392","1256452","0.0-16.0-0.60","616631efeeac0979c1ba85a9","650c16f0f2faf8d7a0d14c09","651c1d9acc2be51dd84eb2b5","null","null","<p style=""font-size: 60px; font-family: BACS"">tRPDdTAh</p>","","","","","","","","",""
"html-keyboard-response","393","1257459","0.0-16.0-0.61","616631efeeac0979c1ba85a9","650c16f0f2faf8d7a0d14c09","651c1d9acc2be51dd84eb2b5","null","null","<p style=""font-size: 60px; font-family: BACS"">tRPDdTAh</p>","","","","","","","","",""
"html-keyboard-response","394","1258464","0.0-16.0-0.62","616631efeeac0979c1ba85a9","650c16f0f2faf8d7a0d14c09","651c1d9acc2be51dd84eb2b5","null","null","<p style=""font-size: 60px; font-family: BACS"">tRPDdTAh</p>","","","","","","","","",""
"html-keyboard-response","395","1259473","0.0-16.0-0.63","616631efeeac0979c1ba85a9","650c16f0f2faf8d7a0d14c09","651c1d9acc2be51dd84eb2b5","null","null","<p style=""font-size: 60px; font-family: BACS"">tRPDdTAh</p>","","","","","","","","",""
"html-keyboard-response","396","1260485","0.0-16.0-0.64","616631efeeac0979c1ba85a9","650c16f0f2faf8d7a0d14c09","651c1d9acc2be51dd84eb2b5","null","null","<p style=""font-size: 60px; font-family: BACS"">tRPDdTAh</p>","","","","","","","","",""
"html-keyboard-response","397","1261490","0.0-16.0-0.65","616631efeeac0979c1ba85a9","650c16f0f2faf8d7a0d14c09","651c1d9acc2be51dd84eb2b5","null","null","<p style=""font-size: 60px; font-family: BACS"">tRPDdTAh</p>","","","","","","","","",""
"html-keyboard-response","398","1262494","0.0-16.0-0.66","616631efeeac0979c1ba85a9","650c16f0f2faf8d7a0d14c09","651c1d9acc2be51dd84eb2b5","null","null","<p style=""font-size: 60px; font-family: BACS"">tRPDdTAh</p>","","","","","","","","",""
"html-keyboard-response","399","1263497","0.0-16.0-0.67","616631efeeac0979c1ba85a9","650c16f0f2faf8d7a0d14c09","651c1d9acc2be51dd84eb2b5","null","null","<p style=""font-size: 60px; font-family: BACS"">tRPDdTAh</p>","","","","","","","","",""
