"trial_type","trial_index","time_elapsed","internal_node_id","subject_id","study_id","session_id","rt","response","stimulus","success","item","task","correct_response","correct","target","confound","name"
"pavlovia","0","4013","0.0-0.0","5e8783b0fde5153fbd9dca43","64afc2c9a8732ea92db0087d","64aff80b96dc6f8883a6fae0","","","","","","","","","","",""
"survey-html-form","1","10592","0.0-1.0","5e8783b0fde5153fbd9dca43","64afc2c9a8732ea92db0087d","64aff80b96dc6f8883a6fae0","6576","{""ID"":""5e8783b0fde5153fbd9dca43""}","","","","","","","","",""
"html-keyboard-response","2","169948","0.0-2.0","5e8783b0fde5153fbd9dca43","64afc2c9a8732ea92db0087d","64aff80b96dc6f8883a6fae0","159347"," ","<p style=""font-size: 15px;"">Prima di cominciare, le chiediamo di leggere il modulo di consenso informato e confermare la sua volontà di partecipare all'esperimento.</p>
      <p style=""font-size: 15px;""> La preghiamo di ricordare che questo è un progetto di ricerca e che la sua partecipazione è completamente volontaria. Lei si potra' ritirare in qualunque momento, senza necessariamente dover dare alcuna spiegazione. Lo studio al quale Le si chiede di partecipare ha lo scopo di esaminare come i lettori elaborano le parole scritte. La somministrazione delle prove è individuale. Lei sarà impegnato in una sessione di lavoro della durata media di 10 minuti, e un questionario di 10 minuti. L’ordine delle prove ed il loro svolgimento sono stabiliti in modo tale da evitare un eventuale affaticamento. Tutte le prove saranno precedute da un breve addestramento in modo tale che abbia la possibilità di familiarizzare con il compito. Sono previste alcune pause nel corso dello svolgimento dell’esperimento. Una ricompensa di £4 (£8 per ora) Le verrà consegnata al termine della sessione di testing. Nonostante il testing preveda delle prove cognitive, il presente esperimento non costituisce una prova clinica che permetta la diagnosi di eventuali patologie.</p>
      <p style=""font-size: 15px;"">Tutti i dati raccolti grazie alla partecipazione Sua e di altre persone volontarie saranno custoditi in server sicuri e protetti da password, e non sarà consentito ad alcuna persona non autorizzata di accedervi. Le Sue informazioni personali saranno conservate separatamente dai risultati della presente ricerca, cui saranno associati soltanto attraverso un ID arbitrario. Grazie a questo processo di anonimizzazione dei dati, a nessun ricercatore sarà possibile analizzare i risultati sapendo da quale specifico partecipante essi provengono. Inoltre, questa procedura renderà impossibile la Sua identificazione anche nel momento in cui i risultati della ricerca fossero pubblicati su riviste scientifiche, o presentati a congressi o in qualsiasi altro pubblico consesso. Più in generale, i dati raccolti saranno trattati in accordo con le leggi sulla privacy e in conformità al Decreto Legislativo 30 giugno 2003 n. 196 “Codice in materia di protezione dei dati personali” e al Regolamento Europeo 2016/679 (General Data Protection Regulation - GDPR). Il Responsabile della protezione dei dati (RPD) è l’Avv. Valentina Carollo che può essere contattato ai seguenti indirizzi email: <a href=""mailto:dpo@sissa.it"">dpo@sissa.it</a> oppure <a href=""mailto:rpd@sissa.it"">rpd@sissa.it</a> - PEC: <a href=""mailto:protocollo@pec.sissa.it"">protocollo@pec.sissa.it</a>.</p>
      <p style=""font-size: 15px;""> Prima di esprimere il suo consenso alla partecipazione, Le ricordiamo ancora che in caso Lei abbia bisogno di delucidazioni su qualunque aspetto della procedura sperimentale, il ricercatore è a Sua completa disposizione (<a href=""mailto:aliebelt@sissa.it"">aliebelt@sissa.it</a>, <a href=""mailto:davide.crepaldi@sissa.it"">davide.crepaldi@sissa.it</a>).</p>
      <p style=""font-size: 15px;"">Se vuole scaricare il modulo di consenso informato, clicca qui: <a href=""BASL_modulo_consenso.pdf"" download>modulo di consenso</a>.</p>
      <p style=""font-size: 15px;""> Le chiediamo di premere la barra per continuare al consenso.</p>","","","","","","","",""
"survey-html-form","3","184716","0.0-3.0","5e8783b0fde5153fbd9dca43","64afc2c9a8732ea92db0087d","64aff80b96dc6f8883a6fae0","14766","{""consent1"":""YES"",""consent2"":""YES"",""consent3"":""YES"",""consent4"":""YES"",""consent5"":""YES"",""consent6"":""YES""}","","","","","","","","",""
"fullscreen","4","200185","0.0-4.0","5e8783b0fde5153fbd9dca43","64afc2c9a8732ea92db0087d","64aff80b96dc6f8883a6fae0","","","","true","","","","","","",""
"html-keyboard-response","5","379909","0.0-5.0","5e8783b0fde5153fbd9dca43","64afc2c9a8732ea92db0087d","64aff80b96dc6f8883a6fae0","179718"," ","<p>Benvenuta/o, e grazie mille del tuo tempo!</p>
      <p>In questo esperimento sarai un esperto/un'esperta di linguaggio cui è stato chiesto di dare un'occhiata ad alcuni messaggi che la Terra ha ricevuto dallo spazio. Il tuo compito, in questa prima parte dell'esperimento, sarà di fare molta attenzione alle parole che ti verranno mostrate; più tardi, i leader del mondo ti chiederanno qualche informazione su quello che hai visto. Le parole si susseguiranno abbastanza velocemente; sembra che questi alieni abbiano una certa fretta :-) </p>
      <p>Per favore, chiama lo sperimentatore se ha qualche domanda.</p><p>Premi la barra per continuare.</p>","","","","","","","",""
"html-keyboard-response","6","388236","0.0-6.0","5e8783b0fde5153fbd9dca43","64afc2c9a8732ea92db0087d","64aff80b96dc6f8883a6fae0","8324"," ","<p>Ecco un esempio delle parole che vedrai:</p>
      <img src='esempio.png' height='400px'>
      <p>Quando sei pronti per iniziare, premi la barra.</p></div>","","","","","","","",""
"html-keyboard-response","7","389250","0.0-7.0-0.0","5e8783b0fde5153fbd9dca43","64afc2c9a8732ea92db0087d","64aff80b96dc6f8883a6fae0","null","null","<p style=""font-size: 60px; font-family: BACS"">TEBKCMdP</p>","","","","","","","",""
"html-keyboard-response","8","390254","0.0-7.0-0.1","5e8783b0fde5153fbd9dca43","64afc2c9a8732ea92db0087d","64aff80b96dc6f8883a6fae0","null","null","<p style=""font-size: 60px; font-family: BACS"">ZYcQUuOAO</p>","","","","","","","",""
"html-keyboard-response","9","391257","0.0-7.0-0.2","5e8783b0fde5153fbd9dca43","64afc2c9a8732ea92db0087d","64aff80b96dc6f8883a6fae0","null","null","<p style=""font-size: 60px; font-family: BACS"">dKRDMAB</p>","","","","","","","",""
"html-keyboard-response","10","392266","0.0-7.0-0.3","5e8783b0fde5153fbd9dca43","64afc2c9a8732ea92db0087d","64aff80b96dc6f8883a6fae0","null","null","<p style=""font-size: 60px; font-family: BACS"">MTdYbRC</p>","","","","","","","",""
"html-keyboard-response","11","393269","0.0-7.0-0.4","5e8783b0fde5153fbd9dca43","64afc2c9a8732ea92db0087d","64aff80b96dc6f8883a6fae0","null","null","<p style=""font-size: 60px; font-family: BACS"">AbkaNYZu</p>","","","","","","","",""
"html-keyboard-response","12","394284","0.0-7.0-0.5","5e8783b0fde5153fbd9dca43","64afc2c9a8732ea92db0087d","64aff80b96dc6f8883a6fae0","null","null","<p style=""font-size: 60px; font-family: BACS"">OCmkmKcD</p>","","","","","","","",""
"html-keyboard-response","13","395303","0.0-7.0-0.6","5e8783b0fde5153fbd9dca43","64afc2c9a8732ea92db0087d","64aff80b96dc6f8883a6fae0","null","null","<p style=""font-size: 60px; font-family: BACS"">YLQmGravu</p>","","","","","","","",""
"html-keyboard-response","14","396310","0.0-7.0-0.7","5e8783b0fde5153fbd9dca43","64afc2c9a8732ea92db0087d","64aff80b96dc6f8883a6fae0","null","null","<p style=""font-size: 60px; font-family: BACS"">NJZluOAO</p>","","","","","","","",""
"html-keyboard-response","15","397331","0.0-7.0-0.8","5e8783b0fde5153fbd9dca43","64afc2c9a8732ea92db0087d","64aff80b96dc6f8883a6fae0","null","null","<p style=""font-size: 60px; font-family: BACS"">QcladuvJ</p>","","","","","","","",""
"html-keyboard-response","16","398342","0.0-7.0-0.9","5e8783b0fde5153fbd9dca43","64afc2c9a8732ea92db0087d","64aff80b96dc6f8883a6fae0","null","null","<p style=""font-size: 60px; font-family: BACS"">TbKMEATc</p>","","","","","","","",""
"html-keyboard-response","17","399357","0.0-7.0-0.10","5e8783b0fde5153fbd9dca43","64afc2c9a8732ea92db0087d","64aff80b96dc6f8883a6fae0","null","null","<p style=""font-size: 60px; font-family: BACS"">ukYZravu</p>","","","","","","","",""
"html-keyboard-response","18","400368","0.0-7.0-0.11","5e8783b0fde5153fbd9dca43","64afc2c9a8732ea92db0087d","64aff80b96dc6f8883a6fae0","null","null","<p style=""font-size: 60px; font-family: BACS"">bYuQNYZu</p>","","","","","","","",""
"html-keyboard-response","19","401375","0.0-7.0-0.12","5e8783b0fde5153fbd9dca43","64afc2c9a8732ea92db0087d","64aff80b96dc6f8883a6fae0","null","null","<p style=""font-size: 60px; font-family: BACS"">KBKBECMdP</p>","","","","","","","",""
"html-keyboard-response","20","402390","0.0-7.0-0.13","5e8783b0fde5153fbd9dca43","64afc2c9a8732ea92db0087d","64aff80b96dc6f8883a6fae0","null","null","<p style=""font-size: 60px; font-family: BACS"">ZYcQUNYZu</p>","","","","","","","",""
"html-keyboard-response","21","403407","0.0-7.0-0.14","5e8783b0fde5153fbd9dca43","64afc2c9a8732ea92db0087d","64aff80b96dc6f8883a6fae0","null","null","<p style=""font-size: 60px; font-family: BACS"">hAROKCMdP</p>","","","","","","","",""
"html-keyboard-response","22","404423","0.0-7.0-0.15","5e8783b0fde5153fbd9dca43","64afc2c9a8732ea92db0087d","64aff80b96dc6f8883a6fae0","null","null","<p style=""font-size: 60px; font-family: BACS"">aONduOAO</p>","","","","","","","",""
"html-keyboard-response","23","405435","0.0-7.0-0.16","5e8783b0fde5153fbd9dca43","64afc2c9a8732ea92db0087d","64aff80b96dc6f8883a6fae0","null","null","<p style=""font-size: 60px; font-family: BACS"">ZkGmYvUdm</p>","","","","","","","",""
"html-keyboard-response","24","406451","0.0-7.0-0.17","5e8783b0fde5153fbd9dca43","64afc2c9a8732ea92db0087d","64aff80b96dc6f8883a6fae0","null","null","<p style=""font-size: 60px; font-family: BACS"">blMkmKcD</p>","","","","","","","",""
"html-keyboard-response","25","407466","0.0-7.0-0.18","5e8783b0fde5153fbd9dca43","64afc2c9a8732ea92db0087d","64aff80b96dc6f8883a6fae0","null","null","<p style=""font-size: 60px; font-family: BACS"">hAROKMAB</p>","","","","","","","",""
"html-keyboard-response","26","408469","0.0-7.0-0.19","5e8783b0fde5153fbd9dca43","64afc2c9a8732ea92db0087d","64aff80b96dc6f8883a6fae0","null","null","<p style=""font-size: 60px; font-family: BACS"">aONduvJ</p>","","","","","","","",""
"html-keyboard-response","27","409474","0.0-7.0-0.20","5e8783b0fde5153fbd9dca43","64afc2c9a8732ea92db0087d","64aff80b96dc6f8883a6fae0","null","null","<p style=""font-size: 60px; font-family: BACS"">dKRDbRC</p>","","","","","","","",""
"html-keyboard-response","28","410485","0.0-7.0-0.21","5e8783b0fde5153fbd9dca43","64afc2c9a8732ea92db0087d","64aff80b96dc6f8883a6fae0","null","null","<p style=""font-size: 60px; font-family: BACS"">YLQmGvUdm</p>","","","","","","","",""
"html-keyboard-response","29","411499","0.0-7.0-0.22","5e8783b0fde5153fbd9dca43","64afc2c9a8732ea92db0087d","64aff80b96dc6f8883a6fae0","null","null","<p style=""font-size: 60px; font-family: BACS"">MTdYMAB</p>","","","","","","","",""
"html-keyboard-response","30","412517","0.0-7.0-0.23","5e8783b0fde5153fbd9dca43","64afc2c9a8732ea92db0087d","64aff80b96dc6f8883a6fae0","null","null","<p style=""font-size: 60px; font-family: BACS"">TbKMECMdP</p>","","","","","","","",""
"html-keyboard-response","31","413533","0.0-7.0-0.24","5e8783b0fde5153fbd9dca43","64afc2c9a8732ea92db0087d","64aff80b96dc6f8883a6fae0","null","null","<p style=""font-size: 60px; font-family: BACS"">KBKBEMAB</p>","","","","","","","",""
"html-keyboard-response","32","414543","0.0-7.0-0.25","5e8783b0fde5153fbd9dca43","64afc2c9a8732ea92db0087d","64aff80b96dc6f8883a6fae0","null","null","<p style=""font-size: 60px; font-family: BACS"">Abkaravu</p>","","","","","","","",""
"html-keyboard-response","33","415555","0.0-7.0-0.26","5e8783b0fde5153fbd9dca43","64afc2c9a8732ea92db0087d","64aff80b96dc6f8883a6fae0","null","null","<p style=""font-size: 60px; font-family: BACS"">blMkbRC</p>","","","","","","","",""
"html-keyboard-response","34","416562","0.0-7.0-0.27","5e8783b0fde5153fbd9dca43","64afc2c9a8732ea92db0087d","64aff80b96dc6f8883a6fae0","null","null","<p style=""font-size: 60px; font-family: BACS"">Qcladravu</p>","","","","","","","",""
"html-keyboard-response","35","417567","0.0-7.0-0.28","5e8783b0fde5153fbd9dca43","64afc2c9a8732ea92db0087d","64aff80b96dc6f8883a6fae0","null","null","<p style=""font-size: 60px; font-family: BACS"">AbkauvJ</p>","","","","","","","",""
"html-keyboard-response","36","418575","0.0-7.0-0.29","5e8783b0fde5153fbd9dca43","64afc2c9a8732ea92db0087d","64aff80b96dc6f8883a6fae0","null","null","<p style=""font-size: 60px; font-family: BACS"">blMkMAB</p>","","","","","","","",""
"html-keyboard-response","37","419591","0.0-7.0-0.30","5e8783b0fde5153fbd9dca43","64afc2c9a8732ea92db0087d","64aff80b96dc6f8883a6fae0","null","null","<p style=""font-size: 60px; font-family: BACS"">COtBDATc</p>","","","","","","","",""
"html-keyboard-response","38","420607","0.0-7.0-0.31","5e8783b0fde5153fbd9dca43","64afc2c9a8732ea92db0087d","64aff80b96dc6f8883a6fae0","null","null","<p style=""font-size: 60px; font-family: BACS"">ukYZuvJ</p>","","","","","","","",""
"html-keyboard-response","39","421623","0.0-7.0-0.32","5e8783b0fde5153fbd9dca43","64afc2c9a8732ea92db0087d","64aff80b96dc6f8883a6fae0","null","null","<p style=""font-size: 60px; font-family: BACS"">OJGQravu</p>","","","","","","","",""
"html-keyboard-response","40","422636","0.0-7.0-0.33","5e8783b0fde5153fbd9dca43","64afc2c9a8732ea92db0087d","64aff80b96dc6f8883a6fae0","null","null","<p style=""font-size: 60px; font-family: BACS"">MTdYATc</p>","","","","","","","",""
"html-keyboard-response","41","423641","0.0-7.0-0.34","5e8783b0fde5153fbd9dca43","64afc2c9a8732ea92db0087d","64aff80b96dc6f8883a6fae0","null","null","<p style=""font-size: 60px; font-family: BACS"">NJZluvJ</p>","","","","","","","",""
"html-keyboard-response","42","424660","0.0-7.0-0.35","5e8783b0fde5153fbd9dca43","64afc2c9a8732ea92db0087d","64aff80b96dc6f8883a6fae0","null","null","<p style=""font-size: 60px; font-family: BACS"">TEBKATc</p>","","","","","","","",""
"html-keyboard-response","43","425674","0.0-7.0-0.36","5e8783b0fde5153fbd9dca43","64afc2c9a8732ea92db0087d","64aff80b96dc6f8883a6fae0","null","null","<p style=""font-size: 60px; font-family: BACS"">bYuQvUdm</p>","","","","","","","",""
"html-keyboard-response","44","426686","0.0-7.0-0.37","5e8783b0fde5153fbd9dca43","64afc2c9a8732ea92db0087d","64aff80b96dc6f8883a6fae0","null","null","<p style=""font-size: 60px; font-family: BACS"">dKRDmKcD</p>","","","","","","","",""
"html-keyboard-response","45","427698","0.0-7.0-0.38","5e8783b0fde5153fbd9dca43","64afc2c9a8732ea92db0087d","64aff80b96dc6f8883a6fae0","null","null","<p style=""font-size: 60px; font-family: BACS"">OCmkMAB</p>","","","","","","","",""
"html-keyboard-response","46","428702","0.0-7.0-0.39","5e8783b0fde5153fbd9dca43","64afc2c9a8732ea92db0087d","64aff80b96dc6f8883a6fae0","null","null","<p style=""font-size: 60px; font-family: BACS"">KBKBEmKcD</p>","","","","","","","",""
"html-keyboard-response","47","429709","0.0-7.0-0.40","5e8783b0fde5153fbd9dca43","64afc2c9a8732ea92db0087d","64aff80b96dc6f8883a6fae0","null","null","<p style=""font-size: 60px; font-family: BACS"">YLQmGNYZu</p>","","","","","","","",""
"html-keyboard-response","48","430722","0.0-7.0-0.41","5e8783b0fde5153fbd9dca43","64afc2c9a8732ea92db0087d","64aff80b96dc6f8883a6fae0","null","null","<p style=""font-size: 60px; font-family: BACS"">aONdvUdm</p>","","","","","","","",""
"html-keyboard-response","49","431725","0.0-7.0-0.42","5e8783b0fde5153fbd9dca43","64afc2c9a8732ea92db0087d","64aff80b96dc6f8883a6fae0","null","null","<p style=""font-size: 60px; font-family: BACS"">kMbTRATc</p>","","","","","","","",""
"html-keyboard-response","50","432739","0.0-7.0-0.43","5e8783b0fde5153fbd9dca43","64afc2c9a8732ea92db0087d","64aff80b96dc6f8883a6fae0","null","null","<p style=""font-size: 60px; font-family: BACS"">OJGQvUdm</p>","","","","","","","",""
"html-keyboard-response","51","433757","0.0-7.0-0.44","5e8783b0fde5153fbd9dca43","64afc2c9a8732ea92db0087d","64aff80b96dc6f8883a6fae0","null","null","<p style=""font-size: 60px; font-family: BACS"">COtBDMAB</p>","","","","","","","",""
"html-keyboard-response","52","434769","0.0-7.0-0.45","5e8783b0fde5153fbd9dca43","64afc2c9a8732ea92db0087d","64aff80b96dc6f8883a6fae0","null","null","<p style=""font-size: 60px; font-family: BACS"">ZkGmYuvJ</p>","","","","","","","",""
"html-keyboard-response","53","435783","0.0-7.0-0.46","5e8783b0fde5153fbd9dca43","64afc2c9a8732ea92db0087d","64aff80b96dc6f8883a6fae0","null","null","<p style=""font-size: 60px; font-family: BACS"">ukYZuOAO</p>","","","","","","","",""
"html-keyboard-response","54","436791","0.0-7.0-0.47","5e8783b0fde5153fbd9dca43","64afc2c9a8732ea92db0087d","64aff80b96dc6f8883a6fae0","null","null","<p style=""font-size: 60px; font-family: BACS"">TbKMEmKcD</p>","","","","","","","",""
"html-keyboard-response","55","437807","0.0-7.0-0.48","5e8783b0fde5153fbd9dca43","64afc2c9a8732ea92db0087d","64aff80b96dc6f8883a6fae0","null","null","<p style=""font-size: 60px; font-family: BACS"">ZkGmYuOAO</p>","","","","","","","",""
"html-keyboard-response","56","438819","0.0-7.0-0.49","5e8783b0fde5153fbd9dca43","64afc2c9a8732ea92db0087d","64aff80b96dc6f8883a6fae0","null","null","<p style=""font-size: 60px; font-family: BACS"">OJGQuvJ</p>","","","","","","","",""
"html-keyboard-response","57","439834","0.0-7.0-0.50","5e8783b0fde5153fbd9dca43","64afc2c9a8732ea92db0087d","64aff80b96dc6f8883a6fae0","null","null","<p style=""font-size: 60px; font-family: BACS"">kMbTRmKcD</p>","","","","","","","",""
"html-keyboard-response","58","440851","0.0-7.0-0.51","5e8783b0fde5153fbd9dca43","64afc2c9a8732ea92db0087d","64aff80b96dc6f8883a6fae0","null","null","<p style=""font-size: 60px; font-family: BACS"">QcladvUdm</p>","","","","","","","",""
"html-keyboard-response","59","441867","0.0-7.0-0.52","5e8783b0fde5153fbd9dca43","64afc2c9a8732ea92db0087d","64aff80b96dc6f8883a6fae0","null","null","<p style=""font-size: 60px; font-family: BACS"">MTdYCMdP</p>","","","","","","","",""
"html-keyboard-response","60","442881","0.0-7.0-0.53","5e8783b0fde5153fbd9dca43","64afc2c9a8732ea92db0087d","64aff80b96dc6f8883a6fae0","null","null","<p style=""font-size: 60px; font-family: BACS"">QcladNYZu</p>","","","","","","","",""
"html-keyboard-response","61","443891","0.0-7.0-0.54","5e8783b0fde5153fbd9dca43","64afc2c9a8732ea92db0087d","64aff80b96dc6f8883a6fae0","null","null","<p style=""font-size: 60px; font-family: BACS"">ZYcQUravu</p>","","","","","","","",""
"html-keyboard-response","62","444907","0.0-7.0-0.55","5e8783b0fde5153fbd9dca43","64afc2c9a8732ea92db0087d","64aff80b96dc6f8883a6fae0","null","null","<p style=""font-size: 60px; font-family: BACS"">bYuQuOAO</p>","","","","","","","",""
"html-keyboard-response","63","445924","0.0-7.0-0.56","5e8783b0fde5153fbd9dca43","64afc2c9a8732ea92db0087d","64aff80b96dc6f8883a6fae0","null","null","<p style=""font-size: 60px; font-family: BACS"">aONdNYZu</p>","","","","","","","",""
"html-keyboard-response","64","446940","0.0-7.0-0.57","5e8783b0fde5153fbd9dca43","64afc2c9a8732ea92db0087d","64aff80b96dc6f8883a6fae0","null","null","<p style=""font-size: 60px; font-family: BACS"">bYuQravu</p>","","","","","","","",""
"html-keyboard-response","65","447949","0.0-7.0-0.58","5e8783b0fde5153fbd9dca43","64afc2c9a8732ea92db0087d","64aff80b96dc6f8883a6fae0","null","null","<p style=""font-size: 60px; font-family: BACS"">AbkauOAO</p>","","","","","","","",""
"html-keyboard-response","66","448958","0.0-7.0-0.59","5e8783b0fde5153fbd9dca43","64afc2c9a8732ea92db0087d","64aff80b96dc6f8883a6fae0","null","null","<p style=""font-size: 60px; font-family: BACS"">OCmkCMdP</p>","","","","","","","",""
"html-keyboard-response","67","449973","0.0-7.0-0.60","5e8783b0fde5153fbd9dca43","64afc2c9a8732ea92db0087d","64aff80b96dc6f8883a6fae0","null","null","<p style=""font-size: 60px; font-family: BACS"">dKRDATc</p>","","","","","","","",""
"html-keyboard-response","68","450983","0.0-7.0-0.61","5e8783b0fde5153fbd9dca43","64afc2c9a8732ea92db0087d","64aff80b96dc6f8883a6fae0","null","null","<p style=""font-size: 60px; font-family: BACS"">COtBDbRC</p>","","","","","","","",""
"html-keyboard-response","69","452000","0.0-7.0-0.62","5e8783b0fde5153fbd9dca43","64afc2c9a8732ea92db0087d","64aff80b96dc6f8883a6fae0","null","null","<p style=""font-size: 60px; font-family: BACS"">OCmkATc</p>","","","","","","","",""
"html-keyboard-response","70","453011","0.0-7.0-0.63","5e8783b0fde5153fbd9dca43","64afc2c9a8732ea92db0087d","64aff80b96dc6f8883a6fae0","null","null","<p style=""font-size: 60px; font-family: BACS"">OJGQNYZu</p>","","","","","","","",""
"html-keyboard-response","71","454023","0.0-7.0-0.64","5e8783b0fde5153fbd9dca43","64afc2c9a8732ea92db0087d","64aff80b96dc6f8883a6fae0","null","null","<p style=""font-size: 60px; font-family: BACS"">hAROKATc</p>","","","","","","","",""
"html-keyboard-response","72","455042","0.0-7.0-0.65","5e8783b0fde5153fbd9dca43","64afc2c9a8732ea92db0087d","64aff80b96dc6f8883a6fae0","null","null","<p style=""font-size: 60px; font-family: BACS"">ZkGmYravu</p>","","","","","","","",""
"html-keyboard-response","73","456057","0.0-7.0-0.66","5e8783b0fde5153fbd9dca43","64afc2c9a8732ea92db0087d","64aff80b96dc6f8883a6fae0","null","null","<p style=""font-size: 60px; font-family: BACS"">KBKBEbRC</p>","","","","","","","",""
"html-keyboard-response","74","457073","0.0-7.0-0.67","5e8783b0fde5153fbd9dca43","64afc2c9a8732ea92db0087d","64aff80b96dc6f8883a6fae0","null","null","<p style=""font-size: 60px; font-family: BACS"">kMbTRMAB</p>","","","","","","","",""
"html-keyboard-response","75","458090","0.0-7.0-0.68","5e8783b0fde5153fbd9dca43","64afc2c9a8732ea92db0087d","64aff80b96dc6f8883a6fae0","null","null","<p style=""font-size: 60px; font-family: BACS"">TbKMEbRC</p>","","","","","","","",""
"html-keyboard-response","76","459101","0.0-7.0-0.69","5e8783b0fde5153fbd9dca43","64afc2c9a8732ea92db0087d","64aff80b96dc6f8883a6fae0","null","null","<p style=""font-size: 60px; font-family: BACS"">NJZlvUdm</p>","","","","","","","",""
"html-keyboard-response","77","460117","0.0-7.0-0.70","5e8783b0fde5153fbd9dca43","64afc2c9a8732ea92db0087d","64aff80b96dc6f8883a6fae0","null","null","<p style=""font-size: 60px; font-family: BACS"">ZYcQUuvJ</p>","","","","","","","",""
"html-keyboard-response","78","461122","0.0-7.0-0.71","5e8783b0fde5153fbd9dca43","64afc2c9a8732ea92db0087d","64aff80b96dc6f8883a6fae0","null","null","<p style=""font-size: 60px; font-family: BACS"">TEBKbRC</p>","","","","","","","",""
"html-keyboard-response","79","462133","0.0-7.0-0.72","5e8783b0fde5153fbd9dca43","64afc2c9a8732ea92db0087d","64aff80b96dc6f8883a6fae0","null","null","<p style=""font-size: 60px; font-family: BACS"">blMkCMdP</p>","","","","","","","",""
"html-keyboard-response","80","463140","0.0-7.0-0.73","5e8783b0fde5153fbd9dca43","64afc2c9a8732ea92db0087d","64aff80b96dc6f8883a6fae0","null","null","<p style=""font-size: 60px; font-family: BACS"">YLQmGuOAO</p>","","","","","","","",""
"html-keyboard-response","81","464156","0.0-7.0-0.74","5e8783b0fde5153fbd9dca43","64afc2c9a8732ea92db0087d","64aff80b96dc6f8883a6fae0","null","null","<p style=""font-size: 60px; font-family: BACS"">hAROKbRC</p>","","","","","","","",""
"html-keyboard-response","82","465173","0.0-7.0-0.75","5e8783b0fde5153fbd9dca43","64afc2c9a8732ea92db0087d","64aff80b96dc6f8883a6fae0","null","null","<p style=""font-size: 60px; font-family: BACS"">TEBKmKcD</p>","","","","","","","",""
"html-keyboard-response","83","466182","0.0-7.0-0.76","5e8783b0fde5153fbd9dca43","64afc2c9a8732ea92db0087d","64aff80b96dc6f8883a6fae0","null","null","<p style=""font-size: 60px; font-family: BACS"">NJZlNYZu</p>","","","","","","","",""
"html-keyboard-response","84","467191","0.0-7.0-0.77","5e8783b0fde5153fbd9dca43","64afc2c9a8732ea92db0087d","64aff80b96dc6f8883a6fae0","null","null","<p style=""font-size: 60px; font-family: BACS"">COtBDmKcD</p>","","","","","","","",""
"html-keyboard-response","85","468208","0.0-7.0-0.78","5e8783b0fde5153fbd9dca43","64afc2c9a8732ea92db0087d","64aff80b96dc6f8883a6fae0","null","null","<p style=""font-size: 60px; font-family: BACS"">kMbTRCMdP</p>","","","","","","","",""
"html-keyboard-response","86","469221","0.0-7.0-0.79","5e8783b0fde5153fbd9dca43","64afc2c9a8732ea92db0087d","64aff80b96dc6f8883a6fae0","null","null","<p style=""font-size: 60px; font-family: BACS"">ukYZvUdm</p>","","","","","","","",""
"html-keyboard-response","87","573438","0.0-8.0","5e8783b0fde5153fbd9dca43","64afc2c9a8732ea92db0087d","64aff80b96dc6f8883a6fae0","104212"," ","<p>Ottimo, hai visto il primo blocco di parole. Ora puoi prenderti una piccola pausa.</p>
      <p>Premi la barra quando sei pronta/o per riprendere.</p>","","","","","","","",""
"html-keyboard-response","88","574449","0.0-9.0-0.0","5e8783b0fde5153fbd9dca43","64afc2c9a8732ea92db0087d","64aff80b96dc6f8883a6fae0","null","null","<p style=""font-size: 60px; font-family: BACS"">MTdYATc</p>","","","","","","","",""
"html-keyboard-response","89","575456","0.0-9.0-0.1","5e8783b0fde5153fbd9dca43","64afc2c9a8732ea92db0087d","64aff80b96dc6f8883a6fae0","null","null","<p style=""font-size: 60px; font-family: BACS"">TEBKbRC</p>","","","","","","","",""
"html-keyboard-response","90","576459","0.0-9.0-0.2","5e8783b0fde5153fbd9dca43","64afc2c9a8732ea92db0087d","64aff80b96dc6f8883a6fae0","null","null","<p style=""font-size: 60px; font-family: BACS"">YLQmGravu</p>","","","","","","","",""
"html-keyboard-response","91","577473","0.0-9.0-0.3","5e8783b0fde5153fbd9dca43","64afc2c9a8732ea92db0087d","64aff80b96dc6f8883a6fae0","null","null","<p style=""font-size: 60px; font-family: BACS"">ZkGmYuOAO</p>","","","","","","","",""
"html-keyboard-response","92","578482","0.0-9.0-0.4","5e8783b0fde5153fbd9dca43","64afc2c9a8732ea92db0087d","64aff80b96dc6f8883a6fae0","null","null","<p style=""font-size: 60px; font-family: BACS"">dKRDbRC</p>","","","","","","","",""
"html-keyboard-response","93","579499","0.0-9.0-0.5","5e8783b0fde5153fbd9dca43","64afc2c9a8732ea92db0087d","64aff80b96dc6f8883a6fae0","null","null","<p style=""font-size: 60px; font-family: BACS"">OJGQNYZu</p>","","","","","","","",""
"html-keyboard-response","94","580508","0.0-9.0-0.6","5e8783b0fde5153fbd9dca43","64afc2c9a8732ea92db0087d","64aff80b96dc6f8883a6fae0","null","null","<p style=""font-size: 60px; font-family: BACS"">COtBDATc</p>","","","","","","","",""
"html-keyboard-response","95","581525","0.0-9.0-0.7","5e8783b0fde5153fbd9dca43","64afc2c9a8732ea92db0087d","64aff80b96dc6f8883a6fae0","null","null","<p style=""font-size: 60px; font-family: BACS"">blMkbRC</p>","","","","","","","",""
"html-keyboard-response","96","582533","0.0-9.0-0.8","5e8783b0fde5153fbd9dca43","64afc2c9a8732ea92db0087d","64aff80b96dc6f8883a6fae0","null","null","<p style=""font-size: 60px; font-family: BACS"">ukYZuvJ</p>","","","","","","","",""
"html-keyboard-response","97","583549","0.0-9.0-0.9","5e8783b0fde5153fbd9dca43","64afc2c9a8732ea92db0087d","64aff80b96dc6f8883a6fae0","null","null","<p style=""font-size: 60px; font-family: BACS"">COtBDmKcD</p>","","","","","","","",""
"html-keyboard-response","98","584564","0.0-9.0-0.10","5e8783b0fde5153fbd9dca43","64afc2c9a8732ea92db0087d","64aff80b96dc6f8883a6fae0","null","null","<p style=""font-size: 60px; font-family: BACS"">aONduvJ</p>","","","","","","","",""
"html-keyboard-response","99","585575","0.0-9.0-0.11","5e8783b0fde5153fbd9dca43","64afc2c9a8732ea92db0087d","64aff80b96dc6f8883a6fae0","null","null","<p style=""font-size: 60px; font-family: BACS"">OCmkCMdP</p>","","","","","","","",""
"html-keyboard-response","100","586593","0.0-9.0-0.12","5e8783b0fde5153fbd9dca43","64afc2c9a8732ea92db0087d","64aff80b96dc6f8883a6fae0","null","null","<p style=""font-size: 60px; font-family: BACS"">TbKMEmKcD</p>","","","","","","","",""
"html-keyboard-response","101","587606","0.0-9.0-0.13","5e8783b0fde5153fbd9dca43","64afc2c9a8732ea92db0087d","64aff80b96dc6f8883a6fae0","null","null","<p style=""font-size: 60px; font-family: BACS"">AbkaNYZu</p>","","","","","","","",""
"html-keyboard-response","102","588620","0.0-9.0-0.14","5e8783b0fde5153fbd9dca43","64afc2c9a8732ea92db0087d","64aff80b96dc6f8883a6fae0","null","null","<p style=""font-size: 60px; font-family: BACS"">ZkGmYravu</p>","","","","","","","",""
"html-keyboard-response","103","589625","0.0-9.0-0.15","5e8783b0fde5153fbd9dca43","64afc2c9a8732ea92db0087d","64aff80b96dc6f8883a6fae0","null","null","<p style=""font-size: 60px; font-family: BACS"">TbKMECMdP</p>","","","","","","","",""
"html-keyboard-response","104","590641","0.0-9.0-0.16","5e8783b0fde5153fbd9dca43","64afc2c9a8732ea92db0087d","64aff80b96dc6f8883a6fae0","null","null","<p style=""font-size: 60px; font-family: BACS"">TEBKmKcD</p>","","","","","","","",""
"html-keyboard-response","105","591652","0.0-9.0-0.17","5e8783b0fde5153fbd9dca43","64afc2c9a8732ea92db0087d","64aff80b96dc6f8883a6fae0","null","null","<p style=""font-size: 60px; font-family: BACS"">kMbTRMAB</p>","","","","","","","",""
"html-keyboard-response","106","592660","0.0-9.0-0.18","5e8783b0fde5153fbd9dca43","64afc2c9a8732ea92db0087d","64aff80b96dc6f8883a6fae0","null","null","<p style=""font-size: 60px; font-family: BACS"">NJZlNYZu</p>","","","","","","","",""
"html-keyboard-response","107","593667","0.0-9.0-0.19","5e8783b0fde5153fbd9dca43","64afc2c9a8732ea92db0087d","64aff80b96dc6f8883a6fae0","null","null","<p style=""font-size: 60px; font-family: BACS"">OCmkmKcD</p>","","","","","","","",""
"html-keyboard-response","108","594689","0.0-9.0-0.20","5e8783b0fde5153fbd9dca43","64afc2c9a8732ea92db0087d","64aff80b96dc6f8883a6fae0","null","null","<p style=""font-size: 60px; font-family: BACS"">hAROKCMdP</p>","","","","","","","",""
"html-keyboard-response","109","595703","0.0-9.0-0.21","5e8783b0fde5153fbd9dca43","64afc2c9a8732ea92db0087d","64aff80b96dc6f8883a6fae0","null","null","<p style=""font-size: 60px; font-family: BACS"">ukYZuOAO</p>","","","","","","","",""
"html-keyboard-response","110","596716","0.0-9.0-0.22","5e8783b0fde5153fbd9dca43","64afc2c9a8732ea92db0087d","64aff80b96dc6f8883a6fae0","null","null","<p style=""font-size: 60px; font-family: BACS"">blMkMAB</p>","","","","","","","",""
"html-keyboard-response","111","597734","0.0-9.0-0.23","5e8783b0fde5153fbd9dca43","64afc2c9a8732ea92db0087d","64aff80b96dc6f8883a6fae0","null","null","<p style=""font-size: 60px; font-family: BACS"">bYuQravu</p>","","","","","","","",""
"html-keyboard-response","112","598740","0.0-9.0-0.24","5e8783b0fde5153fbd9dca43","64afc2c9a8732ea92db0087d","64aff80b96dc6f8883a6fae0","null","null","<p style=""font-size: 60px; font-family: BACS"">dKRDmKcD</p>","","","","","","","",""
"html-keyboard-response","113","599756","0.0-9.0-0.25","5e8783b0fde5153fbd9dca43","64afc2c9a8732ea92db0087d","64aff80b96dc6f8883a6fae0","null","null","<p style=""font-size: 60px; font-family: BACS"">TbKMEbRC</p>","","","","","","","",""
"html-keyboard-response","114","600774","0.0-9.0-0.26","5e8783b0fde5153fbd9dca43","64afc2c9a8732ea92db0087d","64aff80b96dc6f8883a6fae0","null","null","<p style=""font-size: 60px; font-family: BACS"">NJZluvJ</p>","","","","","","","",""
"html-keyboard-response","115","601783","0.0-9.0-0.27","5e8783b0fde5153fbd9dca43","64afc2c9a8732ea92db0087d","64aff80b96dc6f8883a6fae0","null","null","<p style=""font-size: 60px; font-family: BACS"">MTdYbRC</p>","","","","","","","",""
"html-keyboard-response","116","602789","0.0-9.0-0.28","5e8783b0fde5153fbd9dca43","64afc2c9a8732ea92db0087d","64aff80b96dc6f8883a6fae0","null","null","<p style=""font-size: 60px; font-family: BACS"">kMbTRATc</p>","","","","","","","",""
"html-keyboard-response","117","603801","0.0-9.0-0.29","5e8783b0fde5153fbd9dca43","64afc2c9a8732ea92db0087d","64aff80b96dc6f8883a6fae0","null","null","<p style=""font-size: 60px; font-family: BACS"">YLQmGuOAO</p>","","","","","","","",""
"html-keyboard-response","118","604805","0.0-9.0-0.30","5e8783b0fde5153fbd9dca43","64afc2c9a8732ea92db0087d","64aff80b96dc6f8883a6fae0","null","null","<p style=""font-size: 60px; font-family: BACS"">OJGQravu</p>","","","","","","","",""
"html-keyboard-response","119","605818","0.0-9.0-0.31","5e8783b0fde5153fbd9dca43","64afc2c9a8732ea92db0087d","64aff80b96dc6f8883a6fae0","null","null","<p style=""font-size: 60px; font-family: BACS"">bYuQvUdm</p>","","","","","","","",""
"html-keyboard-response","120","606823","0.0-9.0-0.32","5e8783b0fde5153fbd9dca43","64afc2c9a8732ea92db0087d","64aff80b96dc6f8883a6fae0","null","null","<p style=""font-size: 60px; font-family: BACS"">hAROKMAB</p>","","","","","","","",""
"html-keyboard-response","121","607827","0.0-9.0-0.33","5e8783b0fde5153fbd9dca43","64afc2c9a8732ea92db0087d","64aff80b96dc6f8883a6fae0","null","null","<p style=""font-size: 60px; font-family: BACS"">NJZlvUdm</p>","","","","","","","",""
"html-keyboard-response","122","608829","0.0-9.0-0.34","5e8783b0fde5153fbd9dca43","64afc2c9a8732ea92db0087d","64aff80b96dc6f8883a6fae0","null","null","<p style=""font-size: 60px; font-family: BACS"">kMbTRCMdP</p>","","","","","","","",""
"html-keyboard-response","123","609837","0.0-9.0-0.35","5e8783b0fde5153fbd9dca43","64afc2c9a8732ea92db0087d","64aff80b96dc6f8883a6fae0","null","null","<p style=""font-size: 60px; font-family: BACS"">Qcladravu</p>","","","","","","","",""
"html-keyboard-response","124","610841","0.0-9.0-0.36","5e8783b0fde5153fbd9dca43","64afc2c9a8732ea92db0087d","64aff80b96dc6f8883a6fae0","null","null","<p style=""font-size: 60px; font-family: BACS"">YLQmGNYZu</p>","","","","","","","",""
"html-keyboard-response","125","611858","0.0-9.0-0.37","5e8783b0fde5153fbd9dca43","64afc2c9a8732ea92db0087d","64aff80b96dc6f8883a6fae0","null","null","<p style=""font-size: 60px; font-family: BACS"">hAROKbRC</p>","","","","","","","",""
"html-keyboard-response","126","612868","0.0-9.0-0.38","5e8783b0fde5153fbd9dca43","64afc2c9a8732ea92db0087d","64aff80b96dc6f8883a6fae0","null","null","<p style=""font-size: 60px; font-family: BACS"">KBKBECMdP</p>","","","","","","","",""
"html-keyboard-response","127","613885","0.0-9.0-0.39","5e8783b0fde5153fbd9dca43","64afc2c9a8732ea92db0087d","64aff80b96dc6f8883a6fae0","null","null","<p style=""font-size: 60px; font-family: BACS"">AbkauvJ</p>","","","","","","","",""
"html-keyboard-response","128","614891","0.0-9.0-0.40","5e8783b0fde5153fbd9dca43","64afc2c9a8732ea92db0087d","64aff80b96dc6f8883a6fae0","null","null","<p style=""font-size: 60px; font-family: BACS"">OJGQvUdm</p>","","","","","","","",""
"html-keyboard-response","129","615903","0.0-9.0-0.41","5e8783b0fde5153fbd9dca43","64afc2c9a8732ea92db0087d","64aff80b96dc6f8883a6fae0","null","null","<p style=""font-size: 60px; font-family: BACS"">QcladuvJ</p>","","","","","","","",""
"html-keyboard-response","130","616920","0.0-9.0-0.42","5e8783b0fde5153fbd9dca43","64afc2c9a8732ea92db0087d","64aff80b96dc6f8883a6fae0","null","null","<p style=""font-size: 60px; font-family: BACS"">ZYcQUNYZu</p>","","","","","","","",""
"html-keyboard-response","131","617933","0.0-9.0-0.43","5e8783b0fde5153fbd9dca43","64afc2c9a8732ea92db0087d","64aff80b96dc6f8883a6fae0","null","null","<p style=""font-size: 60px; font-family: BACS"">KBKBEMAB</p>","","","","","","","",""
"html-keyboard-response","132","618941","0.0-9.0-0.44","5e8783b0fde5153fbd9dca43","64afc2c9a8732ea92db0087d","64aff80b96dc6f8883a6fae0","null","null","<p style=""font-size: 60px; font-family: BACS"">TbKMEATc</p>","","","","","","","",""
"html-keyboard-response","133","619952","0.0-9.0-0.45","5e8783b0fde5153fbd9dca43","64afc2c9a8732ea92db0087d","64aff80b96dc6f8883a6fae0","null","null","<p style=""font-size: 60px; font-family: BACS"">ZkGmYuvJ</p>","","","","","","","",""
"html-keyboard-response","134","620963","0.0-9.0-0.46","5e8783b0fde5153fbd9dca43","64afc2c9a8732ea92db0087d","64aff80b96dc6f8883a6fae0","null","null","<p style=""font-size: 60px; font-family: BACS"">ukYZravu</p>","","","","","","","",""
"html-keyboard-response","135","621974","0.0-9.0-0.47","5e8783b0fde5153fbd9dca43","64afc2c9a8732ea92db0087d","64aff80b96dc6f8883a6fae0","null","null","<p style=""font-size: 60px; font-family: BACS"">bYuQNYZu</p>","","","","","","","",""
"html-keyboard-response","136","622989","0.0-9.0-0.48","5e8783b0fde5153fbd9dca43","64afc2c9a8732ea92db0087d","64aff80b96dc6f8883a6fae0","null","null","<p style=""font-size: 60px; font-family: BACS"">NJZluOAO</p>","","","","","","","",""
"html-keyboard-response","137","623992","0.0-9.0-0.49","5e8783b0fde5153fbd9dca43","64afc2c9a8732ea92db0087d","64aff80b96dc6f8883a6fae0","null","null","<p style=""font-size: 60px; font-family: BACS"">OCmkMAB</p>","","","","","","","",""
"html-keyboard-response","138","625000","0.0-9.0-0.50","5e8783b0fde5153fbd9dca43","64afc2c9a8732ea92db0087d","64aff80b96dc6f8883a6fae0","null","null","<p style=""font-size: 60px; font-family: BACS"">aONdNYZu</p>","","","","","","","",""
"html-keyboard-response","139","626008","0.0-9.0-0.51","5e8783b0fde5153fbd9dca43","64afc2c9a8732ea92db0087d","64aff80b96dc6f8883a6fae0","null","null","<p style=""font-size: 60px; font-family: BACS"">ukYZvUdm</p>","","","","","","","",""
"html-keyboard-response","140","627018","0.0-9.0-0.52","5e8783b0fde5153fbd9dca43","64afc2c9a8732ea92db0087d","64aff80b96dc6f8883a6fae0","null","null","<p style=""font-size: 60px; font-family: BACS"">bYuQuOAO</p>","","","","","","","",""
"html-keyboard-response","141","628024","0.0-9.0-0.53","5e8783b0fde5153fbd9dca43","64afc2c9a8732ea92db0087d","64aff80b96dc6f8883a6fae0","null","null","<p style=""font-size: 60px; font-family: BACS"">ZYcQUravu</p>","","","","","","","",""
"html-keyboard-response","142","629043","0.0-9.0-0.54","5e8783b0fde5153fbd9dca43","64afc2c9a8732ea92db0087d","64aff80b96dc6f8883a6fae0","null","null","<p style=""font-size: 60px; font-family: BACS"">OCmkATc</p>","","","","","","","",""
"html-keyboard-response","143","630071","0.0-9.0-0.55","5e8783b0fde5153fbd9dca43","64afc2c9a8732ea92db0087d","64aff80b96dc6f8883a6fae0","null","null","<p style=""font-size: 60px; font-family: BACS"">COtBDbRC</p>","","","","","","","",""
"html-keyboard-response","144","631075","0.0-9.0-0.56","5e8783b0fde5153fbd9dca43","64afc2c9a8732ea92db0087d","64aff80b96dc6f8883a6fae0","null","null","<p style=""font-size: 60px; font-family: BACS"">ZkGmYvUdm</p>","","","","","","","",""
"html-keyboard-response","145","632093","0.0-9.0-0.57","5e8783b0fde5153fbd9dca43","64afc2c9a8732ea92db0087d","64aff80b96dc6f8883a6fae0","null","null","<p style=""font-size: 60px; font-family: BACS"">COtBDMAB</p>","","","","","","","",""
"html-keyboard-response","146","633121","0.0-9.0-0.58","5e8783b0fde5153fbd9dca43","64afc2c9a8732ea92db0087d","64aff80b96dc6f8883a6fae0","null","null","<p style=""font-size: 60px; font-family: BACS"">TEBKATc</p>","","","","","","","",""
"html-keyboard-response","147","634135","0.0-9.0-0.59","5e8783b0fde5153fbd9dca43","64afc2c9a8732ea92db0087d","64aff80b96dc6f8883a6fae0","null","null","<p style=""font-size: 60px; font-family: BACS"">AbkauOAO</p>","","","","","","","",""
"html-keyboard-response","148","635138","0.0-9.0-0.60","5e8783b0fde5153fbd9dca43","64afc2c9a8732ea92db0087d","64aff80b96dc6f8883a6fae0","null","null","<p style=""font-size: 60px; font-family: BACS"">OJGQuvJ</p>","","","","","","","",""
"html-keyboard-response","149","636142","0.0-9.0-0.61","5e8783b0fde5153fbd9dca43","64afc2c9a8732ea92db0087d","64aff80b96dc6f8883a6fae0","null","null","<p style=""font-size: 60px; font-family: BACS"">TEBKCMdP</p>","","","","","","","",""
"html-keyboard-response","150","637150","0.0-9.0-0.62","5e8783b0fde5153fbd9dca43","64afc2c9a8732ea92db0087d","64aff80b96dc6f8883a6fae0","null","null","<p style=""font-size: 60px; font-family: BACS"">MTdYMAB</p>","","","","","","","",""
"html-keyboard-response","151","638158","0.0-9.0-0.63","5e8783b0fde5153fbd9dca43","64afc2c9a8732ea92db0087d","64aff80b96dc6f8883a6fae0","null","null","<p style=""font-size: 60px; font-family: BACS"">kMbTRmKcD</p>","","","","","","","",""
"html-keyboard-response","152","639167","0.0-9.0-0.64","5e8783b0fde5153fbd9dca43","64afc2c9a8732ea92db0087d","64aff80b96dc6f8883a6fae0","null","null","<p style=""font-size: 60px; font-family: BACS"">Abkaravu</p>","","","","","","","",""
"html-keyboard-response","153","640174","0.0-9.0-0.65","5e8783b0fde5153fbd9dca43","64afc2c9a8732ea92db0087d","64aff80b96dc6f8883a6fae0","null","null","<p style=""font-size: 60px; font-family: BACS"">dKRDMAB</p>","","","","","","","",""
"html-keyboard-response","154","641184","0.0-9.0-0.66","5e8783b0fde5153fbd9dca43","64afc2c9a8732ea92db0087d","64aff80b96dc6f8883a6fae0","null","null","<p style=""font-size: 60px; font-family: BACS"">ZYcQUuvJ</p>","","","","","","","",""
"html-keyboard-response","155","642192","0.0-9.0-0.67","5e8783b0fde5153fbd9dca43","64afc2c9a8732ea92db0087d","64aff80b96dc6f8883a6fae0","null","null","<p style=""font-size: 60px; font-family: BACS"">aONdvUdm</p>","","","","","","","",""
"html-keyboard-response","156","643200","0.0-9.0-0.68","5e8783b0fde5153fbd9dca43","64afc2c9a8732ea92db0087d","64aff80b96dc6f8883a6fae0","null","null","<p style=""font-size: 60px; font-family: BACS"">KBKBEmKcD</p>","","","","","","","",""
"html-keyboard-response","157","644204","0.0-9.0-0.69","5e8783b0fde5153fbd9dca43","64afc2c9a8732ea92db0087d","64aff80b96dc6f8883a6fae0","null","null","<p style=""font-size: 60px; font-family: BACS"">aONduOAO</p>","","","","","","","",""
"html-keyboard-response","158","645217","0.0-9.0-0.70","5e8783b0fde5153fbd9dca43","64afc2c9a8732ea92db0087d","64aff80b96dc6f8883a6fae0","null","null","<p style=""font-size: 60px; font-family: BACS"">QcladvUdm</p>","","","","","","","",""
"html-keyboard-response","159","646219","0.0-9.0-0.71","5e8783b0fde5153fbd9dca43","64afc2c9a8732ea92db0087d","64aff80b96dc6f8883a6fae0","null","null","<p style=""font-size: 60px; font-family: BACS"">ZYcQUuOAO</p>","","","","","","","",""
"html-keyboard-response","160","647234","0.0-9.0-0.72","5e8783b0fde5153fbd9dca43","64afc2c9a8732ea92db0087d","64aff80b96dc6f8883a6fae0","null","null","<p style=""font-size: 60px; font-family: BACS"">dKRDATc</p>","","","","","","","",""
"html-keyboard-response","161","648242","0.0-9.0-0.73","5e8783b0fde5153fbd9dca43","64afc2c9a8732ea92db0087d","64aff80b96dc6f8883a6fae0","null","null","<p style=""font-size: 60px; font-family: BACS"">blMkmKcD</p>","","","","","","","",""
"html-keyboard-response","162","649262","0.0-9.0-0.74","5e8783b0fde5153fbd9dca43","64afc2c9a8732ea92db0087d","64aff80b96dc6f8883a6fae0","null","null","<p style=""font-size: 60px; font-family: BACS"">hAROKATc</p>","","","","","","","",""
"html-keyboard-response","163","650275","0.0-9.0-0.75","5e8783b0fde5153fbd9dca43","64afc2c9a8732ea92db0087d","64aff80b96dc6f8883a6fae0","null","null","<p style=""font-size: 60px; font-family: BACS"">MTdYCMdP</p>","","","","","","","",""
"html-keyboard-response","164","651290","0.0-9.0-0.76","5e8783b0fde5153fbd9dca43","64afc2c9a8732ea92db0087d","64aff80b96dc6f8883a6fae0","null","null","<p style=""font-size: 60px; font-family: BACS"">QcladNYZu</p>","","","","","","","",""
"html-keyboard-response","165","652293","0.0-9.0-0.77","5e8783b0fde5153fbd9dca43","64afc2c9a8732ea92db0087d","64aff80b96dc6f8883a6fae0","null","null","<p style=""font-size: 60px; font-family: BACS"">YLQmGvUdm</p>","","","","","","","",""
"html-keyboard-response","166","653300","0.0-9.0-0.78","5e8783b0fde5153fbd9dca43","64afc2c9a8732ea92db0087d","64aff80b96dc6f8883a6fae0","null","null","<p style=""font-size: 60px; font-family: BACS"">KBKBEbRC</p>","","","","","","","",""
"html-keyboard-response","167","654316","0.0-9.0-0.79","5e8783b0fde5153fbd9dca43","64afc2c9a8732ea92db0087d","64aff80b96dc6f8883a6fae0","null","null","<p style=""font-size: 60px; font-family: BACS"">blMkCMdP</p>","","","","","","","",""
"html-keyboard-response","168","742711","0.0-10.0","5e8783b0fde5153fbd9dca43","64afc2c9a8732ea92db0087d","64aff80b96dc6f8883a6fae0","88399"," ","<p>Ottimo, hai visto il secondo blocco di parole. Ora puoi prenderti una piccola pausa.</p>
      <p>Premi la barra quando sei pronta/o per riprendere.</p>","","","","","","","",""
"html-keyboard-response","169","743714","0.0-11.0-0.0","5e8783b0fde5153fbd9dca43","64afc2c9a8732ea92db0087d","64aff80b96dc6f8883a6fae0","null","null","<p style=""font-size: 60px; font-family: BACS"">kMbTRCMdP</p>","","","","","","","",""
"html-keyboard-response","170","744727","0.0-11.0-0.1","5e8783b0fde5153fbd9dca43","64afc2c9a8732ea92db0087d","64aff80b96dc6f8883a6fae0","null","null","<p style=""font-size: 60px; font-family: BACS"">NJZlvUdm</p>","","","","","","","",""
"html-keyboard-response","171","745732","0.0-11.0-0.2","5e8783b0fde5153fbd9dca43","64afc2c9a8732ea92db0087d","64aff80b96dc6f8883a6fae0","null","null","<p style=""font-size: 60px; font-family: BACS"">TbKMECMdP</p>","","","","","","","",""
"html-keyboard-response","172","746736","0.0-11.0-0.3","5e8783b0fde5153fbd9dca43","64afc2c9a8732ea92db0087d","64aff80b96dc6f8883a6fae0","null","null","<p style=""font-size: 60px; font-family: BACS"">TEBKmKcD</p>","","","","","","","",""
"html-keyboard-response","173","747751","0.0-11.0-0.4","5e8783b0fde5153fbd9dca43","64afc2c9a8732ea92db0087d","64aff80b96dc6f8883a6fae0","null","null","<p style=""font-size: 60px; font-family: BACS"">MTdYCMdP</p>","","","","","","","",""
"html-keyboard-response","174","748768","0.0-11.0-0.5","5e8783b0fde5153fbd9dca43","64afc2c9a8732ea92db0087d","64aff80b96dc6f8883a6fae0","null","null","<p style=""font-size: 60px; font-family: BACS"">ZYcQUuvJ</p>","","","","","","","",""
"html-keyboard-response","175","749778","0.0-11.0-0.6","5e8783b0fde5153fbd9dca43","64afc2c9a8732ea92db0087d","64aff80b96dc6f8883a6fae0","null","null","<p style=""font-size: 60px; font-family: BACS"">bYuQNYZu</p>","","","","","","","",""
"html-keyboard-response","176","750796","0.0-11.0-0.7","5e8783b0fde5153fbd9dca43","64afc2c9a8732ea92db0087d","64aff80b96dc6f8883a6fae0","null","null","<p style=""font-size: 60px; font-family: BACS"">hAROKMAB</p>","","","","","","","",""
"html-keyboard-response","177","751811","0.0-11.0-0.8","5e8783b0fde5153fbd9dca43","64afc2c9a8732ea92db0087d","64aff80b96dc6f8883a6fae0","null","null","<p style=""font-size: 60px; font-family: BACS"">ukYZvUdm</p>","","","","","","","",""
"html-keyboard-response","178","752825","0.0-11.0-0.9","5e8783b0fde5153fbd9dca43","64afc2c9a8732ea92db0087d","64aff80b96dc6f8883a6fae0","null","null","<p style=""font-size: 60px; font-family: BACS"">AbkauvJ</p>","","","","","","","",""
"html-keyboard-response","179","753830","0.0-11.0-0.10","5e8783b0fde5153fbd9dca43","64afc2c9a8732ea92db0087d","64aff80b96dc6f8883a6fae0","null","null","<p style=""font-size: 60px; font-family: BACS"">ZkGmYvUdm</p>","","","","","","","",""
"html-keyboard-response","180","754844","0.0-11.0-0.11","5e8783b0fde5153fbd9dca43","64afc2c9a8732ea92db0087d","64aff80b96dc6f8883a6fae0","null","null","<p style=""font-size: 60px; font-family: BACS"">TbKMEATc</p>","","","","","","","",""
"html-keyboard-response","181","755864","0.0-11.0-0.12","5e8783b0fde5153fbd9dca43","64afc2c9a8732ea92db0087d","64aff80b96dc6f8883a6fae0","null","null","<p style=""font-size: 60px; font-family: BACS"">TEBKCMdP</p>","","","","","","","",""
"html-keyboard-response","182","756880","0.0-11.0-0.13","5e8783b0fde5153fbd9dca43","64afc2c9a8732ea92db0087d","64aff80b96dc6f8883a6fae0","null","null","<p style=""font-size: 60px; font-family: BACS"">YLQmGvUdm</p>","","","","","","","",""
"html-keyboard-response","183","757887","0.0-11.0-0.14","5e8783b0fde5153fbd9dca43","64afc2c9a8732ea92db0087d","64aff80b96dc6f8883a6fae0","null","null","<p style=""font-size: 60px; font-family: BACS"">hAROKbRC</p>","","","","","","","",""
"html-keyboard-response","184","758903","0.0-11.0-0.15","5e8783b0fde5153fbd9dca43","64afc2c9a8732ea92db0087d","64aff80b96dc6f8883a6fae0","null","null","<p style=""font-size: 60px; font-family: BACS"">bYuQuOAO</p>","","","","","","","",""
"html-keyboard-response","185","759918","0.0-11.0-0.16","5e8783b0fde5153fbd9dca43","64afc2c9a8732ea92db0087d","64aff80b96dc6f8883a6fae0","null","null","<p style=""font-size: 60px; font-family: BACS"">hAROKCMdP</p>","","","","","","","",""
"html-keyboard-response","186","760931","0.0-11.0-0.17","5e8783b0fde5153fbd9dca43","64afc2c9a8732ea92db0087d","64aff80b96dc6f8883a6fae0","null","null","<p style=""font-size: 60px; font-family: BACS"">AbkaNYZu</p>","","","","","","","",""
"html-keyboard-response","187","761938","0.0-11.0-0.18","5e8783b0fde5153fbd9dca43","64afc2c9a8732ea92db0087d","64aff80b96dc6f8883a6fae0","null","null","<p style=""font-size: 60px; font-family: BACS"">kMbTRATc</p>","","","","","","","",""
"html-keyboard-response","188","762953","0.0-11.0-0.19","5e8783b0fde5153fbd9dca43","64afc2c9a8732ea92db0087d","64aff80b96dc6f8883a6fae0","null","null","<p style=""font-size: 60px; font-family: BACS"">ukYZuOAO</p>","","","","","","","",""
"html-keyboard-response","189","763969","0.0-11.0-0.20","5e8783b0fde5153fbd9dca43","64afc2c9a8732ea92db0087d","64aff80b96dc6f8883a6fae0","null","null","<p style=""font-size: 60px; font-family: BACS"">KBKBEmKcD</p>","","","","","","","",""
"html-keyboard-response","190","764986","0.0-11.0-0.21","5e8783b0fde5153fbd9dca43","64afc2c9a8732ea92db0087d","64aff80b96dc6f8883a6fae0","null","null","<p style=""font-size: 60px; font-family: BACS"">NJZluvJ</p>","","","","","","","",""
"html-keyboard-response","191","765995","0.0-11.0-0.22","5e8783b0fde5153fbd9dca43","64afc2c9a8732ea92db0087d","64aff80b96dc6f8883a6fae0","null","null","<p style=""font-size: 60px; font-family: BACS"">ZkGmYravu</p>","","","","","","","",""
"html-keyboard-response","192","767003","0.0-11.0-0.23","5e8783b0fde5153fbd9dca43","64afc2c9a8732ea92db0087d","64aff80b96dc6f8883a6fae0","null","null","<p style=""font-size: 60px; font-family: BACS"">KBKBECMdP</p>","","","","","","","",""
"html-keyboard-response","193","768011","0.0-11.0-0.24","5e8783b0fde5153fbd9dca43","64afc2c9a8732ea92db0087d","64aff80b96dc6f8883a6fae0","null","null","<p style=""font-size: 60px; font-family: BACS"">MTdYATc</p>","","","","","","","",""
"html-keyboard-response","194","769020","0.0-11.0-0.25","5e8783b0fde5153fbd9dca43","64afc2c9a8732ea92db0087d","64aff80b96dc6f8883a6fae0","null","null","<p style=""font-size: 60px; font-family: BACS"">aONduOAO</p>","","","","","","","",""
"html-keyboard-response","195","770028","0.0-11.0-0.26","5e8783b0fde5153fbd9dca43","64afc2c9a8732ea92db0087d","64aff80b96dc6f8883a6fae0","null","null","<p style=""font-size: 60px; font-family: BACS"">QcladuvJ</p>","","","","","","","",""
"html-keyboard-response","196","771044","0.0-11.0-0.27","5e8783b0fde5153fbd9dca43","64afc2c9a8732ea92db0087d","64aff80b96dc6f8883a6fae0","null","null","<p style=""font-size: 60px; font-family: BACS"">OCmkMAB</p>","","","","","","","",""
"html-keyboard-response","197","772053","0.0-11.0-0.28","5e8783b0fde5153fbd9dca43","64afc2c9a8732ea92db0087d","64aff80b96dc6f8883a6fae0","null","null","<p style=""font-size: 60px; font-family: BACS"">OJGQravu</p>","","","","","","","",""
"html-keyboard-response","198","773059","0.0-11.0-0.29","5e8783b0fde5153fbd9dca43","64afc2c9a8732ea92db0087d","64aff80b96dc6f8883a6fae0","null","null","<p style=""font-size: 60px; font-family: BACS"">blMkbRC</p>","","","","","","","",""
"html-keyboard-response","199","774070","0.0-11.0-0.30","5e8783b0fde5153fbd9dca43","64afc2c9a8732ea92db0087d","64aff80b96dc6f8883a6fae0","null","null","<p style=""font-size: 60px; font-family: BACS"">dKRDATc</p>","","","","","","","",""
"html-keyboard-response","200","775085","0.0-11.0-0.31","5e8783b0fde5153fbd9dca43","64afc2c9a8732ea92db0087d","64aff80b96dc6f8883a6fae0","null","null","<p style=""font-size: 60px; font-family: BACS"">QcladNYZu</p>","","","","","","","",""
"html-keyboard-response","201","776095","0.0-11.0-0.32","5e8783b0fde5153fbd9dca43","64afc2c9a8732ea92db0087d","64aff80b96dc6f8883a6fae0","null","null","<p style=""font-size: 60px; font-family: BACS"">dKRDbRC</p>","","","","","","","",""
"html-keyboard-response","202","777098","0.0-11.0-0.33","5e8783b0fde5153fbd9dca43","64afc2c9a8732ea92db0087d","64aff80b96dc6f8883a6fae0","null","null","<p style=""font-size: 60px; font-family: BACS"">YLQmGNYZu</p>","","","","","","","",""
"html-keyboard-response","203","778105","0.0-11.0-0.34","5e8783b0fde5153fbd9dca43","64afc2c9a8732ea92db0087d","64aff80b96dc6f8883a6fae0","null","null","<p style=""font-size: 60px; font-family: BACS"">KBKBEbRC</p>","","","","","","","",""
"html-keyboard-response","204","779113","0.0-11.0-0.35","5e8783b0fde5153fbd9dca43","64afc2c9a8732ea92db0087d","64aff80b96dc6f8883a6fae0","null","null","<p style=""font-size: 60px; font-family: BACS"">OCmkATc</p>","","","","","","","",""
"html-keyboard-response","205","780122","0.0-11.0-0.36","5e8783b0fde5153fbd9dca43","64afc2c9a8732ea92db0087d","64aff80b96dc6f8883a6fae0","null","null","<p style=""font-size: 60px; font-family: BACS"">YLQmGuOAO</p>","","","","","","","",""
"html-keyboard-response","206","781136","0.0-11.0-0.37","5e8783b0fde5153fbd9dca43","64afc2c9a8732ea92db0087d","64aff80b96dc6f8883a6fae0","null","null","<p style=""font-size: 60px; font-family: BACS"">Abkaravu</p>","","","","","","","",""
"html-keyboard-response","207","782150","0.0-11.0-0.38","5e8783b0fde5153fbd9dca43","64afc2c9a8732ea92db0087d","64aff80b96dc6f8883a6fae0","null","null","<p style=""font-size: 60px; font-family: BACS"">ZYcQUNYZu</p>","","","","","","","",""
"html-keyboard-response","208","783154","0.0-11.0-0.39","5e8783b0fde5153fbd9dca43","64afc2c9a8732ea92db0087d","64aff80b96dc6f8883a6fae0","null","null","<p style=""font-size: 60px; font-family: BACS"">ZkGmYuOAO</p>","","","","","","","",""
"html-keyboard-response","209","784162","0.0-11.0-0.40","5e8783b0fde5153fbd9dca43","64afc2c9a8732ea92db0087d","64aff80b96dc6f8883a6fae0","null","null","<p style=""font-size: 60px; font-family: BACS"">ZYcQUravu</p>","","","","","","","",""
"html-keyboard-response","210","785168","0.0-11.0-0.41","5e8783b0fde5153fbd9dca43","64afc2c9a8732ea92db0087d","64aff80b96dc6f8883a6fae0","null","null","<p style=""font-size: 60px; font-family: BACS"">dKRDMAB</p>","","","","","","","",""
"html-keyboard-response","211","786178","0.0-11.0-0.42","5e8783b0fde5153fbd9dca43","64afc2c9a8732ea92db0087d","64aff80b96dc6f8883a6fae0","null","null","<p style=""font-size: 60px; font-family: BACS"">AbkauOAO</p>","","","","","","","",""
"html-keyboard-response","212","787180","0.0-11.0-0.43","5e8783b0fde5153fbd9dca43","64afc2c9a8732ea92db0087d","64aff80b96dc6f8883a6fae0","null","null","<p style=""font-size: 60px; font-family: BACS"">TEBKbRC</p>","","","","","","","",""
"html-keyboard-response","213","788195","0.0-11.0-0.44","5e8783b0fde5153fbd9dca43","64afc2c9a8732ea92db0087d","64aff80b96dc6f8883a6fae0","null","null","<p style=""font-size: 60px; font-family: BACS"">aONduvJ</p>","","","","","","","",""
"html-keyboard-response","214","789200","0.0-11.0-0.45","5e8783b0fde5153fbd9dca43","64afc2c9a8732ea92db0087d","64aff80b96dc6f8883a6fae0","null","null","<p style=""font-size: 60px; font-family: BACS"">COtBDMAB</p>","","","","","","","",""
"html-keyboard-response","215","790207","0.0-11.0-0.46","5e8783b0fde5153fbd9dca43","64afc2c9a8732ea92db0087d","64aff80b96dc6f8883a6fae0","null","null","<p style=""font-size: 60px; font-family: BACS"">aONdNYZu</p>","","","","","","","",""
"html-keyboard-response","216","791212","0.0-11.0-0.47","5e8783b0fde5153fbd9dca43","64afc2c9a8732ea92db0087d","64aff80b96dc6f8883a6fae0","null","null","<p style=""font-size: 60px; font-family: BACS"">kMbTRmKcD</p>","","","","","","","",""
"html-keyboard-response","217","792226","0.0-11.0-0.48","5e8783b0fde5153fbd9dca43","64afc2c9a8732ea92db0087d","64aff80b96dc6f8883a6fae0","null","null","<p style=""font-size: 60px; font-family: BACS"">bYuQravu</p>","","","","","","","",""
"html-keyboard-response","218","793234","0.0-11.0-0.49","5e8783b0fde5153fbd9dca43","64afc2c9a8732ea92db0087d","64aff80b96dc6f8883a6fae0","null","null","<p style=""font-size: 60px; font-family: BACS"">KBKBEMAB</p>","","","","","","","",""
"html-keyboard-response","219","794245","0.0-11.0-0.50","5e8783b0fde5153fbd9dca43","64afc2c9a8732ea92db0087d","64aff80b96dc6f8883a6fae0","null","null","<p style=""font-size: 60px; font-family: BACS"">OCmkmKcD</p>","","","","","","","",""
"html-keyboard-response","220","795254","0.0-11.0-0.51","5e8783b0fde5153fbd9dca43","64afc2c9a8732ea92db0087d","64aff80b96dc6f8883a6fae0","null","null","<p style=""font-size: 60px; font-family: BACS"">NJZlNYZu</p>","","","","","","","",""
"html-keyboard-response","221","796269","0.0-11.0-0.52","5e8783b0fde5153fbd9dca43","64afc2c9a8732ea92db0087d","64aff80b96dc6f8883a6fae0","null","null","<p style=""font-size: 60px; font-family: BACS"">TbKMEmKcD</p>","","","","","","","",""
"html-keyboard-response","222","797285","0.0-11.0-0.53","5e8783b0fde5153fbd9dca43","64afc2c9a8732ea92db0087d","64aff80b96dc6f8883a6fae0","null","null","<p style=""font-size: 60px; font-family: BACS"">OCmkCMdP</p>","","","","","","","",""
"html-keyboard-response","223","798304","0.0-11.0-0.54","5e8783b0fde5153fbd9dca43","64afc2c9a8732ea92db0087d","64aff80b96dc6f8883a6fae0","null","null","<p style=""font-size: 60px; font-family: BACS"">OJGQvUdm</p>","","","","","","","",""
"html-keyboard-response","224","799322","0.0-11.0-0.55","5e8783b0fde5153fbd9dca43","64afc2c9a8732ea92db0087d","64aff80b96dc6f8883a6fae0","null","null","<p style=""font-size: 60px; font-family: BACS"">Qcladravu</p>","","","","","","","",""
"html-keyboard-response","225","800331","0.0-11.0-0.56","5e8783b0fde5153fbd9dca43","64afc2c9a8732ea92db0087d","64aff80b96dc6f8883a6fae0","null","null","<p style=""font-size: 60px; font-family: BACS"">bYuQvUdm</p>","","","","","","","",""
"html-keyboard-response","226","801337","0.0-11.0-0.57","5e8783b0fde5153fbd9dca43","64afc2c9a8732ea92db0087d","64aff80b96dc6f8883a6fae0","null","null","<p style=""font-size: 60px; font-family: BACS"">OJGQuvJ</p>","","","","","","","",""
"html-keyboard-response","227","802351","0.0-11.0-0.58","5e8783b0fde5153fbd9dca43","64afc2c9a8732ea92db0087d","64aff80b96dc6f8883a6fae0","null","null","<p style=""font-size: 60px; font-family: BACS"">blMkMAB</p>","","","","","","","",""
"html-keyboard-response","228","803360","0.0-11.0-0.59","5e8783b0fde5153fbd9dca43","64afc2c9a8732ea92db0087d","64aff80b96dc6f8883a6fae0","null","null","<p style=""font-size: 60px; font-family: BACS"">hAROKATc</p>","","","","","","","",""
"html-keyboard-response","229","804374","0.0-11.0-0.60","5e8783b0fde5153fbd9dca43","64afc2c9a8732ea92db0087d","64aff80b96dc6f8883a6fae0","null","null","<p style=""font-size: 60px; font-family: BACS"">blMkCMdP</p>","","","","","","","",""
"html-keyboard-response","230","805389","0.0-11.0-0.61","5e8783b0fde5153fbd9dca43","64afc2c9a8732ea92db0087d","64aff80b96dc6f8883a6fae0","null","null","<p style=""font-size: 60px; font-family: BACS"">dKRDmKcD</p>","","","","","","","",""
"html-keyboard-response","231","806402","0.0-11.0-0.62","5e8783b0fde5153fbd9dca43","64afc2c9a8732ea92db0087d","64aff80b96dc6f8883a6fae0","null","null","<p style=""font-size: 60px; font-family: BACS"">TbKMEbRC</p>","","","","","","","",""
"html-keyboard-response","232","807409","0.0-11.0-0.63","5e8783b0fde5153fbd9dca43","64afc2c9a8732ea92db0087d","64aff80b96dc6f8883a6fae0","null","null","<p style=""font-size: 60px; font-family: BACS"">ukYZuvJ</p>","","","","","","","",""
"html-keyboard-response","233","808417","0.0-11.0-0.64","5e8783b0fde5153fbd9dca43","64afc2c9a8732ea92db0087d","64aff80b96dc6f8883a6fae0","null","null","<p style=""font-size: 60px; font-family: BACS"">OJGQNYZu</p>","","","","","","","",""
"html-keyboard-response","234","809426","0.0-11.0-0.65","5e8783b0fde5153fbd9dca43","64afc2c9a8732ea92db0087d","64aff80b96dc6f8883a6fae0","null","null","<p style=""font-size: 60px; font-family: BACS"">YLQmGravu</p>","","","","","","","",""
"html-keyboard-response","235","810434","0.0-11.0-0.66","5e8783b0fde5153fbd9dca43","64afc2c9a8732ea92db0087d","64aff80b96dc6f8883a6fae0","null","null","<p style=""font-size: 60px; font-family: BACS"">TEBKATc</p>","","","","","","","",""
"html-keyboard-response","236","811450","0.0-11.0-0.67","5e8783b0fde5153fbd9dca43","64afc2c9a8732ea92db0087d","64aff80b96dc6f8883a6fae0","null","null","<p style=""font-size: 60px; font-family: BACS"">kMbTRMAB</p>","","","","","","","",""
"html-keyboard-response","237","812461","0.0-11.0-0.68","5e8783b0fde5153fbd9dca43","64afc2c9a8732ea92db0087d","64aff80b96dc6f8883a6fae0","null","null","<p style=""font-size: 60px; font-family: BACS"">QcladvUdm</p>","","","","","","","",""
"html-keyboard-response","238","813468","0.0-11.0-0.69","5e8783b0fde5153fbd9dca43","64afc2c9a8732ea92db0087d","64aff80b96dc6f8883a6fae0","null","null","<p style=""font-size: 60px; font-family: BACS"">ZkGmYuvJ</p>","","","","","","","",""
"html-keyboard-response","239","814477","0.0-11.0-0.70","5e8783b0fde5153fbd9dca43","64afc2c9a8732ea92db0087d","64aff80b96dc6f8883a6fae0","null","null","<p style=""font-size: 60px; font-family: BACS"">COtBDbRC</p>","","","","","","","",""
"html-keyboard-response","240","815492","0.0-11.0-0.71","5e8783b0fde5153fbd9dca43","64afc2c9a8732ea92db0087d","64aff80b96dc6f8883a6fae0","null","null","<p style=""font-size: 60px; font-family: BACS"">blMkmKcD</p>","","","","","","","",""
"html-keyboard-response","241","816506","0.0-11.0-0.72","5e8783b0fde5153fbd9dca43","64afc2c9a8732ea92db0087d","64aff80b96dc6f8883a6fae0","null","null","<p style=""font-size: 60px; font-family: BACS"">MTdYbRC</p>","","","","","","","",""
"html-keyboard-response","242","817509","0.0-11.0-0.73","5e8783b0fde5153fbd9dca43","64afc2c9a8732ea92db0087d","64aff80b96dc6f8883a6fae0","null","null","<p style=""font-size: 60px; font-family: BACS"">COtBDmKcD</p>","","","","","","","",""
"html-keyboard-response","243","818518","0.0-11.0-0.74","5e8783b0fde5153fbd9dca43","64afc2c9a8732ea92db0087d","64aff80b96dc6f8883a6fae0","null","null","<p style=""font-size: 60px; font-family: BACS"">MTdYMAB</p>","","","","","","","",""
"html-keyboard-response","244","819527","0.0-11.0-0.75","5e8783b0fde5153fbd9dca43","64afc2c9a8732ea92db0087d","64aff80b96dc6f8883a6fae0","null","null","<p style=""font-size: 60px; font-family: BACS"">NJZluOAO</p>","","","","","","","",""
"html-keyboard-response","245","820541","0.0-11.0-0.76","5e8783b0fde5153fbd9dca43","64afc2c9a8732ea92db0087d","64aff80b96dc6f8883a6fae0","null","null","<p style=""font-size: 60px; font-family: BACS"">COtBDATc</p>","","","","","","","",""
"html-keyboard-response","246","821552","0.0-11.0-0.77","5e8783b0fde5153fbd9dca43","64afc2c9a8732ea92db0087d","64aff80b96dc6f8883a6fae0","null","null","<p style=""font-size: 60px; font-family: BACS"">aONdvUdm</p>","","","","","","","",""
"html-keyboard-response","247","822567","0.0-11.0-0.78","5e8783b0fde5153fbd9dca43","64afc2c9a8732ea92db0087d","64aff80b96dc6f8883a6fae0","null","null","<p style=""font-size: 60px; font-family: BACS"">ukYZravu</p>","","","","","","","",""
"html-keyboard-response","248","823584","0.0-11.0-0.79","5e8783b0fde5153fbd9dca43","64afc2c9a8732ea92db0087d","64aff80b96dc6f8883a6fae0","null","null","<p style=""font-size: 60px; font-family: BACS"">ZYcQUuOAO</p>","","","","","","","",""
"html-keyboard-response","249","902456","0.0-12.0","5e8783b0fde5153fbd9dca43","64afc2c9a8732ea92db0087d","64aff80b96dc6f8883a6fae0","78880"," ","<p>Ottimo, hai visto il terzo blocco di parole. Ora puoi prenderti una piccola pausa.</p>
      <p>Premi la barra quando sei pronta/o per riprendere.</p>","","","","","","","",""
"html-keyboard-response","250","903466","0.0-13.0-0.0","5e8783b0fde5153fbd9dca43","64afc2c9a8732ea92db0087d","64aff80b96dc6f8883a6fae0","null","null","<p style=""font-size: 60px; font-family: BACS"">ZkGmYvUdm</p>","","","","","","","",""
"html-keyboard-response","251","904483","0.0-13.0-0.1","5e8783b0fde5153fbd9dca43","64afc2c9a8732ea92db0087d","64aff80b96dc6f8883a6fae0","null","null","<p style=""font-size: 60px; font-family: BACS"">kMbTRmKcD</p>","","","","","","","",""
"html-keyboard-response","252","905494","0.0-13.0-0.2","5e8783b0fde5153fbd9dca43","64afc2c9a8732ea92db0087d","64aff80b96dc6f8883a6fae0","null","null","<p style=""font-size: 60px; font-family: BACS"">dKRDMAB</p>","","","","","","","",""
"html-keyboard-response","253","906507","0.0-13.0-0.3","5e8783b0fde5153fbd9dca43","64afc2c9a8732ea92db0087d","64aff80b96dc6f8883a6fae0","null","null","<p style=""font-size: 60px; font-family: BACS"">ukYZuvJ</p>","","","","","","","",""
"html-keyboard-response","254","907516","0.0-13.0-0.4","5e8783b0fde5153fbd9dca43","64afc2c9a8732ea92db0087d","64aff80b96dc6f8883a6fae0","null","null","<p style=""font-size: 60px; font-family: BACS"">OCmkCMdP</p>","","","","","","","",""
"html-keyboard-response","255","908528","0.0-13.0-0.5","5e8783b0fde5153fbd9dca43","64afc2c9a8732ea92db0087d","64aff80b96dc6f8883a6fae0","null","null","<p style=""font-size: 60px; font-family: BACS"">dKRDmKcD</p>","","","","","","","",""
"html-keyboard-response","256","909540","0.0-13.0-0.6","5e8783b0fde5153fbd9dca43","64afc2c9a8732ea92db0087d","64aff80b96dc6f8883a6fae0","null","null","<p style=""font-size: 60px; font-family: BACS"">NJZluOAO</p>","","","","","","","",""
"html-keyboard-response","257","910547","0.0-13.0-0.7","5e8783b0fde5153fbd9dca43","64afc2c9a8732ea92db0087d","64aff80b96dc6f8883a6fae0","null","null","<p style=""font-size: 60px; font-family: BACS"">aONdNYZu</p>","","","","","","","",""
"html-keyboard-response","258","911550","0.0-13.0-0.8","5e8783b0fde5153fbd9dca43","64afc2c9a8732ea92db0087d","64aff80b96dc6f8883a6fae0","null","null","<p style=""font-size: 60px; font-family: BACS"">blMkmKcD</p>","","","","","","","",""
"html-keyboard-response","259","912559","0.0-13.0-0.9","5e8783b0fde5153fbd9dca43","64afc2c9a8732ea92db0087d","64aff80b96dc6f8883a6fae0","null","null","<p style=""font-size: 60px; font-family: BACS"">hAROKATc</p>","","","","","","","",""
"html-keyboard-response","260","913566","0.0-13.0-0.10","5e8783b0fde5153fbd9dca43","64afc2c9a8732ea92db0087d","64aff80b96dc6f8883a6fae0","null","null","<p style=""font-size: 60px; font-family: BACS"">AbkauvJ</p>","","","","","","","",""
"html-keyboard-response","261","914574","0.0-13.0-0.11","5e8783b0fde5153fbd9dca43","64afc2c9a8732ea92db0087d","64aff80b96dc6f8883a6fae0","null","null","<p style=""font-size: 60px; font-family: BACS"">hAROKCMdP</p>","","","","","","","",""
"html-keyboard-response","262","915583","0.0-13.0-0.12","5e8783b0fde5153fbd9dca43","64afc2c9a8732ea92db0087d","64aff80b96dc6f8883a6fae0","null","null","<p style=""font-size: 60px; font-family: BACS"">bYuQNYZu</p>","","","","","","","",""
"html-keyboard-response","263","916597","0.0-13.0-0.13","5e8783b0fde5153fbd9dca43","64afc2c9a8732ea92db0087d","64aff80b96dc6f8883a6fae0","null","null","<p style=""font-size: 60px; font-family: BACS"">aONdvUdm</p>","","","","","","","",""
"html-keyboard-response","264","917599","0.0-13.0-0.14","5e8783b0fde5153fbd9dca43","64afc2c9a8732ea92db0087d","64aff80b96dc6f8883a6fae0","null","null","<p style=""font-size: 60px; font-family: BACS"">QcladNYZu</p>","","","","","","","",""
"html-keyboard-response","265","918612","0.0-13.0-0.15","5e8783b0fde5153fbd9dca43","64afc2c9a8732ea92db0087d","64aff80b96dc6f8883a6fae0","null","null","<p style=""font-size: 60px; font-family: BACS"">ukYZravu</p>","","","","","","","",""
"html-keyboard-response","266","919615","0.0-13.0-0.16","5e8783b0fde5153fbd9dca43","64afc2c9a8732ea92db0087d","64aff80b96dc6f8883a6fae0","null","null","<p style=""font-size: 60px; font-family: BACS"">QcladvUdm</p>","","","","","","","",""
"html-keyboard-response","267","920629","0.0-13.0-0.17","5e8783b0fde5153fbd9dca43","64afc2c9a8732ea92db0087d","64aff80b96dc6f8883a6fae0","null","null","<p style=""font-size: 60px; font-family: BACS"">TbKMEmKcD</p>","","","","","","","",""
"html-keyboard-response","268","921635","0.0-13.0-0.18","5e8783b0fde5153fbd9dca43","64afc2c9a8732ea92db0087d","64aff80b96dc6f8883a6fae0","null","null","<p style=""font-size: 60px; font-family: BACS"">Qcladravu</p>","","","","","","","",""
"html-keyboard-response","269","922642","0.0-13.0-0.19","5e8783b0fde5153fbd9dca43","64afc2c9a8732ea92db0087d","64aff80b96dc6f8883a6fae0","null","null","<p style=""font-size: 60px; font-family: BACS"">TEBKATc</p>","","","","","","","",""
"html-keyboard-response","270","923650","0.0-13.0-0.20","5e8783b0fde5153fbd9dca43","64afc2c9a8732ea92db0087d","64aff80b96dc6f8883a6fae0","null","null","<p style=""font-size: 60px; font-family: BACS"">COtBDMAB</p>","","","","","","","",""
"html-keyboard-response","271","924664","0.0-13.0-0.21","5e8783b0fde5153fbd9dca43","64afc2c9a8732ea92db0087d","64aff80b96dc6f8883a6fae0","null","null","<p style=""font-size: 60px; font-family: BACS"">TbKMECMdP</p>","","","","","","","",""
"html-keyboard-response","272","925677","0.0-13.0-0.22","5e8783b0fde5153fbd9dca43","64afc2c9a8732ea92db0087d","64aff80b96dc6f8883a6fae0","null","null","<p style=""font-size: 60px; font-family: BACS"">YLQmGvUdm</p>","","","","","","","",""
"html-keyboard-response","273","926690","0.0-13.0-0.23","5e8783b0fde5153fbd9dca43","64afc2c9a8732ea92db0087d","64aff80b96dc6f8883a6fae0","null","null","<p style=""font-size: 60px; font-family: BACS"">MTdYCMdP</p>","","","","","","","",""
"html-keyboard-response","274","927700","0.0-13.0-0.24","5e8783b0fde5153fbd9dca43","64afc2c9a8732ea92db0087d","64aff80b96dc6f8883a6fae0","null","null","<p style=""font-size: 60px; font-family: BACS"">TEBKmKcD</p>","","","","","","","",""
"html-keyboard-response","275","928702","0.0-13.0-0.25","5e8783b0fde5153fbd9dca43","64afc2c9a8732ea92db0087d","64aff80b96dc6f8883a6fae0","null","null","<p style=""font-size: 60px; font-family: BACS"">aONduOAO</p>","","","","","","","",""
"html-keyboard-response","276","929710","0.0-13.0-0.26","5e8783b0fde5153fbd9dca43","64afc2c9a8732ea92db0087d","64aff80b96dc6f8883a6fae0","null","null","<p style=""font-size: 60px; font-family: BACS"">OJGQNYZu</p>","","","","","","","",""
"html-keyboard-response","277","930717","0.0-13.0-0.27","5e8783b0fde5153fbd9dca43","64afc2c9a8732ea92db0087d","64aff80b96dc6f8883a6fae0","null","null","<p style=""font-size: 60px; font-family: BACS"">TEBKCMdP</p>","","","","","","","",""
"html-keyboard-response","278","931726","0.0-13.0-0.28","5e8783b0fde5153fbd9dca43","64afc2c9a8732ea92db0087d","64aff80b96dc6f8883a6fae0","null","null","<p style=""font-size: 60px; font-family: BACS"">ZYcQUNYZu</p>","","","","","","","",""
"html-keyboard-response","279","932735","0.0-13.0-0.29","5e8783b0fde5153fbd9dca43","64afc2c9a8732ea92db0087d","64aff80b96dc6f8883a6fae0","null","null","<p style=""font-size: 60px; font-family: BACS"">OJGQravu</p>","","","","","","","",""
"html-keyboard-response","280","933748","0.0-13.0-0.30","5e8783b0fde5153fbd9dca43","64afc2c9a8732ea92db0087d","64aff80b96dc6f8883a6fae0","null","null","<p style=""font-size: 60px; font-family: BACS"">OCmkMAB</p>","","","","","","","",""
"html-keyboard-response","281","934765","0.0-13.0-0.31","5e8783b0fde5153fbd9dca43","64afc2c9a8732ea92db0087d","64aff80b96dc6f8883a6fae0","null","null","<p style=""font-size: 60px; font-family: BACS"">COtBDATc</p>","","","","","","","",""
"html-keyboard-response","282","935775","0.0-13.0-0.32","5e8783b0fde5153fbd9dca43","64afc2c9a8732ea92db0087d","64aff80b96dc6f8883a6fae0","null","null","<p style=""font-size: 60px; font-family: BACS"">TEBKbRC</p>","","","","","","","",""
"html-keyboard-response","283","936783","0.0-13.0-0.33","5e8783b0fde5153fbd9dca43","64afc2c9a8732ea92db0087d","64aff80b96dc6f8883a6fae0","null","null","<p style=""font-size: 60px; font-family: BACS"">KBKBEmKcD</p>","","","","","","","",""
"html-keyboard-response","284","937798","0.0-13.0-0.34","5e8783b0fde5153fbd9dca43","64afc2c9a8732ea92db0087d","64aff80b96dc6f8883a6fae0","null","null","<p style=""font-size: 60px; font-family: BACS"">blMkMAB</p>","","","","","","","",""
"html-keyboard-response","285","938808","0.0-13.0-0.35","5e8783b0fde5153fbd9dca43","64afc2c9a8732ea92db0087d","64aff80b96dc6f8883a6fae0","null","null","<p style=""font-size: 60px; font-family: BACS"">ZkGmYuvJ</p>","","","","","","","",""
"html-keyboard-response","286","939826","0.0-13.0-0.36","5e8783b0fde5153fbd9dca43","64afc2c9a8732ea92db0087d","64aff80b96dc6f8883a6fae0","null","null","<p style=""font-size: 60px; font-family: BACS"">MTdYATc</p>","","","","","","","",""
"html-keyboard-response","287","940842","0.0-13.0-0.37","5e8783b0fde5153fbd9dca43","64afc2c9a8732ea92db0087d","64aff80b96dc6f8883a6fae0","null","null","<p style=""font-size: 60px; font-family: BACS"">COtBDmKcD</p>","","","","","","","",""
"html-keyboard-response","288","941850","0.0-13.0-0.38","5e8783b0fde5153fbd9dca43","64afc2c9a8732ea92db0087d","64aff80b96dc6f8883a6fae0","null","null","<p style=""font-size: 60px; font-family: BACS"">aONduvJ</p>","","","","","","","",""
"html-keyboard-response","289","942853","0.0-13.0-0.39","5e8783b0fde5153fbd9dca43","64afc2c9a8732ea92db0087d","64aff80b96dc6f8883a6fae0","null","null","<p style=""font-size: 60px; font-family: BACS"">bYuQvUdm</p>","","","","","","","",""
"html-keyboard-response","290","943860","0.0-13.0-0.40","5e8783b0fde5153fbd9dca43","64afc2c9a8732ea92db0087d","64aff80b96dc6f8883a6fae0","null","null","<p style=""font-size: 60px; font-family: BACS"">KBKBECMdP</p>","","","","","","","",""
"html-keyboard-response","291","944864","0.0-13.0-0.41","5e8783b0fde5153fbd9dca43","64afc2c9a8732ea92db0087d","64aff80b96dc6f8883a6fae0","null","null","<p style=""font-size: 60px; font-family: BACS"">hAROKMAB</p>","","","","","","","",""
"html-keyboard-response","292","945882","0.0-13.0-0.42","5e8783b0fde5153fbd9dca43","64afc2c9a8732ea92db0087d","64aff80b96dc6f8883a6fae0","null","null","<p style=""font-size: 60px; font-family: BACS"">AbkauOAO</p>","","","","","","","",""
"html-keyboard-response","293","946898","0.0-13.0-0.43","5e8783b0fde5153fbd9dca43","64afc2c9a8732ea92db0087d","64aff80b96dc6f8883a6fae0","null","null","<p style=""font-size: 60px; font-family: BACS"">kMbTRMAB</p>","","","","","","","",""
"html-keyboard-response","294","947911","0.0-13.0-0.44","5e8783b0fde5153fbd9dca43","64afc2c9a8732ea92db0087d","64aff80b96dc6f8883a6fae0","null","null","<p style=""font-size: 60px; font-family: BACS"">dKRDbRC</p>","","","","","","","",""
"html-keyboard-response","295","948916","0.0-13.0-0.45","5e8783b0fde5153fbd9dca43","64afc2c9a8732ea92db0087d","64aff80b96dc6f8883a6fae0","null","null","<p style=""font-size: 60px; font-family: BACS"">OJGQuvJ</p>","","","","","","","",""
"html-keyboard-response","296","949933","0.0-13.0-0.46","5e8783b0fde5153fbd9dca43","64afc2c9a8732ea92db0087d","64aff80b96dc6f8883a6fae0","null","null","<p style=""font-size: 60px; font-family: BACS"">ukYZuOAO</p>","","","","","","","",""
"html-keyboard-response","297","950943","0.0-13.0-0.47","5e8783b0fde5153fbd9dca43","64afc2c9a8732ea92db0087d","64aff80b96dc6f8883a6fae0","null","null","<p style=""font-size: 60px; font-family: BACS"">KBKBEMAB</p>","","","","","","","",""
"html-keyboard-response","298","951958","0.0-13.0-0.48","5e8783b0fde5153fbd9dca43","64afc2c9a8732ea92db0087d","64aff80b96dc6f8883a6fae0","null","null","<p style=""font-size: 60px; font-family: BACS"">NJZlNYZu</p>","","","","","","","",""
"html-keyboard-response","299","952967","0.0-13.0-0.49","5e8783b0fde5153fbd9dca43","64afc2c9a8732ea92db0087d","64aff80b96dc6f8883a6fae0","null","null","<p style=""font-size: 60px; font-family: BACS"">hAROKbRC</p>","","","","","","","",""
"html-keyboard-response","300","953982","0.0-13.0-0.50","5e8783b0fde5153fbd9dca43","64afc2c9a8732ea92db0087d","64aff80b96dc6f8883a6fae0","null","null","<p style=""font-size: 60px; font-family: BACS"">ZYcQUravu</p>","","","","","","","",""
"html-keyboard-response","301","954998","0.0-13.0-0.51","5e8783b0fde5153fbd9dca43","64afc2c9a8732ea92db0087d","64aff80b96dc6f8883a6fae0","null","null","<p style=""font-size: 60px; font-family: BACS"">kMbTRATc</p>","","","","","","","",""
"html-keyboard-response","302","956013","0.0-13.0-0.52","5e8783b0fde5153fbd9dca43","64afc2c9a8732ea92db0087d","64aff80b96dc6f8883a6fae0","null","null","<p style=""font-size: 60px; font-family: BACS"">MTdYMAB</p>","","","","","","","",""
"html-keyboard-response","303","957028","0.0-13.0-0.53","5e8783b0fde5153fbd9dca43","64afc2c9a8732ea92db0087d","64aff80b96dc6f8883a6fae0","null","null","<p style=""font-size: 60px; font-family: BACS"">ZYcQUuvJ</p>","","","","","","","",""
"html-keyboard-response","304","958046","0.0-13.0-0.54","5e8783b0fde5153fbd9dca43","64afc2c9a8732ea92db0087d","64aff80b96dc6f8883a6fae0","null","null","<p style=""font-size: 60px; font-family: BACS"">TbKMEATc</p>","","","","","","","",""
"html-keyboard-response","305","959060","0.0-13.0-0.55","5e8783b0fde5153fbd9dca43","64afc2c9a8732ea92db0087d","64aff80b96dc6f8883a6fae0","null","null","<p style=""font-size: 60px; font-family: BACS"">bYuQravu</p>","","","","","","","",""
"html-keyboard-response","306","960074","0.0-13.0-0.56","5e8783b0fde5153fbd9dca43","64afc2c9a8732ea92db0087d","64aff80b96dc6f8883a6fae0","null","null","<p style=""font-size: 60px; font-family: BACS"">ukYZvUdm</p>","","","","","","","",""
"html-keyboard-response","307","961077","0.0-13.0-0.57","5e8783b0fde5153fbd9dca43","64afc2c9a8732ea92db0087d","64aff80b96dc6f8883a6fae0","null","null","<p style=""font-size: 60px; font-family: BACS"">AbkaNYZu</p>","","","","","","","",""
"html-keyboard-response","308","962084","0.0-13.0-0.58","5e8783b0fde5153fbd9dca43","64afc2c9a8732ea92db0087d","64aff80b96dc6f8883a6fae0","null","null","<p style=""font-size: 60px; font-family: BACS"">MTdYbRC</p>","","","","","","","",""
"html-keyboard-response","309","963102","0.0-13.0-0.59","5e8783b0fde5153fbd9dca43","64afc2c9a8732ea92db0087d","64aff80b96dc6f8883a6fae0","null","null","<p style=""font-size: 60px; font-family: BACS"">ZkGmYravu</p>","","","","","","","",""
"html-keyboard-response","310","964108","0.0-13.0-0.60","5e8783b0fde5153fbd9dca43","64afc2c9a8732ea92db0087d","64aff80b96dc6f8883a6fae0","null","null","<p style=""font-size: 60px; font-family: BACS"">blMkCMdP</p>","","","","","","","",""
"html-keyboard-response","311","965119","0.0-13.0-0.61","5e8783b0fde5153fbd9dca43","64afc2c9a8732ea92db0087d","64aff80b96dc6f8883a6fae0","null","null","<p style=""font-size: 60px; font-family: BACS"">OJGQvUdm</p>","","","","","","","",""
"html-keyboard-response","312","966128","0.0-13.0-0.62","5e8783b0fde5153fbd9dca43","64afc2c9a8732ea92db0087d","64aff80b96dc6f8883a6fae0","null","null","<p style=""font-size: 60px; font-family: BACS"">QcladuvJ</p>","","","","","","","",""
"html-keyboard-response","313","967134","0.0-13.0-0.63","5e8783b0fde5153fbd9dca43","64afc2c9a8732ea92db0087d","64aff80b96dc6f8883a6fae0","null","null","<p style=""font-size: 60px; font-family: BACS"">OCmkATc</p>","","","","","","","",""
"html-keyboard-response","314","968142","0.0-13.0-0.64","5e8783b0fde5153fbd9dca43","64afc2c9a8732ea92db0087d","64aff80b96dc6f8883a6fae0","null","null","<p style=""font-size: 60px; font-family: BACS"">Abkaravu</p>","","","","","","","",""
"html-keyboard-response","315","969151","0.0-13.0-0.65","5e8783b0fde5153fbd9dca43","64afc2c9a8732ea92db0087d","64aff80b96dc6f8883a6fae0","null","null","<p style=""font-size: 60px; font-family: BACS"">NJZlvUdm</p>","","","","","","","",""
"html-keyboard-response","316","970162","0.0-13.0-0.66","5e8783b0fde5153fbd9dca43","64afc2c9a8732ea92db0087d","64aff80b96dc6f8883a6fae0","null","null","<p style=""font-size: 60px; font-family: BACS"">OCmkmKcD</p>","","","","","","","",""
"html-keyboard-response","317","971166","0.0-13.0-0.67","5e8783b0fde5153fbd9dca43","64afc2c9a8732ea92db0087d","64aff80b96dc6f8883a6fae0","null","null","<p style=""font-size: 60px; font-family: BACS"">YLQmGNYZu</p>","","","","","","","",""
"html-keyboard-response","318","972175","0.0-13.0-0.68","5e8783b0fde5153fbd9dca43","64afc2c9a8732ea92db0087d","64aff80b96dc6f8883a6fae0","null","null","<p style=""font-size: 60px; font-family: BACS"">ZkGmYuOAO</p>","","","","","","","",""
"html-keyboard-response","319","973184","0.0-13.0-0.69","5e8783b0fde5153fbd9dca43","64afc2c9a8732ea92db0087d","64aff80b96dc6f8883a6fae0","null","null","<p style=""font-size: 60px; font-family: BACS"">YLQmGravu</p>","","","","","","","",""
"html-keyboard-response","320","974191","0.0-13.0-0.70","5e8783b0fde5153fbd9dca43","64afc2c9a8732ea92db0087d","64aff80b96dc6f8883a6fae0","null","null","<p style=""font-size: 60px; font-family: BACS"">KBKBEbRC</p>","","","","","","","",""
"html-keyboard-response","321","975206","0.0-13.0-0.71","5e8783b0fde5153fbd9dca43","64afc2c9a8732ea92db0087d","64aff80b96dc6f8883a6fae0","null","null","<p style=""font-size: 60px; font-family: BACS"">bYuQuOAO</p>","","","","","","","",""
"html-keyboard-response","322","976218","0.0-13.0-0.72","5e8783b0fde5153fbd9dca43","64afc2c9a8732ea92db0087d","64aff80b96dc6f8883a6fae0","null","null","<p style=""font-size: 60px; font-family: BACS"">TbKMEbRC</p>","","","","","","","",""
"html-keyboard-response","323","977227","0.0-13.0-0.73","5e8783b0fde5153fbd9dca43","64afc2c9a8732ea92db0087d","64aff80b96dc6f8883a6fae0","null","null","<p style=""font-size: 60px; font-family: BACS"">dKRDATc</p>","","","","","","","",""
"html-keyboard-response","324","978236","0.0-13.0-0.74","5e8783b0fde5153fbd9dca43","64afc2c9a8732ea92db0087d","64aff80b96dc6f8883a6fae0","null","null","<p style=""font-size: 60px; font-family: BACS"">ZYcQUuOAO</p>","","","","","","","",""
"html-keyboard-response","325","979242","0.0-13.0-0.75","5e8783b0fde5153fbd9dca43","64afc2c9a8732ea92db0087d","64aff80b96dc6f8883a6fae0","null","null","<p style=""font-size: 60px; font-family: BACS"">blMkbRC</p>","","","","","","","",""
"html-keyboard-response","326","980249","0.0-13.0-0.76","5e8783b0fde5153fbd9dca43","64afc2c9a8732ea92db0087d","64aff80b96dc6f8883a6fae0","null","null","<p style=""font-size: 60px; font-family: BACS"">NJZluvJ</p>","","","","","","","",""
"html-keyboard-response","327","981266","0.0-13.0-0.77","5e8783b0fde5153fbd9dca43","64afc2c9a8732ea92db0087d","64aff80b96dc6f8883a6fae0","null","null","<p style=""font-size: 60px; font-family: BACS"">kMbTRCMdP</p>","","","","","","","",""
"html-keyboard-response","328","982283","0.0-13.0-0.78","5e8783b0fde5153fbd9dca43","64afc2c9a8732ea92db0087d","64aff80b96dc6f8883a6fae0","null","null","<p style=""font-size: 60px; font-family: BACS"">COtBDbRC</p>","","","","","","","",""
"html-keyboard-response","329","983287","0.0-13.0-0.79","5e8783b0fde5153fbd9dca43","64afc2c9a8732ea92db0087d","64aff80b96dc6f8883a6fae0","null","null","<p style=""font-size: 60px; font-family: BACS"">YLQmGuOAO</p>","","","","","","","",""
"html-keyboard-response","330","1002295","0.0-14.0","5e8783b0fde5153fbd9dca43","64afc2c9a8732ea92db0087d","64aff80b96dc6f8883a6fae0","19007"," ","<p>Ottimo! Hai visto tutte le parole che abbiamo ricevuto dallo spazio.</p>
      <p>Premi la barra quando sei pronta/o per continuare.</p>","","","","","","","",""
"html-keyboard-response","331","1132797","0.0-15.0","5e8783b0fde5153fbd9dca43","64afc2c9a8732ea92db0087d","64aff80b96dc6f8883a6fae0","130501"," ","<p>In questa seconda parte, vedrai delle nuove parole che abbiamo ricevuto dallo stesso gruppo di alieni, e altre che invece provengono da un'altra comunicazione, con un altro gruppo di alieni. Purtroppo le due comunicazioni non arrivano a noi separatamente, per cui le parole sono mescolate tra loro. Il tuo compito sarà quello di individuare le parole che provengono dal gruppo che hai studiato nella prima parte dell'esperimento.</p>
      <p>Questo compito non è per nulla facile; le due comunicazioni infatti usano gli stessi caratteri. Il tuo meeting con i leader mondiali inizia tra poco, per cui non avrai molto tempo per prendere la tua decisione; dovrai essere veloce. Cerca di fare del tuo meglio usando la tua intuizione; non hai tempo di stare a pensare a lungo su ogni singola parola.</p>
      <p>Premi <strong>k</strong> quando pensi che la parola che stai vedendo sia degli stessi alieni che hai studiato prima, e <strong>d</strong> quando invece pensi che la parola che stai vedendo venga dall'altra comunicazione, con il nuovo gruppo di alieni.</p><p>Premi la barra quando sei pronta/o per iniziare.</p>","","","","","","","",""
"html-keyboard-response","332","1136975","0.0-16.0-0.0","5e8783b0fde5153fbd9dca43","64afc2c9a8732ea92db0087d","64aff80b96dc6f8883a6fae0","4175","d","<p style=""font-size: 30px;"">La parola viene del gruppo di alieni che hai studiato prima?</p><br><p style=""font-size: 60px; font-family: BACS"">KBKBEATc<p style=""font-size: 15px"">Premi <strong>k</strong> per sì, <strong>d</strong> per no.</p>","","KBKBEATc","testing","k","false","","",""
"html-keyboard-response","333","1143511","0.0-16.0-1.0-0.0","5e8783b0fde5153fbd9dca43","64afc2c9a8732ea92db0087d","64aff80b96dc6f8883a6fae0","6532"," ","<p style=""font-size: 30px; color: red"">Attenzione! Sei stato troppo lento con questa parola.</p>
      <p style=""font-size: 30px; color: red"">Cerca di essere più veloce.</p><p></p><p>Premi la barra per continuare.</p>","","","","","","","",""
"html-keyboard-response","334","1144812","0.0-16.0-0.1","5e8783b0fde5153fbd9dca43","64afc2c9a8732ea92db0087d","64aff80b96dc6f8883a6fae0","1299","k","<p style=""font-size: 30px;"">La parola viene del gruppo di alieni che hai studiato prima?</p><br><p style=""font-size: 60px; font-family: BACS"">aONdravu<p style=""font-size: 15px"">Premi <strong>k</strong> per sì, <strong>d</strong> per no.</p>","","aONdravu","testing","k","true","","",""
"html-keyboard-response","335","1146239","0.0-16.0-0.2","5e8783b0fde5153fbd9dca43","64afc2c9a8732ea92db0087d","64aff80b96dc6f8883a6fae0","1423","k","<p style=""font-size: 30px;"">La parola viene del gruppo di alieni che hai studiato prima?</p><br><p style=""font-size: 60px; font-family: BACS"">kMbTRvUdm<p style=""font-size: 15px"">Premi <strong>k</strong> per sì, <strong>d</strong> per no.</p>","","kMbTRvUdm","testing","d","false","","",""
"html-keyboard-response","336","1147666","0.0-16.0-0.3","5e8783b0fde5153fbd9dca43","64afc2c9a8732ea92db0087d","64aff80b96dc6f8883a6fae0","1424","d","<p style=""font-size: 30px"">&emsp;</p><br><p style=""font-size: 60px; font-family: BACS"">OJGQATc<p style=""font-size: 15px"">Premi <strong>k</strong> per sì, <strong>d</strong> per no.</p>","","OJGQATc","testing","d","true","","",""
"html-keyboard-response","337","1149191","0.0-16.0-0.4","5e8783b0fde5153fbd9dca43","64afc2c9a8732ea92db0087d","64aff80b96dc6f8883a6fae0","1523","d","<p style=""font-size: 30px"">&emsp;</p><br><p style=""font-size: 60px; font-family: BACS"">ZkGmYNYZu<p style=""font-size: 15px"">Premi <strong>k</strong> per sì, <strong>d</strong> per no.</p>","","ZkGmYNYZu","testing","k","false","","",""
"html-keyboard-response","338","1150491","0.0-16.0-0.5","5e8783b0fde5153fbd9dca43","64afc2c9a8732ea92db0087d","64aff80b96dc6f8883a6fae0","1296","k","<p style=""font-size: 30px"">&emsp;</p><br><p style=""font-size: 60px; font-family: BACS"">COtBDravu<p style=""font-size: 15px"">Premi <strong>k</strong> per sì, <strong>d</strong> per no.</p>","","COtBDravu","testing","d","false","","",""
"html-keyboard-response","339","1151794","0.0-16.0-0.6","5e8783b0fde5153fbd9dca43","64afc2c9a8732ea92db0087d","64aff80b96dc6f8883a6fae0","1301","k","<p style=""font-size: 30px"">&emsp;</p><br><p style=""font-size: 60px; font-family: BACS"">kMbTRbRC<p style=""font-size: 15px"">Premi <strong>k</strong> per sì, <strong>d</strong> per no.</p>","","kMbTRbRC","testing","k","true","","",""
"html-keyboard-response","340","1153312","0.0-16.0-0.7","5e8783b0fde5153fbd9dca43","64afc2c9a8732ea92db0087d","64aff80b96dc6f8883a6fae0","1516","k","<p style=""font-size: 30px"">&emsp;</p><br><p style=""font-size: 60px; font-family: BACS"">dKRDCMdP<p style=""font-size: 15px"">Premi <strong>k</strong> per sì, <strong>d</strong> per no.</p>","","dKRDCMdP","testing","k","true","","",""
"html-keyboard-response","341","1154566","0.0-16.0-0.8","5e8783b0fde5153fbd9dca43","64afc2c9a8732ea92db0087d","64aff80b96dc6f8883a6fae0","1253","k","<p style=""font-size: 30px"">&emsp;</p><br><p style=""font-size: 60px; font-family: BACS"">TbKMEuvJ<p style=""font-size: 15px"">Premi <strong>k</strong> per sì, <strong>d</strong> per no.</p>","","TbKMEuvJ","testing","d","false","","",""
"html-keyboard-response","342","1156293","0.0-16.0-0.9","5e8783b0fde5153fbd9dca43","64afc2c9a8732ea92db0087d","64aff80b96dc6f8883a6fae0","1725","k","<p style=""font-size: 30px"">&emsp;</p><br><p style=""font-size: 60px; font-family: BACS"">TEBKMAB<p style=""font-size: 15px"">Premi <strong>k</strong> per sì, <strong>d</strong> per no.</p>","","TEBKMAB","testing","k","true","","",""
"html-keyboard-response","343","1157420","0.0-16.0-0.10","5e8783b0fde5153fbd9dca43","64afc2c9a8732ea92db0087d","64aff80b96dc6f8883a6fae0","1122","d","<p style=""font-size: 30px"">&emsp;</p><br><p style=""font-size: 60px; font-family: BACS"">AbkabRC<p style=""font-size: 15px"">Premi <strong>k</strong> per sì, <strong>d</strong> per no.</p>","","AbkabRC","testing","d","true","","",""
"html-keyboard-response","344","1158942","0.0-16.0-0.11","5e8783b0fde5153fbd9dca43","64afc2c9a8732ea92db0087d","64aff80b96dc6f8883a6fae0","1520","k","<p style=""font-size: 30px"">&emsp;</p><br><p style=""font-size: 60px; font-family: BACS"">bYuQuvJ<p style=""font-size: 15px"">Premi <strong>k</strong> per sì, <strong>d</strong> per no.</p>","","bYuQuvJ","testing","k","true","","",""
"html-keyboard-response","345","1160228","0.0-16.0-0.12","5e8783b0fde5153fbd9dca43","64afc2c9a8732ea92db0087d","64aff80b96dc6f8883a6fae0","1284","k","<p style=""font-size: 30px"">&emsp;</p><br><p style=""font-size: 60px; font-family: BACS"">MTdYmKcD<p style=""font-size: 15px"">Premi <strong>k</strong> per sì, <strong>d</strong> per no.</p>","","MTdYmKcD","testing","k","true","","",""
"html-keyboard-response","346","1162113","0.0-16.0-0.13","5e8783b0fde5153fbd9dca43","64afc2c9a8732ea92db0087d","64aff80b96dc6f8883a6fae0","1883","d","<p style=""font-size: 30px"">&emsp;</p><br><p style=""font-size: 60px; font-family: BACS"">OCmkvUdm<p style=""font-size: 15px"">Premi <strong>k</strong> per sì, <strong>d</strong> per no.</p>","","OCmkvUdm","testing","d","true","","",""
"html-keyboard-response","347","1163767","0.0-16.0-0.14","5e8783b0fde5153fbd9dca43","64afc2c9a8732ea92db0087d","64aff80b96dc6f8883a6fae0","1651","k","<p style=""font-size: 30px"">&emsp;</p><br><p style=""font-size: 60px; font-family: BACS"">COtBDCMdP<p style=""font-size: 15px"">Premi <strong>k</strong> per sì, <strong>d</strong> per no.</p>","","COtBDCMdP","testing","k","true","","",""
"html-keyboard-response","348","1165507","0.0-16.0-0.15","5e8783b0fde5153fbd9dca43","64afc2c9a8732ea92db0087d","64aff80b96dc6f8883a6fae0","1738","d","<p style=""font-size: 30px"">&emsp;</p><br><p style=""font-size: 60px; font-family: BACS"">OJGQuOAO<p style=""font-size: 15px"">Premi <strong>k</strong> per sì, <strong>d</strong> per no.</p>","","OJGQuOAO","testing","k","false","","",""
"html-keyboard-response","349","1167453","0.0-16.0-0.16","5e8783b0fde5153fbd9dca43","64afc2c9a8732ea92db0087d","64aff80b96dc6f8883a6fae0","1944","d","<p style=""font-size: 30px"">&emsp;</p><br><p style=""font-size: 60px; font-family: BACS"">TEBKuvJ<p style=""font-size: 15px"">Premi <strong>k</strong> per sì, <strong>d</strong> per no.</p>","","TEBKuvJ","testing","d","true","","",""
"html-keyboard-response","350","1169611","0.0-16.0-0.17","5e8783b0fde5153fbd9dca43","64afc2c9a8732ea92db0087d","64aff80b96dc6f8883a6fae0","2156","k","<p style=""font-size: 30px"">&emsp;</p><br><p style=""font-size: 60px; font-family: BACS"">QcladuOAO<p style=""font-size: 15px"">Premi <strong>k</strong> per sì, <strong>d</strong> per no.</p>","","QcladuOAO","testing","k","true","","",""
"html-keyboard-response","351","1173359","0.0-16.0-1.17-0.17","5e8783b0fde5153fbd9dca43","64afc2c9a8732ea92db0087d","64aff80b96dc6f8883a6fae0","3746"," ","<p style=""font-size: 30px; color: red"">Attenzione! Sei stato troppo lento con questa parola.</p>
      <p style=""font-size: 30px; color: red"">Cerca di essere più veloce.</p><p></p><p>Premi la barra per continuare.</p>","","","","","","","",""
"html-keyboard-response","352","1174507","0.0-16.0-0.18","5e8783b0fde5153fbd9dca43","64afc2c9a8732ea92db0087d","64aff80b96dc6f8883a6fae0","1145","d","<p style=""font-size: 30px"">&emsp;</p><br><p style=""font-size: 60px; font-family: BACS"">MTdYNYZu<p style=""font-size: 15px"">Premi <strong>k</strong> per sì, <strong>d</strong> per no.</p>","","MTdYNYZu","testing","d","true","","",""
"html-keyboard-response","353","1175589","0.0-16.0-0.19","5e8783b0fde5153fbd9dca43","64afc2c9a8732ea92db0087d","64aff80b96dc6f8883a6fae0","1080","k","<p style=""font-size: 30px"">&emsp;</p><br><p style=""font-size: 60px; font-family: BACS"">hAROKmKcD<p style=""font-size: 15px"">Premi <strong>k</strong> per sì, <strong>d</strong> per no.</p>","","hAROKmKcD","testing","k","true","","",""
"html-keyboard-response","354","1176632","0.0-16.0-0.20","5e8783b0fde5153fbd9dca43","64afc2c9a8732ea92db0087d","64aff80b96dc6f8883a6fae0","1041","k","<p style=""font-size: 30px"">&emsp;</p><br><p style=""font-size: 60px; font-family: BACS"">bYuQMAB<p style=""font-size: 15px"">Premi <strong>k</strong> per sì, <strong>d</strong> per no.</p>","","bYuQMAB","testing","d","false","","",""
"html-keyboard-response","355","1177906","0.0-16.0-0.21","5e8783b0fde5153fbd9dca43","64afc2c9a8732ea92db0087d","64aff80b96dc6f8883a6fae0","1272","d","<p style=""font-size: 30px"">&emsp;</p><br><p style=""font-size: 60px; font-family: BACS"">blMkuOAO<p style=""font-size: 15px"">Premi <strong>k</strong> per sì, <strong>d</strong> per no.</p>","","blMkuOAO","testing","d","true","","",""
"html-keyboard-response","356","1179134","0.0-16.0-0.22","5e8783b0fde5153fbd9dca43","64afc2c9a8732ea92db0087d","64aff80b96dc6f8883a6fae0","1226","k","<p style=""font-size: 30px"">&emsp;</p><br><p style=""font-size: 60px; font-family: BACS"">YLQmGuvJ<p style=""font-size: 15px"">Premi <strong>k</strong> per sì, <strong>d</strong> per no.</p>","","YLQmGuvJ","testing","k","true","","",""
"html-keyboard-response","357","1180485","0.0-16.0-0.23","5e8783b0fde5153fbd9dca43","64afc2c9a8732ea92db0087d","64aff80b96dc6f8883a6fae0","1349","k","<p style=""font-size: 30px"">&emsp;</p><br><p style=""font-size: 60px; font-family: BACS"">AbkavUdm<p style=""font-size: 15px"">Premi <strong>k</strong> per sì, <strong>d</strong> per no.</p>","","AbkavUdm","testing","k","true","","",""
"html-keyboard-response","358","1181966","0.0-16.0-0.24","5e8783b0fde5153fbd9dca43","64afc2c9a8732ea92db0087d","64aff80b96dc6f8883a6fae0","1479","d","<p style=""font-size: 30px"">&emsp;</p><br><p style=""font-size: 60px; font-family: BACS"">TbKMEMAB<p style=""font-size: 15px"">Premi <strong>k</strong> per sì, <strong>d</strong> per no.</p>","","TbKMEMAB","testing","k","false","","",""
"html-keyboard-response","359","1183150","0.0-16.0-0.25","5e8783b0fde5153fbd9dca43","64afc2c9a8732ea92db0087d","64aff80b96dc6f8883a6fae0","1182","k","<p style=""font-size: 30px"">&emsp;</p><br><p style=""font-size: 60px; font-family: BACS"">aONdCMdP<p style=""font-size: 15px"">Premi <strong>k</strong> per sì, <strong>d</strong> per no.</p>","","aONdCMdP","testing","d","false","","",""
"html-keyboard-response","360","1185027","0.0-16.0-0.26","5e8783b0fde5153fbd9dca43","64afc2c9a8732ea92db0087d","64aff80b96dc6f8883a6fae0","1876","k","<p style=""font-size: 30px"">&emsp;</p><br><p style=""font-size: 60px; font-family: BACS"">dKRDravu<p style=""font-size: 15px"">Premi <strong>k</strong> per sì, <strong>d</strong> per no.</p>","","dKRDravu","testing","d","false","","",""
"html-keyboard-response","361","1186025","0.0-16.0-0.27","5e8783b0fde5153fbd9dca43","64afc2c9a8732ea92db0087d","64aff80b96dc6f8883a6fae0","996","d","<p style=""font-size: 30px"">&emsp;</p><br><p style=""font-size: 60px; font-family: BACS"">ukYZNYZu<p style=""font-size: 15px"">Premi <strong>k</strong> per sì, <strong>d</strong> per no.</p>","","ukYZNYZu","testing","k","false","","",""
"html-keyboard-response","362","1187437","0.0-16.0-0.28","5e8783b0fde5153fbd9dca43","64afc2c9a8732ea92db0087d","64aff80b96dc6f8883a6fae0","1410","k","<p style=""font-size: 30px"">&emsp;</p><br><p style=""font-size: 60px; font-family: BACS"">ZYcQUbRC<p style=""font-size: 15px"">Premi <strong>k</strong> per sì, <strong>d</strong> per no.</p>","","ZYcQUbRC","testing","d","false","","",""
"html-keyboard-response","363","1188894","0.0-16.0-0.29","5e8783b0fde5153fbd9dca43","64afc2c9a8732ea92db0087d","64aff80b96dc6f8883a6fae0","1454","k","<p style=""font-size: 30px"">&emsp;</p><br><p style=""font-size: 60px; font-family: BACS"">KBKBEuOAO<p style=""font-size: 15px"">Premi <strong>k</strong> per sì, <strong>d</strong> per no.</p>","","KBKBEuOAO","testing","d","false","","",""
"html-keyboard-response","364","1190325","0.0-16.0-0.30","5e8783b0fde5153fbd9dca43","64afc2c9a8732ea92db0087d","64aff80b96dc6f8883a6fae0","1429","d","<p style=""font-size: 30px"">&emsp;</p><br><p style=""font-size: 60px; font-family: BACS"">ZYcQUvUdm<p style=""font-size: 15px"">Premi <strong>k</strong> per sì, <strong>d</strong> per no.</p>","","ZYcQUvUdm","testing","k","false","","",""
"html-keyboard-response","365","1191611","0.0-16.0-0.31","5e8783b0fde5153fbd9dca43","64afc2c9a8732ea92db0087d","64aff80b96dc6f8883a6fae0","1284","k","<p style=""font-size: 30px"">&emsp;</p><br><p style=""font-size: 60px; font-family: BACS"">OCmkbRC<p style=""font-size: 15px"">Premi <strong>k</strong> per sì, <strong>d</strong> per no.</p>","","OCmkbRC","testing","k","true","","",""
"html-keyboard-response","366","1192986","0.0-16.0-0.32","5e8783b0fde5153fbd9dca43","64afc2c9a8732ea92db0087d","64aff80b96dc6f8883a6fae0","1372","k","<p style=""font-size: 30px"">&emsp;</p><br><p style=""font-size: 60px; font-family: BACS"">hAROKNYZu<p style=""font-size: 15px"">Premi <strong>k</strong> per sì, <strong>d</strong> per no.</p>","","hAROKNYZu","testing","d","false","","",""
"html-keyboard-response","367","1194267","0.0-16.0-0.33","5e8783b0fde5153fbd9dca43","64afc2c9a8732ea92db0087d","64aff80b96dc6f8883a6fae0","1279","k","<p style=""font-size: 30px"">&emsp;</p><br><p style=""font-size: 60px; font-family: BACS"">ukYZmKcD<p style=""font-size: 15px"">Premi <strong>k</strong> per sì, <strong>d</strong> per no.</p>","","ukYZmKcD","testing","d","false","","",""
"html-keyboard-response","368","1196031","0.0-16.0-0.34","5e8783b0fde5153fbd9dca43","64afc2c9a8732ea92db0087d","64aff80b96dc6f8883a6fae0","1761","k","<p style=""font-size: 30px"">&emsp;</p><br><p style=""font-size: 60px; font-family: BACS"">NJZlravu<p style=""font-size: 15px"">Premi <strong>k</strong> per sì, <strong>d</strong> per no.</p>","","NJZlravu","testing","k","true","","",""
"html-keyboard-response","369","1197829","0.0-16.0-0.35","5e8783b0fde5153fbd9dca43","64afc2c9a8732ea92db0087d","64aff80b96dc6f8883a6fae0","1796","d","<p style=""font-size: 30px"">&emsp;</p><br><p style=""font-size: 60px; font-family: BACS"">blMkATc<p style=""font-size: 15px"">Premi <strong>k</strong> per sì, <strong>d</strong> per no.</p>","","blMkATc","testing","k","false","","",""
"html-keyboard-response","370","1199607","0.0-16.0-0.36","5e8783b0fde5153fbd9dca43","64afc2c9a8732ea92db0087d","64aff80b96dc6f8883a6fae0","1776","d","<p style=""font-size: 30px"">&emsp;</p><br><p style=""font-size: 60px; font-family: BACS"">YLQmGMAB<p style=""font-size: 15px"">Premi <strong>k</strong> per sì, <strong>d</strong> per no.</p>","","YLQmGMAB","testing","d","true","","",""
"html-keyboard-response","371","1200633","0.0-16.0-0.37","5e8783b0fde5153fbd9dca43","64afc2c9a8732ea92db0087d","64aff80b96dc6f8883a6fae0","1025","k","<p style=""font-size: 30px"">&emsp;</p><br><p style=""font-size: 60px; font-family: BACS"">ZkGmYmKcD<p style=""font-size: 15px"">Premi <strong>k</strong> per sì, <strong>d</strong> per no.</p>","","ZkGmYmKcD","testing","d","false","","",""
