"trial_type","trial_index","time_elapsed","internal_node_id","subject_id","study_id","session_id","rt","response","stimulus","success","item","task","correct_response","testing_condition","correct","target","confound","name"
"pavlovia","0","2182","0.0-0.0","605de3af48d7a575adb95b09","64e77d7b61f440b60e28659d","64eca8e7ad32a79bee859eb0","","","","","","","","","","","",""
"survey-html-form","1","5484","0.0-1.0","605de3af48d7a575adb95b09","64e77d7b61f440b60e28659d","64eca8e7ad32a79bee859eb0","3302","{""ID"":""605de3af48d7a575adb95b09""}","","","","","","","","","",""
"html-keyboard-response","2","25082","0.0-2.0","605de3af48d7a575adb95b09","64e77d7b61f440b60e28659d","64eca8e7ad32a79bee859eb0","19597"," ","<p style=""font-size: 15px;"">Before beginning, we ask that you read the consent information and confirm your agreement to participate in the experiment.</p>
      <p style=""font-size: 15px;""> We ask that you remember that this is a research project and that your participation is entirely voluntary. You can stop your participation at any time, without needing to provide any explanation. The study we're asking you to participate in aims at examining how readers process written words. You will be engaged in a session of apprximately 20 minutes, followed by a brief questionnaire. You will have the opportunity to take a few breaks during the experiment. You will be paid £4 for your participation, corresponding to a rate of £8/hour. While this experiment looks at cognitive faculties, this experiment doesn't constitute clinical proof of eventual pathologies.</p>
      <p style=""font-size: 15px;"">All of the information collected thanks to yours and others' participation will be held in a secure password-protected server, and will not be shared with anyone not authorised to view it. Your personal information will be kept with an arbitrary participant ID. Thanks to this data anonymity process, any researcher analysing the data won't be able to track the information back to a specific participant. Therefore, this process will make identifying you impossibile, even when results from the study will be published in scientific reviews, presented at congresses, or at any other public forum. More generally, the collected data will be treated in accordance with the laws on privacy and conformity to the Legislative Degree n. 196 ""Code regarding the protection of personal data"" of the 30th of June 2003 and to the European Regulation 2016/670 (General Data Protection Regulation - GDPR). The Data Protection Officer is Avv. Valentina Carollo, who can be contacted at the following email addresses: <a href=""mailto:dpo@sissa.it"">dpo@sissa.it</a> or <a href=""mailto:rpd@sissa.it"">rpd@sissa.it</a> - PEC: <a href=""mailto:protocollo@pec.sissa.it"">protocollo@pec.sissa.it</a>.</p>
      <p style=""font-size: 15px;""> Before expressing your consent to participate, we would like to remind you again that in case you need explanations on any aspect of the experimental procedure, the researcher is at your disposition (<a href=""mailto:aliebelt@sissa.it"">aliebelt@sissa.it</a>, <a href=""mailto:davide.crepaldi@sissa.it"">davide.crepaldi@sissa.it</a>).</p>
      <p style=""font-size: 15px;"">If you would like to download the informed consent form, you can do so here: <a href=""BASL-Informed_Consent.pdf"" download>informed consent form</a>.</p>
      <p style=""font-size: 15px;"">We ask that you press the spacebar to proceed to the consent section.</p>","","","","","","","","",""
"survey-html-form","3","50836","0.0-3.0","605de3af48d7a575adb95b09","64e77d7b61f440b60e28659d","64eca8e7ad32a79bee859eb0","25753","{""consent1"":""YES"",""consent2"":""YES"",""consent3"":""YES"",""consent4"":""YES"",""consent5"":""YES"",""consent6"":""YES""}","","","","","","","","","",""
"fullscreen","4","54414","0.0-4.0","605de3af48d7a575adb95b09","64e77d7b61f440b60e28659d","64eca8e7ad32a79bee859eb0","","","","true","","","","","","","",""
"html-keyboard-response","5","75842","0.0-5.0","605de3af48d7a575adb95b09","64e77d7b61f440b60e28659d","64eca8e7ad32a79bee859eb0","21428"," ","<p>Welcome, and thank you very much for your time!</p>
      <p>In this experiment, you'll be a language expert who's been asked to take a look at words that Earth has received in its first communication with aliens. Your task, in this first part of the experiment, is to pay close attention to the words you'll be shown; later, world leaders will ask you questions on what you saw. The words will be shown to you quite quickly; it seems that the aliens were in a hurry :-)</p>
      <p>Press the spacebar to continue.<p>","","","","","","","","",""
"html-keyboard-response","6","85546","0.0-6.0","605de3af48d7a575adb95b09","64e77d7b61f440b60e28659d","64eca8e7ad32a79bee859eb0","9703"," ","<p>Here is an example of the words you'll see:</p>
      <img src='esempio.png' height='400px'>
      <p>When you're ready to begin, press the spacebar.</p></div>","","","","","","","","",""
"html-keyboard-response","7","86548","0.0-7.0-0.0","605de3af48d7a575adb95b09","64e77d7b61f440b60e28659d","64eca8e7ad32a79bee859eb0","null","null","<p style=""font-size: 60px; font-family: BACS"">UdlGQrAm</p>","","","","","","","","",""
"html-keyboard-response","8","87562","0.0-7.0-0.1","605de3af48d7a575adb95b09","64e77d7b61f440b60e28659d","64eca8e7ad32a79bee859eb0","null","null","<p style=""font-size: 60px; font-family: BACS"">AYkEhkBD</p>","","","","","","","","",""
"html-keyboard-response","9","88575","0.0-7.0-0.2","605de3af48d7a575adb95b09","64e77d7b61f440b60e28659d","64eca8e7ad32a79bee859eb0","null","null","<p style=""font-size: 60px; font-family: BACS"">KTDTBCEM</p>","","","","","","","","",""
"html-keyboard-response","10","89577","0.0-7.0-0.3","605de3af48d7a575adb95b09","64e77d7b61f440b60e28659d","64eca8e7ad32a79bee859eb0","null","null","<p style=""font-size: 60px; font-family: BACS"">JmNkrAm</p>","","","","","","","","",""
"html-keyboard-response","11","90579","0.0-7.0-0.4","605de3af48d7a575adb95b09","64e77d7b61f440b60e28659d","64eca8e7ad32a79bee859eb0","null","null","<p style=""font-size: 60px; font-family: BACS"">lkAklGc</p>","","","","","","","","",""
"html-keyboard-response","12","91592","0.0-7.0-0.5","605de3af48d7a575adb95b09","64e77d7b61f440b60e28659d","64eca8e7ad32a79bee859eb0","null","null","<p style=""font-size: 60px; font-family: BACS"">cDOEBCEM</p>","","","","","","","","",""
"html-keyboard-response","13","92598","0.0-7.0-0.6","605de3af48d7a575adb95b09","64e77d7b61f440b60e28659d","64eca8e7ad32a79bee859eb0","null","null","<p style=""font-size: 60px; font-family: BACS"">AlQaQlGc</p>","","","","","","","","",""
"html-keyboard-response","14","93604","0.0-7.0-0.7","605de3af48d7a575adb95b09","64e77d7b61f440b60e28659d","64eca8e7ad32a79bee859eb0","null","null","<p style=""font-size: 60px; font-family: BACS"">DRPkYdBC</p>","","","","","","","","",""
"html-keyboard-response","15","94607","0.0-7.0-0.8","605de3af48d7a575adb95b09","64e77d7b61f440b60e28659d","64eca8e7ad32a79bee859eb0","null","null","<p style=""font-size: 60px; font-family: BACS"">cDOEBMKmY</p>","","","","","","","","",""
"html-keyboard-response","16","95608","0.0-7.0-0.9","605de3af48d7a575adb95b09","64e77d7b61f440b60e28659d","64eca8e7ad32a79bee859eb0","null","null","<p style=""font-size: 60px; font-family: BACS"">lZcuYUYa</p>","","","","","","","","",""
"html-keyboard-response","17","96612","0.0-7.0-0.10","605de3af48d7a575adb95b09","64e77d7b61f440b60e28659d","64eca8e7ad32a79bee859eb0","null","null","<p style=""font-size: 60px; font-family: BACS"">ArQuaQr</p>","","","","","","","","",""
"html-keyboard-response","18","97626","0.0-7.0-0.11","605de3af48d7a575adb95b09","64e77d7b61f440b60e28659d","64eca8e7ad32a79bee859eb0","null","null","<p style=""font-size: 60px; font-family: BACS"">hlbtbkBD</p>","","","","","","","","",""
"html-keyboard-response","19","98631","0.0-7.0-0.12","605de3af48d7a575adb95b09","64e77d7b61f440b60e28659d","64eca8e7ad32a79bee859eb0","null","null","<p style=""font-size: 60px; font-family: BACS"">cuOJblGc</p>","","","","","","","","",""
"html-keyboard-response","20","99634","0.0-7.0-0.13","605de3af48d7a575adb95b09","64e77d7b61f440b60e28659d","64eca8e7ad32a79bee859eb0","null","null","<p style=""font-size: 60px; font-family: BACS"">UdlGQaQr</p>","","","","","","","","",""
"html-keyboard-response","21","100636","0.0-7.0-0.14","605de3af48d7a575adb95b09","64e77d7b61f440b60e28659d","64eca8e7ad32a79bee859eb0","null","null","<p style=""font-size: 60px; font-family: BACS"">LAclAYUYa</p>","","","","","","","","",""
"html-keyboard-response","22","101649","0.0-7.0-0.15","605de3af48d7a575adb95b09","64e77d7b61f440b60e28659d","64eca8e7ad32a79bee859eb0","null","null","<p style=""font-size: 60px; font-family: BACS"">MlthKEdl</p>","","","","","","","","",""
"html-keyboard-response","23","102662","0.0-7.0-0.16","605de3af48d7a575adb95b09","64e77d7b61f440b60e28659d","64eca8e7ad32a79bee859eb0","null","null","<p style=""font-size: 60px; font-family: BACS"">UdlGQlGc</p>","","","","","","","","",""
"html-keyboard-response","24","103663","0.0-7.0-0.17","605de3af48d7a575adb95b09","64e77d7b61f440b60e28659d","64eca8e7ad32a79bee859eb0","null","null","<p style=""font-size: 60px; font-family: BACS"">cuOJbZckv</p>","","","","","","","","",""
"html-keyboard-response","25","104677","0.0-7.0-0.18","605de3af48d7a575adb95b09","64e77d7b61f440b60e28659d","64eca8e7ad32a79bee859eb0","null","null","<p style=""font-size: 60px; font-family: BACS"">kbmZOrAm</p>","","","","","","","","",""
"html-keyboard-response","26","105693","0.0-7.0-0.19","605de3af48d7a575adb95b09","64e77d7b61f440b60e28659d","64eca8e7ad32a79bee859eb0","null","null","<p style=""font-size: 60px; font-family: BACS"">cROMtdBC</p>","","","","","","","","",""
"html-keyboard-response","27","106706","0.0-7.0-0.20","605de3af48d7a575adb95b09","64e77d7b61f440b60e28659d","64eca8e7ad32a79bee859eb0","null","null","<p style=""font-size: 60px; font-family: BACS"">KTDTBKEdl</p>","","","","","","","","",""
"html-keyboard-response","28","107722","0.0-7.0-0.21","605de3af48d7a575adb95b09","64e77d7b61f440b60e28659d","64eca8e7ad32a79bee859eb0","null","null","<p style=""font-size: 60px; font-family: BACS"">cRElDMKmY</p>","","","","","","","","",""
"html-keyboard-response","29","108736","0.0-7.0-0.22","605de3af48d7a575adb95b09","64e77d7b61f440b60e28659d","64eca8e7ad32a79bee859eb0","null","null","<p style=""font-size: 60px; font-family: BACS"">vYLUrAm</p>","","","","","","","","",""
"html-keyboard-response","30","109752","0.0-7.0-0.23","605de3af48d7a575adb95b09","64e77d7b61f440b60e28659d","64eca8e7ad32a79bee859eb0","null","null","<p style=""font-size: 60px; font-family: BACS"">JmNkaQr</p>","","","","","","","","",""
"html-keyboard-response","31","110758","0.0-7.0-0.24","605de3af48d7a575adb95b09","64e77d7b61f440b60e28659d","64eca8e7ad32a79bee859eb0","null","null","<p style=""font-size: 60px; font-family: BACS"">lZcuZckv</p>","","","","","","","","",""
"html-keyboard-response","32","111772","0.0-7.0-0.25","605de3af48d7a575adb95b09","64e77d7b61f440b60e28659d","64eca8e7ad32a79bee859eb0","null","null","<p style=""font-size: 60px; font-family: BACS"">MlthCEM</p>","","","","","","","","",""
"html-keyboard-response","33","112786","0.0-7.0-0.26","605de3af48d7a575adb95b09","64e77d7b61f440b60e28659d","64eca8e7ad32a79bee859eb0","null","null","<p style=""font-size: 60px; font-family: BACS"">lZcurAm</p>","","","","","","","","",""
"html-keyboard-response","34","113789","0.0-7.0-0.27","605de3af48d7a575adb95b09","64e77d7b61f440b60e28659d","64eca8e7ad32a79bee859eb0","null","null","<p style=""font-size: 60px; font-family: BACS"">kbmZOaQr</p>","","","","","","","","",""
"html-keyboard-response","35","114799","0.0-7.0-0.28","605de3af48d7a575adb95b09","64e77d7b61f440b60e28659d","64eca8e7ad32a79bee859eb0","null","null","<p style=""font-size: 60px; font-family: BACS"">AYkEhMKmY</p>","","","","","","","","",""
"html-keyboard-response","36","115812","0.0-7.0-0.29","605de3af48d7a575adb95b09","64e77d7b61f440b60e28659d","64eca8e7ad32a79bee859eb0","null","null","<p style=""font-size: 60px; font-family: BACS"">vYLUlGc</p>","","","","","","","","",""
"html-keyboard-response","37","116825","0.0-7.0-0.30","605de3af48d7a575adb95b09","64e77d7b61f440b60e28659d","64eca8e7ad32a79bee859eb0","null","null","<p style=""font-size: 60px; font-family: BACS"">cuOJbYUYa</p>","","","","","","","","",""
"html-keyboard-response","38","117830","0.0-7.0-0.31","605de3af48d7a575adb95b09","64e77d7b61f440b60e28659d","64eca8e7ad32a79bee859eb0","null","null","<p style=""font-size: 60px; font-family: BACS"">cROMtCEM</p>","","","","","","","","",""
"html-keyboard-response","39","118841","0.0-7.0-0.32","605de3af48d7a575adb95b09","64e77d7b61f440b60e28659d","64eca8e7ad32a79bee859eb0","null","null","<p style=""font-size: 60px; font-family: BACS"">JmNkYUYa</p>","","","","","","","","",""
"html-keyboard-response","40","119854","0.0-7.0-0.33","605de3af48d7a575adb95b09","64e77d7b61f440b60e28659d","64eca8e7ad32a79bee859eb0","null","null","<p style=""font-size: 60px; font-family: BACS"">kbmZOlGc</p>","","","","","","","","",""
"html-keyboard-response","41","120866","0.0-7.0-0.34","605de3af48d7a575adb95b09","64e77d7b61f440b60e28659d","64eca8e7ad32a79bee859eb0","null","null","<p style=""font-size: 60px; font-family: BACS"">KTDTBMKmY</p>","","","","","","","","",""
"html-keyboard-response","42","121880","0.0-7.0-0.35","605de3af48d7a575adb95b09","64e77d7b61f440b60e28659d","64eca8e7ad32a79bee859eb0","null","null","<p style=""font-size: 60px; font-family: BACS"">MlthdBC</p>","","","","","","","","",""
"html-keyboard-response","43","122883","0.0-7.0-0.36","605de3af48d7a575adb95b09","64e77d7b61f440b60e28659d","64eca8e7ad32a79bee859eb0","null","null","<p style=""font-size: 60px; font-family: BACS"">cRElDKEdl</p>","","","","","","","","",""
"html-keyboard-response","44","123899","0.0-7.0-0.37","605de3af48d7a575adb95b09","64e77d7b61f440b60e28659d","64eca8e7ad32a79bee859eb0","null","null","<p style=""font-size: 60px; font-family: BACS"">MTdYkBD</p>","","","","","","","","",""
"html-keyboard-response","45","124914","0.0-7.0-0.38","605de3af48d7a575adb95b09","64e77d7b61f440b60e28659d","64eca8e7ad32a79bee859eb0","null","null","<p style=""font-size: 60px; font-family: BACS"">lZcuaQr</p>","","","","","","","","",""
"html-keyboard-response","46","125927","0.0-7.0-0.39","605de3af48d7a575adb95b09","64e77d7b61f440b60e28659d","64eca8e7ad32a79bee859eb0","null","null","<p style=""font-size: 60px; font-family: BACS"">ArQuYUYa</p>","","","","","","","","",""
"html-keyboard-response","47","126929","0.0-7.0-0.40","605de3af48d7a575adb95b09","64e77d7b61f440b60e28659d","64eca8e7ad32a79bee859eb0","null","null","<p style=""font-size: 60px; font-family: BACS"">DRPkYMKmY</p>","","","","","","","","",""
"html-keyboard-response","48","127945","0.0-7.0-0.41","605de3af48d7a575adb95b09","64e77d7b61f440b60e28659d","64eca8e7ad32a79bee859eb0","null","null","<p style=""font-size: 60px; font-family: BACS"">lkAkrAm</p>","","","","","","","","",""
"html-keyboard-response","49","128950","0.0-7.0-0.42","605de3af48d7a575adb95b09","64e77d7b61f440b60e28659d","64eca8e7ad32a79bee859eb0","null","null","<p style=""font-size: 60px; font-family: BACS"">DRPkYCEM</p>","","","","","","","","",""
"html-keyboard-response","50","129965","0.0-7.0-0.43","605de3af48d7a575adb95b09","64e77d7b61f440b60e28659d","64eca8e7ad32a79bee859eb0","null","null","<p style=""font-size: 60px; font-family: BACS"">AYkEhdBC</p>","","","","","","","","",""
"html-keyboard-response","51","130967","0.0-7.0-0.44","605de3af48d7a575adb95b09","64e77d7b61f440b60e28659d","64eca8e7ad32a79bee859eb0","null","null","<p style=""font-size: 60px; font-family: BACS"">cuOJbaQr</p>","","","","","","","","",""
"html-keyboard-response","52","131973","0.0-7.0-0.45","605de3af48d7a575adb95b09","64e77d7b61f440b60e28659d","64eca8e7ad32a79bee859eb0","null","null","<p style=""font-size: 60px; font-family: BACS"">LAclAlGc</p>","","","","","","","","",""
"html-keyboard-response","53","132984","0.0-7.0-0.46","605de3af48d7a575adb95b09","64e77d7b61f440b60e28659d","64eca8e7ad32a79bee859eb0","null","null","<p style=""font-size: 60px; font-family: BACS"">cRElDCEM</p>","","","","","","","","",""
"html-keyboard-response","54","133985","0.0-7.0-0.47","605de3af48d7a575adb95b09","64e77d7b61f440b60e28659d","64eca8e7ad32a79bee859eb0","null","null","<p style=""font-size: 60px; font-family: BACS"">lkAkaQr</p>","","","","","","","","",""
"html-keyboard-response","55","134987","0.0-7.0-0.48","605de3af48d7a575adb95b09","64e77d7b61f440b60e28659d","64eca8e7ad32a79bee859eb0","null","null","<p style=""font-size: 60px; font-family: BACS"">kRCkOdBC</p>","","","","","","","","",""
"html-keyboard-response","56","135988","0.0-7.0-0.49","605de3af48d7a575adb95b09","64e77d7b61f440b60e28659d","64eca8e7ad32a79bee859eb0","null","null","<p style=""font-size: 60px; font-family: BACS"">JmNkZckv</p>","","","","","","","","",""
"html-keyboard-response","57","136994","0.0-7.0-0.50","605de3af48d7a575adb95b09","64e77d7b61f440b60e28659d","64eca8e7ad32a79bee859eb0","null","null","<p style=""font-size: 60px; font-family: BACS"">hlbtbdBC</p>","","","","","","","","",""
"html-keyboard-response","58","137995","0.0-7.0-0.51","605de3af48d7a575adb95b09","64e77d7b61f440b60e28659d","64eca8e7ad32a79bee859eb0","null","null","<p style=""font-size: 60px; font-family: BACS"">LAclArAm</p>","","","","","","","","",""
"html-keyboard-response","59","139010","0.0-7.0-0.52","605de3af48d7a575adb95b09","64e77d7b61f440b60e28659d","64eca8e7ad32a79bee859eb0","null","null","<p style=""font-size: 60px; font-family: BACS"">ArQulGc</p>","","","","","","","","",""
"html-keyboard-response","60","140011","0.0-7.0-0.53","605de3af48d7a575adb95b09","64e77d7b61f440b60e28659d","64eca8e7ad32a79bee859eb0","null","null","<p style=""font-size: 60px; font-family: BACS"">hlbtbKEdl</p>","","","","","","","","",""
"html-keyboard-response","61","141013","0.0-7.0-0.54","605de3af48d7a575adb95b09","64e77d7b61f440b60e28659d","64eca8e7ad32a79bee859eb0","null","null","<p style=""font-size: 60px; font-family: BACS"">vYLUaQr</p>","","","","","","","","",""
"html-keyboard-response","62","142029","0.0-7.0-0.55","605de3af48d7a575adb95b09","64e77d7b61f440b60e28659d","64eca8e7ad32a79bee859eb0","null","null","<p style=""font-size: 60px; font-family: BACS"">KTDTBkBD</p>","","","","","","","","",""
"html-keyboard-response","63","143033","0.0-7.0-0.56","605de3af48d7a575adb95b09","64e77d7b61f440b60e28659d","64eca8e7ad32a79bee859eb0","null","null","<p style=""font-size: 60px; font-family: BACS"">cDOEBKEdl</p>","","","","","","","","",""
"html-keyboard-response","64","144044","0.0-7.0-0.57","605de3af48d7a575adb95b09","64e77d7b61f440b60e28659d","64eca8e7ad32a79bee859eb0","null","null","<p style=""font-size: 60px; font-family: BACS"">MlthkBD</p>","","","","","","","","",""
"html-keyboard-response","65","145051","0.0-7.0-0.58","605de3af48d7a575adb95b09","64e77d7b61f440b60e28659d","64eca8e7ad32a79bee859eb0","null","null","<p style=""font-size: 60px; font-family: BACS"">MTdYKEdl</p>","","","","","","","","",""
"html-keyboard-response","66","146066","0.0-7.0-0.59","605de3af48d7a575adb95b09","64e77d7b61f440b60e28659d","64eca8e7ad32a79bee859eb0","null","null","<p style=""font-size: 60px; font-family: BACS"">kRCkOMKmY</p>","","","","","","","","",""
"html-keyboard-response","67","147080","0.0-7.0-0.60","605de3af48d7a575adb95b09","64e77d7b61f440b60e28659d","64eca8e7ad32a79bee859eb0","null","null","<p style=""font-size: 60px; font-family: BACS"">AlQaQYUYa</p>","","","","","","","","",""
"html-keyboard-response","68","148094","0.0-7.0-0.61","605de3af48d7a575adb95b09","64e77d7b61f440b60e28659d","64eca8e7ad32a79bee859eb0","null","null","<p style=""font-size: 60px; font-family: BACS"">kRCkOkBD</p>","","","","","","","","",""
"html-keyboard-response","69","149110","0.0-7.0-0.62","605de3af48d7a575adb95b09","64e77d7b61f440b60e28659d","64eca8e7ad32a79bee859eb0","null","null","<p style=""font-size: 60px; font-family: BACS"">vYLUYUYa</p>","","","","","","","","",""
"html-keyboard-response","70","150125","0.0-7.0-0.63","605de3af48d7a575adb95b09","64e77d7b61f440b60e28659d","64eca8e7ad32a79bee859eb0","null","null","<p style=""font-size: 60px; font-family: BACS"">DRPkYkBD</p>","","","","","","","","",""
"html-keyboard-response","71","151128","0.0-7.0-0.64","605de3af48d7a575adb95b09","64e77d7b61f440b60e28659d","64eca8e7ad32a79bee859eb0","null","null","<p style=""font-size: 60px; font-family: BACS"">AYkEhKEdl</p>","","","","","","","","",""
"html-keyboard-response","72","152142","0.0-7.0-0.65","605de3af48d7a575adb95b09","64e77d7b61f440b60e28659d","64eca8e7ad32a79bee859eb0","null","null","<p style=""font-size: 60px; font-family: BACS"">AlQaQZckv</p>","","","","","","","","",""
"html-keyboard-response","73","153146","0.0-7.0-0.66","605de3af48d7a575adb95b09","64e77d7b61f440b60e28659d","64eca8e7ad32a79bee859eb0","null","null","<p style=""font-size: 60px; font-family: BACS"">cRElDdBC</p>","","","","","","","","",""
"html-keyboard-response","74","154161","0.0-7.0-0.67","605de3af48d7a575adb95b09","64e77d7b61f440b60e28659d","64eca8e7ad32a79bee859eb0","null","null","<p style=""font-size: 60px; font-family: BACS"">MTdYCEM</p>","","","","","","","","",""
"html-keyboard-response","75","155163","0.0-7.0-0.68","605de3af48d7a575adb95b09","64e77d7b61f440b60e28659d","64eca8e7ad32a79bee859eb0","null","null","<p style=""font-size: 60px; font-family: BACS"">ArQuZckv</p>","","","","","","","","",""
"html-keyboard-response","76","156179","0.0-7.0-0.69","605de3af48d7a575adb95b09","64e77d7b61f440b60e28659d","64eca8e7ad32a79bee859eb0","null","null","<p style=""font-size: 60px; font-family: BACS"">cROMtMKmY</p>","","","","","","","","",""
"html-keyboard-response","77","157181","0.0-7.0-0.70","605de3af48d7a575adb95b09","64e77d7b61f440b60e28659d","64eca8e7ad32a79bee859eb0","null","null","<p style=""font-size: 60px; font-family: BACS"">MTdYdBC</p>","","","","","","","","",""
"html-keyboard-response","78","158183","0.0-7.0-0.71","605de3af48d7a575adb95b09","64e77d7b61f440b60e28659d","64eca8e7ad32a79bee859eb0","null","null","<p style=""font-size: 60px; font-family: BACS"">hlbtbMKmY</p>","","","","","","","","",""
"html-keyboard-response","79","159196","0.0-7.0-0.72","605de3af48d7a575adb95b09","64e77d7b61f440b60e28659d","64eca8e7ad32a79bee859eb0","null","null","<p style=""font-size: 60px; font-family: BACS"">lkAkZckv</p>","","","","","","","","",""
"html-keyboard-response","80","160197","0.0-7.0-0.73","605de3af48d7a575adb95b09","64e77d7b61f440b60e28659d","64eca8e7ad32a79bee859eb0","null","null","<p style=""font-size: 60px; font-family: BACS"">cDOEBkBD</p>","","","","","","","","",""
"html-keyboard-response","81","161200","0.0-7.0-0.74","605de3af48d7a575adb95b09","64e77d7b61f440b60e28659d","64eca8e7ad32a79bee859eb0","null","null","<p style=""font-size: 60px; font-family: BACS"">AlQaQrAm</p>","","","","","","","","",""
"html-keyboard-response","82","162203","0.0-7.0-0.75","605de3af48d7a575adb95b09","64e77d7b61f440b60e28659d","64eca8e7ad32a79bee859eb0","null","null","<p style=""font-size: 60px; font-family: BACS"">cROMtKEdl</p>","","","","","","","","",""
"html-keyboard-response","83","163216","0.0-7.0-0.76","605de3af48d7a575adb95b09","64e77d7b61f440b60e28659d","64eca8e7ad32a79bee859eb0","null","null","<p style=""font-size: 60px; font-family: BACS"">UdlGQYUYa</p>","","","","","","","","",""
"html-keyboard-response","84","164229","0.0-7.0-0.77","605de3af48d7a575adb95b09","64e77d7b61f440b60e28659d","64eca8e7ad32a79bee859eb0","null","null","<p style=""font-size: 60px; font-family: BACS"">LAclAZckv</p>","","","","","","","","",""
"html-keyboard-response","85","165243","0.0-7.0-0.78","605de3af48d7a575adb95b09","64e77d7b61f440b60e28659d","64eca8e7ad32a79bee859eb0","null","null","<p style=""font-size: 60px; font-family: BACS"">kRCkOCEM</p>","","","","","","","","",""
"html-keyboard-response","86","166258","0.0-7.0-0.79","605de3af48d7a575adb95b09","64e77d7b61f440b60e28659d","64eca8e7ad32a79bee859eb0","null","null","<p style=""font-size: 60px; font-family: BACS"">kbmZOZckv</p>","","","","","","","","",""
"html-keyboard-response","87","179546","0.0-8.0","605de3af48d7a575adb95b09","64e77d7b61f440b60e28659d","64eca8e7ad32a79bee859eb0","13288"," ","<p>Great, you've seen the first block of words. You may now take a short break.</p>
      <p>Press the spacebar when you're ready to continue.</p>","","","","","","","","",""
"html-keyboard-response","88","180560","0.0-9.0-0.0","605de3af48d7a575adb95b09","64e77d7b61f440b60e28659d","64eca8e7ad32a79bee859eb0","null","null","<p style=""font-size: 60px; font-family: BACS"">lkAkZckv</p>","","","","","","","","",""
"html-keyboard-response","89","181574","0.0-9.0-0.1","605de3af48d7a575adb95b09","64e77d7b61f440b60e28659d","64eca8e7ad32a79bee859eb0","null","null","<p style=""font-size: 60px; font-family: BACS"">UdlGQrAm</p>","","","","","","","","",""
"html-keyboard-response","90","182585","0.0-9.0-0.2","605de3af48d7a575adb95b09","64e77d7b61f440b60e28659d","64eca8e7ad32a79bee859eb0","null","null","<p style=""font-size: 60px; font-family: BACS"">JmNkZckv</p>","","","","","","","","",""
"html-keyboard-response","91","183593","0.0-9.0-0.3","605de3af48d7a575adb95b09","64e77d7b61f440b60e28659d","64eca8e7ad32a79bee859eb0","null","null","<p style=""font-size: 60px; font-family: BACS"">vYLUrAm</p>","","","","","","","","",""
"html-keyboard-response","92","184594","0.0-9.0-0.4","605de3af48d7a575adb95b09","64e77d7b61f440b60e28659d","64eca8e7ad32a79bee859eb0","null","null","<p style=""font-size: 60px; font-family: BACS"">cuOJbZckv</p>","","","","","","","","",""
"html-keyboard-response","93","185599","0.0-9.0-0.5","605de3af48d7a575adb95b09","64e77d7b61f440b60e28659d","64eca8e7ad32a79bee859eb0","null","null","<p style=""font-size: 60px; font-family: BACS"">lZcuYUYa</p>","","","","","","","","",""
"html-keyboard-response","94","186599","0.0-9.0-0.6","605de3af48d7a575adb95b09","64e77d7b61f440b60e28659d","64eca8e7ad32a79bee859eb0","null","null","<p style=""font-size: 60px; font-family: BACS"">cROMtdBC</p>","","","","","","","","",""
"html-keyboard-response","95","187612","0.0-9.0-0.7","605de3af48d7a575adb95b09","64e77d7b61f440b60e28659d","64eca8e7ad32a79bee859eb0","null","null","<p style=""font-size: 60px; font-family: BACS"">cDOEBMKmY</p>","","","","","","","","",""
"html-keyboard-response","96","188628","0.0-9.0-0.8","605de3af48d7a575adb95b09","64e77d7b61f440b60e28659d","64eca8e7ad32a79bee859eb0","null","null","<p style=""font-size: 60px; font-family: BACS"">LAclAYUYa</p>","","","","","","","","",""
"html-keyboard-response","97","189641","0.0-9.0-0.9","605de3af48d7a575adb95b09","64e77d7b61f440b60e28659d","64eca8e7ad32a79bee859eb0","null","null","<p style=""font-size: 60px; font-family: BACS"">hlbtbMKmY</p>","","","","","","","","",""
"html-keyboard-response","98","190655","0.0-9.0-0.10","605de3af48d7a575adb95b09","64e77d7b61f440b60e28659d","64eca8e7ad32a79bee859eb0","null","null","<p style=""font-size: 60px; font-family: BACS"">KTDTBkBD</p>","","","","","","","","",""
"html-keyboard-response","99","191659","0.0-9.0-0.11","605de3af48d7a575adb95b09","64e77d7b61f440b60e28659d","64eca8e7ad32a79bee859eb0","null","null","<p style=""font-size: 60px; font-family: BACS"">UdlGQYUYa</p>","","","","","","","","",""
"html-keyboard-response","100","192659","0.0-9.0-0.12","605de3af48d7a575adb95b09","64e77d7b61f440b60e28659d","64eca8e7ad32a79bee859eb0","null","null","<p style=""font-size: 60px; font-family: BACS"">AlQaQZckv</p>","","","","","","","","",""
"html-keyboard-response","101","193661","0.0-9.0-0.13","605de3af48d7a575adb95b09","64e77d7b61f440b60e28659d","64eca8e7ad32a79bee859eb0","null","null","<p style=""font-size: 60px; font-family: BACS"">cROMtKEdl</p>","","","","","","","","",""
"html-keyboard-response","102","194663","0.0-9.0-0.14","605de3af48d7a575adb95b09","64e77d7b61f440b60e28659d","64eca8e7ad32a79bee859eb0","null","null","<p style=""font-size: 60px; font-family: BACS"">kbmZOlGc</p>","","","","","","","","",""
"html-keyboard-response","103","195665","0.0-9.0-0.15","605de3af48d7a575adb95b09","64e77d7b61f440b60e28659d","64eca8e7ad32a79bee859eb0","null","null","<p style=""font-size: 60px; font-family: BACS"">MlthKEdl</p>","","","","","","","","",""
"html-keyboard-response","104","196680","0.0-9.0-0.16","605de3af48d7a575adb95b09","64e77d7b61f440b60e28659d","64eca8e7ad32a79bee859eb0","null","null","<p style=""font-size: 60px; font-family: BACS"">UdlGQaQr</p>","","","","","","","","",""
"html-keyboard-response","105","197694","0.0-9.0-0.17","605de3af48d7a575adb95b09","64e77d7b61f440b60e28659d","64eca8e7ad32a79bee859eb0","null","null","<p style=""font-size: 60px; font-family: BACS"">AYkEhkBD</p>","","","","","","","","",""
"html-keyboard-response","106","198699","0.0-9.0-0.18","605de3af48d7a575adb95b09","64e77d7b61f440b60e28659d","64eca8e7ad32a79bee859eb0","null","null","<p style=""font-size: 60px; font-family: BACS"">vYLUaQr</p>","","","","","","","","",""
"html-keyboard-response","107","199702","0.0-9.0-0.19","605de3af48d7a575adb95b09","64e77d7b61f440b60e28659d","64eca8e7ad32a79bee859eb0","null","null","<p style=""font-size: 60px; font-family: BACS"">cDOEBCEM</p>","","","","","","","","",""
"html-keyboard-response","108","200706","0.0-9.0-0.20","605de3af48d7a575adb95b09","64e77d7b61f440b60e28659d","64eca8e7ad32a79bee859eb0","null","null","<p style=""font-size: 60px; font-family: BACS"">MTdYkBD</p>","","","","","","","","",""
"html-keyboard-response","109","201710","0.0-9.0-0.21","605de3af48d7a575adb95b09","64e77d7b61f440b60e28659d","64eca8e7ad32a79bee859eb0","null","null","<p style=""font-size: 60px; font-family: BACS"">kRCkOMKmY</p>","","","","","","","","",""
"html-keyboard-response","110","202712","0.0-9.0-0.22","605de3af48d7a575adb95b09","64e77d7b61f440b60e28659d","64eca8e7ad32a79bee859eb0","null","null","<p style=""font-size: 60px; font-family: BACS"">KTDTBCEM</p>","","","","","","","","",""
"html-keyboard-response","111","203718","0.0-9.0-0.23","605de3af48d7a575adb95b09","64e77d7b61f440b60e28659d","64eca8e7ad32a79bee859eb0","null","null","<p style=""font-size: 60px; font-family: BACS"">AYkEhMKmY</p>","","","","","","","","",""
"html-keyboard-response","112","204726","0.0-9.0-0.24","605de3af48d7a575adb95b09","64e77d7b61f440b60e28659d","64eca8e7ad32a79bee859eb0","null","null","<p style=""font-size: 60px; font-family: BACS"">LAclAlGc</p>","","","","","","","","",""
"html-keyboard-response","113","205740","0.0-9.0-0.25","605de3af48d7a575adb95b09","64e77d7b61f440b60e28659d","64eca8e7ad32a79bee859eb0","null","null","<p style=""font-size: 60px; font-family: BACS"">cROMtCEM</p>","","","","","","","","",""
"html-keyboard-response","114","206747","0.0-9.0-0.26","605de3af48d7a575adb95b09","64e77d7b61f440b60e28659d","64eca8e7ad32a79bee859eb0","null","null","<p style=""font-size: 60px; font-family: BACS"">AlQaQlGc</p>","","","","","","","","",""
"html-keyboard-response","115","207762","0.0-9.0-0.27","605de3af48d7a575adb95b09","64e77d7b61f440b60e28659d","64eca8e7ad32a79bee859eb0","null","null","<p style=""font-size: 60px; font-family: BACS"">JmNkrAm</p>","","","","","","","","",""
"html-keyboard-response","116","208763","0.0-9.0-0.28","605de3af48d7a575adb95b09","64e77d7b61f440b60e28659d","64eca8e7ad32a79bee859eb0","null","null","<p style=""font-size: 60px; font-family: BACS"">MlthkBD</p>","","","","","","","","",""
"html-keyboard-response","117","209769","0.0-9.0-0.29","605de3af48d7a575adb95b09","64e77d7b61f440b60e28659d","64eca8e7ad32a79bee859eb0","null","null","<p style=""font-size: 60px; font-family: BACS"">DRPkYCEM</p>","","","","","","","","",""
"html-keyboard-response","118","210784","0.0-9.0-0.30","605de3af48d7a575adb95b09","64e77d7b61f440b60e28659d","64eca8e7ad32a79bee859eb0","null","null","<p style=""font-size: 60px; font-family: BACS"">vYLUlGc</p>","","","","","","","","",""
"html-keyboard-response","119","211786","0.0-9.0-0.31","605de3af48d7a575adb95b09","64e77d7b61f440b60e28659d","64eca8e7ad32a79bee859eb0","null","null","<p style=""font-size: 60px; font-family: BACS"">DRPkYdBC</p>","","","","","","","","",""
"html-keyboard-response","120","212793","0.0-9.0-0.32","605de3af48d7a575adb95b09","64e77d7b61f440b60e28659d","64eca8e7ad32a79bee859eb0","null","null","<p style=""font-size: 60px; font-family: BACS"">kbmZOrAm</p>","","","","","","","","",""
"html-keyboard-response","121","213805","0.0-9.0-0.33","605de3af48d7a575adb95b09","64e77d7b61f440b60e28659d","64eca8e7ad32a79bee859eb0","null","null","<p style=""font-size: 60px; font-family: BACS"">cRElDKEdl</p>","","","","","","","","",""
"html-keyboard-response","122","214818","0.0-9.0-0.34","605de3af48d7a575adb95b09","64e77d7b61f440b60e28659d","64eca8e7ad32a79bee859eb0","null","null","<p style=""font-size: 60px; font-family: BACS"">cuOJbaQr</p>","","","","","","","","",""
"html-keyboard-response","123","215823","0.0-9.0-0.35","605de3af48d7a575adb95b09","64e77d7b61f440b60e28659d","64eca8e7ad32a79bee859eb0","null","null","<p style=""font-size: 60px; font-family: BACS"">AlQaQrAm</p>","","","","","","","","",""
"html-keyboard-response","124","216837","0.0-9.0-0.36","605de3af48d7a575adb95b09","64e77d7b61f440b60e28659d","64eca8e7ad32a79bee859eb0","null","null","<p style=""font-size: 60px; font-family: BACS"">cROMtMKmY</p>","","","","","","","","",""
"html-keyboard-response","125","217845","0.0-9.0-0.37","605de3af48d7a575adb95b09","64e77d7b61f440b60e28659d","64eca8e7ad32a79bee859eb0","null","null","<p style=""font-size: 60px; font-family: BACS"">AlQaQYUYa</p>","","","","","","","","",""
"html-keyboard-response","126","218858","0.0-9.0-0.38","605de3af48d7a575adb95b09","64e77d7b61f440b60e28659d","64eca8e7ad32a79bee859eb0","null","null","<p style=""font-size: 60px; font-family: BACS"">hlbtbdBC</p>","","","","","","","","",""
"html-keyboard-response","127","219860","0.0-9.0-0.39","605de3af48d7a575adb95b09","64e77d7b61f440b60e28659d","64eca8e7ad32a79bee859eb0","null","null","<p style=""font-size: 60px; font-family: BACS"">ArQulGc</p>","","","","","","","","",""
"html-keyboard-response","128","220863","0.0-9.0-0.40","605de3af48d7a575adb95b09","64e77d7b61f440b60e28659d","64eca8e7ad32a79bee859eb0","null","null","<p style=""font-size: 60px; font-family: BACS"">DRPkYMKmY</p>","","","","","","","","",""
"html-keyboard-response","129","221876","0.0-9.0-0.41","605de3af48d7a575adb95b09","64e77d7b61f440b60e28659d","64eca8e7ad32a79bee859eb0","null","null","<p style=""font-size: 60px; font-family: BACS"">cRElDdBC</p>","","","","","","","","",""
"html-keyboard-response","130","222888","0.0-9.0-0.42","605de3af48d7a575adb95b09","64e77d7b61f440b60e28659d","64eca8e7ad32a79bee859eb0","null","null","<p style=""font-size: 60px; font-family: BACS"">DRPkYkBD</p>","","","","","","","","",""
"html-keyboard-response","131","223903","0.0-9.0-0.43","605de3af48d7a575adb95b09","64e77d7b61f440b60e28659d","64eca8e7ad32a79bee859eb0","null","null","<p style=""font-size: 60px; font-family: BACS"">LAclArAm</p>","","","","","","","","",""
"html-keyboard-response","132","224907","0.0-9.0-0.44","605de3af48d7a575adb95b09","64e77d7b61f440b60e28659d","64eca8e7ad32a79bee859eb0","null","null","<p style=""font-size: 60px; font-family: BACS"">lkAkaQr</p>","","","","","","","","",""
"html-keyboard-response","133","225914","0.0-9.0-0.45","605de3af48d7a575adb95b09","64e77d7b61f440b60e28659d","64eca8e7ad32a79bee859eb0","null","null","<p style=""font-size: 60px; font-family: BACS"">cDOEBKEdl</p>","","","","","","","","",""
"html-keyboard-response","134","226917","0.0-9.0-0.46","605de3af48d7a575adb95b09","64e77d7b61f440b60e28659d","64eca8e7ad32a79bee859eb0","null","null","<p style=""font-size: 60px; font-family: BACS"">MlthdBC</p>","","","","","","","","",""
"html-keyboard-response","135","227917","0.0-9.0-0.47","605de3af48d7a575adb95b09","64e77d7b61f440b60e28659d","64eca8e7ad32a79bee859eb0","null","null","<p style=""font-size: 60px; font-family: BACS"">MTdYKEdl</p>","","","","","","","","",""
"html-keyboard-response","136","228933","0.0-9.0-0.48","605de3af48d7a575adb95b09","64e77d7b61f440b60e28659d","64eca8e7ad32a79bee859eb0","null","null","<p style=""font-size: 60px; font-family: BACS"">kbmZOZckv</p>","","","","","","","","",""
"html-keyboard-response","137","229936","0.0-9.0-0.49","605de3af48d7a575adb95b09","64e77d7b61f440b60e28659d","64eca8e7ad32a79bee859eb0","null","null","<p style=""font-size: 60px; font-family: BACS"">JmNkaQr</p>","","","","","","","","",""
"html-keyboard-response","138","230942","0.0-9.0-0.50","605de3af48d7a575adb95b09","64e77d7b61f440b60e28659d","64eca8e7ad32a79bee859eb0","null","null","<p style=""font-size: 60px; font-family: BACS"">vYLUYUYa</p>","","","","","","","","",""
"html-keyboard-response","139","231959","0.0-9.0-0.51","605de3af48d7a575adb95b09","64e77d7b61f440b60e28659d","64eca8e7ad32a79bee859eb0","null","null","<p style=""font-size: 60px; font-family: BACS"">cRElDCEM</p>","","","","","","","","",""
"html-keyboard-response","140","232974","0.0-9.0-0.52","605de3af48d7a575adb95b09","64e77d7b61f440b60e28659d","64eca8e7ad32a79bee859eb0","null","null","<p style=""font-size: 60px; font-family: BACS"">cuOJbYUYa</p>","","","","","","","","",""
"html-keyboard-response","141","233977","0.0-9.0-0.53","605de3af48d7a575adb95b09","64e77d7b61f440b60e28659d","64eca8e7ad32a79bee859eb0","null","null","<p style=""font-size: 60px; font-family: BACS"">LAclAZckv</p>","","","","","","","","",""
"html-keyboard-response","142","234993","0.0-9.0-0.54","605de3af48d7a575adb95b09","64e77d7b61f440b60e28659d","64eca8e7ad32a79bee859eb0","null","null","<p style=""font-size: 60px; font-family: BACS"">MlthCEM</p>","","","","","","","","",""
"html-keyboard-response","143","235994","0.0-9.0-0.55","605de3af48d7a575adb95b09","64e77d7b61f440b60e28659d","64eca8e7ad32a79bee859eb0","null","null","<p style=""font-size: 60px; font-family: BACS"">kRCkOdBC</p>","","","","","","","","",""
"html-keyboard-response","144","237001","0.0-9.0-0.56","605de3af48d7a575adb95b09","64e77d7b61f440b60e28659d","64eca8e7ad32a79bee859eb0","null","null","<p style=""font-size: 60px; font-family: BACS"">lkAklGc</p>","","","","","","","","",""
"html-keyboard-response","145","238014","0.0-9.0-0.57","605de3af48d7a575adb95b09","64e77d7b61f440b60e28659d","64eca8e7ad32a79bee859eb0","null","null","<p style=""font-size: 60px; font-family: BACS"">kRCkOCEM</p>","","","","","","","","",""
"html-keyboard-response","146","239027","0.0-9.0-0.58","605de3af48d7a575adb95b09","64e77d7b61f440b60e28659d","64eca8e7ad32a79bee859eb0","null","null","<p style=""font-size: 60px; font-family: BACS"">AYkEhdBC</p>","","","","","","","","",""
"html-keyboard-response","147","240028","0.0-9.0-0.59","605de3af48d7a575adb95b09","64e77d7b61f440b60e28659d","64eca8e7ad32a79bee859eb0","null","null","<p style=""font-size: 60px; font-family: BACS"">JmNkYUYa</p>","","","","","","","","",""
"html-keyboard-response","148","241041","0.0-9.0-0.60","605de3af48d7a575adb95b09","64e77d7b61f440b60e28659d","64eca8e7ad32a79bee859eb0","null","null","<p style=""font-size: 60px; font-family: BACS"">hlbtbkBD</p>","","","","","","","","",""
"html-keyboard-response","149","242050","0.0-9.0-0.61","605de3af48d7a575adb95b09","64e77d7b61f440b60e28659d","64eca8e7ad32a79bee859eb0","null","null","<p style=""font-size: 60px; font-family: BACS"">cuOJblGc</p>","","","","","","","","",""
"html-keyboard-response","150","243065","0.0-9.0-0.62","605de3af48d7a575adb95b09","64e77d7b61f440b60e28659d","64eca8e7ad32a79bee859eb0","null","null","<p style=""font-size: 60px; font-family: BACS"">cDOEBkBD</p>","","","","","","","","",""
"html-keyboard-response","151","244076","0.0-9.0-0.63","605de3af48d7a575adb95b09","64e77d7b61f440b60e28659d","64eca8e7ad32a79bee859eb0","null","null","<p style=""font-size: 60px; font-family: BACS"">lkAkrAm</p>","","","","","","","","",""
"html-keyboard-response","152","245091","0.0-9.0-0.64","605de3af48d7a575adb95b09","64e77d7b61f440b60e28659d","64eca8e7ad32a79bee859eb0","null","null","<p style=""font-size: 60px; font-family: BACS"">ArQuZckv</p>","","","","","","","","",""
"html-keyboard-response","153","246096","0.0-9.0-0.65","605de3af48d7a575adb95b09","64e77d7b61f440b60e28659d","64eca8e7ad32a79bee859eb0","null","null","<p style=""font-size: 60px; font-family: BACS"">AYkEhKEdl</p>","","","","","","","","",""
"html-keyboard-response","154","247098","0.0-9.0-0.66","605de3af48d7a575adb95b09","64e77d7b61f440b60e28659d","64eca8e7ad32a79bee859eb0","null","null","<p style=""font-size: 60px; font-family: BACS"">lZcurAm</p>","","","","","","","","",""
"html-keyboard-response","155","248099","0.0-9.0-0.67","605de3af48d7a575adb95b09","64e77d7b61f440b60e28659d","64eca8e7ad32a79bee859eb0","null","null","<p style=""font-size: 60px; font-family: BACS"">UdlGQlGc</p>","","","","","","","","",""
"html-keyboard-response","156","249113","0.0-9.0-0.68","605de3af48d7a575adb95b09","64e77d7b61f440b60e28659d","64eca8e7ad32a79bee859eb0","null","null","<p style=""font-size: 60px; font-family: BACS"">KTDTBMKmY</p>","","","","","","","","",""
"html-keyboard-response","157","250130","0.0-9.0-0.69","605de3af48d7a575adb95b09","64e77d7b61f440b60e28659d","64eca8e7ad32a79bee859eb0","null","null","<p style=""font-size: 60px; font-family: BACS"">ArQuYUYa</p>","","","","","","","","",""
"html-keyboard-response","158","251136","0.0-9.0-0.70","605de3af48d7a575adb95b09","64e77d7b61f440b60e28659d","64eca8e7ad32a79bee859eb0","null","null","<p style=""font-size: 60px; font-family: BACS"">KTDTBKEdl</p>","","","","","","","","",""
"html-keyboard-response","159","252152","0.0-9.0-0.71","605de3af48d7a575adb95b09","64e77d7b61f440b60e28659d","64eca8e7ad32a79bee859eb0","null","null","<p style=""font-size: 60px; font-family: BACS"">ArQuaQr</p>","","","","","","","","",""
"html-keyboard-response","160","253166","0.0-9.0-0.72","605de3af48d7a575adb95b09","64e77d7b61f440b60e28659d","64eca8e7ad32a79bee859eb0","null","null","<p style=""font-size: 60px; font-family: BACS"">hlbtbKEdl</p>","","","","","","","","",""
"html-keyboard-response","161","254168","0.0-9.0-0.73","605de3af48d7a575adb95b09","64e77d7b61f440b60e28659d","64eca8e7ad32a79bee859eb0","null","null","<p style=""font-size: 60px; font-family: BACS"">cRElDMKmY</p>","","","","","","","","",""
"html-keyboard-response","162","255175","0.0-9.0-0.74","605de3af48d7a575adb95b09","64e77d7b61f440b60e28659d","64eca8e7ad32a79bee859eb0","null","null","<p style=""font-size: 60px; font-family: BACS"">MTdYdBC</p>","","","","","","","","",""
"html-keyboard-response","163","256177","0.0-9.0-0.75","605de3af48d7a575adb95b09","64e77d7b61f440b60e28659d","64eca8e7ad32a79bee859eb0","null","null","<p style=""font-size: 60px; font-family: BACS"">lZcuaQr</p>","","","","","","","","",""
"html-keyboard-response","164","257179","0.0-9.0-0.76","605de3af48d7a575adb95b09","64e77d7b61f440b60e28659d","64eca8e7ad32a79bee859eb0","null","null","<p style=""font-size: 60px; font-family: BACS"">kRCkOkBD</p>","","","","","","","","",""
"html-keyboard-response","165","258181","0.0-9.0-0.77","605de3af48d7a575adb95b09","64e77d7b61f440b60e28659d","64eca8e7ad32a79bee859eb0","null","null","<p style=""font-size: 60px; font-family: BACS"">MTdYCEM</p>","","","","","","","","",""
"html-keyboard-response","166","259184","0.0-9.0-0.78","605de3af48d7a575adb95b09","64e77d7b61f440b60e28659d","64eca8e7ad32a79bee859eb0","null","null","<p style=""font-size: 60px; font-family: BACS"">lZcuZckv</p>","","","","","","","","",""
"html-keyboard-response","167","260199","0.0-9.0-0.79","605de3af48d7a575adb95b09","64e77d7b61f440b60e28659d","64eca8e7ad32a79bee859eb0","null","null","<p style=""font-size: 60px; font-family: BACS"">kbmZOaQr</p>","","","","","","","","",""
"html-keyboard-response","168","263898","0.0-10.0","605de3af48d7a575adb95b09","64e77d7b61f440b60e28659d","64eca8e7ad32a79bee859eb0","3699"," ","<p>Great, you've seen the second block of words. You may now take a short break.</p>
      <p>Press the spacebar when you're ready to continue.</p>","","","","","","","","",""
"html-keyboard-response","169","264902","0.0-11.0-0.0","605de3af48d7a575adb95b09","64e77d7b61f440b60e28659d","64eca8e7ad32a79bee859eb0","null","null","<p style=""font-size: 60px; font-family: BACS"">LAclAZckv</p>","","","","","","","","",""
"html-keyboard-response","170","265911","0.0-11.0-0.1","605de3af48d7a575adb95b09","64e77d7b61f440b60e28659d","64eca8e7ad32a79bee859eb0","null","null","<p style=""font-size: 60px; font-family: BACS"">KTDTBMKmY</p>","","","","","","","","",""
"html-keyboard-response","171","266926","0.0-11.0-0.2","605de3af48d7a575adb95b09","64e77d7b61f440b60e28659d","64eca8e7ad32a79bee859eb0","null","null","<p style=""font-size: 60px; font-family: BACS"">cRElDKEdl</p>","","","","","","","","",""
"html-keyboard-response","172","267931","0.0-11.0-0.3","605de3af48d7a575adb95b09","64e77d7b61f440b60e28659d","64eca8e7ad32a79bee859eb0","null","null","<p style=""font-size: 60px; font-family: BACS"">kbmZOlGc</p>","","","","","","","","",""
"html-keyboard-response","173","268933","0.0-11.0-0.4","605de3af48d7a575adb95b09","64e77d7b61f440b60e28659d","64eca8e7ad32a79bee859eb0","null","null","<p style=""font-size: 60px; font-family: BACS"">AlQaQYUYa</p>","","","","","","","","",""
"html-keyboard-response","174","269947","0.0-11.0-0.5","605de3af48d7a575adb95b09","64e77d7b61f440b60e28659d","64eca8e7ad32a79bee859eb0","null","null","<p style=""font-size: 60px; font-family: BACS"">MlthCEM</p>","","","","","","","","",""
"html-keyboard-response","175","270950","0.0-11.0-0.6","605de3af48d7a575adb95b09","64e77d7b61f440b60e28659d","64eca8e7ad32a79bee859eb0","null","null","<p style=""font-size: 60px; font-family: BACS"">cRElDMKmY</p>","","","","","","","","",""
"html-keyboard-response","176","271962","0.0-11.0-0.7","605de3af48d7a575adb95b09","64e77d7b61f440b60e28659d","64eca8e7ad32a79bee859eb0","null","null","<p style=""font-size: 60px; font-family: BACS"">JmNkrAm</p>","","","","","","","","",""
"html-keyboard-response","177","272966","0.0-11.0-0.8","605de3af48d7a575adb95b09","64e77d7b61f440b60e28659d","64eca8e7ad32a79bee859eb0","null","null","<p style=""font-size: 60px; font-family: BACS"">cROMtdBC</p>","","","","","","","","",""
"html-keyboard-response","178","273982","0.0-11.0-0.9","605de3af48d7a575adb95b09","64e77d7b61f440b60e28659d","64eca8e7ad32a79bee859eb0","null","null","<p style=""font-size: 60px; font-family: BACS"">vYLUYUYa</p>","","","","","","","","",""
"html-keyboard-response","179","274984","0.0-11.0-0.10","605de3af48d7a575adb95b09","64e77d7b61f440b60e28659d","64eca8e7ad32a79bee859eb0","null","null","<p style=""font-size: 60px; font-family: BACS"">kbmZOZckv</p>","","","","","","","","",""
"html-keyboard-response","180","275999","0.0-11.0-0.11","605de3af48d7a575adb95b09","64e77d7b61f440b60e28659d","64eca8e7ad32a79bee859eb0","null","null","<p style=""font-size: 60px; font-family: BACS"">lZcurAm</p>","","","","","","","","",""
"html-keyboard-response","181","277015","0.0-11.0-0.12","605de3af48d7a575adb95b09","64e77d7b61f440b60e28659d","64eca8e7ad32a79bee859eb0","null","null","<p style=""font-size: 60px; font-family: BACS"">cDOEBCEM</p>","","","","","","","","",""
"html-keyboard-response","182","278031","0.0-11.0-0.13","605de3af48d7a575adb95b09","64e77d7b61f440b60e28659d","64eca8e7ad32a79bee859eb0","null","null","<p style=""font-size: 60px; font-family: BACS"">vYLUaQr</p>","","","","","","","","",""
"html-keyboard-response","183","279035","0.0-11.0-0.14","605de3af48d7a575adb95b09","64e77d7b61f440b60e28659d","64eca8e7ad32a79bee859eb0","null","null","<p style=""font-size: 60px; font-family: BACS"">DRPkYkBD</p>","","","","","","","","",""
"html-keyboard-response","184","280038","0.0-11.0-0.15","605de3af48d7a575adb95b09","64e77d7b61f440b60e28659d","64eca8e7ad32a79bee859eb0","null","null","<p style=""font-size: 60px; font-family: BACS"">cRElDdBC</p>","","","","","","","","",""
"html-keyboard-response","185","281038","0.0-11.0-0.16","605de3af48d7a575adb95b09","64e77d7b61f440b60e28659d","64eca8e7ad32a79bee859eb0","null","null","<p style=""font-size: 60px; font-family: BACS"">lZcuZckv</p>","","","","","","","","",""
"html-keyboard-response","186","282041","0.0-11.0-0.17","605de3af48d7a575adb95b09","64e77d7b61f440b60e28659d","64eca8e7ad32a79bee859eb0","null","null","<p style=""font-size: 60px; font-family: BACS"">kbmZOaQr</p>","","","","","","","","",""
"html-keyboard-response","187","283057","0.0-11.0-0.18","605de3af48d7a575adb95b09","64e77d7b61f440b60e28659d","64eca8e7ad32a79bee859eb0","null","null","<p style=""font-size: 60px; font-family: BACS"">lkAklGc</p>","","","","","","","","",""
"html-keyboard-response","188","284071","0.0-11.0-0.19","605de3af48d7a575adb95b09","64e77d7b61f440b60e28659d","64eca8e7ad32a79bee859eb0","null","null","<p style=""font-size: 60px; font-family: BACS"">kRCkOdBC</p>","","","","","","","","",""
"html-keyboard-response","189","285074","0.0-11.0-0.20","605de3af48d7a575adb95b09","64e77d7b61f440b60e28659d","64eca8e7ad32a79bee859eb0","null","null","<p style=""font-size: 60px; font-family: BACS"">UdlGQaQr</p>","","","","","","","","",""
"html-keyboard-response","190","286087","0.0-11.0-0.21","605de3af48d7a575adb95b09","64e77d7b61f440b60e28659d","64eca8e7ad32a79bee859eb0","null","null","<p style=""font-size: 60px; font-family: BACS"">cuOJbZckv</p>","","","","","","","","",""
"html-keyboard-response","191","287088","0.0-11.0-0.22","605de3af48d7a575adb95b09","64e77d7b61f440b60e28659d","64eca8e7ad32a79bee859eb0","null","null","<p style=""font-size: 60px; font-family: BACS"">cDOEBKEdl</p>","","","","","","","","",""
"html-keyboard-response","192","288090","0.0-11.0-0.23","605de3af48d7a575adb95b09","64e77d7b61f440b60e28659d","64eca8e7ad32a79bee859eb0","null","null","<p style=""font-size: 60px; font-family: BACS"">AYkEhMKmY</p>","","","","","","","","",""
"html-keyboard-response","193","289103","0.0-11.0-0.24","605de3af48d7a575adb95b09","64e77d7b61f440b60e28659d","64eca8e7ad32a79bee859eb0","null","null","<p style=""font-size: 60px; font-family: BACS"">UdlGQlGc</p>","","","","","","","","",""
"html-keyboard-response","194","290105","0.0-11.0-0.25","605de3af48d7a575adb95b09","64e77d7b61f440b60e28659d","64eca8e7ad32a79bee859eb0","null","null","<p style=""font-size: 60px; font-family: BACS"">MTdYkBD</p>","","","","","","","","",""
"html-keyboard-response","195","291118","0.0-11.0-0.26","605de3af48d7a575adb95b09","64e77d7b61f440b60e28659d","64eca8e7ad32a79bee859eb0","null","null","<p style=""font-size: 60px; font-family: BACS"">ArQuaQr</p>","","","","","","","","",""
"html-keyboard-response","196","292134","0.0-11.0-0.27","605de3af48d7a575adb95b09","64e77d7b61f440b60e28659d","64eca8e7ad32a79bee859eb0","null","null","<p style=""font-size: 60px; font-family: BACS"">cuOJblGc</p>","","","","","","","","",""
"html-keyboard-response","197","293149","0.0-11.0-0.28","605de3af48d7a575adb95b09","64e77d7b61f440b60e28659d","64eca8e7ad32a79bee859eb0","null","null","<p style=""font-size: 60px; font-family: BACS"">ArQuZckv</p>","","","","","","","","",""
"html-keyboard-response","198","294151","0.0-11.0-0.29","605de3af48d7a575adb95b09","64e77d7b61f440b60e28659d","64eca8e7ad32a79bee859eb0","null","null","<p style=""font-size: 60px; font-family: BACS"">MlthKEdl</p>","","","","","","","","",""
"html-keyboard-response","199","295154","0.0-11.0-0.30","605de3af48d7a575adb95b09","64e77d7b61f440b60e28659d","64eca8e7ad32a79bee859eb0","null","null","<p style=""font-size: 60px; font-family: BACS"">AlQaQlGc</p>","","","","","","","","",""
"html-keyboard-response","200","296163","0.0-11.0-0.31","605de3af48d7a575adb95b09","64e77d7b61f440b60e28659d","64eca8e7ad32a79bee859eb0","null","null","<p style=""font-size: 60px; font-family: BACS"">DRPkYMKmY</p>","","","","","","","","",""
"html-keyboard-response","201","297175","0.0-11.0-0.32","605de3af48d7a575adb95b09","64e77d7b61f440b60e28659d","64eca8e7ad32a79bee859eb0","null","null","<p style=""font-size: 60px; font-family: BACS"">cROMtKEdl</p>","","","","","","","","",""
"html-keyboard-response","202","298180","0.0-11.0-0.33","605de3af48d7a575adb95b09","64e77d7b61f440b60e28659d","64eca8e7ad32a79bee859eb0","null","null","<p style=""font-size: 60px; font-family: BACS"">ArQuYUYa</p>","","","","","","","","",""
"html-keyboard-response","203","299183","0.0-11.0-0.34","605de3af48d7a575adb95b09","64e77d7b61f440b60e28659d","64eca8e7ad32a79bee859eb0","null","null","<p style=""font-size: 60px; font-family: BACS"">kbmZOrAm</p>","","","","","","","","",""
"html-keyboard-response","204","300191","0.0-11.0-0.35","605de3af48d7a575adb95b09","64e77d7b61f440b60e28659d","64eca8e7ad32a79bee859eb0","null","null","<p style=""font-size: 60px; font-family: BACS"">hlbtbMKmY</p>","","","","","","","","",""
"html-keyboard-response","205","301193","0.0-11.0-0.36","605de3af48d7a575adb95b09","64e77d7b61f440b60e28659d","64eca8e7ad32a79bee859eb0","null","null","<p style=""font-size: 60px; font-family: BACS"">vYLUrAm</p>","","","","","","","","",""
"html-keyboard-response","206","302196","0.0-11.0-0.37","605de3af48d7a575adb95b09","64e77d7b61f440b60e28659d","64eca8e7ad32a79bee859eb0","null","null","<p style=""font-size: 60px; font-family: BACS"">kRCkOCEM</p>","","","","","","","","",""
"html-keyboard-response","207","303209","0.0-11.0-0.38","605de3af48d7a575adb95b09","64e77d7b61f440b60e28659d","64eca8e7ad32a79bee859eb0","null","null","<p style=""font-size: 60px; font-family: BACS"">ArQulGc</p>","","","","","","","","",""
"html-keyboard-response","208","304212","0.0-11.0-0.39","605de3af48d7a575adb95b09","64e77d7b61f440b60e28659d","64eca8e7ad32a79bee859eb0","null","null","<p style=""font-size: 60px; font-family: BACS"">hlbtbkBD</p>","","","","","","","","",""
"html-keyboard-response","209","305214","0.0-11.0-0.40","605de3af48d7a575adb95b09","64e77d7b61f440b60e28659d","64eca8e7ad32a79bee859eb0","null","null","<p style=""font-size: 60px; font-family: BACS"">LAclAYUYa</p>","","","","","","","","",""
"html-keyboard-response","210","306214","0.0-11.0-0.41","605de3af48d7a575adb95b09","64e77d7b61f440b60e28659d","64eca8e7ad32a79bee859eb0","null","null","<p style=""font-size: 60px; font-family: BACS"">AlQaQrAm</p>","","","","","","","","",""
"html-keyboard-response","211","307215","0.0-11.0-0.42","605de3af48d7a575adb95b09","64e77d7b61f440b60e28659d","64eca8e7ad32a79bee859eb0","null","null","<p style=""font-size: 60px; font-family: BACS"">KTDTBkBD</p>","","","","","","","","",""
"html-keyboard-response","212","308221","0.0-11.0-0.43","605de3af48d7a575adb95b09","64e77d7b61f440b60e28659d","64eca8e7ad32a79bee859eb0","null","null","<p style=""font-size: 60px; font-family: BACS"">lZcuaQr</p>","","","","","","","","",""
"html-keyboard-response","213","309234","0.0-11.0-0.44","605de3af48d7a575adb95b09","64e77d7b61f440b60e28659d","64eca8e7ad32a79bee859eb0","null","null","<p style=""font-size: 60px; font-family: BACS"">JmNkZckv</p>","","","","","","","","",""
"html-keyboard-response","214","310234","0.0-11.0-0.45","605de3af48d7a575adb95b09","64e77d7b61f440b60e28659d","64eca8e7ad32a79bee859eb0","null","null","<p style=""font-size: 60px; font-family: BACS"">lZcuYUYa</p>","","","","","","","","",""
"html-keyboard-response","215","311236","0.0-11.0-0.46","605de3af48d7a575adb95b09","64e77d7b61f440b60e28659d","64eca8e7ad32a79bee859eb0","null","null","<p style=""font-size: 60px; font-family: BACS"">AYkEhkBD</p>","","","","","","","","",""
"html-keyboard-response","216","312237","0.0-11.0-0.47","605de3af48d7a575adb95b09","64e77d7b61f440b60e28659d","64eca8e7ad32a79bee859eb0","null","null","<p style=""font-size: 60px; font-family: BACS"">AlQaQZckv</p>","","","","","","","","",""
"html-keyboard-response","217","313239","0.0-11.0-0.48","605de3af48d7a575adb95b09","64e77d7b61f440b60e28659d","64eca8e7ad32a79bee859eb0","null","null","<p style=""font-size: 60px; font-family: BACS"">JmNkaQr</p>","","","","","","","","",""
"html-keyboard-response","218","314245","0.0-11.0-0.49","605de3af48d7a575adb95b09","64e77d7b61f440b60e28659d","64eca8e7ad32a79bee859eb0","null","null","<p style=""font-size: 60px; font-family: BACS"">cRElDCEM</p>","","","","","","","","",""
"html-keyboard-response","219","315249","0.0-11.0-0.50","605de3af48d7a575adb95b09","64e77d7b61f440b60e28659d","64eca8e7ad32a79bee859eb0","null","null","<p style=""font-size: 60px; font-family: BACS"">hlbtbdBC</p>","","","","","","","","",""
"html-keyboard-response","220","316260","0.0-11.0-0.51","605de3af48d7a575adb95b09","64e77d7b61f440b60e28659d","64eca8e7ad32a79bee859eb0","null","null","<p style=""font-size: 60px; font-family: BACS"">cDOEBMKmY</p>","","","","","","","","",""
"html-keyboard-response","221","317263","0.0-11.0-0.52","605de3af48d7a575adb95b09","64e77d7b61f440b60e28659d","64eca8e7ad32a79bee859eb0","null","null","<p style=""font-size: 60px; font-family: BACS"">cuOJbYUYa</p>","","","","","","","","",""
"html-keyboard-response","222","318266","0.0-11.0-0.53","605de3af48d7a575adb95b09","64e77d7b61f440b60e28659d","64eca8e7ad32a79bee859eb0","null","null","<p style=""font-size: 60px; font-family: BACS"">AYkEhKEdl</p>","","","","","","","","",""
"html-keyboard-response","223","319281","0.0-11.0-0.54","605de3af48d7a575adb95b09","64e77d7b61f440b60e28659d","64eca8e7ad32a79bee859eb0","null","null","<p style=""font-size: 60px; font-family: BACS"">LAclAlGc</p>","","","","","","","","",""
"html-keyboard-response","224","320292","0.0-11.0-0.55","605de3af48d7a575adb95b09","64e77d7b61f440b60e28659d","64eca8e7ad32a79bee859eb0","null","null","<p style=""font-size: 60px; font-family: BACS"">hlbtbKEdl</p>","","","","","","","","",""
"html-keyboard-response","225","321306","0.0-11.0-0.56","605de3af48d7a575adb95b09","64e77d7b61f440b60e28659d","64eca8e7ad32a79bee859eb0","null","null","<p style=""font-size: 60px; font-family: BACS"">lkAkrAm</p>","","","","","","","","",""
"html-keyboard-response","226","322320","0.0-11.0-0.57","605de3af48d7a575adb95b09","64e77d7b61f440b60e28659d","64eca8e7ad32a79bee859eb0","null","null","<p style=""font-size: 60px; font-family: BACS"">UdlGQYUYa</p>","","","","","","","","",""
"html-keyboard-response","227","323327","0.0-11.0-0.58","605de3af48d7a575adb95b09","64e77d7b61f440b60e28659d","64eca8e7ad32a79bee859eb0","null","null","<p style=""font-size: 60px; font-family: BACS"">MTdYdBC</p>","","","","","","","","",""
"html-keyboard-response","228","324328","0.0-11.0-0.59","605de3af48d7a575adb95b09","64e77d7b61f440b60e28659d","64eca8e7ad32a79bee859eb0","null","null","<p style=""font-size: 60px; font-family: BACS"">kRCkOMKmY</p>","","","","","","","","",""
"html-keyboard-response","229","325342","0.0-11.0-0.60","605de3af48d7a575adb95b09","64e77d7b61f440b60e28659d","64eca8e7ad32a79bee859eb0","null","null","<p style=""font-size: 60px; font-family: BACS"">MTdYCEM</p>","","","","","","","","",""
"html-keyboard-response","230","326346","0.0-11.0-0.61","605de3af48d7a575adb95b09","64e77d7b61f440b60e28659d","64eca8e7ad32a79bee859eb0","null","null","<p style=""font-size: 60px; font-family: BACS"">cDOEBkBD</p>","","","","","","","","",""
"html-keyboard-response","231","327350","0.0-11.0-0.62","605de3af48d7a575adb95b09","64e77d7b61f440b60e28659d","64eca8e7ad32a79bee859eb0","null","null","<p style=""font-size: 60px; font-family: BACS"">AYkEhdBC</p>","","","","","","","","",""
"html-keyboard-response","232","328358","0.0-11.0-0.63","605de3af48d7a575adb95b09","64e77d7b61f440b60e28659d","64eca8e7ad32a79bee859eb0","null","null","<p style=""font-size: 60px; font-family: BACS"">JmNkYUYa</p>","","","","","","","","",""
"html-keyboard-response","233","329360","0.0-11.0-0.64","605de3af48d7a575adb95b09","64e77d7b61f440b60e28659d","64eca8e7ad32a79bee859eb0","null","null","<p style=""font-size: 60px; font-family: BACS"">lkAkZckv</p>","","","","","","","","",""
"html-keyboard-response","234","330364","0.0-11.0-0.65","605de3af48d7a575adb95b09","64e77d7b61f440b60e28659d","64eca8e7ad32a79bee859eb0","null","null","<p style=""font-size: 60px; font-family: BACS"">KTDTBKEdl</p>","","","","","","","","",""
"html-keyboard-response","235","331366","0.0-11.0-0.66","605de3af48d7a575adb95b09","64e77d7b61f440b60e28659d","64eca8e7ad32a79bee859eb0","null","null","<p style=""font-size: 60px; font-family: BACS"">cROMtCEM</p>","","","","","","","","",""
"html-keyboard-response","236","332377","0.0-11.0-0.67","605de3af48d7a575adb95b09","64e77d7b61f440b60e28659d","64eca8e7ad32a79bee859eb0","null","null","<p style=""font-size: 60px; font-family: BACS"">MlthdBC</p>","","","","","","","","",""
"html-keyboard-response","237","333393","0.0-11.0-0.68","605de3af48d7a575adb95b09","64e77d7b61f440b60e28659d","64eca8e7ad32a79bee859eb0","null","null","<p style=""font-size: 60px; font-family: BACS"">kRCkOkBD</p>","","","","","","","","",""
"html-keyboard-response","238","334406","0.0-11.0-0.69","605de3af48d7a575adb95b09","64e77d7b61f440b60e28659d","64eca8e7ad32a79bee859eb0","null","null","<p style=""font-size: 60px; font-family: BACS"">DRPkYdBC</p>","","","","","","","","",""
"html-keyboard-response","239","335413","0.0-11.0-0.70","605de3af48d7a575adb95b09","64e77d7b61f440b60e28659d","64eca8e7ad32a79bee859eb0","null","null","<p style=""font-size: 60px; font-family: BACS"">vYLUlGc</p>","","","","","","","","",""
"html-keyboard-response","240","336423","0.0-11.0-0.71","605de3af48d7a575adb95b09","64e77d7b61f440b60e28659d","64eca8e7ad32a79bee859eb0","null","null","<p style=""font-size: 60px; font-family: BACS"">UdlGQrAm</p>","","","","","","","","",""
"html-keyboard-response","241","337439","0.0-11.0-0.72","605de3af48d7a575adb95b09","64e77d7b61f440b60e28659d","64eca8e7ad32a79bee859eb0","null","null","<p style=""font-size: 60px; font-family: BACS"">lkAkaQr</p>","","","","","","","","",""
"html-keyboard-response","242","338441","0.0-11.0-0.73","605de3af48d7a575adb95b09","64e77d7b61f440b60e28659d","64eca8e7ad32a79bee859eb0","null","null","<p style=""font-size: 60px; font-family: BACS"">DRPkYCEM</p>","","","","","","","","",""
"html-keyboard-response","243","339443","0.0-11.0-0.74","605de3af48d7a575adb95b09","64e77d7b61f440b60e28659d","64eca8e7ad32a79bee859eb0","null","null","<p style=""font-size: 60px; font-family: BACS"">cuOJbaQr</p>","","","","","","","","",""
"html-keyboard-response","244","340450","0.0-11.0-0.75","605de3af48d7a575adb95b09","64e77d7b61f440b60e28659d","64eca8e7ad32a79bee859eb0","null","null","<p style=""font-size: 60px; font-family: BACS"">cROMtMKmY</p>","","","","","","","","",""
"html-keyboard-response","245","341451","0.0-11.0-0.76","605de3af48d7a575adb95b09","64e77d7b61f440b60e28659d","64eca8e7ad32a79bee859eb0","null","null","<p style=""font-size: 60px; font-family: BACS"">KTDTBCEM</p>","","","","","","","","",""
"html-keyboard-response","246","342455","0.0-11.0-0.77","605de3af48d7a575adb95b09","64e77d7b61f440b60e28659d","64eca8e7ad32a79bee859eb0","null","null","<p style=""font-size: 60px; font-family: BACS"">MTdYKEdl</p>","","","","","","","","",""
"html-keyboard-response","247","343457","0.0-11.0-0.78","605de3af48d7a575adb95b09","64e77d7b61f440b60e28659d","64eca8e7ad32a79bee859eb0","null","null","<p style=""font-size: 60px; font-family: BACS"">LAclArAm</p>","","","","","","","","",""
"html-keyboard-response","248","344472","0.0-11.0-0.79","605de3af48d7a575adb95b09","64e77d7b61f440b60e28659d","64eca8e7ad32a79bee859eb0","null","null","<p style=""font-size: 60px; font-family: BACS"">MlthkBD</p>","","","","","","","","",""
"html-keyboard-response","249","346274","0.0-12.0","605de3af48d7a575adb95b09","64e77d7b61f440b60e28659d","64eca8e7ad32a79bee859eb0","1802"," ","<p>Great, you've seen the third block of words. You may now take a short break.</p>
      <p>Press the spacebar when you're ready to continue.</p>","","","","","","","","",""
"html-keyboard-response","250","347282","0.0-13.0-0.0","605de3af48d7a575adb95b09","64e77d7b61f440b60e28659d","64eca8e7ad32a79bee859eb0","null","null","<p style=""font-size: 60px; font-family: BACS"">JmNkaQr</p>","","","","","","","","",""
"html-keyboard-response","251","348283","0.0-13.0-0.1","605de3af48d7a575adb95b09","64e77d7b61f440b60e28659d","64eca8e7ad32a79bee859eb0","null","null","<p style=""font-size: 60px; font-family: BACS"">DRPkYCEM</p>","","","","","","","","",""
"html-keyboard-response","252","349287","0.0-13.0-0.2","605de3af48d7a575adb95b09","64e77d7b61f440b60e28659d","64eca8e7ad32a79bee859eb0","null","null","<p style=""font-size: 60px; font-family: BACS"">MlthkBD</p>","","","","","","","","",""
"html-keyboard-response","253","350300","0.0-13.0-0.3","605de3af48d7a575adb95b09","64e77d7b61f440b60e28659d","64eca8e7ad32a79bee859eb0","null","null","<p style=""font-size: 60px; font-family: BACS"">cROMtMKmY</p>","","","","","","","","",""
"html-keyboard-response","254","351315","0.0-13.0-0.4","605de3af48d7a575adb95b09","64e77d7b61f440b60e28659d","64eca8e7ad32a79bee859eb0","null","null","<p style=""font-size: 60px; font-family: BACS"">AlQaQrAm</p>","","","","","","","","",""
"html-keyboard-response","255","352331","0.0-13.0-0.5","605de3af48d7a575adb95b09","64e77d7b61f440b60e28659d","64eca8e7ad32a79bee859eb0","null","null","<p style=""font-size: 60px; font-family: BACS"">ArQulGc</p>","","","","","","","","",""
"html-keyboard-response","256","353346","0.0-13.0-0.6","605de3af48d7a575adb95b09","64e77d7b61f440b60e28659d","64eca8e7ad32a79bee859eb0","null","null","<p style=""font-size: 60px; font-family: BACS"">KTDTBCEM</p>","","","","","","","","",""
"html-keyboard-response","257","354349","0.0-13.0-0.7","605de3af48d7a575adb95b09","64e77d7b61f440b60e28659d","64eca8e7ad32a79bee859eb0","null","null","<p style=""font-size: 60px; font-family: BACS"">cROMtdBC</p>","","","","","","","","",""
"html-keyboard-response","258","355352","0.0-13.0-0.8","605de3af48d7a575adb95b09","64e77d7b61f440b60e28659d","64eca8e7ad32a79bee859eb0","null","null","<p style=""font-size: 60px; font-family: BACS"">AlQaQZckv</p>","","","","","","","","",""
"html-keyboard-response","259","356353","0.0-13.0-0.9","605de3af48d7a575adb95b09","64e77d7b61f440b60e28659d","64eca8e7ad32a79bee859eb0","null","null","<p style=""font-size: 60px; font-family: BACS"">UdlGQYUYa</p>","","","","","","","","",""
"html-keyboard-response","260","357355","0.0-13.0-0.10","605de3af48d7a575adb95b09","64e77d7b61f440b60e28659d","64eca8e7ad32a79bee859eb0","null","null","<p style=""font-size: 60px; font-family: BACS"">hlbtbKEdl</p>","","","","","","","","",""
"html-keyboard-response","261","358357","0.0-13.0-0.11","605de3af48d7a575adb95b09","64e77d7b61f440b60e28659d","64eca8e7ad32a79bee859eb0","null","null","<p style=""font-size: 60px; font-family: BACS"">ArQuaQr</p>","","","","","","","","",""
"html-keyboard-response","262","359372","0.0-13.0-0.12","605de3af48d7a575adb95b09","64e77d7b61f440b60e28659d","64eca8e7ad32a79bee859eb0","null","null","<p style=""font-size: 60px; font-family: BACS"">cDOEBKEdl</p>","","","","","","","","",""
"html-keyboard-response","263","360388","0.0-13.0-0.13","605de3af48d7a575adb95b09","64e77d7b61f440b60e28659d","64eca8e7ad32a79bee859eb0","null","null","<p style=""font-size: 60px; font-family: BACS"">UdlGQlGc</p>","","","","","","","","",""
"html-keyboard-response","264","361391","0.0-13.0-0.14","605de3af48d7a575adb95b09","64e77d7b61f440b60e28659d","64eca8e7ad32a79bee859eb0","null","null","<p style=""font-size: 60px; font-family: BACS"">lkAkaQr</p>","","","","","","","","",""
"html-keyboard-response","265","362392","0.0-13.0-0.15","605de3af48d7a575adb95b09","64e77d7b61f440b60e28659d","64eca8e7ad32a79bee859eb0","null","null","<p style=""font-size: 60px; font-family: BACS"">AYkEhkBD</p>","","","","","","","","",""
"html-keyboard-response","266","363404","0.0-13.0-0.16","605de3af48d7a575adb95b09","64e77d7b61f440b60e28659d","64eca8e7ad32a79bee859eb0","null","null","<p style=""font-size: 60px; font-family: BACS"">ArQuYUYa</p>","","","","","","","","",""
"html-keyboard-response","267","364409","0.0-13.0-0.17","605de3af48d7a575adb95b09","64e77d7b61f440b60e28659d","64eca8e7ad32a79bee859eb0","null","null","<p style=""font-size: 60px; font-family: BACS"">lZcuZckv</p>","","","","","","","","",""
"html-keyboard-response","268","365412","0.0-13.0-0.18","605de3af48d7a575adb95b09","64e77d7b61f440b60e28659d","64eca8e7ad32a79bee859eb0","null","null","<p style=""font-size: 60px; font-family: BACS"">MTdYKEdl</p>","","","","","","","","",""
"html-keyboard-response","269","366415","0.0-13.0-0.19","605de3af48d7a575adb95b09","64e77d7b61f440b60e28659d","64eca8e7ad32a79bee859eb0","null","null","<p style=""font-size: 60px; font-family: BACS"">kbmZOlGc</p>","","","","","","","","",""
"html-keyboard-response","270","367417","0.0-13.0-0.20","605de3af48d7a575adb95b09","64e77d7b61f440b60e28659d","64eca8e7ad32a79bee859eb0","null","null","<p style=""font-size: 60px; font-family: BACS"">cuOJbZckv</p>","","","","","","","","",""
"html-keyboard-response","271","368417","0.0-13.0-0.21","605de3af48d7a575adb95b09","64e77d7b61f440b60e28659d","64eca8e7ad32a79bee859eb0","null","null","<p style=""font-size: 60px; font-family: BACS"">DRPkYMKmY</p>","","","","","","","","",""
"html-keyboard-response","272","369432","0.0-13.0-0.22","605de3af48d7a575adb95b09","64e77d7b61f440b60e28659d","64eca8e7ad32a79bee859eb0","null","null","<p style=""font-size: 60px; font-family: BACS"">ArQuZckv</p>","","","","","","","","",""
"html-keyboard-response","273","370448","0.0-13.0-0.23","605de3af48d7a575adb95b09","64e77d7b61f440b60e28659d","64eca8e7ad32a79bee859eb0","null","null","<p style=""font-size: 60px; font-family: BACS"">kRCkOCEM</p>","","","","","","","","",""
"html-keyboard-response","274","371450","0.0-13.0-0.24","605de3af48d7a575adb95b09","64e77d7b61f440b60e28659d","64eca8e7ad32a79bee859eb0","null","null","<p style=""font-size: 60px; font-family: BACS"">AYkEhdBC</p>","","","","","","","","",""
"html-keyboard-response","275","372453","0.0-13.0-0.25","605de3af48d7a575adb95b09","64e77d7b61f440b60e28659d","64eca8e7ad32a79bee859eb0","null","null","<p style=""font-size: 60px; font-family: BACS"">KTDTBKEdl</p>","","","","","","","","",""
"html-keyboard-response","276","373458","0.0-13.0-0.26","605de3af48d7a575adb95b09","64e77d7b61f440b60e28659d","64eca8e7ad32a79bee859eb0","null","null","<p style=""font-size: 60px; font-family: BACS"">lkAklGc</p>","","","","","","","","",""
"html-keyboard-response","277","374472","0.0-13.0-0.27","605de3af48d7a575adb95b09","64e77d7b61f440b60e28659d","64eca8e7ad32a79bee859eb0","null","null","<p style=""font-size: 60px; font-family: BACS"">JmNkrAm</p>","","","","","","","","",""
"html-keyboard-response","278","375475","0.0-13.0-0.28","605de3af48d7a575adb95b09","64e77d7b61f440b60e28659d","64eca8e7ad32a79bee859eb0","null","null","<p style=""font-size: 60px; font-family: BACS"">MTdYdBC</p>","","","","","","","","",""
"html-keyboard-response","279","376481","0.0-13.0-0.29","605de3af48d7a575adb95b09","64e77d7b61f440b60e28659d","64eca8e7ad32a79bee859eb0","null","null","<p style=""font-size: 60px; font-family: BACS"">cRElDKEdl</p>","","","","","","","","",""
"html-keyboard-response","280","377487","0.0-13.0-0.30","605de3af48d7a575adb95b09","64e77d7b61f440b60e28659d","64eca8e7ad32a79bee859eb0","null","null","<p style=""font-size: 60px; font-family: BACS"">hlbtbkBD</p>","","","","","","","","",""
"html-keyboard-response","281","378489","0.0-13.0-0.31","605de3af48d7a575adb95b09","64e77d7b61f440b60e28659d","64eca8e7ad32a79bee859eb0","null","null","<p style=""font-size: 60px; font-family: BACS"">vYLUaQr</p>","","","","","","","","",""
"html-keyboard-response","282","379490","0.0-13.0-0.32","605de3af48d7a575adb95b09","64e77d7b61f440b60e28659d","64eca8e7ad32a79bee859eb0","null","null","<p style=""font-size: 60px; font-family: BACS"">LAclArAm</p>","","","","","","","","",""
"html-keyboard-response","283","380491","0.0-13.0-0.33","605de3af48d7a575adb95b09","64e77d7b61f440b60e28659d","64eca8e7ad32a79bee859eb0","null","null","<p style=""font-size: 60px; font-family: BACS"">JmNkZckv</p>","","","","","","","","",""
"html-keyboard-response","284","381495","0.0-13.0-0.34","605de3af48d7a575adb95b09","64e77d7b61f440b60e28659d","64eca8e7ad32a79bee859eb0","null","null","<p style=""font-size: 60px; font-family: BACS"">MTdYCEM</p>","","","","","","","","",""
"html-keyboard-response","285","382502","0.0-13.0-0.35","605de3af48d7a575adb95b09","64e77d7b61f440b60e28659d","64eca8e7ad32a79bee859eb0","null","null","<p style=""font-size: 60px; font-family: BACS"">lkAkrAm</p>","","","","","","","","",""
"html-keyboard-response","286","383505","0.0-13.0-0.36","605de3af48d7a575adb95b09","64e77d7b61f440b60e28659d","64eca8e7ad32a79bee859eb0","null","null","<p style=""font-size: 60px; font-family: BACS"">cRElDdBC</p>","","","","","","","","",""
"html-keyboard-response","287","384506","0.0-13.0-0.37","605de3af48d7a575adb95b09","64e77d7b61f440b60e28659d","64eca8e7ad32a79bee859eb0","null","null","<p style=""font-size: 60px; font-family: BACS"">LAclAlGc</p>","","","","","","","","",""
"html-keyboard-response","288","385510","0.0-13.0-0.38","605de3af48d7a575adb95b09","64e77d7b61f440b60e28659d","64eca8e7ad32a79bee859eb0","null","null","<p style=""font-size: 60px; font-family: BACS"">MlthCEM</p>","","","","","","","","",""
"html-keyboard-response","289","386524","0.0-13.0-0.39","605de3af48d7a575adb95b09","64e77d7b61f440b60e28659d","64eca8e7ad32a79bee859eb0","null","null","<p style=""font-size: 60px; font-family: BACS"">lZcurAm</p>","","","","","","","","",""
"html-keyboard-response","290","387539","0.0-13.0-0.40","605de3af48d7a575adb95b09","64e77d7b61f440b60e28659d","64eca8e7ad32a79bee859eb0","null","null","<p style=""font-size: 60px; font-family: BACS"">LAclAZckv</p>","","","","","","","","",""
"html-keyboard-response","291","388540","0.0-13.0-0.41","605de3af48d7a575adb95b09","64e77d7b61f440b60e28659d","64eca8e7ad32a79bee859eb0","null","null","<p style=""font-size: 60px; font-family: BACS"">MlthdBC</p>","","","","","","","","",""
"html-keyboard-response","292","389542","0.0-13.0-0.42","605de3af48d7a575adb95b09","64e77d7b61f440b60e28659d","64eca8e7ad32a79bee859eb0","null","null","<p style=""font-size: 60px; font-family: BACS"">vYLUlGc</p>","","","","","","","","",""
"html-keyboard-response","293","390557","0.0-13.0-0.43","605de3af48d7a575adb95b09","64e77d7b61f440b60e28659d","64eca8e7ad32a79bee859eb0","null","null","<p style=""font-size: 60px; font-family: BACS"">LAclAYUYa</p>","","","","","","","","",""
"html-keyboard-response","294","391572","0.0-13.0-0.44","605de3af48d7a575adb95b09","64e77d7b61f440b60e28659d","64eca8e7ad32a79bee859eb0","null","null","<p style=""font-size: 60px; font-family: BACS"">lZcuaQr</p>","","","","","","","","",""
"html-keyboard-response","295","392588","0.0-13.0-0.45","605de3af48d7a575adb95b09","64e77d7b61f440b60e28659d","64eca8e7ad32a79bee859eb0","null","null","<p style=""font-size: 60px; font-family: BACS"">AYkEhKEdl</p>","","","","","","","","",""
"html-keyboard-response","296","393591","0.0-13.0-0.46","605de3af48d7a575adb95b09","64e77d7b61f440b60e28659d","64eca8e7ad32a79bee859eb0","null","null","<p style=""font-size: 60px; font-family: BACS"">UdlGQaQr</p>","","","","","","","","",""
"html-keyboard-response","297","394606","0.0-13.0-0.47","605de3af48d7a575adb95b09","64e77d7b61f440b60e28659d","64eca8e7ad32a79bee859eb0","null","null","<p style=""font-size: 60px; font-family: BACS"">AlQaQlGc</p>","","","","","","","","",""
"html-keyboard-response","298","395616","0.0-13.0-0.48","605de3af48d7a575adb95b09","64e77d7b61f440b60e28659d","64eca8e7ad32a79bee859eb0","null","null","<p style=""font-size: 60px; font-family: BACS"">KTDTBkBD</p>","","","","","","","","",""
"html-keyboard-response","299","396618","0.0-13.0-0.49","605de3af48d7a575adb95b09","64e77d7b61f440b60e28659d","64eca8e7ad32a79bee859eb0","null","null","<p style=""font-size: 60px; font-family: BACS"">MlthKEdl</p>","","","","","","","","",""
"html-keyboard-response","300","397631","0.0-13.0-0.50","605de3af48d7a575adb95b09","64e77d7b61f440b60e28659d","64eca8e7ad32a79bee859eb0","null","null","<p style=""font-size: 60px; font-family: BACS"">kbmZOrAm</p>","","","","","","","","",""
"html-keyboard-response","301","398636","0.0-13.0-0.51","605de3af48d7a575adb95b09","64e77d7b61f440b60e28659d","64eca8e7ad32a79bee859eb0","null","null","<p style=""font-size: 60px; font-family: BACS"">vYLUYUYa</p>","","","","","","","","",""
"html-keyboard-response","302","399639","0.0-13.0-0.52","605de3af48d7a575adb95b09","64e77d7b61f440b60e28659d","64eca8e7ad32a79bee859eb0","null","null","<p style=""font-size: 60px; font-family: BACS"">cDOEBMKmY</p>","","","","","","","","",""
"html-keyboard-response","303","400654","0.0-13.0-0.53","605de3af48d7a575adb95b09","64e77d7b61f440b60e28659d","64eca8e7ad32a79bee859eb0","null","null","<p style=""font-size: 60px; font-family: BACS"">lZcuYUYa</p>","","","","","","","","",""
"html-keyboard-response","304","401660","0.0-13.0-0.54","605de3af48d7a575adb95b09","64e77d7b61f440b60e28659d","64eca8e7ad32a79bee859eb0","null","null","<p style=""font-size: 60px; font-family: BACS"">cuOJbaQr</p>","","","","","","","","",""
"html-keyboard-response","305","402676","0.0-13.0-0.55","605de3af48d7a575adb95b09","64e77d7b61f440b60e28659d","64eca8e7ad32a79bee859eb0","null","null","<p style=""font-size: 60px; font-family: BACS"">DRPkYdBC</p>","","","","","","","","",""
"html-keyboard-response","306","403689","0.0-13.0-0.56","605de3af48d7a575adb95b09","64e77d7b61f440b60e28659d","64eca8e7ad32a79bee859eb0","null","null","<p style=""font-size: 60px; font-family: BACS"">UdlGQrAm</p>","","","","","","","","",""
"html-keyboard-response","307","404694","0.0-13.0-0.57","605de3af48d7a575adb95b09","64e77d7b61f440b60e28659d","64eca8e7ad32a79bee859eb0","null","null","<p style=""font-size: 60px; font-family: BACS"">cRElDCEM</p>","","","","","","","","",""
"html-keyboard-response","308","405708","0.0-13.0-0.58","605de3af48d7a575adb95b09","64e77d7b61f440b60e28659d","64eca8e7ad32a79bee859eb0","null","null","<p style=""font-size: 60px; font-family: BACS"">hlbtbMKmY</p>","","","","","","","","",""
"html-keyboard-response","309","406714","0.0-13.0-0.59","605de3af48d7a575adb95b09","64e77d7b61f440b60e28659d","64eca8e7ad32a79bee859eb0","null","null","<p style=""font-size: 60px; font-family: BACS"">lkAkZckv</p>","","","","","","","","",""
"html-keyboard-response","310","407728","0.0-13.0-0.60","605de3af48d7a575adb95b09","64e77d7b61f440b60e28659d","64eca8e7ad32a79bee859eb0","null","null","<p style=""font-size: 60px; font-family: BACS"">cDOEBkBD</p>","","","","","","","","",""
"html-keyboard-response","311","408743","0.0-13.0-0.61","605de3af48d7a575adb95b09","64e77d7b61f440b60e28659d","64eca8e7ad32a79bee859eb0","null","null","<p style=""font-size: 60px; font-family: BACS"">cuOJblGc</p>","","","","","","","","",""
"html-keyboard-response","312","409749","0.0-13.0-0.62","605de3af48d7a575adb95b09","64e77d7b61f440b60e28659d","64eca8e7ad32a79bee859eb0","null","null","<p style=""font-size: 60px; font-family: BACS"">JmNkYUYa</p>","","","","","","","","",""
"html-keyboard-response","313","410762","0.0-13.0-0.63","605de3af48d7a575adb95b09","64e77d7b61f440b60e28659d","64eca8e7ad32a79bee859eb0","null","null","<p style=""font-size: 60px; font-family: BACS"">cROMtCEM</p>","","","","","","","","",""
"html-keyboard-response","314","411778","0.0-13.0-0.64","605de3af48d7a575adb95b09","64e77d7b61f440b60e28659d","64eca8e7ad32a79bee859eb0","null","null","<p style=""font-size: 60px; font-family: BACS"">AYkEhMKmY</p>","","","","","","","","",""
"html-keyboard-response","315","412793","0.0-13.0-0.65","605de3af48d7a575adb95b09","64e77d7b61f440b60e28659d","64eca8e7ad32a79bee859eb0","null","null","<p style=""font-size: 60px; font-family: BACS"">DRPkYkBD</p>","","","","","","","","",""
"html-keyboard-response","316","413807","0.0-13.0-0.66","605de3af48d7a575adb95b09","64e77d7b61f440b60e28659d","64eca8e7ad32a79bee859eb0","null","null","<p style=""font-size: 60px; font-family: BACS"">kRCkOdBC</p>","","","","","","","","",""
"html-keyboard-response","317","414823","0.0-13.0-0.67","605de3af48d7a575adb95b09","64e77d7b61f440b60e28659d","64eca8e7ad32a79bee859eb0","null","null","<p style=""font-size: 60px; font-family: BACS"">kbmZOaQr</p>","","","","","","","","",""
"html-keyboard-response","318","415835","0.0-13.0-0.68","605de3af48d7a575adb95b09","64e77d7b61f440b60e28659d","64eca8e7ad32a79bee859eb0","null","null","<p style=""font-size: 60px; font-family: BACS"">kRCkOkBD</p>","","","","","","","","",""
"html-keyboard-response","319","416849","0.0-13.0-0.69","605de3af48d7a575adb95b09","64e77d7b61f440b60e28659d","64eca8e7ad32a79bee859eb0","null","null","<p style=""font-size: 60px; font-family: BACS"">cDOEBCEM</p>","","","","","","","","",""
"html-keyboard-response","320","417860","0.0-13.0-0.70","605de3af48d7a575adb95b09","64e77d7b61f440b60e28659d","64eca8e7ad32a79bee859eb0","null","null","<p style=""font-size: 60px; font-family: BACS"">cROMtKEdl</p>","","","","","","","","",""
"html-keyboard-response","321","418863","0.0-13.0-0.71","605de3af48d7a575adb95b09","64e77d7b61f440b60e28659d","64eca8e7ad32a79bee859eb0","null","null","<p style=""font-size: 60px; font-family: BACS"">vYLUrAm</p>","","","","","","","","",""
"html-keyboard-response","322","419868","0.0-13.0-0.72","605de3af48d7a575adb95b09","64e77d7b61f440b60e28659d","64eca8e7ad32a79bee859eb0","null","null","<p style=""font-size: 60px; font-family: BACS"">hlbtbdBC</p>","","","","","","","","",""
"html-keyboard-response","323","420882","0.0-13.0-0.73","605de3af48d7a575adb95b09","64e77d7b61f440b60e28659d","64eca8e7ad32a79bee859eb0","null","null","<p style=""font-size: 60px; font-family: BACS"">KTDTBMKmY</p>","","","","","","","","",""
"html-keyboard-response","324","421884","0.0-13.0-0.74","605de3af48d7a575adb95b09","64e77d7b61f440b60e28659d","64eca8e7ad32a79bee859eb0","null","null","<p style=""font-size: 60px; font-family: BACS"">MTdYkBD</p>","","","","","","","","",""
"html-keyboard-response","325","422896","0.0-13.0-0.75","605de3af48d7a575adb95b09","64e77d7b61f440b60e28659d","64eca8e7ad32a79bee859eb0","null","null","<p style=""font-size: 60px; font-family: BACS"">cuOJbYUYa</p>","","","","","","","","",""
"html-keyboard-response","326","423912","0.0-13.0-0.76","605de3af48d7a575adb95b09","64e77d7b61f440b60e28659d","64eca8e7ad32a79bee859eb0","null","null","<p style=""font-size: 60px; font-family: BACS"">kbmZOZckv</p>","","","","","","","","",""
"html-keyboard-response","327","424926","0.0-13.0-0.77","605de3af48d7a575adb95b09","64e77d7b61f440b60e28659d","64eca8e7ad32a79bee859eb0","null","null","<p style=""font-size: 60px; font-family: BACS"">kRCkOMKmY</p>","","","","","","","","",""
"html-keyboard-response","328","425930","0.0-13.0-0.78","605de3af48d7a575adb95b09","64e77d7b61f440b60e28659d","64eca8e7ad32a79bee859eb0","null","null","<p style=""font-size: 60px; font-family: BACS"">AlQaQYUYa</p>","","","","","","","","",""
"html-keyboard-response","329","426932","0.0-13.0-0.79","605de3af48d7a575adb95b09","64e77d7b61f440b60e28659d","64eca8e7ad32a79bee859eb0","null","null","<p style=""font-size: 60px; font-family: BACS"">cRElDMKmY</p>","","","","","","","","",""
"html-keyboard-response","330","429482","0.0-14.0","605de3af48d7a575adb95b09","64e77d7b61f440b60e28659d","64eca8e7ad32a79bee859eb0","2550"," ","<p>Great, you've seen the fourth block of words. You may now take a short break.</p>
      <p>Press the spacebar when you're ready to continue.</p>","","","","","","","","",""
"html-keyboard-response","331","430496","0.0-15.0-0.0","605de3af48d7a575adb95b09","64e77d7b61f440b60e28659d","64eca8e7ad32a79bee859eb0","null","null","<p style=""font-size: 60px; font-family: BACS"">kbmZOZckv</p>","","","","","","","","",""
"html-keyboard-response","332","431498","0.0-15.0-0.1","605de3af48d7a575adb95b09","64e77d7b61f440b60e28659d","64eca8e7ad32a79bee859eb0","null","null","<p style=""font-size: 60px; font-family: BACS"">kbmZOZckv</p>","","","","","","","","",""
"html-keyboard-response","333","432501","0.0-15.0-0.2","605de3af48d7a575adb95b09","64e77d7b61f440b60e28659d","64eca8e7ad32a79bee859eb0","null","null","<p style=""font-size: 60px; font-family: BACS"">kbmZOZckv</p>","","","","","","","","",""
"html-keyboard-response","334","433502","0.0-15.0-0.3","605de3af48d7a575adb95b09","64e77d7b61f440b60e28659d","64eca8e7ad32a79bee859eb0","null","null","<p style=""font-size: 60px; font-family: BACS"">kbmZOZckv</p>","","","","","","","","",""
"html-keyboard-response","335","434504","0.0-15.0-0.4","605de3af48d7a575adb95b09","64e77d7b61f440b60e28659d","64eca8e7ad32a79bee859eb0","null","null","<p style=""font-size: 60px; font-family: BACS"">kbmZOZckv</p>","","","","","","","","",""
"html-keyboard-response","336","435508","0.0-15.0-0.5","605de3af48d7a575adb95b09","64e77d7b61f440b60e28659d","64eca8e7ad32a79bee859eb0","null","null","<p style=""font-size: 60px; font-family: BACS"">kbmZOZckv</p>","","","","","","","","",""
"html-keyboard-response","337","436523","0.0-15.0-0.6","605de3af48d7a575adb95b09","64e77d7b61f440b60e28659d","64eca8e7ad32a79bee859eb0","null","null","<p style=""font-size: 60px; font-family: BACS"">kbmZOZckv</p>","","","","","","","","",""
"html-keyboard-response","338","437538","0.0-15.0-0.7","605de3af48d7a575adb95b09","64e77d7b61f440b60e28659d","64eca8e7ad32a79bee859eb0","null","null","<p style=""font-size: 60px; font-family: BACS"">kbmZOZckv</p>","","","","","","","","",""
"html-keyboard-response","339","438551","0.0-15.0-0.8","605de3af48d7a575adb95b09","64e77d7b61f440b60e28659d","64eca8e7ad32a79bee859eb0","null","null","<p style=""font-size: 60px; font-family: BACS"">kbmZOZckv</p>","","","","","","","","",""
"html-keyboard-response","340","439561","0.0-15.0-0.9","605de3af48d7a575adb95b09","64e77d7b61f440b60e28659d","64eca8e7ad32a79bee859eb0","null","null","<p style=""font-size: 60px; font-family: BACS"">kbmZOZckv</p>","","","","","","","","",""
"html-keyboard-response","341","440569","0.0-15.0-0.10","605de3af48d7a575adb95b09","64e77d7b61f440b60e28659d","64eca8e7ad32a79bee859eb0","null","null","<p style=""font-size: 60px; font-family: BACS"">kbmZOZckv</p>","","","","","","","","",""
"html-keyboard-response","342","441581","0.0-15.0-0.11","605de3af48d7a575adb95b09","64e77d7b61f440b60e28659d","64eca8e7ad32a79bee859eb0","null","null","<p style=""font-size: 60px; font-family: BACS"">kbmZOZckv</p>","","","","","","","","",""
"html-keyboard-response","343","442583","0.0-15.0-0.12","605de3af48d7a575adb95b09","64e77d7b61f440b60e28659d","64eca8e7ad32a79bee859eb0","null","null","<p style=""font-size: 60px; font-family: BACS"">kbmZOZckv</p>","","","","","","","","",""
"html-keyboard-response","344","443595","0.0-15.0-0.13","605de3af48d7a575adb95b09","64e77d7b61f440b60e28659d","64eca8e7ad32a79bee859eb0","null","null","<p style=""font-size: 60px; font-family: BACS"">kbmZOZckv</p>","","","","","","","","",""
"html-keyboard-response","345","444606","0.0-15.0-0.14","605de3af48d7a575adb95b09","64e77d7b61f440b60e28659d","64eca8e7ad32a79bee859eb0","null","null","<p style=""font-size: 60px; font-family: BACS"">kbmZOZckv</p>","","","","","","","","",""
"html-keyboard-response","346","445622","0.0-15.0-0.15","605de3af48d7a575adb95b09","64e77d7b61f440b60e28659d","64eca8e7ad32a79bee859eb0","null","null","<p style=""font-size: 60px; font-family: BACS"">kbmZOZckv</p>","","","","","","","","",""
"html-keyboard-response","347","446634","0.0-15.0-0.16","605de3af48d7a575adb95b09","64e77d7b61f440b60e28659d","64eca8e7ad32a79bee859eb0","null","null","<p style=""font-size: 60px; font-family: BACS"">kbmZOZckv</p>","","","","","","","","",""
"html-keyboard-response","348","447645","0.0-15.0-0.17","605de3af48d7a575adb95b09","64e77d7b61f440b60e28659d","64eca8e7ad32a79bee859eb0","null","null","<p style=""font-size: 60px; font-family: BACS"">kbmZOZckv</p>","","","","","","","","",""
"html-keyboard-response","349","448660","0.0-15.0-0.18","605de3af48d7a575adb95b09","64e77d7b61f440b60e28659d","64eca8e7ad32a79bee859eb0","null","null","<p style=""font-size: 60px; font-family: BACS"">kbmZOZckv</p>","","","","","","","","",""
"html-keyboard-response","350","449671","0.0-15.0-0.19","605de3af48d7a575adb95b09","64e77d7b61f440b60e28659d","64eca8e7ad32a79bee859eb0","null","null","<p style=""font-size: 60px; font-family: BACS"">kbmZOZckv</p>","","","","","","","","",""
"html-keyboard-response","351","450682","0.0-15.0-0.20","605de3af48d7a575adb95b09","64e77d7b61f440b60e28659d","64eca8e7ad32a79bee859eb0","null","null","<p style=""font-size: 60px; font-family: BACS"">kbmZOZckv</p>","","","","","","","","",""
"html-keyboard-response","352","451697","0.0-15.0-0.21","605de3af48d7a575adb95b09","64e77d7b61f440b60e28659d","64eca8e7ad32a79bee859eb0","null","null","<p style=""font-size: 60px; font-family: BACS"">kbmZOZckv</p>","","","","","","","","",""
"html-keyboard-response","353","452709","0.0-15.0-0.22","605de3af48d7a575adb95b09","64e77d7b61f440b60e28659d","64eca8e7ad32a79bee859eb0","null","null","<p style=""font-size: 60px; font-family: BACS"">kbmZOZckv</p>","","","","","","","","",""
"html-keyboard-response","354","453721","0.0-15.0-0.23","605de3af48d7a575adb95b09","64e77d7b61f440b60e28659d","64eca8e7ad32a79bee859eb0","null","null","<p style=""font-size: 60px; font-family: BACS"">kbmZOZckv</p>","","","","","","","","",""
"html-keyboard-response","355","454723","0.0-15.0-0.24","605de3af48d7a575adb95b09","64e77d7b61f440b60e28659d","64eca8e7ad32a79bee859eb0","null","null","<p style=""font-size: 60px; font-family: BACS"">kbmZOZckv</p>","","","","","","","","",""
"html-keyboard-response","356","455735","0.0-15.0-0.25","605de3af48d7a575adb95b09","64e77d7b61f440b60e28659d","64eca8e7ad32a79bee859eb0","null","null","<p style=""font-size: 60px; font-family: BACS"">kbmZOZckv</p>","","","","","","","","",""
"html-keyboard-response","357","456741","0.0-15.0-0.26","605de3af48d7a575adb95b09","64e77d7b61f440b60e28659d","64eca8e7ad32a79bee859eb0","null","null","<p style=""font-size: 60px; font-family: BACS"">kbmZOZckv</p>","","","","","","","","",""
"html-keyboard-response","358","457756","0.0-15.0-0.27","605de3af48d7a575adb95b09","64e77d7b61f440b60e28659d","64eca8e7ad32a79bee859eb0","null","null","<p style=""font-size: 60px; font-family: BACS"">kbmZOZckv</p>","","","","","","","","",""
"html-keyboard-response","359","458770","0.0-15.0-0.28","605de3af48d7a575adb95b09","64e77d7b61f440b60e28659d","64eca8e7ad32a79bee859eb0","null","null","<p style=""font-size: 60px; font-family: BACS"">kbmZOZckv</p>","","","","","","","","",""
"html-keyboard-response","360","459784","0.0-15.0-0.29","605de3af48d7a575adb95b09","64e77d7b61f440b60e28659d","64eca8e7ad32a79bee859eb0","null","null","<p style=""font-size: 60px; font-family: BACS"">kbmZOZckv</p>","","","","","","","","",""
"html-keyboard-response","361","460795","0.0-15.0-0.30","605de3af48d7a575adb95b09","64e77d7b61f440b60e28659d","64eca8e7ad32a79bee859eb0","null","null","<p style=""font-size: 60px; font-family: BACS"">kbmZOZckv</p>","","","","","","","","",""
"html-keyboard-response","362","461813","0.0-15.0-0.31","605de3af48d7a575adb95b09","64e77d7b61f440b60e28659d","64eca8e7ad32a79bee859eb0","null","null","<p style=""font-size: 60px; font-family: BACS"">kbmZOZckv</p>","","","","","","","","",""
"html-keyboard-response","363","462826","0.0-15.0-0.32","605de3af48d7a575adb95b09","64e77d7b61f440b60e28659d","64eca8e7ad32a79bee859eb0","null","null","<p style=""font-size: 60px; font-family: BACS"">kbmZOZckv</p>","","","","","","","","",""
"html-keyboard-response","364","463839","0.0-15.0-0.33","605de3af48d7a575adb95b09","64e77d7b61f440b60e28659d","64eca8e7ad32a79bee859eb0","null","null","<p style=""font-size: 60px; font-family: BACS"">kbmZOZckv</p>","","","","","","","","",""
"html-keyboard-response","365","464853","0.0-15.0-0.34","605de3af48d7a575adb95b09","64e77d7b61f440b60e28659d","64eca8e7ad32a79bee859eb0","null","null","<p style=""font-size: 60px; font-family: BACS"">kbmZOZckv</p>","","","","","","","","",""
"html-keyboard-response","366","465863","0.0-15.0-0.35","605de3af48d7a575adb95b09","64e77d7b61f440b60e28659d","64eca8e7ad32a79bee859eb0","null","null","<p style=""font-size: 60px; font-family: BACS"">kbmZOZckv</p>","","","","","","","","",""
"html-keyboard-response","367","466874","0.0-15.0-0.36","605de3af48d7a575adb95b09","64e77d7b61f440b60e28659d","64eca8e7ad32a79bee859eb0","null","null","<p style=""font-size: 60px; font-family: BACS"">kbmZOZckv</p>","","","","","","","","",""
"html-keyboard-response","368","467888","0.0-15.0-0.37","605de3af48d7a575adb95b09","64e77d7b61f440b60e28659d","64eca8e7ad32a79bee859eb0","null","null","<p style=""font-size: 60px; font-family: BACS"">kbmZOZckv</p>","","","","","","","","",""
"html-keyboard-response","369","468902","0.0-15.0-0.38","605de3af48d7a575adb95b09","64e77d7b61f440b60e28659d","64eca8e7ad32a79bee859eb0","null","null","<p style=""font-size: 60px; font-family: BACS"">kbmZOZckv</p>","","","","","","","","",""
"html-keyboard-response","370","469917","0.0-15.0-0.39","605de3af48d7a575adb95b09","64e77d7b61f440b60e28659d","64eca8e7ad32a79bee859eb0","null","null","<p style=""font-size: 60px; font-family: BACS"">kbmZOZckv</p>","","","","","","","","",""
"html-keyboard-response","371","470933","0.0-15.0-0.40","605de3af48d7a575adb95b09","64e77d7b61f440b60e28659d","64eca8e7ad32a79bee859eb0","null","null","<p style=""font-size: 60px; font-family: BACS"">kbmZOZckv</p>","","","","","","","","",""
"html-keyboard-response","372","471946","0.0-15.0-0.41","605de3af48d7a575adb95b09","64e77d7b61f440b60e28659d","64eca8e7ad32a79bee859eb0","null","null","<p style=""font-size: 60px; font-family: BACS"">kbmZOZckv</p>","","","","","","","","",""
"html-keyboard-response","373","472962","0.0-15.0-0.42","605de3af48d7a575adb95b09","64e77d7b61f440b60e28659d","64eca8e7ad32a79bee859eb0","null","null","<p style=""font-size: 60px; font-family: BACS"">kbmZOZckv</p>","","","","","","","","",""
"html-keyboard-response","374","473973","0.0-15.0-0.43","605de3af48d7a575adb95b09","64e77d7b61f440b60e28659d","64eca8e7ad32a79bee859eb0","null","null","<p style=""font-size: 60px; font-family: BACS"">kbmZOZckv</p>","","","","","","","","",""
"html-keyboard-response","375","474988","0.0-15.0-0.44","605de3af48d7a575adb95b09","64e77d7b61f440b60e28659d","64eca8e7ad32a79bee859eb0","null","null","<p style=""font-size: 60px; font-family: BACS"">kbmZOZckv</p>","","","","","","","","",""
"html-keyboard-response","376","476001","0.0-15.0-0.45","605de3af48d7a575adb95b09","64e77d7b61f440b60e28659d","64eca8e7ad32a79bee859eb0","null","null","<p style=""font-size: 60px; font-family: BACS"">kbmZOZckv</p>","","","","","","","","",""
"html-keyboard-response","377","477014","0.0-15.0-0.46","605de3af48d7a575adb95b09","64e77d7b61f440b60e28659d","64eca8e7ad32a79bee859eb0","null","null","<p style=""font-size: 60px; font-family: BACS"">kbmZOZckv</p>","","","","","","","","",""
"html-keyboard-response","378","478029","0.0-15.0-0.47","605de3af48d7a575adb95b09","64e77d7b61f440b60e28659d","64eca8e7ad32a79bee859eb0","null","null","<p style=""font-size: 60px; font-family: BACS"">kbmZOZckv</p>","","","","","","","","",""
"html-keyboard-response","379","479041","0.0-15.0-0.48","605de3af48d7a575adb95b09","64e77d7b61f440b60e28659d","64eca8e7ad32a79bee859eb0","null","null","<p style=""font-size: 60px; font-family: BACS"">kbmZOZckv</p>","","","","","","","","",""
"html-keyboard-response","380","480058","0.0-15.0-0.49","605de3af48d7a575adb95b09","64e77d7b61f440b60e28659d","64eca8e7ad32a79bee859eb0","null","null","<p style=""font-size: 60px; font-family: BACS"">kbmZOZckv</p>","","","","","","","","",""
"html-keyboard-response","381","481072","0.0-15.0-0.50","605de3af48d7a575adb95b09","64e77d7b61f440b60e28659d","64eca8e7ad32a79bee859eb0","null","null","<p style=""font-size: 60px; font-family: BACS"">kbmZOZckv</p>","","","","","","","","",""
"html-keyboard-response","382","482087","0.0-15.0-0.51","605de3af48d7a575adb95b09","64e77d7b61f440b60e28659d","64eca8e7ad32a79bee859eb0","null","null","<p style=""font-size: 60px; font-family: BACS"">kbmZOZckv</p>","","","","","","","","",""
"html-keyboard-response","383","483097","0.0-15.0-0.52","605de3af48d7a575adb95b09","64e77d7b61f440b60e28659d","64eca8e7ad32a79bee859eb0","null","null","<p style=""font-size: 60px; font-family: BACS"">kbmZOZckv</p>","","","","","","","","",""
"html-keyboard-response","384","484109","0.0-15.0-0.53","605de3af48d7a575adb95b09","64e77d7b61f440b60e28659d","64eca8e7ad32a79bee859eb0","null","null","<p style=""font-size: 60px; font-family: BACS"">kbmZOZckv</p>","","","","","","","","",""
"html-keyboard-response","385","485122","0.0-15.0-0.54","605de3af48d7a575adb95b09","64e77d7b61f440b60e28659d","64eca8e7ad32a79bee859eb0","null","null","<p style=""font-size: 60px; font-family: BACS"">kbmZOZckv</p>","","","","","","","","",""
"html-keyboard-response","386","486135","0.0-15.0-0.55","605de3af48d7a575adb95b09","64e77d7b61f440b60e28659d","64eca8e7ad32a79bee859eb0","null","null","<p style=""font-size: 60px; font-family: BACS"">kbmZOZckv</p>","","","","","","","","",""
"html-keyboard-response","387","487149","0.0-15.0-0.56","605de3af48d7a575adb95b09","64e77d7b61f440b60e28659d","64eca8e7ad32a79bee859eb0","null","null","<p style=""font-size: 60px; font-family: BACS"">kbmZOZckv</p>","","","","","","","","",""
"html-keyboard-response","388","488165","0.0-15.0-0.57","605de3af48d7a575adb95b09","64e77d7b61f440b60e28659d","64eca8e7ad32a79bee859eb0","null","null","<p style=""font-size: 60px; font-family: BACS"">kbmZOZckv</p>","","","","","","","","",""
"html-keyboard-response","389","489184","0.0-15.0-0.58","605de3af48d7a575adb95b09","64e77d7b61f440b60e28659d","64eca8e7ad32a79bee859eb0","null","null","<p style=""font-size: 60px; font-family: BACS"">kbmZOZckv</p>","","","","","","","","",""
"html-keyboard-response","390","490198","0.0-15.0-0.59","605de3af48d7a575adb95b09","64e77d7b61f440b60e28659d","64eca8e7ad32a79bee859eb0","null","null","<p style=""font-size: 60px; font-family: BACS"">kbmZOZckv</p>","","","","","","","","",""
"html-keyboard-response","391","491209","0.0-15.0-0.60","605de3af48d7a575adb95b09","64e77d7b61f440b60e28659d","64eca8e7ad32a79bee859eb0","null","null","<p style=""font-size: 60px; font-family: BACS"">kbmZOZckv</p>","","","","","","","","",""
"html-keyboard-response","392","492223","0.0-15.0-0.61","605de3af48d7a575adb95b09","64e77d7b61f440b60e28659d","64eca8e7ad32a79bee859eb0","null","null","<p style=""font-size: 60px; font-family: BACS"">kbmZOZckv</p>","","","","","","","","",""
"html-keyboard-response","393","493236","0.0-15.0-0.62","605de3af48d7a575adb95b09","64e77d7b61f440b60e28659d","64eca8e7ad32a79bee859eb0","null","null","<p style=""font-size: 60px; font-family: BACS"">kbmZOZckv</p>","","","","","","","","",""
"html-keyboard-response","394","494253","0.0-15.0-0.63","605de3af48d7a575adb95b09","64e77d7b61f440b60e28659d","64eca8e7ad32a79bee859eb0","null","null","<p style=""font-size: 60px; font-family: BACS"">kbmZOZckv</p>","","","","","","","","",""
"html-keyboard-response","395","495266","0.0-15.0-0.64","605de3af48d7a575adb95b09","64e77d7b61f440b60e28659d","64eca8e7ad32a79bee859eb0","null","null","<p style=""font-size: 60px; font-family: BACS"">kbmZOZckv</p>","","","","","","","","",""
"html-keyboard-response","396","496281","0.0-15.0-0.65","605de3af48d7a575adb95b09","64e77d7b61f440b60e28659d","64eca8e7ad32a79bee859eb0","null","null","<p style=""font-size: 60px; font-family: BACS"">kbmZOZckv</p>","","","","","","","","",""
"html-keyboard-response","397","497298","0.0-15.0-0.66","605de3af48d7a575adb95b09","64e77d7b61f440b60e28659d","64eca8e7ad32a79bee859eb0","null","null","<p style=""font-size: 60px; font-family: BACS"">kbmZOZckv</p>","","","","","","","","",""
"html-keyboard-response","398","498310","0.0-15.0-0.67","605de3af48d7a575adb95b09","64e77d7b61f440b60e28659d","64eca8e7ad32a79bee859eb0","null","null","<p style=""font-size: 60px; font-family: BACS"">kbmZOZckv</p>","","","","","","","","",""
"html-keyboard-response","399","499322","0.0-15.0-0.68","605de3af48d7a575adb95b09","64e77d7b61f440b60e28659d","64eca8e7ad32a79bee859eb0","null","null","<p style=""font-size: 60px; font-family: BACS"">kbmZOZckv</p>","","","","","","","","",""
