"trial_type","trial_index","time_elapsed","internal_node_id","subject_id","study_id","session_id","rt","response","stimulus","success","item","task","correct_response","testing_condition","correct","target","confound","name"
"pavlovia","0","660","0.0-0.0","5e6d3324f14d262fced5bbfe","650c16f0f2faf8d7a0d14c09","651c1b1c5a1b7255de67eb32","","","","","","","","","","","",""
"survey-html-form","1","7250","0.0-1.0","5e6d3324f14d262fced5bbfe","650c16f0f2faf8d7a0d14c09","651c1b1c5a1b7255de67eb32","6589","{""ID"":""5e6d3324f14d262fced5bbfe""}","","","","","","","","","",""
"html-keyboard-response","2","16977","0.0-2.0","5e6d3324f14d262fced5bbfe","650c16f0f2faf8d7a0d14c09","651c1b1c5a1b7255de67eb32","9727"," ","<p style=""font-size: 15px;"">Before beginning, we ask that you read the consent information and confirm your agreement to participate in the experiment.</p>
      <p style=""font-size: 15px;""> We ask that you remember that this is a research project and that your participation is entirely voluntary. You can stop your participation at any time, without needing to provide any explanation. The study we're asking you to participate in aims at examining how readers process written words. You will be engaged in a session of apprximately 20 minutes, followed by a brief questionnaire. You will have the opportunity to take a few breaks during the experiment. You will be paid £4 for your participation, corresponding to a rate of £8/hour. While this experiment looks at cognitive faculties, this experiment doesn't constitute clinical proof of eventual pathologies.</p>
      <p style=""font-size: 15px;"">All of the information collected thanks to yours and others' participation will be held in a secure password-protected server, and will not be shared with anyone not authorised to view it. Your personal information will be kept with an arbitrary participant ID. Thanks to this data anonymity process, any researcher analysing the data won't be able to track the information back to a specific participant. Therefore, this process will make identifying you impossibile, even when results from the study will be published in scientific reviews, presented at congresses, or at any other public forum. More generally, the collected data will be treated in accordance with the laws on privacy and conformity to the Legislative Degree n. 196 ""Code regarding the protection of personal data"" of the 30th of June 2003 and to the European Regulation 2016/670 (General Data Protection Regulation - GDPR). The Data Protection Officer is Avv. Valentina Carollo, who can be contacted at the following email addresses: <a href=""mailto:dpo@sissa.it"">dpo@sissa.it</a> or <a href=""mailto:rpd@sissa.it"">rpd@sissa.it</a> - PEC: <a href=""mailto:protocollo@pec.sissa.it"">protocollo@pec.sissa.it</a>.</p>
      <p style=""font-size: 15px;""> Before expressing your consent to participate, we would like to remind you again that in case you need explanations on any aspect of the experimental procedure, the researcher is at your disposition (<a href=""mailto:aliebelt@sissa.it"">aliebelt@sissa.it</a>, <a href=""mailto:davide.crepaldi@sissa.it"">davide.crepaldi@sissa.it</a>).</p>
      <p style=""font-size: 15px;"">If you would like to download the informed consent form, you can do so here: <a href=""BASL-Informed_Consent.pdf"" download>informed consent form</a>.</p>
      <p style=""font-size: 15px;"">We ask that you press the spacebar to proceed to the consent section.</p>","","","","","","","","",""
"survey-html-form","3","29305","0.0-3.0","5e6d3324f14d262fced5bbfe","650c16f0f2faf8d7a0d14c09","651c1b1c5a1b7255de67eb32","12327","{""consent1"":""YES"",""consent2"":""YES"",""consent3"":""YES"",""consent4"":""YES"",""consent5"":""YES"",""consent6"":""YES""}","","","","","","","","","",""
"fullscreen","4","36107","0.0-4.0","5e6d3324f14d262fced5bbfe","650c16f0f2faf8d7a0d14c09","651c1b1c5a1b7255de67eb32","","","","true","","","","","","","",""
"html-keyboard-response","5","47593","0.0-5.0","5e6d3324f14d262fced5bbfe","650c16f0f2faf8d7a0d14c09","651c1b1c5a1b7255de67eb32","11486"," ","<p>Welcome, and thank you very much for your time!</p>
      <p>In this experiment, you'll be a language expert who's been asked to take a look at words that Earth has received in its first communication with aliens. Your task, in this first part of the experiment, is to pay close attention to the words you'll be shown; later, world leaders will ask you questions on what you saw. The words will be shown to you quite quickly; it seems that the aliens were in a hurry :-)</p>
      <p>Press the spacebar to continue.<p>","","","","","","","","",""
"html-keyboard-response","6","47644","0.0-6.0","5e6d3324f14d262fced5bbfe","650c16f0f2faf8d7a0d14c09","651c1b1c5a1b7255de67eb32","null","null","<p style=""font-size: 120px; font-family: BACS""> </p>","","","","","","","","",""
"html-keyboard-response","7","51439","0.0-7.0","5e6d3324f14d262fced5bbfe","650c16f0f2faf8d7a0d14c09","651c1b1c5a1b7255de67eb32","3793"," ","<p>Here is an example of the words you'll see:</p>
      <img src='esempio.png' height='400px'>
      <p>When you're ready to begin, press the spacebar.</p></div>","","","","","","","","",""
"html-keyboard-response","8","52441","0.0-8.0-0.0","5e6d3324f14d262fced5bbfe","650c16f0f2faf8d7a0d14c09","651c1b1c5a1b7255de67eb32","null","null","<p style=""font-size: 60px; font-family: BACS"">rGUAYlLG</p>","","","","","","","","",""
"html-keyboard-response","9","53446","0.0-8.0-0.1","5e6d3324f14d262fced5bbfe","650c16f0f2faf8d7a0d14c09","651c1b1c5a1b7255de67eb32","null","null","<p style=""font-size: 60px; font-family: BACS"">bvkrcrdY</p>","","","","","","","","",""
"html-keyboard-response","10","54456","0.0-8.0-0.2","5e6d3324f14d262fced5bbfe","650c16f0f2faf8d7a0d14c09","651c1b1c5a1b7255de67eb32","null","null","<p style=""font-size: 60px; font-family: BACS"">adkrcUN</p>","","","","","","","","",""
"html-keyboard-response","11","55467","0.0-8.0-0.3","5e6d3324f14d262fced5bbfe","650c16f0f2faf8d7a0d14c09","651c1b1c5a1b7255de67eb32","null","null","<p style=""font-size: 60px; font-family: BACS"">kGamNkJdr</p>","","","","","","","","",""
"html-keyboard-response","12","56470","0.0-8.0-0.4","5e6d3324f14d262fced5bbfe","650c16f0f2faf8d7a0d14c09","651c1b1c5a1b7255de67eb32","null","null","<p style=""font-size: 60px; font-family: BACS"">lZcucUN</p>","","","","","","","","",""
"html-keyboard-response","13","57482","0.0-8.0-0.5","5e6d3324f14d262fced5bbfe","650c16f0f2faf8d7a0d14c09","651c1b1c5a1b7255de67eb32","null","null","<p style=""font-size: 60px; font-family: BACS"">DBPhcBCD</p>","","","","","","","","",""
"html-keyboard-response","14","58492","0.0-8.0-0.6","5e6d3324f14d262fced5bbfe","650c16f0f2faf8d7a0d14c09","651c1b1c5a1b7255de67eb32","null","null","<p style=""font-size: 60px; font-family: BACS"">JNkacrdY</p>","","","","","","","","",""
"html-keyboard-response","15","59496","0.0-8.0-0.7","5e6d3324f14d262fced5bbfe","650c16f0f2faf8d7a0d14c09","651c1b1c5a1b7255de67eb32","null","null","<p style=""font-size: 60px; font-family: BACS"">EtMDMBCD</p>","","","","","","","","",""
"html-keyboard-response","16","60502","0.0-8.0-0.8","5e6d3324f14d262fced5bbfe","650c16f0f2faf8d7a0d14c09","651c1b1c5a1b7255de67eb32","null","null","<p style=""font-size: 60px; font-family: BACS"">JNkaLYGA</p>","","","","","","","","",""
"html-keyboard-response","17","61511","0.0-8.0-0.9","5e6d3324f14d262fced5bbfe","650c16f0f2faf8d7a0d14c09","651c1b1c5a1b7255de67eb32","null","null","<p style=""font-size: 60px; font-family: BACS"">lZculLG</p>","","","","","","","","",""
"html-keyboard-response","18","62521","0.0-8.0-0.10","5e6d3324f14d262fced5bbfe","650c16f0f2faf8d7a0d14c09","651c1b1c5a1b7255de67eb32","null","null","<p style=""font-size: 60px; font-family: BACS"">AbKDPMd</p>","","","","","","","","",""
"html-keyboard-response","19","63534","0.0-8.0-0.11","5e6d3324f14d262fced5bbfe","650c16f0f2faf8d7a0d14c09","651c1b1c5a1b7255de67eb32","null","null","<p style=""font-size: 60px; font-family: BACS"">TKDkEPBT</p>","","","","","","","","",""
"html-keyboard-response","20","64543","0.0-8.0-0.12","5e6d3324f14d262fced5bbfe","650c16f0f2faf8d7a0d14c09","651c1b1c5a1b7255de67eb32","null","null","<p style=""font-size: 60px; font-family: BACS"">UdbdcUN</p>","","","","","","","","",""
"html-keyboard-response","21","65555","0.0-8.0-0.13","5e6d3324f14d262fced5bbfe","650c16f0f2faf8d7a0d14c09","651c1b1c5a1b7255de67eb32","null","null","<p style=""font-size: 60px; font-family: BACS"">hTDdBCD</p>","","","","","","","","",""
"html-keyboard-response","22","66564","0.0-8.0-0.14","5e6d3324f14d262fced5bbfe","650c16f0f2faf8d7a0d14c09","651c1b1c5a1b7255de67eb32","null","null","<p style=""font-size: 60px; font-family: BACS"">AbKDPED</p>","","","","","","","","",""
"html-keyboard-response","23","67575","0.0-8.0-0.15","5e6d3324f14d262fced5bbfe","650c16f0f2faf8d7a0d14c09","651c1b1c5a1b7255de67eb32","null","null","<p style=""font-size: 60px; font-family: BACS"">bvuZLYGA</p>","","","","","","","","",""
"html-keyboard-response","24","68581","0.0-8.0-0.16","5e6d3324f14d262fced5bbfe","650c16f0f2faf8d7a0d14c09","651c1b1c5a1b7255de67eb32","null","null","<p style=""font-size: 60px; font-family: BACS"">TKDkBCD</p>","","","","","","","","",""
"html-keyboard-response","25","69591","0.0-8.0-0.17","5e6d3324f14d262fced5bbfe","650c16f0f2faf8d7a0d14c09","651c1b1c5a1b7255de67eb32","null","null","<p style=""font-size: 60px; font-family: BACS"">cuOJbcrdY</p>","","","","","","","","",""
"html-keyboard-response","26","70597","0.0-8.0-0.18","5e6d3324f14d262fced5bbfe","650c16f0f2faf8d7a0d14c09","651c1b1c5a1b7255de67eb32","null","null","<p style=""font-size: 60px; font-family: BACS"">lZcuLYGA</p>","","","","","","","","",""
"html-keyboard-response","27","71605","0.0-8.0-0.19","5e6d3324f14d262fced5bbfe","650c16f0f2faf8d7a0d14c09","651c1b1c5a1b7255de67eb32","null","null","<p style=""font-size: 60px; font-family: BACS"">bvkrcUN</p>","","","","","","","","",""
"html-keyboard-response","28","72617","0.0-8.0-0.20","5e6d3324f14d262fced5bbfe","650c16f0f2faf8d7a0d14c09","651c1b1c5a1b7255de67eb32","null","null","<p style=""font-size: 60px; font-family: BACS"">KRARmEPBT</p>","","","","","","","","",""
"html-keyboard-response","29","73627","0.0-8.0-0.21","5e6d3324f14d262fced5bbfe","650c16f0f2faf8d7a0d14c09","651c1b1c5a1b7255de67eb32","null","null","<p style=""font-size: 60px; font-family: BACS"">cuOJblLG</p>","","","","","","","","",""
"html-keyboard-response","30","74635","0.0-8.0-0.22","5e6d3324f14d262fced5bbfe","650c16f0f2faf8d7a0d14c09","651c1b1c5a1b7255de67eb32","null","null","<p style=""font-size: 60px; font-family: BACS"">tDPRkPMd</p>","","","","","","","","",""
"html-keyboard-response","31","75640","0.0-8.0-0.23","5e6d3324f14d262fced5bbfe","650c16f0f2faf8d7a0d14c09","651c1b1c5a1b7255de67eb32","null","null","<p style=""font-size: 60px; font-family: BACS"">JNkalLG</p>","","","","","","","","",""
"html-keyboard-response","32","76648","0.0-8.0-0.24","5e6d3324f14d262fced5bbfe","650c16f0f2faf8d7a0d14c09","651c1b1c5a1b7255de67eb32","null","null","<p style=""font-size: 60px; font-family: BACS"">adkrkJdr</p>","","","","","","","","",""
"html-keyboard-response","33","77651","0.0-8.0-0.25","5e6d3324f14d262fced5bbfe","650c16f0f2faf8d7a0d14c09","651c1b1c5a1b7255de67eb32","null","null","<p style=""font-size: 60px; font-family: BACS"">kKRCBCD</p>","","","","","","","","",""
"html-keyboard-response","34","78659","0.0-8.0-0.26","5e6d3324f14d262fced5bbfe","650c16f0f2faf8d7a0d14c09","651c1b1c5a1b7255de67eb32","null","null","<p style=""font-size: 60px; font-family: BACS"">tDPRkPED</p>","","","","","","","","",""
"html-keyboard-response","35","79666","0.0-8.0-0.27","5e6d3324f14d262fced5bbfe","650c16f0f2faf8d7a0d14c09","651c1b1c5a1b7255de67eb32","null","null","<p style=""font-size: 60px; font-family: BACS"">EtMDMOPE</p>","","","","","","","","",""
"html-keyboard-response","36","80674","0.0-8.0-0.28","5e6d3324f14d262fced5bbfe","650c16f0f2faf8d7a0d14c09","651c1b1c5a1b7255de67eb32","null","null","<p style=""font-size: 60px; font-family: BACS"">kGamNLYGA</p>","","","","","","","","",""
"html-keyboard-response","37","81681","0.0-8.0-0.29","5e6d3324f14d262fced5bbfe","650c16f0f2faf8d7a0d14c09","651c1b1c5a1b7255de67eb32","null","null","<p style=""font-size: 60px; font-family: BACS"">DBPhcOPE</p>","","","","","","","","",""
"html-keyboard-response","38","82689","0.0-8.0-0.30","5e6d3324f14d262fced5bbfe","650c16f0f2faf8d7a0d14c09","651c1b1c5a1b7255de67eb32","null","null","<p style=""font-size: 60px; font-family: BACS"">hYDmtPED</p>","","","","","","","","",""
"html-keyboard-response","39","83700","0.0-8.0-0.31","5e6d3324f14d262fced5bbfe","650c16f0f2faf8d7a0d14c09","651c1b1c5a1b7255de67eb32","null","null","<p style=""font-size: 60px; font-family: BACS"">bvkrLYGA</p>","","","","","","","","",""
"html-keyboard-response","40","84709","0.0-8.0-0.32","5e6d3324f14d262fced5bbfe","650c16f0f2faf8d7a0d14c09","651c1b1c5a1b7255de67eb32","null","null","<p style=""font-size: 60px; font-family: BACS"">hTDdOPE</p>","","","","","","","","",""
"html-keyboard-response","41","85716","0.0-8.0-0.33","5e6d3324f14d262fced5bbfe","650c16f0f2faf8d7a0d14c09","651c1b1c5a1b7255de67eb32","null","null","<p style=""font-size: 60px; font-family: BACS"">kGamNcrdY</p>","","","","","","","","",""
"html-keyboard-response","42","86725","0.0-8.0-0.34","5e6d3324f14d262fced5bbfe","650c16f0f2faf8d7a0d14c09","651c1b1c5a1b7255de67eb32","null","null","<p style=""font-size: 60px; font-family: BACS"">UdbdLYGA</p>","","","","","","","","",""
"html-keyboard-response","43","87735","0.0-8.0-0.35","5e6d3324f14d262fced5bbfe","650c16f0f2faf8d7a0d14c09","651c1b1c5a1b7255de67eb32","null","null","<p style=""font-size: 60px; font-family: BACS"">cuOJbcUN</p>","","","","","","","","",""
"html-keyboard-response","44","88748","0.0-8.0-0.36","5e6d3324f14d262fced5bbfe","650c16f0f2faf8d7a0d14c09","651c1b1c5a1b7255de67eb32","null","null","<p style=""font-size: 60px; font-family: BACS"">KRARmOPE</p>","","","","","","","","",""
"html-keyboard-response","45","89760","0.0-8.0-0.37","5e6d3324f14d262fced5bbfe","650c16f0f2faf8d7a0d14c09","651c1b1c5a1b7255de67eb32","null","null","<p style=""font-size: 60px; font-family: BACS"">rGUAYkJdr</p>","","","","","","","","",""
"html-keyboard-response","46","90765","0.0-8.0-0.38","5e6d3324f14d262fced5bbfe","650c16f0f2faf8d7a0d14c09","651c1b1c5a1b7255de67eb32","null","null","<p style=""font-size: 60px; font-family: BACS"">kdaAJLYGA</p>","","","","","","","","",""
"html-keyboard-response","47","91776","0.0-8.0-0.39","5e6d3324f14d262fced5bbfe","650c16f0f2faf8d7a0d14c09","651c1b1c5a1b7255de67eb32","null","null","<p style=""font-size: 60px; font-family: BACS"">EtMDMPED</p>","","","","","","","","",""
"html-keyboard-response","48","92784","0.0-8.0-0.40","5e6d3324f14d262fced5bbfe","650c16f0f2faf8d7a0d14c09","651c1b1c5a1b7255de67eb32","null","null","<p style=""font-size: 60px; font-family: BACS"">hYDmtEPBT</p>","","","","","","","","",""
"html-keyboard-response","49","93798","0.0-8.0-0.41","5e6d3324f14d262fced5bbfe","650c16f0f2faf8d7a0d14c09","651c1b1c5a1b7255de67eb32","null","null","<p style=""font-size: 60px; font-family: BACS"">bvuZcrdY</p>","","","","","","","","",""
"html-keyboard-response","50","94806","0.0-8.0-0.42","5e6d3324f14d262fced5bbfe","650c16f0f2faf8d7a0d14c09","651c1b1c5a1b7255de67eb32","null","null","<p style=""font-size: 60px; font-family: BACS"">kKRCPED</p>","","","","","","","","",""
"html-keyboard-response","51","95817","0.0-8.0-0.43","5e6d3324f14d262fced5bbfe","650c16f0f2faf8d7a0d14c09","651c1b1c5a1b7255de67eb32","null","null","<p style=""font-size: 60px; font-family: BACS"">ctktOPE</p>","","","","","","","","",""
"html-keyboard-response","52","96822","0.0-8.0-0.44","5e6d3324f14d262fced5bbfe","650c16f0f2faf8d7a0d14c09","651c1b1c5a1b7255de67eb32","null","null","<p style=""font-size: 60px; font-family: BACS"">KRARmBCD</p>","","","","","","","","",""
"html-keyboard-response","53","97830","0.0-8.0-0.45","5e6d3324f14d262fced5bbfe","650c16f0f2faf8d7a0d14c09","651c1b1c5a1b7255de67eb32","null","null","<p style=""font-size: 60px; font-family: BACS"">bvuZcUN</p>","","","","","","","","",""
"html-keyboard-response","54","98840","0.0-8.0-0.46","5e6d3324f14d262fced5bbfe","650c16f0f2faf8d7a0d14c09","651c1b1c5a1b7255de67eb32","null","null","<p style=""font-size: 60px; font-family: BACS"">AbKDEPBT</p>","","","","","","","","",""
"html-keyboard-response","55","99847","0.0-8.0-0.47","5e6d3324f14d262fced5bbfe","650c16f0f2faf8d7a0d14c09","651c1b1c5a1b7255de67eb32","null","null","<p style=""font-size: 60px; font-family: BACS"">JNkakJdr</p>","","","","","","","","",""
"html-keyboard-response","56","100858","0.0-8.0-0.48","5e6d3324f14d262fced5bbfe","650c16f0f2faf8d7a0d14c09","651c1b1c5a1b7255de67eb32","null","null","<p style=""font-size: 60px; font-family: BACS"">TKDkPMd</p>","","","","","","","","",""
"html-keyboard-response","57","101863","0.0-8.0-0.49","5e6d3324f14d262fced5bbfe","650c16f0f2faf8d7a0d14c09","651c1b1c5a1b7255de67eb32","null","null","<p style=""font-size: 60px; font-family: BACS"">kKRCOPE</p>","","","","","","","","",""
"html-keyboard-response","58","102869","0.0-8.0-0.50","5e6d3324f14d262fced5bbfe","650c16f0f2faf8d7a0d14c09","651c1b1c5a1b7255de67eb32","null","null","<p style=""font-size: 60px; font-family: BACS"">kdaAJkJdr</p>","","","","","","","","",""
"html-keyboard-response","59","103880","0.0-8.0-0.51","5e6d3324f14d262fced5bbfe","650c16f0f2faf8d7a0d14c09","651c1b1c5a1b7255de67eb32","null","null","<p style=""font-size: 60px; font-family: BACS"">TKDkPED</p>","","","","","","","","",""
"html-keyboard-response","60","104889","0.0-8.0-0.52","5e6d3324f14d262fced5bbfe","650c16f0f2faf8d7a0d14c09","651c1b1c5a1b7255de67eb32","null","null","<p style=""font-size: 60px; font-family: BACS"">ctktEPBT</p>","","","","","","","","",""
"html-keyboard-response","61","105894","0.0-8.0-0.53","5e6d3324f14d262fced5bbfe","650c16f0f2faf8d7a0d14c09","651c1b1c5a1b7255de67eb32","null","null","<p style=""font-size: 60px; font-family: BACS"">bvuZlLG</p>","","","","","","","","",""
"html-keyboard-response","62","106902","0.0-8.0-0.54","5e6d3324f14d262fced5bbfe","650c16f0f2faf8d7a0d14c09","651c1b1c5a1b7255de67eb32","null","null","<p style=""font-size: 60px; font-family: BACS"">hYDmtOPE</p>","","","","","","","","",""
"html-keyboard-response","63","107910","0.0-8.0-0.55","5e6d3324f14d262fced5bbfe","650c16f0f2faf8d7a0d14c09","651c1b1c5a1b7255de67eb32","null","null","<p style=""font-size: 60px; font-family: BACS"">AbKDBCD</p>","","","","","","","","",""
"html-keyboard-response","64","108919","0.0-8.0-0.56","5e6d3324f14d262fced5bbfe","650c16f0f2faf8d7a0d14c09","651c1b1c5a1b7255de67eb32","null","null","<p style=""font-size: 60px; font-family: BACS"">kdaAJlLG</p>","","","","","","","","",""
"html-keyboard-response","65","109929","0.0-8.0-0.57","5e6d3324f14d262fced5bbfe","650c16f0f2faf8d7a0d14c09","651c1b1c5a1b7255de67eb32","null","null","<p style=""font-size: 60px; font-family: BACS"">tDPRkOPE</p>","","","","","","","","",""
"html-keyboard-response","66","110940","0.0-8.0-0.58","5e6d3324f14d262fced5bbfe","650c16f0f2faf8d7a0d14c09","651c1b1c5a1b7255de67eb32","null","null","<p style=""font-size: 60px; font-family: BACS"">cuOJbkJdr</p>","","","","","","","","",""
"html-keyboard-response","67","111946","0.0-8.0-0.59","5e6d3324f14d262fced5bbfe","650c16f0f2faf8d7a0d14c09","651c1b1c5a1b7255de67eb32","null","null","<p style=""font-size: 60px; font-family: BACS"">kdaAJcUN</p>","","","","","","","","",""
"html-keyboard-response","68","112959","0.0-8.0-0.60","5e6d3324f14d262fced5bbfe","650c16f0f2faf8d7a0d14c09","651c1b1c5a1b7255de67eb32","null","null","<p style=""font-size: 60px; font-family: BACS"">hYDmtPMd</p>","","","","","","","","",""
"html-keyboard-response","69","113968","0.0-8.0-0.61","5e6d3324f14d262fced5bbfe","650c16f0f2faf8d7a0d14c09","651c1b1c5a1b7255de67eb32","null","null","<p style=""font-size: 60px; font-family: BACS"">rGUAYLYGA</p>","","","","","","","","",""
"html-keyboard-response","70","114974","0.0-8.0-0.62","5e6d3324f14d262fced5bbfe","650c16f0f2faf8d7a0d14c09","651c1b1c5a1b7255de67eb32","null","null","<p style=""font-size: 60px; font-family: BACS"">ctktBCD</p>","","","","","","","","",""
"html-keyboard-response","71","115983","0.0-8.0-0.63","5e6d3324f14d262fced5bbfe","650c16f0f2faf8d7a0d14c09","651c1b1c5a1b7255de67eb32","null","null","<p style=""font-size: 60px; font-family: BACS"">rGUAYcUN</p>","","","","","","","","",""
"html-keyboard-response","72","116992","0.0-8.0-0.64","5e6d3324f14d262fced5bbfe","650c16f0f2faf8d7a0d14c09","651c1b1c5a1b7255de67eb32","null","null","<p style=""font-size: 60px; font-family: BACS"">adkrlLG</p>","","","","","","","","",""
"html-keyboard-response","73","117996","0.0-8.0-0.65","5e6d3324f14d262fced5bbfe","650c16f0f2faf8d7a0d14c09","651c1b1c5a1b7255de67eb32","null","null","<p style=""font-size: 60px; font-family: BACS"">bvkrkJdr</p>","","","","","","","","",""
"html-keyboard-response","74","119002","0.0-8.0-0.66","5e6d3324f14d262fced5bbfe","650c16f0f2faf8d7a0d14c09","651c1b1c5a1b7255de67eb32","null","null","<p style=""font-size: 60px; font-family: BACS"">lZcucrdY</p>","","","","","","","","",""
"html-keyboard-response","75","120013","0.0-8.0-0.67","5e6d3324f14d262fced5bbfe","650c16f0f2faf8d7a0d14c09","651c1b1c5a1b7255de67eb32","null","null","<p style=""font-size: 60px; font-family: BACS"">kGamNlLG</p>","","","","","","","","",""
"html-keyboard-response","76","121029","0.0-8.0-0.68","5e6d3324f14d262fced5bbfe","650c16f0f2faf8d7a0d14c09","651c1b1c5a1b7255de67eb32","null","null","<p style=""font-size: 60px; font-family: BACS"">kKRCPMd</p>","","","","","","","","",""
"html-keyboard-response","77","122035","0.0-8.0-0.69","5e6d3324f14d262fced5bbfe","650c16f0f2faf8d7a0d14c09","651c1b1c5a1b7255de67eb32","null","null","<p style=""font-size: 60px; font-family: BACS"">hTDdEPBT</p>","","","","","","","","",""
"html-keyboard-response","78","123047","0.0-8.0-0.70","5e6d3324f14d262fced5bbfe","650c16f0f2faf8d7a0d14c09","651c1b1c5a1b7255de67eb32","null","null","<p style=""font-size: 60px; font-family: BACS"">UdbdkJdr</p>","","","","","","","","",""
"html-keyboard-response","79","124056","0.0-8.0-0.71","5e6d3324f14d262fced5bbfe","650c16f0f2faf8d7a0d14c09","651c1b1c5a1b7255de67eb32","null","null","<p style=""font-size: 60px; font-family: BACS"">DBPhcEPBT</p>","","","","","","","","",""
"html-keyboard-response","80","125065","0.0-8.0-0.72","5e6d3324f14d262fced5bbfe","650c16f0f2faf8d7a0d14c09","651c1b1c5a1b7255de67eb32","null","null","<p style=""font-size: 60px; font-family: BACS"">hTDdPMd</p>","","","","","","","","",""
"html-keyboard-response","81","126073","0.0-8.0-0.73","5e6d3324f14d262fced5bbfe","650c16f0f2faf8d7a0d14c09","651c1b1c5a1b7255de67eb32","null","null","<p style=""font-size: 60px; font-family: BACS"">ctktPED</p>","","","","","","","","",""
"html-keyboard-response","82","127076","0.0-8.0-0.74","5e6d3324f14d262fced5bbfe","650c16f0f2faf8d7a0d14c09","651c1b1c5a1b7255de67eb32","null","null","<p style=""font-size: 60px; font-family: BACS"">EtMDMPMd</p>","","","","","","","","",""
"html-keyboard-response","83","128086","0.0-8.0-0.75","5e6d3324f14d262fced5bbfe","650c16f0f2faf8d7a0d14c09","651c1b1c5a1b7255de67eb32","null","null","<p style=""font-size: 60px; font-family: BACS"">UdbdcrdY</p>","","","","","","","","",""
"html-keyboard-response","84","129098","0.0-8.0-0.76","5e6d3324f14d262fced5bbfe","650c16f0f2faf8d7a0d14c09","651c1b1c5a1b7255de67eb32","null","null","<p style=""font-size: 60px; font-family: BACS"">KRARmPED</p>","","","","","","","","",""
"html-keyboard-response","85","130110","0.0-8.0-0.77","5e6d3324f14d262fced5bbfe","650c16f0f2faf8d7a0d14c09","651c1b1c5a1b7255de67eb32","null","null","<p style=""font-size: 60px; font-family: BACS"">DBPhcPMd</p>","","","","","","","","",""
"html-keyboard-response","86","131120","0.0-8.0-0.78","5e6d3324f14d262fced5bbfe","650c16f0f2faf8d7a0d14c09","651c1b1c5a1b7255de67eb32","null","null","<p style=""font-size: 60px; font-family: BACS"">tDPRkEPBT</p>","","","","","","","","",""
"html-keyboard-response","87","132131","0.0-8.0-0.79","5e6d3324f14d262fced5bbfe","650c16f0f2faf8d7a0d14c09","651c1b1c5a1b7255de67eb32","null","null","<p style=""font-size: 60px; font-family: BACS"">adkrcrdY</p>","","","","","","","","",""
"html-keyboard-response","88","146481","0.0-9.0","5e6d3324f14d262fced5bbfe","650c16f0f2faf8d7a0d14c09","651c1b1c5a1b7255de67eb32","14350"," ","<p>Great, you've seen the first block of words. You may now take a short break.</p>
      <p>Press the spacebar when you're ready to continue.</p>","","","","","","","","",""
"html-keyboard-response","89","147493","0.0-10.0-0.0","5e6d3324f14d262fced5bbfe","650c16f0f2faf8d7a0d14c09","651c1b1c5a1b7255de67eb32","null","null","<p style=""font-size: 60px; font-family: BACS"">kGamNlLG</p>","","","","","","","","",""
"html-keyboard-response","90","148503","0.0-10.0-0.1","5e6d3324f14d262fced5bbfe","650c16f0f2faf8d7a0d14c09","651c1b1c5a1b7255de67eb32","null","null","<p style=""font-size: 60px; font-family: BACS"">ctktPED</p>","","","","","","","","",""
"html-keyboard-response","91","149512","0.0-10.0-0.2","5e6d3324f14d262fced5bbfe","650c16f0f2faf8d7a0d14c09","651c1b1c5a1b7255de67eb32","null","null","<p style=""font-size: 60px; font-family: BACS"">JNkaLYGA</p>","","","","","","","","",""
"html-keyboard-response","92","150522","0.0-10.0-0.3","5e6d3324f14d262fced5bbfe","650c16f0f2faf8d7a0d14c09","651c1b1c5a1b7255de67eb32","null","null","<p style=""font-size: 60px; font-family: BACS"">rGUAYlLG</p>","","","","","","","","",""
"html-keyboard-response","93","151530","0.0-10.0-0.4","5e6d3324f14d262fced5bbfe","650c16f0f2faf8d7a0d14c09","651c1b1c5a1b7255de67eb32","null","null","<p style=""font-size: 60px; font-family: BACS"">AbKDPMd</p>","","","","","","","","",""
"html-keyboard-response","94","152539","0.0-10.0-0.5","5e6d3324f14d262fced5bbfe","650c16f0f2faf8d7a0d14c09","651c1b1c5a1b7255de67eb32","null","null","<p style=""font-size: 60px; font-family: BACS"">kGamNkJdr</p>","","","","","","","","",""
"html-keyboard-response","95","153548","0.0-10.0-0.6","5e6d3324f14d262fced5bbfe","650c16f0f2faf8d7a0d14c09","651c1b1c5a1b7255de67eb32","null","null","<p style=""font-size: 60px; font-family: BACS"">bvuZlLG</p>","","","","","","","","",""
"html-keyboard-response","96","154558","0.0-10.0-0.7","5e6d3324f14d262fced5bbfe","650c16f0f2faf8d7a0d14c09","651c1b1c5a1b7255de67eb32","null","null","<p style=""font-size: 60px; font-family: BACS"">UdbdcrdY</p>","","","","","","","","",""
"html-keyboard-response","97","155560","0.0-10.0-0.8","5e6d3324f14d262fced5bbfe","650c16f0f2faf8d7a0d14c09","651c1b1c5a1b7255de67eb32","null","null","<p style=""font-size: 60px; font-family: BACS"">DBPhcEPBT</p>","","","","","","","","",""
"html-keyboard-response","98","156561","0.0-10.0-0.9","5e6d3324f14d262fced5bbfe","650c16f0f2faf8d7a0d14c09","651c1b1c5a1b7255de67eb32","null","null","<p style=""font-size: 60px; font-family: BACS"">bvuZcrdY</p>","","","","","","","","",""
"html-keyboard-response","99","157569","0.0-10.0-0.10","5e6d3324f14d262fced5bbfe","650c16f0f2faf8d7a0d14c09","651c1b1c5a1b7255de67eb32","null","null","<p style=""font-size: 60px; font-family: BACS"">kKRCOPE</p>","","","","","","","","",""
"html-keyboard-response","100","158577","0.0-10.0-0.11","5e6d3324f14d262fced5bbfe","650c16f0f2faf8d7a0d14c09","651c1b1c5a1b7255de67eb32","null","null","<p style=""font-size: 60px; font-family: BACS"">EtMDMPED</p>","","","","","","","","",""
"html-keyboard-response","101","159583","0.0-10.0-0.12","5e6d3324f14d262fced5bbfe","650c16f0f2faf8d7a0d14c09","651c1b1c5a1b7255de67eb32","null","null","<p style=""font-size: 60px; font-family: BACS"">DBPhcOPE</p>","","","","","","","","",""
"html-keyboard-response","102","160586","0.0-10.0-0.13","5e6d3324f14d262fced5bbfe","650c16f0f2faf8d7a0d14c09","651c1b1c5a1b7255de67eb32","null","null","<p style=""font-size: 60px; font-family: BACS"">bvkrkJdr</p>","","","","","","","","",""
"html-keyboard-response","103","161595","0.0-10.0-0.14","5e6d3324f14d262fced5bbfe","650c16f0f2faf8d7a0d14c09","651c1b1c5a1b7255de67eb32","null","null","<p style=""font-size: 60px; font-family: BACS"">ctktOPE</p>","","","","","","","","",""
"html-keyboard-response","104","162597","0.0-10.0-0.15","5e6d3324f14d262fced5bbfe","650c16f0f2faf8d7a0d14c09","651c1b1c5a1b7255de67eb32","null","null","<p style=""font-size: 60px; font-family: BACS"">tDPRkPMd</p>","","","","","","","","",""
"html-keyboard-response","105","163610","0.0-10.0-0.16","5e6d3324f14d262fced5bbfe","650c16f0f2faf8d7a0d14c09","651c1b1c5a1b7255de67eb32","null","null","<p style=""font-size: 60px; font-family: BACS"">cuOJblLG</p>","","","","","","","","",""
"html-keyboard-response","106","164618","0.0-10.0-0.17","5e6d3324f14d262fced5bbfe","650c16f0f2faf8d7a0d14c09","651c1b1c5a1b7255de67eb32","null","null","<p style=""font-size: 60px; font-family: BACS"">kGamNcrdY</p>","","","","","","","","",""
"html-keyboard-response","107","165624","0.0-10.0-0.18","5e6d3324f14d262fced5bbfe","650c16f0f2faf8d7a0d14c09","651c1b1c5a1b7255de67eb32","null","null","<p style=""font-size: 60px; font-family: BACS"">bvuZLYGA</p>","","","","","","","","",""
"html-keyboard-response","108","166630","0.0-10.0-0.19","5e6d3324f14d262fced5bbfe","650c16f0f2faf8d7a0d14c09","651c1b1c5a1b7255de67eb32","null","null","<p style=""font-size: 60px; font-family: BACS"">TKDkEPBT</p>","","","","","","","","",""
"html-keyboard-response","109","167638","0.0-10.0-0.20","5e6d3324f14d262fced5bbfe","650c16f0f2faf8d7a0d14c09","651c1b1c5a1b7255de67eb32","null","null","<p style=""font-size: 60px; font-family: BACS"">kKRCBCD</p>","","","","","","","","",""
"html-keyboard-response","110","168647","0.0-10.0-0.21","5e6d3324f14d262fced5bbfe","650c16f0f2faf8d7a0d14c09","651c1b1c5a1b7255de67eb32","null","null","<p style=""font-size: 60px; font-family: BACS"">hYDmtOPE</p>","","","","","","","","",""
"html-keyboard-response","111","169653","0.0-10.0-0.22","5e6d3324f14d262fced5bbfe","650c16f0f2faf8d7a0d14c09","651c1b1c5a1b7255de67eb32","null","null","<p style=""font-size: 60px; font-family: BACS"">rGUAYkJdr</p>","","","","","","","","",""
"html-keyboard-response","112","170665","0.0-10.0-0.23","5e6d3324f14d262fced5bbfe","650c16f0f2faf8d7a0d14c09","651c1b1c5a1b7255de67eb32","null","null","<p style=""font-size: 60px; font-family: BACS"">bvuZcUN</p>","","","","","","","","",""
"html-keyboard-response","113","171675","0.0-10.0-0.24","5e6d3324f14d262fced5bbfe","650c16f0f2faf8d7a0d14c09","651c1b1c5a1b7255de67eb32","null","null","<p style=""font-size: 60px; font-family: BACS"">hTDdOPE</p>","","","","","","","","",""
"html-keyboard-response","114","172684","0.0-10.0-0.25","5e6d3324f14d262fced5bbfe","650c16f0f2faf8d7a0d14c09","651c1b1c5a1b7255de67eb32","null","null","<p style=""font-size: 60px; font-family: BACS"">JNkacrdY</p>","","","","","","","","",""
"html-keyboard-response","115","173697","0.0-10.0-0.26","5e6d3324f14d262fced5bbfe","650c16f0f2faf8d7a0d14c09","651c1b1c5a1b7255de67eb32","null","null","<p style=""font-size: 60px; font-family: BACS"">AbKDEPBT</p>","","","","","","","","",""
"html-keyboard-response","116","174708","0.0-10.0-0.27","5e6d3324f14d262fced5bbfe","650c16f0f2faf8d7a0d14c09","651c1b1c5a1b7255de67eb32","null","null","<p style=""font-size: 60px; font-family: BACS"">hYDmtPMd</p>","","","","","","","","",""
"html-keyboard-response","117","175718","0.0-10.0-0.28","5e6d3324f14d262fced5bbfe","650c16f0f2faf8d7a0d14c09","651c1b1c5a1b7255de67eb32","null","null","<p style=""font-size: 60px; font-family: BACS"">lZculLG</p>","","","","","","","","",""
"html-keyboard-response","118","176730","0.0-10.0-0.29","5e6d3324f14d262fced5bbfe","650c16f0f2faf8d7a0d14c09","651c1b1c5a1b7255de67eb32","null","null","<p style=""font-size: 60px; font-family: BACS"">cuOJbkJdr</p>","","","","","","","","",""
"html-keyboard-response","119","177739","0.0-10.0-0.30","5e6d3324f14d262fced5bbfe","650c16f0f2faf8d7a0d14c09","651c1b1c5a1b7255de67eb32","null","null","<p style=""font-size: 60px; font-family: BACS"">JNkalLG</p>","","","","","","","","",""
"html-keyboard-response","120","178745","0.0-10.0-0.31","5e6d3324f14d262fced5bbfe","650c16f0f2faf8d7a0d14c09","651c1b1c5a1b7255de67eb32","null","null","<p style=""font-size: 60px; font-family: BACS"">tDPRkOPE</p>","","","","","","","","",""
"html-keyboard-response","121","179753","0.0-10.0-0.32","5e6d3324f14d262fced5bbfe","650c16f0f2faf8d7a0d14c09","651c1b1c5a1b7255de67eb32","null","null","<p style=""font-size: 60px; font-family: BACS"">JNkakJdr</p>","","","","","","","","",""
"html-keyboard-response","122","180759","0.0-10.0-0.33","5e6d3324f14d262fced5bbfe","650c16f0f2faf8d7a0d14c09","651c1b1c5a1b7255de67eb32","null","null","<p style=""font-size: 60px; font-family: BACS"">hTDdBCD</p>","","","","","","","","",""
"html-keyboard-response","123","181769","0.0-10.0-0.34","5e6d3324f14d262fced5bbfe","650c16f0f2faf8d7a0d14c09","651c1b1c5a1b7255de67eb32","null","null","<p style=""font-size: 60px; font-family: BACS"">ctktEPBT</p>","","","","","","","","",""
"html-keyboard-response","124","182777","0.0-10.0-0.35","5e6d3324f14d262fced5bbfe","650c16f0f2faf8d7a0d14c09","651c1b1c5a1b7255de67eb32","null","null","<p style=""font-size: 60px; font-family: BACS"">TKDkBCD</p>","","","","","","","","",""
"html-keyboard-response","125","183789","0.0-10.0-0.36","5e6d3324f14d262fced5bbfe","650c16f0f2faf8d7a0d14c09","651c1b1c5a1b7255de67eb32","null","null","<p style=""font-size: 60px; font-family: BACS"">kdaAJlLG</p>","","","","","","","","",""
"html-keyboard-response","126","184796","0.0-10.0-0.37","5e6d3324f14d262fced5bbfe","650c16f0f2faf8d7a0d14c09","651c1b1c5a1b7255de67eb32","null","null","<p style=""font-size: 60px; font-family: BACS"">adkrcrdY</p>","","","","","","","","",""
"html-keyboard-response","127","185804","0.0-10.0-0.38","5e6d3324f14d262fced5bbfe","650c16f0f2faf8d7a0d14c09","651c1b1c5a1b7255de67eb32","null","null","<p style=""font-size: 60px; font-family: BACS"">kGamNLYGA</p>","","","","","","","","",""
"html-keyboard-response","128","186811","0.0-10.0-0.39","5e6d3324f14d262fced5bbfe","650c16f0f2faf8d7a0d14c09","651c1b1c5a1b7255de67eb32","null","null","<p style=""font-size: 60px; font-family: BACS"">adkrlLG</p>","","","","","","","","",""
"html-keyboard-response","129","187812","0.0-10.0-0.40","5e6d3324f14d262fced5bbfe","650c16f0f2faf8d7a0d14c09","651c1b1c5a1b7255de67eb32","null","null","<p style=""font-size: 60px; font-family: BACS"">UdbdLYGA</p>","","","","","","","","",""
"html-keyboard-response","130","188827","0.0-10.0-0.41","5e6d3324f14d262fced5bbfe","650c16f0f2faf8d7a0d14c09","651c1b1c5a1b7255de67eb32","null","null","<p style=""font-size: 60px; font-family: BACS"">adkrkJdr</p>","","","","","","","","",""
"html-keyboard-response","131","189839","0.0-10.0-0.42","5e6d3324f14d262fced5bbfe","650c16f0f2faf8d7a0d14c09","651c1b1c5a1b7255de67eb32","null","null","<p style=""font-size: 60px; font-family: BACS"">hTDdPMd</p>","","","","","","","","",""
"html-keyboard-response","132","190851","0.0-10.0-0.43","5e6d3324f14d262fced5bbfe","650c16f0f2faf8d7a0d14c09","651c1b1c5a1b7255de67eb32","null","null","<p style=""font-size: 60px; font-family: BACS"">ctktBCD</p>","","","","","","","","",""
"html-keyboard-response","133","191858","0.0-10.0-0.44","5e6d3324f14d262fced5bbfe","650c16f0f2faf8d7a0d14c09","651c1b1c5a1b7255de67eb32","null","null","<p style=""font-size: 60px; font-family: BACS"">kdaAJcUN</p>","","","","","","","","",""
"html-keyboard-response","134","192865","0.0-10.0-0.45","5e6d3324f14d262fced5bbfe","650c16f0f2faf8d7a0d14c09","651c1b1c5a1b7255de67eb32","null","null","<p style=""font-size: 60px; font-family: BACS"">rGUAYLYGA</p>","","","","","","","","",""
"html-keyboard-response","135","193877","0.0-10.0-0.46","5e6d3324f14d262fced5bbfe","650c16f0f2faf8d7a0d14c09","651c1b1c5a1b7255de67eb32","null","null","<p style=""font-size: 60px; font-family: BACS"">adkrcUN</p>","","","","","","","","",""
"html-keyboard-response","136","194885","0.0-10.0-0.47","5e6d3324f14d262fced5bbfe","650c16f0f2faf8d7a0d14c09","651c1b1c5a1b7255de67eb32","null","null","<p style=""font-size: 60px; font-family: BACS"">kdaAJkJdr</p>","","","","","","","","",""
"html-keyboard-response","137","195896","0.0-10.0-0.48","5e6d3324f14d262fced5bbfe","650c16f0f2faf8d7a0d14c09","651c1b1c5a1b7255de67eb32","null","null","<p style=""font-size: 60px; font-family: BACS"">kKRCPMd</p>","","","","","","","","",""
"html-keyboard-response","138","196905","0.0-10.0-0.49","5e6d3324f14d262fced5bbfe","650c16f0f2faf8d7a0d14c09","651c1b1c5a1b7255de67eb32","null","null","<p style=""font-size: 60px; font-family: BACS"">lZcucrdY</p>","","","","","","","","",""
"html-keyboard-response","139","197917","0.0-10.0-0.50","5e6d3324f14d262fced5bbfe","650c16f0f2faf8d7a0d14c09","651c1b1c5a1b7255de67eb32","null","null","<p style=""font-size: 60px; font-family: BACS"">EtMDMBCD</p>","","","","","","","","",""
"html-keyboard-response","140","198925","0.0-10.0-0.51","5e6d3324f14d262fced5bbfe","650c16f0f2faf8d7a0d14c09","651c1b1c5a1b7255de67eb32","null","null","<p style=""font-size: 60px; font-family: BACS"">rGUAYcUN</p>","","","","","","","","",""
"html-keyboard-response","141","199931","0.0-10.0-0.52","5e6d3324f14d262fced5bbfe","650c16f0f2faf8d7a0d14c09","651c1b1c5a1b7255de67eb32","null","null","<p style=""font-size: 60px; font-family: BACS"">tDPRkEPBT</p>","","","","","","","","",""
"html-keyboard-response","142","200939","0.0-10.0-0.53","5e6d3324f14d262fced5bbfe","650c16f0f2faf8d7a0d14c09","651c1b1c5a1b7255de67eb32","null","null","<p style=""font-size: 60px; font-family: BACS"">UdbdkJdr</p>","","","","","","","","",""
"html-keyboard-response","143","201949","0.0-10.0-0.54","5e6d3324f14d262fced5bbfe","650c16f0f2faf8d7a0d14c09","651c1b1c5a1b7255de67eb32","null","null","<p style=""font-size: 60px; font-family: BACS"">TKDkPMd</p>","","","","","","","","",""
"html-keyboard-response","144","202956","0.0-10.0-0.55","5e6d3324f14d262fced5bbfe","650c16f0f2faf8d7a0d14c09","651c1b1c5a1b7255de67eb32","null","null","<p style=""font-size: 60px; font-family: BACS"">KRARmOPE</p>","","","","","","","","",""
"html-keyboard-response","145","203965","0.0-10.0-0.56","5e6d3324f14d262fced5bbfe","650c16f0f2faf8d7a0d14c09","651c1b1c5a1b7255de67eb32","null","null","<p style=""font-size: 60px; font-family: BACS"">EtMDMPMd</p>","","","","","","","","",""
"html-keyboard-response","146","204973","0.0-10.0-0.57","5e6d3324f14d262fced5bbfe","650c16f0f2faf8d7a0d14c09","651c1b1c5a1b7255de67eb32","null","null","<p style=""font-size: 60px; font-family: BACS"">lZcuLYGA</p>","","","","","","","","",""
"html-keyboard-response","147","205983","0.0-10.0-0.58","5e6d3324f14d262fced5bbfe","650c16f0f2faf8d7a0d14c09","651c1b1c5a1b7255de67eb32","null","null","<p style=""font-size: 60px; font-family: BACS"">hYDmtPED</p>","","","","","","","","",""
"html-keyboard-response","148","206989","0.0-10.0-0.59","5e6d3324f14d262fced5bbfe","650c16f0f2faf8d7a0d14c09","651c1b1c5a1b7255de67eb32","null","null","<p style=""font-size: 60px; font-family: BACS"">DBPhcPMd</p>","","","","","","","","",""
"html-keyboard-response","149","207998","0.0-10.0-0.60","5e6d3324f14d262fced5bbfe","650c16f0f2faf8d7a0d14c09","651c1b1c5a1b7255de67eb32","null","null","<p style=""font-size: 60px; font-family: BACS"">bvkrcUN</p>","","","","","","","","",""
"html-keyboard-response","150","209007","0.0-10.0-0.61","5e6d3324f14d262fced5bbfe","650c16f0f2faf8d7a0d14c09","651c1b1c5a1b7255de67eb32","null","null","<p style=""font-size: 60px; font-family: BACS"">tDPRkPED</p>","","","","","","","","",""
"html-keyboard-response","151","210013","0.0-10.0-0.62","5e6d3324f14d262fced5bbfe","650c16f0f2faf8d7a0d14c09","651c1b1c5a1b7255de67eb32","null","null","<p style=""font-size: 60px; font-family: BACS"">EtMDMOPE</p>","","","","","","","","",""
"html-keyboard-response","152","211021","0.0-10.0-0.63","5e6d3324f14d262fced5bbfe","650c16f0f2faf8d7a0d14c09","651c1b1c5a1b7255de67eb32","null","null","<p style=""font-size: 60px; font-family: BACS"">KRARmPED</p>","","","","","","","","",""
"html-keyboard-response","153","212034","0.0-10.0-0.64","5e6d3324f14d262fced5bbfe","650c16f0f2faf8d7a0d14c09","651c1b1c5a1b7255de67eb32","null","null","<p style=""font-size: 60px; font-family: BACS"">cuOJbcrdY</p>","","","","","","","","",""
"html-keyboard-response","154","213039","0.0-10.0-0.65","5e6d3324f14d262fced5bbfe","650c16f0f2faf8d7a0d14c09","651c1b1c5a1b7255de67eb32","null","null","<p style=""font-size: 60px; font-family: BACS"">kdaAJLYGA</p>","","","","","","","","",""
"html-keyboard-response","155","214051","0.0-10.0-0.66","5e6d3324f14d262fced5bbfe","650c16f0f2faf8d7a0d14c09","651c1b1c5a1b7255de67eb32","null","null","<p style=""font-size: 60px; font-family: BACS"">TKDkPED</p>","","","","","","","","",""
"html-keyboard-response","156","215058","0.0-10.0-0.67","5e6d3324f14d262fced5bbfe","650c16f0f2faf8d7a0d14c09","651c1b1c5a1b7255de67eb32","null","null","<p style=""font-size: 60px; font-family: BACS"">hTDdEPBT</p>","","","","","","","","",""
"html-keyboard-response","157","216066","0.0-10.0-0.68","5e6d3324f14d262fced5bbfe","650c16f0f2faf8d7a0d14c09","651c1b1c5a1b7255de67eb32","null","null","<p style=""font-size: 60px; font-family: BACS"">kKRCPED</p>","","","","","","","","",""
"html-keyboard-response","158","217077","0.0-10.0-0.69","5e6d3324f14d262fced5bbfe","650c16f0f2faf8d7a0d14c09","651c1b1c5a1b7255de67eb32","null","null","<p style=""font-size: 60px; font-family: BACS"">cuOJbcUN</p>","","","","","","","","",""
"html-keyboard-response","159","218088","0.0-10.0-0.70","5e6d3324f14d262fced5bbfe","650c16f0f2faf8d7a0d14c09","651c1b1c5a1b7255de67eb32","null","null","<p style=""font-size: 60px; font-family: BACS"">bvkrcrdY</p>","","","","","","","","",""
"html-keyboard-response","160","219097","0.0-10.0-0.71","5e6d3324f14d262fced5bbfe","650c16f0f2faf8d7a0d14c09","651c1b1c5a1b7255de67eb32","null","null","<p style=""font-size: 60px; font-family: BACS"">KRARmBCD</p>","","","","","","","","",""
"html-keyboard-response","161","220106","0.0-10.0-0.72","5e6d3324f14d262fced5bbfe","650c16f0f2faf8d7a0d14c09","651c1b1c5a1b7255de67eb32","null","null","<p style=""font-size: 60px; font-family: BACS"">lZcucUN</p>","","","","","","","","",""
"html-keyboard-response","162","221118","0.0-10.0-0.73","5e6d3324f14d262fced5bbfe","650c16f0f2faf8d7a0d14c09","651c1b1c5a1b7255de67eb32","null","null","<p style=""font-size: 60px; font-family: BACS"">KRARmEPBT</p>","","","","","","","","",""
"html-keyboard-response","163","222127","0.0-10.0-0.74","5e6d3324f14d262fced5bbfe","650c16f0f2faf8d7a0d14c09","651c1b1c5a1b7255de67eb32","null","null","<p style=""font-size: 60px; font-family: BACS"">DBPhcBCD</p>","","","","","","","","",""
"html-keyboard-response","164","223135","0.0-10.0-0.75","5e6d3324f14d262fced5bbfe","650c16f0f2faf8d7a0d14c09","651c1b1c5a1b7255de67eb32","null","null","<p style=""font-size: 60px; font-family: BACS"">AbKDPED</p>","","","","","","","","",""
"html-keyboard-response","165","224139","0.0-10.0-0.76","5e6d3324f14d262fced5bbfe","650c16f0f2faf8d7a0d14c09","651c1b1c5a1b7255de67eb32","null","null","<p style=""font-size: 60px; font-family: BACS"">bvkrLYGA</p>","","","","","","","","",""
"html-keyboard-response","166","225148","0.0-10.0-0.77","5e6d3324f14d262fced5bbfe","650c16f0f2faf8d7a0d14c09","651c1b1c5a1b7255de67eb32","null","null","<p style=""font-size: 60px; font-family: BACS"">AbKDBCD</p>","","","","","","","","",""
"html-keyboard-response","167","226154","0.0-10.0-0.78","5e6d3324f14d262fced5bbfe","650c16f0f2faf8d7a0d14c09","651c1b1c5a1b7255de67eb32","null","null","<p style=""font-size: 60px; font-family: BACS"">hYDmtEPBT</p>","","","","","","","","",""
"html-keyboard-response","168","227165","0.0-10.0-0.79","5e6d3324f14d262fced5bbfe","650c16f0f2faf8d7a0d14c09","651c1b1c5a1b7255de67eb32","null","null","<p style=""font-size: 60px; font-family: BACS"">UdbdcUN</p>","","","","","","","","",""
"html-keyboard-response","169","234204","0.0-11.0","5e6d3324f14d262fced5bbfe","650c16f0f2faf8d7a0d14c09","651c1b1c5a1b7255de67eb32","7038"," ","<p>Great, you've seen the second block of words. You may now take a short break.</p>
      <p>Press the spacebar when you're ready to continue.</p>","","","","","","","","",""
"html-keyboard-response","170","235212","0.0-12.0-0.0","5e6d3324f14d262fced5bbfe","650c16f0f2faf8d7a0d14c09","651c1b1c5a1b7255de67eb32","null","null","<p style=""font-size: 60px; font-family: BACS"">rGUAYkJdr</p>","","","","","","","","",""
"html-keyboard-response","171","236218","0.0-12.0-0.1","5e6d3324f14d262fced5bbfe","650c16f0f2faf8d7a0d14c09","651c1b1c5a1b7255de67eb32","null","null","<p style=""font-size: 60px; font-family: BACS"">hTDdPMd</p>","","","","","","","","",""
"html-keyboard-response","172","237226","0.0-12.0-0.2","5e6d3324f14d262fced5bbfe","650c16f0f2faf8d7a0d14c09","651c1b1c5a1b7255de67eb32","null","null","<p style=""font-size: 60px; font-family: BACS"">cuOJbcUN</p>","","","","","","","","",""
"html-keyboard-response","173","238231","0.0-12.0-0.3","5e6d3324f14d262fced5bbfe","650c16f0f2faf8d7a0d14c09","651c1b1c5a1b7255de67eb32","null","null","<p style=""font-size: 60px; font-family: BACS"">UdbdkJdr</p>","","","","","","","","",""
"html-keyboard-response","174","239238","0.0-12.0-0.4","5e6d3324f14d262fced5bbfe","650c16f0f2faf8d7a0d14c09","651c1b1c5a1b7255de67eb32","null","null","<p style=""font-size: 60px; font-family: BACS"">bvuZLYGA</p>","","","","","","","","",""
"html-keyboard-response","175","240246","0.0-12.0-0.5","5e6d3324f14d262fced5bbfe","650c16f0f2faf8d7a0d14c09","651c1b1c5a1b7255de67eb32","null","null","<p style=""font-size: 60px; font-family: BACS"">tDPRkEPBT</p>","","","","","","","","",""
"html-keyboard-response","176","241257","0.0-12.0-0.6","5e6d3324f14d262fced5bbfe","650c16f0f2faf8d7a0d14c09","651c1b1c5a1b7255de67eb32","null","null","<p style=""font-size: 60px; font-family: BACS"">JNkaLYGA</p>","","","","","","","","",""
"html-keyboard-response","177","242265","0.0-12.0-0.7","5e6d3324f14d262fced5bbfe","650c16f0f2faf8d7a0d14c09","651c1b1c5a1b7255de67eb32","null","null","<p style=""font-size: 60px; font-family: BACS"">kGamNkJdr</p>","","","","","","","","",""
"html-keyboard-response","178","243274","0.0-12.0-0.8","5e6d3324f14d262fced5bbfe","650c16f0f2faf8d7a0d14c09","651c1b1c5a1b7255de67eb32","null","null","<p style=""font-size: 60px; font-family: BACS"">rGUAYlLG</p>","","","","","","","","",""
"html-keyboard-response","179","244283","0.0-12.0-0.9","5e6d3324f14d262fced5bbfe","650c16f0f2faf8d7a0d14c09","651c1b1c5a1b7255de67eb32","null","null","<p style=""font-size: 60px; font-family: BACS"">bvuZcUN</p>","","","","","","","","",""
"html-keyboard-response","180","245293","0.0-12.0-0.10","5e6d3324f14d262fced5bbfe","650c16f0f2faf8d7a0d14c09","651c1b1c5a1b7255de67eb32","null","null","<p style=""font-size: 60px; font-family: BACS"">EtMDMPMd</p>","","","","","","","","",""
"html-keyboard-response","181","246301","0.0-12.0-0.11","5e6d3324f14d262fced5bbfe","650c16f0f2faf8d7a0d14c09","651c1b1c5a1b7255de67eb32","null","null","<p style=""font-size: 60px; font-family: BACS"">hTDdOPE</p>","","","","","","","","",""
"html-keyboard-response","182","247307","0.0-12.0-0.12","5e6d3324f14d262fced5bbfe","650c16f0f2faf8d7a0d14c09","651c1b1c5a1b7255de67eb32","null","null","<p style=""font-size: 60px; font-family: BACS"">kGamNcrdY</p>","","","","","","","","",""
"html-keyboard-response","183","248316","0.0-12.0-0.13","5e6d3324f14d262fced5bbfe","650c16f0f2faf8d7a0d14c09","651c1b1c5a1b7255de67eb32","null","null","<p style=""font-size: 60px; font-family: BACS"">kdaAJkJdr</p>","","","","","","","","",""
"html-keyboard-response","184","249322","0.0-12.0-0.14","5e6d3324f14d262fced5bbfe","650c16f0f2faf8d7a0d14c09","651c1b1c5a1b7255de67eb32","null","null","<p style=""font-size: 60px; font-family: BACS"">bvuZcrdY</p>","","","","","","","","",""
"html-keyboard-response","185","250324","0.0-12.0-0.15","5e6d3324f14d262fced5bbfe","650c16f0f2faf8d7a0d14c09","651c1b1c5a1b7255de67eb32","null","null","<p style=""font-size: 60px; font-family: BACS"">lZcuLYGA</p>","","","","","","","","",""
"html-keyboard-response","186","251328","0.0-12.0-0.16","5e6d3324f14d262fced5bbfe","650c16f0f2faf8d7a0d14c09","651c1b1c5a1b7255de67eb32","null","null","<p style=""font-size: 60px; font-family: BACS"">adkrlLG</p>","","","","","","","","",""
"html-keyboard-response","187","252335","0.0-12.0-0.17","5e6d3324f14d262fced5bbfe","650c16f0f2faf8d7a0d14c09","651c1b1c5a1b7255de67eb32","null","null","<p style=""font-size: 60px; font-family: BACS"">ctktEPBT</p>","","","","","","","","",""
"html-keyboard-response","188","253346","0.0-12.0-0.18","5e6d3324f14d262fced5bbfe","650c16f0f2faf8d7a0d14c09","651c1b1c5a1b7255de67eb32","null","null","<p style=""font-size: 60px; font-family: BACS"">kdaAJlLG</p>","","","","","","","","",""
"html-keyboard-response","189","254355","0.0-12.0-0.19","5e6d3324f14d262fced5bbfe","650c16f0f2faf8d7a0d14c09","651c1b1c5a1b7255de67eb32","null","null","<p style=""font-size: 60px; font-family: BACS"">tDPRkOPE</p>","","","","","","","","",""
"html-keyboard-response","190","255363","0.0-12.0-0.20","5e6d3324f14d262fced5bbfe","650c16f0f2faf8d7a0d14c09","651c1b1c5a1b7255de67eb32","null","null","<p style=""font-size: 60px; font-family: BACS"">ctktBCD</p>","","","","","","","","",""
"html-keyboard-response","191","256371","0.0-12.0-0.21","5e6d3324f14d262fced5bbfe","650c16f0f2faf8d7a0d14c09","651c1b1c5a1b7255de67eb32","null","null","<p style=""font-size: 60px; font-family: BACS"">cuOJbkJdr</p>","","","","","","","","",""
"html-keyboard-response","192","257380","0.0-12.0-0.22","5e6d3324f14d262fced5bbfe","650c16f0f2faf8d7a0d14c09","651c1b1c5a1b7255de67eb32","null","null","<p style=""font-size: 60px; font-family: BACS"">JNkacrdY</p>","","","","","","","","",""
"html-keyboard-response","193","258386","0.0-12.0-0.23","5e6d3324f14d262fced5bbfe","650c16f0f2faf8d7a0d14c09","651c1b1c5a1b7255de67eb32","null","null","<p style=""font-size: 60px; font-family: BACS"">hYDmtOPE</p>","","","","","","","","",""
"html-keyboard-response","194","259391","0.0-12.0-0.24","5e6d3324f14d262fced5bbfe","650c16f0f2faf8d7a0d14c09","651c1b1c5a1b7255de67eb32","null","null","<p style=""font-size: 60px; font-family: BACS"">bvuZlLG</p>","","","","","","","","",""
"html-keyboard-response","195","260397","0.0-12.0-0.25","5e6d3324f14d262fced5bbfe","650c16f0f2faf8d7a0d14c09","651c1b1c5a1b7255de67eb32","null","null","<p style=""font-size: 60px; font-family: BACS"">DBPhcEPBT</p>","","","","","","","","",""
"html-keyboard-response","196","261407","0.0-12.0-0.26","5e6d3324f14d262fced5bbfe","650c16f0f2faf8d7a0d14c09","651c1b1c5a1b7255de67eb32","null","null","<p style=""font-size: 60px; font-family: BACS"">adkrkJdr</p>","","","","","","","","",""
"html-keyboard-response","197","262418","0.0-12.0-0.27","5e6d3324f14d262fced5bbfe","650c16f0f2faf8d7a0d14c09","651c1b1c5a1b7255de67eb32","null","null","<p style=""font-size: 60px; font-family: BACS"">TKDkBCD</p>","","","","","","","","",""
"html-keyboard-response","198","263427","0.0-12.0-0.28","5e6d3324f14d262fced5bbfe","650c16f0f2faf8d7a0d14c09","651c1b1c5a1b7255de67eb32","null","null","<p style=""font-size: 60px; font-family: BACS"">DBPhcOPE</p>","","","","","","","","",""
"html-keyboard-response","199","264436","0.0-12.0-0.29","5e6d3324f14d262fced5bbfe","650c16f0f2faf8d7a0d14c09","651c1b1c5a1b7255de67eb32","null","null","<p style=""font-size: 60px; font-family: BACS"">AbKDEPBT</p>","","","","","","","","",""
"html-keyboard-response","200","265443","0.0-12.0-0.30","5e6d3324f14d262fced5bbfe","650c16f0f2faf8d7a0d14c09","651c1b1c5a1b7255de67eb32","null","null","<p style=""font-size: 60px; font-family: BACS"">tDPRkPED</p>","","","","","","","","",""
"html-keyboard-response","201","266454","0.0-12.0-0.31","5e6d3324f14d262fced5bbfe","650c16f0f2faf8d7a0d14c09","651c1b1c5a1b7255de67eb32","null","null","<p style=""font-size: 60px; font-family: BACS"">UdbdLYGA</p>","","","","","","","","",""
"html-keyboard-response","202","267464","0.0-12.0-0.32","5e6d3324f14d262fced5bbfe","650c16f0f2faf8d7a0d14c09","651c1b1c5a1b7255de67eb32","null","null","<p style=""font-size: 60px; font-family: BACS"">kdaAJcUN</p>","","","","","","","","",""
"html-keyboard-response","203","268474","0.0-12.0-0.33","5e6d3324f14d262fced5bbfe","650c16f0f2faf8d7a0d14c09","651c1b1c5a1b7255de67eb32","null","null","<p style=""font-size: 60px; font-family: BACS"">TKDkPMd</p>","","","","","","","","",""
"html-keyboard-response","204","269485","0.0-12.0-0.34","5e6d3324f14d262fced5bbfe","650c16f0f2faf8d7a0d14c09","651c1b1c5a1b7255de67eb32","null","null","<p style=""font-size: 60px; font-family: BACS"">cuOJblLG</p>","","","","","","","","",""
"html-keyboard-response","205","270492","0.0-12.0-0.35","5e6d3324f14d262fced5bbfe","650c16f0f2faf8d7a0d14c09","651c1b1c5a1b7255de67eb32","null","null","<p style=""font-size: 60px; font-family: BACS"">hYDmtEPBT</p>","","","","","","","","",""
"html-keyboard-response","206","271502","0.0-12.0-0.36","5e6d3324f14d262fced5bbfe","650c16f0f2faf8d7a0d14c09","651c1b1c5a1b7255de67eb32","null","null","<p style=""font-size: 60px; font-family: BACS"">kGamNLYGA</p>","","","","","","","","",""
"html-keyboard-response","207","272513","0.0-12.0-0.37","5e6d3324f14d262fced5bbfe","650c16f0f2faf8d7a0d14c09","651c1b1c5a1b7255de67eb32","null","null","<p style=""font-size: 60px; font-family: BACS"">ctktPED</p>","","","","","","","","",""
"html-keyboard-response","208","273518","0.0-12.0-0.38","5e6d3324f14d262fced5bbfe","650c16f0f2faf8d7a0d14c09","651c1b1c5a1b7255de67eb32","null","null","<p style=""font-size: 60px; font-family: BACS"">DBPhcBCD</p>","","","","","","","","",""
"html-keyboard-response","209","274528","0.0-12.0-0.39","5e6d3324f14d262fced5bbfe","650c16f0f2faf8d7a0d14c09","651c1b1c5a1b7255de67eb32","null","null","<p style=""font-size: 60px; font-family: BACS"">UdbdcrdY</p>","","","","","","","","",""
"html-keyboard-response","210","275535","0.0-12.0-0.40","5e6d3324f14d262fced5bbfe","650c16f0f2faf8d7a0d14c09","651c1b1c5a1b7255de67eb32","null","null","<p style=""font-size: 60px; font-family: BACS"">rGUAYcUN</p>","","","","","","","","",""
"html-keyboard-response","211","276542","0.0-12.0-0.41","5e6d3324f14d262fced5bbfe","650c16f0f2faf8d7a0d14c09","651c1b1c5a1b7255de67eb32","null","null","<p style=""font-size: 60px; font-family: BACS"">KRARmEPBT</p>","","","","","","","","",""
"html-keyboard-response","212","277548","0.0-12.0-0.42","5e6d3324f14d262fced5bbfe","650c16f0f2faf8d7a0d14c09","651c1b1c5a1b7255de67eb32","null","null","<p style=""font-size: 60px; font-family: BACS"">AbKDBCD</p>","","","","","","","","",""
"html-keyboard-response","213","278559","0.0-12.0-0.43","5e6d3324f14d262fced5bbfe","650c16f0f2faf8d7a0d14c09","651c1b1c5a1b7255de67eb32","null","null","<p style=""font-size: 60px; font-family: BACS"">kKRCOPE</p>","","","","","","","","",""
"html-keyboard-response","214","279566","0.0-12.0-0.44","5e6d3324f14d262fced5bbfe","650c16f0f2faf8d7a0d14c09","651c1b1c5a1b7255de67eb32","null","null","<p style=""font-size: 60px; font-family: BACS"">cuOJbcrdY</p>","","","","","","","","",""
"html-keyboard-response","215","280572","0.0-12.0-0.45","5e6d3324f14d262fced5bbfe","650c16f0f2faf8d7a0d14c09","651c1b1c5a1b7255de67eb32","null","null","<p style=""font-size: 60px; font-family: BACS"">JNkalLG</p>","","","","","","","","",""
"html-keyboard-response","216","281579","0.0-12.0-0.46","5e6d3324f14d262fced5bbfe","650c16f0f2faf8d7a0d14c09","651c1b1c5a1b7255de67eb32","null","null","<p style=""font-size: 60px; font-family: BACS"">hYDmtPED</p>","","","","","","","","",""
"html-keyboard-response","217","282581","0.0-12.0-0.47","5e6d3324f14d262fced5bbfe","650c16f0f2faf8d7a0d14c09","651c1b1c5a1b7255de67eb32","null","null","<p style=""font-size: 60px; font-family: BACS"">JNkakJdr</p>","","","","","","","","",""
"html-keyboard-response","218","283595","0.0-12.0-0.48","5e6d3324f14d262fced5bbfe","650c16f0f2faf8d7a0d14c09","651c1b1c5a1b7255de67eb32","null","null","<p style=""font-size: 60px; font-family: BACS"">kKRCPMd</p>","","","","","","","","",""
"html-keyboard-response","219","284607","0.0-12.0-0.49","5e6d3324f14d262fced5bbfe","650c16f0f2faf8d7a0d14c09","651c1b1c5a1b7255de67eb32","null","null","<p style=""font-size: 60px; font-family: BACS"">bvkrLYGA</p>","","","","","","","","",""
"html-keyboard-response","220","285612","0.0-12.0-0.50","5e6d3324f14d262fced5bbfe","650c16f0f2faf8d7a0d14c09","651c1b1c5a1b7255de67eb32","null","null","<p style=""font-size: 60px; font-family: BACS"">TKDkEPBT</p>","","","","","","","","",""
"html-keyboard-response","221","286618","0.0-12.0-0.51","5e6d3324f14d262fced5bbfe","650c16f0f2faf8d7a0d14c09","651c1b1c5a1b7255de67eb32","null","null","<p style=""font-size: 60px; font-family: BACS"">bvkrkJdr</p>","","","","","","","","",""
"html-keyboard-response","222","287627","0.0-12.0-0.52","5e6d3324f14d262fced5bbfe","650c16f0f2faf8d7a0d14c09","651c1b1c5a1b7255de67eb32","null","null","<p style=""font-size: 60px; font-family: BACS"">KRARmPED</p>","","","","","","","","",""
"html-keyboard-response","223","288635","0.0-12.0-0.53","5e6d3324f14d262fced5bbfe","650c16f0f2faf8d7a0d14c09","651c1b1c5a1b7255de67eb32","null","null","<p style=""font-size: 60px; font-family: BACS"">lZcucrdY</p>","","","","","","","","",""
"html-keyboard-response","224","289643","0.0-12.0-0.54","5e6d3324f14d262fced5bbfe","650c16f0f2faf8d7a0d14c09","651c1b1c5a1b7255de67eb32","null","null","<p style=""font-size: 60px; font-family: BACS"">kGamNlLG</p>","","","","","","","","",""
"html-keyboard-response","225","290649","0.0-12.0-0.55","5e6d3324f14d262fced5bbfe","650c16f0f2faf8d7a0d14c09","651c1b1c5a1b7255de67eb32","null","null","<p style=""font-size: 60px; font-family: BACS"">AbKDPED</p>","","","","","","","","",""
"html-keyboard-response","226","291663","0.0-12.0-0.56","5e6d3324f14d262fced5bbfe","650c16f0f2faf8d7a0d14c09","651c1b1c5a1b7255de67eb32","null","null","<p style=""font-size: 60px; font-family: BACS"">bvkrcUN</p>","","","","","","","","",""
"html-keyboard-response","227","292674","0.0-12.0-0.57","5e6d3324f14d262fced5bbfe","650c16f0f2faf8d7a0d14c09","651c1b1c5a1b7255de67eb32","null","null","<p style=""font-size: 60px; font-family: BACS"">kKRCBCD</p>","","","","","","","","",""
"html-keyboard-response","228","293680","0.0-12.0-0.58","5e6d3324f14d262fced5bbfe","650c16f0f2faf8d7a0d14c09","651c1b1c5a1b7255de67eb32","null","null","<p style=""font-size: 60px; font-family: BACS"">lZcucUN</p>","","","","","","","","",""
"html-keyboard-response","229","294687","0.0-12.0-0.59","5e6d3324f14d262fced5bbfe","650c16f0f2faf8d7a0d14c09","651c1b1c5a1b7255de67eb32","null","null","<p style=""font-size: 60px; font-family: BACS"">adkrcrdY</p>","","","","","","","","",""
"html-keyboard-response","230","295696","0.0-12.0-0.60","5e6d3324f14d262fced5bbfe","650c16f0f2faf8d7a0d14c09","651c1b1c5a1b7255de67eb32","null","null","<p style=""font-size: 60px; font-family: BACS"">TKDkPED</p>","","","","","","","","",""
"html-keyboard-response","231","296704","0.0-12.0-0.61","5e6d3324f14d262fced5bbfe","650c16f0f2faf8d7a0d14c09","651c1b1c5a1b7255de67eb32","null","null","<p style=""font-size: 60px; font-family: BACS"">hTDdEPBT</p>","","","","","","","","",""
"html-keyboard-response","232","297713","0.0-12.0-0.62","5e6d3324f14d262fced5bbfe","650c16f0f2faf8d7a0d14c09","651c1b1c5a1b7255de67eb32","null","null","<p style=""font-size: 60px; font-family: BACS"">EtMDMBCD</p>","","","","","","","","",""
"html-keyboard-response","233","298724","0.0-12.0-0.63","5e6d3324f14d262fced5bbfe","650c16f0f2faf8d7a0d14c09","651c1b1c5a1b7255de67eb32","null","null","<p style=""font-size: 60px; font-family: BACS"">adkrcUN</p>","","","","","","","","",""
"html-keyboard-response","234","299732","0.0-12.0-0.64","5e6d3324f14d262fced5bbfe","650c16f0f2faf8d7a0d14c09","651c1b1c5a1b7255de67eb32","null","null","<p style=""font-size: 60px; font-family: BACS"">kKRCPED</p>","","","","","","","","",""
"html-keyboard-response","235","300746","0.0-12.0-0.65","5e6d3324f14d262fced5bbfe","650c16f0f2faf8d7a0d14c09","651c1b1c5a1b7255de67eb32","null","null","<p style=""font-size: 60px; font-family: BACS"">UdbdcUN</p>","","","","","","","","",""
"html-keyboard-response","236","301756","0.0-12.0-0.66","5e6d3324f14d262fced5bbfe","650c16f0f2faf8d7a0d14c09","651c1b1c5a1b7255de67eb32","null","null","<p style=""font-size: 60px; font-family: BACS"">DBPhcPMd</p>","","","","","","","","",""
"html-keyboard-response","237","302767","0.0-12.0-0.67","5e6d3324f14d262fced5bbfe","650c16f0f2faf8d7a0d14c09","651c1b1c5a1b7255de67eb32","null","null","<p style=""font-size: 60px; font-family: BACS"">kdaAJLYGA</p>","","","","","","","","",""
"html-keyboard-response","238","303770","0.0-12.0-0.68","5e6d3324f14d262fced5bbfe","650c16f0f2faf8d7a0d14c09","651c1b1c5a1b7255de67eb32","null","null","<p style=""font-size: 60px; font-family: BACS"">tDPRkPMd</p>","","","","","","","","",""
"html-keyboard-response","239","304778","0.0-12.0-0.69","5e6d3324f14d262fced5bbfe","650c16f0f2faf8d7a0d14c09","651c1b1c5a1b7255de67eb32","null","null","<p style=""font-size: 60px; font-family: BACS"">bvkrcrdY</p>","","","","","","","","",""
"html-keyboard-response","240","305779","0.0-12.0-0.70","5e6d3324f14d262fced5bbfe","650c16f0f2faf8d7a0d14c09","651c1b1c5a1b7255de67eb32","null","null","<p style=""font-size: 60px; font-family: BACS"">AbKDPMd</p>","","","","","","","","",""
"html-keyboard-response","241","306792","0.0-12.0-0.71","5e6d3324f14d262fced5bbfe","650c16f0f2faf8d7a0d14c09","651c1b1c5a1b7255de67eb32","null","null","<p style=""font-size: 60px; font-family: BACS"">lZculLG</p>","","","","","","","","",""
"html-keyboard-response","242","307806","0.0-12.0-0.72","5e6d3324f14d262fced5bbfe","650c16f0f2faf8d7a0d14c09","651c1b1c5a1b7255de67eb32","null","null","<p style=""font-size: 60px; font-family: BACS"">KRARmBCD</p>","","","","","","","","",""
"html-keyboard-response","243","308812","0.0-12.0-0.73","5e6d3324f14d262fced5bbfe","650c16f0f2faf8d7a0d14c09","651c1b1c5a1b7255de67eb32","null","null","<p style=""font-size: 60px; font-family: BACS"">EtMDMOPE</p>","","","","","","","","",""
"html-keyboard-response","244","309820","0.0-12.0-0.74","5e6d3324f14d262fced5bbfe","650c16f0f2faf8d7a0d14c09","651c1b1c5a1b7255de67eb32","null","null","<p style=""font-size: 60px; font-family: BACS"">hTDdBCD</p>","","","","","","","","",""
"html-keyboard-response","245","310832","0.0-12.0-0.75","5e6d3324f14d262fced5bbfe","650c16f0f2faf8d7a0d14c09","651c1b1c5a1b7255de67eb32","null","null","<p style=""font-size: 60px; font-family: BACS"">KRARmOPE</p>","","","","","","","","",""
"html-keyboard-response","246","311842","0.0-12.0-0.76","5e6d3324f14d262fced5bbfe","650c16f0f2faf8d7a0d14c09","651c1b1c5a1b7255de67eb32","null","null","<p style=""font-size: 60px; font-family: BACS"">EtMDMPED</p>","","","","","","","","",""
"html-keyboard-response","247","312848","0.0-12.0-0.77","5e6d3324f14d262fced5bbfe","650c16f0f2faf8d7a0d14c09","651c1b1c5a1b7255de67eb32","null","null","<p style=""font-size: 60px; font-family: BACS"">ctktOPE</p>","","","","","","","","",""
"html-keyboard-response","248","313853","0.0-12.0-0.78","5e6d3324f14d262fced5bbfe","650c16f0f2faf8d7a0d14c09","651c1b1c5a1b7255de67eb32","null","null","<p style=""font-size: 60px; font-family: BACS"">rGUAYLYGA</p>","","","","","","","","",""
"html-keyboard-response","249","314865","0.0-12.0-0.79","5e6d3324f14d262fced5bbfe","650c16f0f2faf8d7a0d14c09","651c1b1c5a1b7255de67eb32","null","null","<p style=""font-size: 60px; font-family: BACS"">hYDmtPMd</p>","","","","","","","","",""
"html-keyboard-response","250","363346","0.0-13.0","5e6d3324f14d262fced5bbfe","650c16f0f2faf8d7a0d14c09","651c1b1c5a1b7255de67eb32","48481"," ","<p>Great, you've seen the third block of words. You may now take a short break.</p>
      <p>Press the spacebar when you're ready to continue.</p>","","","","","","","","",""
"html-keyboard-response","251","364348","0.0-14.0-0.0","5e6d3324f14d262fced5bbfe","650c16f0f2faf8d7a0d14c09","651c1b1c5a1b7255de67eb32","null","null","<p style=""font-size: 60px; font-family: BACS"">TKDkPMd</p>","","","","","","","","",""
"html-keyboard-response","252","365358","0.0-14.0-0.1","5e6d3324f14d262fced5bbfe","650c16f0f2faf8d7a0d14c09","651c1b1c5a1b7255de67eb32","null","null","<p style=""font-size: 60px; font-family: BACS"">bvuZlLG</p>","","","","","","","","",""
"html-keyboard-response","253","366370","0.0-14.0-0.2","5e6d3324f14d262fced5bbfe","650c16f0f2faf8d7a0d14c09","651c1b1c5a1b7255de67eb32","null","null","<p style=""font-size: 60px; font-family: BACS"">kKRCOPE</p>","","","","","","","","",""
"html-keyboard-response","254","367380","0.0-14.0-0.3","5e6d3324f14d262fced5bbfe","650c16f0f2faf8d7a0d14c09","651c1b1c5a1b7255de67eb32","null","null","<p style=""font-size: 60px; font-family: BACS"">adkrcrdY</p>","","","","","","","","",""
"html-keyboard-response","255","368388","0.0-14.0-0.4","5e6d3324f14d262fced5bbfe","650c16f0f2faf8d7a0d14c09","651c1b1c5a1b7255de67eb32","null","null","<p style=""font-size: 60px; font-family: BACS"">kGamNlLG</p>","","","","","","","","",""
"html-keyboard-response","256","369397","0.0-14.0-0.5","5e6d3324f14d262fced5bbfe","650c16f0f2faf8d7a0d14c09","651c1b1c5a1b7255de67eb32","null","null","<p style=""font-size: 60px; font-family: BACS"">EtMDMOPE</p>","","","","","","","","",""
"html-keyboard-response","257","370405","0.0-14.0-0.6","5e6d3324f14d262fced5bbfe","650c16f0f2faf8d7a0d14c09","651c1b1c5a1b7255de67eb32","null","null","<p style=""font-size: 60px; font-family: BACS"">KRARmBCD</p>","","","","","","","","",""
"html-keyboard-response","258","371415","0.0-14.0-0.7","5e6d3324f14d262fced5bbfe","650c16f0f2faf8d7a0d14c09","651c1b1c5a1b7255de67eb32","null","null","<p style=""font-size: 60px; font-family: BACS"">AbKDEPBT</p>","","","","","","","","",""
"html-keyboard-response","259","372429","0.0-14.0-0.8","5e6d3324f14d262fced5bbfe","650c16f0f2faf8d7a0d14c09","651c1b1c5a1b7255de67eb32","null","null","<p style=""font-size: 60px; font-family: BACS"">lZcuLYGA</p>","","","","","","","","",""
"html-keyboard-response","260","373439","0.0-14.0-0.9","5e6d3324f14d262fced5bbfe","650c16f0f2faf8d7a0d14c09","651c1b1c5a1b7255de67eb32","null","null","<p style=""font-size: 60px; font-family: BACS"">kdaAJkJdr</p>","","","","","","","","",""
"html-keyboard-response","261","374452","0.0-14.0-0.10","5e6d3324f14d262fced5bbfe","650c16f0f2faf8d7a0d14c09","651c1b1c5a1b7255de67eb32","null","null","<p style=""font-size: 60px; font-family: BACS"">hTDdBCD</p>","","","","","","","","",""
"html-keyboard-response","262","375462","0.0-14.0-0.11","5e6d3324f14d262fced5bbfe","650c16f0f2faf8d7a0d14c09","651c1b1c5a1b7255de67eb32","null","null","<p style=""font-size: 60px; font-family: BACS"">bvuZcUN</p>","","","","","","","","",""
"html-keyboard-response","263","376472","0.0-14.0-0.12","5e6d3324f14d262fced5bbfe","650c16f0f2faf8d7a0d14c09","651c1b1c5a1b7255de67eb32","null","null","<p style=""font-size: 60px; font-family: BACS"">KRARmOPE</p>","","","","","","","","",""
"html-keyboard-response","264","377486","0.0-14.0-0.13","5e6d3324f14d262fced5bbfe","650c16f0f2faf8d7a0d14c09","651c1b1c5a1b7255de67eb32","null","null","<p style=""font-size: 60px; font-family: BACS"">hYDmtEPBT</p>","","","","","","","","",""
"html-keyboard-response","265","378493","0.0-14.0-0.14","5e6d3324f14d262fced5bbfe","650c16f0f2faf8d7a0d14c09","651c1b1c5a1b7255de67eb32","null","null","<p style=""font-size: 60px; font-family: BACS"">UdbdLYGA</p>","","","","","","","","",""
"html-keyboard-response","266","379497","0.0-14.0-0.15","5e6d3324f14d262fced5bbfe","650c16f0f2faf8d7a0d14c09","651c1b1c5a1b7255de67eb32","null","null","<p style=""font-size: 60px; font-family: BACS"">ctktBCD</p>","","","","","","","","",""
"html-keyboard-response","267","380506","0.0-14.0-0.16","5e6d3324f14d262fced5bbfe","650c16f0f2faf8d7a0d14c09","651c1b1c5a1b7255de67eb32","null","null","<p style=""font-size: 60px; font-family: BACS"">kGamNkJdr</p>","","","","","","","","",""
"html-keyboard-response","268","381515","0.0-14.0-0.17","5e6d3324f14d262fced5bbfe","650c16f0f2faf8d7a0d14c09","651c1b1c5a1b7255de67eb32","null","null","<p style=""font-size: 60px; font-family: BACS"">lZcucrdY</p>","","","","","","","","",""
"html-keyboard-response","269","382524","0.0-14.0-0.18","5e6d3324f14d262fced5bbfe","650c16f0f2faf8d7a0d14c09","651c1b1c5a1b7255de67eb32","null","null","<p style=""font-size: 60px; font-family: BACS"">KRARmEPBT</p>","","","","","","","","",""
"html-keyboard-response","270","383535","0.0-14.0-0.19","5e6d3324f14d262fced5bbfe","650c16f0f2faf8d7a0d14c09","651c1b1c5a1b7255de67eb32","null","null","<p style=""font-size: 60px; font-family: BACS"">ctktPED</p>","","","","","","","","",""
"html-keyboard-response","271","384543","0.0-14.0-0.20","5e6d3324f14d262fced5bbfe","650c16f0f2faf8d7a0d14c09","651c1b1c5a1b7255de67eb32","null","null","<p style=""font-size: 60px; font-family: BACS"">cuOJbcrdY</p>","","","","","","","","",""
"html-keyboard-response","272","385558","0.0-14.0-0.21","5e6d3324f14d262fced5bbfe","650c16f0f2faf8d7a0d14c09","651c1b1c5a1b7255de67eb32","null","null","<p style=""font-size: 60px; font-family: BACS"">kdaAJlLG</p>","","","","","","","","",""
"html-keyboard-response","273","386561","0.0-14.0-0.22","5e6d3324f14d262fced5bbfe","650c16f0f2faf8d7a0d14c09","651c1b1c5a1b7255de67eb32","null","null","<p style=""font-size: 60px; font-family: BACS"">DBPhcEPBT</p>","","","","","","","","",""
"html-keyboard-response","274","387567","0.0-14.0-0.23","5e6d3324f14d262fced5bbfe","650c16f0f2faf8d7a0d14c09","651c1b1c5a1b7255de67eb32","null","null","<p style=""font-size: 60px; font-family: BACS"">kdaAJcUN</p>","","","","","","","","",""
"html-keyboard-response","275","388579","0.0-14.0-0.24","5e6d3324f14d262fced5bbfe","650c16f0f2faf8d7a0d14c09","651c1b1c5a1b7255de67eb32","null","null","<p style=""font-size: 60px; font-family: BACS"">EtMDMPED</p>","","","","","","","","",""
"html-keyboard-response","276","389589","0.0-14.0-0.25","5e6d3324f14d262fced5bbfe","650c16f0f2faf8d7a0d14c09","651c1b1c5a1b7255de67eb32","null","null","<p style=""font-size: 60px; font-family: BACS"">TKDkBCD</p>","","","","","","","","",""
"html-keyboard-response","277","390600","0.0-14.0-0.26","5e6d3324f14d262fced5bbfe","650c16f0f2faf8d7a0d14c09","651c1b1c5a1b7255de67eb32","null","null","<p style=""font-size: 60px; font-family: BACS"">adkrcUN</p>","","","","","","","","",""
"html-keyboard-response","278","391607","0.0-14.0-0.27","5e6d3324f14d262fced5bbfe","650c16f0f2faf8d7a0d14c09","651c1b1c5a1b7255de67eb32","null","null","<p style=""font-size: 60px; font-family: BACS"">bvkrcrdY</p>","","","","","","","","",""
"html-keyboard-response","279","392616","0.0-14.0-0.28","5e6d3324f14d262fced5bbfe","650c16f0f2faf8d7a0d14c09","651c1b1c5a1b7255de67eb32","null","null","<p style=""font-size: 60px; font-family: BACS"">TKDkEPBT</p>","","","","","","","","",""
"html-keyboard-response","280","393621","0.0-14.0-0.29","5e6d3324f14d262fced5bbfe","650c16f0f2faf8d7a0d14c09","651c1b1c5a1b7255de67eb32","null","null","<p style=""font-size: 60px; font-family: BACS"">UdbdkJdr</p>","","","","","","","","",""
"html-keyboard-response","281","394627","0.0-14.0-0.30","5e6d3324f14d262fced5bbfe","650c16f0f2faf8d7a0d14c09","651c1b1c5a1b7255de67eb32","null","null","<p style=""font-size: 60px; font-family: BACS"">AbKDPMd</p>","","","","","","","","",""
"html-keyboard-response","282","395633","0.0-14.0-0.31","5e6d3324f14d262fced5bbfe","650c16f0f2faf8d7a0d14c09","651c1b1c5a1b7255de67eb32","null","null","<p style=""font-size: 60px; font-family: BACS"">DBPhcOPE</p>","","","","","","","","",""
"html-keyboard-response","283","396639","0.0-14.0-0.32","5e6d3324f14d262fced5bbfe","650c16f0f2faf8d7a0d14c09","651c1b1c5a1b7255de67eb32","null","null","<p style=""font-size: 60px; font-family: BACS"">AbKDPED</p>","","","","","","","","",""
"html-keyboard-response","284","397650","0.0-14.0-0.33","5e6d3324f14d262fced5bbfe","650c16f0f2faf8d7a0d14c09","651c1b1c5a1b7255de67eb32","null","null","<p style=""font-size: 60px; font-family: BACS"">kGamNLYGA</p>","","","","","","","","",""
"html-keyboard-response","285","398655","0.0-14.0-0.34","5e6d3324f14d262fced5bbfe","650c16f0f2faf8d7a0d14c09","651c1b1c5a1b7255de67eb32","null","null","<p style=""font-size: 60px; font-family: BACS"">tDPRkPED</p>","","","","","","","","",""
"html-keyboard-response","286","399665","0.0-14.0-0.35","5e6d3324f14d262fced5bbfe","650c16f0f2faf8d7a0d14c09","651c1b1c5a1b7255de67eb32","null","null","<p style=""font-size: 60px; font-family: BACS"">UdbdcUN</p>","","","","","","","","",""
"html-keyboard-response","287","400678","0.0-14.0-0.36","5e6d3324f14d262fced5bbfe","650c16f0f2faf8d7a0d14c09","651c1b1c5a1b7255de67eb32","null","null","<p style=""font-size: 60px; font-family: BACS"">hTDdEPBT</p>","","","","","","","","",""
"html-keyboard-response","288","401684","0.0-14.0-0.37","5e6d3324f14d262fced5bbfe","650c16f0f2faf8d7a0d14c09","651c1b1c5a1b7255de67eb32","null","null","<p style=""font-size: 60px; font-family: BACS"">bvuZLYGA</p>","","","","","","","","",""
"html-keyboard-response","289","402694","0.0-14.0-0.38","5e6d3324f14d262fced5bbfe","650c16f0f2faf8d7a0d14c09","651c1b1c5a1b7255de67eb32","null","null","<p style=""font-size: 60px; font-family: BACS"">hYDmtOPE</p>","","","","","","","","",""
"html-keyboard-response","290","403699","0.0-14.0-0.39","5e6d3324f14d262fced5bbfe","650c16f0f2faf8d7a0d14c09","651c1b1c5a1b7255de67eb32","null","null","<p style=""font-size: 60px; font-family: BACS"">rGUAYLYGA</p>","","","","","","","","",""
"html-keyboard-response","291","404712","0.0-14.0-0.40","5e6d3324f14d262fced5bbfe","650c16f0f2faf8d7a0d14c09","651c1b1c5a1b7255de67eb32","null","null","<p style=""font-size: 60px; font-family: BACS"">cuOJbkJdr</p>","","","","","","","","",""
"html-keyboard-response","292","405713","0.0-14.0-0.41","5e6d3324f14d262fced5bbfe","650c16f0f2faf8d7a0d14c09","651c1b1c5a1b7255de67eb32","null","null","<p style=""font-size: 60px; font-family: BACS"">adkrlLG</p>","","","","","","","","",""
"html-keyboard-response","293","406728","0.0-14.0-0.42","5e6d3324f14d262fced5bbfe","650c16f0f2faf8d7a0d14c09","651c1b1c5a1b7255de67eb32","null","null","<p style=""font-size: 60px; font-family: BACS"">EtMDMPMd</p>","","","","","","","","",""
"html-keyboard-response","294","407737","0.0-14.0-0.43","5e6d3324f14d262fced5bbfe","650c16f0f2faf8d7a0d14c09","651c1b1c5a1b7255de67eb32","null","null","<p style=""font-size: 60px; font-family: BACS"">hTDdOPE</p>","","","","","","","","",""
"html-keyboard-response","295","408746","0.0-14.0-0.44","5e6d3324f14d262fced5bbfe","650c16f0f2faf8d7a0d14c09","651c1b1c5a1b7255de67eb32","null","null","<p style=""font-size: 60px; font-family: BACS"">rGUAYcUN</p>","","","","","","","","",""
"html-keyboard-response","296","409755","0.0-14.0-0.45","5e6d3324f14d262fced5bbfe","650c16f0f2faf8d7a0d14c09","651c1b1c5a1b7255de67eb32","null","null","<p style=""font-size: 60px; font-family: BACS"">tDPRkOPE</p>","","","","","","","","",""
"html-keyboard-response","297","410761","0.0-14.0-0.46","5e6d3324f14d262fced5bbfe","650c16f0f2faf8d7a0d14c09","651c1b1c5a1b7255de67eb32","null","null","<p style=""font-size: 60px; font-family: BACS"">DBPhcPMd</p>","","","","","","","","",""
"html-keyboard-response","298","411768","0.0-14.0-0.47","5e6d3324f14d262fced5bbfe","650c16f0f2faf8d7a0d14c09","651c1b1c5a1b7255de67eb32","null","null","<p style=""font-size: 60px; font-family: BACS"">TKDkPED</p>","","","","","","","","",""
"html-keyboard-response","299","412778","0.0-14.0-0.48","5e6d3324f14d262fced5bbfe","650c16f0f2faf8d7a0d14c09","651c1b1c5a1b7255de67eb32","null","null","<p style=""font-size: 60px; font-family: BACS"">JNkakJdr</p>","","","","","","","","",""
"html-keyboard-response","300","413790","0.0-14.0-0.49","5e6d3324f14d262fced5bbfe","650c16f0f2faf8d7a0d14c09","651c1b1c5a1b7255de67eb32","null","null","<p style=""font-size: 60px; font-family: BACS"">kKRCBCD</p>","","","","","","","","",""
"html-keyboard-response","301","414801","0.0-14.0-0.50","5e6d3324f14d262fced5bbfe","650c16f0f2faf8d7a0d14c09","651c1b1c5a1b7255de67eb32","null","null","<p style=""font-size: 60px; font-family: BACS"">JNkalLG</p>","","","","","","","","",""
"html-keyboard-response","302","415811","0.0-14.0-0.51","5e6d3324f14d262fced5bbfe","650c16f0f2faf8d7a0d14c09","651c1b1c5a1b7255de67eb32","null","null","<p style=""font-size: 60px; font-family: BACS"">rGUAYkJdr</p>","","","","","","","","",""
"html-keyboard-response","303","416817","0.0-14.0-0.52","5e6d3324f14d262fced5bbfe","650c16f0f2faf8d7a0d14c09","651c1b1c5a1b7255de67eb32","null","null","<p style=""font-size: 60px; font-family: BACS"">JNkaLYGA</p>","","","","","","","","",""
"html-keyboard-response","304","417825","0.0-14.0-0.53","5e6d3324f14d262fced5bbfe","650c16f0f2faf8d7a0d14c09","651c1b1c5a1b7255de67eb32","null","null","<p style=""font-size: 60px; font-family: BACS"">EtMDMBCD</p>","","","","","","","","",""
"html-keyboard-response","305","418832","0.0-14.0-0.54","5e6d3324f14d262fced5bbfe","650c16f0f2faf8d7a0d14c09","651c1b1c5a1b7255de67eb32","null","null","<p style=""font-size: 60px; font-family: BACS"">tDPRkPMd</p>","","","","","","","","",""
"html-keyboard-response","306","419842","0.0-14.0-0.55","5e6d3324f14d262fced5bbfe","650c16f0f2faf8d7a0d14c09","651c1b1c5a1b7255de67eb32","null","null","<p style=""font-size: 60px; font-family: BACS"">JNkacrdY</p>","","","","","","","","",""
"html-keyboard-response","307","420848","0.0-14.0-0.56","5e6d3324f14d262fced5bbfe","650c16f0f2faf8d7a0d14c09","651c1b1c5a1b7255de67eb32","null","null","<p style=""font-size: 60px; font-family: BACS"">cuOJbcUN</p>","","","","","","","","",""
"html-keyboard-response","308","421850","0.0-14.0-0.57","5e6d3324f14d262fced5bbfe","650c16f0f2faf8d7a0d14c09","651c1b1c5a1b7255de67eb32","null","null","<p style=""font-size: 60px; font-family: BACS"">ctktOPE</p>","","","","","","","","",""
"html-keyboard-response","309","422859","0.0-14.0-0.58","5e6d3324f14d262fced5bbfe","650c16f0f2faf8d7a0d14c09","651c1b1c5a1b7255de67eb32","null","null","<p style=""font-size: 60px; font-family: BACS"">bvkrcUN</p>","","","","","","","","",""
"html-keyboard-response","310","423866","0.0-14.0-0.59","5e6d3324f14d262fced5bbfe","650c16f0f2faf8d7a0d14c09","651c1b1c5a1b7255de67eb32","null","null","<p style=""font-size: 60px; font-family: BACS"">UdbdcrdY</p>","","","","","","","","",""
"html-keyboard-response","311","424878","0.0-14.0-0.60","5e6d3324f14d262fced5bbfe","650c16f0f2faf8d7a0d14c09","651c1b1c5a1b7255de67eb32","null","null","<p style=""font-size: 60px; font-family: BACS"">hTDdPMd</p>","","","","","","","","",""
"html-keyboard-response","312","425884","0.0-14.0-0.61","5e6d3324f14d262fced5bbfe","650c16f0f2faf8d7a0d14c09","651c1b1c5a1b7255de67eb32","null","null","<p style=""font-size: 60px; font-family: BACS"">hYDmtPED</p>","","","","","","","","",""
"html-keyboard-response","313","426894","0.0-14.0-0.62","5e6d3324f14d262fced5bbfe","650c16f0f2faf8d7a0d14c09","651c1b1c5a1b7255de67eb32","null","null","<p style=""font-size: 60px; font-family: BACS"">DBPhcBCD</p>","","","","","","","","",""
"html-keyboard-response","314","427906","0.0-14.0-0.63","5e6d3324f14d262fced5bbfe","650c16f0f2faf8d7a0d14c09","651c1b1c5a1b7255de67eb32","null","null","<p style=""font-size: 60px; font-family: BACS"">kGamNcrdY</p>","","","","","","","","",""
"html-keyboard-response","315","428914","0.0-14.0-0.64","5e6d3324f14d262fced5bbfe","650c16f0f2faf8d7a0d14c09","651c1b1c5a1b7255de67eb32","null","null","<p style=""font-size: 60px; font-family: BACS"">rGUAYlLG</p>","","","","","","","","",""
"html-keyboard-response","316","429920","0.0-14.0-0.65","5e6d3324f14d262fced5bbfe","650c16f0f2faf8d7a0d14c09","651c1b1c5a1b7255de67eb32","null","null","<p style=""font-size: 60px; font-family: BACS"">bvuZcrdY</p>","","","","","","","","",""
"html-keyboard-response","317","430930","0.0-14.0-0.66","5e6d3324f14d262fced5bbfe","650c16f0f2faf8d7a0d14c09","651c1b1c5a1b7255de67eb32","null","null","<p style=""font-size: 60px; font-family: BACS"">cuOJblLG</p>","","","","","","","","",""
"html-keyboard-response","318","431941","0.0-14.0-0.67","5e6d3324f14d262fced5bbfe","650c16f0f2faf8d7a0d14c09","651c1b1c5a1b7255de67eb32","null","null","<p style=""font-size: 60px; font-family: BACS"">lZcucUN</p>","","","","","","","","",""
"html-keyboard-response","319","432946","0.0-14.0-0.68","5e6d3324f14d262fced5bbfe","650c16f0f2faf8d7a0d14c09","651c1b1c5a1b7255de67eb32","null","null","<p style=""font-size: 60px; font-family: BACS"">kKRCPED</p>","","","","","","","","",""
"html-keyboard-response","320","433955","0.0-14.0-0.69","5e6d3324f14d262fced5bbfe","650c16f0f2faf8d7a0d14c09","651c1b1c5a1b7255de67eb32","null","null","<p style=""font-size: 60px; font-family: BACS"">bvkrkJdr</p>","","","","","","","","",""
"html-keyboard-response","321","434961","0.0-14.0-0.70","5e6d3324f14d262fced5bbfe","650c16f0f2faf8d7a0d14c09","651c1b1c5a1b7255de67eb32","null","null","<p style=""font-size: 60px; font-family: BACS"">kKRCPMd</p>","","","","","","","","",""
"html-keyboard-response","322","435968","0.0-14.0-0.71","5e6d3324f14d262fced5bbfe","650c16f0f2faf8d7a0d14c09","651c1b1c5a1b7255de67eb32","null","null","<p style=""font-size: 60px; font-family: BACS"">AbKDBCD</p>","","","","","","","","",""
"html-keyboard-response","323","436972","0.0-14.0-0.72","5e6d3324f14d262fced5bbfe","650c16f0f2faf8d7a0d14c09","651c1b1c5a1b7255de67eb32","null","null","<p style=""font-size: 60px; font-family: BACS"">tDPRkEPBT</p>","","","","","","","","",""
"html-keyboard-response","324","437979","0.0-14.0-0.73","5e6d3324f14d262fced5bbfe","650c16f0f2faf8d7a0d14c09","651c1b1c5a1b7255de67eb32","null","null","<p style=""font-size: 60px; font-family: BACS"">bvkrLYGA</p>","","","","","","","","",""
"html-keyboard-response","325","438987","0.0-14.0-0.74","5e6d3324f14d262fced5bbfe","650c16f0f2faf8d7a0d14c09","651c1b1c5a1b7255de67eb32","null","null","<p style=""font-size: 60px; font-family: BACS"">adkrkJdr</p>","","","","","","","","",""
"html-keyboard-response","326","440000","0.0-14.0-0.75","5e6d3324f14d262fced5bbfe","650c16f0f2faf8d7a0d14c09","651c1b1c5a1b7255de67eb32","null","null","<p style=""font-size: 60px; font-family: BACS"">ctktEPBT</p>","","","","","","","","",""
"html-keyboard-response","327","441011","0.0-14.0-0.76","5e6d3324f14d262fced5bbfe","650c16f0f2faf8d7a0d14c09","651c1b1c5a1b7255de67eb32","null","null","<p style=""font-size: 60px; font-family: BACS"">kdaAJLYGA</p>","","","","","","","","",""
"html-keyboard-response","328","442020","0.0-14.0-0.77","5e6d3324f14d262fced5bbfe","650c16f0f2faf8d7a0d14c09","651c1b1c5a1b7255de67eb32","null","null","<p style=""font-size: 60px; font-family: BACS"">lZculLG</p>","","","","","","","","",""
"html-keyboard-response","329","443030","0.0-14.0-0.78","5e6d3324f14d262fced5bbfe","650c16f0f2faf8d7a0d14c09","651c1b1c5a1b7255de67eb32","null","null","<p style=""font-size: 60px; font-family: BACS"">hYDmtPMd</p>","","","","","","","","",""
"html-keyboard-response","330","444039","0.0-14.0-0.79","5e6d3324f14d262fced5bbfe","650c16f0f2faf8d7a0d14c09","651c1b1c5a1b7255de67eb32","null","null","<p style=""font-size: 60px; font-family: BACS"">KRARmPED</p>","","","","","","","","",""
"html-keyboard-response","331","472214","0.0-15.0","5e6d3324f14d262fced5bbfe","650c16f0f2faf8d7a0d14c09","651c1b1c5a1b7255de67eb32","28174"," ","<p>Great, you've seen the fourth block of words. You may now take a short break.</p>
      <p>Press the spacebar when you're ready to continue.</p>","","","","","","","","",""
"html-keyboard-response","332","473222","0.0-16.0-0.0","5e6d3324f14d262fced5bbfe","650c16f0f2faf8d7a0d14c09","651c1b1c5a1b7255de67eb32","null","null","<p style=""font-size: 60px; font-family: BACS"">adkrcrdY</p>","","","","","","","","",""
"html-keyboard-response","333","474227","0.0-16.0-0.1","5e6d3324f14d262fced5bbfe","650c16f0f2faf8d7a0d14c09","651c1b1c5a1b7255de67eb32","null","null","<p style=""font-size: 60px; font-family: BACS"">adkrcrdY</p>","","","","","","","","",""
"html-keyboard-response","334","475235","0.0-16.0-0.2","5e6d3324f14d262fced5bbfe","650c16f0f2faf8d7a0d14c09","651c1b1c5a1b7255de67eb32","null","null","<p style=""font-size: 60px; font-family: BACS"">adkrcrdY</p>","","","","","","","","",""
"html-keyboard-response","335","476248","0.0-16.0-0.3","5e6d3324f14d262fced5bbfe","650c16f0f2faf8d7a0d14c09","651c1b1c5a1b7255de67eb32","null","null","<p style=""font-size: 60px; font-family: BACS"">adkrcrdY</p>","","","","","","","","",""
"html-keyboard-response","336","477254","0.0-16.0-0.4","5e6d3324f14d262fced5bbfe","650c16f0f2faf8d7a0d14c09","651c1b1c5a1b7255de67eb32","null","null","<p style=""font-size: 60px; font-family: BACS"">adkrcrdY</p>","","","","","","","","",""
"html-keyboard-response","337","478268","0.0-16.0-0.5","5e6d3324f14d262fced5bbfe","650c16f0f2faf8d7a0d14c09","651c1b1c5a1b7255de67eb32","null","null","<p style=""font-size: 60px; font-family: BACS"">adkrcrdY</p>","","","","","","","","",""
"html-keyboard-response","338","479278","0.0-16.0-0.6","5e6d3324f14d262fced5bbfe","650c16f0f2faf8d7a0d14c09","651c1b1c5a1b7255de67eb32","null","null","<p style=""font-size: 60px; font-family: BACS"">adkrcrdY</p>","","","","","","","","",""
"html-keyboard-response","339","480286","0.0-16.0-0.7","5e6d3324f14d262fced5bbfe","650c16f0f2faf8d7a0d14c09","651c1b1c5a1b7255de67eb32","null","null","<p style=""font-size: 60px; font-family: BACS"">adkrcrdY</p>","","","","","","","","",""
"html-keyboard-response","340","481295","0.0-16.0-0.8","5e6d3324f14d262fced5bbfe","650c16f0f2faf8d7a0d14c09","651c1b1c5a1b7255de67eb32","null","null","<p style=""font-size: 60px; font-family: BACS"">adkrcrdY</p>","","","","","","","","",""
"html-keyboard-response","341","482300","0.0-16.0-0.9","5e6d3324f14d262fced5bbfe","650c16f0f2faf8d7a0d14c09","651c1b1c5a1b7255de67eb32","null","null","<p style=""font-size: 60px; font-family: BACS"">adkrcrdY</p>","","","","","","","","",""
"html-keyboard-response","342","483308","0.0-16.0-0.10","5e6d3324f14d262fced5bbfe","650c16f0f2faf8d7a0d14c09","651c1b1c5a1b7255de67eb32","null","null","<p style=""font-size: 60px; font-family: BACS"">adkrcrdY</p>","","","","","","","","",""
"html-keyboard-response","343","484318","0.0-16.0-0.11","5e6d3324f14d262fced5bbfe","650c16f0f2faf8d7a0d14c09","651c1b1c5a1b7255de67eb32","null","null","<p style=""font-size: 60px; font-family: BACS"">adkrcrdY</p>","","","","","","","","",""
"html-keyboard-response","344","485327","0.0-16.0-0.12","5e6d3324f14d262fced5bbfe","650c16f0f2faf8d7a0d14c09","651c1b1c5a1b7255de67eb32","null","null","<p style=""font-size: 60px; font-family: BACS"">adkrcrdY</p>","","","","","","","","",""
"html-keyboard-response","345","486338","0.0-16.0-0.13","5e6d3324f14d262fced5bbfe","650c16f0f2faf8d7a0d14c09","651c1b1c5a1b7255de67eb32","null","null","<p style=""font-size: 60px; font-family: BACS"">adkrcrdY</p>","","","","","","","","",""
"html-keyboard-response","346","487347","0.0-16.0-0.14","5e6d3324f14d262fced5bbfe","650c16f0f2faf8d7a0d14c09","651c1b1c5a1b7255de67eb32","null","null","<p style=""font-size: 60px; font-family: BACS"">adkrcrdY</p>","","","","","","","","",""
"html-keyboard-response","347","488356","0.0-16.0-0.15","5e6d3324f14d262fced5bbfe","650c16f0f2faf8d7a0d14c09","651c1b1c5a1b7255de67eb32","null","null","<p style=""font-size: 60px; font-family: BACS"">adkrcrdY</p>","","","","","","","","",""
"html-keyboard-response","348","489364","0.0-16.0-0.16","5e6d3324f14d262fced5bbfe","650c16f0f2faf8d7a0d14c09","651c1b1c5a1b7255de67eb32","null","null","<p style=""font-size: 60px; font-family: BACS"">adkrcrdY</p>","","","","","","","","",""
"html-keyboard-response","349","490371","0.0-16.0-0.17","5e6d3324f14d262fced5bbfe","650c16f0f2faf8d7a0d14c09","651c1b1c5a1b7255de67eb32","null","null","<p style=""font-size: 60px; font-family: BACS"">adkrcrdY</p>","","","","","","","","",""
"html-keyboard-response","350","491377","0.0-16.0-0.18","5e6d3324f14d262fced5bbfe","650c16f0f2faf8d7a0d14c09","651c1b1c5a1b7255de67eb32","null","null","<p style=""font-size: 60px; font-family: BACS"">adkrcrdY</p>","","","","","","","","",""
"html-keyboard-response","351","492385","0.0-16.0-0.19","5e6d3324f14d262fced5bbfe","650c16f0f2faf8d7a0d14c09","651c1b1c5a1b7255de67eb32","null","null","<p style=""font-size: 60px; font-family: BACS"">adkrcrdY</p>","","","","","","","","",""
"html-keyboard-response","352","493394","0.0-16.0-0.20","5e6d3324f14d262fced5bbfe","650c16f0f2faf8d7a0d14c09","651c1b1c5a1b7255de67eb32","null","null","<p style=""font-size: 60px; font-family: BACS"">adkrcrdY</p>","","","","","","","","",""
"html-keyboard-response","353","494401","0.0-16.0-0.21","5e6d3324f14d262fced5bbfe","650c16f0f2faf8d7a0d14c09","651c1b1c5a1b7255de67eb32","null","null","<p style=""font-size: 60px; font-family: BACS"">adkrcrdY</p>","","","","","","","","",""
"html-keyboard-response","354","495410","0.0-16.0-0.22","5e6d3324f14d262fced5bbfe","650c16f0f2faf8d7a0d14c09","651c1b1c5a1b7255de67eb32","null","null","<p style=""font-size: 60px; font-family: BACS"">adkrcrdY</p>","","","","","","","","",""
"html-keyboard-response","355","496422","0.0-16.0-0.23","5e6d3324f14d262fced5bbfe","650c16f0f2faf8d7a0d14c09","651c1b1c5a1b7255de67eb32","null","null","<p style=""font-size: 60px; font-family: BACS"">adkrcrdY</p>","","","","","","","","",""
"html-keyboard-response","356","497436","0.0-16.0-0.24","5e6d3324f14d262fced5bbfe","650c16f0f2faf8d7a0d14c09","651c1b1c5a1b7255de67eb32","null","null","<p style=""font-size: 60px; font-family: BACS"">adkrcrdY</p>","","","","","","","","",""
"html-keyboard-response","357","498447","0.0-16.0-0.25","5e6d3324f14d262fced5bbfe","650c16f0f2faf8d7a0d14c09","651c1b1c5a1b7255de67eb32","null","null","<p style=""font-size: 60px; font-family: BACS"">adkrcrdY</p>","","","","","","","","",""
"html-keyboard-response","358","499458","0.0-16.0-0.26","5e6d3324f14d262fced5bbfe","650c16f0f2faf8d7a0d14c09","651c1b1c5a1b7255de67eb32","null","null","<p style=""font-size: 60px; font-family: BACS"">adkrcrdY</p>","","","","","","","","",""
"html-keyboard-response","359","500470","0.0-16.0-0.27","5e6d3324f14d262fced5bbfe","650c16f0f2faf8d7a0d14c09","651c1b1c5a1b7255de67eb32","null","null","<p style=""font-size: 60px; font-family: BACS"">adkrcrdY</p>","","","","","","","","",""
"html-keyboard-response","360","501478","0.0-16.0-0.28","5e6d3324f14d262fced5bbfe","650c16f0f2faf8d7a0d14c09","651c1b1c5a1b7255de67eb32","null","null","<p style=""font-size: 60px; font-family: BACS"">adkrcrdY</p>","","","","","","","","",""
"html-keyboard-response","361","502487","0.0-16.0-0.29","5e6d3324f14d262fced5bbfe","650c16f0f2faf8d7a0d14c09","651c1b1c5a1b7255de67eb32","null","null","<p style=""font-size: 60px; font-family: BACS"">adkrcrdY</p>","","","","","","","","",""
"html-keyboard-response","362","503494","0.0-16.0-0.30","5e6d3324f14d262fced5bbfe","650c16f0f2faf8d7a0d14c09","651c1b1c5a1b7255de67eb32","null","null","<p style=""font-size: 60px; font-family: BACS"">adkrcrdY</p>","","","","","","","","",""
"html-keyboard-response","363","504502","0.0-16.0-0.31","5e6d3324f14d262fced5bbfe","650c16f0f2faf8d7a0d14c09","651c1b1c5a1b7255de67eb32","null","null","<p style=""font-size: 60px; font-family: BACS"">adkrcrdY</p>","","","","","","","","",""
"html-keyboard-response","364","505511","0.0-16.0-0.32","5e6d3324f14d262fced5bbfe","650c16f0f2faf8d7a0d14c09","651c1b1c5a1b7255de67eb32","null","null","<p style=""font-size: 60px; font-family: BACS"">adkrcrdY</p>","","","","","","","","",""
"html-keyboard-response","365","506522","0.0-16.0-0.33","5e6d3324f14d262fced5bbfe","650c16f0f2faf8d7a0d14c09","651c1b1c5a1b7255de67eb32","null","null","<p style=""font-size: 60px; font-family: BACS"">adkrcrdY</p>","","","","","","","","",""
"html-keyboard-response","366","507531","0.0-16.0-0.34","5e6d3324f14d262fced5bbfe","650c16f0f2faf8d7a0d14c09","651c1b1c5a1b7255de67eb32","null","null","<p style=""font-size: 60px; font-family: BACS"">adkrcrdY</p>","","","","","","","","",""
"html-keyboard-response","367","508542","0.0-16.0-0.35","5e6d3324f14d262fced5bbfe","650c16f0f2faf8d7a0d14c09","651c1b1c5a1b7255de67eb32","null","null","<p style=""font-size: 60px; font-family: BACS"">adkrcrdY</p>","","","","","","","","",""
"html-keyboard-response","368","509553","0.0-16.0-0.36","5e6d3324f14d262fced5bbfe","650c16f0f2faf8d7a0d14c09","651c1b1c5a1b7255de67eb32","null","null","<p style=""font-size: 60px; font-family: BACS"">adkrcrdY</p>","","","","","","","","",""
"html-keyboard-response","369","510564","0.0-16.0-0.37","5e6d3324f14d262fced5bbfe","650c16f0f2faf8d7a0d14c09","651c1b1c5a1b7255de67eb32","null","null","<p style=""font-size: 60px; font-family: BACS"">adkrcrdY</p>","","","","","","","","",""
"html-keyboard-response","370","511573","0.0-16.0-0.38","5e6d3324f14d262fced5bbfe","650c16f0f2faf8d7a0d14c09","651c1b1c5a1b7255de67eb32","null","null","<p style=""font-size: 60px; font-family: BACS"">adkrcrdY</p>","","","","","","","","",""
"html-keyboard-response","371","512577","0.0-16.0-0.39","5e6d3324f14d262fced5bbfe","650c16f0f2faf8d7a0d14c09","651c1b1c5a1b7255de67eb32","null","null","<p style=""font-size: 60px; font-family: BACS"">adkrcrdY</p>","","","","","","","","",""
"html-keyboard-response","372","513585","0.0-16.0-0.40","5e6d3324f14d262fced5bbfe","650c16f0f2faf8d7a0d14c09","651c1b1c5a1b7255de67eb32","null","null","<p style=""font-size: 60px; font-family: BACS"">adkrcrdY</p>","","","","","","","","",""
"html-keyboard-response","373","514596","0.0-16.0-0.41","5e6d3324f14d262fced5bbfe","650c16f0f2faf8d7a0d14c09","651c1b1c5a1b7255de67eb32","null","null","<p style=""font-size: 60px; font-family: BACS"">adkrcrdY</p>","","","","","","","","",""
"html-keyboard-response","374","515606","0.0-16.0-0.42","5e6d3324f14d262fced5bbfe","650c16f0f2faf8d7a0d14c09","651c1b1c5a1b7255de67eb32","null","null","<p style=""font-size: 60px; font-family: BACS"">adkrcrdY</p>","","","","","","","","",""
"html-keyboard-response","375","516615","0.0-16.0-0.43","5e6d3324f14d262fced5bbfe","650c16f0f2faf8d7a0d14c09","651c1b1c5a1b7255de67eb32","null","null","<p style=""font-size: 60px; font-family: BACS"">adkrcrdY</p>","","","","","","","","",""
"html-keyboard-response","376","517620","0.0-16.0-0.44","5e6d3324f14d262fced5bbfe","650c16f0f2faf8d7a0d14c09","651c1b1c5a1b7255de67eb32","null","null","<p style=""font-size: 60px; font-family: BACS"">adkrcrdY</p>","","","","","","","","",""
"html-keyboard-response","377","518629","0.0-16.0-0.45","5e6d3324f14d262fced5bbfe","650c16f0f2faf8d7a0d14c09","651c1b1c5a1b7255de67eb32","null","null","<p style=""font-size: 60px; font-family: BACS"">adkrcrdY</p>","","","","","","","","",""
"html-keyboard-response","378","519638","0.0-16.0-0.46","5e6d3324f14d262fced5bbfe","650c16f0f2faf8d7a0d14c09","651c1b1c5a1b7255de67eb32","null","null","<p style=""font-size: 60px; font-family: BACS"">adkrcrdY</p>","","","","","","","","",""
"html-keyboard-response","379","520649","0.0-16.0-0.47","5e6d3324f14d262fced5bbfe","650c16f0f2faf8d7a0d14c09","651c1b1c5a1b7255de67eb32","null","null","<p style=""font-size: 60px; font-family: BACS"">adkrcrdY</p>","","","","","","","","",""
"html-keyboard-response","380","521655","0.0-16.0-0.48","5e6d3324f14d262fced5bbfe","650c16f0f2faf8d7a0d14c09","651c1b1c5a1b7255de67eb32","null","null","<p style=""font-size: 60px; font-family: BACS"">adkrcrdY</p>","","","","","","","","",""
"html-keyboard-response","381","522659","0.0-16.0-0.49","5e6d3324f14d262fced5bbfe","650c16f0f2faf8d7a0d14c09","651c1b1c5a1b7255de67eb32","null","null","<p style=""font-size: 60px; font-family: BACS"">adkrcrdY</p>","","","","","","","","",""
"html-keyboard-response","382","523664","0.0-16.0-0.50","5e6d3324f14d262fced5bbfe","650c16f0f2faf8d7a0d14c09","651c1b1c5a1b7255de67eb32","null","null","<p style=""font-size: 60px; font-family: BACS"">adkrcrdY</p>","","","","","","","","",""
"html-keyboard-response","383","524675","0.0-16.0-0.51","5e6d3324f14d262fced5bbfe","650c16f0f2faf8d7a0d14c09","651c1b1c5a1b7255de67eb32","null","null","<p style=""font-size: 60px; font-family: BACS"">adkrcrdY</p>","","","","","","","","",""
"html-keyboard-response","384","525683","0.0-16.0-0.52","5e6d3324f14d262fced5bbfe","650c16f0f2faf8d7a0d14c09","651c1b1c5a1b7255de67eb32","null","null","<p style=""font-size: 60px; font-family: BACS"">adkrcrdY</p>","","","","","","","","",""
"html-keyboard-response","385","526693","0.0-16.0-0.53","5e6d3324f14d262fced5bbfe","650c16f0f2faf8d7a0d14c09","651c1b1c5a1b7255de67eb32","null","null","<p style=""font-size: 60px; font-family: BACS"">adkrcrdY</p>","","","","","","","","",""
"html-keyboard-response","386","527700","0.0-16.0-0.54","5e6d3324f14d262fced5bbfe","650c16f0f2faf8d7a0d14c09","651c1b1c5a1b7255de67eb32","null","null","<p style=""font-size: 60px; font-family: BACS"">adkrcrdY</p>","","","","","","","","",""
"html-keyboard-response","387","528711","0.0-16.0-0.55","5e6d3324f14d262fced5bbfe","650c16f0f2faf8d7a0d14c09","651c1b1c5a1b7255de67eb32","null","null","<p style=""font-size: 60px; font-family: BACS"">adkrcrdY</p>","","","","","","","","",""
"html-keyboard-response","388","529722","0.0-16.0-0.56","5e6d3324f14d262fced5bbfe","650c16f0f2faf8d7a0d14c09","651c1b1c5a1b7255de67eb32","null","null","<p style=""font-size: 60px; font-family: BACS"">adkrcrdY</p>","","","","","","","","",""
"html-keyboard-response","389","530730","0.0-16.0-0.57","5e6d3324f14d262fced5bbfe","650c16f0f2faf8d7a0d14c09","651c1b1c5a1b7255de67eb32","null","null","<p style=""font-size: 60px; font-family: BACS"">adkrcrdY</p>","","","","","","","","",""
"html-keyboard-response","390","531736","0.0-16.0-0.58","5e6d3324f14d262fced5bbfe","650c16f0f2faf8d7a0d14c09","651c1b1c5a1b7255de67eb32","null","null","<p style=""font-size: 60px; font-family: BACS"">adkrcrdY</p>","","","","","","","","",""
"html-keyboard-response","391","532746","0.0-16.0-0.59","5e6d3324f14d262fced5bbfe","650c16f0f2faf8d7a0d14c09","651c1b1c5a1b7255de67eb32","null","null","<p style=""font-size: 60px; font-family: BACS"">adkrcrdY</p>","","","","","","","","",""
"html-keyboard-response","392","533752","0.0-16.0-0.60","5e6d3324f14d262fced5bbfe","650c16f0f2faf8d7a0d14c09","651c1b1c5a1b7255de67eb32","null","null","<p style=""font-size: 60px; font-family: BACS"">adkrcrdY</p>","","","","","","","","",""
"html-keyboard-response","393","534760","0.0-16.0-0.61","5e6d3324f14d262fced5bbfe","650c16f0f2faf8d7a0d14c09","651c1b1c5a1b7255de67eb32","null","null","<p style=""font-size: 60px; font-family: BACS"">adkrcrdY</p>","","","","","","","","",""
"html-keyboard-response","394","535769","0.0-16.0-0.62","5e6d3324f14d262fced5bbfe","650c16f0f2faf8d7a0d14c09","651c1b1c5a1b7255de67eb32","null","null","<p style=""font-size: 60px; font-family: BACS"">adkrcrdY</p>","","","","","","","","",""
"html-keyboard-response","395","536780","0.0-16.0-0.63","5e6d3324f14d262fced5bbfe","650c16f0f2faf8d7a0d14c09","651c1b1c5a1b7255de67eb32","null","null","<p style=""font-size: 60px; font-family: BACS"">adkrcrdY</p>","","","","","","","","",""
"html-keyboard-response","396","537787","0.0-16.0-0.64","5e6d3324f14d262fced5bbfe","650c16f0f2faf8d7a0d14c09","651c1b1c5a1b7255de67eb32","null","null","<p style=""font-size: 60px; font-family: BACS"">adkrcrdY</p>","","","","","","","","",""
"html-keyboard-response","397","538800","0.0-16.0-0.65","5e6d3324f14d262fced5bbfe","650c16f0f2faf8d7a0d14c09","651c1b1c5a1b7255de67eb32","null","null","<p style=""font-size: 60px; font-family: BACS"">adkrcrdY</p>","","","","","","","","",""
"html-keyboard-response","398","539807","0.0-16.0-0.66","5e6d3324f14d262fced5bbfe","650c16f0f2faf8d7a0d14c09","651c1b1c5a1b7255de67eb32","null","null","<p style=""font-size: 60px; font-family: BACS"">adkrcrdY</p>","","","","","","","","",""
"html-keyboard-response","399","540818","0.0-16.0-0.67","5e6d3324f14d262fced5bbfe","650c16f0f2faf8d7a0d14c09","651c1b1c5a1b7255de67eb32","null","null","<p style=""font-size: 60px; font-family: BACS"">adkrcrdY</p>","","","","","","","","",""
"html-keyboard-response","400","541825","0.0-16.0-0.68","5e6d3324f14d262fced5bbfe","650c16f0f2faf8d7a0d14c09","651c1b1c5a1b7255de67eb32","null","null","<p style=""font-size: 60px; font-family: BACS"">adkrcrdY</p>","","","","","","","","",""
