"trial_type","trial_index","time_elapsed","internal_node_id","subject_id","study_id","session_id","rt","response","stimulus","success","item","task","correct_response","testing_condition","correct","target","confound","name"
"pavlovia","0","2659","0.0-0.0","65032a60861e9a17bc1a7444","650c16f0f2faf8d7a0d14c09","651c1bf9a6ef7bed516d2476","","","","","","","","","","","",""
"survey-html-form","1","14471","0.0-1.0","65032a60861e9a17bc1a7444","650c16f0f2faf8d7a0d14c09","651c1bf9a6ef7bed516d2476","11750","{""ID"":""65032a60861e9a17bc1a7444""}","","","","","","","","","",""
"html-keyboard-response","2","19202","0.0-2.0","65032a60861e9a17bc1a7444","650c16f0f2faf8d7a0d14c09","651c1bf9a6ef7bed516d2476","4724"," ","<p style=""font-size: 15px;"">Before beginning, we ask that you read the consent information and confirm your agreement to participate in the experiment.</p>
      <p style=""font-size: 15px;""> We ask that you remember that this is a research project and that your participation is entirely voluntary. You can stop your participation at any time, without needing to provide any explanation. The study we're asking you to participate in aims at examining how readers process written words. You will be engaged in a session of apprximately 20 minutes, followed by a brief questionnaire. You will have the opportunity to take a few breaks during the experiment. You will be paid £4 for your participation, corresponding to a rate of £8/hour. While this experiment looks at cognitive faculties, this experiment doesn't constitute clinical proof of eventual pathologies.</p>
      <p style=""font-size: 15px;"">All of the information collected thanks to yours and others' participation will be held in a secure password-protected server, and will not be shared with anyone not authorised to view it. Your personal information will be kept with an arbitrary participant ID. Thanks to this data anonymity process, any researcher analysing the data won't be able to track the information back to a specific participant. Therefore, this process will make identifying you impossibile, even when results from the study will be published in scientific reviews, presented at congresses, or at any other public forum. More generally, the collected data will be treated in accordance with the laws on privacy and conformity to the Legislative Degree n. 196 ""Code regarding the protection of personal data"" of the 30th of June 2003 and to the European Regulation 2016/670 (General Data Protection Regulation - GDPR). The Data Protection Officer is Avv. Valentina Carollo, who can be contacted at the following email addresses: <a href=""mailto:dpo@sissa.it"">dpo@sissa.it</a> or <a href=""mailto:rpd@sissa.it"">rpd@sissa.it</a> - PEC: <a href=""mailto:protocollo@pec.sissa.it"">protocollo@pec.sissa.it</a>.</p>
      <p style=""font-size: 15px;""> Before expressing your consent to participate, we would like to remind you again that in case you need explanations on any aspect of the experimental procedure, the researcher is at your disposition (<a href=""mailto:aliebelt@sissa.it"">aliebelt@sissa.it</a>, <a href=""mailto:davide.crepaldi@sissa.it"">davide.crepaldi@sissa.it</a>).</p>
      <p style=""font-size: 15px;"">If you would like to download the informed consent form, you can do so here: <a href=""BASL-Informed_Consent.pdf"" download>informed consent form</a>.</p>
      <p style=""font-size: 15px;"">We ask that you press the spacebar to proceed to the consent section.</p>","","","","","","","","",""
"survey-html-form","3","44093","0.0-3.0","65032a60861e9a17bc1a7444","650c16f0f2faf8d7a0d14c09","651c1bf9a6ef7bed516d2476","24876","{""consent1"":""YES"",""consent2"":""YES"",""consent3"":""YES"",""consent4"":""YES"",""consent5"":""YES"",""consent6"":""YES""}","","","","","","","","","",""
"fullscreen","4","46945","0.0-4.0","65032a60861e9a17bc1a7444","650c16f0f2faf8d7a0d14c09","651c1bf9a6ef7bed516d2476","","","","true","","","","","","","",""
"html-keyboard-response","5","54067","0.0-5.0","65032a60861e9a17bc1a7444","650c16f0f2faf8d7a0d14c09","651c1bf9a6ef7bed516d2476","7047"," ","<p>Welcome, and thank you very much for your time!</p>
      <p>In this experiment, you'll be a language expert who's been asked to take a look at words that Earth has received in its first communication with aliens. Your task, in this first part of the experiment, is to pay close attention to the words you'll be shown; later, world leaders will ask you questions on what you saw. The words will be shown to you quite quickly; it seems that the aliens were in a hurry :-)</p>
      <p>Press the spacebar to continue.<p>","","","","","","","","",""
"html-keyboard-response","6","54120","0.0-6.0","65032a60861e9a17bc1a7444","650c16f0f2faf8d7a0d14c09","651c1bf9a6ef7bed516d2476","null","null","<p style=""font-size: 120px; font-family: BACS""> </p>","","","","","","","","",""
"html-keyboard-response","7","60511","0.0-7.0","65032a60861e9a17bc1a7444","650c16f0f2faf8d7a0d14c09","651c1bf9a6ef7bed516d2476","6336"," ","<p>Here is an example of the words you'll see:</p>
      <img src='esempio.png' height='400px'>
      <p>When you're ready to begin, press the spacebar.</p></div>","","","","","","","","",""
"html-keyboard-response","8","61519","0.0-8.0-0.0","65032a60861e9a17bc1a7444","650c16f0f2faf8d7a0d14c09","651c1bf9a6ef7bed516d2476","null","null","<p style=""font-size: 60px; font-family: BACS"">krGuNac</p>","","","","","","","","",""
"html-keyboard-response","9","62537","0.0-8.0-0.1","65032a60861e9a17bc1a7444","650c16f0f2faf8d7a0d14c09","651c1bf9a6ef7bed516d2476","null","null","<p style=""font-size: 60px; font-family: BACS"">AmaclJud</p>","","","","","","","","",""
"html-keyboard-response","10","63539","0.0-8.0-0.2","65032a60861e9a17bc1a7444","650c16f0f2faf8d7a0d14c09","651c1bf9a6ef7bed516d2476","null","null","<p style=""font-size: 60px; font-family: BACS"">OYuvbUbG</p>","","","","","","","","",""
"html-keyboard-response","11","64544","0.0-8.0-0.3","65032a60861e9a17bc1a7444","650c16f0f2faf8d7a0d14c09","651c1bf9a6ef7bed516d2476","null","null","<p style=""font-size: 60px; font-family: BACS"">DkTCPTRkY</p>","","","","","","","","",""
"html-keyboard-response","12","65551","0.0-8.0-0.4","65032a60861e9a17bc1a7444","650c16f0f2faf8d7a0d14c09","651c1bf9a6ef7bed516d2476","null","null","<p style=""font-size: 60px; font-family: BACS"">OtlRTmc</p>","","","","","","","","",""
"html-keyboard-response","13","66559","0.0-8.0-0.5","65032a60861e9a17bc1a7444","650c16f0f2faf8d7a0d14c09","651c1bf9a6ef7bed516d2476","null","null","<p style=""font-size: 60px; font-family: BACS"">YZJmNUZ</p>","","","","","","","","",""
"html-keyboard-response","14","67562","0.0-8.0-0.6","65032a60861e9a17bc1a7444","650c16f0f2faf8d7a0d14c09","651c1bf9a6ef7bed516d2476","null","null","<p style=""font-size: 60px; font-family: BACS"">krGuUdvY</p>","","","","","","","","",""
"html-keyboard-response","15","68579","0.0-8.0-0.7","65032a60861e9a17bc1a7444","650c16f0f2faf8d7a0d14c09","651c1bf9a6ef7bed516d2476","null","null","<p style=""font-size: 60px; font-family: BACS"">OQarQNac</p>","","","","","","","","",""
"html-keyboard-response","16","69581","0.0-8.0-0.8","65032a60861e9a17bc1a7444","650c16f0f2faf8d7a0d14c09","651c1bf9a6ef7bed516d2476","null","null","<p style=""font-size: 60px; font-family: BACS"">McMDTRkY</p>","","","","","","","","",""
"html-keyboard-response","17","70594","0.0-8.0-0.9","65032a60861e9a17bc1a7444","650c16f0f2faf8d7a0d14c09","651c1bf9a6ef7bed516d2476","null","null","<p style=""font-size: 60px; font-family: BACS"">AmaclUbG</p>","","","","","","","","",""
"html-keyboard-response","18","71604","0.0-8.0-0.10","65032a60861e9a17bc1a7444","650c16f0f2faf8d7a0d14c09","651c1bf9a6ef7bed516d2476","null","null","<p style=""font-size: 60px; font-family: BACS"">McMDOPE</p>","","","","","","","","",""
"html-keyboard-response","19","72622","0.0-8.0-0.11","65032a60861e9a17bc1a7444","650c16f0f2faf8d7a0d14c09","651c1bf9a6ef7bed516d2476","null","null","<p style=""font-size: 60px; font-family: BACS"">UrOQUbG</p>","","","","","","","","",""
"html-keyboard-response","20","73624","0.0-8.0-0.12","65032a60861e9a17bc1a7444","650c16f0f2faf8d7a0d14c09","651c1bf9a6ef7bed516d2476","null","null","<p style=""font-size: 60px; font-family: BACS"">AmaclUdvY</p>","","","","","","","","",""
"html-keyboard-response","21","74633","0.0-8.0-0.13","65032a60861e9a17bc1a7444","650c16f0f2faf8d7a0d14c09","651c1bf9a6ef7bed516d2476","null","null","<p style=""font-size: 60px; font-family: BACS"">TDKhmAM</p>","","","","","","","","",""
"html-keyboard-response","22","75643","0.0-8.0-0.14","65032a60861e9a17bc1a7444","650c16f0f2faf8d7a0d14c09","651c1bf9a6ef7bed516d2476","null","null","<p style=""font-size: 60px; font-family: BACS"">McMDKOYC</p>","","","","","","","","",""
"html-keyboard-response","23","76652","0.0-8.0-0.15","65032a60861e9a17bc1a7444","650c16f0f2faf8d7a0d14c09","651c1bf9a6ef7bed516d2476","null","null","<p style=""font-size: 60px; font-family: BACS"">GLYrANUZ</p>","","","","","","","","",""
"html-keyboard-response","24","77657","0.0-8.0-0.16","65032a60861e9a17bc1a7444","650c16f0f2faf8d7a0d14c09","651c1bf9a6ef7bed516d2476","null","null","<p style=""font-size: 60px; font-family: BACS"">YUNkZJud</p>","","","","","","","","",""
"html-keyboard-response","25","78669","0.0-8.0-0.17","65032a60861e9a17bc1a7444","650c16f0f2faf8d7a0d14c09","651c1bf9a6ef7bed516d2476","null","null","<p style=""font-size: 60px; font-family: BACS"">OtlRTRkY</p>","","","","","","","","",""
"html-keyboard-response","26","79683","0.0-8.0-0.18","65032a60861e9a17bc1a7444","650c16f0f2faf8d7a0d14c09","651c1bf9a6ef7bed516d2476","null","null","<p style=""font-size: 60px; font-family: BACS"">YUNkZNUZ</p>","","","","","","","","",""
"html-keyboard-response","27","80701","0.0-8.0-0.19","65032a60861e9a17bc1a7444","650c16f0f2faf8d7a0d14c09","651c1bf9a6ef7bed516d2476","null","null","<p style=""font-size: 60px; font-family: BACS"">DkTCPTmc</p>","","","","","","","","",""
"html-keyboard-response","28","81710","0.0-8.0-0.20","65032a60861e9a17bc1a7444","650c16f0f2faf8d7a0d14c09","651c1bf9a6ef7bed516d2476","null","null","<p style=""font-size: 60px; font-family: BACS"">TDKhKOYC</p>","","","","","","","","",""
"html-keyboard-response","29","82724","0.0-8.0-0.21","65032a60861e9a17bc1a7444","650c16f0f2faf8d7a0d14c09","651c1bf9a6ef7bed516d2476","null","null","<p style=""font-size: 60px; font-family: BACS"">rbYbuJud</p>","","","","","","","","",""
"html-keyboard-response","30","83726","0.0-8.0-0.22","65032a60861e9a17bc1a7444","650c16f0f2faf8d7a0d14c09","651c1bf9a6ef7bed516d2476","null","null","<p style=""font-size: 60px; font-family: BACS"">JmNkNUZ</p>","","","","","","","","",""
"html-keyboard-response","31","84739","0.0-8.0-0.23","65032a60861e9a17bc1a7444","650c16f0f2faf8d7a0d14c09","651c1bf9a6ef7bed516d2476","null","null","<p style=""font-size: 60px; font-family: BACS"">OQarQJud</p>","","","","","","","","",""
"html-keyboard-response","32","85750","0.0-8.0-0.24","65032a60861e9a17bc1a7444","650c16f0f2faf8d7a0d14c09","651c1bf9a6ef7bed516d2476","null","null","<p style=""font-size: 60px; font-family: BACS"">TCbDCmAM</p>","","","","","","","","",""
"html-keyboard-response","33","86762","0.0-8.0-0.25","65032a60861e9a17bc1a7444","650c16f0f2faf8d7a0d14c09","651c1bf9a6ef7bed516d2476","null","null","<p style=""font-size: 60px; font-family: BACS"">mBYlTRkY</p>","","","","","","","","",""
"html-keyboard-response","34","87773","0.0-8.0-0.26","65032a60861e9a17bc1a7444","650c16f0f2faf8d7a0d14c09","651c1bf9a6ef7bed516d2476","null","null","<p style=""font-size: 60px; font-family: BACS"">TCbDCOPE</p>","","","","","","","","",""
"html-keyboard-response","35","88782","0.0-8.0-0.27","65032a60861e9a17bc1a7444","650c16f0f2faf8d7a0d14c09","651c1bf9a6ef7bed516d2476","null","null","<p style=""font-size: 60px; font-family: BACS"">OtlRKOYC</p>","","","","","","","","",""
"html-keyboard-response","36","89792","0.0-8.0-0.28","65032a60861e9a17bc1a7444","650c16f0f2faf8d7a0d14c09","651c1bf9a6ef7bed516d2476","null","null","<p style=""font-size: 60px; font-family: BACS"">khmhTRkY</p>","","","","","","","","",""
"html-keyboard-response","37","90800","0.0-8.0-0.29","65032a60861e9a17bc1a7444","650c16f0f2faf8d7a0d14c09","651c1bf9a6ef7bed516d2476","null","null","<p style=""font-size: 60px; font-family: BACS"">CtmbOPE</p>","","","","","","","","",""
"html-keyboard-response","38","91802","0.0-8.0-0.30","65032a60861e9a17bc1a7444","650c16f0f2faf8d7a0d14c09","651c1bf9a6ef7bed516d2476","null","null","<p style=""font-size: 60px; font-family: BACS"">GLYrANac</p>","","","","","","","","",""
"html-keyboard-response","39","92806","0.0-8.0-0.31","65032a60861e9a17bc1a7444","650c16f0f2faf8d7a0d14c09","651c1bf9a6ef7bed516d2476","null","null","<p style=""font-size: 60px; font-family: BACS"">BbODTmc</p>","","","","","","","","",""
"html-keyboard-response","40","93821","0.0-8.0-0.32","65032a60861e9a17bc1a7444","650c16f0f2faf8d7a0d14c09","651c1bf9a6ef7bed516d2476","null","null","<p style=""font-size: 60px; font-family: BACS"">OtlROPE</p>","","","","","","","","",""
"html-keyboard-response","41","94823","0.0-8.0-0.33","65032a60861e9a17bc1a7444","650c16f0f2faf8d7a0d14c09","651c1bf9a6ef7bed516d2476","null","null","<p style=""font-size: 60px; font-family: BACS"">hbmAmAM</p>","","","","","","","","",""
"html-keyboard-response","42","95834","0.0-8.0-0.34","65032a60861e9a17bc1a7444","650c16f0f2faf8d7a0d14c09","651c1bf9a6ef7bed516d2476","null","null","<p style=""font-size: 60px; font-family: BACS"">TCbDCTmc</p>","","","","","","","","",""
"html-keyboard-response","43","96840","0.0-8.0-0.35","65032a60861e9a17bc1a7444","650c16f0f2faf8d7a0d14c09","651c1bf9a6ef7bed516d2476","null","null","<p style=""font-size: 60px; font-family: BACS"">UrOQJud</p>","","","","","","","","",""
"html-keyboard-response","44","97854","0.0-8.0-0.36","65032a60861e9a17bc1a7444","650c16f0f2faf8d7a0d14c09","651c1bf9a6ef7bed516d2476","null","null","<p style=""font-size: 60px; font-family: BACS"">khmhmAM</p>","","","","","","","","",""
"html-keyboard-response","45","98867","0.0-8.0-0.37","65032a60861e9a17bc1a7444","650c16f0f2faf8d7a0d14c09","651c1bf9a6ef7bed516d2476","null","null","<p style=""font-size: 60px; font-family: BACS"">OYuvbJud</p>","","","","","","","","",""
"html-keyboard-response","46","99882","0.0-8.0-0.38","65032a60861e9a17bc1a7444","650c16f0f2faf8d7a0d14c09","651c1bf9a6ef7bed516d2476","null","null","<p style=""font-size: 60px; font-family: BACS"">CtmbKOYC</p>","","","","","","","","",""
"html-keyboard-response","47","100893","0.0-8.0-0.39","65032a60861e9a17bc1a7444","650c16f0f2faf8d7a0d14c09","651c1bf9a6ef7bed516d2476","null","null","<p style=""font-size: 60px; font-family: BACS"">YZJmUdvY</p>","","","","","","","","",""
"html-keyboard-response","48","101898","0.0-8.0-0.40","65032a60861e9a17bc1a7444","650c16f0f2faf8d7a0d14c09","651c1bf9a6ef7bed516d2476","null","null","<p style=""font-size: 60px; font-family: BACS"">hbmATRkY</p>","","","","","","","","",""
"html-keyboard-response","49","102911","0.0-8.0-0.41","65032a60861e9a17bc1a7444","650c16f0f2faf8d7a0d14c09","651c1bf9a6ef7bed516d2476","null","null","<p style=""font-size: 60px; font-family: BACS"">TCbDCKOYC</p>","","","","","","","","",""
"html-keyboard-response","50","103922","0.0-8.0-0.42","65032a60861e9a17bc1a7444","650c16f0f2faf8d7a0d14c09","651c1bf9a6ef7bed516d2476","null","null","<p style=""font-size: 60px; font-family: BACS"">JmNkNac</p>","","","","","","","","",""
"html-keyboard-response","51","104932","0.0-8.0-0.43","65032a60861e9a17bc1a7444","650c16f0f2faf8d7a0d14c09","651c1bf9a6ef7bed516d2476","null","null","<p style=""font-size: 60px; font-family: BACS"">krGuJud</p>","","","","","","","","",""
"html-keyboard-response","52","105941","0.0-8.0-0.44","65032a60861e9a17bc1a7444","650c16f0f2faf8d7a0d14c09","651c1bf9a6ef7bed516d2476","null","null","<p style=""font-size: 60px; font-family: BACS"">YZJmNac</p>","","","","","","","","",""
"html-keyboard-response","53","106957","0.0-8.0-0.45","65032a60861e9a17bc1a7444","650c16f0f2faf8d7a0d14c09","651c1bf9a6ef7bed516d2476","null","null","<p style=""font-size: 60px; font-family: BACS"">BbODKOYC</p>","","","","","","","","",""
"html-keyboard-response","54","107965","0.0-8.0-0.46","65032a60861e9a17bc1a7444","650c16f0f2faf8d7a0d14c09","651c1bf9a6ef7bed516d2476","null","null","<p style=""font-size: 60px; font-family: BACS"">DkTCPmAM</p>","","","","","","","","",""
"html-keyboard-response","55","108972","0.0-8.0-0.47","65032a60861e9a17bc1a7444","650c16f0f2faf8d7a0d14c09","651c1bf9a6ef7bed516d2476","null","null","<p style=""font-size: 60px; font-family: BACS"">JmNkUbG</p>","","","","","","","","",""
"html-keyboard-response","56","109981","0.0-8.0-0.48","65032a60861e9a17bc1a7444","650c16f0f2faf8d7a0d14c09","651c1bf9a6ef7bed516d2476","null","null","<p style=""font-size: 60px; font-family: BACS"">BbODTRkY</p>","","","","","","","","",""
"html-keyboard-response","57","110983","0.0-8.0-0.49","65032a60861e9a17bc1a7444","650c16f0f2faf8d7a0d14c09","651c1bf9a6ef7bed516d2476","null","null","<p style=""font-size: 60px; font-family: BACS"">CtmbTmc</p>","","","","","","","","",""
"html-keyboard-response","58","111990","0.0-8.0-0.50","65032a60861e9a17bc1a7444","650c16f0f2faf8d7a0d14c09","651c1bf9a6ef7bed516d2476","null","null","<p style=""font-size: 60px; font-family: BACS"">TDKhTRkY</p>","","","","","","","","",""
"html-keyboard-response","59","112993","0.0-8.0-0.51","65032a60861e9a17bc1a7444","650c16f0f2faf8d7a0d14c09","651c1bf9a6ef7bed516d2476","null","null","<p style=""font-size: 60px; font-family: BACS"">JmNkUdvY</p>","","","","","","","","",""
"html-keyboard-response","60","113999","0.0-8.0-0.52","65032a60861e9a17bc1a7444","650c16f0f2faf8d7a0d14c09","651c1bf9a6ef7bed516d2476","null","null","<p style=""font-size: 60px; font-family: BACS"">YZJmUbG</p>","","","","","","","","",""
"html-keyboard-response","61","115013","0.0-8.0-0.53","65032a60861e9a17bc1a7444","650c16f0f2faf8d7a0d14c09","651c1bf9a6ef7bed516d2476","null","null","<p style=""font-size: 60px; font-family: BACS"">CtmbmAM</p>","","","","","","","","",""
"html-keyboard-response","62","116015","0.0-8.0-0.54","65032a60861e9a17bc1a7444","650c16f0f2faf8d7a0d14c09","651c1bf9a6ef7bed516d2476","null","null","<p style=""font-size: 60px; font-family: BACS"">khmhOPE</p>","","","","","","","","",""
"html-keyboard-response","63","117027","0.0-8.0-0.55","65032a60861e9a17bc1a7444","650c16f0f2faf8d7a0d14c09","651c1bf9a6ef7bed516d2476","null","null","<p style=""font-size: 60px; font-family: BACS"">UrOQNac</p>","","","","","","","","",""
"html-keyboard-response","64","118030","0.0-8.0-0.56","65032a60861e9a17bc1a7444","650c16f0f2faf8d7a0d14c09","651c1bf9a6ef7bed516d2476","null","null","<p style=""font-size: 60px; font-family: BACS"">mBYlTmc</p>","","","","","","","","",""
"html-keyboard-response","65","119035","0.0-8.0-0.57","65032a60861e9a17bc1a7444","650c16f0f2faf8d7a0d14c09","651c1bf9a6ef7bed516d2476","null","null","<p style=""font-size: 60px; font-family: BACS"">BbODOPE</p>","","","","","","","","",""
"html-keyboard-response","66","120038","0.0-8.0-0.58","65032a60861e9a17bc1a7444","650c16f0f2faf8d7a0d14c09","651c1bf9a6ef7bed516d2476","null","null","<p style=""font-size: 60px; font-family: BACS"">mBYlmAM</p>","","","","","","","","",""
"html-keyboard-response","67","121052","0.0-8.0-0.59","65032a60861e9a17bc1a7444","650c16f0f2faf8d7a0d14c09","651c1bf9a6ef7bed516d2476","null","null","<p style=""font-size: 60px; font-family: BACS"">hbmAOPE</p>","","","","","","","","",""
"html-keyboard-response","68","122053","0.0-8.0-0.60","65032a60861e9a17bc1a7444","650c16f0f2faf8d7a0d14c09","651c1bf9a6ef7bed516d2476","null","null","<p style=""font-size: 60px; font-family: BACS"">YUNkZUbG</p>","","","","","","","","",""
"html-keyboard-response","69","123059","0.0-8.0-0.61","65032a60861e9a17bc1a7444","650c16f0f2faf8d7a0d14c09","651c1bf9a6ef7bed516d2476","null","null","<p style=""font-size: 60px; font-family: BACS"">GLYrAJud</p>","","","","","","","","",""
"html-keyboard-response","70","124067","0.0-8.0-0.62","65032a60861e9a17bc1a7444","650c16f0f2faf8d7a0d14c09","651c1bf9a6ef7bed516d2476","null","null","<p style=""font-size: 60px; font-family: BACS"">OQarQNUZ</p>","","","","","","","","",""
"html-keyboard-response","71","125078","0.0-8.0-0.63","65032a60861e9a17bc1a7444","650c16f0f2faf8d7a0d14c09","651c1bf9a6ef7bed516d2476","null","null","<p style=""font-size: 60px; font-family: BACS"">OYuvbUdvY</p>","","","","","","","","",""
"html-keyboard-response","72","126092","0.0-8.0-0.64","65032a60861e9a17bc1a7444","650c16f0f2faf8d7a0d14c09","651c1bf9a6ef7bed516d2476","null","null","<p style=""font-size: 60px; font-family: BACS"">McMDmAM</p>","","","","","","","","",""
"html-keyboard-response","73","127106","0.0-8.0-0.65","65032a60861e9a17bc1a7444","650c16f0f2faf8d7a0d14c09","651c1bf9a6ef7bed516d2476","null","null","<p style=""font-size: 60px; font-family: BACS"">OQarQUdvY</p>","","","","","","","","",""
"html-keyboard-response","74","128109","0.0-8.0-0.66","65032a60861e9a17bc1a7444","650c16f0f2faf8d7a0d14c09","651c1bf9a6ef7bed516d2476","null","null","<p style=""font-size: 60px; font-family: BACS"">YUNkZNac</p>","","","","","","","","",""
"html-keyboard-response","75","129115","0.0-8.0-0.67","65032a60861e9a17bc1a7444","650c16f0f2faf8d7a0d14c09","651c1bf9a6ef7bed516d2476","null","null","<p style=""font-size: 60px; font-family: BACS"">krGuUbG</p>","","","","","","","","",""
"html-keyboard-response","76","130124","0.0-8.0-0.68","65032a60861e9a17bc1a7444","650c16f0f2faf8d7a0d14c09","651c1bf9a6ef7bed516d2476","null","null","<p style=""font-size: 60px; font-family: BACS"">mBYlKOYC</p>","","","","","","","","",""
"html-keyboard-response","77","131130","0.0-8.0-0.69","65032a60861e9a17bc1a7444","650c16f0f2faf8d7a0d14c09","651c1bf9a6ef7bed516d2476","null","null","<p style=""font-size: 60px; font-family: BACS"">GLYrAUdvY</p>","","","","","","","","",""
"html-keyboard-response","78","132139","0.0-8.0-0.70","65032a60861e9a17bc1a7444","650c16f0f2faf8d7a0d14c09","651c1bf9a6ef7bed516d2476","null","null","<p style=""font-size: 60px; font-family: BACS"">khmhTmc</p>","","","","","","","","",""
"html-keyboard-response","79","133147","0.0-8.0-0.71","65032a60861e9a17bc1a7444","650c16f0f2faf8d7a0d14c09","651c1bf9a6ef7bed516d2476","null","null","<p style=""font-size: 60px; font-family: BACS"">OYuvbNUZ</p>","","","","","","","","",""
"html-keyboard-response","80","134164","0.0-8.0-0.72","65032a60861e9a17bc1a7444","650c16f0f2faf8d7a0d14c09","651c1bf9a6ef7bed516d2476","null","null","<p style=""font-size: 60px; font-family: BACS"">rbYbuNac</p>","","","","","","","","",""
"html-keyboard-response","81","135177","0.0-8.0-0.73","65032a60861e9a17bc1a7444","650c16f0f2faf8d7a0d14c09","651c1bf9a6ef7bed516d2476","null","null","<p style=""font-size: 60px; font-family: BACS"">DkTCPKOYC</p>","","","","","","","","",""
"html-keyboard-response","82","136179","0.0-8.0-0.74","65032a60861e9a17bc1a7444","650c16f0f2faf8d7a0d14c09","651c1bf9a6ef7bed516d2476","null","null","<p style=""font-size: 60px; font-family: BACS"">rbYbuUbG</p>","","","","","","","","",""
"html-keyboard-response","83","137180","0.0-8.0-0.75","65032a60861e9a17bc1a7444","650c16f0f2faf8d7a0d14c09","651c1bf9a6ef7bed516d2476","null","null","<p style=""font-size: 60px; font-family: BACS"">UrOQUdvY</p>","","","","","","","","",""
"html-keyboard-response","84","138912","0.0-8.0-0.76","65032a60861e9a17bc1a7444","650c16f0f2faf8d7a0d14c09","651c1bf9a6ef7bed516d2476","null","null","<p style=""font-size: 60px; font-family: BACS"">rbYbuNUZ</p>","","","","","","","","",""
"html-keyboard-response","85","140911","0.0-8.0-0.77","65032a60861e9a17bc1a7444","650c16f0f2faf8d7a0d14c09","651c1bf9a6ef7bed516d2476","null","null","<p style=""font-size: 60px; font-family: BACS"">hbmATmc</p>","","","","","","","","",""
"html-keyboard-response","86","141915","0.0-8.0-0.78","65032a60861e9a17bc1a7444","650c16f0f2faf8d7a0d14c09","651c1bf9a6ef7bed516d2476","null","null","<p style=""font-size: 60px; font-family: BACS"">AmaclNUZ</p>","","","","","","","","",""
"html-keyboard-response","87","143079","0.0-8.0-0.79","65032a60861e9a17bc1a7444","650c16f0f2faf8d7a0d14c09","651c1bf9a6ef7bed516d2476","null","null","<p style=""font-size: 60px; font-family: BACS"">TDKhOPE</p>","","","","","","","","",""
"html-keyboard-response","88","292352","0.0-9.0","65032a60861e9a17bc1a7444","650c16f0f2faf8d7a0d14c09","651c1bf9a6ef7bed516d2476","149275"," ","<p>Great, you've seen the first block of words. You may now take a short break.</p>
      <p>Press the spacebar when you're ready to continue.</p>","","","","","","","","",""
"html-keyboard-response","89","293361","0.0-10.0-0.0","65032a60861e9a17bc1a7444","650c16f0f2faf8d7a0d14c09","651c1bf9a6ef7bed516d2476","null","null","<p style=""font-size: 60px; font-family: BACS"">khmhOPE</p>","","","","","","","","",""
"html-keyboard-response","90","294369","0.0-10.0-0.1","65032a60861e9a17bc1a7444","650c16f0f2faf8d7a0d14c09","651c1bf9a6ef7bed516d2476","null","null","<p style=""font-size: 60px; font-family: BACS"">mBYlKOYC</p>","","","","","","","","",""
"html-keyboard-response","91","295387","0.0-10.0-0.2","65032a60861e9a17bc1a7444","650c16f0f2faf8d7a0d14c09","651c1bf9a6ef7bed516d2476","null","null","<p style=""font-size: 60px; font-family: BACS"">TCbDCmAM</p>","","","","","","","","",""
"html-keyboard-response","92","296403","0.0-10.0-0.3","65032a60861e9a17bc1a7444","650c16f0f2faf8d7a0d14c09","651c1bf9a6ef7bed516d2476","null","null","<p style=""font-size: 60px; font-family: BACS"">khmhTmc</p>","","","","","","","","",""
"html-keyboard-response","93","297416","0.0-10.0-0.4","65032a60861e9a17bc1a7444","650c16f0f2faf8d7a0d14c09","651c1bf9a6ef7bed516d2476","null","null","<p style=""font-size: 60px; font-family: BACS"">YZJmNac</p>","","","","","","","","",""
"html-keyboard-response","94","298420","0.0-10.0-0.5","65032a60861e9a17bc1a7444","650c16f0f2faf8d7a0d14c09","651c1bf9a6ef7bed516d2476","null","null","<p style=""font-size: 60px; font-family: BACS"">McMDOPE</p>","","","","","","","","",""
"html-keyboard-response","95","299433","0.0-10.0-0.6","65032a60861e9a17bc1a7444","650c16f0f2faf8d7a0d14c09","651c1bf9a6ef7bed516d2476","null","null","<p style=""font-size: 60px; font-family: BACS"">DkTCPTRkY</p>","","","","","","","","",""
"html-keyboard-response","96","300446","0.0-10.0-0.7","65032a60861e9a17bc1a7444","650c16f0f2faf8d7a0d14c09","651c1bf9a6ef7bed516d2476","null","null","<p style=""font-size: 60px; font-family: BACS"">BbODOPE</p>","","","","","","","","",""
"html-keyboard-response","97","301449","0.0-10.0-0.8","65032a60861e9a17bc1a7444","650c16f0f2faf8d7a0d14c09","651c1bf9a6ef7bed516d2476","null","null","<p style=""font-size: 60px; font-family: BACS"">McMDmAM</p>","","","","","","","","",""
"html-keyboard-response","98","302464","0.0-10.0-0.9","65032a60861e9a17bc1a7444","650c16f0f2faf8d7a0d14c09","651c1bf9a6ef7bed516d2476","null","null","<p style=""font-size: 60px; font-family: BACS"">GLYrANac</p>","","","","","","","","",""
"html-keyboard-response","99","303469","0.0-10.0-0.10","65032a60861e9a17bc1a7444","650c16f0f2faf8d7a0d14c09","651c1bf9a6ef7bed516d2476","null","null","<p style=""font-size: 60px; font-family: BACS"">BbODKOYC</p>","","","","","","","","",""
"html-keyboard-response","100","304479","0.0-10.0-0.11","65032a60861e9a17bc1a7444","650c16f0f2faf8d7a0d14c09","651c1bf9a6ef7bed516d2476","null","null","<p style=""font-size: 60px; font-family: BACS"">krGuUdvY</p>","","","","","","","","",""
"html-keyboard-response","101","305484","0.0-10.0-0.12","65032a60861e9a17bc1a7444","650c16f0f2faf8d7a0d14c09","651c1bf9a6ef7bed516d2476","null","null","<p style=""font-size: 60px; font-family: BACS"">TDKhOPE</p>","","","","","","","","",""
"html-keyboard-response","102","306491","0.0-10.0-0.13","65032a60861e9a17bc1a7444","650c16f0f2faf8d7a0d14c09","651c1bf9a6ef7bed516d2476","null","null","<p style=""font-size: 60px; font-family: BACS"">McMDTRkY</p>","","","","","","","","",""
"html-keyboard-response","103","307507","0.0-10.0-0.14","65032a60861e9a17bc1a7444","650c16f0f2faf8d7a0d14c09","651c1bf9a6ef7bed516d2476","null","null","<p style=""font-size: 60px; font-family: BACS"">mBYlmAM</p>","","","","","","","","",""
"html-keyboard-response","104","308520","0.0-10.0-0.15","65032a60861e9a17bc1a7444","650c16f0f2faf8d7a0d14c09","651c1bf9a6ef7bed516d2476","null","null","<p style=""font-size: 60px; font-family: BACS"">rbYbuNac</p>","","","","","","","","",""
"html-keyboard-response","105","309524","0.0-10.0-0.16","65032a60861e9a17bc1a7444","650c16f0f2faf8d7a0d14c09","651c1bf9a6ef7bed516d2476","null","null","<p style=""font-size: 60px; font-family: BACS"">OtlRTmc</p>","","","","","","","","",""
"html-keyboard-response","106","310527","0.0-10.0-0.17","65032a60861e9a17bc1a7444","650c16f0f2faf8d7a0d14c09","651c1bf9a6ef7bed516d2476","null","null","<p style=""font-size: 60px; font-family: BACS"">hbmAOPE</p>","","","","","","","","",""
"html-keyboard-response","107","311528","0.0-10.0-0.18","65032a60861e9a17bc1a7444","650c16f0f2faf8d7a0d14c09","651c1bf9a6ef7bed516d2476","null","null","<p style=""font-size: 60px; font-family: BACS"">UrOQJud</p>","","","","","","","","",""
"html-keyboard-response","108","312541","0.0-10.0-0.19","65032a60861e9a17bc1a7444","650c16f0f2faf8d7a0d14c09","651c1bf9a6ef7bed516d2476","null","null","<p style=""font-size: 60px; font-family: BACS"">OYuvbUbG</p>","","","","","","","","",""
"html-keyboard-response","109","313550","0.0-10.0-0.20","65032a60861e9a17bc1a7444","650c16f0f2faf8d7a0d14c09","651c1bf9a6ef7bed516d2476","null","null","<p style=""font-size: 60px; font-family: BACS"">krGuNac</p>","","","","","","","","",""
"html-keyboard-response","110","314554","0.0-10.0-0.21","65032a60861e9a17bc1a7444","650c16f0f2faf8d7a0d14c09","651c1bf9a6ef7bed516d2476","null","null","<p style=""font-size: 60px; font-family: BACS"">YUNkZJud</p>","","","","","","","","",""
"html-keyboard-response","111","315556","0.0-10.0-0.22","65032a60861e9a17bc1a7444","650c16f0f2faf8d7a0d14c09","651c1bf9a6ef7bed516d2476","null","null","<p style=""font-size: 60px; font-family: BACS"">GLYrANUZ</p>","","","","","","","","",""
"html-keyboard-response","112","316560","0.0-10.0-0.23","65032a60861e9a17bc1a7444","650c16f0f2faf8d7a0d14c09","651c1bf9a6ef7bed516d2476","null","null","<p style=""font-size: 60px; font-family: BACS"">DkTCPmAM</p>","","","","","","","","",""
"html-keyboard-response","113","317574","0.0-10.0-0.24","65032a60861e9a17bc1a7444","650c16f0f2faf8d7a0d14c09","651c1bf9a6ef7bed516d2476","null","null","<p style=""font-size: 60px; font-family: BACS"">TCbDCKOYC</p>","","","","","","","","",""
"html-keyboard-response","114","318591","0.0-10.0-0.25","65032a60861e9a17bc1a7444","650c16f0f2faf8d7a0d14c09","651c1bf9a6ef7bed516d2476","null","null","<p style=""font-size: 60px; font-family: BACS"">JmNkUbG</p>","","","","","","","","",""
"html-keyboard-response","115","319597","0.0-10.0-0.26","65032a60861e9a17bc1a7444","650c16f0f2faf8d7a0d14c09","651c1bf9a6ef7bed516d2476","null","null","<p style=""font-size: 60px; font-family: BACS"">hbmAmAM</p>","","","","","","","","",""
"html-keyboard-response","116","320601","0.0-10.0-0.27","65032a60861e9a17bc1a7444","650c16f0f2faf8d7a0d14c09","651c1bf9a6ef7bed516d2476","null","null","<p style=""font-size: 60px; font-family: BACS"">YUNkZUbG</p>","","","","","","","","",""
"html-keyboard-response","117","321609","0.0-10.0-0.28","65032a60861e9a17bc1a7444","650c16f0f2faf8d7a0d14c09","651c1bf9a6ef7bed516d2476","null","null","<p style=""font-size: 60px; font-family: BACS"">OQarQUdvY</p>","","","","","","","","",""
"html-keyboard-response","118","322618","0.0-10.0-0.29","65032a60861e9a17bc1a7444","650c16f0f2faf8d7a0d14c09","651c1bf9a6ef7bed516d2476","null","null","<p style=""font-size: 60px; font-family: BACS"">khmhmAM</p>","","","","","","","","",""
"html-keyboard-response","119","323626","0.0-10.0-0.30","65032a60861e9a17bc1a7444","650c16f0f2faf8d7a0d14c09","651c1bf9a6ef7bed516d2476","null","null","<p style=""font-size: 60px; font-family: BACS"">BbODTmc</p>","","","","","","","","",""
"html-keyboard-response","120","324627","0.0-10.0-0.31","65032a60861e9a17bc1a7444","650c16f0f2faf8d7a0d14c09","651c1bf9a6ef7bed516d2476","null","null","<p style=""font-size: 60px; font-family: BACS"">YZJmNUZ</p>","","","","","","","","",""
"html-keyboard-response","121","325639","0.0-10.0-0.32","65032a60861e9a17bc1a7444","650c16f0f2faf8d7a0d14c09","651c1bf9a6ef7bed516d2476","null","null","<p style=""font-size: 60px; font-family: BACS"">GLYrAUdvY</p>","","","","","","","","",""
"html-keyboard-response","122","326900","0.0-10.0-0.33","65032a60861e9a17bc1a7444","650c16f0f2faf8d7a0d14c09","651c1bf9a6ef7bed516d2476","null","null","<p style=""font-size: 60px; font-family: BACS"">AmaclNUZ</p>","","","","","","","","",""
"html-keyboard-response","123","327905","0.0-10.0-0.34","65032a60861e9a17bc1a7444","650c16f0f2faf8d7a0d14c09","651c1bf9a6ef7bed516d2476","null","null","<p style=""font-size: 60px; font-family: BACS"">GLYrAJud</p>","","","","","","","","",""
"html-keyboard-response","124","328911","0.0-10.0-0.35","65032a60861e9a17bc1a7444","650c16f0f2faf8d7a0d14c09","651c1bf9a6ef7bed516d2476","null","null","<p style=""font-size: 60px; font-family: BACS"">OYuvbNUZ</p>","","","","","","","","",""
"html-keyboard-response","125","329922","0.0-10.0-0.36","65032a60861e9a17bc1a7444","650c16f0f2faf8d7a0d14c09","651c1bf9a6ef7bed516d2476","null","null","<p style=""font-size: 60px; font-family: BACS"">YUNkZNac</p>","","","","","","","","",""
"html-keyboard-response","126","330931","0.0-10.0-0.37","65032a60861e9a17bc1a7444","650c16f0f2faf8d7a0d14c09","651c1bf9a6ef7bed516d2476","null","null","<p style=""font-size: 60px; font-family: BACS"">rbYbuNUZ</p>","","","","","","","","",""
"html-keyboard-response","127","331945","0.0-10.0-0.38","65032a60861e9a17bc1a7444","650c16f0f2faf8d7a0d14c09","651c1bf9a6ef7bed516d2476","null","null","<p style=""font-size: 60px; font-family: BACS"">mBYlTmc</p>","","","","","","","","",""
"html-keyboard-response","128","332951","0.0-10.0-0.39","65032a60861e9a17bc1a7444","650c16f0f2faf8d7a0d14c09","651c1bf9a6ef7bed516d2476","null","null","<p style=""font-size: 60px; font-family: BACS"">OtlROPE</p>","","","","","","","","",""
"html-keyboard-response","129","333959","0.0-10.0-0.40","65032a60861e9a17bc1a7444","650c16f0f2faf8d7a0d14c09","651c1bf9a6ef7bed516d2476","null","null","<p style=""font-size: 60px; font-family: BACS"">UrOQUdvY</p>","","","","","","","","",""
"html-keyboard-response","130","334976","0.0-10.0-0.41","65032a60861e9a17bc1a7444","650c16f0f2faf8d7a0d14c09","651c1bf9a6ef7bed516d2476","null","null","<p style=""font-size: 60px; font-family: BACS"">hbmATRkY</p>","","","","","","","","",""
"html-keyboard-response","131","335987","0.0-10.0-0.42","65032a60861e9a17bc1a7444","650c16f0f2faf8d7a0d14c09","651c1bf9a6ef7bed516d2476","null","null","<p style=""font-size: 60px; font-family: BACS"">CtmbOPE</p>","","","","","","","","",""
"html-keyboard-response","132","336990","0.0-10.0-0.43","65032a60861e9a17bc1a7444","650c16f0f2faf8d7a0d14c09","651c1bf9a6ef7bed516d2476","null","null","<p style=""font-size: 60px; font-family: BACS"">OQarQNac</p>","","","","","","","","",""
"html-keyboard-response","133","338005","0.0-10.0-0.44","65032a60861e9a17bc1a7444","650c16f0f2faf8d7a0d14c09","651c1bf9a6ef7bed516d2476","null","null","<p style=""font-size: 60px; font-family: BACS"">JmNkUdvY</p>","","","","","","","","",""
"html-keyboard-response","134","339012","0.0-10.0-0.45","65032a60861e9a17bc1a7444","650c16f0f2faf8d7a0d14c09","651c1bf9a6ef7bed516d2476","null","null","<p style=""font-size: 60px; font-family: BACS"">OtlRTRkY</p>","","","","","","","","",""
"html-keyboard-response","135","340025","0.0-10.0-0.46","65032a60861e9a17bc1a7444","650c16f0f2faf8d7a0d14c09","651c1bf9a6ef7bed516d2476","null","null","<p style=""font-size: 60px; font-family: BACS"">YZJmUbG</p>","","","","","","","","",""
"html-keyboard-response","136","341033","0.0-10.0-0.47","65032a60861e9a17bc1a7444","650c16f0f2faf8d7a0d14c09","651c1bf9a6ef7bed516d2476","null","null","<p style=""font-size: 60px; font-family: BACS"">DkTCPKOYC</p>","","","","","","","","",""
"html-keyboard-response","137","342036","0.0-10.0-0.48","65032a60861e9a17bc1a7444","650c16f0f2faf8d7a0d14c09","651c1bf9a6ef7bed516d2476","null","null","<p style=""font-size: 60px; font-family: BACS"">TDKhTRkY</p>","","","","","","","","",""
"html-keyboard-response","138","343046","0.0-10.0-0.49","65032a60861e9a17bc1a7444","650c16f0f2faf8d7a0d14c09","651c1bf9a6ef7bed516d2476","null","null","<p style=""font-size: 60px; font-family: BACS"">UrOQUbG</p>","","","","","","","","",""
"html-keyboard-response","139","344058","0.0-10.0-0.50","65032a60861e9a17bc1a7444","650c16f0f2faf8d7a0d14c09","651c1bf9a6ef7bed516d2476","null","null","<p style=""font-size: 60px; font-family: BACS"">CtmbTmc</p>","","","","","","","","",""
"html-keyboard-response","140","345062","0.0-10.0-0.51","65032a60861e9a17bc1a7444","650c16f0f2faf8d7a0d14c09","651c1bf9a6ef7bed516d2476","null","null","<p style=""font-size: 60px; font-family: BACS"">OtlRKOYC</p>","","","","","","","","",""
"html-keyboard-response","141","346069","0.0-10.0-0.52","65032a60861e9a17bc1a7444","650c16f0f2faf8d7a0d14c09","651c1bf9a6ef7bed516d2476","null","null","<p style=""font-size: 60px; font-family: BACS"">TDKhmAM</p>","","","","","","","","",""
"html-keyboard-response","142","347073","0.0-10.0-0.53","65032a60861e9a17bc1a7444","650c16f0f2faf8d7a0d14c09","651c1bf9a6ef7bed516d2476","null","null","<p style=""font-size: 60px; font-family: BACS"">khmhTRkY</p>","","","","","","","","",""
"html-keyboard-response","143","348090","0.0-10.0-0.54","65032a60861e9a17bc1a7444","650c16f0f2faf8d7a0d14c09","651c1bf9a6ef7bed516d2476","null","null","<p style=""font-size: 60px; font-family: BACS"">OQarQJud</p>","","","","","","","","",""
"html-keyboard-response","144","349108","0.0-10.0-0.55","65032a60861e9a17bc1a7444","650c16f0f2faf8d7a0d14c09","651c1bf9a6ef7bed516d2476","null","null","<p style=""font-size: 60px; font-family: BACS"">UrOQNac</p>","","","","","","","","",""
"html-keyboard-response","145","350117","0.0-10.0-0.56","65032a60861e9a17bc1a7444","650c16f0f2faf8d7a0d14c09","651c1bf9a6ef7bed516d2476","null","null","<p style=""font-size: 60px; font-family: BACS"">hbmATmc</p>","","","","","","","","",""
"html-keyboard-response","146","351123","0.0-10.0-0.57","65032a60861e9a17bc1a7444","650c16f0f2faf8d7a0d14c09","651c1bf9a6ef7bed516d2476","null","null","<p style=""font-size: 60px; font-family: BACS"">OYuvbUdvY</p>","","","","","","","","",""
"html-keyboard-response","147","352125","0.0-10.0-0.58","65032a60861e9a17bc1a7444","650c16f0f2faf8d7a0d14c09","651c1bf9a6ef7bed516d2476","null","null","<p style=""font-size: 60px; font-family: BACS"">krGuJud</p>","","","","","","","","",""
"html-keyboard-response","148","353145","0.0-10.0-0.59","65032a60861e9a17bc1a7444","650c16f0f2faf8d7a0d14c09","651c1bf9a6ef7bed516d2476","null","null","<p style=""font-size: 60px; font-family: BACS"">JmNkNUZ</p>","","","","","","","","",""
"html-keyboard-response","149","354151","0.0-10.0-0.60","65032a60861e9a17bc1a7444","650c16f0f2faf8d7a0d14c09","651c1bf9a6ef7bed516d2476","null","null","<p style=""font-size: 60px; font-family: BACS"">AmaclJud</p>","","","","","","","","",""
"html-keyboard-response","150","355165","0.0-10.0-0.61","65032a60861e9a17bc1a7444","650c16f0f2faf8d7a0d14c09","651c1bf9a6ef7bed516d2476","null","null","<p style=""font-size: 60px; font-family: BACS"">YUNkZNUZ</p>","","","","","","","","",""
"html-keyboard-response","151","356182","0.0-10.0-0.62","65032a60861e9a17bc1a7444","650c16f0f2faf8d7a0d14c09","651c1bf9a6ef7bed516d2476","null","null","<p style=""font-size: 60px; font-family: BACS"">mBYlTRkY</p>","","","","","","","","",""
"html-keyboard-response","152","357193","0.0-10.0-0.63","65032a60861e9a17bc1a7444","650c16f0f2faf8d7a0d14c09","651c1bf9a6ef7bed516d2476","null","null","<p style=""font-size: 60px; font-family: BACS"">CtmbmAM</p>","","","","","","","","",""
"html-keyboard-response","153","358209","0.0-10.0-0.64","65032a60861e9a17bc1a7444","650c16f0f2faf8d7a0d14c09","651c1bf9a6ef7bed516d2476","null","null","<p style=""font-size: 60px; font-family: BACS"">OQarQNUZ</p>","","","","","","","","",""
"html-keyboard-response","154","359217","0.0-10.0-0.65","65032a60861e9a17bc1a7444","650c16f0f2faf8d7a0d14c09","651c1bf9a6ef7bed516d2476","null","null","<p style=""font-size: 60px; font-family: BACS"">TCbDCTmc</p>","","","","","","","","",""
"html-keyboard-response","155","360231","0.0-10.0-0.66","65032a60861e9a17bc1a7444","650c16f0f2faf8d7a0d14c09","651c1bf9a6ef7bed516d2476","null","null","<p style=""font-size: 60px; font-family: BACS"">krGuUbG</p>","","","","","","","","",""
"html-keyboard-response","156","361241","0.0-10.0-0.67","65032a60861e9a17bc1a7444","650c16f0f2faf8d7a0d14c09","651c1bf9a6ef7bed516d2476","null","null","<p style=""font-size: 60px; font-family: BACS"">OYuvbJud</p>","","","","","","","","",""
"html-keyboard-response","157","362250","0.0-10.0-0.68","65032a60861e9a17bc1a7444","650c16f0f2faf8d7a0d14c09","651c1bf9a6ef7bed516d2476","null","null","<p style=""font-size: 60px; font-family: BACS"">McMDKOYC</p>","","","","","","","","",""
"html-keyboard-response","158","363258","0.0-10.0-0.69","65032a60861e9a17bc1a7444","650c16f0f2faf8d7a0d14c09","651c1bf9a6ef7bed516d2476","null","null","<p style=""font-size: 60px; font-family: BACS"">DkTCPTmc</p>","","","","","","","","",""
"html-keyboard-response","159","364274","0.0-10.0-0.70","65032a60861e9a17bc1a7444","650c16f0f2faf8d7a0d14c09","651c1bf9a6ef7bed516d2476","null","null","<p style=""font-size: 60px; font-family: BACS"">rbYbuUbG</p>","","","","","","","","",""
"html-keyboard-response","160","365283","0.0-10.0-0.71","65032a60861e9a17bc1a7444","650c16f0f2faf8d7a0d14c09","651c1bf9a6ef7bed516d2476","null","null","<p style=""font-size: 60px; font-family: BACS"">AmaclUdvY</p>","","","","","","","","",""
"html-keyboard-response","161","366291","0.0-10.0-0.72","65032a60861e9a17bc1a7444","650c16f0f2faf8d7a0d14c09","651c1bf9a6ef7bed516d2476","null","null","<p style=""font-size: 60px; font-family: BACS"">TCbDCOPE</p>","","","","","","","","",""
"html-keyboard-response","162","367305","0.0-10.0-0.73","65032a60861e9a17bc1a7444","650c16f0f2faf8d7a0d14c09","651c1bf9a6ef7bed516d2476","null","null","<p style=""font-size: 60px; font-family: BACS"">JmNkNac</p>","","","","","","","","",""
"html-keyboard-response","163","368311","0.0-10.0-0.74","65032a60861e9a17bc1a7444","650c16f0f2faf8d7a0d14c09","651c1bf9a6ef7bed516d2476","null","null","<p style=""font-size: 60px; font-family: BACS"">AmaclUbG</p>","","","","","","","","",""
"html-keyboard-response","164","369321","0.0-10.0-0.75","65032a60861e9a17bc1a7444","650c16f0f2faf8d7a0d14c09","651c1bf9a6ef7bed516d2476","null","null","<p style=""font-size: 60px; font-family: BACS"">TDKhKOYC</p>","","","","","","","","",""
"html-keyboard-response","165","370328","0.0-10.0-0.76","65032a60861e9a17bc1a7444","650c16f0f2faf8d7a0d14c09","651c1bf9a6ef7bed516d2476","null","null","<p style=""font-size: 60px; font-family: BACS"">YZJmUdvY</p>","","","","","","","","",""
"html-keyboard-response","166","371334","0.0-10.0-0.77","65032a60861e9a17bc1a7444","650c16f0f2faf8d7a0d14c09","651c1bf9a6ef7bed516d2476","null","null","<p style=""font-size: 60px; font-family: BACS"">rbYbuJud</p>","","","","","","","","",""
"html-keyboard-response","167","372342","0.0-10.0-0.78","65032a60861e9a17bc1a7444","650c16f0f2faf8d7a0d14c09","651c1bf9a6ef7bed516d2476","null","null","<p style=""font-size: 60px; font-family: BACS"">BbODTRkY</p>","","","","","","","","",""
"html-keyboard-response","168","373349","0.0-10.0-0.79","65032a60861e9a17bc1a7444","650c16f0f2faf8d7a0d14c09","651c1bf9a6ef7bed516d2476","null","null","<p style=""font-size: 60px; font-family: BACS"">CtmbKOYC</p>","","","","","","","","",""
"html-keyboard-response","169","388744","0.0-11.0","65032a60861e9a17bc1a7444","650c16f0f2faf8d7a0d14c09","651c1bf9a6ef7bed516d2476","15394"," ","<p>Great, you've seen the second block of words. You may now take a short break.</p>
      <p>Press the spacebar when you're ready to continue.</p>","","","","","","","","",""
"html-keyboard-response","170","389748","0.0-12.0-0.0","65032a60861e9a17bc1a7444","650c16f0f2faf8d7a0d14c09","651c1bf9a6ef7bed516d2476","null","null","<p style=""font-size: 60px; font-family: BACS"">krGuJud</p>","","","","","","","","",""
"html-keyboard-response","171","390760","0.0-12.0-0.1","65032a60861e9a17bc1a7444","650c16f0f2faf8d7a0d14c09","651c1bf9a6ef7bed516d2476","null","null","<p style=""font-size: 60px; font-family: BACS"">BbODOPE</p>","","","","","","","","",""
"html-keyboard-response","172","391774","0.0-12.0-0.2","65032a60861e9a17bc1a7444","650c16f0f2faf8d7a0d14c09","651c1bf9a6ef7bed516d2476","null","null","<p style=""font-size: 60px; font-family: BACS"">CtmbmAM</p>","","","","","","","","",""
"html-keyboard-response","173","392790","0.0-12.0-0.3","65032a60861e9a17bc1a7444","650c16f0f2faf8d7a0d14c09","651c1bf9a6ef7bed516d2476","null","null","<p style=""font-size: 60px; font-family: BACS"">mBYlTRkY</p>","","","","","","","","",""
"html-keyboard-response","174","393804","0.0-12.0-0.4","65032a60861e9a17bc1a7444","650c16f0f2faf8d7a0d14c09","651c1bf9a6ef7bed516d2476","null","null","<p style=""font-size: 60px; font-family: BACS"">krGuUdvY</p>","","","","","","","","",""
"html-keyboard-response","175","394819","0.0-12.0-0.5","65032a60861e9a17bc1a7444","650c16f0f2faf8d7a0d14c09","651c1bf9a6ef7bed516d2476","null","null","<p style=""font-size: 60px; font-family: BACS"">YZJmNac</p>","","","","","","","","",""
"html-keyboard-response","176","395829","0.0-12.0-0.6","65032a60861e9a17bc1a7444","650c16f0f2faf8d7a0d14c09","651c1bf9a6ef7bed516d2476","null","null","<p style=""font-size: 60px; font-family: BACS"">hbmAOPE</p>","","","","","","","","",""
"html-keyboard-response","177","397290","0.0-12.0-0.7","65032a60861e9a17bc1a7444","650c16f0f2faf8d7a0d14c09","651c1bf9a6ef7bed516d2476","null","null","<p style=""font-size: 60px; font-family: BACS"">mBYlTmc</p>","","","","","","","","",""
"html-keyboard-response","178","398306","0.0-12.0-0.8","65032a60861e9a17bc1a7444","650c16f0f2faf8d7a0d14c09","651c1bf9a6ef7bed516d2476","null","null","<p style=""font-size: 60px; font-family: BACS"">OYuvbUbG</p>","","","","","","","","",""
"html-keyboard-response","179","399321","0.0-12.0-0.9","65032a60861e9a17bc1a7444","650c16f0f2faf8d7a0d14c09","651c1bf9a6ef7bed516d2476","null","null","<p style=""font-size: 60px; font-family: BACS"">DkTCPTRkY</p>","","","","","","","","",""
"html-keyboard-response","180","400327","0.0-12.0-0.10","65032a60861e9a17bc1a7444","650c16f0f2faf8d7a0d14c09","651c1bf9a6ef7bed516d2476","null","null","<p style=""font-size: 60px; font-family: BACS"">krGuUbG</p>","","","","","","","","",""
"html-keyboard-response","181","401342","0.0-12.0-0.11","65032a60861e9a17bc1a7444","650c16f0f2faf8d7a0d14c09","651c1bf9a6ef7bed516d2476","null","null","<p style=""font-size: 60px; font-family: BACS"">hbmAmAM</p>","","","","","","","","",""
"html-keyboard-response","182","402345","0.0-12.0-0.12","65032a60861e9a17bc1a7444","650c16f0f2faf8d7a0d14c09","651c1bf9a6ef7bed516d2476","null","null","<p style=""font-size: 60px; font-family: BACS"">OQarQUdvY</p>","","","","","","","","",""
"html-keyboard-response","183","403528","0.0-12.0-0.13","65032a60861e9a17bc1a7444","650c16f0f2faf8d7a0d14c09","651c1bf9a6ef7bed516d2476","null","null","<p style=""font-size: 60px; font-family: BACS"">AmaclJud</p>","","","","","","","","",""
"html-keyboard-response","184","404541","0.0-12.0-0.14","65032a60861e9a17bc1a7444","650c16f0f2faf8d7a0d14c09","651c1bf9a6ef7bed516d2476","null","null","<p style=""font-size: 60px; font-family: BACS"">TCbDCmAM</p>","","","","","","","","",""
"html-keyboard-response","185","405554","0.0-12.0-0.15","65032a60861e9a17bc1a7444","650c16f0f2faf8d7a0d14c09","651c1bf9a6ef7bed516d2476","null","null","<p style=""font-size: 60px; font-family: BACS"">GLYrANUZ</p>","","","","","","","","",""
"html-keyboard-response","186","406571","0.0-12.0-0.16","65032a60861e9a17bc1a7444","650c16f0f2faf8d7a0d14c09","651c1bf9a6ef7bed516d2476","null","null","<p style=""font-size: 60px; font-family: BACS"">OQarQNac</p>","","","","","","","","",""
"html-keyboard-response","187","407573","0.0-12.0-0.17","65032a60861e9a17bc1a7444","650c16f0f2faf8d7a0d14c09","651c1bf9a6ef7bed516d2476","null","null","<p style=""font-size: 60px; font-family: BACS"">McMDTRkY</p>","","","","","","","","",""
"html-keyboard-response","188","408583","0.0-12.0-0.18","65032a60861e9a17bc1a7444","650c16f0f2faf8d7a0d14c09","651c1bf9a6ef7bed516d2476","null","null","<p style=""font-size: 60px; font-family: BACS"">YUNkZUbG</p>","","","","","","","","",""
"html-keyboard-response","189","420405","0.0-12.0-0.19","65032a60861e9a17bc1a7444","650c16f0f2faf8d7a0d14c09","651c1bf9a6ef7bed516d2476","null","null","<p style=""font-size: 60px; font-family: BACS"">mBYlKOYC</p>","","","","","","","","",""
"html-keyboard-response","190","421422","0.0-12.0-0.20","65032a60861e9a17bc1a7444","650c16f0f2faf8d7a0d14c09","651c1bf9a6ef7bed516d2476","null","null","<p style=""font-size: 60px; font-family: BACS"">rbYbuNUZ</p>","","","","","","","","",""
"html-keyboard-response","191","422435","0.0-12.0-0.21","65032a60861e9a17bc1a7444","650c16f0f2faf8d7a0d14c09","651c1bf9a6ef7bed516d2476","null","null","<p style=""font-size: 60px; font-family: BACS"">JmNkUbG</p>","","","","","","","","",""
"html-keyboard-response","192","423450","0.0-12.0-0.22","65032a60861e9a17bc1a7444","650c16f0f2faf8d7a0d14c09","651c1bf9a6ef7bed516d2476","null","null","<p style=""font-size: 60px; font-family: BACS"">mBYlmAM</p>","","","","","","","","",""
"html-keyboard-response","193","424459","0.0-12.0-0.23","65032a60861e9a17bc1a7444","650c16f0f2faf8d7a0d14c09","651c1bf9a6ef7bed516d2476","null","null","<p style=""font-size: 60px; font-family: BACS"">McMDKOYC</p>","","","","","","","","",""
"html-keyboard-response","194","425471","0.0-12.0-0.24","65032a60861e9a17bc1a7444","650c16f0f2faf8d7a0d14c09","651c1bf9a6ef7bed516d2476","null","null","<p style=""font-size: 60px; font-family: BACS"">GLYrAUdvY</p>","","","","","","","","",""
"html-keyboard-response","195","426473","0.0-12.0-0.25","65032a60861e9a17bc1a7444","650c16f0f2faf8d7a0d14c09","651c1bf9a6ef7bed516d2476","null","null","<p style=""font-size: 60px; font-family: BACS"">TDKhTRkY</p>","","","","","","","","",""
"html-keyboard-response","196","430971","0.0-12.0-0.26","65032a60861e9a17bc1a7444","650c16f0f2faf8d7a0d14c09","651c1bf9a6ef7bed516d2476","null","null","<p style=""font-size: 60px; font-family: BACS"">khmhmAM</p>","","","","","","","","",""
"html-keyboard-response","197","432778","0.0-12.0-0.27","65032a60861e9a17bc1a7444","650c16f0f2faf8d7a0d14c09","651c1bf9a6ef7bed516d2476","null","null","<p style=""font-size: 60px; font-family: BACS"">AmaclUbG</p>","","","","","","","","",""
"html-keyboard-response","198","433793","0.0-12.0-0.28","65032a60861e9a17bc1a7444","650c16f0f2faf8d7a0d14c09","651c1bf9a6ef7bed516d2476","null","null","<p style=""font-size: 60px; font-family: BACS"">UrOQUdvY</p>","","","","","","","","",""
"html-keyboard-response","199","434801","0.0-12.0-0.29","65032a60861e9a17bc1a7444","650c16f0f2faf8d7a0d14c09","651c1bf9a6ef7bed516d2476","null","null","<p style=""font-size: 60px; font-family: BACS"">YUNkZJud</p>","","","","","","","","",""
"html-keyboard-response","200","435815","0.0-12.0-0.30","65032a60861e9a17bc1a7444","650c16f0f2faf8d7a0d14c09","651c1bf9a6ef7bed516d2476","null","null","<p style=""font-size: 60px; font-family: BACS"">OtlRKOYC</p>","","","","","","","","",""
"html-keyboard-response","201","436831","0.0-12.0-0.31","65032a60861e9a17bc1a7444","650c16f0f2faf8d7a0d14c09","651c1bf9a6ef7bed516d2476","null","null","<p style=""font-size: 60px; font-family: BACS"">krGuNac</p>","","","","","","","","",""
"html-keyboard-response","202","437846","0.0-12.0-0.32","65032a60861e9a17bc1a7444","650c16f0f2faf8d7a0d14c09","651c1bf9a6ef7bed516d2476","null","null","<p style=""font-size: 60px; font-family: BACS"">TCbDCTmc</p>","","","","","","","","",""
"html-keyboard-response","203","438862","0.0-12.0-0.33","65032a60861e9a17bc1a7444","650c16f0f2faf8d7a0d14c09","651c1bf9a6ef7bed516d2476","null","null","<p style=""font-size: 60px; font-family: BACS"">DkTCPKOYC</p>","","","","","","","","",""
"html-keyboard-response","204","439877","0.0-12.0-0.34","65032a60861e9a17bc1a7444","650c16f0f2faf8d7a0d14c09","651c1bf9a6ef7bed516d2476","null","null","<p style=""font-size: 60px; font-family: BACS"">JmNkNac</p>","","","","","","","","",""
"html-keyboard-response","205","440890","0.0-12.0-0.35","65032a60861e9a17bc1a7444","650c16f0f2faf8d7a0d14c09","651c1bf9a6ef7bed516d2476","null","null","<p style=""font-size: 60px; font-family: BACS"">BbODTmc</p>","","","","","","","","",""
"html-keyboard-response","206","441900","0.0-12.0-0.36","65032a60861e9a17bc1a7444","650c16f0f2faf8d7a0d14c09","651c1bf9a6ef7bed516d2476","null","null","<p style=""font-size: 60px; font-family: BACS"">GLYrAJud</p>","","","","","","","","",""
"html-keyboard-response","207","442912","0.0-12.0-0.37","65032a60861e9a17bc1a7444","650c16f0f2faf8d7a0d14c09","651c1bf9a6ef7bed516d2476","null","null","<p style=""font-size: 60px; font-family: BACS"">TDKhKOYC</p>","","","","","","","","",""
"html-keyboard-response","208","443927","0.0-12.0-0.38","65032a60861e9a17bc1a7444","650c16f0f2faf8d7a0d14c09","651c1bf9a6ef7bed516d2476","null","null","<p style=""font-size: 60px; font-family: BACS"">OtlROPE</p>","","","","","","","","",""
"html-keyboard-response","209","444943","0.0-12.0-0.39","65032a60861e9a17bc1a7444","650c16f0f2faf8d7a0d14c09","651c1bf9a6ef7bed516d2476","null","null","<p style=""font-size: 60px; font-family: BACS"">JmNkUdvY</p>","","","","","","","","",""
"html-keyboard-response","210","445957","0.0-12.0-0.40","65032a60861e9a17bc1a7444","650c16f0f2faf8d7a0d14c09","651c1bf9a6ef7bed516d2476","null","null","<p style=""font-size: 60px; font-family: BACS"">OtlRTmc</p>","","","","","","","","",""
"html-keyboard-response","211","446972","0.0-12.0-0.41","65032a60861e9a17bc1a7444","650c16f0f2faf8d7a0d14c09","651c1bf9a6ef7bed516d2476","null","null","<p style=""font-size: 60px; font-family: BACS"">rbYbuNac</p>","","","","","","","","",""
"html-keyboard-response","212","447975","0.0-12.0-0.42","65032a60861e9a17bc1a7444","650c16f0f2faf8d7a0d14c09","651c1bf9a6ef7bed516d2476","null","null","<p style=""font-size: 60px; font-family: BACS"">TCbDCKOYC</p>","","","","","","","","",""
"html-keyboard-response","213","448988","0.0-12.0-0.43","65032a60861e9a17bc1a7444","650c16f0f2faf8d7a0d14c09","651c1bf9a6ef7bed516d2476","null","null","<p style=""font-size: 60px; font-family: BACS"">YZJmNUZ</p>","","","","","","","","",""
"html-keyboard-response","214","450000","0.0-12.0-0.44","65032a60861e9a17bc1a7444","650c16f0f2faf8d7a0d14c09","651c1bf9a6ef7bed516d2476","null","null","<p style=""font-size: 60px; font-family: BACS"">khmhOPE</p>","","","","","","","","",""
"html-keyboard-response","215","451008","0.0-12.0-0.45","65032a60861e9a17bc1a7444","650c16f0f2faf8d7a0d14c09","651c1bf9a6ef7bed516d2476","null","null","<p style=""font-size: 60px; font-family: BACS"">McMDmAM</p>","","","","","","","","",""
"html-keyboard-response","216","452023","0.0-12.0-0.46","65032a60861e9a17bc1a7444","650c16f0f2faf8d7a0d14c09","651c1bf9a6ef7bed516d2476","null","null","<p style=""font-size: 60px; font-family: BACS"">khmhTmc</p>","","","","","","","","",""
"html-keyboard-response","217","453035","0.0-12.0-0.47","65032a60861e9a17bc1a7444","650c16f0f2faf8d7a0d14c09","651c1bf9a6ef7bed516d2476","null","null","<p style=""font-size: 60px; font-family: BACS"">BbODTRkY</p>","","","","","","","","",""
"html-keyboard-response","218","454048","0.0-12.0-0.48","65032a60861e9a17bc1a7444","650c16f0f2faf8d7a0d14c09","651c1bf9a6ef7bed516d2476","null","null","<p style=""font-size: 60px; font-family: BACS"">CtmbTmc</p>","","","","","","","","",""
"html-keyboard-response","219","455063","0.0-12.0-0.49","65032a60861e9a17bc1a7444","650c16f0f2faf8d7a0d14c09","651c1bf9a6ef7bed516d2476","null","null","<p style=""font-size: 60px; font-family: BACS"">AmaclUdvY</p>","","","","","","","","",""
"html-keyboard-response","220","456076","0.0-12.0-0.50","65032a60861e9a17bc1a7444","650c16f0f2faf8d7a0d14c09","651c1bf9a6ef7bed516d2476","null","null","<p style=""font-size: 60px; font-family: BACS"">JmNkNUZ</p>","","","","","","","","",""
"html-keyboard-response","221","457149","0.0-12.0-0.51","65032a60861e9a17bc1a7444","650c16f0f2faf8d7a0d14c09","651c1bf9a6ef7bed516d2476","null","null","<p style=""font-size: 60px; font-family: BACS"">UrOQJud</p>","","","","","","","","",""
"html-keyboard-response","222","458153","0.0-12.0-0.52","65032a60861e9a17bc1a7444","650c16f0f2faf8d7a0d14c09","651c1bf9a6ef7bed516d2476","null","null","<p style=""font-size: 60px; font-family: BACS"">TDKhOPE</p>","","","","","","","","",""
"html-keyboard-response","223","459167","0.0-12.0-0.53","65032a60861e9a17bc1a7444","650c16f0f2faf8d7a0d14c09","651c1bf9a6ef7bed516d2476","null","null","<p style=""font-size: 60px; font-family: BACS"">AmaclNUZ</p>","","","","","","","","",""
"html-keyboard-response","224","460173","0.0-12.0-0.54","65032a60861e9a17bc1a7444","650c16f0f2faf8d7a0d14c09","651c1bf9a6ef7bed516d2476","null","null","<p style=""font-size: 60px; font-family: BACS"">OYuvbUdvY</p>","","","","","","","","",""
"html-keyboard-response","225","461185","0.0-12.0-0.55","65032a60861e9a17bc1a7444","650c16f0f2faf8d7a0d14c09","651c1bf9a6ef7bed516d2476","null","null","<p style=""font-size: 60px; font-family: BACS"">GLYrANac</p>","","","","","","","","",""
"html-keyboard-response","226","462192","0.0-12.0-0.56","65032a60861e9a17bc1a7444","650c16f0f2faf8d7a0d14c09","651c1bf9a6ef7bed516d2476","null","null","<p style=""font-size: 60px; font-family: BACS"">CtmbOPE</p>","","","","","","","","",""
"html-keyboard-response","227","463210","0.0-12.0-0.57","65032a60861e9a17bc1a7444","650c16f0f2faf8d7a0d14c09","651c1bf9a6ef7bed516d2476","null","null","<p style=""font-size: 60px; font-family: BACS"">hbmATmc</p>","","","","","","","","",""
"html-keyboard-response","228","464226","0.0-12.0-0.58","65032a60861e9a17bc1a7444","650c16f0f2faf8d7a0d14c09","651c1bf9a6ef7bed516d2476","null","null","<p style=""font-size: 60px; font-family: BACS"">TDKhmAM</p>","","","","","","","","",""
"html-keyboard-response","229","465239","0.0-12.0-0.59","65032a60861e9a17bc1a7444","650c16f0f2faf8d7a0d14c09","651c1bf9a6ef7bed516d2476","null","null","<p style=""font-size: 60px; font-family: BACS"">YZJmUdvY</p>","","","","","","","","",""
"html-keyboard-response","230","466256","0.0-12.0-0.60","65032a60861e9a17bc1a7444","650c16f0f2faf8d7a0d14c09","651c1bf9a6ef7bed516d2476","null","null","<p style=""font-size: 60px; font-family: BACS"">TCbDCOPE</p>","","","","","","","","",""
"html-keyboard-response","231","467265","0.0-12.0-0.61","65032a60861e9a17bc1a7444","650c16f0f2faf8d7a0d14c09","651c1bf9a6ef7bed516d2476","null","null","<p style=""font-size: 60px; font-family: BACS"">BbODKOYC</p>","","","","","","","","",""
"html-keyboard-response","232","468276","0.0-12.0-0.62","65032a60861e9a17bc1a7444","650c16f0f2faf8d7a0d14c09","651c1bf9a6ef7bed516d2476","null","null","<p style=""font-size: 60px; font-family: BACS"">OYuvbNUZ</p>","","","","","","","","",""
"html-keyboard-response","233","469287","0.0-12.0-0.63","65032a60861e9a17bc1a7444","650c16f0f2faf8d7a0d14c09","651c1bf9a6ef7bed516d2476","null","null","<p style=""font-size: 60px; font-family: BACS"">UrOQUbG</p>","","","","","","","","",""
"html-keyboard-response","234","470344","0.0-12.0-0.64","65032a60861e9a17bc1a7444","650c16f0f2faf8d7a0d14c09","651c1bf9a6ef7bed516d2476","null","null","<p style=""font-size: 60px; font-family: BACS"">OtlRTRkY</p>","","","","","","","","",""
"html-keyboard-response","235","471355","0.0-12.0-0.65","65032a60861e9a17bc1a7444","650c16f0f2faf8d7a0d14c09","651c1bf9a6ef7bed516d2476","null","null","<p style=""font-size: 60px; font-family: BACS"">YUNkZNUZ</p>","","","","","","","","",""
"html-keyboard-response","236","472367","0.0-12.0-0.66","65032a60861e9a17bc1a7444","650c16f0f2faf8d7a0d14c09","651c1bf9a6ef7bed516d2476","null","null","<p style=""font-size: 60px; font-family: BACS"">rbYbuJud</p>","","","","","","","","",""
"html-keyboard-response","237","473382","0.0-12.0-0.67","65032a60861e9a17bc1a7444","650c16f0f2faf8d7a0d14c09","651c1bf9a6ef7bed516d2476","null","null","<p style=""font-size: 60px; font-family: BACS"">DkTCPmAM</p>","","","","","","","","",""
"html-keyboard-response","238","474397","0.0-12.0-0.68","65032a60861e9a17bc1a7444","650c16f0f2faf8d7a0d14c09","651c1bf9a6ef7bed516d2476","null","null","<p style=""font-size: 60px; font-family: BACS"">CtmbKOYC</p>","","","","","","","","",""
"html-keyboard-response","239","475411","0.0-12.0-0.69","65032a60861e9a17bc1a7444","650c16f0f2faf8d7a0d14c09","651c1bf9a6ef7bed516d2476","null","null","<p style=""font-size: 60px; font-family: BACS"">YZJmUbG</p>","","","","","","","","",""
"html-keyboard-response","240","476420","0.0-12.0-0.70","65032a60861e9a17bc1a7444","650c16f0f2faf8d7a0d14c09","651c1bf9a6ef7bed516d2476","null","null","<p style=""font-size: 60px; font-family: BACS"">OQarQJud</p>","","","","","","","","",""
"html-keyboard-response","241","477437","0.0-12.0-0.71","65032a60861e9a17bc1a7444","650c16f0f2faf8d7a0d14c09","651c1bf9a6ef7bed516d2476","null","null","<p style=""font-size: 60px; font-family: BACS"">khmhTRkY</p>","","","","","","","","",""
"html-keyboard-response","242","478452","0.0-12.0-0.72","65032a60861e9a17bc1a7444","650c16f0f2faf8d7a0d14c09","651c1bf9a6ef7bed516d2476","null","null","<p style=""font-size: 60px; font-family: BACS"">McMDOPE</p>","","","","","","","","",""
"html-keyboard-response","243","479465","0.0-12.0-0.73","65032a60861e9a17bc1a7444","650c16f0f2faf8d7a0d14c09","651c1bf9a6ef7bed516d2476","null","null","<p style=""font-size: 60px; font-family: BACS"">OYuvbJud</p>","","","","","","","","",""
"html-keyboard-response","244","480476","0.0-12.0-0.74","65032a60861e9a17bc1a7444","650c16f0f2faf8d7a0d14c09","651c1bf9a6ef7bed516d2476","null","null","<p style=""font-size: 60px; font-family: BACS"">UrOQNac</p>","","","","","","","","",""
"html-keyboard-response","245","481490","0.0-12.0-0.75","65032a60861e9a17bc1a7444","650c16f0f2faf8d7a0d14c09","651c1bf9a6ef7bed516d2476","null","null","<p style=""font-size: 60px; font-family: BACS"">OQarQNUZ</p>","","","","","","","","",""
"html-keyboard-response","246","482505","0.0-12.0-0.76","65032a60861e9a17bc1a7444","650c16f0f2faf8d7a0d14c09","651c1bf9a6ef7bed516d2476","null","null","<p style=""font-size: 60px; font-family: BACS"">YUNkZNac</p>","","","","","","","","",""
"html-keyboard-response","247","483513","0.0-12.0-0.77","65032a60861e9a17bc1a7444","650c16f0f2faf8d7a0d14c09","651c1bf9a6ef7bed516d2476","null","null","<p style=""font-size: 60px; font-family: BACS"">hbmATRkY</p>","","","","","","","","",""
"html-keyboard-response","248","484525","0.0-12.0-0.78","65032a60861e9a17bc1a7444","650c16f0f2faf8d7a0d14c09","651c1bf9a6ef7bed516d2476","null","null","<p style=""font-size: 60px; font-family: BACS"">DkTCPTmc</p>","","","","","","","","",""
"html-keyboard-response","249","485536","0.0-12.0-0.79","65032a60861e9a17bc1a7444","650c16f0f2faf8d7a0d14c09","651c1bf9a6ef7bed516d2476","null","null","<p style=""font-size: 60px; font-family: BACS"">rbYbuUbG</p>","","","","","","","","",""
"html-keyboard-response","250","604619","0.0-13.0","65032a60861e9a17bc1a7444","650c16f0f2faf8d7a0d14c09","651c1bf9a6ef7bed516d2476","119083"," ","<p>Great, you've seen the third block of words. You may now take a short break.</p>
      <p>Press the spacebar when you're ready to continue.</p>","","","","","","","","",""
"html-keyboard-response","251","605626","0.0-14.0-0.0","65032a60861e9a17bc1a7444","650c16f0f2faf8d7a0d14c09","651c1bf9a6ef7bed516d2476","null","null","<p style=""font-size: 60px; font-family: BACS"">YZJmNac</p>","","","","","","","","",""
"html-keyboard-response","252","606633","0.0-14.0-0.1","65032a60861e9a17bc1a7444","650c16f0f2faf8d7a0d14c09","651c1bf9a6ef7bed516d2476","null","null","<p style=""font-size: 60px; font-family: BACS"">McMDTRkY</p>","","","","","","","","",""
"html-keyboard-response","253","607638","0.0-14.0-0.2","65032a60861e9a17bc1a7444","650c16f0f2faf8d7a0d14c09","651c1bf9a6ef7bed516d2476","null","null","<p style=""font-size: 60px; font-family: BACS"">DkTCPKOYC</p>","","","","","","","","",""
"html-keyboard-response","254","608644","0.0-14.0-0.3","65032a60861e9a17bc1a7444","650c16f0f2faf8d7a0d14c09","651c1bf9a6ef7bed516d2476","null","null","<p style=""font-size: 60px; font-family: BACS"">hbmAOPE</p>","","","","","","","","",""
"html-keyboard-response","255","609657","0.0-14.0-0.4","65032a60861e9a17bc1a7444","650c16f0f2faf8d7a0d14c09","651c1bf9a6ef7bed516d2476","null","null","<p style=""font-size: 60px; font-family: BACS"">AmaclNUZ</p>","","","","","","","","",""
"html-keyboard-response","256","610671","0.0-14.0-0.5","65032a60861e9a17bc1a7444","650c16f0f2faf8d7a0d14c09","651c1bf9a6ef7bed516d2476","null","null","<p style=""font-size: 60px; font-family: BACS"">DkTCPTRkY</p>","","","","","","","","",""
"html-keyboard-response","257","611687","0.0-14.0-0.6","65032a60861e9a17bc1a7444","650c16f0f2faf8d7a0d14c09","651c1bf9a6ef7bed516d2476","null","null","<p style=""font-size: 60px; font-family: BACS"">BbODKOYC</p>","","","","","","","","",""
"html-keyboard-response","258","612693","0.0-14.0-0.7","65032a60861e9a17bc1a7444","650c16f0f2faf8d7a0d14c09","651c1bf9a6ef7bed516d2476","null","null","<p style=""font-size: 60px; font-family: BACS"">krGuUdvY</p>","","","","","","","","",""
"html-keyboard-response","259","613696","0.0-14.0-0.8","65032a60861e9a17bc1a7444","650c16f0f2faf8d7a0d14c09","651c1bf9a6ef7bed516d2476","null","null","<p style=""font-size: 60px; font-family: BACS"">AmaclJud</p>","","","","","","","","",""
"html-keyboard-response","260","614707","0.0-14.0-0.9","65032a60861e9a17bc1a7444","650c16f0f2faf8d7a0d14c09","651c1bf9a6ef7bed516d2476","null","null","<p style=""font-size: 60px; font-family: BACS"">YUNkZNac</p>","","","","","","","","",""
"html-keyboard-response","261","615718","0.0-14.0-0.10","65032a60861e9a17bc1a7444","650c16f0f2faf8d7a0d14c09","651c1bf9a6ef7bed516d2476","null","null","<p style=""font-size: 60px; font-family: BACS"">GLYrAJud</p>","","","","","","","","",""
"html-keyboard-response","262","616727","0.0-14.0-0.11","65032a60861e9a17bc1a7444","650c16f0f2faf8d7a0d14c09","651c1bf9a6ef7bed516d2476","null","null","<p style=""font-size: 60px; font-family: BACS"">AmaclUdvY</p>","","","","","","","","",""
"html-keyboard-response","263","617737","0.0-14.0-0.12","65032a60861e9a17bc1a7444","650c16f0f2faf8d7a0d14c09","651c1bf9a6ef7bed516d2476","null","null","<p style=""font-size: 60px; font-family: BACS"">TCbDCOPE</p>","","","","","","","","",""
"html-keyboard-response","264","618742","0.0-14.0-0.13","65032a60861e9a17bc1a7444","650c16f0f2faf8d7a0d14c09","651c1bf9a6ef7bed516d2476","null","null","<p style=""font-size: 60px; font-family: BACS"">OQarQJud</p>","","","","","","","","",""
"html-keyboard-response","265","619749","0.0-14.0-0.14","65032a60861e9a17bc1a7444","650c16f0f2faf8d7a0d14c09","651c1bf9a6ef7bed516d2476","null","null","<p style=""font-size: 60px; font-family: BACS"">OtlRKOYC</p>","","","","","","","","",""
"html-keyboard-response","266","620751","0.0-14.0-0.15","65032a60861e9a17bc1a7444","650c16f0f2faf8d7a0d14c09","651c1bf9a6ef7bed516d2476","null","null","<p style=""font-size: 60px; font-family: BACS"">DkTCPTmc</p>","","","","","","","","",""
"html-keyboard-response","267","621753","0.0-14.0-0.16","65032a60861e9a17bc1a7444","650c16f0f2faf8d7a0d14c09","651c1bf9a6ef7bed516d2476","null","null","<p style=""font-size: 60px; font-family: BACS"">OYuvbJud</p>","","","","","","","","",""
"html-keyboard-response","268","622759","0.0-14.0-0.17","65032a60861e9a17bc1a7444","650c16f0f2faf8d7a0d14c09","651c1bf9a6ef7bed516d2476","null","null","<p style=""font-size: 60px; font-family: BACS"">krGuNac</p>","","","","","","","","",""
"html-keyboard-response","269","623775","0.0-14.0-0.18","65032a60861e9a17bc1a7444","650c16f0f2faf8d7a0d14c09","651c1bf9a6ef7bed516d2476","null","null","<p style=""font-size: 60px; font-family: BACS"">hbmATmc</p>","","","","","","","","",""
"html-keyboard-response","270","624788","0.0-14.0-0.19","65032a60861e9a17bc1a7444","650c16f0f2faf8d7a0d14c09","651c1bf9a6ef7bed516d2476","null","null","<p style=""font-size: 60px; font-family: BACS"">GLYrANac</p>","","","","","","","","",""
"html-keyboard-response","271","625796","0.0-14.0-0.20","65032a60861e9a17bc1a7444","650c16f0f2faf8d7a0d14c09","651c1bf9a6ef7bed516d2476","null","null","<p style=""font-size: 60px; font-family: BACS"">McMDmAM</p>","","","","","","","","",""
"html-keyboard-response","272","626800","0.0-14.0-0.21","65032a60861e9a17bc1a7444","650c16f0f2faf8d7a0d14c09","651c1bf9a6ef7bed516d2476","null","null","<p style=""font-size: 60px; font-family: BACS"">JmNkNac</p>","","","","","","","","",""
"html-keyboard-response","273","627806","0.0-14.0-0.22","65032a60861e9a17bc1a7444","650c16f0f2faf8d7a0d14c09","651c1bf9a6ef7bed516d2476","null","null","<p style=""font-size: 60px; font-family: BACS"">mBYlTmc</p>","","","","","","","","",""
"html-keyboard-response","274","628816","0.0-14.0-0.23","65032a60861e9a17bc1a7444","650c16f0f2faf8d7a0d14c09","651c1bf9a6ef7bed516d2476","null","null","<p style=""font-size: 60px; font-family: BACS"">UrOQUbG</p>","","","","","","","","",""
"html-keyboard-response","275","629823","0.0-14.0-0.24","65032a60861e9a17bc1a7444","650c16f0f2faf8d7a0d14c09","651c1bf9a6ef7bed516d2476","null","null","<p style=""font-size: 60px; font-family: BACS"">BbODTRkY</p>","","","","","","","","",""
"html-keyboard-response","276","630830","0.0-14.0-0.25","65032a60861e9a17bc1a7444","650c16f0f2faf8d7a0d14c09","651c1bf9a6ef7bed516d2476","null","null","<p style=""font-size: 60px; font-family: BACS"">TDKhmAM</p>","","","","","","","","",""
"html-keyboard-response","277","631835","0.0-14.0-0.26","65032a60861e9a17bc1a7444","650c16f0f2faf8d7a0d14c09","651c1bf9a6ef7bed516d2476","null","null","<p style=""font-size: 60px; font-family: BACS"">OYuvbNUZ</p>","","","","","","","","",""
"html-keyboard-response","278","632847","0.0-14.0-0.27","65032a60861e9a17bc1a7444","650c16f0f2faf8d7a0d14c09","651c1bf9a6ef7bed516d2476","null","null","<p style=""font-size: 60px; font-family: BACS"">khmhmAM</p>","","","","","","","","",""
"html-keyboard-response","279","633859","0.0-14.0-0.28","65032a60861e9a17bc1a7444","650c16f0f2faf8d7a0d14c09","651c1bf9a6ef7bed516d2476","null","null","<p style=""font-size: 60px; font-family: BACS"">McMDKOYC</p>","","","","","","","","",""
"html-keyboard-response","280","634869","0.0-14.0-0.29","65032a60861e9a17bc1a7444","650c16f0f2faf8d7a0d14c09","651c1bf9a6ef7bed516d2476","null","null","<p style=""font-size: 60px; font-family: BACS"">mBYlTRkY</p>","","","","","","","","",""
"html-keyboard-response","281","635875","0.0-14.0-0.30","65032a60861e9a17bc1a7444","650c16f0f2faf8d7a0d14c09","651c1bf9a6ef7bed516d2476","null","null","<p style=""font-size: 60px; font-family: BACS"">rbYbuNac</p>","","","","","","","","",""
"html-keyboard-response","282","636877","0.0-14.0-0.31","65032a60861e9a17bc1a7444","650c16f0f2faf8d7a0d14c09","651c1bf9a6ef7bed516d2476","null","null","<p style=""font-size: 60px; font-family: BACS"">OYuvbUdvY</p>","","","","","","","","",""
"html-keyboard-response","283","637887","0.0-14.0-0.32","65032a60861e9a17bc1a7444","650c16f0f2faf8d7a0d14c09","651c1bf9a6ef7bed516d2476","null","null","<p style=""font-size: 60px; font-family: BACS"">krGuJud</p>","","","","","","","","",""
"html-keyboard-response","284","638896","0.0-14.0-0.33","65032a60861e9a17bc1a7444","650c16f0f2faf8d7a0d14c09","651c1bf9a6ef7bed516d2476","null","null","<p style=""font-size: 60px; font-family: BACS"">OtlRTmc</p>","","","","","","","","",""
"html-keyboard-response","285","639909","0.0-14.0-0.34","65032a60861e9a17bc1a7444","650c16f0f2faf8d7a0d14c09","651c1bf9a6ef7bed516d2476","null","null","<p style=""font-size: 60px; font-family: BACS"">krGuUbG</p>","","","","","","","","",""
"html-keyboard-response","286","640914","0.0-14.0-0.35","65032a60861e9a17bc1a7444","650c16f0f2faf8d7a0d14c09","651c1bf9a6ef7bed516d2476","null","null","<p style=""font-size: 60px; font-family: BACS"">CtmbOPE</p>","","","","","","","","",""
"html-keyboard-response","287","641923","0.0-14.0-0.36","65032a60861e9a17bc1a7444","650c16f0f2faf8d7a0d14c09","651c1bf9a6ef7bed516d2476","null","null","<p style=""font-size: 60px; font-family: BACS"">UrOQJud</p>","","","","","","","","",""
"html-keyboard-response","288","642937","0.0-14.0-0.37","65032a60861e9a17bc1a7444","650c16f0f2faf8d7a0d14c09","651c1bf9a6ef7bed516d2476","null","null","<p style=""font-size: 60px; font-family: BACS"">khmhTRkY</p>","","","","","","","","",""
"html-keyboard-response","289","643948","0.0-14.0-0.38","65032a60861e9a17bc1a7444","650c16f0f2faf8d7a0d14c09","651c1bf9a6ef7bed516d2476","null","null","<p style=""font-size: 60px; font-family: BACS"">OYuvbUbG</p>","","","","","","","","",""
"html-keyboard-response","290","644953","0.0-14.0-0.39","65032a60861e9a17bc1a7444","650c16f0f2faf8d7a0d14c09","651c1bf9a6ef7bed516d2476","null","null","<p style=""font-size: 60px; font-family: BACS"">TDKhOPE</p>","","","","","","","","",""
"html-keyboard-response","291","645963","0.0-14.0-0.40","65032a60861e9a17bc1a7444","650c16f0f2faf8d7a0d14c09","651c1bf9a6ef7bed516d2476","null","null","<p style=""font-size: 60px; font-family: BACS"">TCbDCKOYC</p>","","","","","","","","",""
"html-keyboard-response","292","646974","0.0-14.0-0.41","65032a60861e9a17bc1a7444","650c16f0f2faf8d7a0d14c09","651c1bf9a6ef7bed516d2476","null","null","<p style=""font-size: 60px; font-family: BACS"">JmNkUdvY</p>","","","","","","","","",""
"html-keyboard-response","293","647983","0.0-14.0-0.42","65032a60861e9a17bc1a7444","650c16f0f2faf8d7a0d14c09","651c1bf9a6ef7bed516d2476","null","null","<p style=""font-size: 60px; font-family: BACS"">CtmbTmc</p>","","","","","","","","",""
"html-keyboard-response","294","648991","0.0-14.0-0.43","65032a60861e9a17bc1a7444","650c16f0f2faf8d7a0d14c09","651c1bf9a6ef7bed516d2476","null","null","<p style=""font-size: 60px; font-family: BACS"">khmhOPE</p>","","","","","","","","",""
"html-keyboard-response","295","650005","0.0-14.0-0.44","65032a60861e9a17bc1a7444","650c16f0f2faf8d7a0d14c09","651c1bf9a6ef7bed516d2476","null","null","<p style=""font-size: 60px; font-family: BACS"">CtmbKOYC</p>","","","","","","","","",""
"html-keyboard-response","296","651008","0.0-14.0-0.45","65032a60861e9a17bc1a7444","650c16f0f2faf8d7a0d14c09","651c1bf9a6ef7bed516d2476","null","null","<p style=""font-size: 60px; font-family: BACS"">UrOQUdvY</p>","","","","","","","","",""
"html-keyboard-response","297","652021","0.0-14.0-0.46","65032a60861e9a17bc1a7444","650c16f0f2faf8d7a0d14c09","651c1bf9a6ef7bed516d2476","null","null","<p style=""font-size: 60px; font-family: BACS"">AmaclUbG</p>","","","","","","","","",""
"html-keyboard-response","298","653029","0.0-14.0-0.47","65032a60861e9a17bc1a7444","650c16f0f2faf8d7a0d14c09","651c1bf9a6ef7bed516d2476","null","null","<p style=""font-size: 60px; font-family: BACS"">UrOQNac</p>","","","","","","","","",""
"html-keyboard-response","299","654043","0.0-14.0-0.48","65032a60861e9a17bc1a7444","650c16f0f2faf8d7a0d14c09","651c1bf9a6ef7bed516d2476","null","null","<p style=""font-size: 60px; font-family: BACS"">DkTCPmAM</p>","","","","","","","","",""
"html-keyboard-response","300","655053","0.0-14.0-0.49","65032a60861e9a17bc1a7444","650c16f0f2faf8d7a0d14c09","651c1bf9a6ef7bed516d2476","null","null","<p style=""font-size: 60px; font-family: BACS"">TCbDCTmc</p>","","","","","","","","",""
"html-keyboard-response","301","656058","0.0-14.0-0.50","65032a60861e9a17bc1a7444","650c16f0f2faf8d7a0d14c09","651c1bf9a6ef7bed516d2476","null","null","<p style=""font-size: 60px; font-family: BACS"">TDKhTRkY</p>","","","","","","","","",""
"html-keyboard-response","302","657062","0.0-14.0-0.51","65032a60861e9a17bc1a7444","650c16f0f2faf8d7a0d14c09","651c1bf9a6ef7bed516d2476","null","null","<p style=""font-size: 60px; font-family: BACS"">mBYlmAM</p>","","","","","","","","",""
"html-keyboard-response","303","658072","0.0-14.0-0.52","65032a60861e9a17bc1a7444","650c16f0f2faf8d7a0d14c09","651c1bf9a6ef7bed516d2476","null","null","<p style=""font-size: 60px; font-family: BACS"">khmhTmc</p>","","","","","","","","",""
"html-keyboard-response","304","659089","0.0-14.0-0.53","65032a60861e9a17bc1a7444","650c16f0f2faf8d7a0d14c09","651c1bf9a6ef7bed516d2476","null","null","<p style=""font-size: 60px; font-family: BACS"">rbYbuUbG</p>","","","","","","","","",""
"html-keyboard-response","305","660104","0.0-14.0-0.54","65032a60861e9a17bc1a7444","650c16f0f2faf8d7a0d14c09","651c1bf9a6ef7bed516d2476","null","null","<p style=""font-size: 60px; font-family: BACS"">GLYrANUZ</p>","","","","","","","","",""
"html-keyboard-response","306","661108","0.0-14.0-0.55","65032a60861e9a17bc1a7444","650c16f0f2faf8d7a0d14c09","651c1bf9a6ef7bed516d2476","null","null","<p style=""font-size: 60px; font-family: BACS"">OtlROPE</p>","","","","","","","","",""
"html-keyboard-response","307","662124","0.0-14.0-0.56","65032a60861e9a17bc1a7444","650c16f0f2faf8d7a0d14c09","651c1bf9a6ef7bed516d2476","null","null","<p style=""font-size: 60px; font-family: BACS"">YZJmUbG</p>","","","","","","","","",""
"html-keyboard-response","308","663139","0.0-14.0-0.57","65032a60861e9a17bc1a7444","650c16f0f2faf8d7a0d14c09","651c1bf9a6ef7bed516d2476","null","null","<p style=""font-size: 60px; font-family: BACS"">TCbDCmAM</p>","","","","","","","","",""
"html-keyboard-response","309","664150","0.0-14.0-0.58","65032a60861e9a17bc1a7444","650c16f0f2faf8d7a0d14c09","651c1bf9a6ef7bed516d2476","null","null","<p style=""font-size: 60px; font-family: BACS"">YUNkZNUZ</p>","","","","","","","","",""
"html-keyboard-response","310","665160","0.0-14.0-0.59","65032a60861e9a17bc1a7444","650c16f0f2faf8d7a0d14c09","651c1bf9a6ef7bed516d2476","null","null","<p style=""font-size: 60px; font-family: BACS"">hbmATRkY</p>","","","","","","","","",""
"html-keyboard-response","311","666167","0.0-14.0-0.60","65032a60861e9a17bc1a7444","650c16f0f2faf8d7a0d14c09","651c1bf9a6ef7bed516d2476","null","null","<p style=""font-size: 60px; font-family: BACS"">YZJmNUZ</p>","","","","","","","","",""
"html-keyboard-response","312","667169","0.0-14.0-0.61","65032a60861e9a17bc1a7444","650c16f0f2faf8d7a0d14c09","651c1bf9a6ef7bed516d2476","null","null","<p style=""font-size: 60px; font-family: BACS"">YUNkZJud</p>","","","","","","","","",""
"html-keyboard-response","313","668180","0.0-14.0-0.62","65032a60861e9a17bc1a7444","650c16f0f2faf8d7a0d14c09","651c1bf9a6ef7bed516d2476","null","null","<p style=""font-size: 60px; font-family: BACS"">BbODTmc</p>","","","","","","","","",""
"html-keyboard-response","314","669185","0.0-14.0-0.63","65032a60861e9a17bc1a7444","650c16f0f2faf8d7a0d14c09","651c1bf9a6ef7bed516d2476","null","null","<p style=""font-size: 60px; font-family: BACS"">hbmAmAM</p>","","","","","","","","",""
"html-keyboard-response","315","670202","0.0-14.0-0.64","65032a60861e9a17bc1a7444","650c16f0f2faf8d7a0d14c09","651c1bf9a6ef7bed516d2476","null","null","<p style=""font-size: 60px; font-family: BACS"">OQarQNUZ</p>","","","","","","","","",""
"html-keyboard-response","316","671214","0.0-14.0-0.65","65032a60861e9a17bc1a7444","650c16f0f2faf8d7a0d14c09","651c1bf9a6ef7bed516d2476","null","null","<p style=""font-size: 60px; font-family: BACS"">JmNkUbG</p>","","","","","","","","",""
"html-keyboard-response","317","672228","0.0-14.0-0.66","65032a60861e9a17bc1a7444","650c16f0f2faf8d7a0d14c09","651c1bf9a6ef7bed516d2476","null","null","<p style=""font-size: 60px; font-family: BACS"">McMDOPE</p>","","","","","","","","",""
"html-keyboard-response","318","673233","0.0-14.0-0.67","65032a60861e9a17bc1a7444","650c16f0f2faf8d7a0d14c09","651c1bf9a6ef7bed516d2476","null","null","<p style=""font-size: 60px; font-family: BACS"">OQarQUdvY</p>","","","","","","","","",""
"html-keyboard-response","319","674236","0.0-14.0-0.68","65032a60861e9a17bc1a7444","650c16f0f2faf8d7a0d14c09","651c1bf9a6ef7bed516d2476","null","null","<p style=""font-size: 60px; font-family: BACS"">TDKhKOYC</p>","","","","","","","","",""
"html-keyboard-response","320","675239","0.0-14.0-0.69","65032a60861e9a17bc1a7444","650c16f0f2faf8d7a0d14c09","651c1bf9a6ef7bed516d2476","null","null","<p style=""font-size: 60px; font-family: BACS"">BbODOPE</p>","","","","","","","","",""
"html-keyboard-response","321","676244","0.0-14.0-0.70","65032a60861e9a17bc1a7444","650c16f0f2faf8d7a0d14c09","651c1bf9a6ef7bed516d2476","null","null","<p style=""font-size: 60px; font-family: BACS"">rbYbuJud</p>","","","","","","","","",""
"html-keyboard-response","322","677253","0.0-14.0-0.71","65032a60861e9a17bc1a7444","650c16f0f2faf8d7a0d14c09","651c1bf9a6ef7bed516d2476","null","null","<p style=""font-size: 60px; font-family: BACS"">YUNkZUbG</p>","","","","","","","","",""
"html-keyboard-response","323","678264","0.0-14.0-0.72","65032a60861e9a17bc1a7444","650c16f0f2faf8d7a0d14c09","651c1bf9a6ef7bed516d2476","null","null","<p style=""font-size: 60px; font-family: BACS"">CtmbmAM</p>","","","","","","","","",""
"html-keyboard-response","324","679271","0.0-14.0-0.73","65032a60861e9a17bc1a7444","650c16f0f2faf8d7a0d14c09","651c1bf9a6ef7bed516d2476","null","null","<p style=""font-size: 60px; font-family: BACS"">mBYlKOYC</p>","","","","","","","","",""
"html-keyboard-response","325","680278","0.0-14.0-0.74","65032a60861e9a17bc1a7444","650c16f0f2faf8d7a0d14c09","651c1bf9a6ef7bed516d2476","null","null","<p style=""font-size: 60px; font-family: BACS"">JmNkNUZ</p>","","","","","","","","",""
"html-keyboard-response","326","681287","0.0-14.0-0.75","65032a60861e9a17bc1a7444","650c16f0f2faf8d7a0d14c09","651c1bf9a6ef7bed516d2476","null","null","<p style=""font-size: 60px; font-family: BACS"">YZJmUdvY</p>","","","","","","","","",""
"html-keyboard-response","327","682298","0.0-14.0-0.76","65032a60861e9a17bc1a7444","650c16f0f2faf8d7a0d14c09","651c1bf9a6ef7bed516d2476","null","null","<p style=""font-size: 60px; font-family: BACS"">OQarQNac</p>","","","","","","","","",""
"html-keyboard-response","328","683302","0.0-14.0-0.77","65032a60861e9a17bc1a7444","650c16f0f2faf8d7a0d14c09","651c1bf9a6ef7bed516d2476","null","null","<p style=""font-size: 60px; font-family: BACS"">OtlRTRkY</p>","","","","","","","","",""
"html-keyboard-response","329","684313","0.0-14.0-0.78","65032a60861e9a17bc1a7444","650c16f0f2faf8d7a0d14c09","651c1bf9a6ef7bed516d2476","null","null","<p style=""font-size: 60px; font-family: BACS"">GLYrAUdvY</p>","","","","","","","","",""
"html-keyboard-response","330","685318","0.0-14.0-0.79","65032a60861e9a17bc1a7444","650c16f0f2faf8d7a0d14c09","651c1bf9a6ef7bed516d2476","null","null","<p style=""font-size: 60px; font-family: BACS"">rbYbuNUZ</p>","","","","","","","","",""
"html-keyboard-response","331","693373","0.0-15.0","65032a60861e9a17bc1a7444","650c16f0f2faf8d7a0d14c09","651c1bf9a6ef7bed516d2476","8053"," ","<p>Great, you've seen the fourth block of words. You may now take a short break.</p>
      <p>Press the spacebar when you're ready to continue.</p>","","","","","","","","",""
"html-keyboard-response","332","694379","0.0-16.0-0.0","65032a60861e9a17bc1a7444","650c16f0f2faf8d7a0d14c09","651c1bf9a6ef7bed516d2476","null","null","<p style=""font-size: 60px; font-family: BACS"">TDKhOPE</p>","","","","","","","","",""
"html-keyboard-response","333","695391","0.0-16.0-0.1","65032a60861e9a17bc1a7444","650c16f0f2faf8d7a0d14c09","651c1bf9a6ef7bed516d2476","null","null","<p style=""font-size: 60px; font-family: BACS"">TDKhOPE</p>","","","","","","","","",""
"html-keyboard-response","334","696399","0.0-16.0-0.2","65032a60861e9a17bc1a7444","650c16f0f2faf8d7a0d14c09","651c1bf9a6ef7bed516d2476","null","null","<p style=""font-size: 60px; font-family: BACS"">TDKhOPE</p>","","","","","","","","",""
"html-keyboard-response","335","697406","0.0-16.0-0.3","65032a60861e9a17bc1a7444","650c16f0f2faf8d7a0d14c09","651c1bf9a6ef7bed516d2476","null","null","<p style=""font-size: 60px; font-family: BACS"">TDKhOPE</p>","","","","","","","","",""
"html-keyboard-response","336","698409","0.0-16.0-0.4","65032a60861e9a17bc1a7444","650c16f0f2faf8d7a0d14c09","651c1bf9a6ef7bed516d2476","null","null","<p style=""font-size: 60px; font-family: BACS"">TDKhOPE</p>","","","","","","","","",""
"html-keyboard-response","337","699417","0.0-16.0-0.5","65032a60861e9a17bc1a7444","650c16f0f2faf8d7a0d14c09","651c1bf9a6ef7bed516d2476","null","null","<p style=""font-size: 60px; font-family: BACS"">TDKhOPE</p>","","","","","","","","",""
"html-keyboard-response","338","700422","0.0-16.0-0.6","65032a60861e9a17bc1a7444","650c16f0f2faf8d7a0d14c09","651c1bf9a6ef7bed516d2476","null","null","<p style=""font-size: 60px; font-family: BACS"">TDKhOPE</p>","","","","","","","","",""
"html-keyboard-response","339","701433","0.0-16.0-0.7","65032a60861e9a17bc1a7444","650c16f0f2faf8d7a0d14c09","651c1bf9a6ef7bed516d2476","null","null","<p style=""font-size: 60px; font-family: BACS"">TDKhOPE</p>","","","","","","","","",""
"html-keyboard-response","340","702441","0.0-16.0-0.8","65032a60861e9a17bc1a7444","650c16f0f2faf8d7a0d14c09","651c1bf9a6ef7bed516d2476","null","null","<p style=""font-size: 60px; font-family: BACS"">TDKhOPE</p>","","","","","","","","",""
"html-keyboard-response","341","703450","0.0-16.0-0.9","65032a60861e9a17bc1a7444","650c16f0f2faf8d7a0d14c09","651c1bf9a6ef7bed516d2476","null","null","<p style=""font-size: 60px; font-family: BACS"">TDKhOPE</p>","","","","","","","","",""
"html-keyboard-response","342","704465","0.0-16.0-0.10","65032a60861e9a17bc1a7444","650c16f0f2faf8d7a0d14c09","651c1bf9a6ef7bed516d2476","null","null","<p style=""font-size: 60px; font-family: BACS"">TDKhOPE</p>","","","","","","","","",""
"html-keyboard-response","343","705482","0.0-16.0-0.11","65032a60861e9a17bc1a7444","650c16f0f2faf8d7a0d14c09","651c1bf9a6ef7bed516d2476","null","null","<p style=""font-size: 60px; font-family: BACS"">TDKhOPE</p>","","","","","","","","",""
"html-keyboard-response","344","706495","0.0-16.0-0.12","65032a60861e9a17bc1a7444","650c16f0f2faf8d7a0d14c09","651c1bf9a6ef7bed516d2476","null","null","<p style=""font-size: 60px; font-family: BACS"">TDKhOPE</p>","","","","","","","","",""
"html-keyboard-response","345","707501","0.0-16.0-0.13","65032a60861e9a17bc1a7444","650c16f0f2faf8d7a0d14c09","651c1bf9a6ef7bed516d2476","null","null","<p style=""font-size: 60px; font-family: BACS"">TDKhOPE</p>","","","","","","","","",""
"html-keyboard-response","346","708505","0.0-16.0-0.14","65032a60861e9a17bc1a7444","650c16f0f2faf8d7a0d14c09","651c1bf9a6ef7bed516d2476","null","null","<p style=""font-size: 60px; font-family: BACS"">TDKhOPE</p>","","","","","","","","",""
"html-keyboard-response","347","709520","0.0-16.0-0.15","65032a60861e9a17bc1a7444","650c16f0f2faf8d7a0d14c09","651c1bf9a6ef7bed516d2476","null","null","<p style=""font-size: 60px; font-family: BACS"">TDKhOPE</p>","","","","","","","","",""
"html-keyboard-response","348","710523","0.0-16.0-0.16","65032a60861e9a17bc1a7444","650c16f0f2faf8d7a0d14c09","651c1bf9a6ef7bed516d2476","null","null","<p style=""font-size: 60px; font-family: BACS"">TDKhOPE</p>","","","","","","","","",""
"html-keyboard-response","349","711534","0.0-16.0-0.17","65032a60861e9a17bc1a7444","650c16f0f2faf8d7a0d14c09","651c1bf9a6ef7bed516d2476","null","null","<p style=""font-size: 60px; font-family: BACS"">TDKhOPE</p>","","","","","","","","",""
"html-keyboard-response","350","712548","0.0-16.0-0.18","65032a60861e9a17bc1a7444","650c16f0f2faf8d7a0d14c09","651c1bf9a6ef7bed516d2476","null","null","<p style=""font-size: 60px; font-family: BACS"">TDKhOPE</p>","","","","","","","","",""
"html-keyboard-response","351","713562","0.0-16.0-0.19","65032a60861e9a17bc1a7444","650c16f0f2faf8d7a0d14c09","651c1bf9a6ef7bed516d2476","null","null","<p style=""font-size: 60px; font-family: BACS"">TDKhOPE</p>","","","","","","","","",""
"html-keyboard-response","352","714572","0.0-16.0-0.20","65032a60861e9a17bc1a7444","650c16f0f2faf8d7a0d14c09","651c1bf9a6ef7bed516d2476","null","null","<p style=""font-size: 60px; font-family: BACS"">TDKhOPE</p>","","","","","","","","",""
"html-keyboard-response","353","715582","0.0-16.0-0.21","65032a60861e9a17bc1a7444","650c16f0f2faf8d7a0d14c09","651c1bf9a6ef7bed516d2476","null","null","<p style=""font-size: 60px; font-family: BACS"">TDKhOPE</p>","","","","","","","","",""
"html-keyboard-response","354","716596","0.0-16.0-0.22","65032a60861e9a17bc1a7444","650c16f0f2faf8d7a0d14c09","651c1bf9a6ef7bed516d2476","null","null","<p style=""font-size: 60px; font-family: BACS"">TDKhOPE</p>","","","","","","","","",""
"html-keyboard-response","355","717600","0.0-16.0-0.23","65032a60861e9a17bc1a7444","650c16f0f2faf8d7a0d14c09","651c1bf9a6ef7bed516d2476","null","null","<p style=""font-size: 60px; font-family: BACS"">TDKhOPE</p>","","","","","","","","",""
"html-keyboard-response","356","718608","0.0-16.0-0.24","65032a60861e9a17bc1a7444","650c16f0f2faf8d7a0d14c09","651c1bf9a6ef7bed516d2476","null","null","<p style=""font-size: 60px; font-family: BACS"">TDKhOPE</p>","","","","","","","","",""
"html-keyboard-response","357","719620","0.0-16.0-0.25","65032a60861e9a17bc1a7444","650c16f0f2faf8d7a0d14c09","651c1bf9a6ef7bed516d2476","null","null","<p style=""font-size: 60px; font-family: BACS"">TDKhOPE</p>","","","","","","","","",""
"html-keyboard-response","358","720634","0.0-16.0-0.26","65032a60861e9a17bc1a7444","650c16f0f2faf8d7a0d14c09","651c1bf9a6ef7bed516d2476","null","null","<p style=""font-size: 60px; font-family: BACS"">TDKhOPE</p>","","","","","","","","",""
"html-keyboard-response","359","721651","0.0-16.0-0.27","65032a60861e9a17bc1a7444","650c16f0f2faf8d7a0d14c09","651c1bf9a6ef7bed516d2476","null","null","<p style=""font-size: 60px; font-family: BACS"">TDKhOPE</p>","","","","","","","","",""
"html-keyboard-response","360","722661","0.0-16.0-0.28","65032a60861e9a17bc1a7444","650c16f0f2faf8d7a0d14c09","651c1bf9a6ef7bed516d2476","null","null","<p style=""font-size: 60px; font-family: BACS"">TDKhOPE</p>","","","","","","","","",""
"html-keyboard-response","361","723682","0.0-16.0-0.29","65032a60861e9a17bc1a7444","650c16f0f2faf8d7a0d14c09","651c1bf9a6ef7bed516d2476","null","null","<p style=""font-size: 60px; font-family: BACS"">TDKhOPE</p>","","","","","","","","",""
"html-keyboard-response","362","724688","0.0-16.0-0.30","65032a60861e9a17bc1a7444","650c16f0f2faf8d7a0d14c09","651c1bf9a6ef7bed516d2476","null","null","<p style=""font-size: 60px; font-family: BACS"">TDKhOPE</p>","","","","","","","","",""
"html-keyboard-response","363","725701","0.0-16.0-0.31","65032a60861e9a17bc1a7444","650c16f0f2faf8d7a0d14c09","651c1bf9a6ef7bed516d2476","null","null","<p style=""font-size: 60px; font-family: BACS"">TDKhOPE</p>","","","","","","","","",""
"html-keyboard-response","364","726713","0.0-16.0-0.32","65032a60861e9a17bc1a7444","650c16f0f2faf8d7a0d14c09","651c1bf9a6ef7bed516d2476","null","null","<p style=""font-size: 60px; font-family: BACS"">TDKhOPE</p>","","","","","","","","",""
"html-keyboard-response","365","727725","0.0-16.0-0.33","65032a60861e9a17bc1a7444","650c16f0f2faf8d7a0d14c09","651c1bf9a6ef7bed516d2476","null","null","<p style=""font-size: 60px; font-family: BACS"">TDKhOPE</p>","","","","","","","","",""
"html-keyboard-response","366","728729","0.0-16.0-0.34","65032a60861e9a17bc1a7444","650c16f0f2faf8d7a0d14c09","651c1bf9a6ef7bed516d2476","null","null","<p style=""font-size: 60px; font-family: BACS"">TDKhOPE</p>","","","","","","","","",""
"html-keyboard-response","367","729740","0.0-16.0-0.35","65032a60861e9a17bc1a7444","650c16f0f2faf8d7a0d14c09","651c1bf9a6ef7bed516d2476","null","null","<p style=""font-size: 60px; font-family: BACS"">TDKhOPE</p>","","","","","","","","",""
"html-keyboard-response","368","730745","0.0-16.0-0.36","65032a60861e9a17bc1a7444","650c16f0f2faf8d7a0d14c09","651c1bf9a6ef7bed516d2476","null","null","<p style=""font-size: 60px; font-family: BACS"">TDKhOPE</p>","","","","","","","","",""
"html-keyboard-response","369","731760","0.0-16.0-0.37","65032a60861e9a17bc1a7444","650c16f0f2faf8d7a0d14c09","651c1bf9a6ef7bed516d2476","null","null","<p style=""font-size: 60px; font-family: BACS"">TDKhOPE</p>","","","","","","","","",""
"html-keyboard-response","370","732765","0.0-16.0-0.38","65032a60861e9a17bc1a7444","650c16f0f2faf8d7a0d14c09","651c1bf9a6ef7bed516d2476","null","null","<p style=""font-size: 60px; font-family: BACS"">TDKhOPE</p>","","","","","","","","",""
"html-keyboard-response","371","733775","0.0-16.0-0.39","65032a60861e9a17bc1a7444","650c16f0f2faf8d7a0d14c09","651c1bf9a6ef7bed516d2476","null","null","<p style=""font-size: 60px; font-family: BACS"">TDKhOPE</p>","","","","","","","","",""
"html-keyboard-response","372","734777","0.0-16.0-0.40","65032a60861e9a17bc1a7444","650c16f0f2faf8d7a0d14c09","651c1bf9a6ef7bed516d2476","null","null","<p style=""font-size: 60px; font-family: BACS"">TDKhOPE</p>","","","","","","","","",""
"html-keyboard-response","373","735787","0.0-16.0-0.41","65032a60861e9a17bc1a7444","650c16f0f2faf8d7a0d14c09","651c1bf9a6ef7bed516d2476","null","null","<p style=""font-size: 60px; font-family: BACS"">TDKhOPE</p>","","","","","","","","",""
"html-keyboard-response","374","736794","0.0-16.0-0.42","65032a60861e9a17bc1a7444","650c16f0f2faf8d7a0d14c09","651c1bf9a6ef7bed516d2476","null","null","<p style=""font-size: 60px; font-family: BACS"">TDKhOPE</p>","","","","","","","","",""
"html-keyboard-response","375","737805","0.0-16.0-0.43","65032a60861e9a17bc1a7444","650c16f0f2faf8d7a0d14c09","651c1bf9a6ef7bed516d2476","null","null","<p style=""font-size: 60px; font-family: BACS"">TDKhOPE</p>","","","","","","","","",""
"html-keyboard-response","376","738816","0.0-16.0-0.44","65032a60861e9a17bc1a7444","650c16f0f2faf8d7a0d14c09","651c1bf9a6ef7bed516d2476","null","null","<p style=""font-size: 60px; font-family: BACS"">TDKhOPE</p>","","","","","","","","",""
"html-keyboard-response","377","739825","0.0-16.0-0.45","65032a60861e9a17bc1a7444","650c16f0f2faf8d7a0d14c09","651c1bf9a6ef7bed516d2476","null","null","<p style=""font-size: 60px; font-family: BACS"">TDKhOPE</p>","","","","","","","","",""
"html-keyboard-response","378","740839","0.0-16.0-0.46","65032a60861e9a17bc1a7444","650c16f0f2faf8d7a0d14c09","651c1bf9a6ef7bed516d2476","null","null","<p style=""font-size: 60px; font-family: BACS"">TDKhOPE</p>","","","","","","","","",""
"html-keyboard-response","379","741854","0.0-16.0-0.47","65032a60861e9a17bc1a7444","650c16f0f2faf8d7a0d14c09","651c1bf9a6ef7bed516d2476","null","null","<p style=""font-size: 60px; font-family: BACS"">TDKhOPE</p>","","","","","","","","",""
"html-keyboard-response","380","742868","0.0-16.0-0.48","65032a60861e9a17bc1a7444","650c16f0f2faf8d7a0d14c09","651c1bf9a6ef7bed516d2476","null","null","<p style=""font-size: 60px; font-family: BACS"">TDKhOPE</p>","","","","","","","","",""
"html-keyboard-response","381","743880","0.0-16.0-0.49","65032a60861e9a17bc1a7444","650c16f0f2faf8d7a0d14c09","651c1bf9a6ef7bed516d2476","null","null","<p style=""font-size: 60px; font-family: BACS"">TDKhOPE</p>","","","","","","","","",""
"html-keyboard-response","382","744893","0.0-16.0-0.50","65032a60861e9a17bc1a7444","650c16f0f2faf8d7a0d14c09","651c1bf9a6ef7bed516d2476","null","null","<p style=""font-size: 60px; font-family: BACS"">TDKhOPE</p>","","","","","","","","",""
"html-keyboard-response","383","745908","0.0-16.0-0.51","65032a60861e9a17bc1a7444","650c16f0f2faf8d7a0d14c09","651c1bf9a6ef7bed516d2476","null","null","<p style=""font-size: 60px; font-family: BACS"">TDKhOPE</p>","","","","","","","","",""
"html-keyboard-response","384","746921","0.0-16.0-0.52","65032a60861e9a17bc1a7444","650c16f0f2faf8d7a0d14c09","651c1bf9a6ef7bed516d2476","null","null","<p style=""font-size: 60px; font-family: BACS"">TDKhOPE</p>","","","","","","","","",""
"html-keyboard-response","385","747931","0.0-16.0-0.53","65032a60861e9a17bc1a7444","650c16f0f2faf8d7a0d14c09","651c1bf9a6ef7bed516d2476","null","null","<p style=""font-size: 60px; font-family: BACS"">TDKhOPE</p>","","","","","","","","",""
"html-keyboard-response","386","748936","0.0-16.0-0.54","65032a60861e9a17bc1a7444","650c16f0f2faf8d7a0d14c09","651c1bf9a6ef7bed516d2476","null","null","<p style=""font-size: 60px; font-family: BACS"">TDKhOPE</p>","","","","","","","","",""
"html-keyboard-response","387","749940","0.0-16.0-0.55","65032a60861e9a17bc1a7444","650c16f0f2faf8d7a0d14c09","651c1bf9a6ef7bed516d2476","null","null","<p style=""font-size: 60px; font-family: BACS"">TDKhOPE</p>","","","","","","","","",""
"html-keyboard-response","388","750948","0.0-16.0-0.56","65032a60861e9a17bc1a7444","650c16f0f2faf8d7a0d14c09","651c1bf9a6ef7bed516d2476","null","null","<p style=""font-size: 60px; font-family: BACS"">TDKhOPE</p>","","","","","","","","",""
"html-keyboard-response","389","751963","0.0-16.0-0.57","65032a60861e9a17bc1a7444","650c16f0f2faf8d7a0d14c09","651c1bf9a6ef7bed516d2476","null","null","<p style=""font-size: 60px; font-family: BACS"">TDKhOPE</p>","","","","","","","","",""
"html-keyboard-response","390","752977","0.0-16.0-0.58","65032a60861e9a17bc1a7444","650c16f0f2faf8d7a0d14c09","651c1bf9a6ef7bed516d2476","null","null","<p style=""font-size: 60px; font-family: BACS"">TDKhOPE</p>","","","","","","","","",""
"html-keyboard-response","391","753983","0.0-16.0-0.59","65032a60861e9a17bc1a7444","650c16f0f2faf8d7a0d14c09","651c1bf9a6ef7bed516d2476","null","null","<p style=""font-size: 60px; font-family: BACS"">TDKhOPE</p>","","","","","","","","",""
"html-keyboard-response","392","754994","0.0-16.0-0.60","65032a60861e9a17bc1a7444","650c16f0f2faf8d7a0d14c09","651c1bf9a6ef7bed516d2476","null","null","<p style=""font-size: 60px; font-family: BACS"">TDKhOPE</p>","","","","","","","","",""
"html-keyboard-response","393","755999","0.0-16.0-0.61","65032a60861e9a17bc1a7444","650c16f0f2faf8d7a0d14c09","651c1bf9a6ef7bed516d2476","null","null","<p style=""font-size: 60px; font-family: BACS"">TDKhOPE</p>","","","","","","","","",""
"html-keyboard-response","394","757003","0.0-16.0-0.62","65032a60861e9a17bc1a7444","650c16f0f2faf8d7a0d14c09","651c1bf9a6ef7bed516d2476","null","null","<p style=""font-size: 60px; font-family: BACS"">TDKhOPE</p>","","","","","","","","",""
"html-keyboard-response","395","758008","0.0-16.0-0.63","65032a60861e9a17bc1a7444","650c16f0f2faf8d7a0d14c09","651c1bf9a6ef7bed516d2476","null","null","<p style=""font-size: 60px; font-family: BACS"">TDKhOPE</p>","","","","","","","","",""
"html-keyboard-response","396","759022","0.0-16.0-0.64","65032a60861e9a17bc1a7444","650c16f0f2faf8d7a0d14c09","651c1bf9a6ef7bed516d2476","null","null","<p style=""font-size: 60px; font-family: BACS"">TDKhOPE</p>","","","","","","","","",""
"html-keyboard-response","397","760037","0.0-16.0-0.65","65032a60861e9a17bc1a7444","650c16f0f2faf8d7a0d14c09","651c1bf9a6ef7bed516d2476","null","null","<p style=""font-size: 60px; font-family: BACS"">TDKhOPE</p>","","","","","","","","",""
"html-keyboard-response","398","761043","0.0-16.0-0.66","65032a60861e9a17bc1a7444","650c16f0f2faf8d7a0d14c09","651c1bf9a6ef7bed516d2476","null","null","<p style=""font-size: 60px; font-family: BACS"">TDKhOPE</p>","","","","","","","","",""
"html-keyboard-response","399","762060","0.0-16.0-0.67","65032a60861e9a17bc1a7444","650c16f0f2faf8d7a0d14c09","651c1bf9a6ef7bed516d2476","null","null","<p style=""font-size: 60px; font-family: BACS"">TDKhOPE</p>","","","","","","","","",""
"html-keyboard-response","400","763074","0.0-16.0-0.68","65032a60861e9a17bc1a7444","650c16f0f2faf8d7a0d14c09","651c1bf9a6ef7bed516d2476","null","null","<p style=""font-size: 60px; font-family: BACS"">TDKhOPE</p>","","","","","","","","",""
